practice.thisRepN,practice.thisTrialN,practice.thisN,practice.thisIndex,trials.thisRepN,trials.thisTrialN,trials.thisN,trials.thisIndex,blank_txt.started,blank_txt.stopped,practice_frequency,practice_level,psychopy_volume,tProbe.started,tProbe.stopped,tFeedback.keys,tFeedback.corr,tFeedback.started,tFeedback.stopped,tToo_early.keys,tToo_early.corr,tToo_early.started,tToo_early.stopped,tToo_late.keys,tToo_late.corr,tToo_late.rt,tToo_late.started,tToo_late.stopped,you_done_goofed.started,you_done_goofed.stopped,tFeedback.rt,Init_phase,Frequency,Level,Psychopy_Volume,Catch trial,probe.started,probe.stopped,feedback.keys,feedback.corr,feedback.rt,feedback.started,feedback.stopped,too_late.keys,too_late.corr,too_late.started,too_late.stopped,Audiogram,participant,session,Language (english or french),Tone duration (ms),date,expName,psychopyVersion,frameRate,
0,0,0,0,,,,,92.23535400000401,None,567,40,0.006099267302654233,1.01393186673522,None,None,0,94.24239410017617,95.25078430003487,None,1,93.25286080013029,94.2616083000321,"['space', 'space']",0,"[0.004251099890097976, 0.724486299790442]",95.25078430003487,None,96.27277756674836,None,,,,,,,,,,,,,,,,,,,rehvhf,001,fr,200,2022-05-11_10h53.05.814,Bayesian,2022.1.1,None,
1,0,1,0,,,,,,,234,40,0.019882976039061955,1.0074653667397797,None,None,0,97.29787150002085,98.32270600018091,None,1,96.28986140014604,97.29787150002085,['space'],0,[0.1001228999812156],98.32270600018091,None,99.3582906667764,None,,,,,,,,,,,,,,,,,,,rehvhf,001,fr,200,2022-05-11_10h53.05.814,Bayesian,2022.1.1,None,
2,0,2,0,,,,,,,2345,40,0.008245949202640053,1.0069306665100157,None,['space'],1,100.35692319995724,101.3681283001788,None,1,99.37023520004004,100.37660520011559,None,1,,101.3681283001788,None,102.41033240011893,None,[0.4353283999953419],,,,,,,,,,,,,,,,,,rehvhf,001,fr,200,2022-05-11_10h53.05.814,Bayesian,2022.1.1,None,
,,,,0,0,0,0,111.1002226001583,None,,,,,,,,,,,,,,,,,,,,,,"{'x': [], 'y': [], 'is_init_phase': True, 'is_exam_finished': False, 'threshold_uncertainty_db': 6}",1000,60,0.0440524436504007,False,0.011233600089326501,None,['space'],1,[0.3229957998264581],112.18118240009062,113.20189420017414,None,1,113.20189420017414,None,,rehvhf,001,fr,200,2022-05-11_10h53.05.814,Bayesian,2022.1.1,None,
,,,,1,0,1,0,,,,,,,,,,,,,,,,,,,,,,,,"{'x': [[1000, 60]], 'y': [[1]], 'audiogram': {}, 'is_init_phase': True, 'is_exam_finished': False, 'threshold_uncertainty_db': 6}",1000,40,0.004405244365040069,False,0.007406699704006314,0.19957239972427487,['space'],1,[0.2872798000462353],115.28816390014254,116.30548610002734,None,1,116.30548610002734,115.28816390014254,,rehvhf,001,fr,200,2022-05-11_10h53.05.814,Bayesian,2022.1.1,None,
,,,,2,0,2,0,,,,,,,,,,,,,,,,,,,,,,,,"{'x': [[1000, 60], [1000, 40]], 'y': [[1], [1]], 'audiogram': {}, 'is_init_phase': True, 'is_exam_finished': False, 'threshold_uncertainty_db': 6}",1000,20,0.0004405244365040069,False,0.008338900050148368,None,['space'],1,[0.36470800009556115],119.20999460015446,120.20534360012971,None,1,120.20534360012971,119.20999460015446,,rehvhf,001,fr,200,2022-05-11_10h53.05.814,Bayesian,2022.1.1,None,
,,,,3,0,3,0,,,,,,,,,,,,,,,,,,,,,,,,"{'x': [[1000, 60], [1000, 40], [1000, 20]], 'y': [[1], [1], [1]], 'audiogram': {}, 'is_init_phase': True, 'is_exam_finished': False, 'threshold_uncertainty_db': 6}",,,,True,0.011511833406984806,None,None,0,,121.54937560018152,122.55793890007772,None,1,122.55793890007772,121.54937560018152,,rehvhf,001,fr,200,2022-05-11_10h53.05.814,Bayesian,2022.1.1,None,
,,,,4,0,4,0,,,,,,,,,,,,,,,,,,,,,,,,"{'x': [[1000, 60], [1000, 40], [1000, 20]], 'y': [[1], [1], [1]], 'audiogram': {}, 'is_init_phase': True, 'is_exam_finished': False, 'threshold_uncertainty_db': 6}",1000,0,4.405244365040069e-05,False,0.010368866845965385,0.2050040669273585,None,0,,124.07645640010014,125.0827689000871,None,1,125.0827689000871,124.07645640010014,,rehvhf,001,fr,200,2022-05-11_10h53.05.814,Bayesian,2022.1.1,None,
,,,,5,0,5,0,,,,,,,,,,,,,,,,,,,,,,,,"{'x': [[1000, 60], [1000, 40], [1000, 20], [1000, 0]], 'y': [[1], [1], [1], [-1]], 'audiogram': {}, 'is_init_phase': True, 'is_exam_finished': False, 'threshold_uncertainty_db': 6}",1500,10,0.0001527460556607757,False,0.016422200249508023,None,None,0,,126.2005955001805,127.19948850013316,None,1,127.19948850013316,126.2005955001805,,rehvhf,001,fr,200,2022-05-11_10h53.05.814,Bayesian,2022.1.1,None,
,,,,6,0,6,0,,,,,,,,,,,,,,,,,,,,,,,,"{'x': [[1000, 60], [1000, 40], [1000, 20], [1000, 0], [1500, 10]], 'y': [[1], [1], [1], [-1], [-1]], 'audiogram': {}, 'is_init_phase': True, 'is_exam_finished': False, 'threshold_uncertainty_db': 6}",1500,30,0.001527460556607757,False,0.015485300216823816,None,['space'],1,[0.39912569988518953],128.39189710002393,129.40035800007172,None,1,129.40035800007172,128.39189710002393,,rehvhf,001,fr,200,2022-05-11_10h53.05.814,Bayesian,2022.1.1,None,
,,,,7,0,7,0,,,,,,,,,,,,,,,,,,,,,,,,"{'x': [[1000, 60], [1000, 40], [1000, 20], [1000, 0], [1500, 10], [1500, 30]], 'y': [[1], [1], [1], [-1], [-1], [1]], 'audiogram': {}, 'is_init_phase': True, 'is_exam_finished': False, 'threshold_uncertainty_db': 6}",2000,10,0.00023657562948074026,False,0.010330300079658628,None,['space'],1,[0.64067959995009],131.7183463999536,132.7424667000305,None,1,132.7424667000305,131.7183463999536,,rehvhf,001,fr,200,2022-05-11_10h53.05.814,Bayesian,2022.1.1,None,
,,,,8,0,8,0,,,,,,,,,,,,,,,,,,,,,,,,"{'x': [[1000, 60], [1000, 40], [1000, 20], [1000, 0], [1500, 10], [1500, 30], [2000, 10]], 'y': [[1], [1], [1], [-1], [-1], [1], [1]], 'audiogram': {}, 'is_init_phase': True, 'is_exam_finished': False, 'threshold_uncertainty_db': 6}",2000,-10,2.3657562948074015e-05,False,0.011598900193348527,None,None,0,,134.29844509996474,135.3026004000567,None,1,135.3026004000567,134.29844509996474,,rehvhf,001,fr,200,2022-05-11_10h53.05.814,Bayesian,2022.1.1,None,
,,,,9,0,9,0,,,,,,,,,,,,,,,,,,,,,,,,"{'x': [[1000, 60], [1000, 40], [1000, 20], [1000, 0], [1500, 10], [1500, 30], [2000, 10], [2000, -10]], 'y': [[1], [1], [1], [-1], [-1], [1], [1], [-1]], 'audiogram': {}, 'is_init_phase': True, 'is_exam_finished': False, 'threshold_uncertainty_db': 6}",,,,True,0.013300733407959342,None,None,0,,137.43709340016358,138.46725039999,None,1,138.46725039999,137.43709340016358,,rehvhf,001,fr,200,2022-05-11_10h53.05.814,Bayesian,2022.1.1,None,
,,,,10,0,10,0,,,,,,,,,,,,,,,,,,,,,,,,"{'x': [[1000, 60], [1000, 40], [1000, 20], [1000, 0], [1500, 10], [1500, 30], [2000, 10], [2000, -10]], 'y': [[1], [1], [1], [-1], [-1], [1], [1], [-1]], 'audiogram': {}, 'is_init_phase': True, 'is_exam_finished': False, 'threshold_uncertainty_db': 6}",3000,10,0.00017336842522626576,False,0.004568400327116251,0.19253310025669634,['space'],1,[0.358961199875921],141.15263730008155,142.14873800007626,None,1,142.14873800007626,141.15263730008155,,rehvhf,001,fr,200,2022-05-11_10h53.05.814,Bayesian,2022.1.1,None,
,,,,11,0,11,0,,,,,,,,,,,,,,,,,,,,,,,,"{'x': [[1000, 60], [1000, 40], [1000, 20], [1000, 0], [1500, 10], [1500, 30], [2000, 10], [2000, -10], [3000, 10]], 'y': [[1], [1], [1], [-1], [-1], [1], [1], [-1], [1]], 'audiogram': {}, 'is_init_phase': True, 'is_exam_finished': False, 'threshold_uncertainty_db': 6}",3000,-10,1.7336842522626584e-05,False,0.013172200182452798,None,None,0,,144.8035226999782,145.83256769995205,None,1,145.83256769995205,144.8035226999782,,rehvhf,001,fr,200,2022-05-11_10h53.05.814,Bayesian,2022.1.1,None,
,,,,12,0,12,0,,,,,,,,,,,,,,,,,,,,,,,,"{'x': [[1000, 60], [1000, 40], [1000, 20], [1000, 0], [1500, 10], [1500, 30], [2000, 10], [2000, -10], [3000, 10], [3000, -10]], 'y': [[1], [1], [1], [-1], [-1], [1], [1], [-1], [1], [-1]], 'audiogram': {}, 'is_init_phase': True, 'is_exam_finished': False, 'threshold_uncertainty_db': 6}",4000,10,0.00026544222211549425,False,0.009575100149959326,None,['space'],1,[0.2791766996961087],147.74387770006433,148.77763270004652,None,1,148.77763270004652,147.74387770006433,,rehvhf,001,fr,200,2022-05-11_10h53.05.814,Bayesian,2022.1.1,None,
,,,,13,0,13,0,,,,,,,,,,,,,,,,,,,,,,,,"{'x': [[1000, 60], [1000, 40], [1000, 20], [1000, 0], [1500, 10], [1500, 30], [2000, 10], [2000, -10], [3000, 10], [3000, -10], [4000, 10]], 'y': [[1], [1], [1], [-1], [-1], [1], [1], [-1], [1], [-1], [1]], 'audiogram': {}, 'is_init_phase': True, 'is_exam_finished': False, 'threshold_uncertainty_db': 6}",4000,-10,2.6544222211549425e-05,False,0.009039200143888593,None,None,0,,150.01389320008457,151.04635430010967,None,1,151.04635430010967,150.01389320008457,,rehvhf,001,fr,200,2022-05-11_10h53.05.814,Bayesian,2022.1.1,None,
,,,,14,0,14,0,,,,,,,,,,,,,,,,,,,,,,,,"{'x': [[1000, 60], [1000, 40], [1000, 20], [1000, 0], [1500, 10], [1500, 30], [2000, 10], [2000, -10], [3000, 10], [3000, -10], [4000, 10], [4000, -10]], 'y': [[1], [1], [1], [-1], [-1], [1], [1], [-1], [1], [-1], [1], [-1]], 'audiogram': {}, 'is_init_phase': True, 'is_exam_finished': False, 'threshold_uncertainty_db': 6}",6000,10,0.00036641226656945183,False,0.01321790018118918,None,['space'],1,[0.32608079980127513],152.5779017000459,153.58487630006857,None,1,153.58487630006857,152.5779017000459,,rehvhf,001,fr,200,2022-05-11_10h53.05.814,Bayesian,2022.1.1,None,
,,,,15,0,15,0,,,,,,,,,,,,,,,,,,,,,,,,"{'x': [[1000, 60], [1000, 40], [1000, 20], [1000, 0], [1500, 10], [1500, 30], [2000, 10], [2000, -10], [3000, 10], [3000, -10], [4000, 10], [4000, -10], [6000, 10]], 'y': [[1], [1], [1], [-1], [-1], [1], [1], [-1], [1], [-1], [1], [-1], [1]], 'audiogram': {}, 'is_init_phase': True, 'is_exam_finished': False, 'threshold_uncertainty_db': 6}",6000,-10,3.664122665694518e-05,False,0.010630200384184718,None,None,0,,156.6191086000763,157.6311298001092,None,1,157.6311298001092,156.6191086000763,,rehvhf,001,fr,200,2022-05-11_10h53.05.814,Bayesian,2022.1.1,None,
,,,,16,0,16,0,,,,,,,,,,,,,,,,,,,,,,,,"{'x': [[1000, 60], [1000, 40], [1000, 20], [1000, 0], [1500, 10], [1500, 30], [2000, 10], [2000, -10], [3000, 10], [3000, -10], [4000, 10], [4000, -10], [6000, 10], [6000, -10]], 'y': [[1], [1], [1], [-1], [-1], [1], [1], [-1], [1], [-1], [1], [-1], [1], [-1]], 'audiogram': {}, 'is_init_phase': True, 'is_exam_finished': False, 'threshold_uncertainty_db': 6}",,,,True,0.01262533338740468,None,None,0,,159.05503499996848,160.08079290017486,None,1,160.08079290017486,159.05503499996848,,rehvhf,001,fr,200,2022-05-11_10h53.05.814,Bayesian,2022.1.1,None,
,,,,17,0,17,0,,,,,,,,,,,,,,,,,,,,,,,,"{'x': [[1000, 60], [1000, 40], [1000, 20], [1000, 0], [1500, 10], [1500, 30], [2000, 10], [2000, -10], [3000, 10], [3000, -10], [4000, 10], [4000, -10], [6000, 10], [6000, -10]], 'y': [[1], [1], [1], [-1], [-1], [1], [1], [-1], [1], [-1], [1], [-1], [1], [-1]], 'audiogram': {}, 'is_init_phase': True, 'is_exam_finished': False, 'threshold_uncertainty_db': 6}",8000,10,0.0005740768107484417,False,0.016127066453918815,None,['space'],1,[0.2764671999029815],161.97028960008174,162.96994030009955,None,1,162.96994030009955,161.97028960008174,,rehvhf,001,fr,200,2022-05-11_10h53.05.814,Bayesian,2022.1.1,None,
,,,,18,0,18,0,,,,,,,,,,,,,,,,,,,,,,,,"{'x': [[1000, 60], [1000, 40], [1000, 20], [1000, 0], [1500, 10], [1500, 30], [2000, 10], [2000, -10], [3000, 10], [3000, -10], [4000, 10], [4000, -10], [6000, 10], [6000, -10], [8000, 10]], 'y': [[1], [1], [1], [-1], [-1], [1], [1], [-1], [1], [-1], [1], [-1], [1], [-1], [1]], 'audiogram': {}, 'is_init_phase': True, 'is_exam_finished': False, 'threshold_uncertainty_db': 6}",8000,-10,5.740768107484415e-05,False,0.007955600041896105,None,['space'],1,[0.4107003998942673],165.9324737000279,166.94007929996587,None,1,166.94007929996587,165.9324737000279,,rehvhf,001,fr,200,2022-05-11_10h53.05.814,Bayesian,2022.1.1,None,
,,,,19,0,19,0,,,,,,,,,,,,,,,,,,,,,,,,"{'x': [[1000, 60], [1000, 40], [1000, 20], [1000, 0], [1500, 10], [1500, 30], [2000, 10], [2000, -10], [3000, 10], [3000, -10], [4000, 10], [4000, -10], [6000, 10], [6000, -10], [8000, 10], [8000, -10]], 'y': [[1], [1], [1], [-1], [-1], [1], [1], [-1], [1], [-1], [1], [-1], [1], [-1], [1], [1]], 'audiogram': {}, 'is_init_phase': True, 'is_exam_finished': False, 'threshold_uncertainty_db': 6}",750,10,0.00012851978913844324,False,0.00946450000628829,None,['space'],1,[0.5127882999368012],168.47034340002574,169.4908243000973,None,1,169.4908243000973,168.47034340002574,,rehvhf,001,fr,200,2022-05-11_10h53.05.814,Bayesian,2022.1.1,None,
,,,,20,0,20,0,,,,,,,,,,,,,,,,,,,,,,,,"{'x': [[1000, 60], [1000, 40], [1000, 20], [1000, 0], [1500, 10], [1500, 30], [2000, 10], [2000, -10], [3000, 10], [3000, -10], [4000, 10], [4000, -10], [6000, 10], [6000, -10], [8000, 10], [8000, -10], [750, 10]], 'y': [[1], [1], [1], [-1], [-1], [1], [1], [-1], [1], [-1], [1], [-1], [1], [-1], [1], [1], [1]], 'audiogram': {}, 'is_init_phase': True, 'is_exam_finished': False, 'threshold_uncertainty_db': 6}",750,-10,1.2851978913844322e-05,False,0.014378000283613801,None,None,0,,171.40708420006558,172.40482970001176,None,1,172.40482970001176,171.40708420006558,,rehvhf,001,fr,200,2022-05-11_10h53.05.814,Bayesian,2022.1.1,None,
,,,,21,0,21,0,,,,,,,,,,,,,,,,,,,,,,,,"{'x': [[1000, 60], [1000, 40], [1000, 20], [1000, 0], [1500, 10], [1500, 30], [2000, 10], [2000, -10], [3000, 10], [3000, -10], [4000, 10], [4000, -10], [6000, 10], [6000, -10], [8000, 10], [8000, -10], [750, 10], [750, -10]], 'y': [[1], [1], [1], [-1], [-1], [1], [1], [-1], [1], [-1], [1], [-1], [1], [-1], [1], [1], [1], [-1]], 'audiogram': {}, 'is_init_phase': True, 'is_exam_finished': False, 'threshold_uncertainty_db': 6}",,,,True,0.014484833693131804,None,None,0,,174.20373099995777,175.2159855000209,None,1,175.2159855000209,174.20373099995777,,rehvhf,001,fr,200,2022-05-11_10h53.05.814,Bayesian,2022.1.1,None,
,,,,22,0,22,0,,,,,,,,,,,,,,,,,,,,,,,,"{'x': [[1000, 60], [1000, 40], [1000, 20], [1000, 0], [1500, 10], [1500, 30], [2000, 10], [2000, -10], [3000, 10], [3000, -10], [4000, 10], [4000, -10], [6000, 10], [6000, -10], [8000, 10], [8000, -10], [750, 10], [750, -10]], 'y': [[1], [1], [1], [-1], [-1], [1], [1], [-1], [1], [-1], [1], [-1], [1], [-1], [1], [1], [1], [-1]], 'audiogram': {}, 'is_init_phase': True, 'is_exam_finished': False, 'threshold_uncertainty_db': 6}",500,10,0.0002259279721874612,False,0.00971050001680851,None,None,0,,177.54404569999315,178.54472799994983,None,1,178.54472799994983,177.54404569999315,,rehvhf,001,fr,200,2022-05-11_10h53.05.814,Bayesian,2022.1.1,None,
,,,,23,0,23,0,,,,,,,,,,,,,,,,,,,,,,,,"{'x': [[1000, 60], [1000, 40], [1000, 20], [1000, 0], [1500, 10], [1500, 30], [2000, 10], [2000, -10], [3000, 10], [3000, -10], [4000, 10], [4000, -10], [6000, 10], [6000, -10], [8000, 10], [8000, -10], [750, 10], [750, -10], [500, 10]], 'y': [[1], [1], [1], [-1], [-1], [1], [1], [-1], [1], [-1], [1], [-1], [1], [-1], [1], [1], [1], [-1], [-1]], 'audiogram': {}, 'is_init_phase': True, 'is_exam_finished': False, 'threshold_uncertainty_db': 6}",500,30,0.002259279721874612,False,0.010023900074884295,None,['space'],1,[0.32047159993089736],179.8784825000912,180.88055870006792,None,1,180.88055870006792,179.8784825000912,,rehvhf,001,fr,200,2022-05-11_10h53.05.814,Bayesian,2022.1.1,None,
,,,,24,0,24,0,,,,,,,,,,,,,,,,,,,,,,,,"{'x': [[1000, 60], [1000, 40], [1000, 20], [1000, 0], [1500, 10], [1500, 30], [2000, 10], [2000, -10], [3000, 10], [3000, -10], [4000, 10], [4000, -10], [6000, 10], [6000, -10], [8000, 10], [8000, -10], [750, 10], [750, -10], [500, 10], [500, 30]], 'y': [[1], [1], [1], [-1], [-1], [1], [1], [-1], [1], [-1], [1], [-1], [1], [-1], [1], [1], [1], [-1], [-1], [1]], 'audiogram': {}, 'is_init_phase': True, 'is_exam_finished': False, 'threshold_uncertainty_db': 6}",250,10,0.0005296268625886444,False,0.008423900231719017,None,['space'],1,[0.4511216999962926],183.31599110015668,184.32463240018114,None,1,184.32463240018114,183.31599110015668,,rehvhf,001,fr,200,2022-05-11_10h53.05.814,Bayesian,2022.1.1,None,
,,,,25,0,25,0,,,,,,,,,,,,,,,,,,,,,,,,"{'x': [[1000, 60], [1000, 40], [1000, 20], [1000, 0], [1500, 10], [1500, 30], [2000, 10], [2000, -10], [3000, 10], [3000, -10], [4000, 10], [4000, -10], [6000, 10], [6000, -10], [8000, 10], [8000, -10], [750, 10], [750, -10], [500, 10], [500, 30], [250, 10]], 'y': [[1], [1], [1], [-1], [-1], [1], [1], [-1], [1], [-1], [1], [-1], [1], [-1], [1], [1], [1], [-1], [-1], [1], [1]], 'audiogram': {}, 'is_init_phase': True, 'is_exam_finished': False, 'threshold_uncertainty_db': 6}",,,,True,0.008838133420795202,None,None,0,,186.6850610000547,187.69316809996963,None,1,187.69316809996963,186.6850610000547,,rehvhf,001,fr,200,2022-05-11_10h53.05.814,Bayesian,2022.1.1,None,
,,,,26,0,26,0,,,,,,,,,,,,,,,,,,,,,,,,"{'x': [[1000, 60], [1000, 40], [1000, 20], [1000, 0], [1500, 10], [1500, 30], [2000, 10], [2000, -10], [3000, 10], [3000, -10], [4000, 10], [4000, -10], [6000, 10], [6000, -10], [8000, 10], [8000, -10], [750, 10], [750, -10], [500, 10], [500, 30], [250, 10]], 'y': [[1], [1], [1], [-1], [-1], [1], [1], [-1], [1], [-1], [1], [-1], [1], [-1], [1], [1], [1], [-1], [-1], [1], [1]], 'audiogram': {}, 'is_init_phase': True, 'is_exam_finished': False, 'threshold_uncertainty_db': 6}",250,-10,5.296268625886443e-05,False,0.010557300178334117,None,None,0,,190.3187863000203,191.32651609997265,None,1,191.32651609997265,190.3187863000203,,rehvhf,001,fr,200,2022-05-11_10h53.05.814,Bayesian,2022.1.1,None,
,,,,27,0,27,0,,,,,,,,,,,,,,,,,,,,,,,,"{'x': [[1000, 60], [1000, 40], [1000, 20], [1000, 0], [1500, 10], [1500, 30], [2000, 10], [2000, -10], [3000, 10], [3000, -10], [4000, 10], [4000, -10], [6000, 10], [6000, -10], [8000, 10], [8000, -10], [750, 10], [750, -10], [500, 10], [500, 30], [250, 10], [250, -10]], 'y': [[1], [1], [1], [-1], [-1], [1], [1], [-1], [1], [-1], [1], [-1], [1], [-1], [1], [1], [1], [-1], [-1], [1], [1], [-1]], 'audiogram': {}, 'is_init_phase': True, 'is_exam_finished': False, 'threshold_uncertainty_db': 6}",125,10,0.002285440948074376,False,0.01142670027911663,None,['space'],1,[0.756325899856165],193.89117159997113,194.9147791999858,None,1,194.9147791999858,193.89117159997113,,rehvhf,001,fr,200,2022-05-11_10h53.05.814,Bayesian,2022.1.1,None,
,,,,28,0,28,0,,,,,,,,,,,,,,,,,,,,,,,,"{'x': [[1000, 60], [1000, 40], [1000, 20], [1000, 0], [1500, 10], [1500, 30], [2000, 10], [2000, -10], [3000, 10], [3000, -10], [4000, 10], [4000, -10], [6000, 10], [6000, -10], [8000, 10], [8000, -10], [750, 10], [750, -10], [500, 10], [500, 30], [250, 10], [250, -10], [125, 10]], 'y': [[1], [1], [1], [-1], [-1], [1], [1], [-1], [1], [-1], [1], [-1], [1], [-1], [1], [1], [1], [-1], [-1], [1], [1], [-1], [1]], 'audiogram': {}, 'is_init_phase': True, 'is_exam_finished': False, 'threshold_uncertainty_db': 6}",125,-10,0.0002285440948074376,False,0.008115400094538927,None,None,0,,196.1297852001153,197.1527285000775,None,1,197.1527285000775,196.1297852001153,,rehvhf,001,fr,200,2022-05-11_10h53.05.814,Bayesian,2022.1.1,None,
,,,,29,0,29,0,,,,,,,,,,,,,,,,,,,,,,,,"{'x': [[1000, 60], [1000, 40], [1000, 20], [1000, 0], [1500, 10], [1500, 30], [2000, 10], [2000, -10], [3000, 10], [3000, -10], [4000, 10], [4000, -10], [6000, 10], [6000, -10], [8000, 10], [8000, -10], [750, 10], [750, -10], [500, 10], [500, 30], [250, 10], [250, -10], [125, 10], [125, -10]], 'y': [[1], [1], [1], [-1], [-1], [1], [1], [-1], [1], [-1], [1], [-1], [1], [-1], [1], [1], [1], [-1], [-1], [1], [1], [-1], [1], [-1]], 'audiogram': {}, 'is_init_phase': True, 'is_exam_finished': False, 'threshold_uncertainty_db': 6}",176.7766952966369,0.0,0.0003500209769801159,False,0.014711233088746667,None,None,0,,200.91632520011626,201.93525430001318,None,1,201.93525430001318,200.91632520011626,,rehvhf,001,fr,200,2022-05-11_10h53.05.814,Bayesian,2022.1.1,None,
,,,,30,0,30,0,,,,,,,,,,,,,,,,,,,,,,,,,353.5533905932738,8.0,0.0002225841099115047,False,0.012667866423726082,None,['space'],1,[0.41349339997395873],205.40126910014078,206.4063308001496,None,1,206.4063308001496,205.40126910014078,,rehvhf,001,fr,200,2022-05-11_10h53.05.814,Bayesian,2022.1.1,None,
,,,,31,0,31,0,,,,,,,,,,,,,,,,,,,,,,,,,8000.0,-10.0,5.740768107484415e-05,False,0.004761300282552838,None,['space'],1,[0.4425788000226021],209.22881030011922,210.23515000008047,None,1,210.23515000008047,209.22881030011922,,rehvhf,001,fr,200,2022-05-11_10h53.05.814,Bayesian,2022.1.1,None,
,,,,32,0,32,0,,,,,,,,,,,,,,,,,,,,,,,,,,,,True,0.015066933585330844,None,None,0,,212.87259909999557,213.87751760007814,None,1,213.87751760007814,212.87259909999557,,rehvhf,001,fr,200,2022-05-11_10h53.05.814,Bayesian,2022.1.1,None,
,,,,33,0,33,0,,,,,,,,,,,,,,,,,,,,,,,,,535.8867312681471,10.0,0.00020822445587443392,False,0.013364800019189715,None,['space'],1,[0.4185902997851372],217.41180240013637,218.42841839999892,None,1,218.42841839999892,217.41180240013637,,rehvhf,001,fr,200,2022-05-11_10h53.05.814,Bayesian,2022.1.1,None,
,,,,34,0,34,0,,,,,,,,,,,,,,,,,,,,,,,,,125.0,2.0,0.000909850429304992,False,0.006954100215807557,None,None,0,,222.4206022999715,223.4252610001713,None,1,223.4252610001713,222.4206022999715,,rehvhf,001,fr,200,2022-05-11_10h53.05.814,Bayesian,2022.1.1,None,
,,,,35,0,35,0,,,,,,,,,,,,,,,,,,,,,,,,,2639.015821545789,0.0,7.725655650415703e-05,False,0.005204033339396119,None,None,0,,227.5665848001372,228.57029379997402,None,1,228.57029379997402,227.5665848001372,,rehvhf,001,fr,200,2022-05-11_10h53.05.814,Bayesian,2022.1.1,None,
,,,,36,0,36,0,,,,,,,,,,,,,,,,,,,,,,,,,203.0630990890589,5.0,0.00046135863973359204,False,0.010244766715914011,None,['space'],1,[0.45730439969338477],232.4303514000494,233.44204250001349,None,1,233.44204250001349,232.4303514000494,,rehvhf,001,fr,200,2022-05-11_10h53.05.814,Bayesian,2022.1.1,None,
,,,,37,0,37,0,,,,,,,,,,,,,,,,,,,,,,,,,,,,True,0.011690733255818486,None,None,0,,235.9272396999877,236.93436389998533,None,1,236.93436389998533,235.9272396999877,,rehvhf,001,fr,200,2022-05-11_10h53.05.814,Bayesian,2022.1.1,None,
,,,,38,0,38,0,,,,,,,,,,,,,,,,,,,,,,,,,4594.793419988137,1.0,0.0001401013622855946,False,0.011688133236020803,0.2065906331408769,['space'],1,[0.3445171997882426],239.58248049998656,240.58195230015554,None,1,240.58195230015554,239.58248049998656,,rehvhf,001,fr,200,2022-05-11_10h53.05.814,Bayesian,2022.1.1,None,
,,,,39,0,39,0,,,,,,,,,,,,,,,,,,,,,,,,,1148.6983549970344,10.0,0.00015897423808843036,False,0.014968166826292872,None,['space'],1,[0.4054371998645365],244.06518519995734,245.07200830010697,None,1,245.07200830010697,244.06518519995734,,rehvhf,001,fr,200,2022-05-11_10h53.05.814,Bayesian,2022.1.1,None,
,,,,40,0,40,0,,,,,,,,,,,,,,,,,,,,,,,,,307.7861033362292,0.0,0.00010626360360927124,False,0.01078323321416974,None,None,0,,247.4712426001206,248.48021770012565,None,1,248.48021770012565,247.4712426001206,,rehvhf,001,fr,200,2022-05-11_10h53.05.814,Bayesian,2022.1.1,None,
,,,,41,0,41,0,,,,,,,,,,,,,,,,,,,,,,,,,757.8582832551998,3.0,5.690296941495141e-05,False,0.009951133280992508,None,None,0,,251.8813303001225,252.8997806000989,None,1,252.8997806000989,251.8813303001225,,rehvhf,001,fr,200,2022-05-11_10h53.05.814,Bayesian,2022.1.1,None,
,,,,42,0,42,0,,,,,,,,,,,,,,,,,,,,,,,,,,,,True,0.014149033697322011,None,None,0,,254.91409120010212,255.9315206001047,None,1,255.9315206001047,254.91409120010212,,rehvhf,001,fr,200,2022-05-11_10h53.05.814,Bayesian,2022.1.1,None,
,,,,43,0,43,0,,,,,,,,,,,,,,,,,,,,,,,,,3482.202253184498,1.0,8.398389572004273e-05,False,0.010620266664773226,None,['space'],1,[0.41933439997956157],258.4353055001702,259.43745249998756,None,1,259.43745249998756,258.4353055001702,,rehvhf,001,fr,200,2022-05-11_10h53.05.814,Bayesian,2022.1.1,None,
,,,,44,0,44,0,,,,,,,,,,,,,,,,,,,,,,,,,1515.7165665103996,10.0,0.00015694472252028552,False,0.008267866680398583,None,None,0,,262.1294007000979,263.13903079996817,None,1,263.13903079996817,262.1294007000979,,rehvhf,001,fr,200,2022-05-11_10h53.05.814,Bayesian,2022.1.1,None,
,,,,45,0,45,0,,,,,,,,,,,,,,,,,,,,,,,,,5278.031643091578,-5.0,8.012985481154062e-05,False,0.005160466535016894,None,['space'],1,[0.3842865996994078],266.64652539999224,267.6445600001607,None,1,267.6445600001607,266.64652539999224,,rehvhf,001,fr,200,2022-05-11_10h53.05.814,Bayesian,2022.1.1,None,
,,,,46,0,46,0,,,,,,,,,,,,,,,,,,,,,,,,,250.0,2.0,0.00021084825171429112,False,0.00924553326331079,None,['space'],1,[0.6490160999819636],270.7015109001659,271.7146860000212,None,1,271.7146860000212,270.7015109001659,,rehvhf,001,fr,200,2022-05-11_10h53.05.814,Bayesian,2022.1.1,None,
,,,,47,0,47,0,,,,,,,,,,,,,,,,,,,,,,,,,125.0,6.0,0.0014420157515633036,False,0.015768366865813732,None,['space'],1,[0.6039613999892026],274.7151397000998,275.73932670010254,None,1,275.73932670010254,274.7151397000998,,rehvhf,001,fr,200,2022-05-11_10h53.05.814,Bayesian,2022.1.1,None,
,,,,48,0,48,0,,,,,,,,,,,,,,,,,,,,,,,,,,,,True,0.013548333197832108,None,None,0,,277.5458621000871,278.555955799995,None,1,278.555955799995,277.5458621000871,,rehvhf,001,fr,200,2022-05-11_10h53.05.814,Bayesian,2022.1.1,None,
,,,,49,0,49,0,,,,,,,,,,,,,,,,,,,,,,,,,406.12619817811805,7.0,0.00017068310902242423,False,0.003305633319541812,0.19566563330590725,['space'],1,[0.49284829990938306],282.9700611999724,283.97813079995103,None,1,283.97813079995103,282.9700611999724,,rehvhf,001,fr,200,2022-05-11_10h53.05.814,Bayesian,2022.1.1,None,
,,,,50,0,50,0,,,,,,,,,,,,,,,,,,,,,,,,,574.3491774985172,8.0,0.00015032685425488555,False,0.010693666758015752,None,['space'],1,[0.451385400025174],286.9311887000222,287.92635890003294,None,1,287.92635890003294,286.9311887000222,,rehvhf,001,fr,200,2022-05-11_10h53.05.814,Bayesian,2022.1.1,None,
,,,,51,0,51,0,,,,,,,,,,,,,,,,,,,,,,,,,2462.2888266898335,4.0,0.00013481016779355918,False,0.013290266739204526,None,['space'],1,[0.4374731997959316],291.1211741999723,292.13091700011864,None,1,292.13091700011864,291.1211741999723,,rehvhf,001,fr,200,2022-05-11_10h53.05.814,Bayesian,2022.1.1,None,
,,,,52,0,52,0,,,,,,,,,,,,,,,,,,,,,,,,,,,,True,0.0034316335804760456,None,None,0,,294.87491250014864,295.8690323000774,None,1,295.8690323000774,294.87491250014864,,rehvhf,001,fr,200,2022-05-11_10h53.05.814,Bayesian,2022.1.1,None,
,,,,53,0,53,0,,,,,,,,,,,,,,,,,,,,,,,,,3732.1319661472303,-4.0,4.9995809299124594e-05,False,0.01636476651765406,None,['space'],1,[0.4742311998270452],299.3555567001458,300.36199530004524,None,1,300.36199530004524,299.3555567001458,,rehvhf,001,fr,200,2022-05-11_10h53.05.814,Bayesian,2022.1.1,None,
,,,,54,0,54,0,,,,,,,,,,,,,,,,,,,,,,,,,1000.0,6.0,8.78961806979346e-05,False,0.015125899808481336,None,['space'],1,[0.4513369998894632],304.30685660010204,305.3158462999854,None,1,305.3158462999854,304.30685660010204,,rehvhf,001,fr,200,2022-05-11_10h53.05.814,Bayesian,2022.1.1,None,
,,,,55,0,55,0,,,,,,,,,,,,,,,,,,,,,,,,,164.93848884661182,3.0,0.000555318596464719,False,0.011416099965572357,None,None,0,,308.5920162999537,309.5962080999743,None,1,309.5962080999743,308.5920162999537,,rehvhf,001,fr,200,2022-05-11_10h53.05.814,Bayesian,2022.1.1,None,
,,,,56,0,56,0,,,,,,,,,,,,,,,,,,,,,,,,,8000.0,-13.0,4.064152580820497e-05,False,0.009293533395975828,0.20384203316643834,None,0,,313.4270962001756,314.4344458000269,None,1,314.4344458000269,313.4270962001756,,rehvhf,001,fr,200,2022-05-11_10h53.05.814,Bayesian,2022.1.1,None,
,,,,57,0,57,0,,,,,,,,,,,,,,,,,,,,,,,,,,,,True,0.008524400182068348,0.20469530019909143,None,0,,317.36940630013123,318.3894237000495,None,1,318.3894237000495,317.36940630013123,,rehvhf,001,fr,200,2022-05-11_10h53.05.814,Bayesian,2022.1.1,None,
,,,,58,0,58,0,,,,,,,,,,,,,,,,,,,,,,,,,435.2752816480623,6.0,0.00014914969050511658,False,0.013405999867245555,None,['space'],1,[0.4154793999623507],322.6158184001688,323.6440117000602,None,1,323.6440117000602,322.6158184001688,,rehvhf,001,fr,200,2022-05-11_10h53.05.814,Bayesian,2022.1.1,None,
,,,,59,0,59,0,,,,,,,,,,,,,,,,,,,,,,,,,4924.577653379667,-8.0,5.874332325816365e-05,False,0.014817966613918543,0.21294736652635038,None,0,,328.0756467001047,329.08048909995705,None,1,329.08048909995705,328.0756467001047,,rehvhf,001,fr,200,2022-05-11_10h53.05.814,Bayesian,2022.1.1,None,
,,,,60,0,60,0,,,,,,,,,,,,,,,,,,,,,,,,,250.0,0.0,0.0001674827195789138,False,0.01269340026192367,None,None,0,,333.54503739997745,334.56909300014377,None,1,334.56909300014377,333.54503739997745,,rehvhf,001,fr,200,2022-05-11_10h53.05.814,Bayesian,2022.1.1,None,
,,,,61,0,61,0,,,,,,,,,,,,,,,,,,,,,,,,,,,,True,0.010500033386051655,None,None,0,,336.7917337999679,337.8047525000293,None,1,337.8047525000293,336.7917337999679,,rehvhf,001,fr,200,2022-05-11_10h53.05.814,Bayesian,2022.1.1,None,
,,,,62,0,62,0,,,,,,,,,,,,,,,,,,,,,,,,,1866.0659830736151,9.0,0.00019380397740018202,False,0.003289399901404977,None,['space'],1,[0.48524289997294545],342.0347631999757,343.05455800006166,None,1,343.05455800006166,342.0347631999757,,rehvhf,001,fr,200,2022-05-11_10h53.05.814,Bayesian,2022.1.1,None,
,,,,63,0,63,0,,,,,,,,,,,,,,,,,,,,,,,,,757.8582832551998,4.0,6.384618178815568e-05,False,0.011730366619303823,None,None,0,,347.6274727000855,348.650394000113,None,1,348.650394000113,347.6274727000855,,rehvhf,001,fr,200,2022-05-11_10h53.05.814,Bayesian,2022.1.1,None,
,,,,64,0,64,0,,,,,,,,,,,,,,,,,,,,,,,,,3249.0095854249403,-4.0,4.464479880532507e-05,False,0.006479933392256498,None,['space'],1,[0.5368675999343395],351.9184965000022,352.9414373000618,None,1,352.9414373000618,351.9184965000022,,rehvhf,001,fr,200,2022-05-11_10h53.05.814,Bayesian,2022.1.1,None,
,,,,65,0,65,0,,,,,,,,,,,,,,,,,,,,,,,,,164.93848884661182,5.0,0.0006991046927313053,False,0.015659700147807598,None,None,0,,356.689684699988,357.6959512999747,None,1,357.6959512999747,356.689684699988,,rehvhf,001,fr,200,2022-05-11_10h53.05.814,Bayesian,2022.1.1,None,
,,,,66,0,66,0,,,,,,,,,,,,,,,,,,,,,,,,,,,,True,0.011961933691054583,None,None,0,,360.59920520009473,361.6087668000255,None,1,361.6087668000255,360.59920520009473,,rehvhf,001,fr,200,2022-05-11_10h53.05.814,Bayesian,2022.1.1,None,
,,,,67,0,67,0,,,,,,,,,,,,,,,,,,,,,,,,,353.5533905932738,2.0,0.0001115563142959358,False,0.012345799943432212,None,None,0,,366.03034000005573,367.032308800146,None,1,367.032308800146,366.03034000005573,,rehvhf,001,fr,200,2022-05-11_10h53.05.814,Bayesian,2022.1.1,None,
,,,,68,0,68,0,,,,,,,,,,,,,,,,,,,,,,,,,2297.3967099940687,2.0,0.00010248188763469557,False,0.013111233478412032,None,['space'],1,[0.47028240002691746],371.5044054000173,372.5293398001231,None,1,372.5293398001231,371.5044054000173,,rehvhf,001,fr,200,2022-05-11_10h53.05.814,Bayesian,2022.1.1,None,
,,,,69,0,69,0,,,,,,,,,,,,,,,,,,,,,,,,,125.0,4.0,0.0011454338263838868,False,0.002741733565926552,0.19549043360166252,None,0,,376.600296900142,377.61548519995995,None,1,377.61548519995995,376.600296900142,,rehvhf,001,fr,200,2022-05-11_10h53.05.814,Bayesian,2022.1.1,None,
,,,,70,0,70,0,,,,,,,,,,,,,,,,,,,,,,,,,1148.6983549970344,7.0,0.00011254514168038452,False,0.013334199786186218,None,['space'],1,[0.5147855998948216],381.0283344001509,382.0516760000028,None,1,382.0516760000028,381.0283344001509,,rehvhf,001,fr,200,2022-05-11_10h53.05.814,Bayesian,2022.1.1,None,
,,,,71,0,71,0,,,,,,,,,,,,,,,,,,,,,,,,,,,,True,0.00822623330168426,None,None,0,,384.6233890999574,385.6395309001673,None,1,385.6395309001673,384.6233890999574,,rehvhf,001,fr,200,2022-05-11_10h53.05.814,Bayesian,2022.1.1,None,
,,,,72,0,72,0,,,,,,,,,,,,,,,,,,,,,,,,,6062.8662660415985,-8.0,4.7308055034313446e-05,False,0.004127733409404755,None,None,0,,389.7340874001384,390.7471048999578,None,1,390.7471048999578,389.7340874001384,,rehvhf,001,fr,200,2022-05-11_10h53.05.814,Bayesian,2022.1.1,None,
,,,,73,0,73,0,,,,,,,,,,,,,,,,,,,,,,,,,574.3491774985172,7.0,0.00013397894988136157,False,0.003926600096747279,0.19324240018613636,['space'],1,[0.6201221998780966],395.38679799996316,396.3965193000622,None,1,396.3965193000622,395.38679799996316,,rehvhf,001,fr,200,2022-05-11_10h53.05.814,Bayesian,2022.1.1,None,
,,,,74,0,74,0,,,,,,,,,,,,,,,,,,,,,,,,,164.93848884661182,7.0,0.0008801206631839937,False,0.014095366932451725,None,None,0,,400.71202850015834,401.7175070999656,None,1,401.7175070999656,400.71202850015834,,rehvhf,001,fr,200,2022-05-11_10h53.05.814,Bayesian,2022.1.1,None,
,,,,75,0,75,0,,,,,,,,,,,,,,,,,,,,,,,,,2639.015821545789,-3.0,5.4693453493152915e-05,False,0.006100633181631565,None,None,0,,405.9239726001397,406.9324737000279,None,1,406.9324737000279,405.9239726001397,,rehvhf,001,fr,200,2022-05-11_10h53.05.814,Bayesian,2022.1.1,None,
,,,,76,0,76,0,,,,,,,,,,,,,,,,,,,,,,,,,4000.0,-7.0,3.749471046662279e-05,False,0.004221966490149498,0.19618926639668643,['space'],1,[0.48663239972665906],411.632613300113,412.6386696000118,None,1,412.6386696000118,411.632613300113,,rehvhf,001,fr,200,2022-05-11_10h53.05.814,Bayesian,2022.1.1,None,
,,,,77,0,77,0,,,,,,,,,,,,,,,,,,,,,,,,,164.93848884661182,9.0,0.0011080062683274646,False,0.013937233248725533,None,None,0,,417.3661142999772,418.3795616000425,None,1,418.3795616000425,417.3661142999772,,rehvhf,001,fr,200,2022-05-11_10h53.05.814,Bayesian,2022.1.1,None,
,,,,78,0,78,0,,,,,,,,,,,,,,,,,,,,,,,,,,,,True,0.000296066515147686,0.18379526631906629,None,0,,420.67573300004005,421.68064719997346,None,1,421.68064719997346,420.67573300004005,,rehvhf,001,fr,200,2022-05-11_10h53.05.814,Bayesian,2022.1.1,None,
,,,,79,0,79,0,,,,,,,,,,,,,,,,,,,,,,,,,6498.0191708498805,-7.0,6.075361890547512e-05,False,0.001938666682690382,None,None,0,,426.06321090017445,427.0584517000243,None,1,427.0584517000243,426.06321090017445,,rehvhf,001,fr,200,2022-05-11_10h53.05.814,Bayesian,2022.1.1,None,
,,,,80,0,80,0,,,,,,,,,,,,,,,,,,,,,,,,,466.5164957684038,5.0,0.0001300910904933496,False,0.010539166629314423,0.2058014664798975,None,0,,430.30925490008667,431.30358080007136,None,1,431.30358080007136,430.30925490008667,,rehvhf,001,fr,200,2022-05-11_10h53.05.814,Bayesian,2022.1.1,None,
,,,,81,0,81,0,,,,,,,,,,,,,,,,,,,,,,,,,1866.0659830736151,7.0,0.0001539439712508311,False,0.005774533376097679,0.2017058334313333,['space'],1,[0.5099158999510109],435.04824430006556,436.0645580999553,None,1,436.0645580999553,435.04824430006556,,rehvhf,001,fr,200,2022-05-11_10h53.05.814,Bayesian,2022.1.1,None,
,,,,82,0,82,0,,,,,,,,,,,,,,,,,,,,,,,,,870.5505632961246,4.0,6.398729178804854e-05,False,0.001097199972718954,0.19120320002548397,None,0,,440.19873820012435,441.21446819999255,None,1,441.21446819999255,440.19873820012435,,rehvhf,001,fr,200,2022-05-11_10h53.05.814,Bayesian,2022.1.1,None,
,,,,83,0,83,0,,,,,,,,,,,,,,,,,,,,,,,,,,,,True,0.013296633493155241,None,None,0,,442.3694545000326,443.3960180999711,None,1,443.3960180999711,442.3694545000326,,rehvhf,001,fr,200,2022-05-11_10h53.05.814,Bayesian,2022.1.1,None,
,,,,84,0,84,0,,,,,,,,,,,,,,,,,,,,,,,,,307.7861033362292,3.0,0.00015010132972500563,False,0.006885933456942439,0.19970143353566527,None,0,,447.9595358001534,448.95534790004604,None,1,448.95534790004604,447.9595358001534,,rehvhf,001,fr,200,2022-05-11_10h53.05.814,Bayesian,2022.1.1,None,
,,,,85,0,85,0,,,,,,,,,,,,,,,,,,,,,,,,,1319.5079107728945,8.0,0.00013258633578769888,False,0.013762433314695954,None,['space'],1,[0.374183899955824],453.3922860000748,454.40814059996046,None,1,454.40814059996046,453.3922860000748,,rehvhf,001,fr,200,2022-05-11_10h53.05.814,Bayesian,2022.1.1,None,
,,,,86,0,86,0,,,,,,,,,,,,,,,,,,,,,,,,,217.63764082403114,4.0,0.00036593080929248566,False,0.007143766852095723,0.19989856681786478,None,0,,457.669319299981,458.6788030001335,None,1,458.6788030001335,457.669319299981,,rehvhf,001,fr,200,2022-05-11_10h53.05.814,Bayesian,2022.1.1,None,
,,,,87,0,87,0,,,,,,,,,,,,,,,,,,,,,,,,,164.93848884661182,11.0,0.0013948972476246718,False,0.011998233385384083,None,['space'],1,[0.48576959990896285],461.952252499992,462.9599060001783,None,1,462.9599060001783,461.952252499992,,rehvhf,001,fr,200,2022-05-11_10h53.05.814,Bayesian,2022.1.1,None,
,,,,88,0,88,0,,,,,,,,,,,,,,,,,,,,,,,,,8000.0,-11.0,5.116464961403774e-05,False,0.01084659993648529,None,None,0,,466.15020140004344,467.1617819000967,None,1,467.1617819000967,466.15020140004344,,rehvhf,001,fr,200,2022-05-11_10h53.05.814,Bayesian,2022.1.1,None,
,,,,89,0,89,0,,,,,,,,,,,,,,,,,,,,,,,,,,,,True,0.013953233370557427,None,None,0,,469.5655672000721,470.59138720016927,None,1,470.59138720016927,469.5655672000721,,rehvhf,001,fr,200,2022-05-11_10h53.05.814,Bayesian,2022.1.1,None,
,,,,90,0,90,0,,,,,,,,,,,,,,,,,,,,,,,,,6062.8662660415985,-4.0,7.497821437245907e-05,False,0.0030401998665183783,None,None,0,,474.4288782000076,475.4484872999601,None,1,475.4484872999601,474.4288782000076,,rehvhf,001,fr,200,2022-05-11_10h53.05.814,Bayesian,2022.1.1,None,
,,,,91,0,91,0,,,,,,,,,,,,,,,,,,,,,,,,,125.0,6.0,0.0014420157515633036,False,0.010518166469410062,0.2069477664772421,None,0,,479.3311032000929,480.34233230003156,None,1,480.34233230003156,479.3311032000929,,rehvhf,001,fr,200,2022-05-11_10h53.05.814,Bayesian,2022.1.1,None,
,,,,92,0,92,0,,,,,,,,,,,,,,,,,,,,,,,,,1866.0659830736151,5.0,0.00012228204293011823,False,0.004421633435413241,None,None,0,,484.51649109995924,485.5181709001772,None,1,485.5181709001772,484.51649109995924,,rehvhf,001,fr,200,2022-05-11_10h53.05.814,Bayesian,2022.1.1,None,
,,,,93,0,93,0,,,,,,,,,,,,,,,,,,,,,,,,,,,,True,0.01459183357656002,None,None,0,,486.8169136000797,487.8216341000516,None,1,487.8216341000516,486.8169136000797,,rehvhf,001,fr,200,2022-05-11_10h53.05.814,Bayesian,2022.1.1,None,
,,,,94,0,94,0,,,,,,,,,,,,,,,,,,,,,,,,,659.7539553864473,7.0,0.00010870210106632774,False,0.000678633339703083,0.19168423325754702,['space'],1,[0.45124769979156554],491.5552018000744,492.56581489997916,None,1,492.56581489997916,491.5552018000744,,rehvhf,001,fr,200,2022-05-11_10h53.05.814,Bayesian,2022.1.1,None,
,,,,95,0,95,0,,,,,,,,,,,,,,,,,,,,,,,,,3249.0095854249403,-6.0,3.546262422465457e-05,False,0.000381366815418005,0.19005446671508253,['space'],1,[0.7147758998908103],497.51551160006784,498.53268870012835,None,1,498.53268870012835,497.51551160006784,,rehvhf,001,fr,200,2022-05-11_10h53.05.814,Bayesian,2022.1.1,None,
,,,,96,0,96,0,,,,,,,,,,,,,,,,,,,,,,,,,6062.8662660415985,-3.0,8.41269401965078e-05,False,0.013805166818201542,None,None,0,,503.9082223000005,504.912836200092,None,1,504.912836200092,503.9082223000005,,rehvhf,001,fr,200,2022-05-11_10h53.05.814,Bayesian,2022.1.1,None,
,,,,97,0,97,0,,,,,,,,,,,,,,,,,,,,,,,,,4287.0938501451765,-8.0,4.1281300523548036e-05,False,0.015479466877877712,None,None,0,,510.04694060003385,511.06985140009783,None,1,511.06985140009783,510.04694060003385,,rehvhf,001,fr,200,2022-05-11_10h53.05.814,Bayesian,2022.1.1,None,
,,,,98,0,98,0,,,,,,,,,,,,,,,,,,,,,,,,,307.7861033362292,4.0,0.00016841646196672018,False,0.002496700268238783,0.19182740012183785,None,0,,515.2036225001793,516.2109588000458,None,1,516.2109588000458,515.2036225001793,,rehvhf,001,fr,200,2022-05-11_10h53.05.814,Bayesian,2022.1.1,None,
,,,,99,0,99,0,,,,,,,,,,,,,,,,,,,,,,,,,,,,True,0.015173733467236161,None,None,0,,517.8776652000379,518.8872025001328,None,1,518.8872025001328,517.8776652000379,,rehvhf,001,fr,200,2022-05-11_10h53.05.814,Bayesian,2022.1.1,None,
,,,,100,0,100,0,,,,,,,,,,,,,,,,,,,,,,,,,1148.6983549970344,5.0,8.9397783717774e-05,False,0.01127393334172666,None,['space'],1,[0.4864472998306155],522.5922258000355,523.6170149999671,None,1,523.6170149999671,522.5922258000355,,rehvhf,001,fr,200,2022-05-11_10h53.05.814,Bayesian,2022.1.1,None,
,,,,101,0,101,0,,,,,,,,,,,,,,,,,,,,,,,,,6062.8662660415985,-1.0,0.00010590954282987185,False,0.008498333394527435,None,None,0,,528.4174772000406,529.43737900001,None,1,529.43737900001,528.4174772000406,,rehvhf,001,fr,200,2022-05-11_10h53.05.814,Bayesian,2022.1.1,None,
,,,,102,0,102,0,,,,,,,,,,,,,,,,,,,,,,,,,535.8867312681471,4.0,0.00010435943901325153,False,0.0026325667276978493,0.19174136663787067,None,0,,533.7471299001481,534.7433597999625,None,1,534.7433597999625,533.7471299001481,,rehvhf,001,fr,200,2022-05-11_10h53.05.814,Bayesian,2022.1.1,None,
,,,,103,0,103,0,,,,,,,,,,,,,,,,,,,,,,,,,,,,True,0.012782933423295617,None,None,0,,536.1932355000172,537.197393800132,None,1,537.197393800132,536.1932355000172,,rehvhf,001,fr,200,2022-05-11_10h53.05.814,Bayesian,2022.1.1,None,
,,,,104,0,104,0,,,,,,,,,,,,,,,,,,,,,,,,,8000.0,-9.0,6.441247758465671e-05,False,0.004606566624715924,0.19524376653134823,['space'],1,[0.4582880998495966],542.3639676000457,543.3842003999744,None,1,543.3842003999744,542.3639676000457,,rehvhf,001,fr,200,2022-05-11_10h53.05.814,Bayesian,2022.1.1,None,
,,,,105,0,105,0,,,,,,,,,,,,,,,,,,,,,,,,,5278.031643091578,-1.0,0.00012699726140370812,False,0.015158566646277905,None,['space'],1,[0.40589989977888763],547.3759000999853,548.3813227000646,None,1,548.3813227000646,547.3759000999853,,rehvhf,001,fr,200,2022-05-11_10h53.05.814,Bayesian,2022.1.1,None,
,,,,106,0,106,0,,,,,,,,,,,,,,,,,,,,,,,,,233.2582478842019,4.0,0.0003174271533696166,False,0.0001754665281623602,None,None,0,,552.8546275000554,553.8703565001488,None,1,553.8703565001488,552.8546275000554,,rehvhf,001,fr,200,2022-05-11_10h53.05.814,Bayesian,2022.1.1,None,
,,,,107,0,107,0,,,,,,,,,,,,,,,,,,,,,,,,,1319.5079107728945,6.0,0.00010531707005480364,False,0.007912266533821821,None,['space'],1,[0.47296849987469614],558.2055134000257,559.2021572000813,None,1,559.2021572000813,558.2055134000257,,rehvhf,001,fr,200,2022-05-11_10h53.05.814,Bayesian,2022.1.1,None,
,,,,108,0,108,0,,,,,,,,,,,,,,,,,,,,,,,,,933.0329915368076,4.0,6.680184963918049e-05,False,0.003818733152002096,0.1908920332789421,None,0,,564.7829983001575,565.7996219999623,None,1,565.7996219999623,564.7829983001575,,rehvhf,001,fr,200,2022-05-11_10h53.05.814,Bayesian,2022.1.1,None,
,,,,109,0,109,0,,,,,,,,,,,,,,,,,,,,,,,,,125.0,8.0,0.0018153902738505074,False,3.6333221942186356e-06,None,None,0,,569.5031924999785,570.5132557000034,None,1,570.5132557000034,569.5031924999785,,rehvhf,001,fr,200,2022-05-11_10h53.05.814,Bayesian,2022.1.1,None,
,,,,110,0,110,0,,,,,,,,,,,,,,,,,,,,,,,,,307.7861033362292,6.0,0.00021202376373436995,False,0.006376399891451001,None,None,0,,574.5791970000137,575.5833042000886,None,1,575.5833042000886,574.5791970000137,,rehvhf,001,fr,200,2022-05-11_10h53.05.814,Bayesian,2022.1.1,None,
,,,,111,0,111,0,,,,,,,,,,,,,,,,,,,,,,,,,,,,True,0.015148233622312546,None,None,0,,577.978533500107,578.9878536001779,None,1,578.9878536001779,577.978533500107,,rehvhf,001,fr,200,2022-05-11_10h53.05.814,Bayesian,2022.1.1,None,
,,,,112,0,112,0,,,,,,,,,,,,,,,,,,,,,,,,,1515.7165665103996,7.0,0.00011110835468957442,False,0.009105933597311378,None,None,0,,583.078967400128,584.09570610011,None,1,584.09570610011,583.078967400128,,rehvhf,001,fr,200,2022-05-11_10h53.05.814,Bayesian,2022.1.1,None,
,,,,113,0,113,0,,,,,,,,,,,,,,,,,,,,,,,,,153.8930516681146,11.0,0.0016516221312576293,False,0.007999333320185542,None,['space'],1,[0.6965564999263734],589.2466182000935,590.2653034001123,None,1,590.2653034001123,589.2466182000935,,rehvhf,001,fr,200,2022-05-11_10h53.05.814,Bayesian,2022.1.1,None,
,,,,114,0,114,0,,,,,,,,,,,,,,,,,,,,,,,,,757.8582832551998,7.0,9.018512885657944e-05,False,0.011698366608470678,None,None,0,,595.8126232000068,596.8063960999716,None,1,596.8063960999716,595.8126232000068,,rehvhf,001,fr,200,2022-05-11_10h53.05.814,Bayesian,2022.1.1,None,
,,,,115,0,115,0,,,,,,,,,,,,,,,,,,,,,,,,,,,,True,0.013663533609360456,None,None,0,,599.1055203999858,600.1103038000874,None,1,600.1103038000874,599.1055203999858,,rehvhf,001,fr,200,2022-05-11_10h53.05.814,Bayesian,2022.1.1,None,
,,,,116,0,116,0,,,,,,,,,,,,,,,,,,,,,,,,,3249.0095854249403,-7.0,3.160609710890789e-05,False,0.015566999791190028,None,None,0,,604.9099215001334,605.9374716000166,None,1,605.9374716000166,604.9099215001334,,rehvhf,001,fr,200,2022-05-11_10h53.05.814,Bayesian,2022.1.1,None,
,,,,117,0,117,0,,,,,,,,,,,,,,,,,,,,,,,,,378.9291416275994,7.0,0.0001836301101713295,False,0.007188899675384164,0.20223139971494675,None,0,,610.9637748000678,611.9824053000193,None,1,611.9824053000193,610.9637748000678,,rehvhf,001,fr,200,2022-05-11_10h53.05.814,Bayesian,2022.1.1,None,
,,,,118,0,118,0,,,,,,,,,,,,,,,,,,,,,,,,,287.17458874925893,7.0,0.0002867793427185429,False,0.009570400230586529,None,['space'],1,[0.5405696998350322],617.8021440000739,618.8209552001208,None,1,618.8209552001208,617.8021440000739,,rehvhf,001,fr,200,2022-05-11_10h53.05.814,Bayesian,2022.1.1,None,
,,,,119,0,119,0,,,,,,,,,,,,,,,,,,,,,,,,,2297.3967099940687,2.0,0.00010248188763469557,False,0.011159433517605066,None,['space'],1,[0.6252339999191463],623.1891739000566,624.2087103000376,None,1,624.2087103000376,623.1891739000566,,rehvhf,001,fr,200,2022-05-11_10h53.05.814,Bayesian,2022.1.1,None,
,,,,120,0,120,0,,,,,,,,,,,,,,,,,,,,,,,,,,,,True,0.009712033672258258,None,None,0,,625.2776458000299,626.2921623000875,None,1,626.2921623000875,625.2776458000299,,rehvhf,001,fr,200,2022-05-11_10h53.05.814,Bayesian,2022.1.1,None,
,,,,121,0,121,0,,,,,,,,,,,,,,,,,,,,,,,,,125.0,9.0,0.0020369013890205647,False,0.0031824333127588034,None,None,0,,631.6464476000983,632.6504059999716,None,1,632.6504059999716,631.6464476000983,,rehvhf,001,fr,200,2022-05-11_10h53.05.814,Bayesian,2022.1.1,None,
,,,,122,0,122,0,,,,,,,,,,,,,,,,,,,,,,,,,4287.0938501451765,-7.0,4.631838100500619e-05,False,0.0022236669901758432,None,['space'],1,[0.6488105996977538],637.6293151001446,638.649793599965,None,1,638.649793599965,637.6293151001446,,rehvhf,001,fr,200,2022-05-11_10h53.05.814,Bayesian,2022.1.1,None,
,,,,123,0,123,0,,,,,,,,,,,,,,,,,,,,,,,,,6498.0191708498805,-1.0,0.00012121940630007535,False,0.0029491998720914125,None,['space'],1,[0.5138097000308335],644.355913599953,645.3642655001022,None,1,645.3642655001022,644.355913599953,,rehvhf,001,fr,200,2022-05-11_10h53.05.814,Bayesian,2022.1.1,None,
,,,,124,0,124,0,,,,,,,,,,,,,,,,,,,,,,,,,6498.0191708498805,-1.0,0.00012121940630007535,False,None,None,None,0,,None,None,None,1,None,None,"{'estimation': [[125.0, 9.075302660145345], [133.9716828170366, 9.679776902457883], [143.5872943746293, 9.904518781883633], [153.89305166811442, 9.697045039826907], [164.93848884661162, 9.075435120841334], [165.8601714035112, 9.0], [176.77669529663666, 8.136184155122894], [178.32237119427413, 8.0], [189.46457081379947, 7.043143574966717], [190.01031197266317, 7.0], [203.03006601392818, 6.0], [203.0630990890585, 5.997537070210153], [217.6376408240306, 5.191061034939638], [224.28053068109367, 5.0], [233.25824788420132, 4.753016668528464], [249.99999999999937, 4.737984022260164], [262.9552200862743, 5.0], [267.94336563407256, 5.097731581488885], [287.1745887492579, 5.699596671114493], [296.13997745364264, 6.0], [307.78610333622805, 6.377558199387829], [329.87697769322244, 6.9516136381955], [333.07761575287174, 7.0], [353.55339059327247, 7.299892230202929], [378.929141627598, 7.354836676582379], [406.12619817811606, 7.139930138205095], [416.2442995965704, 7.0], [435.2752816480601, 6.746699646986363], [466.5164957684015, 6.322306832128891], [499.9999999999975, 6.010814040623113], [504.66503883819485, 6.0], [535.8867312681438, 5.929749452068994], [549.5235538213167, 6.0], [574.3491774985143, 6.122965761949543], [615.5722066724546, 6.527670868621039], [659.7539553864432, 6.998416328672666], [659.9692680063112, 7.0], [707.1067811865431, 7.33283077798073], [757.8582832551941, 7.342534610553045], [802.9173370640933, 7.0], [812.2523963562301, 6.931393040306567], [870.5505632961192, 6.155450019189026], [880.4705446950528, 6.0], [933.0329915368008, 5.206371528990989], [949.2664414913907, 5.0], [999.9999999999926, 4.379185723991385], [1065.746069339112, 4.0], [1071.773462536285, 3.966061332597003], [1085.5210930763283, 4.0], [1148.6983549970246, 4.148762471575162], [1231.1444133449063, 4.914583335165958], [1237.5125503245897, 5.0], [1314.6227217318958, 6.0], [1319.5079107728832, 6.060778396820585], [1394.649215752484, 7.0], [1414.2135623730828, 7.23482838542031], [1507.9318777388346, 8.0], [1515.7165665103846, 8.061754902344383], [1624.5047927124563, 8.259634010736352], [1679.3858583515737, 8.0], [1741.1011265922318, 7.716508752903846], [1814.8519312282788, 7.0], [1866.065983073597, 6.518635922746198], [1907.7051918566654, 6.0], [1989.4834162119434, 5.0], [1999.9999999999802, 4.877239177966782], [2067.572574095787, 4.0], [2143.5469250725646, 3.0518246304965606], [2147.8929296536126, 3.0], [2230.990752423335, 2.0], [2297.396709994046, 1.2413617942191095], [2320.454969250805, 1.0], [2416.022856612391, 0.0], [2462.2888266898062, -0.45704978077219527], [2521.6725183217677, -1.0], [2633.9038823401415, -2.0], [2639.0158215457564, -2.0434495945481435], [2755.742340166952, -3.0], [2828.427124746159, -3.5696662629150158], [2886.037362226758, -4.0], [3022.9747934359934, -5.0], [3031.4331330207615, -5.059087368418788], [3176.8322150186664, -6.0], [3249.0095854249043, -6.4465051926092025], [3361.2967387661397, -7.0], [3482.2022531844555, -7.573204365542794], [3642.9349890038366, -8.0], [3732.1319661471844, -8.229291087697346], [3999.9999999999504, -8.225816271421172], [4086.349171336443, -8.0], [4287.093850145118, -7.494644107195089], [4398.039178230965, -7.0], [4594.7934199880865, -6.147129586596849], [4623.319540758418, -6.0], [4817.405561729186, -5.0], [4924.577653379601, -4.473939711044983], [5029.039412204543, -4.0], [5254.44027289301, -3.0], [5278.031643091506, -2.8998373412240483], [5609.17725696267, -2.0], [5656.854249492303, -1.8740548698650756], [6062.866266041508, -1.7476368959788866], [6178.419178607162, -2.0], [6498.019170849792, -2.6768439660242844], [6576.941130942331, -3.0], [6818.992975165212, -4.0], [6964.404506368894, -4.570415009461466], [7049.639596317184, -5.0], [7240.199329238444, -6.0], [7440.213324559546, -7.0], [7464.2639322943505, -7.11147475900627], [7641.333166157293, -8.0], [7831.2840230795955, -9.0], [7999.999999999882, -9.828377420556386]], 'plus_line': [[125.0, 5.528205564512326], [130.9882530880606, 6.0], [133.9716828170366, 6.214143594183566], [143.5872943746293, 6.4068959847230245], [153.89305166811442, 6.178186380140627], [156.967736988271, 6.0], [164.93848884661162, 5.53244359287657], [171.44154066767234, 5.0], [176.77669529663666, 4.57250962991781], [183.123649735827, 4.0], [189.46457081379947, 3.4505378442951735], [195.08879691545138, 3.0], [203.0630990890585, 2.3829193887837863], [209.91659024939668, 2.0], [217.63764082403074, 1.5724116189850887], [233.25824788420132, 1.1674277196550173], [249.99999999999937, 1.1828174922375196], [267.94336563407256, 1.560102594057855], [280.9999972848239, 2.0], [287.1745887492579, 2.190652036562101], [307.78610333622805, 2.876568538859114], [312.231153779163, 3.0], [329.87697769322244, 3.444204998829987], [353.55339059327247, 3.780353206738057], [378.929141627598, 3.8139335312991465], [406.12619817811606, 3.5655938239397273], [435.2752816480601, 3.15610909482573], [446.25679292221866, 3.0], [466.5164957684015, 2.697654007557774], [499.9999999999975, 2.3674827936828597], [535.8867312681438, 2.2777486315875297], [574.3491774985143, 2.4647046837976303], [615.5722066724546, 2.895430881831698], [624.1052708084222, 3.0], [659.7539553864432, 3.3856785808630487], [707.1067811865431, 3.7499027369355797], [757.8582832551932, 3.7796717654603142], [812.2523963562301, 3.3703131578834995], [839.3181017011879, 3.0], [870.550563296117, 2.5726635794485433], [906.8048255074106, 2.0], [933.0329915368008, 1.5917072562112708], [979.0757813007594, 1.0], [999.9999999999926, 0.729342551607598], [1071.773462536285, 0.2871703203883481], [1148.698354997026, 0.4552892343746362], [1204.285502630301, 1.0], [1231.1444133449063, 1.2463628317105022], [1287.254695025771, 2.0], [1319.5079107728832, 2.4222814548660345], [1364.3757933719405, 3.0], [1414.2135623730828, 3.629001997564765], [1457.3219432917085, 4.0], [1515.7165665103846, 4.470412173074579], [1624.5047927124563, 4.660498711727963], [1741.1011265922318, 4.1073299159625805], [1751.715954981473, 4.0], [1853.1301176057423, 3.0], [1866.0659830735992, 2.8782262105870084], [1932.7971559666298, 2.0], [1999.9999999999802, 1.213461567133061], [2015.8141449277718, 1.0], [2090.1521228451174, 0.0], [2143.5469250725646, -0.6269601611909676], [2173.418864661023, -1.0], [2256.834185145451, -2.0], [2297.396709994046, -2.431320014398165], [2349.7099666145473, -3.0], [2451.4987810719585, -4.0], [2462.2888266898062, -4.098779333018569], [2557.882762505664, -5.0], [2639.01582154576, -5.673023299945313], [2677.7621490011798, -6.0], [2803.516315980904, -7.0], [2828.427124746159, -7.182716421799931], [2934.901492707579, -8.0], [3031.4331330207615, -8.66571386421029], [3081.7629174279036, -9.0], [3242.748163378777, -10.0], [3249.0095854249043, -10.037083789650307], [3445.259160069206, -11.0], [3482.2022531844555, -11.17201658383281], [3732.1319661471844, -11.830082453314693], [3999.9999999999504, -11.83624628226265], [4287.093850145124, -11.107366047141484], [4311.080927168487, -11.0], [4536.101363875853, -10.0], [4594.793419988081, -9.744425006529497], [4741.214395129078, -9.0], [4924.577653379601, -8.020360195415789], [4929.050249115421, -8.0], [5150.428187908952, -7.0], [5278.031643091506, -6.418814564333763], [5425.9469520632, -6.0], [5656.854249492303, -5.374641417495763], [6062.866266041508, -5.261070426298474], [6400.475161242948, -6.0], [6498.019170849792, -6.208896087093709], [6680.726439618056, -7.0], [6938.664822723424, -8.0], [6964.404506368894, -8.092732765223762], [7127.27571156822, -9.0], [7318.564375780379, -10.0], [7464.2639322943505, -10.636981870209556], [7531.3386204664475, -11.0], [7701.82455793804, -12.0], [7893.146751426409, -13.0], [7999.999999999882, -13.479418452606543]], 'minus_line': [[125.0, 12.7470267230742], [129.26999569724106, 13.0], [133.9716828170366, 13.281524354662643], [143.5872943746293, 13.533518521618591], [153.89305166811442, 13.347601071117055], [159.8324280344464, 13.0], [164.93848884661162, 12.725965818527232], [174.0392771211667, 12.0], [176.77669529663666, 11.790602911342837], [186.05754028903922, 11.0], [189.46457081379947, 10.716497544027511], [198.80410464483754, 10.0], [203.0630990890585, 9.682721289321295], [215.04390291669844, 9.0], [217.6376408240306, 8.860488367750406], [233.25824788420132, 8.4133277477782], [249.99999999999937, 8.376713981992307], [267.94336563407256, 8.72021883033879], [276.9044254943196, 9.0], [287.1745887492579, 9.32802653760312], [307.78610333622805, 9.995017378513708], [307.97208507617637, 10.0], [329.87697769322244, 10.595594997241847], [353.55339059327247, 10.933620873536501], [378.929141627598, 10.984190358338646], [406.12619817811606, 10.767592128005967], [435.2752816480601, 10.360491375784804], [458.98298256375045, 10.0], [466.5164957684015, 9.897799621714883], [499.9999999999975, 9.57941312040423], [535.8867312681438, 9.497758783765988], [574.3491774985143, 9.700090820534124], [603.7012998420298, 10.0], [615.5722066724546, 10.128539892659074], [659.7539553864432, 10.63666789038556], [707.1067811865431, 10.985505795613141], [731.1231245503873, 11.0], [757.8582832551941, 11.01797798553644], [760.1020721090734, 11.0], [812.2523963562301, 10.630688989596639], [857.7227496908423, 10.0], [870.5505632961181, 9.833432421809476], [923.351689369098, 9.0], [933.0329915368008, 8.854891599496389], [998.9518245203664, 8.0], [999.9999999999926, 7.987260925230511], [1071.773462536285, 7.5573582108451625], [1148.698354997026, 7.707881418640669], [1180.5530557706543, 8.0], [1231.1444133449063, 8.459050310544132], [1272.1730306739985, 9.0], [1319.5079107728832, 9.593096958394916], [1351.267286772166, 10.0], [1414.2135623730828, 10.768684015789404], [1441.6314963912907, 11.0], [1515.7165665103846, 11.620456056117268], [1624.5047927124563, 11.832489311147498], [1741.1011265922318, 11.311159581020236], [1773.1081282585878, 11.0], [1866.065983073597, 10.102883482013715], [1874.612776748377, 10.0], [1956.4499295305038, 9.0], [1999.9999999999802, 8.461250025744288], [2037.512335190309, 8.0], [2113.7561764413194, 7.000000000000001], [2143.5469250725646, 6.619454357384269], [2198.106011422677, 6.0], [2279.8541636980876, 5.0], [2297.396709994046, 4.795440158965335], [2377.214757275891, 4.0], [2462.2888266898062, 3.097552499994816], [2473.571871892028, 3.0], [2586.780135045654, 2.0], [2639.01582154576, 1.5309753725576676], [2706.991502084241, 1.0], [2828.427124746159, 0.0001004403133637588], [2828.441067240754, 0.0], [2967.367221969258, -1.0], [3031.433133020758, -1.4698433083268858], [3114.217163691887, -2.0], [3249.0095854249043, -2.8811353962174078], [3272.369381873658, -3.0], [3473.414146636948, -4.0], [3482.2022531844555, -4.041852048340694], [3732.1319661471844, -4.708017887337319], [3999.9999999999504, -4.71280941129736], [4281.599127832905, -4.0], [4287.093850145118, -3.9859075911912623], [4500.896087312517, -3.0], [4594.793419988081, -2.601319277730682], [4705.9236122583525, -2.0], [4906.356627492169, -1.0], [4924.577653379601, -0.9139273174043643], [5115.291704627493, 0.0], [5278.031643091506, 0.7034853510314987], [5380.695617682325, 1.0], [5656.854249492303, 1.7821887343945257], [6062.866266041508, 1.9601607146620423], [6498.019170849792, 1.057755608099347], [6512.527943514974, 1.0], [6760.395660481401, 0.0], [6964.404506368894, -0.8772736174191726], [6990.409668893396, -1.0], [7192.099282548731, -2.0], [7370.651301065116, -3.0], [7464.2639322943505, -3.492268031565641], [7577.653876230556, -4.0], [7775.284806450848, -5.0], [7958.394914757261, -6.0], [7999.999999999892, -6.206544866335795]]}",rehvhf,001,fr,200,2022-05-11_10h53.05.814,Bayesian,2022.1.1,None,
