tTrials.thisRepN,tTrials.thisTrialN,tTrials.thisN,tTrials.thisIndex,blocks.thisRepN,blocks.thisTrialN,blocks.thisN,blocks.thisIndex,trials.thisRepN,trials.thisTrialN,trials.thisN,trials.thisIndex,tStart_text.started,tStart_text.stopped,Prediction,practice_Frequency,practice_Level,practice_Psychopy_Level,practice_isCatchTrial,Practice_trial_detection,practice_Cue_Delays,practice_Cue_Frequencies,practice_Interval,practice_Cue_Intensities,tCue_visual_cue.started,tCue_visual_cue.stopped,tProbe_visual_cue.started,tProbe_visual_cue.stopped,tFeedback.keys,tFeedback.corr,tFeedback.rt,tFeedback.started,tFeedback.stopped,tToo_late.keys,tToo_late.corr,tToo_early.keys,tToo_early.corr,more_instructions.started,more_instructions.stopped,readyy.keys,readyy.rt,readyy.started,readyy.stopped,txt_rhythm.started,txt_rhythm.stopped,sound_1.started,sound_1.stopped,sound_2.started,sound_2.stopped,sound_3.started,sound_3.stopped,sound_4.started,sound_4.stopped,cross.started,cross.stopped,sound_5.started,sound_5.stopped,circle.started,circle.stopped,rhythm_ready.keys,rhythm_ready.rt,rhythm_ready.started,rhythm_ready.stopped,rhytm_ready_txt.started,rhytm_ready_txt.stopped,txt_freq.started,txt_freq.stopped,sound_6.started,sound_6.stopped,sound_7.started,sound_7.stopped,sound_8.started,sound_8.stopped,sound_9.started,sound_9.stopped,cross_2.started,cross_2.stopped,sound_10.started,sound_10.stopped,circle_2.started,circle_2.stopped,freq_ready.keys,freq_ready.rt,freq_ready.started,freq_ready.stopped,freq_ready_txt.started,freq_ready_txt.stopped,txt_freq_2.started,txt_freq_2.stopped,sound_11.started,sound_11.stopped,sound_12.started,sound_12.stopped,sound_13.started,sound_13.stopped,sound_14.started,sound_14.stopped,cross_3.started,cross_3.stopped,sound_15.started,sound_15.stopped,circle_3.started,circle_3.stopped,freq_ready_2.keys,freq_ready_2.rt,freq_ready_2.started,freq_ready_2.stopped,freq_ready_txt_2.started,freq_ready_txt_2.stopped,txt_freq_3.started,txt_freq_3.stopped,sound_16.started,sound_16.stopped,sound_17.started,sound_17.stopped,sound_18.started,sound_18.stopped,sound_19.started,sound_19.stopped,cross_4.started,cross_4.stopped,sound_20.started,sound_20.stopped,circle_4.started,circle_4.stopped,freq_ready_txt_3.started,freq_ready_txt_3.stopped,tStart_text_2.started,tStart_text_2.stopped,this_trial_is.started,this_trial_is.stopped,Frequency,Level,Psychopy_Level,Real trial detection,Cue Delays,Cue Frequencies,Interval,Cue Intensities,Catch trial,cue_visual_cue.started,cue_visual_cue.stopped,probe_visual_cue.started,probe_visual_cue.stopped,feedback.keys,feedback.corr,feedback.rt,feedback.started,feedback.stopped,answer_too_late.keys,answer_too_late.corr,answer_too_early.keys,answer_too_early.corr,answer_too_early.rt,Catch trial answer,Audiogram_none,answer_too_late.rt,Audiogram_time,Audiogram_both,Audiogram_frequency,participant,session,Language (english or french),Skip training? (1 for yes),Resume previous experiment,date,expName,psychopyVersion,frameRate,
0,0,0,0,,,,,,,,,19.977751099999296,None,time,1000,30,0.0013930605843148849,False,1,"[0.5391588720560144, 0.5391588720560144, 0.5391588720560144, 0.5391588720560144]","[565.1355310183823, 6970.677524654283, 1847.4527191594427, 396.06480265937375]",None,"[30, 30, 30, 30]",36.6422559999919,39.19115560001228,39.19115560001228,40.43327800001134,['space'],1,[0.46363410001504235],39.19115560001228,40.95952000000398,None,1,None,1,,,,,,,,,,,,,,,,,,,,,,,,,,,,,,,,,,,,,,,,,,,,,,,,,,,,,,,,,,,,,,,,,,,,,,,,,,,,,,,,,,,,,,,,,,,,,,,,,,,,,,,,,,,,,,,,,,,,,,,,,,,,gtyzck,001,fr,0,0,2022-04-27_10h50.08.615,Cluster,2022.1.1,36.50298484853313,
1,0,1,0,,,,,,,,,,,time,2500,30,0.002716251657462167,False,1,"[0.71445686199312, 0.71445686199312, 0.71445686199312, 0.71445686199312]","[605.8877862510752, 2126.528109568405, 448.6966268360772, 3557.7074626344515]",None,"[30, 30, 30, 30]",46.29362089998904,49.35305309999967,49.35305309999967,50.565935999999056,['space'],1,[0.44614509999519214],49.35305309999967,51.30791050000698,None,1,None,1,,,,,,,,,,,,,,,,,,,,,,,,,,,,,,,,,,,,,,,,,,,,,,,,,,,,,,,,,,,,,,,,,,,,,,,,,,,,,,,,,,,,,,,,,,,,,,,,,,,,,,,,,,,,,,,,,,,,,,,,,,,,gtyzck,001,fr,0,0,2022-04-27_10h50.08.615,Cluster,2022.1.1,36.50298484853313,
2,0,2,0,,,,,,,,,,,none,6000,30,0.003664122665694519,True,0,"[0.43524673905042843, 0.7063331363975499, 0.4199441495387515, 0.5975630356505693]","[870.7214695595451, 158.03283396397723, 5730.252310535929, 174.7914689855394]",None,"[30, 30, 30, 30]",54.215284400008386,56.72289639999508,56.72289639999508,57.94880139999441,['space'],0,[1.4291850000154227],56.72289639999508,58.533820200013,None,1,None,1,,,,,,,,,,,,,,,,,,,,,,,,,,,,,,,,,,,,,,,,,,,,,,,,,,,,,,,,,,,,,,,,,,,,,,,,,,,,,,,,,,,,,,,,,,,,,,,,,,,,,,,,,,,,,,,,,,,,,,,,,,,,gtyzck,001,fr,0,0,2022-04-27_10h50.08.615,Cluster,2022.1.1,36.50298484853313,
3,0,3,0,,,,,,,,,,,time,440,30,0.0023562289915021436,False,1,"[0.5571069131230603, 0.5571069131230603, 0.5571069131230603, 0.5571069131230603]","[147.41562086941767, 750.4667086752037, 852.3884797317187, 3113.627146343482]",None,"[30, 30, 30, 30]",61.28454799999599,63.87018739999621,63.87018739999621,65.09282520000124,['space'],1,[0.44135489998734556],63.87018739999621,65.64573449999443,None,1,None,1,,,,,,,,,,,,,,,,,,,,,,,,,,,,,,,,,,,,,,,,,,,,,,,,,,,,,,,,,,,,,,,,,,,,,,,,,,,,,,,,,,,,,,,,,,,,,,,,,,,,,,,,,,,,,,,,,,,,,,,,,,,,gtyzck,001,fr,0,0,2022-04-27_10h50.08.615,Cluster,2022.1.1,36.50298484853313,
4,0,4,0,,,,,,,,,,,time,250,30,0.005296268625886445,True,0,"[0.6895917031673512, 0.6895917031673512, 0.6895917031673512, 0.6895917031673512]","[2645.887485613597, 460.35512202259116, 512.8005230160949, 2553.95728876061]",None,"[30, 30, 30, 30]",68.25700439998764,71.24300670000957,71.24300670000957,72.46352950000437,['space'],0,[0.5087943999969866],71.24300670000957,73.16131130000576,None,1,None,1,,,,,,,,,,,,,,,,,,,,,,,,,,,,,,,,,,,,,,,,,,,,,,,,,,,,,,,,,,,,,,,,,,,,,,,,,,,,,,,,,,,,,,,,,,,,,,,,,,,,,,,,,,,,,,,,,,,,,,,,,,,,gtyzck,001,fr,0,0,2022-04-27_10h50.08.615,Cluster,2022.1.1,36.50298484853313,
,,,,,,,,,,,,,,,,,,,,,,,,,,,,,,,,,,,,,75.45707100001164,None,space,9.591193600004772,75.45707100001164,None,,,,,,,,,,,,,,,,,,,,,,,,,,,,,,,,,,,,,,,,,,,,,,,,,,,,,,,,,,,,,,,,,,,,,,,,,,,,,,,,,,,,,,,,,,,,,,,,,,,,,,,,,,,,,,,,,,,,,,gtyzck,001,fr,0,0,2022-04-27_10h50.08.615,Cluster,2022.1.1,36.50298484853313,
,,,,,,,,,,,,,,,,,,,,,,,,,,,,,,,,,,,,,,,,,,,85.10919540000032,86.13829659999465,86.58390276667002,None,87.08163136666214,None,87.5878165666693,None,88.09022976665098,None,86.50605709999218,88.31256140000187,88.59353916667557,None,88.31256140000187,89.15599959998508,space,1.1619180999987293,89.29394559998764,None,,,,,,,,,,,,,,,,,,,,,,,,,,,,,,,,,,,,,,,,,,,,,,,,,,,,,,,,,,,,,,,,,,,,,,,,,,,,,,,,,,,,,,,,,,,,,,,,,,gtyzck,001,fr,0,0,2022-04-27_10h50.08.615,Cluster,2022.1.1,36.50298484853313,
,,,,,,,,,,,,,,,,,,,,,,,,,,,,,,,,,,,,,,,,,,,,,,,,,,,,,,,,,,,,,,,89.29394559998764,None,90.49974920001114,91.52520159998676,91.97766816665923,None,92.28605136665671,None,92.98751726665456,None,93.37661656667866,None,91.89607449999312,93.68756839999696,93.9935475666755,None,93.68756839999696,94.50740529998438,space,0.7139706999878399,94.68492599998717,None,,,,,,,,,,,,,,,,,,,,,,,,,,,,,,,,,,,,,,,,,,,,,,,,,,,,,,,,,,,,,,,,,,,,,,,,,,,,gtyzck,001,fr,0,0,2022-04-27_10h50.08.615,Cluster,2022.1.1,36.50298484853313,
,,,,,,,,,,,,,,,,,,,,,,,,,,,,,,,,,,,,,,,,,,,,,,,,,,,,,,,,,,,,,,,,,,,,,,,,,,,,,,,,,,,,,94.68492599998717,None,95.43808039999567,96.47014299998409,96.92180686665621,None,97.42175766665993,None,97.9248109666553,98.15546219999669,98.40014206667935,None,96.80972699998529,98.64618469998823,98.92029476666745,None,98.64618469998823,99.45693819998996,space,0.7807518999907188,99.6266680000117,None,,,,,,,,,,,,,,,,,,,,,,,,,,,,,,,,,,,,,,,,,,,,,,,,,,,,,,gtyzck,001,fr,0,0,2022-04-27_10h50.08.615,Cluster,2022.1.1,36.50298484853313,
,,,,0,0,0,0,0,0,0,0,,,time,,,,,,,,,,,,,,,,,,,,,,,,,,,,,,,,,,,,,,,,,,,,,,,,,,,,,,,,,,,,,,,,,,,,,,,,,,,,,,,,,,,,,,,,,,,,,99.6266680000117,None,100.45040309999604,101.46677400000044,101.91024086665517,None,102.21292436667524,None,102.90222366666809,None,103.31433176665838,None,101.8369348999986,103.63557240000227,103.9359871666568,None,103.63557240000227,104.4460265999951,104.61738320000586,None,105.66257129999576,None,120.63597999999183,None,1330.7131956439057,4.503785622989126,8.818466942235528e-05,1,"[0.42159454960491305, 0.42159454960491305, 0.42159454960491305, 0.42159454960491305]","[1954.2179328341151, 250.80286725662464, 2575.8439182275456, 4084.699300190604]",None,"[11.948081623836476, 10.756041600821511, 9.0, -2.0]",False,121.64355539999087,123.92882470000768,123.92882470000768,125.16762649998418,['space'],1,[0.025168699998175725],2.7219372666440904,3.7554338666668627,None,1,None,1,,,,,,,,gtyzck,001,fr,0,0,2022-04-27_10h50.08.615,Cluster,2022.1.1,36.50298484853313,
,,,,0,0,0,0,1,0,1,0,,,both,,,,,,,,,,,,,,,,,,,,,,,,,,,,,,,,,,,,,,,,,,,,,,,,,,,,,,,,,,,,,,,,,,,,,,,,,,,,,,,,,,,,,,,,,,,,,,,,,,,,,,,,,,,,,,,,,,,125.43743570000515,None,1125.9104456127147,6.0,9.84041734249986e-05,1,"[0.45134481361659007, 0.45134481361659007, 0.45134481361659007, 0.45134481361659007]","[446.817856446902, 562.9552228063575, 709.2791353619881, 893.6357128938039]",Major_3rd,"[14.0, 12.0, 13.529967651613134, 14.707874122736042]",False,126.44074499999988,128.83788139998796,128.83788139998796,130.05591679998906,['space'],1,[0.1208267999754753],2.8391986666829325,3.863088866666658,None,1,None,1,,,,,,,,gtyzck,001,fr,0,0,2022-04-27_10h50.08.615,Cluster,2022.1.1,36.50298484853313,
,,,,0,0,0,0,2,0,2,0,,,frequency,,,,,,,,,,,,,,,,,,,,,,,,,,,,,,,,,,,,,,,,,,,,,,,,,,,,,,,,,,,,,,,,,,,,,,,,,,,,,,,,,,,,,,,,,,,,,,,,,,,,,,,,,,,,,,,,,,,130.34645919999457,None,505.1659297075677,6.693760051509344,0.00015266215299280844,0,"[0.5522262761968425, 0.4355749309531371, 0.758550878148882, 0.7882985852578213]","[318.23459426413916, 357.2062545206279, 400.95046411814326, 450.05167922464483]",Tone,"[16.0, 16.808184194933794, 16.0, 14.0]",False,131.34995329999947,134.1341182999895,134.1341182999895,135.3697828000004,None,0,,3.562216466641985,4.593580366636161,None,1,['space'],0,[0.38521290000062436],,,,,,,gtyzck,001,fr,0,0,2022-04-27_10h50.08.615,Cluster,2022.1.1,36.50298484853313,
,,,,0,0,0,0,3,0,3,0,,,frequency,,,,,,,,,,,,,,,,,,,,,,,,,,,,,,,,,,,,,,,,,,,,,,,,,,,,,,,,,,,,,,,,,,,,,,,,,,,,,,,,,,,,,,,,,,,,,,,,,,,,,,,,,,,,,,,,,,,135.97394510000595,None,176.7766952966369,2.0,0.00044065030258128913,0,"[0.6198323752267483, 0.7713499704890507, 0.7419101467225987, 0.7376552163001527]","[445.44935907016975, 353.55339059327383, 280.6155120773433, 222.72467953508485]",Major_3rd,"[14.799841735560463, 16.808184194933794, 14.0, 8.0]",False,137.94858679999015,141.09927760000573,141.09927760000573,142.32161350001115,None,0,,3.885177966672927,4.913477866677567,None,1,['space'],0,[0.4284240000124555],,,,,,,gtyzck,001,fr,0,0,2022-04-27_10h50.08.615,Cluster,2022.1.1,36.50298484853313,
,,,,0,0,0,0,4,0,4,0,,,both,,,,,,,,,,,,,,,,,,,,,,,,,,,,,,,,,,,,,,,,,,,,,,,,,,,,,,,,,,,,,,,,,,,,,,,,,,,,,,,,,,,,,,,,,,,,,,,,,,,,,,,,,,,,,,,,,,,142.90761880000355,None,,,,,"[0.6110823583708258, 0.6110823583708258, 0.6110823583708258, 0.6110823583708258]","[267.2968710520631, 238.1344397832066, 212.15366714792657, 189.00743011085999]",Tone,"[12.470443348652893, 10.0, 7.9023672276089405, 6.492421165504038]",True,143.89316740000504,146.76240869998583,146.76240869998583,147.99155529998825,None,1,,3.474652866658289,4.492288766661659,None,1,['space'],0,[0.4126623999909498],0,,,,,,gtyzck,001,fr,0,0,2022-04-27_10h50.08.615,Cluster,2022.1.1,36.50298484853313,
,,,,0,0,0,0,5,0,5,0,,,both,,,,,,,,,,,,,,,,,,,,,,,,,,,,,,,,,,,,,,,,,,,,,,,,,,,,,,,,,,,,,,,,,,,,,,,,,,,,,,,,,,,,,,,,,,,,,,,,,,,,,,,,,,,,,,,,,,,148.41399890001048,None,353.5533905932738,0.0,8.861233020703779e-05,1,"[0.42877496369856005, 0.42877496369856005, 0.42877496369856005, 0.42877496369856005]","[140.30775603867167, 176.77669529663694, 222.72467953508487, 280.6155120773433]",Major_3rd,"[7.3800252127100885, 6.3554415058480895, 8.0, 14.0]",False,149.4398419999925,151.75776839998434,151.75776839998434,152.99724009999773,['space'],1,[0.05213209998328239],2.742687666672282,3.7771622666623443,None,1,None,1,,,,,,,,gtyzck,001,fr,0,0,2022-04-27_10h50.08.615,Cluster,2022.1.1,36.50298484853313,
,,,,0,0,0,0,6,0,6,0,,,both,,,,,,,,,,,,,,,,,,,,,,,,,,,,,,,,,,,,,,,,,,,,,,,,,,,,,,,,,,,,,,,,,,,,,,,,,,,,,,,,,,,,,,,,,,,,,,,,,,,,,,,,,,,,,,,,,,,153.26281819998985,None,166.29378124165123,0.514133550478365,0.0004118714283164736,0,"[0.7733399221551376, 0.7733399221551376, 0.7733399221551376, 0.7733399221551376]","[838.0681418118784, 559.3433781003597, 373.31691662722926, 249.1591492749488]",Perfect_5th,"[14.653733467188017, 12.0, 16.58193300635728, 10.756041600821511]",False,154.26901049999287,157.60249479999766,157.60249479999766,158.82016989999101,None,0,,4.117058966628974,5.144762366631767,None,1,['space'],0,[0.4525799000111874],,,,,,,gtyzck,001,fr,0,0,2022-04-27_10h50.08.615,Cluster,2022.1.1,36.50298484853313,
,,,,0,0,0,0,7,0,7,0,,,none,,,,,,,,,,,,,,,,,,,,,,,,,,,,,,,,,,,,,,,,,,,,,,,,,,,,,,,,,,,,,,,,,,,,,,,,,,,,,,,,,,,,,,,,,,,,,,,,,,,,,,,,,,,,,,,,,,,159.45024760000524,None,2595.6368086794405,3.0,0.00011293556808006833,0,"[0.7637066515956212, 0.6496118274732814, 0.5276842816721915, 0.5817687102520919]","[424.4225146518895, 1161.434287953001, 1219.069002808951, 142.2267832717935]",None,"[15.0, 11.770115939218243, 11.0, 7.3800252127100885]",False,160.4514252000081,163.43153470000834,163.43153470000834,164.6625575000071,None,0,,3.5587917666707654,4.582519266667077,None,1,['space'],0,[0.4471810999966692],,,,,,,gtyzck,001,fr,0,0,2022-04-27_10h50.08.615,Cluster,2022.1.1,36.50298484853313,
,,,,0,0,0,0,8,0,8,0,,,time,,,,,,,,,,,,,,,,,,,,,,,,,,,,,,,,,,,,,,,,,,,,,,,,,,,,,,,,,,,,,,,,,,,,,,,,,,,,,,,,,,,,,,,,,,,,,,,,,,,,,,,,,,,,,,,,,,,165.0666188999894,None,,,,,"[0.7012813625696492, 0.7012813625696492, 0.7012813625696492, 0.7012813625696492]","[423.29758586630294, 224.7488649712363, 192.31941277245576, 901.2849636456832]",None,"[15.0, 8.0, 6.492421165504038, 14.707874122736042]",True,166.06974450001144,169.20612869999604,169.20612869999604,170.44326120000915,None,1,,3.8348094666434918,4.858704866637709,None,1,['space'],0,[0.3856369999994058],0,,,,,,gtyzck,001,fr,0,0,2022-04-27_10h50.08.615,Cluster,2022.1.1,36.50298484853313,
,,,,0,0,0,0,9,0,9,0,,,none,,,,,,,,,,,,,,,,,,,,,,,,,,,,,,,,,,,,,,,,,,,,,,,,,,,,,,,,,,,,,,,,,,,,,,,,,,,,,,,,,,,,,,,,,,,,,,,,,,,,,,,,,,,,,,,,,,,170.9570367000124,None,176.7766952966369,2.0,0.00044065030258128913,0,"[0.4301895993345854, 0.46143121642065915, 0.4606391254076279, 0.5707372700321789]","[448.80344614317886, 1686.9984767747492, 177.4102044530126, 3042.7643107379486]",None,"[14.0, 11.466217611438429, 6.3554415058480895, 5.4169882763410016]",False,171.97700839999015,174.35336700000335,174.35336700000335,175.58811839998816,None,0,,2.939420066657476,3.959315066662384,None,1,['space'],0,[0.4853653000027407],,,,,,,gtyzck,001,fr,0,0,2022-04-27_10h50.08.615,Cluster,2022.1.1,36.50298484853313,
,,,,0,0,0,0,10,0,10,0,,,none,,,,,,,,,,,,,,,,,,,,,,,,,,,,,,,,,,,,,,,,,,,,,,,,,,,,,,,,,,,,,,,,,,,,,,,,,,,,,,,,,,,,,,,,,,,,,,,,,,,,,,,,,,,,,,,,,,,175.99365310001303,None,339.1452175529164,10.448735850642809,0.0003075296261159736,0,"[0.681663507604017, 0.5976190387425092, 0.7810420407998131, 0.6501653046122017]","[1456.263446779536, 5994.688879184763, 4268.954222353915, 449.8517231235137]",None,"[10.376196147230004, -1.0, -2.4800499017707835, 14.0]",False,177.00059059998603,180.0854255000013,180.0854255000013,181.30468840000685,None,0,,3.7553017666505184,4.786314066644991,None,1,['space'],0,[0.4342443000059575],,,,,,,gtyzck,001,fr,0,0,2022-04-27_10h50.08.615,Cluster,2022.1.1,36.50298484853313,
,,,,0,0,0,0,11,0,11,0,,,time,,,,,,,,,,,,,,,,,,,,,,,,,,,,,,,,,,,,,,,,,,,,,,,,,,,,,,,,,,,,,,,,,,,,,,,,,,,,,,,,,,,,,,,,,,,,,,,,,,,,,,,,,,,,,,,,,,,181.82888600000297,None,353.5533905932738,0.0,8.861233020703779e-05,0,"[0.6906338253385027, 0.6906338253385027, 0.6906338253385027, 0.6906338253385027]","[7338.600225363628, 2497.6987518665173, 1210.3906882066049, 4927.597643648364]",None,"[5.0, 10.0, 11.0, -3.513043538912708]",False,182.83967509999638,185.95119039999554,185.95119039999554,187.20059819999733,None,0,,3.7909502666443586,4.811168566666311,None,1,['space'],0,[0.4561375000048429],,,,,,,gtyzck,001,fr,0,0,2022-04-27_10h50.08.615,Cluster,2022.1.1,36.50298484853313,
,,,,0,0,0,0,12,0,12,0,,,none,,,,,,,,,,,,,,,,,,,,,,,,,,,,,,,,,,,,,,,,,,,,,,,,,,,,,,,,,,,,,,,,,,,,,,,,,,,,,,,,,,,,,,,,,,,,,,,,,,,,,,,,,,,,,,,,,,,187.69820590000018,None,,,,,"[0.5067470761939943, 0.5382893965935167, 0.7596520233862614, 0.6589604247401859]","[6940.308667803291, 148.9911258471874, 219.46170425800102, 2444.2553180009363]",None,"[3.430336541101992, 7.0, 8.0, 10.070353108031792]",True,188.6985224999953,191.53623890000745,191.53623890000745,192.77273140000761,None,1,,3.505927266640356,4.531632466649171,None,1,['space'],0,[0.45460309999180026],0,,,,,,gtyzck,001,fr,0,0,2022-04-27_10h50.08.615,Cluster,2022.1.1,36.50298484853313,
,,,,0,0,0,0,13,0,13,0,,,both,,,,,,,,,,,,,,,,,,,,,,,,,,,,,,,,,,,,,,,,,,,,,,,,,,,,,,,,,,,,,,,,,,,,,,,,,,,,,,,,,,,,,,,,,,,,,,,,,,,,,,,,,,,,,,,,,,,193.26311359999818,None,5278.031643091578,-7.0,6.364940612116406e-05,0,"[0.7685596033728366, 0.7685596033728366, 0.7685596033728366, 0.7685596033728366]","[2094.5882456412546, 2639.01582154579, 3324.9515845711526, 4189.176491282508]",Major_3rd,"[11.710482821000681, 8.73208995742255, 3.0, -2.0]",False,194.34680020000087,197.6710946999956,197.6710946999956,198.8879528999969,None,0,,4.090371733356733,5.104240433342056,None,1,['space'],0,[0.44752640000660904],,,,,,,gtyzck,001,fr,0,0,2022-04-27_10h50.08.615,Cluster,2022.1.1,36.50298484853313,
,,,,0,0,0,0,14,0,14,0,,,both,,,,,,,,,,,,,,,,,,,,,,,,,,,,,,,,,,,,,,,,,,,,,,,,,,,,,,,,,,,,,,,,,,,,,,,,,,,,,,,,,,,,,,,,,,,,,,,,,,,,,,,,,,,,,,,,,,,199.48688370001037,None,2647.4944328151914,2.732089957422551,0.0001050915574420874,1,"[0.44444197698815685, 0.44444197698815685, 0.44444197698815685, 0.44444197698815685]","[1050.6588619326972, 1323.7472164075962, 1667.8169826916742, 2101.3177238653934]",Major_3rd,"[13.0, 10.503785622989126, 11.0, 11.710482821000681]",False,200.49286619998747,202.84102849999908,202.84102849999908,204.04967380000744,['space'],1,[0.001153099990915507],2.8096393666637596,3.8292848666897044,None,1,None,1,,,,,,,,gtyzck,001,fr,0,0,2022-04-27_10h50.08.615,Cluster,2022.1.1,36.50298484853313,
,,,,0,0,0,0,15,0,15,0,,,time,,,,,,,,,,,,,,,,,,,,,,,,,,,,,,,,,,,,,,,,,,,,,,,,,,,,,,,,,,,,,,,,,,,,,,,,,,,,,,,,,,,,,,,,,,,,,,,,,,,,,,,,,,,,,,,,,,,204.3608760999923,None,1049.162796320453,7.0,0.00010322470498664599,0,"[0.7107271887119881, 0.7107271887119881, 0.7107271887119881, 0.7107271887119881]","[1269.7168565832405, 3100.8004191483205, 790.0258725725225, 2071.522359830624]",None,"[10.988817863437873, 5.0, 14.653733467188017, 11.948081623836476]",False,205.36108559998684,208.5156047999917,208.5156047999917,209.72491019999143,None,0,,3.8798363666574005,4.907635266659781,None,1,['space'],0,[0.4032553000142798],,,,,,,gtyzck,001,fr,0,0,2022-04-27_10h50.08.615,Cluster,2022.1.1,36.50298484853313,
,,,,0,0,0,0,16,0,16,0,,,none,,,,,,,,,,,,,,,,,,,,,,,,,,,,,,,,,,,,,,,,,,,,,,,,,,,,,,,,,,,,,,,,,,,,,,,,,,,,,,,,,,,,,,,,,,,,,,,,,,,,,,,,,,,,,,,,,,,210.30756990000373,None,,,,,"[0.5032033185102645, 0.4771418683541494, 0.533985115839028, 0.7283756259295342]","[2960.195709651793, 4624.756148954662, 741.5895591139878, 4542.576941390123]",None,"[6.0, -3.2484897532137467, 14.0, -3.0]",True,211.30988539999817,213.84276769999997,213.84276769999997,215.07640170000377,None,1,,3.2674294666794594,4.282110966683831,None,1,['space'],0,[0.45234329998493195],0,,,,,,gtyzck,001,fr,0,0,2022-04-27_10h50.08.615,Cluster,2022.1.1,36.50298484853313,
,,,,0,0,0,0,17,0,17,0,,,both,,,,,,,,,,,,,,,,,,,,,,,,,,,,,,,,,,,,,,,,,,,,,,,,,,,,,,,,,,,,,,,,,,,,,,,,,,,,,,,,,,,,,,,,,,,,,,,,,,,,,,,,,,,,,,,,,,,215.63029800000368,None,574.3491774985172,0.0,5.984619860562044e-05,0,"[0.6499389130610284, 0.6499389130610284, 0.6499389130610284, 0.6499389130610284]","[361.81730936009427, 406.1261981781175, 455.8612442791081, 511.68694599838716]",Tone,"[16.808184194933794, 15.849944632408539, 14.0, 12.693760051509344]",False,216.64078710001195,219.62511749999248,219.62511749999248,220.8492743000097,None,0,,3.620796633331338,4.640212733327644,None,1,['space'],0,[0.46265949998633005],,,,,,,gtyzck,001,fr,0,0,2022-04-27_10h50.08.615,Cluster,2022.1.1,36.50298484853313,
,,,,0,0,0,0,18,0,18,0,,,frequency,,,,,,,,,,,,,,,,,,,,,,,,,,,,,,,,,,,,,,,,,,,,,,,,,,,,,,,,,,,,,,,,,,,,,,,,,,,,,,,,,,,,,,,,,,,,,,,,,,,,,,,,,,,,,,,,,,,221.32117800001288,None,356.05313160896145,10.808184194933794,0.00030528895602328264,0,"[0.714280652316643, 0.49995022504004805, 0.6462293871971319, 0.7677319549734407]","[224.29941769756007, 251.7675838234029, 282.5995578363186, 317.2072785402773]",Tone,"[8.0, 11.0, 14.0, 16.0]",False,222.32131719999597,225.21998029999668,225.21998029999668,226.43216960001155,None,0,,3.654538066679379,4.695727966667619,None,1,['space'],0,[0.48333220000495203],,,,,,,gtyzck,001,fr,0,0,2022-04-27_10h50.08.615,Cluster,2022.1.1,36.50298484853313,
,,,,0,0,0,0,19,0,19,0,,,frequency,,,,,,,,,,,,,,,,,,,,,,,,,,,,,,,,,,,,,,,,,,,,,,,,,,,,,,,,,,,,,,,,,,,,,,,,,,,,,,,,,,,,,,,,,,,,,,,,,,,,,,,,,,,,,,,,,,,227.05391320001218,None,5278.031643091578,-6.0,7.141580827330639e-05,0,"[0.5852662252113697, 0.5110169290469385, 0.594333235824, 0.7763726437281814]","[1047.294122820627, 1569.168195793502, 2351.095812567218, 3522.6634943845947]",Perfect_5th,"[13.0, 10.571815435531626, 11.0, 1.8305100305108448]",False,229.08137259999057,231.8062413999869,231.8062413999869,233.02133089999552,None,0,,3.5060417333152145,4.534011733310763,None,1,['space'],0,[0.3763936999894213],,,,,,,gtyzck,001,fr,0,0,2022-04-27_10h50.08.615,Cluster,2022.1.1,36.50298484853313,
,,,,1,0,1,0,0,0,0,0,,,none,,,,,,,,,,,,,,,,,,,,,,,,,,,,,,,,,,,,,,,,,,,,,,,,,,,,,,,,,,,,,,,,,,,,,,,,,,,,,,,,,,,,,,,,,,,,,,,,,,,,,,,,,,,,,,,,,,,239.11467229999835,None,,,,,"[0.716697028559187, 0.7356861592924067, 0.43283181391090003, 0.7129729756939193]","[1705.1139414625566, 3362.392831492333, 2895.827458209413, 3639.804511120761]",None,"[11.466217611438429, 3.0, 7.0, 1.0]",True,240.09254449998843,242.99608929999522,242.99608929999522,244.21192669999436,None,1,,3.6316304666397627,4.665483766642865,None,1,['space'],0,[0.3865698000008706],0,,,,,,gtyzck,001,fr,0,0,2022-04-27_10h50.08.615,Cluster,2022.1.1,36.50298484853313,
,,,,1,0,1,0,1,0,1,0,,,time,,,,,,,,,,,,,,,,,,,,,,,,,,,,,,,,,,,,,,,,,,,,,,,,,,,,,,,,,,,,,,,,,,,,,,,,,,,,,,,,,,,,,,,,,,,,,,,,,,,,,,,,,,,,,,,,,,,244.7922394000052,None,176.7766952966369,1.0,0.00039272999556449274,1,"[0.4529180171149094, 0.4529180171149094, 0.4529180171149094, 0.4529180171149094]","[3192.879500440864, 440.64163867665854, 2682.6397259757814, 364.0178902187359]",None,"[4.0, 14.799841735560463, 8.0, 16.808184194933794]",False,245.81317360000685,248.20338600000832,248.20338600000832,249.4231437999988,['space'],1,[0.2279073999961838],2.8152551666717045,3.854459966678405,None,1,None,1,,,,,,,,gtyzck,001,fr,0,0,2022-04-27_10h50.08.615,Cluster,2022.1.1,36.50298484853313,
,,,,1,0,1,0,2,0,2,0,,,frequency,,,,,,,,,,,,,,,,,,,,,,,,,,,,,,,,,,,,,,,,,,,,,,,,,,,,,,,,,,,,,,,,,,,,,,,,,,,,,,,,,,,,,,,,,,,,,,,,,,,,,,,,,,,,,,,,,,,249.72061960000428,None,256.00650258706906,5.0,0.00028651527047365377,0,"[0.42693182439049526, 0.6263508831862256, 0.6597093530026257, 0.6056928563533703]","[406.3849915174131, 362.04786801433596, 322.54798151941463, 287.3575832744003]",Tone,"[15.849944632408539, 16.808184194933794, 16.0, 14.127790192476375]",False,250.70750879999832,253.4508019000059,253.4508019000059,254.68160949999583,None,0,,3.3344566666637547,4.347094566677697,None,1,['space'],0,[0.4440933000005316],,,,,,,gtyzck,001,fr,0,0,2022-04-27_10h50.08.615,Cluster,2022.1.1,36.50298484853313,
,,,,1,0,1,0,3,0,3,0,,,time,,,,,,,,,,,,,,,,,,,,,,,,,,,,,,,,,,,,,,,,,,,,,,,,,,,,,,,,,,,,,,,,,,,,,,,,,,,,,,,,,,,,,,,,,,,,,,,,,,,,,,,,,,,,,,,,,,,255.09835720001138,None,356.7427477540262,10.808184194933794,0.00030466760595645255,0,"[0.7395937159830572, 0.7395937159830572, 0.7395937159830572, 0.7395937159830572]","[4500.990586897822, 686.3116866009221, 1080.419376192409, 300.38390302863627]",None,"[-3.0, 13.0, 12.714371882770156, 15.0]",False,256.1115476000123,259.342564999999,259.342564999999,260.5647708000033,None,0,,3.9939221666718367,5.026234166667564,None,1,['space'],0,[0.3602408999868203],,,,,,,gtyzck,001,fr,0,0,2022-04-27_10h50.08.615,Cluster,2022.1.1,36.50298484853313,
,,,,1,0,1,0,4,0,4,0,,,both,,,,,,,,,,,,,,,,,,,,,,,,,,,,,,,,,,,,,,,,,,,,,,,,,,,,,,,,,,,,,,,,,,,,,,,,,,,,,,,,,,,,,,,,,,,,,,,,,,,,,,,,,,,,,,,,,,,261.1788368000125,None,463.02653600128264,7.667846502120748,0.00017729530552944723,1,"[0.42058301352717364, 0.42058301352717364, 0.42058301352717364, 0.42058301352717364]","[1166.7537587358447, 926.0530720025654, 735.0088103376276, 583.3768793679224]",Major_3rd,"[11.770115939218243, 14.351265054659425, 14.0, 12.0]",False,262.1839764000033,264.4618482000078,264.4618482000078,265.6891852999979,['space'],1,[0.09584639998502098],2.7197300666593947,3.7356447666534223,None,1,None,1,,,,,,,,gtyzck,001,fr,0,0,2022-04-27_10h50.08.615,Cluster,2022.1.1,36.50298484853313,
,,,,1,0,1,0,5,0,5,0,,,time,,,,,,,,,,,,,,,,,,,,,,,,,,,,,,,,,,,,,,,,,,,,,,,,,,,,,,,,,,,,,,,,,,,,,,,,,,,,,,,,,,,,,,,,,,,,,,,,,,,,,,,,,,,,,,,,,,,265.9617253000033,None,,,,,"[0.702681525091059, 0.702681525091059, 0.702681525091059, 0.702681525091059]","[1395.2064053189513, 4514.537366883149, 153.18851840228547, 1754.805796229484]",None,"[10.376196147230004, -3.0, 6.883672585631613, 11.466217611438429]",True,266.9665919000108,270.11066949999076,270.11066949999076,271.3311607000069,None,1,,3.8438553666637745,4.854326766653685,None,1,['space'],0,[0.3763213999918662],0,,,,,,gtyzck,001,fr,0,0,2022-04-27_10h50.08.615,Cluster,2022.1.1,36.50298484853313,
,,,,1,0,1,0,6,0,6,0,,,both,,,,,,,,,,,,,,,,,,,,,,,,,,,,,,,,,,,,,,,,,,,,,,,,,,,,,,,,,,,,,,,,,,,,,,,,,,,,,,,,,,,,,,,,,,,,,,,,,,,,,,,,,,,,,,,,,,,271.8581724000105,None,233.2582478842019,1.0,0.0002247212150770772,0,"[0.595160736435796, 0.595160736435796, 0.595160736435796, 0.595160736435796]","[1175.5479062836089, 784.5840978967509, 523.6470614103134, 349.4924835447549]",Perfect_5th,"[11.770115939218243, 14.221370611295878, 12.073353274557459, 16.808184194933794]",False,272.8760093000019,275.6831200000015,275.6831200000015,276.90696190000745,None,0,,3.4128183666907717,4.448533066693926,None,1,['space'],0,[0.4672876999829896],,,,,,,gtyzck,001,fr,0,0,2022-04-27_10h50.08.615,Cluster,2022.1.1,36.50298484853313,
,,,,1,0,1,0,7,0,7,0,,,none,,,,,,,,,,,,,,,,,,,,,,,,,,,,,,,,,,,,,,,,,,,,,,,,,,,,,,,,,,,,,,,,,,,,,,,,,,,,,,,,,,,,,,,,,,,,,,,,,,,,,,,,,,,,,,,,,,,277.3744948999956,None,5278.031643091578,-5.0,8.012985481154062e-05,0,"[0.6690972940885249, 0.6158927510313208, 0.5311141636192974, 0.7834480827914172]","[1319.7191282424508, 5421.385783182869, 7756.38932118237, 649.6069658122948]",None,"[10.503785622989126, -3.0, 7.0, 12.77469882689207]",False,278.39954129999387,281.2307620999927,281.2307620999927,282.458991099993,None,0,,3.6317734666517936,4.67421216663206,None,1,['space'],0,[0.345071799994912],,,,,,,gtyzck,001,fr,0,0,2022-04-27_10h50.08.615,Cluster,2022.1.1,36.50298484853313,
,,,,1,0,1,0,8,0,8,0,,,frequency,,,,,,,,,,,,,,,,,,,,,,,,,,,,,,,,,,,,,,,,,,,,,,,,,,,,,,,,,,,,,,,,,,,,,,,,,,,,,,,,,,,,,,,,,,,,,,,,,,,,,,,,,,,,,,,,,,,283.12092029998894,None,2462.2888266898335,3.0,0.00012014968851597731,1,"[0.42116812540671167, 0.4071644089774898, 0.4440723508118934, 0.47620255796537514]","[3908.639873736986, 3482.202253184498, 3102.289523667471, 2763.8257599355534]",Tone,"[-1.0000000000000009, 1.8305100305108448, 5.0, 8.0]",False,284.1272226999863,286.4387260999938,286.4387260999938,287.68579329998465,['space'],1,[0.020704499998828396],2.77521256665932,3.816606866661459,None,1,None,1,,,,,,,,gtyzck,001,fr,0,0,2022-04-27_10h50.08.615,Cluster,2022.1.1,36.50298484853313,
,,,,1,0,1,0,9,0,9,0,,,none,,,,,,,,,,,,,,,,,,,,,,,,,,,,,,,,,,,,,,,,,,,,,,,,,,,,,,,,,,,,,,,,,,,,,,,,,,,,,,,,,,,,,,,,,,,,,,,,,,,,,,,,,,,,,,,,,,,287.9964318999846,None,520.5626320078263,6.0733532745574585,0.00013730522927498414,0,"[0.6358253989043297, 0.7268897386104313, 0.5005303210335297, 0.47107689226281213]","[580.0755269068504, 1066.048242814347, 509.39520360372484, 5546.320602649128]",None,"[11.898771489811134, 12.714371882770156, 12.693760051509344, -2.293277012180223]",False,289.0037375999964,291.88967020000564,291.88967020000564,293.10579619999044,None,0,,3.3702104667027015,4.388360666693188,None,1,['space'],0,[0.37344060000032187],,,,,,,gtyzck,001,fr,0,0,2022-04-27_10h50.08.615,Cluster,2022.1.1,36.50298484853313,
,,,,1,0,1,0,10,0,10,0,,,time,,,,,,,,,,,,,,,,,,,,,,,,,,,,,,,,,,,,,,,,,,,,,,,,,,,,,,,,,,,,,,,,,,,,,,,,,,,,,,,,,,,,,,,,,,,,,,,,,,,,,,,,,,,,,,,,,,,293.4384487000061,None,,,,,"[0.6693449962938434, 0.6693449962938434, 0.6693449962938434, 0.6693449962938434]","[223.28721709268578, 3748.3797500041996, 337.97684829272066, 3398.0808537753705]",None,"[8.0, 0.0, 16.44873585064281, 2.0]",True,294.4289632999862,297.47313810000196,297.47313810000196,298.6845686000015,None,1,,3.700472666649148,4.720873666665284,None,1,['space'],0,[0.5173736999859102],0,,,,,,gtyzck,001,fr,0,0,2022-04-27_10h50.08.615,Cluster,2022.1.1,36.50298484853313,
,,,,1,0,1,0,11,0,11,0,,,frequency,,,,,,,,,,,,,,,,,,,,,,,,,,,,,,,,,,,,,,,,,,,,,,,,,,,,,,,,,,,,,,,,,,,,,,,,,,,,,,,,,,,,,,,,,,,,,,,,,,,,,,,,,,,,,,,,,,,299.1855869999854,None,738.2060706347727,8.0,0.00010468479440052537,0,"[0.6205067836546958, 0.4720777158687004, 0.60250812060363, 0.5777550257879587]","[1860.1627351058637, 1476.4121412695456, 1171.8290930949493, 930.0813675529317]",Major_3rd,"[11.832745505899075, 10.571815435531626, 11.770115939218243, 14.351265054659425]",False,300.18944270000793,302.91601859999355,302.91601859999355,304.1339303999848,None,0,,3.292645966692362,4.317685466667172,None,1,['space'],0,[0.3707243999815546],,,,,,,gtyzck,001,fr,0,0,2022-04-27_10h50.08.615,Cluster,2022.1.1,36.50298484853313,
,,,,1,0,1,0,12,0,12,0,,,time,,,,,,,,,,,,,,,,,,,,,,,,,,,,,,,,,,,,,,,,,,,,,,,,,,,,,,,,,,,,,,,,,,,,,,,,,,,,,,,,,,,,,,,,,,,,,,,,,,,,,,,,,,,,,,,,,,,304.5511600000027,None,5278.031643091578,-8.0,5.6727592917143227e-05,0,"[0.7430106201198022, 0.7430106201198022, 0.7430106201198022, 0.7430106201198022]","[238.10181440143464, 1342.5468943418327, 258.73526268483045, 180.3937663011306]",None,"[10.0, 10.503785622989126, 12.0, 6.3554415058480895]",False,305.56091100000776,308.8265689999971,308.8265689999971,310.0605574999936,None,0,,4.005385033320636,5.01978733332362,None,1,['space'],0,[0.3970977999852039],,,,,,,gtyzck,001,fr,0,0,2022-04-27_10h50.08.615,Cluster,2022.1.1,36.50298484853313,
,,,,1,0,1,0,13,0,13,0,,,time,,,,,,,,,,,,,,,,,,,,,,,,,,,,,,,,,,,,,,,,,,,,,,,,,,,,,,,,,,,,,,,,,,,,,,,,,,,,,,,,,,,,,,,,,,,,,,,,,,,,,,,,,,,,,,,,,,,310.6150032999867,None,971.3754989794743,8.0,0.0001086111622480559,0,"[0.717686823840085, 0.717686823840085, 0.717686823840085, 0.717686823840085]","[241.26911095036422, 5899.967946782546, 5498.701687457303, 1320.3496801477213]",None,"[10.0, -1.0, -3.0, 10.503785622989126]",False,311.615272199997,314.79497940000147,314.79497940000147,316.00966459998745,None,0,,3.898935866658576,4.91473106664489,None,1,['space'],0,[0.3489611999830231],,,,,,,gtyzck,001,fr,0,0,2022-04-27_10h50.08.615,Cluster,2022.1.1,36.50298484853313,
,,,,1,0,1,0,14,0,14,0,,,frequency,,,,,,,,,,,,,,,,,,,,,,,,,,,,,,,,,,,,,,,,,,,,,,,,,,,,,,,,,,,,,,,,,,,,,,,,,,,,,,,,,,,,,,,,,,,,,,,,,,,,,,,,,,,,,,,,,,,316.56874399998924,None,,,,,"[0.4512888778163897, 0.5948347302610264, 0.48173148323805937, 0.6093922676384621]","[134.92603443325666, 202.16063224625526, 302.8987059604285, 453.8352747172991]",Perfect_5th,"[7.914518015011773, 6.998853458218864, 15.0, 14.0]",True,317.58204660000047,320.12415329998475,320.12415329998475,321.3487664999848,None,1,,3.1635928666510154,4.199657766643213,None,1,['space'],0,[0.4115686999866739],0,,,,,,gtyzck,001,fr,0,0,2022-04-27_10h50.08.615,Cluster,2022.1.1,36.50298484853313,
,,,,1,0,1,0,15,0,15,0,,,time,,,,,,,,,,,,,,,,,,,,,,,,,,,,,,,,,,,,,,,,,,,,,,,,,,,,,,,,,,,,,,,,,,,,,,,,,,,,,,,,,,,,,,,,,,,,,,,,,,,,,,,,,,,,,,,,,,,321.8232195999881,None,125.0,-1.0,0.000644124775846567,0,"[0.6772806531250679, 0.6772806531250679, 0.6772806531250679, 0.6772806531250679]","[4300.807694997449, 5337.247880805652, 181.7018543256312, 1688.411044926716]",None,"[-2.4800499017707835, -3.0, 6.3554415058480895, 11.466217611438429]",False,322.896661900013,325.9590295999951,325.9590295999951,327.1927324999997,None,0,,3.73564153330517,4.753548133303411,None,1,['space'],0,[0.46470149999368005],,,,,,,gtyzck,001,fr,0,0,2022-04-27_10h50.08.615,Cluster,2022.1.1,36.50298484853313,
,,,,1,0,1,0,16,0,16,0,,,both,,,,,,,,,,,,,,,,,,,,,,,,,,,,,,,,,,,,,,,,,,,,,,,,,,,,,,,,,,,,,,,,,,,,,,,,,,,,,,,,,,,,,,,,,,,,,,,,,,,,,,,,,,,,,,,,,,,327.6929484999855,None,371.2559410436307,10.581933006357279,0.0002840937609458212,1,"[0.4244293250730662, 0.4244293250730662, 0.4244293250730662, 0.4244293250730662]","[147.33301784052583, 185.62797052181537, 233.87658750970016, 294.6660356810516]",Major_3rd,"[7.3800252127100885, 6.492421165504038, 9.187345341611032, 15.0]",False,328.7083175999869,331.00190199998906,331.00190199998906,332.22951179998927,['space'],1,[0.018780100013827905],2.7344506666704547,3.7556116666819435,None,1,None,1,,,,,,,,gtyzck,001,fr,0,0,2022-04-27_10h50.08.615,Cluster,2022.1.1,36.50298484853313,
,,,,1,0,1,0,17,0,17,0,,,time,,,,,,,,,,,,,,,,,,,,,,,,,,,,,,,,,,,,,,,,,,,,,,,,,,,,,,,,,,,,,,,,,,,,,,,,,,,,,,,,,,,,,,,,,,,,,,,,,,,,,,,,,,,,,,,,,,,332.52265389999957,None,210.01712748801904,1.0,0.00027581094738457224,0,"[0.7096712940998275, 0.7096712940998275, 0.7096712940998275, 0.7096712940998275]","[132.32561555146864, 2660.419296868557, 4279.656153914241, 2335.4197098482928]",None,"[8.0, 8.73208995742255, -2.4800499017707835, 11.0]",False,333.52616280000075,336.69438510001055,336.69438510001055,337.92828459999873,None,0,,3.876209566660691,4.899685666663572,None,1,['space'],0,[0.38485139998374507],,,,,,,gtyzck,001,fr,0,0,2022-04-27_10h50.08.615,Cluster,2022.1.1,36.50298484853313,
,,,,1,0,1,0,18,0,18,0,,,none,,,,,,,,,,,,,,,,,,,,,,,,,,,,,,,,,,,,,,,,,,,,,,,,,,,,,,,,,,,,,,,,,,,,,,,,,,,,,,,,,,,,,,,,,,,,,,,,,,,,,,,,,,,,,,,,,,,338.4689381000062,None,,,,,"[0.7703480254226894, 0.5030527801939291, 0.65693698555138, 0.6505886921841559]","[692.9307742306647, 5964.11342269786, 3337.8400816969156, 5589.915659526309]",None,"[13.529967651613134, -1.0, 3.0, -2.293277012180223]",True,339.48188410000876,342.42218409999623,342.42218409999623,343.636971800006,None,1,,3.6199891666765325,4.649106566677801,None,1,['space'],0,[0.4005573999893386],0,,,,,,gtyzck,001,fr,0,0,2022-04-27_10h50.08.615,Cluster,2022.1.1,36.50298484853313,
,,,,1,0,1,0,19,0,19,0,,,time,,,,,,,,,,,,,,,,,,,,,,,,,,,,,,,,,,,,,,,,,,,,,,,,,,,,,,,,,,,,,,,,,,,,,,,,,,,,,,,,,,,,,,,,,,,,,,,,,,,,,,,,,,,,,,,,,,,344.16870030001155,None,2297.3967099940687,1.0,9.133707849613953e-05,0,"[0.446660803428045, 0.446660803428045, 0.446660803428045, 0.446660803428045]","[1482.451592441521, 6420.958468532322, 1759.6460045267143, 7292.9935069698595]",None,"[10.571815435531626, 1.0, 11.466217611438429, 5.0]",False,345.1842006999941,347.56256510000094,347.56256510000094,348.7799379999924,None,0,,2.8121048666362185,3.848637566639809,None,1,['space'],0,[0.38076069997623563],,,,,,,gtyzck,001,fr,0,0,2022-04-27_10h50.08.615,Cluster,2022.1.1,36.50298484853313,
,,,,2,0,2,0,0,0,0,0,,,time,,,,,,,,,,,,,,,,,,,,,,,,,,,,,,,,,,,,,,,,,,,,,,,,,,,,,,,,,,,,,,,,,,,,,,,,,,,,,,,,,,,,,,,,,,,,,,,,,,,,,,,,,,,,,,,,,,,351.41839420000906,None,4574.032557754226,-9.248489753213747,4.256188720609611e-05,0,"[0.5427557416972976, 0.5427557416972976, 0.5427557416972976, 0.5427557416972976]","[3996.7670707967713, 7233.342682512939, 1090.134568056792, 4236.084920081087]",None,"[-1.31123409020815, 5.0, 12.714371882770156, -2.4800499017707835]",False,352.38442369998666,355.04316910001216,355.04316910001216,356.2788620000065,None,0,,3.2133986666740384,4.244366766652092,None,1,['space'],0,[0.4041066000063438],,,,,,,gtyzck,001,fr,0,0,2022-04-27_10h50.08.615,Cluster,2022.1.1,36.50298484853313,
,,,,2,0,2,0,1,0,1,0,,,both,,,,,,,,,,,,,,,,,,,,,,,,,,,,,,,,,,,,,,,,,,,,,,,,,,,,,,,,,,,,,,,,,,,,,,,,,,,,,,,,,,,,,,,,,,,,,,,,,,,,,,,,,,,,,,,,,,,356.67739999998594,None,125.0,3.0,0.001020868972334765,0,"[0.7977164767132888, 0.7977164767132888, 0.7977164767132888, 0.7977164767132888]","[198.42513149602502, 176.77669529663694, 157.49013123685918, 140.30775603867164]",Tone,"[6.998853458218864, 6.3554415058480895, 6.883672585631613, 7.3800252127100885]",False,357.6897220000101,361.10348729998805,361.10348729998805,362.3380996999913,None,0,,4.21206016666838,5.2516237666714005,None,1,['space'],0,[0.3433999000117183],,,,,,,gtyzck,001,fr,0,0,2022-04-27_10h50.08.615,Cluster,2022.1.1,36.50298484853313,
,,,,2,0,2,0,2,0,2,0,,,none,,,,,,,,,,,,,,,,,,,,,,,,,,,,,,,,,,,,,,,,,,,,,,,,,,,,,,,,,,,,,,,,,,,,,,,,,,,,,,,,,,,,,,,,,,,,,,,,,,,,,,,,,,,,,,,,,,,362.99747319999733,None,,,,,"[0.642732226344614, 0.7814876608333858, 0.5748525224566707, 0.7326110666278636]","[2187.675398263353, 1394.9348652672033, 468.5196948049394, 1531.097590294826]",None,"[11.710482821000681, 10.376196147230004, 13.667846502120748, 10.571815435531626]",True,363.99442689999705,367.0097592000093,367.0097592000093,368.23417020001216,None,1,,3.768837766663637,4.796320866647875,None,1,['space'],0,[0.38903679998475127],0,,,,,,gtyzck,001,fr,0,0,2022-04-27_10h50.08.615,Cluster,2022.1.1,36.50298484853313,
,,,,2,0,2,0,3,0,3,0,,,both,,,,,,,,,,,,,,,,,,,,,,,,,,,,,,,,,,,,,,,,,,,,,,,,,,,,,,,,,,,,,,,,,,,,,,,,,,,,,,,,,,,,,,,,,,,,,,,,,,,,,,,,,,,,,,,,,,,368.82802340001217,None,4273.304880013025,-8.480049901770784,3.8704276059168784e-05,0,"[0.6242517200320609, 0.6242517200320609, 0.6242517200320609, 0.6242517200320609]","[6783.448661913516, 6043.365717469551, 5384.026770946894, 4796.622548669859]",Tone,"[3.0, -0.8015363869700387, -3.0, -3.513043538912708]",False,369.8455335999897,372.73690700001316,372.73690700001316,373.9678533000115,None,0,,3.5110938666621223,4.553570166666759,None,1,['space'],0,[0.48579579999204725],,,,,,,gtyzck,001,fr,0,0,2022-04-27_10h50.08.615,Cluster,2022.1.1,36.50298484853313,
,,,,2,0,2,0,4,0,4,0,,,none,,,,,,,,,,,,,,,,,,,,,,,,,,,,,,,,,,,,,,,,,,,,,,,,,,,,,,,,,,,,,,,,,,,,,,,,,,,,,,,,,,,,,,,,,,,,,,,,,,,,,,,,,,,,,,,,,,,374.44205109999166,None,4594.793419988137,2.0,0.00015719631395728225,1,"[0.4101793164106291, 0.6971612586739293, 0.5523755485292701, 0.416417714919508]","[6659.077774033957, 969.5870801239878, 343.3756354923317, 288.0662684093628]",None,"[2.0, 14.0, 16.808184194933794, 14.127790192476375]",False,375.46326260000933,378.14116850000573,378.14116850000573,379.3725720999937,['space'],1,[0.0005980999849271029],3.117363633326022,4.13961513331742,None,1,None,1,,,,,,,,gtyzck,001,fr,0,0,2022-04-27_10h50.08.615,Cluster,2022.1.1,36.50298484853313,
,,,,2,0,2,0,5,0,5,0,,,none,,,,,,,,,,,,,,,,,,,,,,,,,,,,,,,,,,,,,,,,,,,,,,,,,,,,,,,,,,,,,,,,,,,,,,,,,,,,,,,,,,,,,,,,,,,,,,,,,,,,,,,,,,,,,,,,,,,379.63775639998494,None,343.76733465009215,10.808184194933794,0.0003163585645527313,0,"[0.4678549618510621, 0.5170851633510238, 0.4556776416421717, 0.6875105082347901]","[1705.7066073745916, 1129.7888256672816, 237.92339511096185, 710.0667756206026]",None,"[11.466217611438429, 12.0, 10.0, 13.529967651613134]",False,380.645858200005,383.1282361999911,383.1282361999911,384.356492299994,None,0,,3.1573686666379217,4.175547766615637,None,1,['space'],0,[0.4143716999969911],,,,,,,gtyzck,001,fr,0,0,2022-04-27_10h50.08.615,Cluster,2022.1.1,36.50298484853313,
,,,,2,0,2,0,6,0,6,0,,,time,,,,,,,,,,,,,,,,,,,,,,,,,,,,,,,,,,,,,,,,,,,,,,,,,,,,,,,,,,,,,,,,,,,,,,,,,,,,,,,,,,,,,,,,,,,,,,,,,,,,,,,,,,,,,,,,,,,384.8698200999934,None,574.3491774985172,3.0,8.45350024333888e-05,1,"[0.563453959655042, 0.563453959655042, 0.563453959655042, 0.563453959655042]","[4482.703977057047, 127.14644157935906, 125.19028847768438, 156.8538430409442]",None,"[-3.0, 8.438400606540458, 8.438400606540458, 6.883672585631613]",False,385.8927818000084,388.6211677000101,388.6211677000101,389.84830270000384,['space'],1,[0.16337229998316616],3.2793847333232407,4.304416933329776,None,1,None,1,,,,,,,,gtyzck,001,fr,0,0,2022-04-27_10h50.08.615,Cluster,2022.1.1,36.50298484853313,
,,,,2,0,2,0,7,0,7,0,,,time,,,,,,,,,,,,,,,,,,,,,,,,,,,,,,,,,,,,,,,,,,,,,,,,,,,,,,,,,,,,,,,,,,,,,,,,,,,,,,,,,,,,,,,,,,,,,,,,,,,,,,,,,,,,,,,,,,,390.2315673000121,None,,,,,"[0.5349173840860129, 0.5349173840860129, 0.5349173840860129, 0.5349173840860129]","[770.6857178646547, 824.4847089679353, 142.88129470008872, 1673.7682097856955]",None,"[14.221370611295878, 14.653733467188017, 7.3800252127100885, 11.0]",True,391.2440676999977,393.8758025999996,393.8758025999996,395.10977410001215,None,1,,3.1690458666416816,4.183872666646494,None,1,['space'],0,[0.4032017999852542],0,,,,,,gtyzck,001,fr,0,0,2022-04-27_10h50.08.615,Cluster,2022.1.1,36.50298484853313,
,,,,2,0,2,0,8,0,8,0,,,frequency,,,,,,,,,,,,,,,,,,,,,,,,,,,,,,,,,,,,,,,,,,,,,,,,,,,,,,,,,,,,,,,,,,,,,,,,,,,,,,,,,,,,,,,,,,,,,,,,,,,,,,,,,,,,,,,,,,,395.4661883999943,None,3732.1319661472303,1.0,8.890651826486576e-05,0,"[0.7326892394115755, 0.47462307010889754, 0.5941609946546828, 0.5462437360091373]","[5924.390209146259, 5278.031643091578, 4702.1916251344355, 4189.176491282507]",Tone,"[-1.0, -3.2067318485953002, -3.2484897532137467, -2.0]",False,396.49086349998834,399.31092940000235,399.31092940000235,400.5561397999991,None,0,,3.35696716667735,4.383585166651756,None,1,['space'],0,[0.4082277999841608],,,,,,,gtyzck,001,fr,0,0,2022-04-27_10h50.08.615,Cluster,2022.1.1,36.50298484853313,
,,,,2,0,2,0,9,0,9,0,,,none,,,,,,,,,,,,,,,,,,,,,,,,,,,,,,,,,,,,,,,,,,,,,,,,,,,,,,,,,,,,,,,,,,,,,,,,,,,,,,,,,,,,,,,,,,,,,,,,,,,,,,,,,,,,,,,,,,,400.9308432000107,None,125.0,5.0,0.0012851978913844323,0,"[0.6737596644666257, 0.4759380960395895, 0.7161446020853633, 0.5926740888635083]","[185.49081945045836, 1019.470317850282, 885.6392941607517, 1228.4837861170001]",None,"[6.492421165504038, 13.636276269819525, 14.707874122736042, 11.0]",False,401.942418599996,404.8382016000105,404.8382016000105,406.07275339998887,None,0,,3.480086533294525,4.498748733283719,None,1,['space'],0,[0.4963722999964375],,,,,,,gtyzck,001,fr,0,0,2022-04-27_10h50.08.615,Cluster,2022.1.1,36.50298484853313,
,,,,2,0,2,0,10,0,10,0,,,time,,,,,,,,,,,,,,,,,,,,,,,,,,,,,,,,,,,,,,,,,,,,,,,,,,,,,,,,,,,,,,,,,,,,,,,,,,,,,,,,,,,,,,,,,,,,,,,,,,,,,,,,,,,,,,,,,,,406.4853783999861,None,125.69987419820761,2.4384006065404575,0.0009487014803361384,1,"[0.6770930909931047, 0.6770930909931047, 0.6770930909931047, 0.6770930909931047]","[2815.0063404230054, 135.75149519566014, 227.72280881373027, 2355.5682888192896]",None,"[7.154805188637976, 7.914518015011773, 9.0, 11.0]",False,407.4754178999865,410.554502199986,410.554502199986,411.78189929999644,['space'],1,[0.0718044999812264],3.726134066673694,4.746371066692518,None,1,None,1,,,,,,,,gtyzck,001,fr,0,0,2022-04-27_10h50.08.615,Cluster,2022.1.1,36.50298484853313,
,,,,2,0,2,0,11,0,11,0,,,both,,,,,,,,,,,,,,,,,,,,,,,,,,,,,,,,,,,,,,,,,,,,,,,,,,,,,,,,,,,,,,,,,,,,,,,,,,,,,,,,,,,,,,,,,,,,,,,,,,,,,,,,,,,,,,,,,,,412.26615469998796,None,,,,,"[0.5190521534194521, 0.5190521534194521, 0.5190521534194521, 0.5190521534194521]","[427.4808724734533, 339.29179333032175, 269.29607482836485, 213.74043623672665]",Major_3rd,"[15.0, 16.44873585064281, 12.470443348652893, 7.9023672276089405]",True,413.2773978000041,415.86718969998765,415.86718969998765,417.0992777000065,None,1,,3.1210599666810594,4.134303366678068,None,1,['space'],0,[0.38074980000965297],0,,,,,,gtyzck,001,fr,0,0,2022-04-27_10h50.08.615,Cluster,2022.1.1,36.50298484853313,
,,,,2,0,2,0,12,0,12,0,,,both,,,,,,,,,,,,,,,,,,,,,,,,,,,,,,,,,,,,,,,,,,,,,,,,,,,,,,,,,,,,,,,,,,,,,,,,,,,,,,,,,,,,,,,,,,,,,,,,,,,,,,,,,,,,,,,,,,,417.43908589999774,None,1866.0659830736151,-1.0,6.12861988184373e-05,0,"[0.47100504857104, 0.47100504857104, 0.47100504857104, 0.47100504857104]","[1175.5479062836087, 1319.5079107728943, 1481.0975522865645, 1662.4757922855758]",Tone,"[11.770115939218243, 10.503785622989126, 10.571815435531626, 11.0]",False,418.46721460000845,420.89617120000185,420.89617120000185,422.1311897000123,None,0,,2.9097160333185457,3.948015233327169,None,1,['space'],0,[0.3905819999927189],,,,,,,gtyzck,001,fr,0,0,2022-04-27_10h50.08.615,Cluster,2022.1.1,36.50298484853313,
,,,,2,0,2,0,13,0,13,0,,,none,,,,,,,,,,,,,,,,,,,,,,,,,,,,,,,,,,,,,,,,,,,,,,,,,,,,,,,,,,,,,,,,,,,,,,,,,,,,,,,,,,,,,,,,,,,,,,,,,,,,,,,,,,,,,,,,,,,422.4541820999875,None,134.69421182450043,1.9145180150117735,0.0007933515865131141,0,"[0.5891782660903542, 0.4383283416312581, 0.6789265012743882, 0.5445969342924377]","[884.6223797592706, 3173.6301491338054, 164.5504019960078, 2150.3502404474775]",None,"[14.707874122736042, 4.0, 6.514133550478365, 11.710482821000681]",False,423.45345840000664,426.19394420000026,426.19394420000026,427.40486390001024,None,0,,3.2912924666597974,4.304676166648278,None,1,['space'],0,[0.4529923999798484],,,,,,,gtyzck,001,fr,0,0,2022-04-27_10h50.08.615,Cluster,2022.1.1,36.50298484853313,
,,,,2,0,2,0,14,0,14,0,,,none,,,,,,,,,,,,,,,,,,,,,,,,,,,,,,,,,,,,,,,,,,,,,,,,,,,,,,,,,,,,,,,,,,,,,,,,,,,,,,,,,,,,,,,,,,,,,,,,,,,,,,,,,,,,,,,,,,,427.79831879999256,None,1741.101126592249,3.0,8.916176375089286e-05,0,"[0.6288616208032719, 0.7615413651030837, 0.6530906072952228, 0.5484488362546659]","[779.9494188571804, 844.0618508991921, 228.6989778344979, 180.58308293343606]",None,"[14.221370611295878, 14.707874122736042, 9.0, 6.3554415058480895]",False,431.1587394000089,434.231219600013,434.231219600013,435.4620356000087,None,0,,3.614299866661895,4.640589366666973,None,1,['space'],0,[0.3844022999983281],,,,,,,gtyzck,001,fr,0,0,2022-04-27_10h50.08.615,Cluster,2022.1.1,36.50298484853313,
,,,,2,0,2,0,15,0,15,0,,,frequency,,,,,,,,,,,,,,,,,,,,,,,,,,,,,,,,,,,,,,,,,,,,,,,,,,,,,,,,,,,,,,,,,,,,,,,,,,,,,,,,,,,,,,,,,,,,,,,,,,,,,,,,,,,,,,,,,,,435.8431067999918,None,,,,,"[0.42279279165536215, 0.7067956394759952, 0.537903906837303, 0.6947368663924076]","[607.7256626000244, 765.6863548710801, 964.7043561193495, 1215.4513252000484]",Major_3rd,"[12.173910035084843, 14.221370611295878, 14.0, 11.0]",True,436.85674339998513,439.5392933000112,439.5392933000112,440.77567430000636,None,1,,3.404114666656824,4.4151791666809,None,1,['space'],0,[0.4672768000164069],0,,,,,,gtyzck,001,fr,0,0,2022-04-27_10h50.08.615,Cluster,2022.1.1,36.50298484853313,
,,,,2,0,2,0,16,0,16,0,,,time,,,,,,,,,,,,,,,,,,,,,,,,,,,,,,,,,,,,,,,,,,,,,,,,,,,,,,,,,,,,,,,,,,,,,,,,,,,,,,,,,,,,,,,,,,,,,,,,,,,,,,,,,,,,,,,,,,,441.30892740000854,None,3482.202253184498,3.0,0.0001057294605034332,0,"[0.6802445851697752, 0.6802445851697752, 0.6802445851697752, 0.6802445851697752]","[162.6013776021715, 3452.016663647999, 1991.9392854998007, 331.197506158433]",None,"[6.514133550478365, 2.0, 11.948081623836476, 16.44873585064281]",False,442.330984500004,445.38814729999285,445.38814729999285,446.605510399997,None,0,,3.734363466646755,4.785400866647251,None,1,['space'],0,[0.44418409999343567],,,,,,,gtyzck,001,fr,0,0,2022-04-27_10h50.08.615,Cluster,2022.1.1,36.50298484853313,
,,,,2,0,2,0,17,0,17,0,,,none,,,,,,,,,,,,,,,,,,,,,,,,,,,,,,,,,,,,,,,,,,,,,,,,,,,,,,,,,,,,,,,,,,,,,,,,,,,,,,,,,,,,,,,,,,,,,,,,,,,,,,,,,,,,,,,,,,,447.1678358000063,None,3484.124788966854,-4.169489969489155,4.6335866242138115e-05,0,"[0.4050743187090414, 0.6500563266704433, 0.4419521930819197, 0.46752062600453353]","[5666.830726078514, 273.05383041166044, 159.37605817247876, 3457.231664059278]",None,"[-2.293277012180223, 13.0, 6.883672585631613, 2.0]",False,448.1662352999847,450.6750127999985,450.6750127999985,451.9110658999998,None,0,,3.009324166632723,4.028246066649444,None,1,['space'],0,[0.42007349999039434],,,,,,,gtyzck,001,fr,0,0,2022-04-27_10h50.08.615,Cluster,2022.1.1,36.50298484853313,
,,,,2,0,2,0,18,0,18,0,,,time,,,,,,,,,,,,,,,,,,,,,,,,,,,,,,,,,,,,,,,,,,,,,,,,,,,,,,,,,,,,,,,,,,,,,,,,,,,,,,,,,,,,,,,,,,,,,,,,,,,,,,,,,,,,,,,,,,,452.24051440000767,None,803.9410440805237,8.653733467188017,0.00010421319474588756,0,"[0.4726686522929365, 0.4726686522929365, 0.4726686522929365, 0.4726686522929365]","[172.98047538191005, 1264.4634729037627, 5746.798143853911, 144.31701872097258]",None,"[6.3554415058480895, 10.988817863437873, -2.0, 7.3800252127100885]",False,453.24092609999934,455.6780385999882,455.6780385999882,456.89554090000456,None,0,,2.9132918666873593,3.942773266666336,None,1,None,1,,,,,,,,gtyzck,001,fr,0,0,2022-04-27_10h50.08.615,Cluster,2022.1.1,36.50298484853313,
,,,,2,0,2,0,19,0,19,0,,,time,,,,,,,,,,,,,,,,,,,,,,,,,,,,,,,,,,,,,,,,,,,,,,,,,,,,,,,,,,,,,,,,,,,,,,,,,,,,,,,,,,,,,,,,,,,,,,,,,,,,,,,,,,,,,,,,,,,457.2245952000085,None,378.9291416275994,11.0,0.0002910341115414244,1,"[0.41727871372455194, 0.41727871372455194, 0.41727871372455194, 0.41727871372455194]","[222.968354334607, 5205.333725485175, 592.3363347580716, 710.4250175311134]",None,"[8.0, -3.2067318485953002, 12.0, 13.529967651613134]",False,460.25922529998934,462.5454424000054,462.5454424000054,463.7808170999924,['space'],1,[0.001048100006300956],2.6813608333468437,3.7033685333444737,None,1,None,1,,,,,,,,gtyzck,001,fr,0,0,2022-04-27_10h50.08.615,Cluster,2022.1.1,36.50298484853313,
,,,,3,0,3,0,0,0,0,0,,,time,,,,,,,,,,,,,,,,,,,,,,,,,,,,,,,,,,,,,,,,,,,,,,,,,,,,,,,,,,,,,,,,,,,,,,,,,,,,,,,,,,,,,,,,,,,,,,,,,,,,,,,,,,,,,,,,,,,469.46319430001313,None,,,,,"[0.5560193202802435, 0.5560193202802435, 0.5560193202802435, 0.5560193202802435]","[151.33797389427005, 1272.1478829441833, 3901.7480590788914, 6990.602491126853]",None,"[7.0, 10.988817863437873, -1.0000000000000009, 3.430336541101992]",True,470.4459471000009,473.1295569000067,473.1295569000067,474.35015149999526,None,1,,3.26287116666208,4.293923066667048,None,1,['space'],0,[0.3649479000014253],0,,,,,,gtyzck,001,fr,0,0,2022-04-27_10h50.08.615,Cluster,2022.1.1,36.50298484853313,
,,,,3,0,3,0,1,0,1,0,,,both,,,,,,,,,,,,,,,,,,,,,,,,,,,,,,,,,,,,,,,,,,,,,,,,,,,,,,,,,,,,,,,,,,,,,,,,,,,,,,,,,,,,,,,,,,,,,,,,,,,,,,,,,,,,,,,,,,,474.77775629999815,None,167.2925512329888,0.514133550478365,0.00040801212040562294,0,"[0.7310856678849951, 0.7310856678849951, 0.7310856678849951, 0.7310856678849951]","[265.5603718136904, 236.58739483768863, 210.77540678905913, 187.77953972388136]",Tone,"[12.470443348652893, 9.187345341611032, 7.9023672276089405, 6.492421165504038]",False,475.78396860000794,479.0106150000065,479.0106150000065,480.2443640999845,None,0,,3.945883166656131,4.973413966654334,None,1,['space'],0,[0.3568368999985978],,,,,,,gtyzck,001,fr,0,0,2022-04-27_10h50.08.615,Cluster,2022.1.1,36.50298484853313,
,,,,3,0,3,0,2,0,2,0,,,time,,,,,,,,,,,,,,,,,,,,,,,,,,,,,,,,,,,,,,,,,,,,,,,,,,,,,,,,,,,,,,,,,,,,,,,,,,,,,,,,,,,,,,,,,,,,,,,,,,,,,,,,,,,,,,,,,,,480.80588709999574,None,131.49941448948428,2.0,0.0008370051131594944,0,"[0.6214491844905968, 0.6214491844905968, 0.6214491844905968, 0.6214491844905968]","[6436.8597366829645, 3608.0054326325626, 251.17776317731202, 3075.5111742257036]",None,"[1.0, 1.0, 10.756041600821511, 5.0]",False,481.81114050000906,484.70887249999214,484.70887249999214,485.93238360001124,None,0,,3.5138853666721843,4.5256681666651275,None,1,['space'],0,[0.3551595000026282],,,,,,,gtyzck,001,fr,0,0,2022-04-27_10h50.08.615,Cluster,2022.1.1,36.50298484853313,
,,,,3,0,3,0,3,0,3,0,,,none,,,,,,,,,,,,,,,,,,,,,,,,,,,,,,,,,,,,,,,,,,,,,,,,,,,,,,,,,,,,,,,,,,,,,,,,,,,,,,,,,,,,,,,,,,,,,,,,,,,,,,,,,,,,,,,,,,,486.3782566000009,None,8000.0,4.0,0.0002877199686685786,0,"[0.41191986166691924, 0.55777864811942, 0.517222390384622, 0.49725942647408666]","[541.5126194491786, 1556.73129872341, 727.4030525884161, 851.98526455886]",None,"[12.073353274557459, 10.571815435531626, 14.0, 14.707874122736042]",False,487.3972887999844,489.91755670000566,489.91755670000566,491.1352099000069,None,0,,3.0159449333150405,4.0220865333103575,None,1,['space'],0,[0.40969880000920966],,,,,,,gtyzck,001,fr,0,0,2022-04-27_10h50.08.615,Cluster,2022.1.1,36.50298484853313,
,,,,3,0,3,0,4,0,4,0,,,time,,,,,,,,,,,,,,,,,,,,,,,,,,,,,,,,,,,,,,,,,,,,,,,,,,,,,,,,,,,,,,,,,,,,,,,,,,,,,,,,,,,,,,,,,,,,,,,,,,,,,,,,,,,,,,,,,,,491.46501829999033,None,,,,,"[0.6529874363167261, 0.6529874363167261, 0.6529874363167261, 0.6529874363167261]","[518.420153745251, 166.97359372812988, 7384.989107123674, 3777.576417927255]",None,"[12.073353274557459, 6.514133550478365, 5.802559808640555, 0.0]",True,492.4695180999988,495.46833440000773,495.46833440000773,496.702466799994,None,1,,3.631580266635865,4.662320766656194,None,1,['space'],0,[0.36288249999051914],0,,,,,,gtyzck,001,fr,0,0,2022-04-27_10h50.08.615,Cluster,2022.1.1,36.50298484853313,
,,,,3,0,3,0,5,0,5,0,,,frequency,,,,,,,,,,,,,,,,,,,,,,,,,,,,,,,,,,,,,,,,,,,,,,,,,,,,,,,,,,,,,,,,,,,,,,,,,,,,,,,,,,,,,,,,,,,,,,,,,,,,,,,,,,,,,,,,,,,497.1684610999946,None,1033.4617042831321,7.0,0.00010175446624682122,0,"[0.52249785677896, 0.7815598628405087, 0.5193226129335988, 0.7206169506052018]","[2604.1603109730977, 2066.9234085662642, 1640.5181965478923, 1302.0801554865488]",Major_3rd,"[9.0, 11.948081623836476, 11.0, 10.503785622989126]",False,498.17845869998564,501.01445439999225,501.01445439999225,502.2270417000109,None,0,,3.5606455666711554,4.58725886666798,None,1,['space'],0,[0.35226569999940693],,,,,,,gtyzck,001,fr,0,0,2022-04-27_10h50.08.615,Cluster,2022.1.1,36.50298484853313,
,,,,3,0,3,0,6,0,6,0,,,none,,,,,,,,,,,,,,,,,,,,,,,,,,,,,,,,,,,,,,,,,,,,,,,,,,,,,,,,,,,,,,,,,,,,,,,,,,,,,,,,,,,,,,,,,,,,,,,,,,,,,,,,,,,,,,,,,,,502.8084625999909,None,375.1221500978675,10.581933006357279,0.00028069984014932476,0,"[0.7715867863724378, 0.774669540795549, 0.5400803458446256, 0.6103228295886569]","[3369.0337286327695, 181.4638197689545, 185.10024209662876, 222.8856260240548]",None,"[3.0, 6.3554415058480895, 6.492421165504038, 8.0]",False,503.8111009999993,506.9275323000038,506.9275323000038,508.16071470000315,None,0,,3.7116184666519985,4.748391666653333,None,1,['space'],0,[0.40671199999633245],,,,,,,gtyzck,001,fr,0,0,2022-04-27_10h50.08.615,Cluster,2022.1.1,36.50298484853313,
,,,,3,0,3,0,7,0,7,0,,,time,,,,,,,,,,,,,,,,,,,,,,,,,,,,,,,,,,,,,,,,,,,,,,,,,,,,,,,,,,,,,,,,,,,,,,,,,,,,,,,,,,,,,,,,,,,,,,,,,,,,,,,,,,,,,,,,,,,508.6037259000004,None,6062.8662660415985,-6.0,5.955731266525417e-05,0,"[0.7172967671638275, 0.7172967671638275, 0.7172967671638275, 0.7172967671638275]","[509.6345048672044, 229.67632862950893, 2224.9729586159965, 466.9263208105137]",None,"[12.693760051509344, 9.0, 11.081347530293748, 13.667846502120748]",False,509.62314320000587,512.8006324000016,512.8006324000016,514.0355404999864,None,0,,3.8938999333186075,4.924692133325152,None,1,['space'],0,[0.5194173000054434],,,,,,,gtyzck,001,fr,0,0,2022-04-27_10h50.08.615,Cluster,2022.1.1,36.50298484853313,
,,,,3,0,3,0,8,0,8,0,,,time,,,,,,,,,,,,,,,,,,,,,,,,,,,,,,,,,,,,,,,,,,,,,,,,,,,,,,,,,,,,,,,,,,,,,,,,,,,,,,,,,,,,,,,,,,,,,,,,,,,,,,,,,,,,,,,,,,,514.5851522999874,None,7084.94315465629,-2.0,0.0001221688540001119,0,"[0.5883384253353485, 0.5883384253353485, 0.5883384253353485, 0.5883384253353485]","[204.17880055009653, 3584.9790364161536, 497.3487966644632, 6786.788757863682]",None,"[7.0, 1.0, 12.693760051509344, 3.0]",False,515.5925358000095,518.3974966999958,518.3974966999958,519.6410318999842,None,0,,3.3909685666440055,4.419606566632865,None,1,['space'],0,[0.39381069998489693],,,,,,,gtyzck,001,fr,0,0,2022-04-27_10h50.08.615,Cluster,2022.1.1,36.50298484853313,
,,,,3,0,3,0,9,0,9,0,,,both,,,,,,,,,,,,,,,,,,,,,,,,,,,,,,,,,,,,,,,,,,,,,,,,,,,,,,,,,,,,,,,,,,,,,,,,,,,,,,,,,,,,,,,,,,,,,,,,,,,,,,,,,,,,,,,,,,,520.0564539000043,None,4287.0938501451765,-1.0,9.241732010965923e-05,0,"[0.7384423180462518, 0.7384423180462518, 0.7384423180462518, 0.7384423180462518]","[6805.337287606852, 6062.8662660415985, 5401.399784672765, 4812.100144328471]",Tone,"[3.0, -0.8015363869700387, -3.0, -3.513043538912708]",False,521.076067499991,524.3173053000064,524.3173053000064,525.5308671999956,None,0,,3.979251166660106,5.013030166679528,None,1,['space'],0,[0.42626830001245253],,,,,,,gtyzck,001,fr,0,0,2022-04-27_10h50.08.615,Cluster,2022.1.1,36.50298484853313,
,,,,3,0,3,0,10,0,10,0,,,frequency,,,,,,,,,,,,,,,,,,,,,,,,,,,,,,,,,,,,,,,,,,,,,,,,,,,,,,,,,,,,,,,,,,,,,,,,,,,,,,,,,,,,,,,,,,,,,,,,,,,,,,,,,,,,,,,,,,,526.1435939999938,None,125.0,5.0,0.0012851978913844323,1,"[0.6741437403030448, 0.5685835289074836, 0.5489529670406814, 0.6315460531518635]","[314.9802624737183, 250.00000000000003, 198.42513149602496, 157.49013123685916]",Major_3rd,"[16.0, 10.756041600821511, 6.998853458218864, 6.883672585631613]",False,527.1596641000069,529.9649978000089,529.9649978000089,531.1890004999877,['space'],1,[0.2659267999988515],3.430879866675241,4.475113666674588,None,1,None,1,,,,,,,,gtyzck,001,fr,0,0,2022-04-27_10h50.08.615,Cluster,2022.1.1,36.50298484853313,
,,,,3,0,3,0,11,0,11,0,,,frequency,,,,,,,,,,,,,,,,,,,,,,,,,,,,,,,,,,,,,,,,,,,,,,,,,,,,,,,,,,,,,,,,,,,,,,,,,,,,,,,,,,,,,,,,,,,,,,,,,,,,,,,,,,,,,,,,,,,531.6831763999944,None,,,,,"[0.7655075697381318, 0.6634722985815191, 0.7708696786922661, 0.7591409956613967]","[949.6990235539802, 1422.9407678938028, 2132.002222511624, 3194.3940179059796]",Perfect_5th,"[14.0, 10.376196147230004, 11.710482821000681, 4.0]",True,532.6854280999978,535.8962309999915,535.8962309999915,537.1092758000013,None,1,,3.9993044666480273,5.0189760666689835,None,1,['space'],0,[0.5747293999884278],0,,,,,,gtyzck,001,fr,0,0,2022-04-27_10h50.08.615,Cluster,2022.1.1,36.50298484853313,
,,,,3,0,3,0,12,0,12,0,,,both,,,,,,,,,,,,,,,,,,,,,,,,,,,,,,,,,,,,,,,,,,,,,,,,,,,,,,,,,,,,,,,,,,,,,,,,,,,,,,,,,,,,,,,,,,,,,,,,,,,,,,,,,,,,,,,,,,,537.7500208999845,None,1009.9140237284902,7.6362762698195255,0.00010711561945909491,1,"[0.6109389872414723, 0.6109389872414723, 0.6109389872414723, 0.6109389872414723]","[2544.8238741591103, 2019.8280474569804, 1603.1385836640425, 1272.4119370795552]",Major_3rd,"[9.0, 11.948081623836476, 10.987398880831252, 10.988817863437873]",False,538.7584714000113,541.6274432000064,541.6274432000064,542.8670082000026,['space'],1,[0.10240269999485463],3.4819495666597504,4.510375766665675,None,1,None,1,,,,,,,,gtyzck,001,fr,0,0,2022-04-27_10h50.08.615,Cluster,2022.1.1,36.50298484853313,
,,,,3,0,3,0,13,0,13,0,,,both,,,,,,,,,,,,,,,,,,,,,,,,,,,,,,,,,,,,,,,,,,,,,,,,,,,,,,,,,,,,,,,,,,,,,,,,,,,,,,,,,,,,,,,,,,,,,,,,,,,,,,,,,,,,,,,,,,,543.3188727000088,None,5656.85424949238,2.0,0.00016180173443103448,1,"[0.5491169684825054, 0.5491169684825054, 0.5491169684825054, 0.5491169684825054]","[3563.5948725613575, 4000.0000000000005, 4489.8481932374925, 5039.684199579493]",Tone,"[1.0, -1.31123409020815, -3.0, -3.513043538912708]",False,546.395073599997,549.070716599992,549.070716599992,550.2898820000119,['space'],1,[0.01819410000462085],3.2189551333140116,4.234176333324285,None,1,None,1,,,,,,,,gtyzck,001,fr,0,0,2022-04-27_10h50.08.615,Cluster,2022.1.1,36.50298484853313,
,,,,3,0,3,0,14,0,14,0,,,time,,,,,,,,,,,,,,,,,,,,,,,,,,,,,,,,,,,,,,,,,,,,,,,,,,,,,,,,,,,,,,,,,,,,,,,,,,,,,,,,,,,,,,,,,,,,,,,,,,,,,,,,,,,,,,,,,,,550.6738089999999,None,1741.101126592249,0.0,6.312169477569904e-05,0,"[0.7104880568941999, 0.7104880568941999, 0.7104880568941999, 0.7104880568941999]","[3065.31024382211, 527.3239091505092, 3776.563076598635, 140.36611585065043]",None,"[5.0, 12.073353274557459, 0.0, 7.3800252127100885]",False,551.7516771999944,554.8959895999869,554.8959895999869,556.1171595999913,None,0,,3.8748981333337724,4.9087375333183445,None,1,['space'],0,[0.5192888000165112],,,,,,,gtyzck,001,fr,0,0,2022-04-27_10h50.08.615,Cluster,2022.1.1,36.50298484853313,
,,,,3,0,3,0,15,0,15,0,,,none,,,,,,,,,,,,,,,,,,,,,,,,,,,,,,,,,,,,,,,,,,,,,,,,,,,,,,,,,,,,,,,,,,,,,,,,,,,,,,,,,,,,,,,,,,,,,,,,,,,,,,,,,,,,,,,,,,,556.6964915999852,None,757.8582832551998,5.0,7.163659420302861e-05,0,"[0.5101362751209176, 0.6628796948846161, 0.6797306715202753, 0.5817990900148681]","[519.9656008693859, 2484.487715756504, 1687.3238425793743, 7320.680561699538]",None,"[12.073353274557459, 10.0, 11.466217611438429, 5.0]",False,557.7169547000085,560.5999213999894,560.5999213999894,561.8167519000126,None,0,,3.4529090666619595,4.485712666675681,None,1,['space'],0,[0.4311028000083752],,,,,,,gtyzck,001,fr,0,0,2022-04-27_10h50.08.615,Cluster,2022.1.1,36.50298484853313,
,,,,3,0,3,0,16,0,16,0,,,time,,,,,,,,,,,,,,,,,,,,,,,,,,,,,,,,,,,,,,,,,,,,,,,,,,,,,,,,,,,,,,,,,,,,,,,,,,,,,,,,,,,,,,,,,,,,,,,,,,,,,,,,,,,,,,,,,,,562.2538258999994,None,,,,,"[0.40645750526624813, 0.40645750526624813, 0.40645750526624813, 0.40645750526624813]","[4779.614742437117, 1860.6173666320085, 730.2227163030244, 6142.612505972796]",None,"[-3.513043538912708, 11.832745505899075, 14.0, -0.8015363869700387]",True,563.2645653999934,565.525544300006,565.525544300006,566.749867400009,['space'],0,[0.006862400012323633],2.671455566684017,3.687119966663886,None,1,None,1,,0,,,,,,gtyzck,001,fr,0,0,2022-04-27_10h50.08.615,Cluster,2022.1.1,36.50298484853313,
,,,,3,0,3,0,17,0,17,0,,,none,,,,,,,,,,,,,,,,,,,,,,,,,,,,,,,,,,,,,,,,,,,,,,,,,,,,,,,,,,,,,,,,,,,,,,,,,,,,,,,,,,,,,,,,,,,,,,,,,,,,,,,,,,,,,,,,,,,566.9885923000111,None,5654.8246572091075,-8.293277012180223,4.9496233700781995e-05,0,"[0.6396136437673124, 0.7632693942941599, 0.6091919161093542, 0.666093951705596]","[4629.126498573749, 272.7101992290064, 1868.6086479925239, 1130.3105719878306]",None,"[-3.2484897532137467, 13.0, 11.832745505899075, 12.0]",False,568.0003051999956,571.0350404999917,571.0350404999917,572.2719166000024,None,0,,3.696685166680254,4.729746266675647,None,1,['space'],0,[0.37973019998753443],,,,,,,gtyzck,001,fr,0,0,2022-04-27_10h50.08.615,Cluster,2022.1.1,36.50298484853313,
,,,,3,0,3,0,18,0,18,0,,,time,,,,,,,,,,,,,,,,,,,,,,,,,,,,,,,,,,,,,,,,,,,,,,,,,,,,,,,,,,,,,,,,,,,,,,,,,,,,,,,,,,,,,,,,,,,,,,,,,,,,,,,,,,,,,,,,,,,572.7761176000058,None,222.22017814533766,2.0,0.00027936646397152333,0,"[0.47752090535631386, 0.47752090535631386, 0.47752090535631386, 0.47752090535631386]","[363.96977971256985, 5243.961005881251, 4689.929821353134, 1832.4722912380478]",None,"[16.808184194933794, -3.2067318485953002, -3.2484897532137467, 11.832745505899075]",False,573.7955684000044,576.2598881000013,576.2598881000013,577.4764590999985,None,0,,2.939105366647709,3.9733344666601624,None,1,['space'],0,[0.37155260000145063],,,,,,,gtyzck,001,fr,0,0,2022-04-27_10h50.08.615,Cluster,2022.1.1,36.50298484853313,
,,,,3,0,3,0,19,0,19,0,,,none,,,,,,,,,,,,,,,,,,,,,,,,,,,,,,,,,,,,,,,,,,,,,,,,,,,,,,,,,,,,,,,,,,,,,,,,,,,,,,,,,,,,,,,,,,,,,,,,,,,,,,,,,,,,,,,,,,,577.8151473999897,None,176.7766952966369,7.0,0.0007835993601077277,0,"[0.5097489555288688, 0.5558611433692354, 0.4250765739337848, 0.5155205293789371]","[334.2439891083934, 325.4924156081109, 5283.282483413459, 216.9309897348446]",None,"[16.44873585064281, 16.44873585064281, -3.2067318485953002, 7.9023672276089405]",False,578.834629399993,581.3604991000029,581.3604991000029,582.5945650000067,None,0,,3.0266181333281565,4.03997163331951,None,1,['space'],0,[0.42263939999975264],,,,,,,gtyzck,001,fr,0,0,2022-04-27_10h50.08.615,Cluster,2022.1.1,36.50298484853313,
,,,,4,0,4,0,0,0,0,0,,,both,,,,,,,,,,,,,,,,,,,,,,,,,,,,,,,,,,,,,,,,,,,,,,,,,,,,,,,,,,,,,,,,,,,,,,,,,,,,,,,,,,,,,,,,,,,,,,,,,,,,,,,,,,,,,,,,,,,587.4526264999877,None,1264.2956415663245,4.988817863437872,9.617759775212698e-05,0,"[0.4813979900620365, 0.4813979900620365, 0.4813979900620365, 0.4813979900620365]","[6371.650768399024, 4252.56669125607, 2838.247751002299, 1894.3031070231684]",Perfect_5th,"[1.0, -2.4800499017707835, 7.0, 11.832745505899075]",False,588.4214209000056,590.9067438000056,590.9067438000056,592.1481446000107,None,0,,2.9534229666460305,3.9860615666548256,None,1,['space'],0,[0.39655449998099357],,,,,,,gtyzck,001,fr,0,0,2022-04-27_10h50.08.615,Cluster,2022.1.1,36.50298484853313,
,,,,4,0,4,0,1,0,1,0,,,time,,,,,,,,,,,,,,,,,,,,,,,,,,,,,,,,,,,,,,,,,,,,,,,,,,,,,,,,,,,,,,,,,,,,,,,,,,,,,,,,,,,,,,,,,,,,,,,,,,,,,,,,,,,,,,,,,,,592.4559622000088,None,,,,,"[0.654142565515926, 0.654142565515926, 0.654142565515926, 0.654142565515926]","[457.1855449552271, 227.42563727925358, 260.85271235262735, 1502.9124788990823]",None,"[14.0, 9.0, 12.0, 10.571815435531626]",True,593.4620585000084,596.438740499987,596.438740499987,597.6759477999876,None,1,,3.6613942666735966,4.697293666686164,None,1,['space'],0,[0.4156362999929115],0,,,,,,gtyzck,001,fr,0,0,2022-04-27_10h50.08.615,Cluster,2022.1.1,36.50298484853313,
,,,,4,0,4,0,2,0,2,0,,,both,,,,,,,,,,,,,,,,,,,,,,,,,,,,,,,,,,,,,,,,,,,,,,,,,,,,,,,,,,,,,,,,,,,,,,,,,,,,,,,,,,,,,,,,,,,,,,,,,,,,,,,,,,,,,,,,,,,598.2049767999852,None,176.7766952966369,8.0,0.0008792129428200801,0,"[0.705226262202892, 0.705226262202892, 0.705226262202892, 0.705226262202892]","[445.44935907016975, 353.55339059327383, 280.6155120773433, 222.72467953508485]",Major_3rd,"[14.799841735560463, 16.808184194933794, 14.0, 8.0]",False,599.2252994999872,602.3572802999988,602.3572802999988,603.5978013999993,None,0,,3.824953966657631,4.846681866678409,None,1,['space'],0,[0.4488429999910295],,,,,,,gtyzck,001,fr,0,0,2022-04-27_10h50.08.615,Cluster,2022.1.1,36.50298484853313,
,,,,4,0,4,0,3,0,3,0,,,none,,,,,,,,,,,,,,,,,,,,,,,,,,,,,,,,,,,,,,,,,,,,,,,,,,,,,,,,,,,,,,,,,,,,,,,,,,,,,,,,,,,,,,,,,,,,,,,,,,,,,,,,,,,,,,,,,,,604.1253819999984,None,1289.5879442141756,4.503785622989126,8.989948429050601e-05,0,"[0.4980532011954991, 0.4467619898341402, 0.6154864963605341, 0.7638637496473653]","[2591.6482917440103, 430.0374783179294, 1101.5956715041355, 1507.6872333170356]",None,"[9.0, 15.0, 12.0, 10.571815435531626]",False,605.1301628999936,607.7162683999923,607.7162683999923,608.9331485999865,None,0,,3.360852766636526,4.374506866646698,None,1,['space'],0,[0.46679520001634955],,,,,,,gtyzck,001,fr,0,0,2022-04-27_10h50.08.615,Cluster,2022.1.1,36.50298484853313,
,,,,4,0,4,0,4,0,4,0,,,both,,,,,,,,,,,,,,,,,,,,,,,,,,,,,,,,,,,,,,,,,,,,,,,,,,,,,,,,,,,,,,,,,,,,,,,,,,,,,,,,,,,,,,,,,,,,,,,,,,,,,,,,,,,,,,,,,,,609.5545156000007,None,1446.5433958121905,4.376196147230005,8.213938075972744e-05,0,"[0.7613472395213995, 0.7613472395213995, 0.7613472395213995, 0.7613472395213995]","[287.03056352874034, 430.0599246150136, 644.361828531727, 965.4518877582854]",Perfect_5th,"[14.127790192476375, 15.0, 12.77469882689207, 14.0]",False,610.5656445999921,613.8685662999924,613.8685662999924,615.0952254000003,None,0,,4.060517366655404,5.075618866656441,None,1,['space'],0,[0.45754559998749755],,,,,,,gtyzck,001,fr,0,0,2022-04-27_10h50.08.615,Cluster,2022.1.1,36.50298484853313,
,,,,4,0,4,0,5,0,5,0,,,time,,,,,,,,,,,,,,,,,,,,,,,,,,,,,,,,,,,,,,,,,,,,,,,,,,,,,,,,,,,,,,,,,,,,,,,,,,,,,,,,,,,,,,,,,,,,,,,,,,,,,,,,,,,,,,,,,,,615.6933768999879,None,4924.577653379667,1.0,0.0001655611795965586,0,"[0.5227448122369994, 0.5227448122369994, 0.5227448122369994, 0.5227448122369994]","[5698.997466681576, 1447.1228003266924, 1186.7756036237058, 794.410403399539]",None,"[-2.0, 10.376196147230004, 11.770115939218243, 14.653733467188017]",False,616.7146632999938,619.3151405999961,619.3151405999961,620.538263399998,None,0,,3.115771266631782,4.1540105666499585,None,1,['space'],0,[0.4039263000013307],,,,,,,gtyzck,001,fr,0,0,2022-04-27_10h50.08.615,Cluster,2022.1.1,36.50298484853313,
,,,,4,0,4,0,6,0,6,0,,,time,,,,,,,,,,,,,,,,,,,,,,,,,,,,,,,,,,,,,,,,,,,,,,,,,,,,,,,,,,,,,,,,,,,,,,,,,,,,,,,,,,,,,,,,,,,,,,,,,,,,,,,,,,,,,,,,,,,620.9280725999852,None,1270.8765142947627,4.988817863437872,9.588743358606508e-05,0,"[0.4487800646466725, 0.4487800646466725, 0.4487800646466725, 0.4487800646466725]","[6982.314143464309, 668.862178003793, 3069.8039022236126, 4895.7857487233105]",None,"[3.430336541101992, 13.0, 5.0, -3.513043538912708]",False,621.9246593999851,624.3101199000084,624.3101199000084,625.5390426999948,None,0,,2.820802566682687,3.8453409666835796,None,1,None,1,,,,,,,,gtyzck,001,fr,0,0,2022-04-27_10h50.08.615,Cluster,2022.1.1,36.50298484853313,
,,,,4,0,4,0,7,0,7,0,,,frequency,,,,,,,,,,,,,,,,,,,,,,,,,,,,,,,,,,,,,,,,,,,,,,,,,,,,,,,,,,,,,,,,,,,,,,,,,,,,,,,,,,,,,,,,,,,,,,,,,,,,,,,,,,,,,,,,,,,625.8192134999845,None,,,,,"[0.7401201584296906, 0.769587183364557, 0.454577510434547, 0.48492520841263664]","[329.01284541037035, 492.9622746616915, 738.6088647588388, 1106.66288911202]",Perfect_5th,"[16.44873585064281, 13.0, 14.0, 12.0]",True,626.8341724000056,629.8377857999876,629.8377857999876,631.0508008000033,['space'],0,[0.0034937000018544495],3.4898684666550253,4.507621966651641,None,1,None,1,,0,,,,,,gtyzck,001,fr,0,0,2022-04-27_10h50.08.615,Cluster,2022.1.1,36.50298484853313,
,,,,4,0,4,0,8,0,8,0,,,time,,,,,,,,,,,,,,,,,,,,,,,,,,,,,,,,,,,,,,,,,,,,,,,,,,,,,,,,,,,,,,,,,,,,,,,,,,,,,,,,,,,,,,,,,,,,,,,,,,,,,,,,,,,,,,,,,,,631.3822297999868,None,8000.0,5.0,0.00032282711451732784,0,"[0.4724109570719964, 0.4724109570719964, 0.4724109570719964, 0.4724109570719964]","[2871.504631272512, 219.38913019166532, 139.53705383469364, 135.24915675756634]",None,"[7.0, 8.0, 7.3800252127100885, 7.914518015011773]",False,632.4122798999888,634.8582874999847,634.8582874999847,636.096020500001,None,0,,2.915886533301091,3.9504522333154455,None,1,['space'],0,[0.3808254999748897],,,,,,,gtyzck,001,fr,0,0,2022-04-27_10h50.08.615,Cluster,2022.1.1,36.50298484853313,
,,,,4,0,4,0,9,0,9,0,,,time,,,,,,,,,,,,,,,,,,,,,,,,,,,,,,,,,,,,,,,,,,,,,,,,,,,,,,,,,,,,,,,,,,,,,,,,,,,,,,,,,,,,,,,,,,,,,,,,,,,,,,,,,,,,,,,,,,,636.4025278000045,None,1806.9711430808245,5.832745505899075,0.0001293635713292015,0,"[0.7297364406998512, 0.7297364406998512, 0.7297364406998512, 0.7297364406998512]","[1315.3522043535156, 336.3496728676706, 754.5544682718272, 269.86885446085495]",None,"[10.503785622989126, 16.44873585064281, 14.221370611295878, 12.470443348652893]",False,637.418689699989,640.6383915999904,640.6383915999904,641.8684543000127,None,0,,3.9350880666752346,4.96776176666026,None,1,['space'],0,[0.5211055999970995],,,,,,,gtyzck,001,fr,0,0,2022-04-27_10h50.08.615,Cluster,2022.1.1,36.50298484853313,
,,,,4,0,4,0,10,0,10,0,,,frequency,,,,,,,,,,,,,,,,,,,,,,,,,,,,,,,,,,,,,,,,,,,,,,,,,,,,,,,,,,,,,,,,,,,,,,,,,,,,,,,,,,,,,,,,,,,,,,,,,,,,,,,,,,,,,,,,,,,642.4365679000039,None,282.6509099931713,8.0,0.00033380974426504273,1,"[0.5741083834118372, 0.4548617780890661, 0.46827234255642086, 0.516814618474593]","[448.68035186292906, 399.7287503294399, 356.1178312723377, 317.2649193874433]",Tone,"[14.0, 16.0, 16.808184194933794, 16.0]",False,643.4419471999863,645.9773617000028,645.9773617000028,647.2079864999978,['space'],1,[0.020167200011201203],3.04103386666975,4.054514266666956,None,1,None,1,,,,,,,,gtyzck,001,fr,0,0,2022-04-27_10h50.08.615,Cluster,2022.1.1,36.50298484853313,
,,,,4,0,4,0,11,0,11,0,,,time,,,,,,,,,,,,,,,,,,,,,,,,,,,,,,,,,,,,,,,,,,,,,,,,,,,,,,,,,,,,,,,,,,,,,,,,,,,,,,,,,,,,,,,,,,,,,,,,,,,,,,,,,,,,,,,,,,,647.543437299988,None,,,,,"[0.6795843146216543, 0.6795843146216543, 0.6795843146216543, 0.6795843146216543]","[572.9707020502063, 166.28580118079222, 508.37846447664356, 1773.1658694344371]",None,"[11.898771489811134, 6.514133550478365, 12.693760051509344, 11.466217611438429]",True,648.5604288000031,651.6411120000121,651.6411120000121,652.870422500011,None,1,,3.7521427666652016,4.775800466682995,None,1,['space'],0,[0.3335730000108015],0,,,,,,gtyzck,001,fr,0,0,2022-04-27_10h50.08.615,Cluster,2022.1.1,36.50298484853313,
,,,,4,0,4,0,12,0,12,0,,,none,,,,,,,,,,,,,,,,,,,,,,,,,,,,,,,,,,,,,,,,,,,,,,,,,,,,,,,,,,,,,,,,,,,,,,,,,,,,,,,,,,,,,,,,,,,,,,,,,,,,,,,,,,,,,,,,,,,653.3771645000088,None,3482.202253184498,3.0,0.0001057294605034332,1,"[0.5239828034931039, 0.6059176786314635, 0.5308294375879434, 0.49298369443709783]","[6112.471515664055, 803.4054751735498, 1225.6914802221145, 5120.242816797529]",None,"[-0.8015363869700387, 14.653733467188017, 11.0, -3.2067318485953002]",False,654.4060711000056,657.0890856999904,657.0890856999904,658.3110034999845,['space'],1,[0.05298559999209829],3.1972814332984854,4.2261278333025984,None,1,None,1,,,,,,,,gtyzck,001,fr,0,0,2022-04-27_10h50.08.615,Cluster,2022.1.1,36.50298484853313,
,,,,4,0,4,0,13,0,13,0,,,frequency,,,,,,,,,,,,,,,,,,,,,,,,,,,,,,,,,,,,,,,,,,,,,,,,,,,,,,,,,,,,,,,,,,,,,,,,,,,,,,,,,,,,,,,,,,,,,,,,,,,,,,,,,,,,,,,,,,,658.6729569000017,None,5656.85424949238,0.0,0.0001285236860859306,1,"[0.7882217869377487, 0.6346945089267402, 0.6008153137141012, 0.4350275351647408]","[2244.9240966187467, 2828.427124746191, 3563.594872561358, 4489.8481932374925]",Major_3rd,"[11.081347530293748, 7.154805188637976, 1.0, -3.0]",False,659.6917319000058,662.7566996999958,662.7566996999958,663.9916022999969,['space'],1,[0.05553360001067631],3.487042933324119,4.500187233323231,None,1,None,1,,,,,,,,gtyzck,001,fr,0,0,2022-04-27_10h50.08.615,Cluster,2022.1.1,36.50298484853313,
,,,,4,0,4,0,14,0,14,0,,,frequency,,,,,,,,,,,,,,,,,,,,,,,,,,,,,,,,,,,,,,,,,,,,,,,,,,,,,,,,,,,,,,,,,,,,,,,,,,,,,,,,,,,,,,,,,,,,,,,,,,,,,,,,,,,,,,,,,,,664.2383359000087,None,206.54438328110592,1.0,0.00028344489828191087,0,"[0.6840606854331948, 0.7143030231950701, 0.48856601650207876, 0.7069911735837751]","[520.4592324668401, 413.08876656221184, 327.86877129855054, 260.2296162334201]",Major_3rd,"[12.073353274557459, 15.849944632408539, 16.44873585064281, 12.0]",False,665.2392755000037,668.139514999988,668.139514999988,669.3560596999887,None,0,,3.6159307666530367,4.636862166662468,None,1,['space'],0,[0.3628810000082012],,,,,,,gtyzck,001,fr,0,0,2022-04-27_10h50.08.615,Cluster,2022.1.1,36.50298484853313,
,,,,4,0,4,0,15,0,15,0,,,none,,,,,,,,,,,,,,,,,,,,,,,,,,,,,,,,,,,,,,,,,,,,,,,,,,,,,,,,,,,,,,,,,,,,,,,,,,,,,,,,,,,,,,,,,,,,,,,,,,,,,,,,,,,,,,,,,,,669.9274889999942,None,,,,,"[0.7945131626739266, 0.7620110124018071, 0.7666749839016628, 0.4763930349132051]","[2006.5798938860094, 1664.8366298630983, 144.18287600971274, 1789.2181582764354]",None,"[11.948081623836476, 11.0, 7.3800252127100885, 11.466217611438429]",True,670.938084399997,674.2996028999914,674.2996028999914,675.5272386999859,None,1,,3.834296266664751,4.854665066668531,None,1,None,1,,0,,,,,,gtyzck,001,fr,0,0,2022-04-27_10h50.08.615,Cluster,2022.1.1,36.50298484853313,
,,,,4,0,4,0,16,0,16,0,,,frequency,,,,,,,,,,,,,,,,,,,,,,,,,,,,,,,,,,,,,,,,,,,,,,,,,,,,,,,,,,,,,,,,,,,,,,,,,,,,,,,,,,,,,,,,,,,,,,,,,,,,,,,,,,,,,,,,,,,675.8361933999986,None,1866.0659830736151,-2.0,5.462138219158348e-05,0,"[0.4928178778282342, 0.4959310116662345, 0.7348646416574148, 0.5210831125234825]","[370.27438807164106, 554.7847360339225, 831.2378961427878, 1245.449622358823]",Perfect_5th,"[16.58193300635728, 12.0, 14.653733467188017, 10.988817863437873]",False,676.9196444000117,679.6763086999999,679.6763086999999,680.9073246000044,None,0,,3.276504733337788,4.29722943334491,None,1,None,1,,,,,,,,gtyzck,001,fr,0,0,2022-04-27_10h50.08.615,Cluster,2022.1.1,36.50298484853313,
,,,,4,0,4,0,17,0,17,0,,,none,,,,,,,,,,,,,,,,,,,,,,,,,,,,,,,,,,,,,,,,,,,,,,,,,,,,,,,,,,,,,,,,,,,,,,,,,,,,,,,,,,,,,,,,,,,,,,,,,,,,,,,,,,,,,,,,,,,681.2684589999844,None,330.195907530966,10.448735850642809,0.0003152661534599119,1,"[0.7460006568292161, 0.6282899011364725, 0.4174515800347682, 0.4662889820192168]","[6496.74774777232, 2712.453868605029, 2447.742388558284, 6534.5863521951305]",None,"[1.1600525257360932, 8.0, 10.070353108031792, 1.1600525257360932]",False,682.2757595999865,685.0867021000013,685.0867021000013,686.3169482999947,['space'],1,[0.04850920001626946],3.2826329667004757,4.300373266683891,None,1,None,1,,,,,,,,gtyzck,001,fr,0,0,2022-04-27_10h50.08.615,Cluster,2022.1.1,36.50298484853313,
,,,,4,0,4,0,18,0,18,0,,,time,,,,,,,,,,,,,,,,,,,,,,,,,,,,,,,,,,,,,,,,,,,,,,,,,,,,,,,,,,,,,,,,,,,,,,,,,,,,,,,,,,,,,,,,,,,,,,,,,,,,,,,,,,,,,,,,,,,686.6257287999906,None,500.0,2.0,8.994354575643942e-05,0,"[0.6330463673954838, 0.6330463673954838, 0.6330463673954838, 0.6330463673954838]","[157.71682905769202, 1381.296296881669, 656.7330240127784, 7035.882177144593]",None,"[6.883672585631613, 10.376196147230004, 12.77469882689207, 4.0]",False,687.6442823999969,690.5719478999963,690.5719478999963,691.7951783000026,None,0,,3.561022166686598,4.578263266681461,None,1,['space'],0,[0.3461370999866631],,,,,,,gtyzck,001,fr,0,0,2022-04-27_10h50.08.615,Cluster,2022.1.1,36.50298484853313,
,,,,4,0,4,0,19,0,19,0,,,time,,,,,,,,,,,,,,,,,,,,,,,,,,,,,,,,,,,,,,,,,,,,,,,,,,,,,,,,,,,,,,,,,,,,,,,,,,,,,,,,,,,,,,,,,,,,,,,,,,,,,,,,,,,,,,,,,,,692.2700732999947,None,,,,,"[0.6997238194696018, 0.6997238194696018, 0.6997238194696018, 0.6997238194696018]","[1656.9123864107494, 2104.6263193408795, 5003.845489944197, 6989.258887725281]",None,"[11.0, 11.710482821000681, -3.513043538912708, 3.430336541101992]",True,693.2842913999921,696.4046415000048,696.4046415000048,697.6312927000108,None,1,,3.826316366699757,4.855049266683636,None,1,['space'],0,[0.46648639999330044],0,,,,,,gtyzck,001,fr,0,0,2022-04-27_10h50.08.615,Cluster,2022.1.1,36.50298484853313,
,,,,5,0,5,0,0,0,0,0,,,time,,,,,,,,,,,,,,,,,,,,,,,,,,,,,,,,,,,,,,,,,,,,,,,,,,,,,,,,,,,,,,,,,,,,,,,,,,,,,,,,,,,,,,,,,,,,,,,,,,,,,,,,,,,,,,,,,,,712.4497802999977,None,198.36813824025032,0.9988534582188637,0.00030445926482222435,0,"[0.5501578013830574, 0.5501578013830574, 0.5501578013830574, 0.5501578013830574]","[175.83905958909634, 2751.5043161558465, 1868.7573780831867, 2324.2784769835253]",None,"[6.3554415058480895, 8.0, 11.832745505899075, 11.0]",False,713.4295644999947,716.1161727999861,716.1161727999861,717.3421651000099,None,0,,3.239512866624864,4.252333366632229,None,1,['space'],0,[0.4505075999768451],,,,,,,gtyzck,001,fr,0,0,2022-04-27_10h50.08.615,Cluster,2022.1.1,36.50298484853313,
,,,,5,0,5,0,1,0,1,0,,,none,,,,,,,,,,,,,,,,,,,,,,,,,,,,,,,,,,,,,,,,,,,,,,,,,,,,,,,,,,,,,,,,,,,,,,,,,,,,,,,,,,,,,,,,,,,,,,,,,,,,,,,,,,,,,,,,,,,717.7303907999885,None,6062.8662660415985,2.0,0.00014960120558102564,1,"[0.7204439293060422, 0.46555495898430316, 0.5943148130758964, 0.5284325701187383]","[203.42850279994212, 1203.9724988533344, 3599.1186399792095, 248.6285095316712]",None,"[7.0, 11.0, 1.0, 10.756041600821511]",False,718.7626904000062,721.5723563999927,721.5723563999927,722.7968802000105,['space'],1,[0.13573819998418912],3.3280434333137237,4.346771633339813,None,1,None,1,,,,,,,,gtyzck,001,fr,0,0,2022-04-27_10h50.08.615,Cluster,2022.1.1,36.50298484853313,
,,,,5,0,5,0,2,0,2,0,,,time,,,,,,,,,,,,,,,,,,,,,,,,,,,,,,,,,,,,,,,,,,,,,,,,,,,,,,,,,,,,,,,,,,,,,,,,,,,,,,,,,,,,,,,,,,,,,,,,,,,,,,,,,,,,,,,,,,,723.1529341999849,None,5278.031643091578,5.0,0.00025339284978307064,0,"[0.5909944289840767, 0.5909944289840767, 0.5909944289840767, 0.5909944289840767]","[1046.5593456911677, 3729.9410556954003, 210.3045535683461, 155.02045822038988]",None,"[13.0, 0.1628529732957773, 7.0, 6.883672585631613]",False,724.1755944000033,726.9647277999902,726.9647277999902,728.1683006999956,None,0,,3.400623933324823,4.432554633327527,None,1,['space'],0,[0.43337440001778305],,,,,,,gtyzck,001,fr,0,0,2022-04-27_10h50.08.615,Cluster,2022.1.1,36.50298484853313,
,,,,5,0,5,0,3,0,3,0,,,frequency,,,,,,,,,,,,,,,,,,,,,,,,,,,,,,,,,,,,,,,,,,,,,,,,,,,,,,,,,,,,,,,,,,,,,,,,,,,,,,,,,,,,,,,,,,,,,,,,,,,,,,,,,,,,,,,,,,,728.646124299994,None,2679.195408284867,2.732089957422551,0.0001023933864259606,0,"[0.5291386208834428, 0.41889279362098003, 0.6339722304132964, 0.5668105851476689]","[6751.149383359587, 5358.390816569735, 4252.957609539768, 3375.574691679793]",Major_3rd,"[2.0, -3.0, -2.4800499017707835, 3.0]",False,729.6561028999859,732.2708250999858,732.2708250999858,733.4725615000061,None,0,,3.1663380666577723,4.175904466654174,None,1,['space'],0,[0.42374550001113676],,,,,,,gtyzck,001,fr,0,0,2022-04-27_10h50.08.615,Cluster,2022.1.1,36.50298484853313,
,,,,5,0,5,0,4,0,4,0,,,both,,,,,,,,,,,,,,,,,,,,,,,,,,,,,,,,,,,,,,,,,,,,,,,,,,,,,,,,,,,,,,,,,,,,,,,,,,,,,,,,,,,,,,,,,,,,,,,,,,,,,,,,,,,,,,,,,,,733.8780582000036,None,,,,,"[0.614730232561951, 0.614730232561951, 0.614730232561951, 0.614730232561951]","[3150.9603016684955, 2500.9188487893025, 1984.9806057276187, 1575.4801508342478]",Major_3rd,"[4.0, 10.0, 11.948081623836476, 10.987398880831252]",True,734.8879879000015,737.7683852000046,737.7683852000046,739.0059079999919,None,1,,3.475165766692953,4.492957266687881,None,1,['space'],0,[0.3983922000043094],0,,,,,,gtyzck,001,fr,0,0,2022-04-27_10h50.08.615,Cluster,2022.1.1,36.50298484853313,
,,,,5,0,5,0,5,0,5,0,,,time,,,,,,,,,,,,,,,,,,,,,,,,,,,,,,,,,,,,,,,,,,,,,,,,,,,,,,,,,,,,,,,,,,,,,,,,,,,,,,,,,,,,,,,,,,,,,,,,,,,,,,,,,,,,,,,,,,,739.4218746999977,None,1484.4038545600006,4.571815435531626,8.241917688844771e-05,0,"[0.6539297865021387, 0.6539297865021387, 0.6539297865021387, 0.6539297865021387]","[202.46015856942677, 1014.2559088255756, 131.46316677989776, 162.67417232073564]",None,"[6.998853458218864, 13.636276269819525, 8.0, 6.514133550478365]",False,740.4274627999985,743.4213086999953,743.4213086999953,744.6410443999921,None,0,,3.6363916666887235,4.662682466674596,None,1,['space'],0,[0.5369844000088051],,,,,,,gtyzck,001,fr,0,0,2022-04-27_10h50.08.615,Cluster,2022.1.1,36.50298484853313,
,,,,5,0,5,0,6,0,6,0,,,both,,,,,,,,,,,,,,,,,,,,,,,,,,,,,,,,,,,,,,,,,,,,,,,,,,,,,,,,,,,,,,,,,,,,,,,,,,,,,,,,,,,,,,,,,,,,,,,,,,,,,,,,,,,,,,,,,,,745.1409267999989,None,353.5533905932738,-3.0,6.273272561452762e-05,1,"[0.42381718803025586, 0.42381718803025586, 0.42381718803025586, 0.42381718803025586]","[222.72467953508485, 250.00000000000003, 280.6155120773433, 314.9802624737183]",Tone,"[8.0, 10.756041600821511, 14.0, 16.0]",False,746.1595271000115,748.4713994000049,748.4713994000049,749.6835909000074,['space'],1,[0.1502487999969162],2.707204066653503,3.7424519666528795,None,1,['space'],0,[-2.209164100000635],,,,,,,gtyzck,001,fr,0,0,2022-04-27_10h50.08.615,Cluster,2022.1.1,36.50298484853313,
,,,,5,0,5,0,7,0,7,0,,,both,,,,,,,,,,,,,,,,,,,,,,,,,,,,,,,,,,,,,,,,,,,,,,,,,,,,,,,,,,,,,,,,,,,,,,,,,,,,,,,,,,,,,,,,,,,,,,,,,,,,,,,,,,,,,,,,,,,749.9548300000024,None,2623.2079123533013,2.732089957422551,0.00010715866057131216,0,"[0.681777133879734, 0.681777133879734, 0.681777133879734, 0.681777133879734]","[520.5103749501169, 779.8843783754951, 1168.5062832655758, 1750.7812335916806]",Perfect_5th,"[12.073353274557459, 14.221370611295878, 11.770115939218243, 11.466217611438429]",False,750.9664415000007,754.0303458999842,754.0303458999842,755.2592003000027,None,0,,3.7568798666761722,4.777612866659183,None,1,['space'],0,[0.48763489999691956],,,,,,,gtyzck,001,fr,0,0,2022-04-27_10h50.08.615,Cluster,2022.1.1,36.50298484853313,
,,,,5,0,5,0,8,0,8,0,,,frequency,,,,,,,,,,,,,,,,,,,,,,,,,,,,,,,,,,,,,,,,,,,,,,,,,,,,,,,,,,,,,,,,,,,,,,,,,,,,,,,,,,,,,,,,,,,,,,,,,,,,,,,,,,,,,,,,,,,755.793488700001,None,164.93848884661182,6.0,0.0007844083667336284,1,"[0.7390497563170028, 0.44464749040971685, 0.4292903122716605, 0.4050897295129916]","[415.6189480713941, 329.8769776932237, 261.82353070515677, 207.809474035697]",Major_3rd,"[15.849944632408539, 16.44873585064281, 12.0, 7.0]",False,756.8087277000013,759.4442761999962,759.4442761999962,760.6613776999875,['space'],1,[0.1545808999799192],3.0285317666712217,4.0416446666640695,None,1,None,1,,,,,,,,gtyzck,001,fr,0,0,2022-04-27_10h50.08.615,Cluster,2022.1.1,36.50298484853313,
,,,,5,0,5,0,9,0,9,0,,,both,,,,,,,,,,,,,,,,,,,,,,,,,,,,,,,,,,,,,,,,,,,,,,,,,,,,,,,,,,,,,,,,,,,,,,,,,,,,,,,,,,,,,,,,,,,,,,,,,,,,,,,,,,,,,,,,,,,760.9060629000014,None,,,,,"[0.6575309183142236, 0.6575309183142236, 0.6575309183142236, 0.6575309183142236]","[5730.356008469081, 4548.186577998055, 3609.8980792308794, 2865.1780042345404]",Major_3rd,"[-2.0, -3.2484897532137467, 1.0, 7.0]",True,761.9109308999905,764.9133532000124,764.9133532000124,766.1468421999889,['space'],0,[0.2794772000052035],3.6552622666640673,4.687795166653814,None,1,None,1,,0,,,,,,gtyzck,001,fr,0,0,2022-04-27_10h50.08.615,Cluster,2022.1.1,36.50298484853313,
,,,,5,0,5,0,10,0,10,0,,,none,,,,,,,,,,,,,,,,,,,,,,,,,,,,,,,,,,,,,,,,,,,,,,,,,,,,,,,,,,,,,,,,,,,,,,,,,,,,,,,,,,,,,,,,,,,,,,,,,,,,,,,,,,,,,,,,,,,766.6395604999852,None,385.7871048440282,10.581933006357279,0.0002713376946473834,0,"[0.5341666013739903, 0.5891174629715674, 0.564216830346218, 0.668728369215413]","[148.50182066305774, 1690.8198966444722, 2084.4577563730895, 6782.087978040273]",None,"[7.0, 11.466217611438429, 11.710482821000681, 3.0]",False,767.6529863000032,770.3672575000091,770.3672575000091,771.5807831000129,None,0,,3.383563266659621,4.409068466658937,None,1,['space'],0,[0.5195869999879505],,,,,,,gtyzck,001,fr,0,0,2022-04-27_10h50.08.615,Cluster,2022.1.1,36.50298484853313,
,,,,5,0,5,0,11,0,11,0,,,frequency,,,,,,,,,,,,,,,,,,,,,,,,,,,,,,,,,,,,,,,,,,,,,,,,,,,,,,,,,,,,,,,,,,,,,,,,,,,,,,,,,,,,,,,,,,,,,,,,,,,,,,,,,,,,,,,,,,,772.109784100001,None,6796.156511721727,-3.0,0.00010268588213812363,0,"[0.6889517139761354, 0.47400790395924886, 0.5626008803218376, 0.6913757804415416]","[2697.0564990119, 3398.078255860864, 4281.310323749159, 5394.112998023799]",Major_3rd,"[8.0, 2.0, -2.4800499017707835, -3.0]",False,773.1131655999925,775.8661721000099,775.8661721000099,777.0789866000123,None,0,,3.4391365666524507,4.480540866643423,None,1,['space'],0,[0.3965872999979183],,,,,,,gtyzck,001,fr,0,0,2022-04-27_10h50.08.615,Cluster,2022.1.1,36.50298484853313,
,,,,5,0,5,0,12,0,12,0,,,none,,,,,,,,,,,,,,,,,,,,,,,,,,,,,,,,,,,,,,,,,,,,,,,,,,,,,,,,,,,,,,,,,,,,,,,,,,,,,,,,,,,,,,,,,,,,,,,,,,,,,,,,,,,,,,,,,,,777.6417957000085,None,189.4645708137998,9.0,0.0008562586084293591,0,"[0.5732658132400901, 0.6413956484739556, 0.4501645259003253, 0.7057715741329322]","[1853.21745534373, 4795.145759882186, 255.51279629136786, 194.1742810310571]",None,"[11.832745505899075, -3.513043538912708, 11.0, 6.492421165504038]",False,778.6638580999861,781.3644931000017,781.3644931000017,782.5749211999937,None,0,,3.391300133342156,4.420562833343865,None,1,['space'],0,[0.4828665999812074],,,,,,,gtyzck,001,fr,0,0,2022-04-27_10h50.08.615,Cluster,2022.1.1,36.50298484853313,
,,,,5,0,5,0,13,0,13,0,,,time,,,,,,,,,,,,,,,,,,,,,,,,,,,,,,,,,,,,,,,,,,,,,,,,,,,,,,,,,,,,,,,,,,,,,,,,,,,,,,,,,,,,,,,,,,,,,,,,,,,,,,,,,,,,,,,,,,,783.1304440000094,None,,,,,"[0.7233938346460353, 0.7233938346460353, 0.7233938346460353, 0.7233938346460353]","[3968.2320080130576, 1844.1527676078133, 3339.51849376572, 376.65320303370754]",None,"[-1.0000000000000009, 11.832745505899075, 3.0, 16.58193300635728]",True,784.1394977000018,787.3299245999951,787.3299245999951,788.5674494999985,None,1,,3.91744206668227,4.938199666677974,None,1,['space'],0,[0.437217700004112],0,,,,,,gtyzck,001,fr,0,0,2022-04-27_10h50.08.615,Cluster,2022.1.1,36.50298484853313,
,,,,5,0,5,0,14,0,14,0,,,none,,,,,,,,,,,,,,,,,,,,,,,,,,,,,,,,,,,,,,,,,,,,,,,,,,,,,,,,,,,,,,,,,,,,,,,,,,,,,,,,,,,,,,,,,,,,,,,,,,,,,,,,,,,,,,,,,,,789.1140663000115,None,187.56689629923807,0.49242116550403814,0.0003288477604989105,0,"[0.6336541961199255, 0.7888918834019675, 0.48738173826529957, 0.7712586361177847]","[4293.023283410098, 2615.2826206497434, 2996.4427653736593, 3371.37080165933]",None,"[-2.4800499017707835, 9.0, 5.4169882763410016, 3.0]",False,790.1179470999923,793.0583093999885,793.0583093999885,794.2769221999915,None,0,,3.724497966642957,4.753028166654985,None,1,['space'],0,[0.45219310000538826],,,,,,,gtyzck,001,fr,0,0,2022-04-27_10h50.08.615,Cluster,2022.1.1,36.50298484853313,
,,,,5,0,5,0,15,0,15,0,,,both,,,,,,,,,,,,,,,,,,,,,,,,,,,,,,,,,,,,,,,,,,,,,,,,,,,,,,,,,,,,,,,,,,,,,,,,,,,,,,,,,,,,,,,,,,,,,,,,,,,,,,,,,,,,,,,,,,,794.9237076999852,None,189.4645708137998,12.0,0.0012094974323129033,0,"[0.6411375070494401, 0.6411375070494401, 0.6411375070494401, 0.6411375070494401]","[954.8416039104168, 637.2803136596312, 425.333580475428, 283.8761072677194]",Perfect_5th,"[14.0, 12.173910035084843, 15.0, 14.0]",False,795.9500902,798.90580149999,798.90580149999,800.1437330000044,None,0,,3.5902856333414093,4.618724733329145,None,1,['space'],0,[0.38117390000843443],,,,,,,gtyzck,001,fr,0,0,2022-04-27_10h50.08.615,Cluster,2022.1.1,36.50298484853313,
,,,,5,0,5,0,16,0,16,0,,,none,,,,,,,,,,,,,,,,,,,,,,,,,,,,,,,,,,,,,,,,,,,,,,,,,,,,,,,,,,,,,,,,,,,,,,,,,,,,,,,,,,,,,,,,,,,,,,,,,,,,,,,,,,,,,,,,,,,800.6130994000123,None,2297.3967099940687,7.0,0.00018224143068270158,0,"[0.4028271224291421, 0.7458165057596773, 0.6771014478018893, 0.6540354892051119]","[463.0503532143133, 1138.7994950751288, 1804.270698578194, 138.3046430167786]",None,"[13.667846502120748, 12.0, 11.832745505899075, 7.914518015011773]",False,801.6336848000064,804.4704471000005,804.4704471000005,805.6855981000117,None,0,,3.494124033342814,4.505802933330415,None,1,['space'],0,[0.4002937000186648],,"{'estimation': [[125.0, 8.324659172791534], [132.39195715909017, 9.0], [133.9716828170366, 9.138640969608954], [143.5872943746293, 9.904668313011754], [145.18753874057506, 9.999999999999998], [153.89305166811442, 10.509004954540735], [164.93848884661162, 10.836377548268219], [176.77669529663666, 10.849474621140768], [189.46457081379947, 10.572600296085955], [203.0630990890585, 10.099117183604376], [205.73141818808674, 10.0], [217.6376408240306, 9.582692097869007], [233.25824788420132, 9.197855329168377], [249.99999999999937, 9.077509113847269], [267.94336563407256, 9.295914678850684], [287.1745887492579, 9.824094027828636], [291.70126273161924, 10.0], [307.78610333622805, 10.561832276383633], [319.9143458330275, 11.0], [329.87697769322244, 11.333214531287862], [353.55339059327247, 11.941135918025848], [358.23648612069576, 12.0], [378.929141627598, 12.258795365583724], [406.12619817811606, 12.190374623844178], [418.60343165863725, 12.0], [435.2752816480601, 11.751832464117363], [466.5164957684015, 11.043436964373416], [468.18314932759887, 11.0], [499.9999999999975, 10.194954710073267], [508.06268425988816, 10.0], [535.8867312681438, 9.340360604899224], [553.1080102978497, 9.0], [574.3491774985143, 8.585853833871756], [614.6604243948029, 8.0], [615.5722066724546, 7.9867861568217835], [659.7539553864424, 7.53538894931194], [707.1067811865431, 7.180159032126729], [734.0102924783881, 7.0], [757.8582832551941, 6.846355648150131], [812.2523963562301, 6.4889602609235775], [870.5505632961181, 6.070425350974286], [879.503833403563, 6.0], [933.0329915368008, 5.600873755154656], [999.9999999999926, 5.129661313908846], [1020.773892354348, 5.0], [1071.773462536285, 4.708780318337032], [1148.698354997026, 4.416660565417538], [1231.1444133449063, 4.294036297886651], [1319.5079107728832, 4.36361875469777], [1414.2135623730828, 4.6167217939526894], [1509.7784563201567, 5.0], [1515.7165665103846, 5.024542655704494], [1624.5047927124563, 5.517335448770522], [1735.5999641666406, 6.0], [1741.1011265922318, 6.024419966512213], [1866.065983073597, 6.465212498763194], [1999.9999999999802, 6.759946398320027], [2143.5469250725673, 6.849777265504871], [2297.396709994046, 6.688065407398895], [2462.2888266898062, 6.255959431733096], [2524.6013693150267, 6.0], [2639.01582154576, 5.553789305552529], [2749.297412633338, 5.0], [2828.427124746159, 4.623007683340308], [2940.6448883617186, 4.0], [3031.4331330207656, 3.5224847974740268], [3124.0353479356486, 3.0], [3249.0095854249043, 2.3254409931936966], [3310.249556416815, 2.0], [3482.2022531844555, 1.1107062382699415], [3505.870576314108, 1.0], [3723.090049773619, 0.0], [3732.1319661471844, -0.04042092129058654], [3987.5696670915363, -1.0], [3999.9999999999504, -1.045682314753203], [4287.093850145118, -1.8319676816154677], [4385.805955666103, -2.0], [4594.7934199880865, -2.3402895923218257], [4924.577653379601, -2.5004828063501843], [5278.0316430915, -2.276483281473733], [5438.238974276658, -2.0], [5656.854249492303, -1.6415489203568465], [5908.505025477006, -1.0], [6062.866266041508, -0.6214386569904724], [6260.196689147784, 0.0], [6498.019170849792, 0.7235977546021457], [6578.935978962603, 1.0], [6870.440043668253, 2.0], [6964.404506368902, 2.301083071050495], [7171.94663663207, 3.0], [7464.2639322943505, 3.9630385352873176], [7476.890696281556, 4.0], [7806.186772494174, 5.0], [7999.999999999882, 5.577061105983445]], 'plus_line': [[125.0, 5.595746384107591], [128.93319312320062, 6.0], [133.9716828170366, 6.475156003131644], [140.50869998621832, 7.0], [143.5872943746293, 7.231531376787624], [153.89305166811442, 7.798915898950282], [159.96435887842807, 8.0], [164.93848884661162, 8.143959168616917], [176.77669529663666, 8.193218130288589], [187.39603159938778, 8.0], [189.46457081379947, 7.959009650069201], [203.0630990890585, 7.481533082073865], [216.7192794419294, 7.0], [217.6376408240306, 6.9647951163746535], [233.25824788420132, 6.53484428930039], [249.99999999999937, 6.428353859192571], [267.94336563407256, 6.723283923955384], [275.1379434233031, 7.0], [287.1745887492579, 7.39484662735951], [300.34802326913496, 8.0], [307.78610333622805, 8.300197572255662], [324.4176664562782, 9.0], [329.87697769322244, 9.204086150395199], [353.55339059327247, 9.861310551402799], [364.9148386460229, 10.0], [378.929141627598, 10.144272484104679], [406.12619817811606, 10.008025055751869], [406.5906350391325, 10.0], [435.2752816480601, 9.477748644266327], [454.96923003594134, 9.0], [466.5164957684015, 8.707586588473074], [492.6991355981889, 8.0], [499.9999999999975, 7.79922331337843], [531.149370298934, 7.0], [535.8867312681438, 6.876175316121021], [574.3491774985143, 6.0546719227795744], [577.7850375325238, 6.0], [615.5722066724546, 5.37995615749435], [651.9370837480403, 5.0], [659.7539553864432, 4.9114109269469015], [707.1067811865431, 4.538078768013819], [757.8582832551941, 4.215535715721199], [789.5775047134018, 4.0], [812.2523963562301, 3.8326446965707017], [870.5505632961181, 3.383869207070728], [924.1229120994665, 3.0], [933.0329915368008, 2.931240541775382], [999.9999999999926, 2.4992962692170444], [1071.773462536285, 2.203909182502618], [1148.698354997026, 2.0467740622236645], [1231.1444133449063, 2.0150652577804924], [1319.5079107728832, 2.0897442304266547], [1414.2135623730828, 2.265071499647737], [1515.7165665103864, 2.5505550223534192], [1624.5047927124563, 2.952191332121197], [1636.854772357284, 3.0], [1741.1011265922318, 3.3553172064929253], [1866.065983073597, 3.7276757548245816], [1999.9999999999802, 3.991359596095178], [2021.9128540531115, 4.0], [2143.5469250725646, 4.04023337468257], [2177.2475212951913, 4.0], [2297.396709994046, 3.8428197403280056], [2462.2888266898062, 3.3998258930414935], [2567.2373560313467, 3.0], [2639.01582154576, 2.722577649139091], [2793.3372762618665, 2.0], [2828.427124746159, 1.8390940081723806], [2986.6278201972254, 1.0], [3031.433133020758, 0.7753005879630643], [3170.232039790402, 0.0], [3249.0095854249043, -0.40942957003156005], [3357.562042783309, -1.0], [3482.2022531844555, -1.6363117244722862], [3556.85355482009, -2.0], [3732.1319661471844, -2.8191050369914183], [3777.6294473760677, -3.0], [3999.9999999999504, -3.8647066521650055], [4047.6237731010497, -4.0], [4287.093850145118, -4.679180164136928], [4496.462636416833, -5.0], [4594.793419988081, -5.159456827389356], [4924.577653379601, -5.281725913958773], [5263.883842894404, -5.0], [5278.031643091506, -4.99003664201809], [5656.854249492303, -4.350216327751644], [5790.336284781007, -4.0], [6062.866266041501, -3.310233099434979], [6162.015631011163, -3.0], [6471.617273544169, -2.0], [6498.019170849792, -1.9196325025192174], [6771.782990839451, -1.0], [6964.404506368894, -0.3261631642649455], [7066.280634380754, 0.0], [7356.667334904987, 1.0], [7464.2639322943505, 1.3564916137784508], [7698.450841088272, 2.0], [7999.999999999872, 2.9012267192206944]], 'minus_line': [[125.0, 11.163497009945972], [133.9716828170366, 11.939853940502001], [134.6682555666494, 12.0], [143.5872943746293, 12.781297879571005], [147.05248536491618, 13.0], [153.89305166811442, 13.45278365718124], [164.93848884661162, 13.782604801618902], [176.77669529663666, 13.749346476547506], [189.46457081379947, 13.402553668657546], [198.95199979056792, 13.0], [203.0630990890585, 12.848969116384852], [217.6376408240306, 12.30295243426825], [228.05626795190807, 12.0], [233.25824788420132, 11.870178554319963], [249.99999999999937, 11.708639162438784], [267.94336563407256, 11.830392277644535], [275.8846304064719, 12.0], [287.1745887492579, 12.24727678643887], [307.78610333622805, 12.841907775680903], [312.7330649646435, 13.000000000000002], [329.87697769322244, 13.542935511144517], [348.16267245968265, 14.0], [353.55339059327247, 14.146119764649683], [378.929141627598, 14.541611940715228], [406.12619817811606, 14.568116405825132], [435.2752816480601, 14.202483141338934], [444.24278076030225, 14.0], [466.5164957684015, 13.545296218947684], [488.2893950617255, 13.0], [499.9999999999975, 12.723401335660917], [531.564126701537, 12.0], [535.8867312681438, 11.905445611476653], [574.3491774985143, 11.223106717599272], [589.9316207302337, 11.0], [615.5722066724546, 10.670910453352116], [659.7539553864432, 10.238175779235632], [688.8733094215737, 10.0], [707.1067811865431, 9.871105569194908], [757.8582832551941, 9.558597638723313], [812.2523963562301, 9.210961569127996], [840.4693146759756, 9.0], [870.5505632961181, 8.803879056152189], [933.0329915368008, 8.329076189354335], [970.2015543463177, 8.0], [999.9999999999926, 7.77138293292147], [1071.773462536285, 7.229841772500638], [1107.4640404589318, 7.0], [1148.698354997026, 6.783345348321271], [1231.1444133449063, 6.568838976562201], [1319.5079107728832, 6.624525729318455], [1414.2135623730846, 6.938365629896728], [1426.4764208547936, 7.0], [1515.7165665103846, 7.490182250746521], [1607.9745459652036, 8.0], [1624.5047927124563, 8.101439124977087], [1741.101126592234, 8.728469413634953], [1807.1240376013857, 9.0], [1866.065983073597, 9.264230014975354], [1999.9999999999802, 9.634907063127345], [2143.5469250725646, 9.774459432133018], [2297.396709994046, 9.648620920061566], [2462.2888266898062, 9.209631220651321], [2509.437233093211, 9.0], [2639.01582154576, 8.478636748104899], [2727.425617605412, 8.0], [2828.427124746159, 7.485635765608274], [2911.1095265291437, 7.0], [3031.4331330207615, 6.3146921917933945], [3085.6708218666718, 6.0], [3249.0095854249043, 5.053241357007085], [3259.0229464784934, 5.0], [3449.3747832927274, 4.0], [3482.2022531844555, 3.8323399321267475], [3666.7243970412355, 3.0], [3732.1319661471844, 2.7092507520189426], [3924.1846151469895, 2.0], [3999.9999999999504, 1.7284086799618814], [4261.551327358083, 1.0], [4287.093850145124, 0.9328565496995844], [4594.793419988081, 0.4161806012593645], [4924.577653379601, 0.19697232747747762], [5278.031643091506, 0.3803712380129217], [5656.854249492303, 0.9664226078083729], [5669.826173352992, 1.0], [6062.866266041508, 1.9815509375591427], [6068.622498214367, 2.0], [6377.010748568838, 3.0], [6498.019170849792, 3.3523969471925534], [6678.716233238596, 4.0], [6964.404506368894, 4.913356260483669], [6989.326025994706, 5.0], [7262.318492273799, 6.0], [7464.2639322943505, 6.635150179118478], [7574.266994215318, 7.0], [7870.196295723986, 8.0], [7999.999999999882, 8.395099905531442]]}",,,,,gtyzck,001,fr,0,0,2022-04-27_10h50.08.615,Cluster,2022.1.1,36.50298484853313,
,,,,5,0,5,0,17,0,17,0,,,frequency,,,,,,,,,,,,,,,,,,,,,,,,,,,,,,,,,,,,,,,,,,,,,,,,,,,,,,,,,,,,,,,,,,,,,,,,,,,,,,,,,,,,,,,,,,,,,,,,,,,,,,,,,,,,,,,,,,,806.1873757999856,None,,,,,"[0.7955615390328596, 0.557937343032595, 0.5612061277871516, 0.523499199647841]","[210.0720561303611, 187.1529255236441, 166.7343014452289, 148.54337542757935]",Tone,"[7.0, 6.492421165504038, 6.514133550478365, 7.0]",True,807.1914660999901,810.14367640001,810.14367640001,811.3758611000085,None,1,,3.476892566657625,4.504152266657911,['space'],0,None,1,,0,,[-0.06898240000009537],,,,gtyzck,001,fr,0,0,2022-04-27_10h50.08.615,Cluster,2022.1.1,36.50298484853313,
,,,,5,0,5,0,18,0,18,0,,,time,,,,,,,,,,,,,,,,,,,,,,,,,,,,,,,,,,,,,,,,,,,,,,,,,,,,,,,,,,,,,,,,,,,,,,,,,,,,,,,,,,,,,,,,,,,,,,,,,,,,,,,,,,,,,,,,,,,811.7361274999857,None,2639.015821545789,7.0,0.00017295588613885568,1,"[0.6513406573761336, 0.6513406573761336, 0.6513406573761336, 0.6513406573761336]","[779.40874790305, 360.741233612579, 542.5941715437232, 324.95417910000447]",None,"[14.221370611295878, 16.808184194933794, 12.073353274557459, 16.44873585064281]",False,812.8157502000104,815.7958080999961,815.7958080999961,817.0102785000054,['space'],1,[0.19964530001743697],3.638316833326826,4.671719633333851,None,1,None,1,,,,,,,,gtyzck,001,fr,0,0,2022-04-27_10h50.08.615,Cluster,2022.1.1,36.50298484853313,
