frequencies,training_trials.thisRepN,training_trials.thisTrialN,training_trials.thisN,training_trials.thisIndex,frequencies.thisRepN,frequencies.thisTrialN,frequencies.thisN,frequencies.thisIndex,trials.thisRepN,trials.thisTrialN,trials.thisN,trials.thisIndex,tFrequency,tLevel,tCorrect,Tprobe.started,Tprobe.stopped,tTriangle_cue.started,tTriangle_cue.stopped,Tfeedback.keys,Tfeedback.corr,Tfeedback.rt,Tfeedback.started,Tfeedback.stopped,reversals_nTrials.routineEndVal,track_dir.routineEndVal,step_up.routineEndVal,Correct,Frequency,Level,Psychopy_Level,Direction,Reversals,Track_dir,Step,probe.started,probe.stopped,cross_cue.started,cross_cue.stopped,circle_cue.started,circle_cue.stopped,triangle_cue.started,triangle_cue.stopped,feedback.keys,feedback.corr,feedback.rt,feedback.started,feedback.stopped,memo.started,memo.stopped,participant,session,skip_training,language (english or french),date,expName,psychopyVersion,frameRate,
5000,0,0,0,4,,,,,,,,,5000,30,up,74.39279186664886,None,75.37144519999856,75.70201069998438,up,1,9.780529000010574,72.91863870000816,None,,,,,,,,,,,,,,,,,,,,,,,,,,,ofgjwt,001,0,fr,2022-04-27_16h09.07.986,3-AFC_adaptive_staircase_mess,2022.1.1,None,
200,0,1,1,0,,,,,,,,,200,30,right,89.11588796665116,None,89.06877809998696,89.40691069999593,right,1,3.6569190999725834,86.64328590000514,None,,,,,,,,,,,,,,,,,,,,,,,,,,,ofgjwt,001,0,fr,2022-04-27_16h09.07.986,3-AFC_adaptive_staircase_mess,2022.1.1,None,
450,0,2,2,1,,,,,,,,,450,30,up,95.14747486665534,None,96.10407790000318,96.42616790000466,up,1,2.8398513999709394,93.66740639999625,None,,,,,,,,,,,,,,,,,,,,,,,,,,,ofgjwt,001,0,fr,2022-04-27_16h09.07.986,3-AFC_adaptive_staircase_mess,2022.1.1,None,
850,0,3,3,2,,,,,,,,,850,30,right,101.74509406666427,None,101.7284273999976,102.06347989998176,right,1,3.441308500012383,99.29068800000823,None,,,,,,,,,,,,,,,,,,,,,,,,,,,ofgjwt,001,0,fr,2022-04-27_16h09.07.986,3-AFC_adaptive_staircase_mess,2022.1.1,None,
1300,0,4,4,3,,,,,,,,,1300,30,right,107.46081426667321,None,107.41272870000103,107.73683619999792,right,1,3.526219899998978,104.98194150000927,None,,,,,,,,,,,,,,,,,,,,,,,,,,,ofgjwt,001,0,fr,2022-04-27_16h09.07.986,3-AFC_adaptive_staircase_mess,2022.1.1,None,
,,,,,0,0,0,0,0,0,0,0,,,,,,,,,,,,,[],[],5,right,1000,50,0.013930605843148852,0,0,-1,5,139.76640936665743,None,137.71520539998892,138.041490100004,138.71602799999528,139.04536059999373,139.72019039999577,140.0601970999851,right,1,3.2628029999905266,137.77224510000087,None,140.27857799999765,None,ofgjwt,001,0,fr,2022-04-27_16h09.07.986,3-AFC_adaptive_staircase_mess,2022.1.1,None,
,,,,,0,0,0,0,1,0,1,0,,,,,,,,,,,,,,,,left,1000,50,0.013930605843148852,0,0,-1,5,142.6218468666523,None,142.57891219999874,142.91525540000293,143.56949419999728,143.90452310000546,144.57821249999688,144.91719889998785,left,1,3.0251871999935247,142.6343782999902,None,145.12878470000578,None,ofgjwt,001,0,fr,2022-04-27_16h09.07.986,3-AFC_adaptive_staircase_mess,2022.1.1,None,
,,,,,0,0,0,0,2,0,2,0,,,,,,,,,,,,,,,,right,1000,40,0.004405244365040069,-1,0,-1,-10,149.2101136666645,None,147.18252639999264,147.51522599998862,148.1650013999897,148.49952409998514,149.16375559999142,149.50102229998447,right,1,2.8954437999927904,147.21169930000906,None,149.7139681999979,None,ofgjwt,001,0,fr,2022-04-27_16h09.07.986,3-AFC_adaptive_staircase_mess,2022.1.1,None,
,,,,,0,0,0,0,3,0,3,0,,,,,,,,,,,,,,,,up,1000,40,0.004405244365040069,-1,0,-1,-10,152.66904876666766,None,151.64280649999273,151.97532800000045,152.62377629999537,152.9542211999942,153.6365400000068,153.97687290000613,up,1,2.8842639999929816,151.67112069998984,None,154.1965082999959,None,ofgjwt,001,0,fr,2022-04-27_16h09.07.986,3-AFC_adaptive_staircase_mess,2022.1.1,None,
,,,,,0,0,0,0,4,0,4,0,,,,,,,,,,,,,,,,right,1000,30,0.0013930605843148849,-1,0,-1,-10,158.12946576666243,None,156.09130020000157,156.42882919998374,157.07896680000704,157.40385269999388,158.08430399998906,158.40220779998344,right,1,3.075650799990399,156.12026470000274,None,158.64284960000077,None,ofgjwt,001,0,fr,2022-04-27_16h09.07.986,3-AFC_adaptive_staircase_mess,2022.1.1,None,
,,,,,0,0,0,0,5,0,5,0,,,,,,,,,,,,,,,,right,1000,30,0.0013930605843148849,-1,0,-1,-10,162.76206246664904,None,160.7178017999977,161.05081570000038,161.70634179998888,162.03353590000188,162.71479209998506,163.04750789998798,right,1,2.8972461000084877,160.77752589999,None,163.25230100000044,None,ofgjwt,001,0,fr,2022-04-27_16h09.07.986,3-AFC_adaptive_staircase_mess,2022.1.1,None,
,,,,,0,0,0,0,6,0,6,0,,,,,,,,,,,,,,,,up,1000,20,0.0004405244365040069,-1,0,-1,-10,166.23080746666918,None,165.20441380000557,165.5346903000027,166.18212889999268,166.5220871999918,167.19625770000857,167.5201129000052,up,1,2.6818108999868855,165.23419089999516,None,167.7562911999994,None,ofgjwt,001,0,fr,2022-04-27_16h09.07.986,3-AFC_adaptive_staircase_mess,2022.1.1,None,
,,,,,0,0,0,0,7,0,7,0,,,,,,,,,,,,,,,,up,1000,20,0.0004405244365040069,-1,0,-1,-10,170.45138266665552,None,169.40806640000665,169.74969540000893,170.43471599998884,170.76653200000874,171.4196893000044,171.7525015999854,up,1,2.8492781999811996,169.466872399993,None,171.98904149999726,None,ofgjwt,001,0,fr,2022-04-27_16h09.07.986,3-AFC_adaptive_staircase_mess,2022.1.1,None,
,,,,,0,0,0,0,8,0,8,0,,,,,,,,,,,,,,,,up,1000,10,0.00013930605843148847,-1,0,-1,-10,174.87806256665888,None,173.8497831999848,174.18387889998849,174.831981299998,175.16855489998125,175.86410079998313,176.17763799999375,up,1,3.058215299999574,173.88142560000415,None,176.38727020000806,None,ofgjwt,001,0,fr,2022-04-27_16h09.07.986,3-AFC_adaptive_staircase_mess,2022.1.1,None,
,,,,,0,0,0,0,9,0,9,0,,,,,,,,,,,,,,,,up,1000,10,0.00013930605843148847,-1,0,-1,-10,179.5143235666658,None,178.4598955999827,178.80101890000515,179.4667472000001,179.77784940000856,180.46222590000252,180.79545579999103,up,1,3.1049067999992985,178.52274759998545,None,181.0327580999874,None,ofgjwt,001,0,fr,2022-04-27_16h09.07.986,3-AFC_adaptive_staircase_mess,2022.1.1,None,
,,,,,0,0,0,0,10,0,10,0,,,,,,,,,,,,,,,,up,1000,0,4.405244365040069e-05,-1,0,-1,-10,184.15976956667535,None,183.14274519999162,183.46570689999498,184.14310290000867,184.46569099999033,185.1422845000052,185.47349460000987,up,1,3.1561714000126813,183.175591599982,None,185.68934449998778,None,ofgjwt,001,0,fr,2022-04-27_16h09.07.986,3-AFC_adaptive_staircase_mess,2022.1.1,None,
,,,,,0,0,0,0,11,0,11,0,,,,,,,,,,,,,,,,up,1000,0,4.405244365040069e-05,-1,0,-1,-10,188.88616306666907,None,187.8304027999984,188.14505689998623,188.83717799998703,189.17916549998336,189.8396972999908,190.17214879998937,up,1,3.308356099994853,187.88721379998606,None,190.37817909999285,None,ofgjwt,001,0,fr,2022-04-27_16h09.07.986,3-AFC_adaptive_staircase_mess,2022.1.1,None,
,,,,,0,0,0,0,12,0,12,0,,,,,,,,,,,,,,,,right,1000,-10,1.3930605843148848e-05,-1,0,-1,-10,194.76236876665305,None,192.7366955000034,193.07407060000696,193.741352299985,194.0790100999875,194.7150932000077,195.04734399999143,left,0,3.4859676999913063,192.76562749998993,None,195.28565179998986,None,ofgjwt,001,0,fr,2022-04-27_16h09.07.986,3-AFC_adaptive_staircase_mess,2022.1.1,None,
,,,,,0,0,0,0,13,0,13,0,,,,,,,,,,,,,,,,up,1000,-5,2.4772509540239506e-05,1,1,1,5,198.7962410666553,None,197.75146010000026,198.08779679998406,198.7472512999957,199.09080469998298,199.7531822999881,200.06476259999909,up,1,3.1257819999882486,197.78151949998573,None,200.3047210999939,None,ofgjwt,001,0,fr,2022-04-27_16h09.07.986,3-AFC_adaptive_staircase_mess,2022.1.1,None,
,,,,,0,0,0,0,14,0,14,0,,,,,,,,,,,,,,,,left,1000,-5,2.4772509540239506e-05,1,1,1,5,202.46300776667002,None,202.41659159999108,202.75781700000516,203.4157167999947,203.75167649998912,204.41347149998182,204.75115759999608,left,1,2.8620566000172403,202.4780802000023,None,204.95954119999078,None,ofgjwt,001,0,fr,2022-04-27_16h09.07.986,3-AFC_adaptive_staircase_mess,2022.1.1,None,
,,,,,0,0,0,0,15,0,15,0,,,,,,,,,,,,,,,,right,1000,-15,7.833755350540743e-06,-1,2,-1,-5.0,208.90767056667053,None,206.8879595999897,207.21319039998343,207.87213420000626,208.18825529998867,208.8588264999853,209.1953252000094,up,0,3.173859000002267,206.91768059998867,None,209.408397399995,None,ofgjwt,001,0,fr,2022-04-27_16h09.07.986,3-AFC_adaptive_staircase_mess,2022.1.1,None,
,,,,,0,0,0,0,16,0,16,0,,,,,,,,,,,,,,,,right,1000,-12.5,1.0446480654270193e-05,1,3,1,2.5,213.6317930666594,None,211.58618789998582,211.90925619998598,212.58050260000164,212.9061534999928,213.58472419998725,213.91688279999653,up,0,4.92636539999512,211.6452541000035,None,214.15183190000243,None,ofgjwt,001,0,fr,2022-04-27_16h09.07.986,3-AFC_adaptive_staircase_mess,2022.1.1,None,
,,,,,0,0,0,0,17,0,17,0,,,,,,,,,,,,,,,,up,1000,-10.0,1.3930605843148848e-05,1,3,1,2.5,219.1263347666575,None,218.1071310999978,218.43870319999405,219.1096680999908,219.4416399000038,220.09485689998837,220.4203422999999,up,1,3.6976267999853007,218.13761179998983,None,220.65802440000698,None,ofgjwt,001,0,fr,2022-04-27_16h09.07.986,3-AFC_adaptive_staircase_mess,2022.1.1,None,
,,,,,0,0,0,0,18,0,18,0,,,,,,,,,,,,,,,,right,1000,-10.0,1.3930605843148848e-05,1,3,1,2.5,225.38532326664816,None,223.36200100000133,223.68970829999307,224.36930240000947,224.69337709998945,225.36865659998148,225.69906980000087,right,1,2.989612200006377,223.4219458999869,None,225.90790639998158,None,ofgjwt,001,0,fr,2022-04-27_16h09.07.986,3-AFC_adaptive_staircase_mess,2022.1.1,None,
,,,,,0,0,0,0,19,0,19,0,,,,,,,,,,,,,,,,up,1000,-15.0,7.833755350540743e-06,-1,4,-1,-5.0,228.96030446666217,None,227.93305140000302,228.26083379998454,228.94363779999549,229.2815033000079,229.92652599999565,230.25669680000283,left,0,2.962870799994562,227.99325609998778,None,230.48791349999374,None,ofgjwt,001,0,fr,2022-04-27_16h09.07.986,3-AFC_adaptive_staircase_mess,2022.1.1,None,
,,,,,0,0,0,0,20,0,20,0,,,,,,,,,,,,,,,,right,1000,-12.5,1.0446480654270193e-05,1,5,1,2.5,234.50450066666625,None,232.47867700000643,232.80368250000174,233.45801189998747,233.78827769999043,234.45994390000124,234.78996329999063,left,0,3.122299699985888,232.50504550000187,None,235.02447529998608,None,ofgjwt,001,0,fr,2022-04-27_16h09.07.986,3-AFC_adaptive_staircase_mess,2022.1.1,None,
,,,,,0,0,0,0,21,0,21,0,,,,,,,,,,,,,,,,right,1000,-10.0,1.3930605843148848e-05,1,5,1,2.5,239.16066426664864,None,237.13592120000976,237.4585121999844,238.14842129999306,238.47358309998526,239.14399759998196,239.48210419999668,right,1,4.286831099976553,237.19652040000074,None,239.69061809999403,None,ofgjwt,001,0,fr,2022-04-27_16h09.07.986,3-AFC_adaptive_staircase_mess,2022.1.1,None,
,,,,,0,0,0,0,22,0,22,0,,,,,,,,,,,,,,,,left,1000,-10.0,1.3930605843148848e-05,1,5,1,2.5,243.03563026665168,None,243.018963599985,243.35703449998982,244.00863120000577,244.33473820000654,245.0209355999832,245.35227129998384,left,1,3.024818299978506,243.0507638999843,None,245.57363850000547,None,ofgjwt,001,0,fr,2022-04-27_16h09.07.986,3-AFC_adaptive_staircase_mess,2022.1.1,None,
,,,,,0,0,0,0,23,0,23,0,,,,,,,,,,,,,,,,left,1000,-15.0,7.833755350540743e-06,-1,6,-1,-5.0,247.60305236667435,None,247.58638570000767,247.91362199999276,248.58320890000323,248.91358649998438,249.5845466000028,249.90877939999336,left,1,6.379988100001356,247.6158543000056,None,250.14164889999665,None,ofgjwt,001,0,fr,2022-04-27_16h09.07.986,3-AFC_adaptive_staircase_mess,2022.1.1,None,
,,,,,1,0,1,0,0,0,0,0,,,,,,,,,,,,,[],[],5,left,1500,50,0.01527460556607757,0,0,-1,5,255.5403405666623,None,255.52367389999563,255.83811429998605,256.5259735999862,256.84851670000353,257.51476560000447,257.8366607000062,left,1,2.951448800013168,255.55573140000342,None,258.0694286999933,None,ofgjwt,001,0,fr,2022-04-27_16h09.07.986,3-AFC_adaptive_staircase_mess,2022.1.1,None,
,,,,,1,0,1,0,1,0,1,0,,,,,,,,,,,,,,,,right,1500,50,0.01527460556607757,0,0,-1,5,262.0835883666625,None,260.02134119998664,260.34850530000404,261.02102059999015,261.3421403999964,262.02493179999874,262.34359410000616,right,1,3.1001227000087965,260.0790890000062,None,262.5848671999993,None,ofgjwt,001,0,fr,2022-04-27_16h09.07.986,3-AFC_adaptive_staircase_mess,2022.1.1,None,
,,,,,1,0,1,0,2,0,2,0,,,,,,,,,,,,,,,,right,1500,40,0.004830254394949068,-1,0,-1,-10,266.7260328666637,None,264.69180149998283,265.021697499993,265.6929525999876,266.01672939999844,266.709366199997,267.03109390000463,right,1,2.477386199985631,264.7503977000015,None,267.24413479998475,None,ofgjwt,001,0,fr,2022-04-27_16h09.07.986,3-AFC_adaptive_staircase_mess,2022.1.1,None,
,,,,,1,0,1,0,3,0,3,0,,,,,,,,,,,,,,,,right,1500,40,0.004830254394949068,-1,0,-1,-10,270.80013286666167,None,268.74879059998784,269.08276099999784,269.73588970000856,270.082307500008,270.74988839999423,271.06483950000256,right,1,2.573507699999027,268.8133417000063,None,271.3187857999874,None,ofgjwt,001,0,fr,2022-04-27_16h09.07.986,3-AFC_adaptive_staircase_mess,2022.1.1,None,
,,,,,1,0,1,0,4,0,4,0,,,,,,,,,,,,,,,,left,1500,30,0.001527460556607757,-1,0,-1,-10,272.9335181666577,None,272.8837847999821,273.22066880000057,273.8890904999862,274.2214219000016,None,None,left,1,1.6217600000090897,272.94958729998325,None,None,None,ofgjwt,001,0,fr,2022-04-27_16h09.07.986,3-AFC_adaptive_staircase_mess,2022.1.1,None,
,,,,,1,0,1,0,5,0,5,0,,,,,,,,,,,,,,,,right,1500,30,0.001527460556607757,-1,0,-1,-10,278.1289237666681,None,276.0730072000006,276.396617099992,277.09398689999944,277.4194048999925,278.08436099998653,278.40466519998154,right,1,2.776661999989301,276.1313405999972,None,278.6410615000059,None,ofgjwt,001,0,fr,2022-04-27_16h09.07.986,3-AFC_adaptive_staircase_mess,2022.1.1,None,
,,,,,1,0,1,0,6,0,6,0,,,,,,,,,,,,,,,,up,1500,20,0.00048302543949490677,-1,0,-1,-10,281.4626022666673,None,280.4305417999858,280.74240260000806,281.44593560000067,281.77340169998934,282.4349688999937,282.7579182999907,up,1,2.8027000000001863,280.48816879998776,None,282.9943736999994,None,ofgjwt,001,0,fr,2022-04-27_16h09.07.986,3-AFC_adaptive_staircase_mess,2022.1.1,None,
,,,,,1,0,1,0,7,0,7,0,,,,,,,,,,,,,,,,right,1500,20,0.00048302543949490677,-1,0,-1,-10,286.8479197666495,None,284.81051849998767,285.13667899998836,285.8041048999876,286.1281090999837,286.7989205000049,287.13357969999197,right,1,2.854807499999879,284.8686519000039,None,287.3672629999928,None,ofgjwt,001,0,fr,2022-04-27_16h09.07.986,3-AFC_adaptive_staircase_mess,2022.1.1,None,
,,,,,1,0,1,0,8,0,8,0,,,,,,,,,,,,,,,,right,1500,10,0.0001527460556607757,-1,0,-1,-10,291.272382566651,None,289.2446065999975,289.56727929998306,290.23666719999164,290.5671442000021,291.227461100003,291.5554264000093,right,1,2.564538699982222,289.3023981000006,None,291.7946429000003,None,ofgjwt,001,0,fr,2022-04-27_16h09.07.986,3-AFC_adaptive_staircase_mess,2022.1.1,None,
,,,,,1,0,1,0,9,0,9,0,,,,,,,,,,,,,,,,right,1500,10,0.0001527460556607757,-1,0,-1,-10,295.44191076665106,None,293.3985992000089,293.733561800007,294.39995170000475,294.72457170000416,295.3940173999872,295.72540739999386,right,1,2.7313012999948114,293.4559988999972,None,295.9621472999861,None,ofgjwt,001,0,fr,2022-04-27_16h09.07.986,3-AFC_adaptive_staircase_mess,2022.1.1,None,
,,,,,1,0,1,0,10,0,10,0,,,,,,,,,,,,,,,,up,1500,0,4.830254394949071e-05,-1,0,-1,-10,298.74230836666925,None,297.71090859998367,298.0360906999849,298.7256417000026,299.05347290000645,299.7116650000098,300.0387427000096,up,1,2.875457899994217,297.76022729999386,None,300.27317919998313,None,ofgjwt,001,0,fr,2022-04-27_16h09.07.986,3-AFC_adaptive_staircase_mess,2022.1.1,None,
,,,,,1,0,1,0,11,0,11,0,,,,,,,,,,,,,,,,right,1500,0,4.830254394949071e-05,-1,0,-1,-10,304.18487886665775,None,302.14889609999955,302.4756311000092,303.14417620000313,303.46925910000573,304.1682121999911,304.5013241999841,right,1,5.077680699992925,302.1974574000051,None,304.7028061999881,None,ofgjwt,001,0,fr,2022-04-27_16h09.07.986,3-AFC_adaptive_staircase_mess,2022.1.1,None,
,,,,,1,0,1,0,12,0,12,0,,,,,,,,,,,,,,,,right,1500,-10,1.527460556607758e-05,-1,0,-1,-10,310.83486096666115,None,308.79420919998665,309.1225831999909,309.797381899989,310.1080985000008,310.78828700000304,311.13018239999656,up,0,5.607576799986418,308.85263089998625,None,311.3380515000026,None,ofgjwt,001,0,fr,2022-04-27_16h09.07.986,3-AFC_adaptive_staircase_mess,2022.1.1,None,
,,,,,1,0,1,0,13,0,13,0,,,,,,,,,,,,,,,,up,1500,-5,2.716251657462168e-05,1,1,1,5,317.00777496665637,None,315.96104449999984,316.2888668999949,316.9611359999981,317.2984698000073,317.96984659999725,318.28230500000063,up,1,3.0275490999920294,316.02344069999526,None,318.5281532999943,None,ofgjwt,001,0,fr,2022-04-27_16h09.07.986,3-AFC_adaptive_staircase_mess,2022.1.1,None,
,,,,,1,0,1,0,14,0,14,0,,,,,,,,,,,,,,,,up,1500,-5,2.716251657462168e-05,1,1,1,5,321.59950776666324,None,320.5676911000046,320.893496899982,321.5828410999966,321.91166419998626,322.5805000999826,322.9005824000051,up,1,4.1780833000084385,320.6166960999835,None,323.1366623000067,None,ofgjwt,001,0,fr,2022-04-27_16h09.07.986,3-AFC_adaptive_staircase_mess,2022.1.1,None,
,,,,,1,0,1,0,15,0,15,0,,,,,,,,,,,,,,,,left,1500,-15,8.589541935787946e-06,-1,2,-1,-5.0,326.34068306666836,None,326.3041794000019,326.6360807000019,327.3276696999965,327.6484095999913,328.3070138999901,328.6306365999917,up,0,4.557983099977719,326.36613879998913,None,328.8641557999945,None,ofgjwt,001,0,fr,2022-04-27_16h09.07.986,3-AFC_adaptive_staircase_mess,2022.1.1,None,
,,,,,1,0,1,0,16,0,16,0,,,,,,,,,,,,,,,,up,1500,-12.5,1.1454338263838873e-05,1,3,1,2.5,333.50050356667293,None,332.44816689999425,332.7754743999976,333.4489617999934,333.78633949998766,334.4621738999849,334.78382189999684,right,0,3.3529550999810454,332.5151191999903,None,335.01715319999494,None,ofgjwt,001,0,fr,2022-04-27_16h09.07.986,3-AFC_adaptive_staircase_mess,2022.1.1,None,
,,,,,1,0,1,0,17,0,17,0,,,,,,,,,,,,,,,,up,1500,-10.0,1.527460556607758e-05,1,3,1,2.5,338.4408133666477,None,337.39107710000826,337.72185770000215,338.39304649998667,338.73284099999,339.39032189999125,339.72819779999554,left,0,3.8990459000051487,337.45605419998174,None,339.95855549999396,None,ofgjwt,001,0,fr,2022-04-27_16h09.07.986,3-AFC_adaptive_staircase_mess,2022.1.1,None,
,,,,,1,0,1,0,18,0,18,0,,,,,,,,,,,,,,,,left,1500,-7.5,2.036901389020565e-05,1,3,1,2.5,342.8909710666669,None,342.85450950000086,343.17325160000473,343.8628719999979,344.1993133999931,344.8660614999826,345.19686090000323,up,0,7.205427799985046,342.91790450000553,None,345.40014439998777,None,ofgjwt,001,0,fr,2022-04-27_16h09.07.986,3-AFC_adaptive_staircase_mess,2022.1.1,None,
,,,,,1,0,1,0,19,0,19,0,,,,,,,,,,,,,,,,right,1500,-5.0,2.716251657462168e-05,1,3,1,2.5,353.6848487666614,None,351.632056500006,351.95639589999337,352.6488338999916,352.97189960000105,353.6386894999887,353.96812400000636,left,0,4.477805100003025,351.69418769999174,None,354.20285790000344,None,ofgjwt,001,0,fr,2022-04-27_16h09.07.986,3-AFC_adaptive_staircase_mess,2022.1.1,None,
,,,,,1,0,1,0,20,0,20,0,,,,,,,,,,,,,,,,left,1500,-2.5,3.622179800374953e-05,1,3,1,2.5,357.72685046666106,None,357.6810206999944,358.00901799998246,358.67304409999633,359.0029155999946,359.6699710999965,359.99211799999466,left,1,2.97686860000249,357.7389540000004,None,360.2275429999863,None,ofgjwt,001,0,fr,2022-04-27_16h09.07.986,3-AFC_adaptive_staircase_mess,2022.1.1,None,
,,,,,1,0,1,0,21,0,21,0,,,,,,,,,,,,,,,,left,1500,-2.5,3.622179800374953e-05,1,3,1,2.5,362.29859636666174,None,362.2528187999851,362.58579429998645,363.25181610000436,363.57682550000027,364.240953600005,364.5618262999924,left,1,3.1409539000014775,362.30998809999437,None,364.79830580001,None,ofgjwt,001,0,fr,2022-04-27_16h09.07.986,3-AFC_adaptive_staircase_mess,2022.1.1,None,
,,,,,1,0,1,0,22,0,22,0,,,,,,,,,,,,,,,,left,1500,-7.5,2.036901389020565e-05,-1,4,-1,-5.0,367.01003266667635,None,366.9645891999826,367.2895537999866,367.98237749998225,368.3109870000044,368.9824929999886,369.3064535000012,right,0,4.060579499986488,367.0227525999944,None,369.5104771000042,None,ofgjwt,001,0,fr,2022-04-27_16h09.07.986,3-AFC_adaptive_staircase_mess,2022.1.1,None,
,,,,,1,0,1,0,23,0,23,0,,,,,,,,,,,,,,,,up,1500,-5.0,2.716251657462168e-05,1,5,1,2.5,373.6258325666752,None,372.59030700000585,372.9145131999976,373.5808457999956,373.9089999999851,374.57938439998543,374.90424969999003,up,1,2.977917299984256,372.6501404999872,None,375.13689560000785,None,ofgjwt,001,0,fr,2022-04-27_16h09.07.986,3-AFC_adaptive_staircase_mess,2022.1.1,None,
,,,,,1,0,1,0,24,0,24,0,,,,,,,,,,,,,,,,left,1500,-5.0,2.716251657462168e-05,1,5,1,2.5,377.18229986666506,None,377.13659549999284,377.463181900006,378.1298655999999,378.4549963999889,379.1503331999993,379.4789774999954,left,1,2.8810480999818537,377.1946108999837,None,379.6834884999844,None,ofgjwt,001,0,fr,2022-04-27_16h09.07.986,3-AFC_adaptive_staircase_mess,2022.1.1,None,
,,,,,1,0,1,0,25,0,25,0,,,,,,,,,,,,,,,,left,1500,-10.0,1.527460556607758e-05,-1,6,-1,-5.0,381.64399676665585,None,381.5982642000017,381.9332785999868,382.6060109999962,382.92924359999597,383.5979907999863,383.92523339999025,right,0,3.184515700006159,381.65784669999266,None,384.1616658999992,None,ofgjwt,001,0,fr,2022-04-27_16h09.07.986,3-AFC_adaptive_staircase_mess,2022.1.1,None,
,,,,,2,0,2,0,0,0,0,0,,,,,,,,,,,,,[],[],5,left,2000,50,0.02365756294807403,0,0,-1,5,386.4234653666538,None,386.3777215000009,386.7102663999831,387.37581120000686,387.70929110000725,388.3845146999811,388.7142770999926,left,1,2.872233599977335,386.4355382999929,None,388.92273510000086,None,ofgjwt,001,0,fr,2022-04-27_16h09.07.986,3-AFC_adaptive_staircase_mess,2022.1.1,None,
,,,,,2,0,2,0,1,0,1,0,,,,,,,,,,,,,,,,up,2000,50,0.02365756294807403,0,0,-1,5,391.8522896666584,None,390.8151113000058,391.13817190000555,391.8057228999969,392.14599269998143,392.81664420000743,393.139927399985,up,1,2.6755794000055175,390.871882300009,None,393.37369639999815,None,ofgjwt,001,0,fr,2022-04-27_16h09.07.986,3-AFC_adaptive_staircase_mess,2022.1.1,None,
,,,,,2,0,2,0,2,0,2,0,,,,,,,,,,,,,,,,up,2000,40,0.007481178280472167,-1,0,-1,-10,396.07457866665595,None,395.05096379999304,395.3783370000019,396.0579119999893,396.380596300005,397.04371629998786,397.36652219999814,up,1,2.308921999996528,395.1109027999919,None,None,None,ofgjwt,001,0,fr,2022-04-27_16h09.07.986,3-AFC_adaptive_staircase_mess,2022.1.1,None,
,,,,,2,0,2,0,3,0,3,0,,,,,,,,,,,,,,,,up,2000,40,0.007481178280472167,-1,0,-1,-10,399.96901156666377,None,398.9252919999999,399.2582722000079,399.9243325999996,400.25313179998193,400.92026509999414,401.24814509999123,up,1,2.851351799996337,398.9830446999986,None,401.4818147000042,None,ofgjwt,001,0,fr,2022-04-27_16h09.07.986,3-AFC_adaptive_staircase_mess,2022.1.1,None,
,,,,,2,0,2,0,4,0,4,0,,,,,,,,,,,,,,,,left,2000,30,0.0023657562948074026,-1,0,-1,-10,403.41047396665476,None,403.36474759998964,403.690200299985,404.3596411999897,404.68864239999675,405.3624561000033,405.6969555999967,left,1,2.7815265999815892,403.42260839999653,None,405.93044279998867,None,ofgjwt,001,0,fr,2022-04-27_16h09.07.986,3-AFC_adaptive_staircase_mess,2022.1.1,None,
,,,,,2,0,2,0,5,0,5,0,,,,,,,,,,,,,,,,right,2000,30,0.0023657562948074026,-1,0,-1,-10,409.7772673666516,None,407.74025209998945,408.06192400000873,408.7263607000059,409.0620940999943,409.7325693999883,410.06305460000294,right,1,2.4996541000145953,407.7997009999817,None,410.29967659999966,None,ofgjwt,001,0,fr,2022-04-27_16h09.07.986,3-AFC_adaptive_staircase_mess,2022.1.1,None,
,,,,,2,0,2,0,6,0,6,0,,,,,,,,,,,,,,,,right,2000,20,0.0007481178280472167,-1,0,-1,-10,413.8251479666544,None,411.78865879998193,412.1113691999926,412.7929259999946,413.11588239998673,413.7820964999846,414.1018278999836,right,1,2.5791356000117958,411.84770089999074,None,414.3346270000038,None,ofgjwt,001,0,fr,2022-04-27_16h09.07.986,3-AFC_adaptive_staircase_mess,2022.1.1,None,
,,,,,2,0,2,0,7,0,7,0,,,,,,,,,,,,,,,,up,2000,20,0.0007481178280472167,-1,0,-1,-10,416.9627828666746,None,415.93933839999954,416.27562100000796,416.9168163999857,417.24923869999475,417.9124524999934,418.23468429999775,up,1,2.8271894000063185,415.9680686999927,None,418.4679931999999,None,ofgjwt,001,0,fr,2022-04-27_16h09.07.986,3-AFC_adaptive_staircase_mess,2022.1.1,None,
,,,,,2,0,2,0,8,0,8,0,,,,,,,,,,,,,,,,left,2000,10,0.00023657562948074026,-1,0,-1,-10,420.35970056665633,None,420.3138731000072,420.64793730000383,421.3143759999948,421.63706169999205,422.316527899995,422.6484547999862,left,1,2.7774405000091065,420.37109979998786,None,422.8538103000028,None,ofgjwt,001,0,fr,2022-04-27_16h09.07.986,3-AFC_adaptive_staircase_mess,2022.1.1,None,
,,,,,2,0,2,0,9,0,9,0,,,,,,,,,,,,,,,,left,2000,10,0.00023657562948074026,-1,0,-1,-10,424.7235606666693,None,424.6758215999871,425.0088770999864,425.68750379999983,426.009046399995,426.68847319998895,427.01613460000954,left,1,3.0796348999720067,424.73909200000344,None,427.23091519999434,None,ofgjwt,001,0,fr,2022-04-27_16h09.07.986,3-AFC_adaptive_staircase_mess,2022.1.1,None,
,,,,,2,0,2,0,10,0,10,0,,,,,,,,,,,,,,,,up,2000,0,7.481178280472168e-05,-1,0,-1,-10,430.39512196666715,None,429.3427321999916,429.66801409999607,430.34618779999437,430.68055200000526,431.3317664999922,431.67017629998736,up,1,3.1345588999975007,429.4051050999842,None,431.9139276999922,None,ofgjwt,001,0,fr,2022-04-27_16h09.07.986,3-AFC_adaptive_staircase_mess,2022.1.1,None,
,,,,,2,0,2,0,11,0,11,0,,,,,,,,,,,,,,,,right,2000,0,7.481178280472168e-05,-1,0,-1,-10,436.08154826666964,None,434.04345480000484,434.3658182999934,435.0305448999861,435.3568784999952,436.03565649999655,436.363512299984,right,1,2.690879700006917,434.10319669998717,None,436.59723769998527,None,ofgjwt,001,0,fr,2022-04-27_16h09.07.986,3-AFC_adaptive_staircase_mess,2022.1.1,None,
,,,,,2,0,2,0,12,0,12,0,,,,,,,,,,,,,,,,up,2000,-10,2.3657562948074015e-05,-1,0,-1,-10,439.37353716665916,None,438.3178878999897,438.6429155000078,439.3234836999909,439.66235249998863,440.32382039999356,440.6576411999995,up,1,3.52290000001085,438.37631910000346,None,440.8678176999965,None,ofgjwt,001,0,fr,2022-04-27_16h09.07.986,3-AFC_adaptive_staircase_mess,2022.1.1,None,
,,,,,2,0,2,0,13,0,13,0,,,,,,,,,,,,,,,,left,2000,-10,2.3657562948074015e-05,-1,0,-1,-10,443.48110106666377,None,443.43573639998795,443.76981979998527,444.4261111000087,444.75801550000324,445.43835419998504,445.7666332999943,up,0,2.9187842000101227,443.4935724999814,None,445.9744919000077,None,ofgjwt,001,0,fr,2022-04-27_16h09.07.986,3-AFC_adaptive_staircase_mess,2022.1.1,None,
,,,,,2,0,2,0,14,0,14,0,,,,,,,,,,,,,,,,left,2000,-5,4.206975708225974e-05,1,1,1,5,447.9904407666511,None,447.9436894999817,448.2602087999985,448.9348539999919,449.2461832999834,449.95352690000436,450.2766306999838,left,1,2.841589000017848,448.00220029999036,None,450.4809733000002,None,ofgjwt,001,0,fr,2022-04-27_16h09.07.986,3-AFC_adaptive_staircase_mess,2022.1.1,None,
,,,,,2,0,2,0,15,0,15,0,,,,,,,,,,,,,,,,right,2000,-5,4.206975708225974e-05,1,1,1,5,454.4144016666726,None,452.39107529999455,452.72003289998975,453.3734432999918,453.7139460000035,454.3977350000059,454.7425007999991,right,1,2.7749660999979824,452.4203262999945,None,454.931977500004,None,ofgjwt,001,0,fr,2022-04-27_16h09.07.986,3-AFC_adaptive_staircase_mess,2022.1.1,None,
,,,,,2,0,2,0,16,0,16,0,,,,,,,,,,,,,,,,up,2000,-15,1.3303625298994042e-05,-1,2,-1,-5.0,457.75489536667396,None,456.7152180999983,457.05778040000587,457.7060070000007,458.04249459999846,458.70080120000057,459.0462671999994,left,0,5.043662700016284,456.74276429999736,None,459.2651545999979,None,ofgjwt,001,0,fr,2022-04-27_16h09.07.986,3-AFC_adaptive_staircase_mess,2022.1.1,None,
,,,,,2,0,2,0,17,0,17,0,,,,,,,,,,,,,,,,right,2000,-12.5,1.7740669461678767e-05,1,3,1,2.5,465.3629215666481,None,463.30581079999683,463.642846200004,464.3233732999943,464.6622215999814,465.3128383999865,465.65526440000394,left,0,2.8871076999930665,463.3639903999865,None,465.86378019998665,None,ofgjwt,001,0,fr,2022-04-27_16h09.07.986,3-AFC_adaptive_staircase_mess,2022.1.1,None,
,,,,,2,0,2,0,18,0,18,0,,,,,,,,,,,,,,,,up,2000,-10.0,2.3657562948074015e-05,1,3,1,2.5,468.8025228666704,None,467.77921780000906,468.12185170000885,468.7550986999995,469.0974057999847,469.7824197000009,470.1097777999821,left,0,3.051377299998421,467.80793179999455,None,470.32099959999323,None,ofgjwt,001,0,fr,2022-04-27_16h09.07.986,3-AFC_adaptive_staircase_mess,2022.1.1,None,
,,,,,2,0,2,0,19,0,19,0,,,,,,,,,,,,,,,,up,2000,-7.5,3.154786722400965e-05,1,3,1,2.5,473.3751023666739,None,472.36337320000166,472.6989134000032,473.35843570000725,473.676017699996,474.35501020000083,474.68638500000816,right,0,3.0115919999952894,472.39207400000305,None,474.89411689998815,None,ofgjwt,001,0,fr,2022-04-27_16h09.07.986,3-AFC_adaptive_staircase_mess,2022.1.1,None,
,,,,,2,0,2,0,20,0,20,0,,,,,,,,,,,,,,,,left,2000,-5.0,4.206975708225974e-05,1,3,1,2.5,476.9512918666626,None,476.93462519999593,477.2676061000093,477.917812700005,478.2504843999923,478.929523800005,479.26164690000587,up,0,3.0147376999957487,476.9635746999993,None,479.47406879998744,None,ofgjwt,001,0,fr,2022-04-27_16h09.07.986,3-AFC_adaptive_staircase_mess,2022.1.1,None,
,,,,,2,0,2,0,21,0,21,0,,,,,,,,,,,,,,,,left,2000,-2.5,5.610092271509818e-05,1,3,1,2.5,481.55764736666265,None,481.5017039999948,481.83435469999677,482.49812149998615,482.83198819999234,483.50152479999815,483.83903410000494,left,1,2.5995053999940865,481.5723377999966,None,484.05752460000804,None,ofgjwt,001,0,fr,2022-04-27_16h09.07.986,3-AFC_adaptive_staircase_mess,2022.1.1,None,
,,,,,2,0,2,0,22,0,22,0,,,,,,,,,,,,,,,,up,2000,-2.5,5.610092271509818e-05,1,3,1,2.5,486.7276325666501,None,485.6924835999962,486.0305796999892,486.6828234999848,487.0216611000069,487.67557130000205,487.9908431000076,up,1,2.8503872999863233,485.72059849998914,None,488.22949939998216,None,ofgjwt,001,0,fr,2022-04-27_16h09.07.986,3-AFC_adaptive_staircase_mess,2022.1.1,None,
,,,,,2,0,2,0,23,0,23,0,,,,,,,,,,,,,,,,right,2000,-7.5,3.154786722400965e-05,-1,4,-1,-5.0,492.12544656667546,None,490.0590219000005,490.4049018000078,491.0649915999966,491.4046057999949,492.078033400001,492.3881523000018,right,1,2.7093209000013303,490.1174306999892,None,492.6352790000092,None,ofgjwt,001,0,fr,2022-04-27_16h09.07.986,3-AFC_adaptive_staircase_mess,2022.1.1,None,
,,,,,2,0,2,0,24,0,24,0,,,,,,,,,,,,,,,,right,2000,-7.5,3.154786722400965e-05,-1,4,-1,-5.0,496.397230466657,None,494.37457089999225,494.7084140999941,495.3641287999926,495.69987989999936,496.3496336999815,496.6655446999939,right,1,2.775072199990973,494.40421290000086,None,496.9045708999911,None,ofgjwt,001,0,fr,2022-04-27_16h09.07.986,3-AFC_adaptive_staircase_mess,2022.1.1,None,
,,,,,2,0,2,0,25,0,25,0,,,,,,,,,,,,,,,,left,2000,-12.5,1.7740669461678767e-05,-1,4,-1,-5.0,498.72305416665426,None,498.6753698999819,499.0143495000084,499.6764865999867,500.0144697999931,500.7009110999934,501.03946339999675,up,0,3.4525099999736995,498.73476089999895,None,501.25008989998605,None,ofgjwt,001,0,fr,2022-04-27_16h09.07.986,3-AFC_adaptive_staircase_mess,2022.1.1,None,
,,,,,2,0,2,0,26,0,26,0,,,,,,,,,,,,,,,,up,2000,-10.0,2.3657562948074015e-05,1,5,1,2.5,504.7408789666699,None,503.6798118999868,504.0169423999905,504.6946526999818,505.0236196999904,505.67657049998525,506.01612449999084,left,0,3.9989098999940325,503.73999929998536,None,506.22804869999527,None,ofgjwt,001,0,fr,2022-04-27_16h09.07.986,3-AFC_adaptive_staircase_mess,2022.1.1,None,
,,,,,2,0,2,0,27,0,27,0,,,,,,,,,,,,,,,,left,2000,-7.5,3.154786722400965e-05,1,5,1,2.5,509.2829782666561,None,509.2663115999894,509.59617309999885,510.24179050000384,510.58150559998467,511.2614358999999,511.58750759999384,right,0,3.0025445999926887,509.2959222999925,None,511.8205106999958,None,ofgjwt,001,0,fr,2022-04-27_16h09.07.986,3-AFC_adaptive_staircase_mess,2022.1.1,None,
,,,,,2,0,2,0,28,0,28,0,,,,,,,,,,,,,,,,left,2000,-5.0,4.206975708225974e-05,1,5,1,2.5,513.8590260666717,None,513.8423594000051,514.1734625999816,514.8232255000039,515.1540065000008,515.818577500002,516.1480539999902,left,1,2.8597652000025846,513.8709914000065,None,516.3863779999956,None,ofgjwt,001,0,fr,2022-04-27_16h09.07.986,3-AFC_adaptive_staircase_mess,2022.1.1,None,
,,,,,2,0,2,0,29,0,29,0,,,,,,,,,,,,,,,,up,2000,-5.0,4.206975708225974e-05,1,5,1,2.5,519.2537745666671,None,518.2315490999899,518.5608886999835,519.2063788000087,519.5378220999846,520.2091018999927,520.5375695999828,up,1,2.8834777000010945,518.263707999984,None,520.7696190999995,None,ofgjwt,001,0,fr,2022-04-27_16h09.07.986,3-AFC_adaptive_staircase_mess,2022.1.1,None,
,,,,,2,0,2,0,30,0,30,0,,,,,,,,,,,,,,,,right,2000,-10.0,2.3657562948074015e-05,-1,6,-1,-5.0,524.6939092666764,None,522.6496416000009,522.9824888999865,523.6369910000067,523.9626055999834,524.6465898999886,524.981993399997,up,0,2.724939500010805,522.6786568999814,None,525.1823164999951,None,ofgjwt,001,0,fr,2022-04-27_16h09.07.986,3-AFC_adaptive_staircase_mess,2022.1.1,None,
,,,,,3,0,3,0,0,0,0,0,,,,,,,,,,,,,[],[],5,right,3000,50,0.017336842522626576,0,0,-1,5,528.9688265666521,None,526.9059260000067,527.2394644999877,527.9107337000023,528.2338798999845,528.9203249999846,529.2551459999813,right,1,2.712599799997406,526.9635531999811,None,529.4609267000051,None,ofgjwt,001,0,fr,2022-04-27_16h09.07.986,3-AFC_adaptive_staircase_mess,2022.1.1,None,
,,,,,3,0,3,0,1,0,1,0,,,,,,,,,,,,,,,,right,3000,50,0.017336842522626576,0,0,-1,5,533.2138726666492,None,531.1945441999997,531.5157399000018,532.2003455999948,532.5254350999894,533.1972059999825,533.5228578000097,right,1,2.6783890999795403,531.2532260000007,None,533.7330397999904,None,ofgjwt,001,0,fr,2022-04-27_16h09.07.986,3-AFC_adaptive_staircase_mess,2022.1.1,None,
,,,,,3,0,3,0,2,0,2,0,,,,,,,,,,,,,,,,up,3000,40,0.005482390980715924,-1,0,-1,-10,536.5096907666632,None,535.4660800999845,535.7907750000013,536.4607307999977,536.7959553999826,None,None,up,1,1.5913881000014953,535.5240018999903,None,None,None,ofgjwt,001,0,fr,2022-04-27_16h09.07.986,3-AFC_adaptive_staircase_mess,2022.1.1,None,
,,,,,3,0,3,0,3,0,3,0,,,,,,,,,,,,,,,,up,3000,40,0.005482390980715924,-1,0,-1,-10,539.6864204666674,None,538.6522313999885,538.9765015000012,539.6486556000018,539.9772126000025,None,None,up,1,1.4569227999891154,538.6817818999989,None,None,None,ofgjwt,001,0,fr,2022-04-27_16h09.07.986,3-AFC_adaptive_staircase_mess,2022.1.1,None,
,,,,,3,0,3,0,4,0,4,0,,,,,,,,,,,,,,,,right,3000,30,0.001733684252262658,-1,0,-1,-10,543.7063874666676,None,541.6648737000069,541.9932180999895,542.6644353999873,542.9944400000095,543.660587499995,543.9982048999809,right,1,2.7010774000082165,541.7261815999809,None,544.2057783000055,None,ofgjwt,001,0,fr,2022-04-27_16h09.07.986,3-AFC_adaptive_staircase_mess,2022.1.1,None,
,,,,,3,0,3,0,5,0,5,0,,,,,,,,,,,,,,,,right,3000,30,0.001733684252262658,-1,0,-1,-10,548.0042067666693,None,545.9564116999973,546.2837529999961,546.9558365999837,547.2776737000095,547.9556567999825,548.2895485000045,right,1,2.265753199986648,546.0173917000066,None,None,None,ofgjwt,001,0,fr,2022-04-27_16h09.07.986,3-AFC_adaptive_staircase_mess,2022.1.1,None,
,,,,,3,0,3,0,6,0,6,0,,,,,,,,,,,,,,,,right,3000,20,0.0005482390980715922,-1,0,-1,-10,551.8252051666534,None,549.7811502999975,550.1041543000028,550.7785378999833,551.1064175000065,551.7789921000076,552.1070772999956,right,1,2.5212626999709755,549.8421689000097,None,552.3428958999866,None,ofgjwt,001,0,fr,2022-04-27_16h09.07.986,3-AFC_adaptive_staircase_mess,2022.1.1,None,
,,,,,3,0,3,0,7,0,7,0,,,,,,,,,,,,,,,,left,3000,20,0.0005482390980715922,-1,0,-1,-10,553.9304357666736,None,553.8821069999831,554.2147547999921,554.8864938000042,555.2091128999891,555.8771654999873,556.2072318999853,left,1,2.611486599984346,553.9430645999964,None,556.4403570999857,None,ofgjwt,001,0,fr,2022-04-27_16h09.07.986,3-AFC_adaptive_staircase_mess,2022.1.1,None,
,,,,,3,0,3,0,8,0,8,0,,,,,,,,,,,,,,,,right,3000,10,0.00017336842522626576,-1,0,-1,-10,560.0761863666742,None,558.0465489999915,558.3693094000046,559.0372910999868,559.3552197999961,560.0595197000075,560.3884766999981,right,1,2.6589132999943104,558.104416999995,None,560.6045880999882,None,ofgjwt,001,0,fr,2022-04-27_16h09.07.986,3-AFC_adaptive_staircase_mess,2022.1.1,None,
,,,,,3,0,3,0,9,0,9,0,,,,,,,,,,,,,,,,left,3000,10,0.00017336842522626576,-1,0,-1,-10,562.3285858666679,None,562.282495099993,562.6088936000015,563.2709142999956,563.5980168999813,564.2937197999854,564.6182488999912,left,1,2.7579332000168506,562.3413243999821,None,564.8262834000052,None,ofgjwt,001,0,fr,2022-04-27_16h09.07.986,3-AFC_adaptive_staircase_mess,2022.1.1,None,
,,,,,3,0,3,0,10,0,10,0,,,,,,,,,,,,,,,,left,3000,0,5.482390980715923e-05,-1,0,-1,-10,566.672388466661,None,566.6279546000005,566.9506887999887,None,None,None,None,left,1,0.7202554999676067,566.6834002999822,None,None,None,ofgjwt,001,0,fr,2022-04-27_16h09.07.986,3-AFC_adaptive_staircase_mess,2022.1.1,None,
,,,,,3,0,3,0,11,0,11,0,,,,,,,,,,,,,,,,left,3000,0,5.482390980715923e-05,-1,0,-1,-10,568.9497924666541,None,568.9125103999977,569.2460254000034,None,None,None,None,left,1,0.8003773000091314,568.9703493999841,None,None,None,ofgjwt,001,0,fr,2022-04-27_16h09.07.986,3-AFC_adaptive_staircase_mess,2022.1.1,None,
,,,,,3,0,3,0,12,0,12,0,,,,,,,,,,,,,,,,left,3000,-10,1.7336842522626584e-05,-1,0,-1,-10,571.3440706666481,None,571.2996220999921,571.6236910999869,572.2951554000028,572.6167311999889,573.308772599994,573.630516300007,right,0,2.92822219998925,571.355381500005,None,573.8617075000075,None,ofgjwt,001,0,fr,2022-04-27_16h09.07.986,3-AFC_adaptive_staircase_mess,2022.1.1,None,
,,,,,3,0,3,0,13,0,13,0,,,,,,,,,,,,,,,,up,3000,-5,3.082975009307411e-05,1,1,1,5,576.8388512666609,None,575.7951275999949,576.1215745999943,576.7934717999888,577.1259604000079,577.7985638999962,578.1234561000019,up,1,2.7025437999982387,575.8531064999988,None,578.3585080000048,None,ofgjwt,001,0,fr,2022-04-27_16h09.07.986,3-AFC_adaptive_staircase_mess,2022.1.1,None,
,,,,,3,0,3,0,14,0,14,0,,,,,,,,,,,,,,,,left,3000,-5,3.082975009307411e-05,1,1,1,5,580.0853071666536,None,580.0393864999933,580.3655201999936,581.0588439999847,None,None,None,left,1,1.0648963999992702,580.0983236999891,None,None,None,ofgjwt,001,0,fr,2022-04-27_16h09.07.986,3-AFC_adaptive_staircase_mess,2022.1.1,None,
,,,,,3,0,3,0,15,0,15,0,,,,,,,,,,,,,,,,up,3000,-15,9.749222998790228e-06,-1,2,-1,-5.0,583.7114307666527,None,582.6810128999932,583.0035307999933,583.6947640999861,584.0305837999913,584.6957980000007,585.0267095000017,up,1,2.6463257999857888,582.7401369999861,None,585.2310712999897,None,ofgjwt,001,0,fr,2022-04-27_16h09.07.986,3-AFC_adaptive_staircase_mess,2022.1.1,None,
,,,,,3,0,3,0,16,0,16,0,,,,,,,,,,,,,,,,right,3000,-15,9.749222998790228e-06,-1,2,-1,-5.0,588.9313534666765,None,586.9050698000065,587.2166613999871,587.8965216999932,588.221023799997,588.9146868000098,589.2503813999938,right,1,2.618071400007466,586.9621200999827,None,589.4518843999831,None,ofgjwt,001,0,fr,2022-04-27_16h09.07.986,3-AFC_adaptive_staircase_mess,2022.1.1,None,
,,,,,3,0,3,0,17,0,17,0,,,,,,,,,,,,,,,,up,3000,-20.0,5.482390980715926e-06,-1,2,-1,-5.0,592.1231838666756,None,591.0911895000027,591.4158118999912,592.0786586999893,592.4112850000092,593.081800999993,593.4073020000069,right,0,2.7325779999955557,591.1505577999924,None,593.640779599984,None,ofgjwt,001,0,fr,2022-04-27_16h09.07.986,3-AFC_adaptive_staircase_mess,2022.1.1,None,
,,,,,3,0,3,0,18,0,18,0,,,,,,,,,,,,,,,,right,3000,-17.5,7.310885872283591e-06,1,3,1,2.5,597.4580320666757,None,595.4198238000099,595.7579510000069,596.4217255999974,596.7395562999882,597.4090047999925,597.7427535000024,left,0,2.73851610001293,595.4491368999879,None,597.9770370000042,None,ofgjwt,001,0,fr,2022-04-27_16h09.07.986,3-AFC_adaptive_staircase_mess,2022.1.1,None,
,,,,,3,0,3,0,19,0,19,0,,,,,,,,,,,,,,,,right,3000,-15.0,9.749222998790228e-06,1,3,1,2.5,601.756238666658,601.976943799993,599.7284512000042,600.0468383999832,600.7138534999976,601.0286223999865,601.7395719999913,602.0613737999811,right,1,3.1539358999871183,599.7847426999942,None,602.2652524999867,None,ofgjwt,001,0,fr,2022-04-27_16h09.07.986,3-AFC_adaptive_staircase_mess,2022.1.1,None,
,,,,,3,0,3,0,20,0,20,0,,,,,,,,,,,,,,,,left,3000,-15.0,9.749222998790228e-06,1,3,1,2.5,604.4747640666649,None,604.4291978999972,604.7566370999848,605.4276581000013,605.7489057999919,606.4465429999982,606.7705660999927,left,1,2.8677006000070833,604.4877080000006,None,607.0046756000083,None,ofgjwt,001,0,fr,2022-04-27_16h09.07.986,3-AFC_adaptive_staircase_mess,2022.1.1,None,
,,,,,3,0,3,0,21,0,21,0,,,,,,,,,,,,,,,,right,3000,-20.0,5.482390980715926e-06,-1,4,-1,-5.0,610.9410334666647,None,608.8924124999903,609.2067265000078,609.9077303000086,610.2300299000053,610.8955429999914,611.2252965999942,left,0,2.9939906999934465,608.9528043000028,None,611.4596998000052,None,ofgjwt,001,0,fr,2022-04-27_16h09.07.986,3-AFC_adaptive_staircase_mess,2022.1.1,None,
,,,,,3,0,3,0,22,0,22,0,,,,,,,,,,,,,,,,right,3000,-17.5,7.310885872283591e-06,1,5,1,2.5,615.4896221666752,None,613.4711451999901,613.7906777999888,614.461147199996,614.7881885999814,615.4729555000085,615.7965706999821,right,1,2.977577799989376,613.4984046999889,None,616.003924699995,None,ofgjwt,001,0,fr,2022-04-27_16h09.07.986,3-AFC_adaptive_staircase_mess,2022.1.1,None,
,,,,,3,0,3,0,23,0,23,0,,,,,,,,,,,,,,,,up,3000,-17.5,7.310885872283591e-06,1,5,1,2.5,619.0328702666486,None,618.0034855999984,618.3150346000039,619.016203599982,619.335462499992,620.0024505000038,620.316648899985,right,0,3.0380707000149414,618.0611865999817,None,620.5620610000042,None,ofgjwt,001,0,fr,2022-04-27_16h09.07.986,3-AFC_adaptive_staircase_mess,2022.1.1,None,
,,,,,3,0,3,0,24,0,24,0,,,,,,,,,,,,,,,,up,3000,-15.0,9.749222998790228e-06,1,5,1,2.5,623.6452824666669,623.8642909000046,622.5965739999956,622.9176750000042,623.5876121000038,623.920363799989,624.5853613000072,624.9066973000008,left,0,4.125208899989957,622.6530406999809,None,625.1396533999941,None,ofgjwt,001,0,fr,2022-04-27_16h09.07.986,3-AFC_adaptive_staircase_mess,2022.1.1,None,
,,,,,3,0,3,0,25,0,25,0,,,,,,,,,,,,,,,,up,3000,-12.5,1.300079781582636e-05,1,5,1,2.5,629.3510694666513,None,628.3105065999844,628.6258871000027,629.2924714999972,629.6279546000005,630.3224766000058,630.6421962000022,left,0,2.3890108999912627,628.373745799996,None,None,None,ofgjwt,001,0,fr,2022-04-27_16h09.07.986,3-AFC_adaptive_staircase_mess,2022.1.1,None,
,,,,,3,0,3,0,26,0,26,0,,,,,,,,,,,,,,,,up,3000,-10.0,1.7336842522626584e-05,1,5,1,2.5,633.3228252666634,None,632.279226899991,632.5951561999973,633.2757097999856,633.5990499999898,634.270686600008,634.5953300999827,right,0,2.7551393999892753,632.34399329999,None,634.8295136000088,None,ofgjwt,001,0,fr,2022-04-27_16h09.07.986,3-AFC_adaptive_staircase_mess,2022.1.1,None,
,,,,,3,0,3,0,27,0,27,0,,,,,,,,,,,,,,,,right,3000,-7.5,2.3119051069963017e-05,1,5,1,2.5,638.6534127666712,None,636.6182811000035,636.9442137999868,637.6131632000033,637.9349744000065,638.6078510000079,638.938381999993,right,1,2.9267592999967746,636.6672939999844,None,639.1725862000021,None,ofgjwt,001,0,fr,2022-04-27_16h09.07.986,3-AFC_adaptive_staircase_mess,2022.1.1,None,
,,,,,3,0,3,0,28,0,28,0,,,,,,,,,,,,,,,,left,3000,-7.5,2.3119051069963017e-05,1,5,1,2.5,641.1686725666552,None,641.1195164000092,641.460572299984,642.1215235999844,642.4486437999876,643.1435060999938,643.4670353999827,left,1,3.0375638999976218,641.1818144999852,None,643.6724468999892,None,ofgjwt,001,0,fr,2022-04-27_16h09.07.986,3-AFC_adaptive_staircase_mess,2022.1.1,None,
,,,,,3,0,3,0,29,0,29,0,,,,,,,,,,,,,,,,right,3000,-12.5,1.300079781582636e-05,-1,6,-1,-5.0,647.7621601666654,None,645.731280899985,646.0563651999983,646.7258971999981,647.0488009999972,647.7166111999832,648.0471255999873,left,0,2.843884700007038,645.7918815999874,None,648.281235100003,None,ofgjwt,001,0,fr,2022-04-27_16h09.07.986,3-AFC_adaptive_staircase_mess,2022.1.1,None,
,,,,,4,0,4,0,0,0,0,0,,,,,,,,,,,,,[],[],5,left,4000,50,0.02654422221154942,0,0,-1,5,650.2173791666612,None,650.1726225999882,650.5016892999993,651.1720910999866,651.4942179000063,652.1855943999835,652.5108372999821,left,1,2.8046581000089645,650.2296160999977,None,652.7182613000041,None,ofgjwt,001,0,fr,2022-04-27_16h09.07.986,3-AFC_adaptive_staircase_mess,2022.1.1,None,
,,,,,4,0,4,0,1,0,1,0,,,,,,,,,,,,,,,,right,4000,50,0.02654422221154942,0,0,-1,5,656.5655292666672,None,654.5382230999821,654.8627265999967,655.5285778999969,655.8496978000039,656.5488626000006,656.8714825999923,right,1,2.5007278000121005,654.5979098000098,None,657.079857100005,None,ofgjwt,001,0,fr,2022-04-27_16h09.07.986,3-AFC_adaptive_staircase_mess,2022.1.1,None,
,,,,,4,0,4,0,2,0,2,0,,,,,,,,,,,,,,,,left,4000,40,0.008394020090612802,-1,0,-1,-10,658.6591502666745,None,658.6140185999975,658.9420459999819,659.6080374000012,None,None,None,left,1,1.0670699999900535,658.6714152999921,None,None,None,ofgjwt,001,0,fr,2022-04-27_16h09.07.986,3-AFC_adaptive_staircase_mess,2022.1.1,None,
,,,,,4,0,4,0,3,0,3,0,,,,,,,,,,,,,,,,right,4000,40,0.008394020090612802,-1,0,-1,-10,663.287748966661,None,661.2618395999889,661.5788133000024,662.2509178000037,662.5721570999885,663.2710822999943,663.6107544999977,right,1,2.3894321999978274,661.3168886000058,None,None,None,ofgjwt,001,0,fr,2022-04-27_16h09.07.986,3-AFC_adaptive_staircase_mess,2022.1.1,None,
,,,,,4,0,4,0,4,0,4,0,,,,,,,,,,,,,,,,right,4000,30,0.0026544222211549416,-1,0,-1,-10,667.2833926666683,None,665.2314334999828,665.5558401999879,666.2223363000085,666.5450265999825,667.2378723000002,667.5660742000036,right,1,2.5932574000034947,665.2898205000092,None,667.7705955999845,None,ofgjwt,001,0,fr,2022-04-27_16h09.07.986,3-AFC_adaptive_staircase_mess,2022.1.1,None,
,,,,,4,0,4,0,5,0,5,0,,,,,,,,,,,,,,,,up,4000,30,0.0026544222211549416,-1,0,-1,-10,670.4334130666723,None,669.3826724999817,669.715712300007,670.387484899984,670.7199853000056,671.390874899982,None,up,1,2.0205153999850154,669.446073900006,None,None,None,ofgjwt,001,0,fr,2022-04-27_16h09.07.986,3-AFC_adaptive_staircase_mess,2022.1.1,None,
,,,,,4,0,4,0,6,0,6,0,,,,,,,,,,,,,,,,right,4000,20,0.0008394020090612801,-1,0,-1,-10,675.0097112666738,None,672.9746842999884,673.2963073999854,673.9925558999821,674.3212544999842,674.9650658000028,675.296957899991,right,1,2.658925600000657,673.0328239999944,None,675.5310044999933,None,ofgjwt,001,0,fr,2022-04-27_16h09.07.986,3-AFC_adaptive_staircase_mess,2022.1.1,None,
,,,,,4,0,4,0,7,0,7,0,,,,,,,,,,,,,,,,up,4000,20,0.0008394020090612801,-1,0,-1,-10,678.2129665666764,None,677.1789046000049,677.4985599000065,678.1680639999977,678.5013108999992,679.1687893999915,679.5038054999895,up,1,2.7765851999865845,677.2342466999835,None,679.7388172000065,None,ofgjwt,001,0,fr,2022-04-27_16h09.07.986,3-AFC_adaptive_staircase_mess,2022.1.1,None,
,,,,,4,0,4,0,8,0,8,0,,,,,,,,,,,,,,,,up,4000,10,0.00026544222211549425,-1,0,-1,-10,682.5802109666731,None,681.5413157999865,681.8626066999859,682.53147419999,682.864402999985,683.5374282999837,683.8646239000082,up,1,2.9871476000116672,681.5999896999856,None,684.0983270999859,None,ofgjwt,001,0,fr,2022-04-27_16h09.07.986,3-AFC_adaptive_staircase_mess,2022.1.1,None,
,,,,,4,0,4,0,9,0,9,0,,,,,,,,,,,,,,,,up,4000,10,0.00026544222211549425,-1,0,-1,-10,687.1519810666543,None,686.104093300004,686.4304898999981,687.1021667000023,687.4385607999866,688.1043425999815,None,up,1,2.2308922999945935,686.1649276000098,None,None,None,ofgjwt,001,0,fr,2022-04-27_16h09.07.986,3-AFC_adaptive_staircase_mess,2022.1.1,None,
,,,,,4,0,4,0,10,0,10,0,,,,,,,,,,,,,,,,right,4000,0,8.394020090612804e-05,-1,0,-1,-10,691.94408806667,None,689.9170268999878,690.2387394999969,690.9093012000085,691.2337352999893,691.9274214000034,692.2416530000046,right,1,2.292053400014993,689.9748640999896,None,None,None,ofgjwt,001,0,fr,2022-04-27_16h09.07.986,3-AFC_adaptive_staircase_mess,2022.1.1,None,
,,,,,4,0,4,0,11,0,11,0,,,,,,,,,,,,,,,,up,4000,0,8.394020090612804e-05,-1,0,-1,-10,694.8051846666533,None,693.7701816000044,694.0901966000092,694.7591983999882,695.0911093000032,695.7754056999984,696.0996584999957,up,1,2.646202900010394,693.8286222000024,None,696.3057016000093,None,ofgjwt,001,0,fr,2022-04-27_16h09.07.986,3-AFC_adaptive_staircase_mess,2022.1.1,None,
,,,,,4,0,4,0,12,0,12,0,,,,,,,,,,,,,,,,up,4000,-10,2.6544222211549425e-05,-1,0,-1,-10,699.0191608666539,None,697.9909446999955,698.3193623999832,698.9744371999986,699.3160724999907,699.9902674999903,700.3117021000071,up,1,2.6030420000024606,698.0476863000076,None,700.5488217000093,None,ofgjwt,001,0,fr,2022-04-27_16h09.07.986,3-AFC_adaptive_staircase_mess,2022.1.1,None,
,,,,,4,0,4,0,13,0,13,0,,,,,,,,,,,,,,,,right,4000,-10,2.6544222211549425e-05,-1,0,-1,-10,704.1792221666585,None,702.1384241000051,702.4665271999838,703.1298154999968,703.4622603000025,704.1325238999852,704.457571499981,right,1,2.792650599993067,702.1942593999847,None,704.6915338999825,None,ofgjwt,001,0,fr,2022-04-27_16h09.07.986,3-AFC_adaptive_staircase_mess,2022.1.1,None,
,,,,,4,0,4,0,14,0,14,0,,,,,,,,,,,,,,,,left,4000,-20,8.394020090612804e-06,-1,0,-1,-10,706.5477326666626,None,706.5014244999911,706.8322997000068,707.4993095999816,707.8228855000052,708.4923009999911,708.8286617999838,left,1,4.762979699997231,706.560442499991,None,709.0629474000016,None,ofgjwt,001,0,fr,2022-04-27_16h09.07.986,3-AFC_adaptive_staircase_mess,2022.1.1,None,
,,,,,4,0,4,0,15,0,15,0,,,,,,,,,,,,,,,,left,4000,-20,8.394020090612804e-06,-1,0,-1,-10,712.8708545666634,None,712.8541878999968,713.1662658999849,713.8464961999853,714.1735635999939,714.8474249999854,715.1744117999915,right,0,2.984529199980898,712.8823697000043,None,715.3789323999954,None,ofgjwt,001,0,fr,2022-04-27_16h09.07.986,3-AFC_adaptive_staircase_mess,2022.1.1,None,
,,,,,4,0,4,0,16,0,16,0,,,,,,,,,,,,,,,,up,4000,-15,1.4926913094589802e-05,1,1,1,5,718.3836165666619,None,717.3588560000062,717.6880167000054,718.3669498999952,718.7020429999975,719.3527922999929,719.6828150000074,left,0,3.6185021999990568,717.4167320999841,None,719.9157096999988,None,ofgjwt,001,0,fr,2022-04-27_16h09.07.986,3-AFC_adaptive_staircase_mess,2022.1.1,None,
,,,,,4,0,4,0,17,0,17,0,,,,,,,,,,,,,,,,right,4000,-10,2.6544222211549425e-05,1,1,1,5,724.5725204666708,None,722.5391827999847,722.8664245999826,723.5418677999987,723.8548574000015,724.5276536000019,724.8674633000046,right,1,2.6560201999964193,722.6033745000022,None,725.0992406999867,None,ofgjwt,001,0,fr,2022-04-27_16h09.07.986,3-AFC_adaptive_staircase_mess,2022.1.1,None,
,,,,,4,0,4,0,18,0,18,0,,,,,,,,,,,,,,,,up,4000,-10,2.6544222211549425e-05,1,1,1,5,727.8108903666764,None,726.7736781999993,727.1075110000093,727.764151499985,728.0945310000097,728.7763946999912,729.1088073999854,up,1,2.7246201999951154,726.8061929999967,None,729.3177435999969,None,ofgjwt,001,0,fr,2022-04-27_16h09.07.986,3-AFC_adaptive_staircase_mess,2022.1.1,None,
,,,,,4,0,4,0,19,0,19,0,,,,,,,,,,,,,,,,left,4000,-20,8.394020090612804e-06,-1,2,-1,-5.0,731.0834430666621,None,731.0667763999954,731.4111674999876,732.0693024999928,732.4025532999949,733.049359800003,733.3804589000065,up,0,2.54617529999814,731.0965940000024,None,733.6195696000068,None,ofgjwt,001,0,fr,2022-04-27_16h09.07.986,3-AFC_adaptive_staircase_mess,2022.1.1,None,
,,,,,4,0,4,0,20,0,20,0,,,,,,,,,,,,,,,,right,4000,-17.5,1.11936056928417e-05,1,3,1,2.5,737.1916284666552,None,735.1637181999977,735.478016100009,736.1648084000044,736.4959826999984,737.145277899981,737.4895315000031,up,0,2.674090199987404,735.1933239999926,None,737.7093615999911,None,ofgjwt,001,0,fr,2022-04-27_16h09.07.986,3-AFC_adaptive_staircase_mess,2022.1.1,None,
,,,,,4,0,4,0,21,0,21,0,,,,,,,,,,,,,,,,up,4000,-15.0,1.4926913094589802e-05,1,3,1,2.5,740.4241577666583,None,739.3775298999972,739.7107287999825,740.377867800009,740.7279969000083,741.3764013999898,741.7064255999867,up,1,2.670879099983722,739.4357729000039,None,741.9405900999845,None,ofgjwt,001,0,fr,2022-04-27_16h09.07.986,3-AFC_adaptive_staircase_mess,2022.1.1,None,
,,,,,4,0,4,0,22,0,22,0,,,,,,,,,,,,,,,,up,4000,-15.0,1.4926913094589802e-05,1,3,1,2.5,744.6696745666598,None,743.622867500002,743.9530089999898,744.6234336000052,744.9630173000041,745.6288198999828,745.9624677999818,up,1,2.7614238999958616,743.681035799993,None,746.1742887999862,None,ofgjwt,001,0,fr,2022-04-27_16h09.07.986,3-AFC_adaptive_staircase_mess,2022.1.1,None,
,,,,,4,0,4,0,23,0,23,0,,,,,,,,,,,,,,,,left,4000,-20.0,8.394020090612804e-06,-1,4,-1,-5.0,747.9924150666668,None,747.9757484000002,748.2928490999911,748.9644179999887,749.29537539999,749.9684913000092,750.3050938000088,up,0,2.853181999991648,748.0059294000093,None,750.5144358999969,None,ofgjwt,001,0,fr,2022-04-27_16h09.07.986,3-AFC_adaptive_staircase_mess,2022.1.1,None,
,,,,,4,0,4,0,24,0,24,0,,,,,,,,,,,,,,,,right,4000,-17.5,1.11936056928417e-05,1,5,1,2.5,754.4074276666545,None,752.3901364000048,752.7237550999853,753.3824296999956,753.6999916000059,754.3907609999878,754.7067971999932,up,0,2.8549408999970183,752.4200296000054,None,754.9231070000096,None,ofgjwt,001,0,fr,2022-04-27_16h09.07.986,3-AFC_adaptive_staircase_mess,2022.1.1,None,
,,,,,4,0,4,0,25,0,25,0,,,,,,,,,,,,,,,,right,4000,-15.0,1.4926913094589802e-05,1,5,1,2.5,758.7973617666614,None,756.7709817999857,757.1034021000087,757.7673418000049,758.0963394999853,758.7806950999948,759.0906590000086,up,0,2.9057335999968927,756.8326271999977,None,759.3238275999902,None,ofgjwt,001,0,fr,2022-04-27_16h09.07.986,3-AFC_adaptive_staircase_mess,2022.1.1,None,
,,,,,4,0,4,0,26,0,26,0,,,,,,,,,,,,,,,,left,4000,-12.5,1.9905358527674868e-05,1,5,1,2.5,761.2870168666743,None,761.2703502000077,761.5813680999854,762.2766619999893,762.6100271999894,763.2645551000023,763.5937567999936,left,1,2.6308893999957945,761.299259899999,None,763.8105629000056,None,ofgjwt,001,0,fr,2022-04-27_16h09.07.986,3-AFC_adaptive_staircase_mess,2022.1.1,None,
,,,,,4,0,4,0,27,0,27,0,,,,,,,,,,,,,,,,up,4000,-12.5,1.9905358527674868e-05,1,5,1,2.5,766.4891084666635,None,765.4479784999858,765.7802231000096,766.4410403000074,766.7858978000004,767.4499952000042,767.7856933999865,up,1,2.658879700000398,765.5126484000066,None,767.998515299987,None,ofgjwt,001,0,fr,2022-04-27_16h09.07.986,3-AFC_adaptive_staircase_mess,2022.1.1,None,
,,,,,4,0,4,0,28,0,28,0,,,,,,,,,,,,,,,,up,4000,-17.5,1.11936056928417e-05,-1,6,-1,-5.0,770.7174405666631,None,769.6759008000081,770.0119300000079,770.6742126999889,771.0175296000089,771.6783933999832,772.0098199000058,up,1,2.791351099993335,769.7314899000048,None,772.2620801999874,None,ofgjwt,001,0,fr,2022-04-27_16h09.07.986,3-AFC_adaptive_staircase_mess,2022.1.1,None,
,,,,,5,0,5,0,0,0,0,0,,,,,,,,,,,,,[],[],5,up,6000,50,0.03664122665694519,0,0,-1,5,775.0742257666755,None,774.0249421999906,774.361509099981,775.0253217999998,775.3612191999855,776.0478248999862,776.3855450999981,up,1,2.7876848000159953,774.0870009000064,None,776.5927521999984,None,ofgjwt,001,0,fr,2022-04-27_16h09.07.986,3-AFC_adaptive_staircase_mess,2022.1.1,None,
,,,,,5,0,5,0,1,0,1,0,,,,,,,,,,,,,,,,up,6000,50,0.03664122665694519,0,0,-1,5,779.4266591666712,None,778.3789473999932,778.7244461000082,779.3809099000064,779.7026883999933,780.3955647999828,780.7291487999901,up,1,2.3567630000179633,778.4373439000046,None,None,None,ofgjwt,001,0,fr,2022-04-27_16h09.07.986,3-AFC_adaptive_staircase_mess,2022.1.1,None,
,,,,,5,0,5,0,2,0,2,0,,,,,,,,,,,,,,,,left,6000,40,0.01158697324984239,-1,0,-1,-10,782.3314625666574,None,782.285636399989,782.6283316999907,783.2918458000058,783.6326861999987,784.2942986999988,784.6305845000024,left,1,2.3855321999872103,782.3445941999962,None,None,None,ofgjwt,001,0,fr,2022-04-27_16h09.07.986,3-AFC_adaptive_staircase_mess,2022.1.1,None,
,,,,,5,0,5,0,3,0,3,0,,,,,,,,,,,,,,,,right,6000,40,0.01158697324984239,-1,0,-1,-10,788.2821964666693,None,786.2621221999871,786.6031255999987,787.2663248000026,787.6017411999928,788.2655298000027,788.6096820000093,right,1,2.3752519999979995,786.2914211000025,None,None,None,ofgjwt,001,0,fr,2022-04-27_16h09.07.986,3-AFC_adaptive_staircase_mess,2022.1.1,None,
,,,,,5,0,5,0,4,0,4,0,,,,,,,,,,,,,,,,up,6000,30,0.003664122665694519,-1,0,-1,-10,791.2107685666745,None,790.1751867999847,790.5063536000089,791.1657169999962,791.5057494000066,792.1588229000045,792.5021913000091,up,1,2.6697989999956917,790.2050113999867,None,792.7413785999815,None,ofgjwt,001,0,fr,2022-04-27_16h09.07.986,3-AFC_adaptive_staircase_mess,2022.1.1,None,
,,,,,5,0,5,0,5,0,5,0,,,,,,,,,,,,,,,,right,6000,30,0.003664122665694519,-1,0,-1,-10,796.3991986666554,None,794.3802557000017,794.715040399984,795.372818600008,795.702922299999,796.3825319999887,796.714396299998,right,1,2.78396130001056,794.4104546000017,None,796.927315399982,None,ofgjwt,001,0,fr,2022-04-27_16h09.07.986,3-AFC_adaptive_staircase_mess,2022.1.1,None,
,,,,,5,0,5,0,6,0,6,0,,,,,,,,,,,,,,,,right,6000,20,0.0011586973249842392,-1,0,-1,-10,800.7689091666582,None,798.7227886999899,799.049781699985,799.7120297999936,800.0411075000011,800.7211276000016,801.0387341000023,right,1,2.4584415999997873,798.7841233999934,None,801.2760505999904,None,ofgjwt,001,0,fr,2022-04-27_16h09.07.986,3-AFC_adaptive_staircase_mess,2022.1.1,None,
,,,,,5,0,5,0,7,0,7,0,,,,,,,,,,,,,,,,right,6000,20,0.0011586973249842392,-1,0,-1,-10,804.815701766671,None,802.7789552999893,803.114714299998,803.7928038999962,804.1178094999923,804.7699804999866,805.1030387000064,right,1,2.628517400007695,802.8385845999874,None,805.3405760999885,None,ofgjwt,001,0,fr,2022-04-27_16h09.07.986,3-AFC_adaptive_staircase_mess,2022.1.1,None,
,,,,,5,0,5,0,8,0,8,0,,,,,,,,,,,,,,,,up,6000,10,0.00036641226656945183,-1,0,-1,-10,808.0355034666757,None,807.0163304999878,807.342166699993,807.9892992999812,808.326493600005,809.001039499999,809.3292309999815,up,1,2.707001400005538,807.048702,None,809.563929099997,None,ofgjwt,001,0,fr,2022-04-27_16h09.07.986,3-AFC_adaptive_staircase_mess,2022.1.1,None,
,,,,,5,0,5,0,9,0,9,0,,,,,,,,,,,,,,,,left,6000,10,0.00036641226656945183,-1,0,-1,-10,811.2949643666545,None,811.2484243999934,811.5828669999901,812.2568243999849,812.5845610999968,813.2598646999977,813.5930247000069,left,1,2.381871300021885,811.3079796000093,None,None,None,ofgjwt,001,0,fr,2022-04-27_16h09.07.986,3-AFC_adaptive_staircase_mess,2022.1.1,None,
,,,,,5,0,5,0,10,0,10,0,,,,,,,,,,,,,,,,left,6000,0,0.00011586973249842387,-1,0,-1,-10,815.2441838666603,None,815.2275171999936,815.5665676000062,816.2299624999869,816.5620221999998,817.2208328999986,817.5431977999979,left,1,2.7576434000220615,815.2533992000099,None,817.7811046999996,None,ofgjwt,001,0,fr,2022-04-27_16h09.07.986,3-AFC_adaptive_staircase_mess,2022.1.1,None,
,,,,,5,0,5,0,11,0,11,0,,,,,,,,,,,,,,,,left,6000,0,0.00011586973249842387,-1,0,-1,-10,819.5629966666495,None,819.5463299999828,819.87926039999,820.5309178000025,820.8542203999823,821.5468499999843,821.8745769000088,left,1,2.947156600013841,819.5751875999849,None,822.0789710999816,None,ofgjwt,001,0,fr,2022-04-27_16h09.07.986,3-AFC_adaptive_staircase_mess,2022.1.1,None,
,,,,,5,0,5,0,12,0,12,0,,,,,,,,,,,,,,,,up,6000,-10,3.664122665694518e-05,-1,0,-1,-10,825.045578466674,None,824.0202709999867,824.3503834999865,825.0289118000073,825.3615073999972,826.0343960000027,826.3666073000059,up,1,2.9557536999927834,824.0787771999894,None,826.5696179000079,None,ofgjwt,001,0,fr,2022-04-27_16h09.07.986,3-AFC_adaptive_staircase_mess,2022.1.1,None,
,,,,,5,0,5,0,13,0,13,0,,,,,,,,,,,,,,,,up,6000,-10,3.664122665694518e-05,-1,0,-1,-10,829.605342066676,None,828.5623625000007,828.8881276999891,829.5591032000084,829.8898640999978,830.5653586999979,830.889889699989,up,1,2.824377800017828,828.5940381999826,None,831.0965619999915,None,ofgjwt,001,0,fr,2022-04-27_16h09.07.986,3-AFC_adaptive_staircase_mess,2022.1.1,None,
,,,,,5,0,5,0,14,0,14,0,,,,,,,,,,,,,,,,left,6000,-20,1.1586973249842387e-05,-1,0,-1,-10,832.9585844666619,None,832.9127532999846,833.247408700001,833.9191148999962,834.247100699984,834.9194230999856,835.2451968000096,left,1,2.5673530000203755,832.9630480000051,None,835.4549077999836,None,ofgjwt,001,0,fr,2022-04-27_16h09.07.986,3-AFC_adaptive_staircase_mess,2022.1.1,None,
,,,,,5,0,5,0,15,0,15,0,,,,,,,,,,,,,,,,right,6000,-20,1.1586973249842387e-05,-1,0,-1,-10,839.0642778666554,None,837.0385144999891,837.3672862999956,838.0368087999814,838.3675855000038,839.0476111999888,839.3689462000038,left,0,2.686663900007261,837.0678637000092,None,839.583198599983,None,ofgjwt,001,0,fr,2022-04-27_16h09.07.986,3-AFC_adaptive_staircase_mess,2022.1.1,None,
,,,,,5,0,5,0,16,0,16,0,,,,,,,,,,,,,,,,up,6000,-15,2.0604875954866497e-05,1,1,1,5,842.3091997666672,None,841.2775093000091,841.6145603999903,842.2925331000006,842.6295764000097,843.2790610000084,843.6168928999978,up,1,3.1042538000037894,841.3376420999994,None,843.8216205000062,None,ofgjwt,001,0,fr,2022-04-27_16h09.07.986,3-AFC_adaptive_staircase_mess,2022.1.1,None,
,,,,,5,0,5,0,17,0,17,0,,,,,,,,,,,,,,,,right,6000,-15,2.0604875954866497e-05,1,1,1,5,848.023867266664,None,845.9742762999958,846.3255081999814,846.9975190999976,847.3267065999971,847.9743465000065,848.3148289000092,right,1,2.7251367999997456,846.0386449999933,None,848.5473429999838,None,ofgjwt,001,0,fr,2022-04-27_16h09.07.986,3-AFC_adaptive_staircase_mess,2022.1.1,None,
,,,,,5,0,5,0,18,0,18,0,,,,,,,,,,,,,,,,left,6000,-25,6.5158338922614935e-06,-1,2,-1,-5.0,850.3170399666744,None,850.2706508999981,850.5992378999945,851.2686484000005,851.5958125999896,852.2708285999834,852.6164922000025,right,0,2.7548152999952435,850.3282620999962,None,852.8227264999878,None,ofgjwt,001,0,fr,2022-04-27_16h09.07.986,3-AFC_adaptive_staircase_mess,2022.1.1,None,
,,,,,5,0,5,0,19,0,19,0,,,,,,,,,,,,,,,,left,6000,-22.5,8.689004143746873e-06,1,3,1,2.5,854.6266716666617,None,854.5801128000021,854.9053989000095,855.5776225999871,855.9033191000053,856.580514900008,856.9017922999919,right,0,2.6829153999860864,854.6394090999966,None,857.1359513000061,None,ofgjwt,001,0,fr,2022-04-27_16h09.07.986,3-AFC_adaptive_staircase_mess,2022.1.1,None,
,,,,,5,0,5,0,20,0,20,0,,,,,,,,,,,,,,,,left,6000,-20.0,1.1586973249842387e-05,1,3,1,2.5,858.8651868666677,None,858.8179028999875,859.145973000006,859.8127800000075,860.1376243999985,860.8091706999985,861.1343976999924,left,1,3.5968464000034146,858.8774262999941,None,861.3688884000003,None,ofgjwt,001,0,fr,2022-04-27_16h09.07.986,3-AFC_adaptive_staircase_mess,2022.1.1,None,
,,,,,5,0,5,0,21,0,21,0,,,,,,,,,,,,,,,,up,6000,-20.0,1.1586973249842387e-05,1,3,1,2.5,865.0210818666712,None,863.9862847999902,864.3085662999947,865.0044152000046,865.3388297999918,865.9824388999841,866.2964764999924,right,0,3.2940608999924734,864.0442816999857,None,866.5293246000074,None,ofgjwt,001,0,fr,2022-04-27_16h09.07.986,3-AFC_adaptive_staircase_mess,2022.1.1,None,
,,,,,5,0,5,0,22,0,22,0,,,,,,,,,,,,,,,,right,6000,-17.5,1.5451477162567947e-05,1,3,1,2.5,870.8809042666728,None,868.8195729999861,869.1293280999816,869.8298956000071,870.1691373999929,870.8321821999853,871.1656955000071,left,0,2.910975699982373,868.8764072000049,None,871.4028586999921,None,ofgjwt,001,0,fr,2022-04-27_16h09.07.986,3-AFC_adaptive_staircase_mess,2022.1.1,None,
,,,,,5,0,5,0,23,0,23,0,,,,,,,,,,,,,,,,right,6000,-15.0,2.0604875954866497e-05,1,3,1,2.5,875.3679837666607,875.5826911999902,873.3338358000037,873.6645989999815,874.3253283000086,874.6490331999958,875.3190119999927,875.6384696000023,left,0,2.936425399995642,873.3629779999901,None,875.8746957999829,None,ofgjwt,001,0,fr,2022-04-27_16h09.07.986,3-AFC_adaptive_staircase_mess,2022.1.1,None,
,,,,,5,0,5,0,24,0,24,0,,,,,,,,,,,,,,,,left,6000,-12.5,2.7477043692881217e-05,1,3,1,2.5,877.8571614666764,None,877.8123505999974,878.1418303999817,878.8141738999984,879.1351666999981,879.8076290999888,880.1314958999865,left,1,2.796777099982137,877.8700569999928,None,880.3658364999865,None,ofgjwt,001,0,fr,2022-04-27_16h09.07.986,3-AFC_adaptive_staircase_mess,2022.1.1,None,
,,,,,5,0,5,0,25,0,25,0,,,,,,,,,,,,,,,,right,6000,-12.5,2.7477043692881217e-05,1,3,1,2.5,884.2085022666763,None,882.1784912000003,882.5023488999868,883.1721527999907,883.4951231000014,884.1918356000097,884.5276890000096,up,0,3.215196000004653,882.2363641999837,None,884.7348740999878,None,ofgjwt,001,0,fr,2022-04-27_16h09.07.986,3-AFC_adaptive_staircase_mess,2022.1.1,None,
,,,,,5,0,5,0,26,0,26,0,,,,,,,,,,,,,,,,right,6000,-10.0,3.664122665694518e-05,1,3,1,2.5,888.9907883666494,None,886.9524371000007,887.2863408999983,887.9512657999876,888.2756062999833,888.9460636999866,889.2733005000046,right,1,2.824786300014239,887.0106688000087,None,889.508497999981,None,ofgjwt,001,0,fr,2022-04-27_16h09.07.986,3-AFC_adaptive_staircase_mess,2022.1.1,None,
,,,,,5,0,5,0,27,0,27,0,,,,,,,,,,,,,,,,up,6000,-10.0,3.664122665694518e-05,1,3,1,2.5,892.3613471666506,None,891.3208698999952,891.6400573999854,892.3123730999941,892.6404419000028,893.3127380000078,893.6425237999938,up,1,2.778134499967564,891.3766219000099,None,893.8717234999931,None,ofgjwt,001,0,fr,2022-04-27_16h09.07.986,3-AFC_adaptive_staircase_mess,2022.1.1,None,
,,,,,5,0,5,0,28,0,28,0,,,,,,,,,,,,,,,,up,6000,-15.0,2.0604875954866497e-05,-1,4,-1,-5.0,896.7035959666575,None,895.6619403999939,895.9885444999964,896.6589185000048,896.9823686000018,897.651720599999,897.9739722000086,up,1,2.8505628000129946,895.7200811000075,None,898.2078833999985,None,ofgjwt,001,0,fr,2022-04-27_16h09.07.986,3-AFC_adaptive_staircase_mess,2022.1.1,None,
,,,,,5,0,5,0,29,0,29,0,,,,,,,,,,,,,,,,up,6000,-15.0,2.0604875954866497e-05,-1,4,-1,-5.0,901.1090906666689,None,900.0859955000051,900.3972034000035,901.0924240000022,901.4309771999833,902.0997616999957,902.4456967999868,up,1,2.614527099998668,900.1477699000097,None,902.6480069000099,None,ofgjwt,001,0,fr,2022-04-27_16h09.07.986,3-AFC_adaptive_staircase_mess,2022.1.1,None,
,,,,,5,0,5,0,30,0,30,0,,,,,,,,,,,,,,,,left,6000,-20.0,1.1586973249842387e-05,-1,4,-1,-5.0,904.3208812666746,None,904.2767220999813,904.5997571999906,905.2710418000061,905.5907089999819,906.2579671999847,906.5815238000068,left,1,2.5403597000113223,904.3336807999876,None,906.8150011999824,None,ofgjwt,001,0,fr,2022-04-27_16h09.07.986,3-AFC_adaptive_staircase_mess,2022.1.1,None,
,,,,,5,0,5,0,31,0,31,0,,,,,,,,,,,,,,,,right,6000,-20.0,1.1586973249842387e-05,-1,4,-1,-5.0,910.4234919666526,None,908.3884403999837,908.7124324000033,909.3712945999869,909.7065868999925,910.3771602000052,910.7076276000007,right,1,2.6958825000037905,908.4177348999947,None,910.9156235999835,None,ofgjwt,001,0,fr,2022-04-27_16h09.07.986,3-AFC_adaptive_staircase_mess,2022.1.1,None,
,,,,,5,0,5,0,32,0,32,0,,,,,,,,,,,,,,,,up,6000,-25.0,6.5158338922614935e-06,-1,4,-1,-5.0,913.661829666675,None,912.6262731000024,912.9507737999957,913.6163229999947,913.9580177000025,914.6219984999916,914.9469495000085,left,0,2.966710899985628,912.6757395000022,None,915.1822233999847,None,ofgjwt,001,0,fr,2022-04-27_16h09.07.986,3-AFC_adaptive_staircase_mess,2022.1.1,None,
,,,,,5,0,5,0,33,0,33,0,,,,,,,,,,,,,,,,up,6000,-22.5,8.689004143746873e-06,1,5,1,2.5,918.2088690666753,918.4419019999914,917.1657171999977,917.4941252999997,918.1621397999988,918.5019857999869,919.1669014999934,919.5009240999934,right,0,2.608468799997354,917.226514799986,None,919.7271846999938,None,ofgjwt,001,0,fr,2022-04-27_16h09.07.986,3-AFC_adaptive_staircase_mess,2022.1.1,None,
,,,,,5,0,5,0,34,0,34,0,,,,,,,,,,,,,,,,up,6000,-20.0,1.1586973249842387e-05,1,5,1,2.5,922.3696893666677,None,921.3327549000096,921.6600201999827,922.3248286999878,922.6532748999889,923.3220397999976,923.6359166000038,right,0,2.935704799980158,921.3955076999846,None,923.9018151999917,None,ofgjwt,001,0,fr,2022-04-27_16h09.07.986,3-AFC_adaptive_staircase_mess,2022.1.1,None,
,,,,,5,0,5,0,35,0,35,0,,,,,,,,,,,,,,,,left,6000,-17.5,1.5451477162567947e-05,1,5,1,2.5,925.8856477666743,None,925.8400471000059,926.1746163000062,926.8447779999988,927.1702273999981,927.8388978999865,928.1607244999905,left,1,2.8736413000151515,925.8887620999885,None,928.3958053999813,None,ofgjwt,001,0,fr,2022-04-27_16h09.07.986,3-AFC_adaptive_staircase_mess,2022.1.1,None,
,,,,,5,0,5,0,36,0,36,0,,,,,,,,,,,,,,,,up,6000,-17.5,1.5451477162567947e-05,1,5,1,2.5,931.3195329666526,None,930.2754023000016,930.6040713999828,931.2726999000006,931.6131249000027,932.2788980999903,932.5957527999999,right,0,3.258413200004725,930.3364759999968,None,932.8406503000006,None,ofgjwt,001,0,fr,2022-04-27_16h09.07.986,3-AFC_adaptive_staircase_mess,2022.1.1,None,
,,,,,5,0,5,0,37,0,37,0,,,,,,,,,,,,,,,,left,6000,-15.0,2.0604875954866497e-05,1,5,1,2.5,935.1648230666508,None,935.1202326999919,935.453273799998,936.1217188999872,936.4464886999922,937.108659999998,937.4293865000072,left,1,2.6858366999949794,935.1806917999929,None,937.6588737999846,None,ofgjwt,001,0,fr,2022-04-27_16h09.07.986,3-AFC_adaptive_staircase_mess,2022.1.1,None,
,,,,,5,0,5,0,38,0,38,0,,,,,,,,,,,,,,,,left,6000,-15.0,2.0604875954866497e-05,1,5,1,2.5,939.4187936666751,None,939.4021270000085,939.7308276999975,940.4000434000045,940.7188407999929,941.3900682000094,941.715020100004,left,1,2.613848099979805,939.4285608000064,None,941.9458645999839,None,ofgjwt,001,0,fr,2022-04-27_16h09.07.986,3-AFC_adaptive_staircase_mess,2022.1.1,None,
,,,,,5,0,5,0,39,0,39,0,,,,,,,,,,,,,,,,up,6000,-20.0,1.1586973249842387e-05,-1,6,-1,-5.0,944.6054632666676,None,943.5671594000014,943.8883938000072,944.5593653999968,944.8941255999962,945.5611537999939,945.8866606999945,left,0,3.089871799980756,943.6250842000009,None,946.1181630000065,None,ofgjwt,001,0,fr,2022-04-27_16h09.07.986,3-AFC_adaptive_staircase_mess,2022.1.1,None,
,,,,,6,0,6,0,0,0,0,0,,,,,,,,,,,,,[],[],5,right,8000,50,0.05740768107484415,0,0,-1,5,950.2880392666596,None,948.227775300009,948.5528088999854,949.2495971999888,949.5734799999918,950.241529699997,950.5716406999854,right,1,2.664956299995538,948.2895658999914,None,950.7772294000024,None,ofgjwt,001,0,fr,2022-04-27_16h09.07.986,3-AFC_adaptive_staircase_mess,2022.1.1,None,
,,,,,6,0,6,0,1,0,1,0,,,,,,,,,,,,,,,,left,8000,50,0.05740768107484415,0,0,-1,5,952.51564276667,None,952.4704885999963,952.8064926000079,953.4735306999937,None,None,None,left,1,1.0004144000122324,952.5303715000045,None,None,None,ofgjwt,001,0,fr,2022-04-27_16h09.07.986,3-AFC_adaptive_staircase_mess,2022.1.1,None,
,,,,,6,0,6,0,2,0,2,0,,,,,,,,,,,,,,,,left,8000,40,0.018153902738505076,-1,0,-1,-10,955.0854859666763,None,955.0408991999866,955.3725332999893,None,None,None,None,left,1,0.6528396000212524,955.1012502000085,None,None,None,ofgjwt,001,0,fr,2022-04-27_16h09.07.986,3-AFC_adaptive_staircase_mess,2022.1.1,None,
,,,,,6,0,6,0,3,0,3,0,,,,,,,,,,,,,,,,left,8000,40,0.018153902738505076,-1,0,-1,-10,957.3267049666649,None,957.281261600001,957.6079929999833,None,None,None,None,left,1,0.7997496000025421,957.3386922999925,None,None,None,ofgjwt,001,0,fr,2022-04-27_16h09.07.986,3-AFC_adaptive_staircase_mess,2022.1.1,None,
,,,,,6,0,6,0,4,0,4,0,,,,,,,,,,,,,,,,up,8000,30,0.005740768107484416,-1,0,-1,-10,960.7039452666688,None,959.6516644000076,959.9844624999969,960.6566789000062,960.9779022999865,961.6306862666718,None,up,1,1.892576000012923,959.7176267000032,None,None,None,ofgjwt,001,0,fr,2022-04-27_16h09.07.986,3-AFC_adaptive_staircase_mess,2022.1.1,None,
,,,,,6,0,6,0,5,0,5,0,,,,,,,,,,,,,,,,up,8000,30,0.005740768107484416,-1,0,-1,-10,964.1632913666583,None,963.1282550999895,963.4435939999821,964.1466246999917,964.4808958999929,None,None,up,1,1.4854795999708585,963.197751700005,None,None,None,ofgjwt,001,0,fr,2022-04-27_16h09.07.986,3-AFC_adaptive_staircase_mess,2022.1.1,None,
,,,,,6,0,6,0,6,0,6,0,,,,,,,,,,,,,,,,up,8000,20,0.0018153902738505074,-1,0,-1,-10,967.2308541666755,None,966.179994999984,966.5123413999972,967.184889199998,967.5176468999998,None,None,up,1,1.589238699991256,966.244497000007,None,None,None,ofgjwt,001,0,fr,2022-04-27_16h09.07.986,3-AFC_adaptive_staircase_mess,2022.1.1,None,
,,,,,6,0,6,0,7,0,7,0,,,,,,,,,,,,,,,,left,8000,20,0.0018153902738505074,-1,0,-1,-10,969.371748766662,None,969.325886400009,969.6593334999925,None,None,None,None,left,1,0.6586407999857329,969.3838410000026,None,None,None,ofgjwt,001,0,fr,2022-04-27_16h09.07.986,3-AFC_adaptive_staircase_mess,2022.1.1,None,
,,,,,6,0,6,0,8,0,8,0,,,,,,,,,,,,,,,,left,8000,10,0.0005740768107484417,-1,0,-1,-10,971.6122884666586,None,971.5660097000073,971.8995441999868,None,None,None,None,left,1,0.6089043999963906,971.6254162999976,None,None,None,ofgjwt,001,0,fr,2022-04-27_16h09.07.986,3-AFC_adaptive_staircase_mess,2022.1.1,None,
,,,,,6,0,6,0,9,0,9,0,,,,,,,,,,,,,,,,right,8000,10,0.0005740768107484417,-1,0,-1,-10,975.7799768666484,None,973.742748299992,974.0642348999972,974.7323009999818,975.0634491000092,975.7341257999942,976.0620305000048,right,1,2.400035599974217,973.8023143000028,None,None,None,ofgjwt,001,0,fr,2022-04-27_16h09.07.986,3-AFC_adaptive_staircase_mess,2022.1.1,None,
,,,,,6,0,6,0,10,0,10,0,,,,,,,,,,,,,,,,left,8000,0,0.0001815390273850507,-1,0,-1,-10,977.7716765666594,None,977.7240145999822,978.0647852999973,None,None,None,None,left,1,0.656814799993299,977.7855755999917,None,None,None,ofgjwt,001,0,fr,2022-04-27_16h09.07.986,3-AFC_adaptive_staircase_mess,2022.1.1,None,
,,,,,6,0,6,0,11,0,11,0,,,,,,,,,,,,,,,,left,8000,0,0.0001815390273850507,-1,0,-1,-10,979.9915596666726,None,979.9467982999922,980.2703689000045,None,None,None,None,left,1,0.32795470001292415,980.0028018000012,None,None,None,ofgjwt,001,0,fr,2022-04-27_16h09.07.986,3-AFC_adaptive_staircase_mess,2022.1.1,None,
,,,,,6,0,6,0,12,0,12,0,,,,,,,,,,,,,,,,left,8000,-10,5.740768107484415e-05,-1,0,-1,-10,981.8851941666546,None,981.868527499988,982.196724199981,982.8498247999814,983.1677046999976,983.8636883999861,984.1983166999999,right,0,2.8349163999955636,981.8960468999867,None,984.413055699988,None,ofgjwt,001,0,fr,2022-04-27_16h09.07.986,3-AFC_adaptive_staircase_mess,2022.1.1,None,
,,,,,6,0,6,0,13,0,13,0,,,,,,,,,,,,,,,,right,8000,-5,0.00010208689723347648,1,1,1,5,988.2833616666651,None,986.2460556000005,986.567493599985,987.2345739000011,987.5673462999985,988.2352538999985,988.5738872000074,right,1,2.5390071000147145,986.3037715999817,None,988.8076055999845,None,ofgjwt,001,0,fr,2022-04-27_16h09.07.986,3-AFC_adaptive_staircase_mess,2022.1.1,None,
,,,,,6,0,6,0,14,0,14,0,,,,,,,,,,,,,,,,up,8000,-5,0.00010208689723347648,1,1,1,5,991.4102501666678,None,990.3880935999914,990.7117111999833,991.3615176999883,991.6768791000068,992.3850563000015,992.7066773999832,left,0,3.113880599994445,990.4172094000096,None,992.9123072999937,None,ofgjwt,001,0,fr,2022-04-27_16h09.07.986,3-AFC_adaptive_staircase_mess,2022.1.1,None,
,,,,,6,0,6,0,15,0,15,0,,,,,,,,,,,,,,,,left,8000,0,0.0001815390273850507,1,1,1,5,995.0822006666606,None,995.0380408999918,995.3775341,None,None,None,None,left,1,0.6895425999828149,995.0967575999966,None,None,None,ofgjwt,001,0,fr,2022-04-27_16h09.07.986,3-AFC_adaptive_staircase_mess,2022.1.1,None,
,,,,,6,0,6,0,16,0,16,0,,,,,,,,,,,,,,,,up,8000,0,0.0001815390273850507,1,1,1,5,None,None,997.3047487000003,997.6264193000097,None,None,None,None,left,0,0.3737688999972306,997.3327627999824,None,None,None,ofgjwt,001,0,fr,2022-04-27_16h09.07.986,3-AFC_adaptive_staircase_mess,2022.1.1,None,
,,,,,6,0,6,0,17,0,17,0,,,,,,,,,,,,,,,,up,8000,5,0.00032282711451732784,1,1,1,5,1000.2272065666659,None,999.1964791000064,999.5192497999815,1000.2105398999993,1000.5490417999972,1001.1938652999816,1001.5151688999904,up,1,2.308013200003188,999.2551425999845,None,None,None,ofgjwt,001,0,fr,2022-04-27_16h09.07.986,3-AFC_adaptive_staircase_mess,2022.1.1,None,
,,,,,6,0,6,0,18,0,18,0,,,,,,,,,,,,,,,,up,8000,5,0.00032282711451732784,1,1,1,5,1004.1149722666635,None,1003.097076999984,1003.4272414000006,1004.0983055999968,1004.4301144999918,1005.0795489999873,1005.414835500007,up,1,2.551960600016173,1003.1547000999853,None,1005.6471048999811,None,ofgjwt,001,0,fr,2022-04-27_16h09.07.986,3-AFC_adaptive_staircase_mess,2022.1.1,None,
,,,,,6,0,6,0,19,0,19,0,,,,,,,,,,,,,,,,right,8000,-5,0.00010208689723347648,-1,2,-1,-5.0,1009.2497526666596,None,1007.2216594000056,1007.5544238000002,1008.2348126999859,1008.5618528999912,1009.2330859999929,1009.5582672999881,right,1,2.5361227999965195,1007.2822837999847,None,1009.7681907000078,None,ofgjwt,001,0,fr,2022-04-27_16h09.07.986,3-AFC_adaptive_staircase_mess,2022.1.1,None,
,,,,,6,0,6,0,20,0,20,0,,,,,,,,,,,,,,,,right,8000,-5,0.00010208689723347648,-1,2,-1,-5.0,1013.3730948666673,1013.6052373999846,1011.3231949000037,1011.6479753000021,1012.3366804999823,1012.6713289000036,1013.3264607999881,1013.6658403000038,right,1,2.692802700010361,1011.3811888000055,None,1013.873439899995,None,ofgjwt,001,0,fr,2022-04-27_16h09.07.986,3-AFC_adaptive_staircase_mess,2022.1.1,None,
,,,,,6,0,6,0,21,0,21,0,,,,,,,,,,,,,,,,up,8000,-10.0,5.740768107484415e-05,-1,2,-1,-5.0,1016.627082266674,None,1015.5944689000025,1015.9278063999955,1016.6104156000074,1016.9524959999835,1017.5987131999864,1017.9290966999833,up,1,2.7536529999924824,1015.6568454999942,None,1018.167294599989,None,ofgjwt,001,0,fr,2022-04-27_16h09.07.986,3-AFC_adaptive_staircase_mess,2022.1.1,None,
,,,,,6,0,6,0,22,0,22,0,,,,,,,,,,,,,,,,right,8000,-10.0,5.740768107484415e-05,-1,2,-1,-5.0,1021.9820983666616,None,1019.9436704999825,1020.2705494999827,1020.9490469000011,1021.2841343999899,1021.9351310000056,1022.2748517,right,1,2.6929805999970995,1019.9737946999958,None,1022.4817201999831,None,ofgjwt,001,0,fr,2022-04-27_16h09.07.986,3-AFC_adaptive_staircase_mess,2022.1.1,None,
,,,,,6,0,6,0,23,0,23,0,,,,,,,,,,,,,,,,left,8000,-15.0,3.228271145173278e-05,-1,2,-1,-5.0,1024.203718866662,None,1024.1870521999954,1024.5024918999989,1025.1841846999887,1025.5171793999907,1026.1610250000085,1026.4899002999882,left,1,2.993947400012985,1024.2169184999948,None,1026.7222238999966,None,ofgjwt,001,0,fr,2022-04-27_16h09.07.986,3-AFC_adaptive_staircase_mess,2022.1.1,None,
,,,,,6,0,6,0,24,0,24,0,,,,,,,,,,,,,,,,up,8000,-15.0,3.228271145173278e-05,-1,2,-1,-5.0,1029.7490110666588,None,1028.718015099992,1029.0580726999906,1029.7008521000098,1030.0462160999887,1030.710609200003,1031.0434731999994,right,0,2.9764735999924596,1028.7458065999963,None,1031.2498790999816,None,ofgjwt,001,0,fr,2022-04-27_16h09.07.986,3-AFC_adaptive_staircase_mess,2022.1.1,None,
,,,,,6,0,6,0,25,0,25,0,,,,,,,,,,,,,,,,right,8000,-12.5,4.304968760923004e-05,1,3,1,2.5,1035.2484578666665,None,1033.2037017999974,1033.5287896000082,1034.2143670000078,1034.547558899998,1035.202288600005,1035.5395654999884,right,1,2.6550712999887764,1033.2589811999933,None,1035.7820889999857,None,ofgjwt,001,0,fr,2022-04-27_16h09.07.986,3-AFC_adaptive_staircase_mess,2022.1.1,None,
,,,,,6,0,6,0,26,0,26,0,,,,,,,,,,,,,,,,right,8000,-12.5,4.304968760923004e-05,1,3,1,2.5,1039.4487693666636,None,1037.4137696999824,1037.7462356000033,1038.4208637999836,1038.7519431999826,1039.4022189999814,1039.7181243000086,left,0,3.9946116999781225,1037.470812799991,None,1039.9550716000085,None,ofgjwt,001,0,fr,2022-04-27_16h09.07.986,3-AFC_adaptive_staircase_mess,2022.1.1,None,
,,,,,6,0,6,0,27,0,27,0,,,,,,,,,,,,,,,,up,8000,-10.0,5.740768107484415e-05,1,3,1,2.5,1044.0057258666532,None,1042.9719865999941,1043.3017560000008,1043.956238999992,1044.298527100007,1044.9577821999846,1045.290721700003,left,0,3.1849216999835335,1043.0019537000044,None,1045.529980899999,None,ofgjwt,001,0,fr,2022-04-27_16h09.07.986,3-AFC_adaptive_staircase_mess,2022.1.1,None,
,,,,,6,0,6,0,28,0,28,0,,,,,,,,,,,,,,,,right,8000,-7.5,7.655437308410152e-05,1,3,1,2.5,1049.7454057666512,None,1047.7135331000027,1048.0289000000048,1048.7107792999886,1049.0420772999933,1049.695910999988,1050.0377133000002,right,1,2.8121388999861665,1047.7426646999957,None,1050.247603099997,None,ofgjwt,001,0,fr,2022-04-27_16h09.07.986,3-AFC_adaptive_staircase_mess,2022.1.1,None,
,,,,,6,0,6,0,29,0,29,0,,,,,,,,,,,,,,,,right,8000,-7.5,7.655437308410152e-05,1,3,1,2.5,1054.095214666657,None,1052.0646165999933,1052.3973486000032,1053.0623010999989,1053.3993304999894,1054.0492565000022,1054.3672311999835,right,1,2.6220057000173256,1052.1232627999852,None,1054.6070619999955,None,ofgjwt,001,0,fr,2022-04-27_16h09.07.986,3-AFC_adaptive_staircase_mess,2022.1.1,None,
,,,,,6,0,6,0,30,0,30,0,,,,,,,,,,,,,,,,up,8000,-12.5,4.304968760923004e-05,-1,4,-1,-5.0,1057.3425488666728,None,1056.2981317999947,1056.6375034000084,1057.2952285000065,1057.639216199983,1058.300856899994,1058.6373740999843,right,0,2.5959554000000935,1056.3267153000052,None,1058.844419400004,None,ofgjwt,001,0,fr,2022-04-27_16h09.07.986,3-AFC_adaptive_staircase_mess,2022.1.1,None,
,,,,,6,0,6,0,31,0,31,0,,,,,,,,,,,,,,,,up,8000,-10.0,5.740768107484415e-05,1,5,1,2.5,1061.4692715666645,None,1060.4359720000066,1060.7691356999858,1061.4526048999978,1061.772372300009,1062.4431019999902,1062.778136799985,left,0,2.795597299991641,1060.4943935000047,None,1062.9931469000003,None,ofgjwt,001,0,fr,2022-04-27_16h09.07.986,3-AFC_adaptive_staircase_mess,2022.1.1,None,
,,,,,6,0,6,0,32,0,32,0,,,,,,,,,,,,,,,,left,8000,-7.5,7.655437308410152e-05,1,5,1,2.5,1064.8665247666688,None,1064.8172402000055,1065.141656599997,1065.8038110999914,1066.1420095000067,1066.8232613999862,1067.1375697999902,left,1,2.82419439998921,1064.8819705999922,None,1067.3823670999845,None,ofgjwt,001,0,fr,2022-04-27_16h09.07.986,3-AFC_adaptive_staircase_mess,2022.1.1,None,
,,,,,6,0,6,0,33,0,33,0,,,,,,,,,,,,,,,,up,8000,-7.5,7.655437308410152e-05,1,5,1,2.5,1070.2874526666749,None,1069.240544500004,1069.5826223999902,1070.2367680000025,1070.5691012000025,1071.22613309999,1071.5643118000007,up,1,2.563818099995842,1069.2699756000075,None,1071.7985294999962,None,ofgjwt,001,0,fr,2022-04-27_16h09.07.986,3-AFC_adaptive_staircase_mess,2022.1.1,None,
,,,,,6,0,6,0,34,0,34,0,,,,,,,,,,,,,,,,left,8000,-12.5,4.304968760923004e-05,-1,6,-1,-5.0,1073.3750509666609,None,1073.32893779999,1073.6402011000027,1074.3231663999904,1074.6590392999933,1075.3476594999956,1075.6879147999862,up,0,2.9085857000027318,1073.3889709000068,None,1075.8953449999972,None,ofgjwt,001,0,fr,2022-04-27_16h09.07.986,3-AFC_adaptive_staircase_mess,2022.1.1,None,
,,,,,7,0,7,0,0,0,0,0,,,,,,,,,,,,,[],[],5,left,750,50,0.012851978913844325,0,0,-1,5,1077.8392711666568,None,1077.8226044999901,1078.1645578999887,1078.7934063999855,1079.1274819999817,1079.8229161000054,1080.158898099995,left,1,3.742996100016171,1077.852363699989,None,1080.3651645999926,None,ofgjwt,001,0,fr,2022-04-27_16h09.07.986,3-AFC_adaptive_staircase_mess,2022.1.1,None,
,,,,,7,0,7,0,1,0,1,0,,,,,,,,,,,,,,,,left,750,50,0.012851978913844325,0,0,-1,5,1083.1554662666497,None,1083.104587299982,1083.4484729999967,None,None,None,None,left,1,0.6651937999995425,1083.1691056999844,None,None,None,ofgjwt,001,0,fr,2022-04-27_16h09.07.986,3-AFC_adaptive_staircase_mess,2022.1.1,None,
,,,,,7,0,7,0,2,0,2,0,,,,,,,,,,,,,,,,left,750,40,0.004064152580820497,-1,0,-1,-10,1085.353578066661,None,1085.3369113999943,1085.6742318999895,None,None,None,None,left,1,0.35519770000246353,1085.3673542999895,None,None,None,ofgjwt,001,0,fr,2022-04-27_16h09.07.986,3-AFC_adaptive_staircase_mess,2022.1.1,None,
,,,,,7,0,7,0,3,0,3,0,,,,,,,,,,,,,,,,left,750,40,0.004064152580820497,-1,0,-1,-10,1087.2830742666595,None,1087.2664075999928,1087.6110465000093,None,None,None,None,left,1,0.4423843999975361,1087.2961539999815,None,None,None,ofgjwt,001,0,fr,2022-04-27_16h09.07.986,3-AFC_adaptive_staircase_mess,2022.1.1,None,
,,,,,7,0,7,0,4,0,4,0,,,,,,,,,,,,,,,,right,750,30,0.0012851978913844323,-1,0,-1,-10,1091.2846723666628,None,1089.2384279999824,1089.5734150999924,1090.2374784999993,1090.5730417000013,1091.2331589999958,1091.5456768999866,right,1,2.7718993999878876,1089.3019907999842,None,1091.798693299992,None,ofgjwt,001,0,fr,2022-04-27_16h09.07.986,3-AFC_adaptive_staircase_mess,2022.1.1,None,
,,,,,7,0,7,0,5,0,5,0,,,,,,,,,,,,,,,,right,750,30,0.0012851978913844323,-1,0,-1,-10,1095.6181588666552,None,1093.5630651999963,1093.9031601999886,1094.5847596999956,1094.910111300007,1095.5702144999814,1095.9106137999916,right,1,2.5645332999993116,1093.622166999994,None,1096.119601399987,None,ofgjwt,001,0,fr,2022-04-27_16h09.07.986,3-AFC_adaptive_staircase_mess,2022.1.1,None,
,,,,,7,0,7,0,6,0,6,0,,,,,,,,,,,,,,,,up,750,20,0.00040641525808204974,-1,0,-1,-10,1098.7329824666706,None,1097.6948851000052,1098.034770600003,1098.685956500005,1099.018059599999,None,None,up,1,1.6015598999802023,1097.7525208999868,None,None,None,ofgjwt,001,0,fr,2022-04-27_16h09.07.986,3-AFC_adaptive_staircase_mess,2022.1.1,None,
,,,,,7,0,7,0,7,0,7,0,,,,,,,,,,,,,,,,up,750,20,0.00040641525808204974,-1,0,-1,-10,1101.94886826666,None,1100.899338599993,1101.2225441999908,1101.903001700004,1102.2319124999922,None,None,up,1,1.739949599985266,1100.957631199999,None,None,None,ofgjwt,001,0,fr,2022-04-27_16h09.07.986,3-AFC_adaptive_staircase_mess,2022.1.1,None,
,,,,,7,0,7,0,8,0,8,0,,,,,,,,,,,,,,,,right,750,10,0.00012851978913844324,-1,0,-1,-10,1106.235137166663,None,1104.1750878999883,1104.5054018000083,1105.1841498999856,1105.516131899989,1106.1880382999952,1106.5244341999933,right,1,2.431393799983198,1104.2342533000046,None,None,None,ofgjwt,001,0,fr,2022-04-27_16h09.07.986,3-AFC_adaptive_staircase_mess,2022.1.1,None,
,,,,,7,0,7,0,9,0,9,0,,,,,,,,,,,,,,,,right,750,10,0.00012851978913844324,-1,0,-1,-10,1110.2387571666661,None,1108.1869114,1108.515821899986,1109.1874607999926,1109.512206399988,1110.1891166999994,1110.5292773999972,right,1,2.693736600020202,1108.2440672999946,None,1110.7400737999997,None,ofgjwt,001,0,fr,2022-04-27_16h09.07.986,3-AFC_adaptive_staircase_mess,2022.1.1,None,
,,,,,7,0,7,0,10,0,10,0,,,,,,,,,,,,,,,,left,750,0,4.064152580820497e-05,-1,0,-1,-10,1112.5106086666676,None,1112.493942000001,1112.8318044999905,1113.4756639999978,1113.806650899991,1114.4884242999833,1114.8210839999956,right,0,4.475375999987591,1112.5262475000054,None,1115.0271876000043,None,ofgjwt,001,0,fr,2022-04-27_16h09.07.986,3-AFC_adaptive_staircase_mess,2022.1.1,None,
,,,,,7,0,7,0,11,0,11,0,,,,,,,,,,,,,,,,up,750,5,7.22719885372964e-05,1,1,1,5,1119.5449311666637,None,1118.518862099998,1118.8449194999994,1119.528264499997,1119.8679734999896,1120.5192852999899,1120.8456649,up,1,2.5214369000168517,1118.5766583000077,None,1121.0808419999958,None,ofgjwt,001,0,fr,2022-04-27_16h09.07.986,3-AFC_adaptive_staircase_mess,2022.1.1,None,
,,,,,7,0,7,0,12,0,12,0,,,,,,,,,,,,,,,,right,750,5,7.22719885372964e-05,1,1,1,5,1124.6283945666548,None,1122.5999503000057,1122.9303101999976,1123.6114477000083,1123.9383952000062,1124.6117278999882,1124.9456348000094,right,1,2.4181950999773107,1122.6646929999988,None,None,None,ofgjwt,001,0,fr,2022-04-27_16h09.07.986,3-AFC_adaptive_staircase_mess,2022.1.1,None,
,,,,,7,0,7,0,13,0,13,0,,,,,,,,,,,,,,,,right,750,-5,2.285440948074376e-05,-1,2,-1,-5.0,1128.6247664666482,None,1126.576805299992,1126.9017301999847,1127.5772724999988,1127.9028476999956,1128.578398499987,1128.9286866000039,right,1,2.6548920999921393,1126.6346291000082,None,1129.1480665999989,None,ofgjwt,001,0,fr,2022-04-27_16h09.07.986,3-AFC_adaptive_staircase_mess,2022.1.1,None,
,,,,,7,0,7,0,14,0,14,0,,,,,,,,,,,,,,,,up,750,-5,2.285440948074376e-05,-1,2,-1,-5.0,1131.8701622666597,None,1130.8192644999945,1131.1500404999824,1131.8207376000064,1132.1607033000037,1132.833504499984,1133.1625165999867,up,1,2.856610400020145,1130.8820838999818,None,1133.3697603000037,None,ofgjwt,001,0,fr,2022-04-27_16h09.07.986,3-AFC_adaptive_staircase_mess,2022.1.1,None,
,,,,,7,0,7,0,15,0,15,0,,,,,,,,,,,,,,,,up,750,-10.0,1.2851978913844322e-05,-1,2,-1,-5.0,1136.3005917666635,None,1135.2723648999818,1135.6015188999882,1136.2543420000002,1136.5932765000034,1137.2671563999902,1137.591087399982,right,0,3.907283999986248,1135.3028607000015,None,1137.8275271999883,None,ofgjwt,001,0,fr,2022-04-27_16h09.07.986,3-AFC_adaptive_staircase_mess,2022.1.1,None,
,,,,,7,0,7,0,16,0,16,0,,,,,,,,,,,,,,,,right,750,-7.5,1.7138389327322525e-05,1,3,1,2.5,1142.7891526666683,None,1140.7378659000096,1141.0600734000036,1141.7345252000086,1142.0702760999848,1142.740395300003,1143.072428399988,up,0,2.8432870999968145,1140.7984595999878,None,1143.3034258999978,None,ofgjwt,001,0,fr,2022-04-27_16h09.07.986,3-AFC_adaptive_staircase_mess,2022.1.1,None,
,,,,,7,0,7,0,17,0,17,0,,,,,,,,,,,,,,,,right,750,-5.0,2.285440948074376e-05,1,3,1,2.5,1147.1896435666752,None,1145.1643263000005,1145.4964187000005,1146.146514299995,1146.4759016000025,1147.1415368999878,1147.4731307000038,left,0,2.9116957999940496,1145.195354399999,None,1147.7030215999985,None,ofgjwt,001,0,fr,2022-04-27_16h09.07.986,3-AFC_adaptive_staircase_mess,2022.1.1,None,
,,,,,7,0,7,0,18,0,18,0,,,,,,,,,,,,,,,,left,750,-2.5,3.0476844862008466e-05,1,3,1,2.5,1149.6544130666628,None,1149.637746399996,1149.959964699985,1150.630925400008,1150.9458663999976,1151.6245770999813,1151.9535622999829,left,1,2.5526891000045,1149.6653236999991,None,1152.1803167999897,None,ofgjwt,001,0,fr,2022-04-27_16h09.07.986,3-AFC_adaptive_staircase_mess,2022.1.1,None,
,,,,,7,0,7,0,19,0,19,0,,,,,,,,,,,,,,,,right,750,-2.5,3.0476844862008466e-05,1,3,1,2.5,1155.7683217666674,None,1153.7193290999858,1154.043259099999,1154.7171192999813,1155.0400311999838,1155.7232986000017,1156.0520735000027,right,1,2.808345500001451,1153.7775687999965,None,1156.2854659000004,None,ofgjwt,001,0,fr,2022-04-27_16h09.07.986,3-AFC_adaptive_staircase_mess,2022.1.1,None,
,,,,,7,0,7,0,20,0,20,0,,,,,,,,,,,,,,,,up,750,-7.5,1.7138389327322525e-05,-1,4,-1,-5.0,1159.120096266652,None,1158.078860299982,1158.4006770999986,1159.0741281000082,1159.4075209999864,1160.0817338000052,1160.4037381999951,up,1,2.738967099983711,1158.1349300000002,None,1160.639261000004,None,ofgjwt,001,0,fr,2022-04-27_16h09.07.986,3-AFC_adaptive_staircase_mess,2022.1.1,None,
,,,,,7,0,7,0,21,0,21,0,,,,,,,,,,,,,,,,up,750,-7.5,1.7138389327322525e-05,-1,4,-1,-5.0,1163.440425766665,1163.6679804000014,1162.3922128999839,1162.7187131999817,1163.3928368999914,1163.7245615999855,1164.3943920999882,1164.7171073000063,up,1,2.583650699991267,1162.4510452999966,None,1164.9531779999961,None,ofgjwt,001,0,fr,2022-04-27_16h09.07.986,3-AFC_adaptive_staircase_mess,2022.1.1,None,
,,,,,7,0,7,0,22,0,22,0,,,,,,,,,,,,,,,,right,750,-12.5,9.637624565954684e-06,-1,4,-1,-5.0,1168.5546543666608,None,1166.5263359000091,1166.8435915999871,1167.5166373999964,1167.840600399999,1168.5379876999941,1168.8788817999884,right,1,2.959585100004915,1166.587318899983,None,1169.0861061000032,None,ofgjwt,001,0,fr,2022-04-27_16h09.07.986,3-AFC_adaptive_staircase_mess,2022.1.1,None,
,,,,,7,0,7,0,23,0,23,0,,,,,,,,,,,,,,,,up,750,-12.5,9.637624565954684e-06,-1,4,-1,-5.0,1172.0772580666564,None,1171.0321043999866,1171.3576164999977,1172.0296880000096,1172.3432799000002,1173.0384923999954,1173.3628639999952,left,0,2.711783299979288,1171.0904895999993,None,1173.572813100007,None,ofgjwt,001,0,fr,2022-04-27_16h09.07.986,3-AFC_adaptive_staircase_mess,2022.1.1,None,
,,,,,7,0,7,0,24,0,24,0,,,,,,,,,,,,,,,,right,750,-10.0,1.2851978913844322e-05,1,5,1,2.5,1177.3548212666685,None,1175.2996544000052,1175.623068099987,1176.3187772000092,1176.6383073999896,1177.3179655999993,1177.6490112000029,up,0,2.45854949997738,1175.3593279999914,None,None,None,ofgjwt,001,0,fr,2022-04-27_16h09.07.986,3-AFC_adaptive_staircase_mess,2022.1.1,None,
,,,,,7,0,7,0,25,0,25,0,,,,,,,,,,,,,,,,left,750,-7.5,1.7138389327322525e-05,1,5,1,2.5,1179.3497517666585,None,1179.303906999994,1179.6300265000027,1180.3016605000012,1180.6255619000003,1181.3087512000056,1181.644177499984,left,1,2.694671700010076,1179.3628281999845,None,1181.879316799983,None,ofgjwt,001,0,fr,2022-04-27_16h09.07.986,3-AFC_adaptive_staircase_mess,2022.1.1,None,
,,,,,7,0,7,0,26,0,26,0,,,,,,,,,,,,,,,,right,750,-7.5,1.7138389327322525e-05,1,5,1,2.5,1185.5963494666541,None,1183.573616699985,1183.896284699993,1184.5694742999913,1184.879057299986,1185.559605699993,1185.888844400004,up,0,4.380730700009735,1183.630077299982,None,1186.1229138000053,None,ofgjwt,001,0,fr,2022-04-27_16h09.07.986,3-AFC_adaptive_staircase_mess,2022.1.1,None,
,,,,,7,0,7,0,27,0,27,0,,,,,,,,,,,,,,,,up,750,-5.0,2.285440948074376e-05,1,5,1,2.5,1190.5687497666552,1190.7931496000092,1189.5169395999983,1189.8493308000034,1190.52042049999,1190.8499951999984,1191.5221499000036,1191.8442374999868,up,1,2.8987275999970734,1189.5751078999892,None,1192.0779395999853,None,ofgjwt,001,0,fr,2022-04-27_16h09.07.986,3-AFC_adaptive_staircase_mess,2022.1.1,None,
,,,,,7,0,7,0,28,0,28,0,,,,,,,,,,,,,,,,up,750,-5.0,2.285440948074376e-05,1,5,1,2.5,1195.024481066652,None,1193.9854418000032,1194.3078567000048,1194.979341600003,1195.3127003999834,1195.9836391999852,1196.3052529999986,up,1,2.286380499979714,1194.0449126999883,None,None,None,ofgjwt,001,0,fr,2022-04-27_16h09.07.986,3-AFC_adaptive_staircase_mess,2022.1.1,None,
,,,,,7,0,7,0,29,0,29,0,,,,,,,,,,,,,,,,right,750,-10.0,1.2851978913844322e-05,-1,6,-1,-5.0,1199.8621996666518,None,1197.8302144999907,1198.1545744999894,1198.8275512999971,1199.1507005000021,1199.8455329999852,1200.1758571999962,left,0,3.05005139997229,1197.8887404999987,None,1200.3810229999945,None,ofgjwt,001,0,fr,2022-04-27_16h09.07.986,3-AFC_adaptive_staircase_mess,2022.1.1,None,
,,,,,8,0,8,0,0,0,0,0,,,,,,,,,,,,,[],[],5,left,500,50,0.02259279721874612,0,0,-1,5,1202.5149796666558,None,1202.4669404999877,1202.7992488000018,1203.4794358999934,1203.8021047000075,1204.471462299989,1204.7955573000072,left,1,3.1158790000190493,1202.5263771000027,None,1205.0276952999993,None,ofgjwt,001,0,fr,2022-04-27_16h09.07.986,3-AFC_adaptive_staircase_mess,2022.1.1,None,
,,,,,8,0,8,0,1,0,1,0,,,,,,,,,,,,,,,,left,500,50,0.02259279721874612,0,0,-1,5,1207.2071794666738,None,1207.161294199992,1207.4918770999939,1208.161450899992,1208.4931724999915,1209.1630169999844,1209.4940964999842,left,1,2.421834200009471,1207.2193149999948,None,None,None,ofgjwt,001,0,fr,2022-04-27_16h09.07.986,3-AFC_adaptive_staircase_mess,2022.1.1,None,
,,,,,8,0,8,0,2,0,2,0,,,,,,,,,,,,,,,,left,500,40,0.007144469792555516,-1,0,-1,-10,1211.1901107666529,None,1211.1535439,1211.488814499986,1212.1584496999858,1212.4741312999977,1213.1556867999898,None,left,1,2.1397276999778114,1211.214570399985,None,None,None,ofgjwt,001,0,fr,2022-04-27_16h09.07.986,3-AFC_adaptive_staircase_mess,2022.1.1,None,
,,,,,8,0,8,0,3,0,3,0,,,,,,,,,,,,,,,,right,500,40,0.007144469792555516,-1,0,-1,-10,1216.9103563666615,None,1214.8693295999838,1215.1955727000022,1215.8678463999822,1216.1926794000028,1216.8615888000058,1217.1992332999944,right,1,2.395479400001932,1214.926834199985,None,None,None,ofgjwt,001,0,fr,2022-04-27_16h09.07.986,3-AFC_adaptive_staircase_mess,2022.1.1,None,
,,,,,8,0,8,0,4,0,4,0,,,,,,,,,,,,,,,,left,500,30,0.002259279721874612,-1,0,-1,-10,1218.8989193666532,None,1218.8509895000025,1219.1832524999918,None,None,None,None,left,1,0.859993799997028,1218.9102339000092,None,None,None,ofgjwt,001,0,fr,2022-04-27_16h09.07.986,3-AFC_adaptive_staircase_mess,2022.1.1,None,
,,,,,8,0,8,0,5,0,5,0,,,,,,,,,,,,,,,,up,500,30,0.002259279721874612,-1,0,-1,-10,1222.3349096666536,None,1221.3193568999995,1221.6431575999886,1222.2891066999873,1222.616889900004,None,None,up,1,1.5260468999913428,1221.3484609999869,None,None,None,ofgjwt,001,0,fr,2022-04-27_16h09.07.986,3-AFC_adaptive_staircase_mess,2022.1.1,None,
,,,,,8,0,8,0,6,0,6,0,,,,,,,,,,,,,,,,up,500,20,0.0007144469792555515,-1,0,-1,-10,1225.4211556666744,None,1224.3876413999824,1224.7099487000087,1225.3761362000077,1225.7154489999812,None,None,up,1,1.4517284000176005,1224.4460266999959,None,None,None,ofgjwt,001,0,fr,2022-04-27_16h09.07.986,3-AFC_adaptive_staircase_mess,2022.1.1,None,
,,,,,8,0,8,0,7,0,7,0,,,,,,,,,,,,,,,,right,500,20,0.0007144469792555515,-1,0,-1,-10,1229.4833668666581,None,1227.4231826000032,1227.7426058999845,1228.414467900002,1228.7392170999956,1229.4248690999812,1229.7442193999887,right,1,2.3864961999934167,1227.479388799984,None,None,None,ofgjwt,001,0,fr,2022-04-27_16h09.07.986,3-AFC_adaptive_staircase_mess,2022.1.1,None,
,,,,,8,0,8,0,8,0,8,0,,,,,,,,,,,,,,,,right,500,10,0.0002259279721874612,-1,0,-1,-10,1233.4140739666511,None,1231.3757856999873,1231.704015700001,1232.374467799993,1232.696384699986,1233.3680145999824,1233.6981792000006,right,1,2.5559436000185087,1231.4380038999952,None,1233.9368292999861,None,ofgjwt,001,0,fr,2022-04-27_16h09.07.986,3-AFC_adaptive_staircase_mess,2022.1.1,None,
,,,,,8,0,8,0,9,0,9,0,,,,,,,,,,,,,,,,right,500,10,0.0002259279721874612,-1,0,-1,-10,1237.5419159666674,None,1235.4943517000065,1235.8044128000038,1236.5008921999834,1236.8243681000022,1237.495044499985,1237.8197954999923,right,1,2.570104199985508,1235.5523658999882,None,1238.0533719999949,None,ofgjwt,001,0,fr,2022-04-27_16h09.07.986,3-AFC_adaptive_staircase_mess,2022.1.1,None,
,,,,,8,0,8,0,10,0,10,0,,,,,,,,,,,,,,,,right,500,0,7.144469792555515e-05,-1,0,-1,-10,1241.6861559666615,None,1239.6611373999913,1239.9799594999931,1240.648684899992,1240.972499399999,1241.669489299995,1242.000867900002,right,1,3.1700963999901433,1239.7195033000025,None,1242.2068658999924,None,ofgjwt,001,0,fr,2022-04-27_16h09.07.986,3-AFC_adaptive_staircase_mess,2022.1.1,None,
,,,,,8,0,8,0,11,0,11,0,,,,,,,,,,,,,,,,up,500,0,7.144469792555515e-05,-1,0,-1,-10,1245.4446536666694,None,1244.395018899988,1244.7319620999915,1245.39966309999,1245.7336406999966,1246.398497599992,1246.7287494000047,up,1,2.5909325999964494,1244.458605599997,None,1246.9351953000005,None,ofgjwt,001,0,fr,2022-04-27_16h09.07.986,3-AFC_adaptive_staircase_mess,2022.1.1,None,
,,,,,8,0,8,0,12,0,12,0,,,,,,,,,,,,,,,,left,500,-10,2.259279721874613e-05,-1,0,-1,-10,1248.6115816666609,None,1248.566952299996,1248.8985977999982,1249.5713841999823,1249.8924732999876,1250.5624994999962,1250.893431000004,left,1,2.4878582999808714,1248.6269983999955,None,1251.1310368999839,None,ofgjwt,001,0,fr,2022-04-27_16h09.07.986,3-AFC_adaptive_staircase_mess,2022.1.1,None,
,,,,,8,0,8,0,13,0,13,0,,,,,,,,,,,,,,,,up,500,-10,2.259279721874613e-05,-1,0,-1,-10,1253.6578735666737,None,1252.6203277999884,1252.9412299999967,1253.611466500006,1253.9418484999915,1254.6124871000065,1254.937395999994,right,0,3.8094940000155475,1252.6804983000038,None,1255.171669800009,None,ofgjwt,001,0,fr,2022-04-27_16h09.07.986,3-AFC_adaptive_staircase_mess,2022.1.1,None,
,,,,,8,0,8,0,14,0,14,0,,,,,,,,,,,,,,,,up,500,-5,4.017630610928089e-05,1,1,1,5,1259.0584604666549,None,1258.0108193999913,1258.3406992999953,1259.0134053000074,1259.3482480999955,1260.0206275999954,1260.353568599996,right,0,2.9470065999776125,1258.0711526999949,None,1260.5655157,None,ofgjwt,001,0,fr,2022-04-27_16h09.07.986,3-AFC_adaptive_staircase_mess,2022.1.1,None,
,,,,,8,0,8,0,15,0,15,0,,,,,,,,,,,,,,,,right,500,0,7.144469792555515e-05,1,1,1,5,1264.5980208666626,None,1262.5481440000003,1262.8769084000087,1263.5517151000095,1263.8784947999811,1264.5528732000093,1264.885941799992,right,1,2.6326205999939702,1262.6099682000058,None,1265.0916969999962,None,ofgjwt,001,0,fr,2022-04-27_16h09.07.986,3-AFC_adaptive_staircase_mess,2022.1.1,None,
,,,,,8,0,8,0,16,0,16,0,,,,,,,,,,,,,,,,up,500,0,7.144469792555515e-05,1,1,1,5,1267.8007243666545,None,1266.7647201000073,1267.0839447999897,1267.7557221000025,1268.0924756999884,1268.7598256999918,1269.0822570000018,right,0,2.7874094000144396,1266.7912088999874,None,1269.2869961999822,None,ofgjwt,001,0,fr,2022-04-27_16h09.07.986,3-AFC_adaptive_staircase_mess,2022.1.1,None,
,,,,,8,0,8,0,17,0,17,0,,,,,,,,,,,,,,,,up,500,5,0.00012704863527746526,1,1,1,5,1272.1240841666624,None,1271.0885026000033,1271.4136471000093,1272.0795077999937,1272.419474800001,1273.0898640000087,1273.4168922999816,up,1,2.684545799973421,1271.1487635000085,None,1273.6524420999922,None,ofgjwt,001,0,fr,2022-04-27_16h09.07.986,3-AFC_adaptive_staircase_mess,2022.1.1,None,
,,,,,8,0,8,0,18,0,18,0,,,,,,,,,,,,,,,,left,500,5,0.00012704863527746526,1,1,1,5,1275.3918641666571,None,1275.3471616999886,1275.6760119999817,None,None,None,None,left,1,0.8618783999991138,1275.4048398000014,None,None,None,ofgjwt,001,0,fr,2022-04-27_16h09.07.986,3-AFC_adaptive_staircase_mess,2022.1.1,None,
,,,,,8,0,8,0,19,0,19,0,,,,,,,,,,,,,,,,right,500,-5,4.017630610928089e-05,-1,2,-1,-5.0,1279.8302655666523,None,1277.7827002999838,1278.1054525999934,1278.7783973999904,1279.101091199991,1279.7814846999827,1280.1136272999865,up,0,2.665598299994599,1277.8407153000007,None,1280.3544752000016,None,ofgjwt,001,0,fr,2022-04-27_16h09.07.986,3-AFC_adaptive_staircase_mess,2022.1.1,None,
,,,,,8,0,8,0,20,0,20,0,,,,,,,,,,,,,,,,left,500,-2.5,5.357596526188033e-05,1,3,1,2.5,1282.093851066664,None,1282.0489199000003,1282.3810940999829,1283.0503796999983,1283.3786741000076,1284.0456117999856,1284.3792773000023,left,1,2.272219100006623,1282.1052764999913,None,None,None,ofgjwt,001,0,fr,2022-04-27_16h09.07.986,3-AFC_adaptive_staircase_mess,2022.1.1,None,
