sweeps.thisRepN,sweeps.thisTrialN,sweeps.thisN,sweeps.thisIndex,trials.thisRepN,trials.thisTrialN,trials.thisN,trials.thisIndex,instructions.started,instructions.stopped,blank_text.started,blank_text.stopped,,text.started,text.stopped,Delay,Prediction,Frequency,Volume,Psychopy_level,isCatchTrial,len(y),finished_audiograms,probe.started,probe.stopped,feedback.keys,feedback.started,feedback.stopped,ISI.started,ISI.stopped,text_2.started,text_2.stopped,feedback.rt,break_txt.started,break_txt.stopped,Intervals,Audiogram_frequency,Audiogram_both,Audiogram_none,Audiogram_time,end_txt.started,end_txt.stopped,participant,session,language (english or french),Resume previous experiment,date,expName,psychopyVersion,frameRate,
0,0,0,0,0,0,0,0,15.554326500045136,None,49.68220690009184,None,0.16666666666666666,51.867452200036496,None,2.4987480748966138,both,141.0,1.5051569773390425,0.0006900675115807317,0,27,[],0.015270589967258275,None,None,52.88153020001482,None,0.21405518997926265,2.7128032648758764,53.09794850007165,None,,,,,,,,,,,udoety,001,fr,0,2022-05-03_11h33.02.726,Continuous,2022.1.1,35.49539322774955,
0,0,0,0,1,0,1,0,,,,,,,,2.4987480748966138,both,158.0,0.3521997987911707,0.00044667673333605455,0,28,[],0.022710990044288337,None,None,55.59501120005734,55.59501120005734,0.22509289009030908,2.723840964986923,55.80632910004351,55.59501120005734,,,,,,,,,,,udoety,001,fr,0,2022-05-03_11h33.02.726,Continuous,2022.1.1,35.49539322774955,
0,0,0,0,2,0,2,0,,,,,,,,2.4987480748966138,both,177.0,-0.47794142805050743,0.0003305116312852302,0,29,[],0.022971790051087737,None,['space'],58.30366610002238,58.30366610002238,0.22670509002637118,2.725453164922985,58.521207300014794,58.30366610002238,[-2.112516099936329],,,,,,,,,,udoety,001,fr,0,2022-05-03_11h33.02.726,Continuous,2022.1.1,35.49539322774955,
0,0,0,0,3,0,3,0,,,,,,,,2.4987480748966138,both,199.0,2.62292239016956,0.00036394379282491974,0,30,[],0.02276628988329321,None,['space'],61.015870000002906,61.015870000002906,0.22809508990030736,2.726843164796921,61.23092160001397,61.015870000002906,[-2.0081311999820173],,,,,,,,,,udoety,001,fr,0,2022-05-03_11h33.02.726,Continuous,2022.1.1,35.49539322774955,
0,0,0,0,4,0,4,0,,,,,,,,2.4987480748966138,both,223.0,0.9317874178246277,0.0002453370995175509,0,31,[],0.022703789989463985,None,['space'],63.721274200011976,63.721274200011976,0.22942999005317688,2.7281780649497906,63.94371480005793,63.721274200011976,[-2.2173148000147194],,,,,,,,,,udoety,001,fr,0,2022-05-03_11h33.02.726,Continuous,2022.1.1,35.49539322774955,
0,0,0,0,5,0,5,0,,,,,,,,2.4987480748966138,both,250.0,2.62081320289255,0.00022646999185964807,0,32,[],0.02223778993356973,None,['space'],66.43493900005706,66.43493900005706,0.2284266899805516,2.7271747648771654,66.64819980005268,66.43493900005706,[-2.3884607000509277],,,,,,,,,,udoety,001,fr,0,2022-05-03_11h33.02.726,Continuous,2022.1.1,35.49539322774955,
0,0,0,0,6,0,6,0,,,,,,,,2.4987480748966138,both,281.0,5.276076187982901,0.00024716175611432477,0,33,[],0.022737990017049015,None,['space'],69.143968300079,69.143968300079,0.22796189005021006,2.726709964946824,69.35080900008325,69.143968300079,[-2.344810700044036],,,,,,,,,,udoety,001,fr,0,2022-05-03_11h33.02.726,Continuous,2022.1.1,35.49539322774955,
0,0,0,0,7,0,7,0,,,,,,,,2.4987480748966138,both,315.0,7.3462858884541244,0.0002297652249816843,0,34,[],0.022089290083386004,None,['space'],71.85168439999688,71.85168439999688,0.22294179000891745,2.721689864905531,72.0678207000019,71.85168439999688,[-2.4117271999130026],,,,,,,,,,udoety,001,fr,0,2022-05-03_11h33.02.726,Continuous,2022.1.1,35.49539322774955,
0,0,0,0,8,0,8,0,,,,,,,,2.4987480748966138,both,354.0,-1.0,7.887248739356936e-05,0,35,[],0.022638590075075626,None,['space'],74.5624981999863,74.5624981999863,0.2269335900200531,2.725681664916667,74.78308760002255,74.5624981999863,[-2.434996100026183],,,,,,,,,,udoety,001,fr,0,2022-05-03_11h33.02.726,Continuous,2022.1.1,35.49539322774955,
0,0,0,0,9,0,9,0,,,,,,,,2.4987480748966138,both,397.0,5.018086374954692,0.00013780668964954822,0,36,[],0.02251338993664831,None,['space'],77.27165310003329,77.27165310003329,0.22605818998999894,2.7248062648866127,77.48752900003456,77.27165310003329,[-2.472872699960135],,,,,,,,,,udoety,001,fr,0,2022-05-03_11h33.02.726,Continuous,2022.1.1,35.49539322774955,
0,0,0,0,10,0,10,0,,,,,,,,2.4987480748966138,both,446.0,1.0062887323730214,8.331847260307102e-05,0,37,[],0.022529289941303432,None,['space'],79.98611430008896,79.98611430008896,0.22487908997572958,2.7236271648723434,80.19899210007861,79.98611430008896,[-2.3547202000627294],,,,,,,,,,udoety,001,fr,0,2022-05-03_11h33.02.726,Continuous,2022.1.1,35.49539322774955,
0,0,0,0,11,0,11,0,,,,,,,,2.4987480748966138,both,501.0,4.230850000759796,0.00011602809991258916,0,38,[],0.022524089901708066,None,['space'],82.69199169997592,82.69199169997592,0.22718958999030292,2.7259376648869167,82.90277400007471,82.69199169997592,[-2.4681432000361383],,,,,,,,,,udoety,001,fr,0,2022-05-03_11h33.02.726,Continuous,2022.1.1,35.49539322774955,
0,0,0,0,12,0,12,0,,,,,,,,2.4987480748966138,both,562.0,1.1215079212571417,7.028648155239037e-05,0,39,[],0.01559769012965262,0.21046269009821117,['space'],85.4028994999826,85.4028994999826,0.21046269009821117,2.709210764994825,85.62022350006737,85.4028994999826,[-2.4604182000039145],,,,,,,,,,udoety,001,fr,0,2022-05-03_11h33.02.726,Continuous,2022.1.1,35.49539322774955,
0,0,0,0,13,0,13,0,,,,,,,,2.4987480748966138,both,,,,1,39,[],0.022510090027935803,None,['space'],88.11205850006081,88.11205850006081,0.2256112900795415,2.7243593649761553,88.3323226000648,88.11205850006081,[-2.304707400035113],,,,,,,,,,udoety,001,fr,0,2022-05-03_11h33.02.726,Continuous,2022.1.1,35.49539322774955,
0,0,0,0,14,0,14,0,,,,,,,,2.4987480748966138,both,708.0,-0.7058097518136253,4.086528433425848e-05,0,40,[],0.02255778992548585,None,['space'],90.82149840006605,90.82149840006605,0.2231837899889797,2.7219318648855935,91.03827770007774,90.82149840006605,[-2.197924099978991],,,,,,,,,,udoety,001,fr,0,2022-05-03_11h33.02.726,Continuous,2022.1.1,35.49539322774955,
1,0,1,0,0,0,0,0,,,,,0.5833333333333334,96.99124930007383,None,1.0212225814792948,both,145.0,-0.6208088514187993,0.0005070933110107991,0,41,[],0.02270148997195065,None,None,98.00824310001917,None,0.24535699002444744,1.2665795715037422,98.23326980008278,None,,93.53113910008688,None,,,,,,,,udoety,001,fr,0,2022-05-03_11h33.02.726,Continuous,2022.1.1,35.49539322774955,
1,0,1,0,1,0,1,0,,,,,,,,1.0212225814792948,both,218.0,-1.5618053408510502,0.00019229645731066156,0,42,[],0.021884389920160174,None,None,99.24087179999333,99.24087179999333,0.22461228992324322,1.245834871402538,99.45240539999213,99.24087179999333,,,,,,,,,,,udoety,001,fr,0,2022-05-03_11h33.02.726,Continuous,2022.1.1,35.49539322774955,
1,0,1,0,2,0,2,0,,,,,,,,1.0212225814792948,both,326.0,3.161533400427418,0.00013781150299072413,0,43,[],0.02231519005727023,None,['space'],100.47617450007237,100.47617450007237,0.23420199006795883,1.2554245715472536,100.6890837000683,100.47617450007237,[-0.5083874000702053],,,,,,,,,,udoety,001,fr,0,2022-05-03_11h33.02.726,Continuous,2022.1.1,35.49539322774955,
1,0,1,0,3,0,3,0,,,,,,,,1.0212225814792948,both,489.0,-0.15430029854128513,7.073889447065118e-05,0,44,[],0.01742378994822502,None,['space'],101.70160720008425,101.70160720008425,0.2141733899479732,1.235395971427268,101.9176725000143,101.70160720008425,[-0.5668919000308961],,,,,,,,,,udoety,001,fr,0,2022-05-03_11h33.02.726,Continuous,2022.1.1,35.49539322774955,
1,0,1,0,4,0,4,0,,,,,,,,1.0212225814792948,both,732.0,-1.717689053465014,3.4644453782968865e-05,0,45,[],0.022093790001235902,None,['space'],102.94058110006154,102.94058110006154,0.22285349003504962,1.2440760715143444,103.1556314000627,102.94058110006154,[-0.7977093000663444],,,,,,,,,,udoety,001,fr,0,2022-05-03_11h33.02.726,Continuous,2022.1.1,35.49539322774955,
1,0,1,0,5,0,5,0,,,,,,,,1.0212225814792948,both,1097.0,-1.9255902661327995,3.854365601280224e-05,0,46,[],0.022117289947345853,None,"['space', 'space']",104.17406230000779,104.17406230000779,0.22499818995129317,1.246220771430588,104.38948840007652,104.17406230000779,"[-0.9594056999776512, 0.017699900083243847]",,,,,,,,,,udoety,001,fr,0,2022-05-03_11h33.02.726,Continuous,2022.1.1,35.49539322774955,
1,0,1,0,6,0,6,0,,,,,,,,1.0212225814792948,both,1643.0,-1.385573554887285,5.00381391950329e-05,0,47,[],0.02206049009691924,None,['space'],105.40260929998476,105.40260929998476,0.2259053901070729,1.2471279715863677,105.61491690005641,105.40260929998476,[0.21277520002331585],,,,,,,,,,udoety,001,fr,0,2022-05-03_11h33.02.726,Continuous,2022.1.1,35.49539322774955,
1,0,1,0,7,0,7,0,,,,,,,,1.0212225814792948,both,2462.0,-2.0,6.756004937466901e-05,0,48,[],0.022077989880926907,None,['space'],106.63633580005262,106.63633580005262,0.23393838992342353,1.2551609714027183,106.85401780006941,106.63633580005262,[0.1168094000313431],,,,,,,,,,udoety,001,fr,0,2022-05-03_11h33.02.726,Continuous,2022.1.1,35.49539322774955,
1,0,1,0,8,0,8,0,,,,,,,,1.0212225814792948,both,,,,1,48,[],0.021854989929124713,None,['space'],107.86749730003066,107.86749730003066,0.22884038998745382,1.2500629714667486,108.08371799997985,107.86749730003066,[0.16350620007142425],,,,,,,,,,udoety,001,fr,0,2022-05-03_11h33.02.726,Continuous,2022.1.1,35.49539322774955,
1,0,1,0,9,0,9,0,,,,,,,,1.0212225814792948,both,5527.0,-4.323685888336319,8.103743937659472e-05,0,49,[],0.023205090081319213,None,None,109.10276600008365,109.10276600008365,0.22919539001304656,1.2504179714923414,109.31866039999295,109.10276600008365,,,,,,,,,,,udoety,001,fr,0,2022-05-03_11h33.02.726,Continuous,2022.1.1,35.49539322774955,
2,0,2,0,0,0,0,0,,,,,,111.80817450000905,None,1.0820785214236641,none,354.0,-1.0,7.887248739356936e-05,0,27,[],0.018395290011540055,0.21670248999726027,['space'],112.84130099997856,None,0.21670248999726027,1.2987810114209244,113.05242329998873,None,[-1.5617606000741944],110.33438430004753,None,"[0.3333333333333333, 0.16666666666666666, 0.16666666666666666, 0.5833333333333334, 0.5833333333333334, 0.3333333333333333, 0.16666666666666666, 0.16666666666666666, 0.16666666666666666, 0.3333333333333333, 0.3333333333333333, 0.3333333333333333, 0.5833333333333334, 0.5833333333333334, 0.5833333333333334]",,,,,,,udoety,001,fr,0,2022-05-03_11h33.02.726,Continuous,2022.1.1,35.49539322774955,
2,0,2,0,1,0,1,0,,,,,,,,2.7524508724133128,none,446.0,5.481976028848508,0.00013948440836427563,0,28,[],0.021226089913398027,None,None,114.13536600000225,114.13536600000225,0.2234114898601547,2.9758623622734675,114.35838260001037,114.13536600000225,,,,,,,,,,,udoety,001,fr,0,2022-05-03_11h33.02.726,Continuous,2022.1.1,35.49539322774955,
2,0,2,0,2,0,2,0,,,,,,,,2.31502992068361,none,315.0,-0.011734140622581712,9.848799523832625e-05,0,29,[],0.021716090035624802,None,['space'],117.10721749998629,117.10721749998629,0.22576809010934085,2.5407980107929506,117.32824000006076,117.10721749998629,[-2.515276899910532],,,,,,,,,,udoety,001,fr,0,2022-05-03_11h33.02.726,Continuous,2022.1.1,35.49539322774955,
2,0,2,0,3,0,3,0,,,,,,,,1.4557930297762127,none,250.0,1.8554129812365874,0.00020736748161808728,0,30,[],0.018539590062573552,None,['space'],119.63672660000157,119.63672660000157,0.21706768998410553,1.6728607197603182,119.85580300004221,119.63672660000157,[-1.9566121000098065],,,,,,,,,,udoety,001,fr,0,2022-05-03_11h33.02.726,Continuous,2022.1.1,35.49539322774955,
2,0,2,0,4,0,4,0,,,,,,,,1.53599338498399,none,,,,1,30,[],0.018138890038244426,None,['space'],121.30521660007071,121.30521660007071,0.21610829001292586,1.7521016749969158,121.52073430002201,121.30521660007071,[-1.2254187000216916],,,,,,,,,,udoety,001,fr,0,2022-05-03_11h33.02.726,Continuous,2022.1.1,35.49539322774955,
2,0,2,0,5,0,5,0,,,,,,,,2.6916741612498343,none,132.0,-0.19747448507680776,0.0006455553048626323,0,31,[],0.019714089925400913,None,None,123.05680880008731,123.05680880008731,0.21786058996804059,2.909534751217875,123.27171080000699,123.05680880008731,,,,,,,,,,,udoety,001,fr,0,2022-05-03_11h33.02.726,Continuous,2022.1.1,35.49539322774955,
2,0,2,0,6,0,6,0,,,,,,,,2.051463713604865,none,2382.0,0.2548837355608158,8.575969749069848e-05,0,32,[],0.017484390060417354,0.21489249006845057,['space'],125.96070729999337,125.96070729999337,0.21489249006845057,2.2663562036733156,126.17590100003872,125.96070729999337,[-2.393628599937074],,,,,,,,,,udoety,001,fr,0,2022-05-03_11h33.02.726,Continuous,2022.1.1,35.49539322774955,
2,0,2,0,7,0,7,0,,,,,,,,1.0523214702628565,none,708.0,-0.5581112486516164,4.1566116468966885e-05,0,33,[],0.02123448986094445,None,['space'],128.2215701000532,128.2215701000532,0.22411208995617926,1.2764335602190358,128.43920070002787,128.2215701000532,[-1.710243200068362],,,,,,,,,,udoety,001,fr,0,2022-05-03_11h33.02.726,Continuous,2022.1.1,35.49539322774955,
2,0,2,0,8,0,8,0,,,,,,,,1.006460469535604,none,1590.0,1.1185286732990942,6.358912406104286e-05,0,34,[],0.019993689842522144,None,['space'],129.47910690004937,129.47910690004937,0.22223328985273838,1.2286937593883425,129.69599620008375,129.47910690004937,[-0.6956082000397146],,,,,,,,,,udoety,001,fr,0,2022-05-03_11h33.02.726,Continuous,2022.1.1,35.49539322774955,
2,0,2,0,9,0,9,0,,,,,,,,1.4774278767324225,none,281.0,2.721053330952402,0.00018417476713440445,0,35,[],0.020778789999894798,None,None,130.69664149999153,130.69664149999153,0.22239818994421512,1.6998260666766376,130.9086740000639,130.69664149999153,,,,,,,,,,,udoety,001,fr,0,2022-05-03_11h33.02.726,Continuous,2022.1.1,35.49539322774955,
2,0,2,0,10,0,10,0,,,,,,,,1.9406898753471975,none,1061.0,-1.386617281651448,3.972751322583569e-05,0,36,[],0.01459749008063227,0.20727589004673064,['space'],132.38786120002624,132.38786120002624,0.20727589004673064,2.147965765393928,132.60338300000876,132.38786120002624,[-1.2365595999872312],,,,,,,,,,udoety,001,fr,0,2022-05-03_11h33.02.726,Continuous,2022.1.1,35.49539322774955,
2,0,2,0,11,0,11,0,,,,,,,,2.434699914399973,none,562.0,0.5267049403784081,6.563442042357692e-05,0,37,[],0.021148590021766722,None,['space'],134.54369259998202,134.54369259998202,0.22616008995100856,2.6608600043509814,134.7548850000603,134.54369259998202,[-1.4249370000325143],,,,,,,,,,udoety,001,fr,0,2022-05-03_11h33.02.726,Continuous,2022.1.1,35.49539322774955,
3,0,3,0,0,0,0,0,,,,,,140.54379929997958,None,1.0481518179941751,none,4595.0,-1.0,0.00011129913595123019,0,38,[],0.02362779004033655,None,None,141.5755370000843,None,0.2206783900037408,1.268830207997916,141.7867795000784,None,,137.18657620006707,None,"[0.3333333333333333, 0.3333333333333333, 0.16666666666666666, 0.16666666666666666, 0.3333333333333333, 0.16666666666666666, 0.3333333333333333, 0.3333333333333333, 0.16666666666666666, 0.3333333333333333, 0.5833333333333334, 0.16666666666666666, 0.3333333333333333, 0.3333333333333333, 0.16666666666666666]",,,,,,,udoety,001,fr,0,2022-05-03_11h33.02.726,Continuous,2022.1.1,35.49539322774955,
3,0,3,0,1,0,1,0,,,,,,,,1.0073778316760797,none,2298.0,0.9610731313780938,9.094359416033805e-05,0,39,[],0.0160757900448516,0.21111939009279013,['space'],142.8289599000709,142.8289599000709,0.21111939009279013,1.2184972217688699,143.0430704000173,142.8289599000709,[-0.749048100085929],,,,,,,,,,udoety,001,fr,0,2022-05-03_11h33.02.726,Continuous,2022.1.1,35.49539322774955,
3,0,3,0,2,0,2,0,,,,,,,,1.1630772577645394,none,1625.0,-0.31666938924891763,5.5807210355986796e-05,0,40,[],0.0140519900014624,0.20726498996373266,['space'],144.0513216999825,144.0513216999825,0.20726498996373266,1.370342247728272,144.26544790004846,144.0513216999825,[-0.7244780999608338],,,,,,,,,,udoety,001,fr,0,2022-05-03_11h33.02.726,Continuous,2022.1.1,35.49539322774955,
3,0,3,0,3,0,3,0,,,,,,,,2.187556522921909,none,,,,1,40,[],0.021080989856272936,None,['space'],145.42003020003904,145.42003020003904,0.2254474898800254,2.4130040128019346,145.6358471000567,145.42003020003904,[-0.6690866999560967],,,,,,,,,,udoety,001,fr,0,2022-05-03_11h33.02.726,Continuous,2022.1.1,35.49539322774955,
3,0,3,0,4,0,4,0,,,,,,,,2.4082149200362886,none,1824.0,0.3032294174390473,6.924035034459982e-05,0,41,[],0.02207939000800252,None,None,147.8246340000769,147.8246340000769,0.2279851899947971,2.6362001100310857,148.03403710003477,147.8246340000769,,,,,,,,,,,udoety,001,fr,0,2022-05-03_11h33.02.726,Continuous,2022.1.1,35.49539322774955,
3,0,3,0,5,0,5,0,,,,,,,,1.8777190619019872,none,1448.0,0.4787335863451523,5.2403673498353495e-05,0,42,[],0.02081848995294422,None,['space'],150.4455185000552,150.4455185000552,0.22685058997012675,2.104569651872114,150.66037599998526,150.4455185000552,[-2.0465079999994487],,,,,,,,,,udoety,001,fr,0,2022-05-03_11h33.02.726,Continuous,2022.1.1,35.49539322774955,
3,0,3,0,6,0,6,0,,,,,,,,2.285903604079076,none,4094.0,-2.168216232424728,7.043618348689498e-05,0,43,[],0.02056038996670395,None,['space'],152.5363795000594,152.5363795000594,0.22257899004034698,2.508482594119423,152.75270399998408,152.5363795000594,[-1.7696207000408322],,,,,,,,,,udoety,001,fr,0,2022-05-03_11h33.02.726,Continuous,2022.1.1,35.49539322774955,
3,0,3,0,7,0,7,0,,,,,,,,1.1441336160187368,none,3249.0,-1.9183546602468688,5.6735136535193794e-05,0,44,[],0.02080828999169171,None,['space'],155.0349594000727,155.0349594000727,0.22876998991705477,1.3729036059357915,155.2543676000787,155.0349594000727,[-2.0272883999859914],,,,,,,,,,udoety,001,fr,0,2022-05-03_11h33.02.726,Continuous,2022.1.1,35.49539322774955,
3,0,3,0,8,0,8,0,,,,,,,,2.0108892659199546,none,2579.0,-0.5647099239108566,7.588834837813602e-05,0,45,[],0.01767899002879858,None,['space'],156.39173220004886,156.39173220004886,0.2174176899716258,2.2283069558915805,156.6119338000426,156.39173220004886,[-0.8569159000180662],,,,,,,,,,udoety,001,fr,0,2022-05-03_11h33.02.726,Continuous,2022.1.1,35.49539322774955,
3,0,3,0,9,0,9,0,,,,,,,,1.8049309567695766,none,1149.0,-0.9729028686950943,4.49563031821471e-05,0,46,[],0.02063608996104449,None,['space'],158.62072970008012,158.62072970008012,0.2277489899424836,2.03267994671206,158.84189200005494,158.62072970008012,[-1.661719800089486],,,,,,,,,,udoety,001,fr,0,2022-05-03_11h33.02.726,Continuous,2022.1.1,35.49539322774955,
4,0,4,0,0,0,0,0,,,,,0.16666666666666666,162.73279130004812,None,1.3733988411893423,frequency,141.0,-0.856135195185793,0.0005258077374914841,0,27,[],0.02339809003751725,None,None,163.7756271000253,None,0.24707079003565013,1.6204696312249924,164.00096249999478,None,,160.64058210002258,None,,,,,,,,udoety,001,fr,0,2022-05-03_11h33.02.726,Continuous,2022.1.1,35.49539322774955,
4,0,4,0,1,0,1,0,,,,,,,,1.169278019662762,frequency,158.0,-0.09354738525730211,0.000424332183557646,0,28,[],0.01987919001840055,None,None,165.36508090002462,165.36508090002462,0.22268619004171342,1.3919642097044753,165.57809560000896,165.36508090002462,,,,,,,,,,,udoety,001,fr,0,2022-05-03_11h33.02.726,Continuous,2022.1.1,35.49539322774955,
4,0,4,0,2,0,2,0,,,,,,,,1.4407750612453143,frequency,177.0,1.5366942175329856,0.00041679118956474965,0,29,[],0.020448690047487617,None,['space'],166.75157090008724,166.75157090008724,0.23383039003238082,1.6746054512776951,166.96627330000047,166.75157090008724,[-0.8638671000953764],,,,,,,,,,udoety,001,fr,0,2022-05-03_11h33.02.726,Continuous,2022.1.1,35.49539322774955,
4,0,4,0,3,0,3,0,,,,,,,,2.108177751990201,frequency,199.0,2.1324392619785995,0.00034396175828940056,0,30,[],0.02023928996641189,None,['space'],168.4036097000353,168.4036097000353,0.2241015899926424,2.3322793419828436,168.61924640007783,168.4036097000353,[-1.2365467000054196],,,,,,,,,,udoety,001,fr,0,2022-05-03_11h33.02.726,Continuous,2022.1.1,35.49539322774955,
4,0,4,0,4,0,4,0,,,,,,,,2.1096416648023197,frequency,223.0,0.8572960588904981,0.0002432420520672723,0,31,[],0.015406989841721952,0.21056538983248174,['space'],170.72568110004067,170.72568110004067,0.21056538983248174,2.3202070546348015,170.93877080001403,170.72568110004067,[-1.814109900034964],,,,,,,,,,udoety,001,fr,0,2022-05-03_11h33.02.726,Continuous,2022.1.1,35.49539322774955,
4,0,4,0,5,0,5,0,,,,,,,,2.2924517086272056,frequency,250.0,1.6346191116485826,0.00020216266774731172,0,32,[],0.019968089880421758,None,['space'],173.04798180004582,173.04798180004582,0.2210912898881361,2.5135429985153417,173.26384869997855,173.04798180004582,[-1.8173756999894977],,,,,,,,,,udoety,001,fr,0,2022-05-03_11h33.02.726,Continuous,2022.1.1,35.49539322774955,
4,0,4,0,6,0,6,0,,,,,,,,1.9722380180659922,frequency,281.0,2.568732042156501,0.00018097311634439318,0,33,[],0.02015458990354091,None,['space'],175.56213630002458,175.56213630002458,0.22622388997115195,2.198461908037144,175.77138190006372,175.56213630002458,[-2.090569299994968],,,,,,,,,,udoety,001,fr,0,2022-05-03_11h33.02.726,Continuous,2022.1.1,35.49539322774955,
4,0,4,0,7,0,7,0,,,,,,,,1.0095515138329547,frequency,315.0,3.4371874629877244,0.00014649721800743395,0,34,[],0.02024198998697102,None,['space'],177.73760400002357,177.73760400002357,0.22438968997448683,1.2339412038074415,177.95551870006602,177.73760400002357,[-1.8016473000170663],,,,,,,,,,udoety,001,fr,0,2022-05-03_11h33.02.726,Continuous,2022.1.1,35.49539322774955,
4,0,4,0,8,0,8,0,,,,,,,,2.8275121284414175,frequency,354.0,-1.0,7.887248739356936e-05,0,35,[],0.02027008996810764,None,None,178.95560270000715,178.95560270000715,0.22679028997663409,3.0543024184180516,179.16441070009023,178.95560270000715,,,,,,,,,,,udoety,001,fr,0,2022-05-03_11h33.02.726,Continuous,2022.1.1,35.49539322774955,
4,0,4,0,9,0,9,0,,,,,,,,1.4057195088421912,frequency,397.0,-0.40233914245748537,7.383274657908324e-05,0,36,[],0.020226589869707823,None,['space'],181.99613970005885,181.99613970005885,0.2246290899347514,1.6303485987769426,182.205774400034,181.99613970005885,[-2.1896691999863833],,,,,,,,,,udoety,001,fr,0,2022-05-03_11h33.02.726,Continuous,2022.1.1,35.49539322774955,
4,0,4,0,10,0,10,0,,,,,,,,2.757145786704415,frequency,,,,1,36,[],0.020217089913785458,None,['space'],183.6133958999999,183.6133958999999,0.22576528997160494,2.98291107667602,183.82748600002378,183.6133958999999,[-1.1023743998957798],,,,,,,,,,udoety,001,fr,0,2022-05-03_11h33.02.726,Continuous,2022.1.1,35.49539322774955,
4,0,4,0,11,0,11,0,,,,,,,,1.9685128053619685,frequency,501.0,3.4011395149322583,0.00010545754476010607,0,37,[],0.02123209007550031,None,None,186.5830809000181,186.5830809000181,0.2250457900809124,2.193558595442881,186.79950740002096,186.5830809000181,,,,,,,,,,,udoety,001,fr,0,2022-05-03_11h33.02.726,Continuous,2022.1.1,35.49539322774955,
4,0,4,0,12,0,12,0,,,,,,,,2.821406275800478,frequency,562.0,2.9122461418013197,8.637910794492616e-05,0,38,[],0.020173089927993715,None,['space'],188.76896510005463,188.76896510005463,0.21970728994347155,3.0411135657439496,188.98279270005878,188.76896510005463,[-1.7140090999891981],,,,,,,,,,udoety,001,fr,0,2022-05-03_11h33.02.726,Continuous,2022.1.1,35.49539322774955,
4,0,4,0,13,0,13,0,,,,,,,,1.5640029281315644,frequency,631.0,0.080679568448359,5.155359948264688e-05,0,39,[],0.019620289909653366,None,['space'],191.80877710005734,191.80877710005734,0.22381978994235396,1.7878227180739183,192.0142574000638,191.80877710005734,[-2.465063099982217],,,,,,,,,,udoety,001,fr,0,2022-05-03_11h33.02.726,Continuous,2022.1.1,35.49539322774955,
4,0,4,0,14,0,14,0,,,,,,,,1.21353467918793,frequency,708.0,-0.25648204594910706,4.30349111157809e-05,0,40,[],0.01635568996425718,None,None,193.58173570001964,193.58173570001964,0.213889790000394,1.427424469188324,193.80046980001498,193.58173570001964,,,,,,,,,,,udoety,001,fr,0,2022-05-03_11h33.02.726,Continuous,2022.1.1,35.49539322774955,
5,0,5,0,0,0,0,0,,,,,0.3333333333333333,198.18000719998963,None,2.9119740084909753,frequency,387.0,5.1293524722053805,0.0001442691849395739,0,41,[],0.023621089989319444,None,None,199.20207660004962,None,0.23122889001388103,3.1432028985048563,199.41928470006678,None,,195.0133992000483,None,,,,,,,,udoety,001,fr,0,2022-05-03_11h33.02.726,Continuous,2022.1.1,35.49539322774955,
5,0,5,0,1,0,1,0,,,,,,,,2.7367820901957622,frequency,488.0,0.7076535402665902,7.817430534433765e-05,0,42,[],0.01487449009437114,0.2104718900518492,['space'],202.3243025999982,202.3243025999982,0.2104718900518492,2.9472539802476114,202.53932530002203,202.3243025999982,[-2.4529073999729007],,,,,,,,,,udoety,001,fr,0,2022-05-03_11h33.02.726,Continuous,2022.1.1,35.49539322774955,
5,0,5,0,2,0,2,0,,,,,,,,2.890324755376322,frequency,615.0,1.2987793388455318,6.213417503674694e-05,0,43,[],0.01956938998773694,None,['space'],205.27376520005055,205.27376520005055,0.22698378993663937,3.1173085453129614,205.4900912999874,205.27376520005055,[-2.4594383999938145],,,,,,,,,,udoety,001,fr,0,2022-05-03_11h33.02.726,Continuous,2022.1.1,35.49539322774955,
5,0,5,0,3,0,3,0,,,,,,,,1.9845391986256313,frequency,,,,1,43,[],0.019693089998327196,None,['space'],208.37803450005595,208.37803450005595,0.22237408999353647,2.206913288619168,208.5917858000612,208.37803450005595,[-2.634641999960877],,,,,,,,,,udoety,001,fr,0,2022-05-03_11h33.02.726,Continuous,2022.1.1,35.49539322774955,
5,0,5,0,4,0,4,0,,,,,,,,1.0571520731164676,frequency,977.0,-0.5723524759286607,4.0631186900854396e-05,0,44,[],0.020864889957010746,None,None,210.57911839999724,210.57911839999724,0.2245597899891436,1.2817118631056112,210.79133200005163,210.57911839999724,,,,,,,,,,,udoety,001,fr,0,2022-05-03_11h33.02.726,Continuous,2022.1.1,35.49539322774955,
5,0,5,0,5,0,5,0,,,,,,,,2.580021978897022,frequency,1231.0,-0.04259694891028243,5.345172986970744e-05,0,45,[],0.016196689917705953,0.21362938988022506,['space'],211.85065949999262,211.85065949999262,0.21362938988022506,2.793651368777247,212.07039290003013,211.85065949999262,[-0.7157568999100477],,,,,,,,,,udoety,001,fr,0,2022-05-03_11h33.02.726,Continuous,2022.1.1,35.49539322774955,
5,0,5,0,6,0,6,0,,,,,,,,2.68467305745565,frequency,1551.0,1.0966097602466003,5.969077657448142e-05,0,46,[],0.019168990082107484,None,['space'],214.65226340002846,214.65226340002846,0.22425599012058228,2.9089290475762324,214.87315690005198,214.65226340002846,[-2.1896394999930635],,,,,,,,,,udoety,001,fr,0,2022-05-03_11h33.02.726,Continuous,2022.1.1,35.49539322774955,
5,0,5,0,7,0,7,0,,,,,,,,2.8333737504205794,frequency,1954.0,0.8025490149543886,7.977546444862363e-05,0,47,[],0.019338290090672672,None,['space'],217.55092710000463,217.55092710000463,0.22441629006061703,3.0577900404811964,217.7636248000199,217.55092710000463,[-0.8313609999604523],,,,,,,,,,udoety,001,fr,0,2022-05-03_11h33.02.726,Continuous,2022.1.1,35.49539322774955,
5,0,5,0,8,0,8,0,,,,,,,,1.5441209313421234,frequency,2462.0,0.0,8.505306297983944e-05,0,48,[],0.01876659004483372,None,['space'],220.60214520001318,220.60214520001318,0.2267636900069192,1.7708846213490426,220.81792210007552,220.60214520001318,[-2.362609399948269],,,,,,,,,,udoety,001,fr,0,2022-05-03_11h33.02.726,Continuous,2022.1.1,35.49539322774955,
5,0,5,0,9,0,9,0,,,,,,,,1.8493405523800206,frequency,3102.0,-2.8911410701648173,4.622169386135512e-05,0,49,[],0.017555590136907995,None,['space'],222.3605447000591,222.3605447000591,0.21803359012119472,2.0673741425012153,222.5766787000466,222.3605447000591,[-1.2251498999539763],,,,,,,,,,udoety,001,fr,0,2022-05-03_11h33.02.726,Continuous,2022.1.1,35.49539322774955,
5,0,5,0,10,0,10,0,,,,,,,,1.2498236335525912,frequency,3908.0,-3.9556675399967576,5.2209500830394634e-05,0,50,[],0.01925238990224898,None,None,224.42395640001632,224.42395640001632,0.22567818989045918,1.4755018234430504,224.64080390008166,224.42395640001632,,,,,,,,,,,udoety,001,fr,0,2022-05-03_11h33.02.726,Continuous,2022.1.1,35.49539322774955,
5,0,5,0,11,0,11,0,,,,,,,,2.2298597403554528,frequency,4924.0,-4.2736030050624345,9.019061828253276e-05,0,51,[],0.01908329001162201,None,['space'],225.89292290003505,225.89292290003505,0.22644848993513733,2.45630823029059,226.10823570005596,225.89292290003505,[-1.0307445001089945],,,,,,,,,,udoety,001,fr,0,2022-05-03_11h33.02.726,Continuous,2022.1.1,35.49539322774955,
5,0,5,0,12,0,12,0,,,,,,,,1.4051535576665917,frequency,6204.0,-4.379078384882737,7.57937741697781e-05,0,52,[],0.01877819001674652,None,['space'],228.33371180004906,228.33371180004906,0.22558809001930058,1.6307416476858922,228.54837129998486,228.33371180004906,[-1.9825211999705061],,,,,,,,,,udoety,001,fr,0,2022-05-03_11h33.02.726,Continuous,2022.1.1,35.49539322774955,
5,0,5,0,13,0,13,0,,,,,,,,2.514579565847265,frequency,7817.0,-5.021388464301015,9.8724095101096e-05,0,53,[],0.018839690019376576,None,None,229.95195110002533,229.95195110002533,0.23121689003892243,2.7457964558861874,230.16776240000036,229.95195110002533,,,,,,,,,,,udoety,001,fr,0,2022-05-03_11h33.02.726,Continuous,2022.1.1,35.49539322774955,
6,0,6,0,0,0,0,0,,,,,0.3333333333333333,239.54766610008664,None,1.8303842876544403,frequency,337.0,-1.5201700947326326,7.799248103080593e-05,0,54,[],0.023336190031841397,None,None,240.56122750008944,None,0.22974358999636024,2.0601278776508005,240.78243660007138,None,,232.6819650999969,None,,,,,,,,udoety,001,fr,0,2022-05-03_11h33.02.726,Continuous,2022.1.1,35.49539322774955,
6,0,6,0,1,0,1,0,,,,,,,,1.8604899329155336,frequency,425.0,-4.474758841696508,4.4970125247550664e-05,0,55,[],0.012093989993445575,None,['space'],242.6065787000116,242.6065787000116,0.2088611900107935,2.069351122926327,242.8210820000386,242.6065787000116,[-1.4553397999843583],,,,,,,,,,udoety,001,fr,0,2022-05-03_11h33.02.726,Continuous,2022.1.1,35.49539322774955,
6,0,6,0,2,0,2,0,,,,,,,,2.7140775804221597,frequency,536.0,-0.4216106226600864,6.270968879671118e-05,0,56,[],0.016627389937639236,None,['space'],244.68432410003152,244.68432410003152,0.21642028994392604,2.9304978703660858,244.90081020002253,244.68432410003152,[-1.0689589999383315],,,,,,,,,,udoety,001,fr,0,2022-05-03_11h33.02.726,Continuous,2022.1.1,35.49539322774955,
6,0,6,0,3,0,3,0,,,,,,,,2.0104654789516507,frequency,675.0,-0.6043137908124904,4.404496776424578e-05,0,57,[],0.018995590042322874,None,['space'],247.61991090001538,247.61991090001538,0.22276009002234787,2.2332255689739986,247.83211680001114,247.61991090001538,[-2.388732700026594],,,,,,,,,,udoety,001,fr,0,2022-05-03_11h33.02.726,Continuous,2022.1.1,35.49539322774955,
6,0,6,0,4,0,4,0,,,,,,,,1.5933879865159792,frequency,851.0,-3.3737053829036627,2.7001611607584264e-05,0,58,[],0.015143290045671165,None,['space'],249.84100970008876,249.84100970008876,0.21327698999084532,1.8066649765068246,250.06132840004284,249.84100970008876,[-1.6346409999532625],,,,,,,,,,udoety,001,fr,0,2022-05-03_11h33.02.726,Continuous,2022.1.1,35.49539322774955,
6,0,6,0,5,0,5,0,,,,,,,,2.8700763040562363,frequency,1072.0,-3.9752969373315867,2.9779949493415635e-05,0,59,[],0.01846708997618407,None,None,251.65798560006078,251.65798560006078,0.2204846900422126,3.090560994098449,251.87371640000492,251.65798560006078,,,,,,,,,,,udoety,001,fr,0,2022-05-03_11h33.02.726,Continuous,2022.1.1,35.49539322774955,
6,0,6,0,6,0,6,0,,,,,,,,2.8961760182408605,frequency,1351.0,-2.1186707722182643,4.0745928327207495e-05,0,60,[],0.018796490039676428,None,None,254.74312680005096,254.74312680005096,0.22264329006429762,3.118819308305158,254.94700580008794,254.74312680005096,,,,,,,,,,,udoety,001,fr,0,2022-05-03_11h33.02.726,Continuous,2022.1.1,35.49539322774955,
6,0,6,0,7,0,7,0,,,,,,,,2.126384890428457,frequency,1702.0,0.5273042840220785,6.519636279640943e-05,0,61,[],0.018027890007942915,None,['space'],257.8483338999795,257.8483338999795,0.2184218899346888,2.344806780363146,258.0682963000145,257.8483338999795,[-2.489220999996178],,,,,,,,,,udoety,001,fr,0,2022-05-03_11h33.02.726,Continuous,2022.1.1,35.49539322774955,
6,0,6,0,8,0,8,0,,,,,,,,1.2131440356405132,frequency,2144.0,-6.0,3.909454388369368e-05,0,62,[],0.012119790073484182,0.2061817899812013,None,260.19188090006355,260.19188090006355,0.2061817899812013,1.4193258256217145,260.40380129998084,260.19188090006355,,,,,,,,,,,udoety,001,fr,0,2022-05-03_11h33.02.726,Continuous,2022.1.1,35.49539322774955,
6,0,6,0,9,0,9,0,,,,,,,,1.0124470107378893,frequency,2701.0,-5.939577991338114,3.704629715113488e-05,0,63,[],0.01862558990251273,None,None,261.61832240002695,261.61832240002695,0.2229829899733886,1.235430000711278,261.8355823000893,261.61832240002695,,,,,,,,,,,udoety,001,fr,0,2022-05-03_11h33.02.726,Continuous,2022.1.1,35.49539322774955,
6,0,6,0,10,0,10,0,,,,,,,,1.9193257750752593,frequency,3403.0,-5.001091559475541,4.1304628334507176e-05,0,64,[],0.012277789996005595,None,None,262.8444752000505,262.8444752000505,0.20906068990007043,2.1283864649753297,263.05942780000623,262.8444752000505,,,,,,,,,,,udoety,001,fr,0,2022-05-03_11h33.02.726,Continuous,2022.1.1,35.49539322774955,
6,0,6,0,11,0,11,0,,,,,,,,1.170375766298806,frequency,,,,1,64,[],0.018875290057621896,None,None,264.98235890001524,264.98235890001524,0.22122648998629302,1.391602256285099,265.1986253000796,264.98235890001524,,,,,,,,,,,udoety,001,fr,0,2022-05-03_11h33.02.726,Continuous,2022.1.1,35.49539322774955,
6,0,6,0,12,0,12,0,,,,,,,,2.570591386136416,frequency,5403.0,-5.898847220565938,6.991564029932784e-05,0,65,[],0.01534859009552747,None,None,266.3595665000612,266.3595665000612,0.21460679010488093,2.785198176241297,266.5816320000449,266.3595665000612,,,,,,,,,,,udoety,001,fr,0,2022-05-03_11h33.02.726,Continuous,2022.1.1,35.49539322774955,
6,0,6,0,13,0,13,0,,,,,,,,2.6915212599144223,frequency,6807.0,-6.155406948483655,7.15687497611876e-05,0,66,[],0.01840689009986818,None,None,269.15454930008855,269.15454930008855,0.22207089012954384,2.913592150043966,269.37380479997955,269.15454930008855,,,,,,,,,,,udoety,001,fr,0,2022-05-03_11h33.02.726,Continuous,2022.1.1,35.49539322774955,
7,0,7,0,0,0,0,0,,,,,0.16666666666666666,275.1128217000514,None,2.246201255753726,both,1481.0,-0.034479542058777124,4.8581020995291986e-05,0,50,[],0.02363788988441229,None,None,276.1236324000638,None,0.22813258995302022,2.474333845706746,276.344774600002,None,,272.0628794999793,None,,,,,,,,udoety,001,fr,0,2022-05-03_11h33.02.726,Continuous,2022.1.1,35.49539322774955,
7,0,7,0,1,0,1,0,,,,,,,,2.246201255753726,both,1662.0,-1.1081007340034899,5.2417580635106195e-05,0,51,[],0.01773419009987265,None,['space'],278.58658470003866,278.58658470003866,0.21936739014927298,2.465568645902999,278.8022038000636,278.58658470003866,[-1.5631313000340015],,,,,,,,,,udoety,001,fr,0,2022-05-03_11h33.02.726,Continuous,2022.1.1,35.49539322774955,
7,0,7,0,2,0,2,0,,,,,,,,2.246201255753726,both,,,,1,51,[],0.011817790102213621,0.20842829009052366,['space'],281.04763190005906,281.04763190005906,0.20842829009052366,2.4546295458442495,281.26026330003515,281.04763190005906,[-1.9761131999548525],,,,,,,,,,udoety,001,fr,0,2022-05-03_11h33.02.726,Continuous,2022.1.1,35.49539322774955,
7,0,7,0,3,0,3,0,,,,,,,,2.246201255753726,both,2095.0,0.9907163107433014,8.62108558975248e-05,0,52,[],0.01891189010348171,None,None,283.5081082000397,283.5081082000397,0.22214979003183544,2.4683510457855613,283.72065590007696,283.5081082000397,,,,,,,,,,,udoety,001,fr,0,2022-05-03_11h33.02.726,Continuous,2022.1.1,35.49539322774955,
7,0,7,0,4,0,4,0,,,,,,,,2.246201255753726,both,2351.0,-0.09581511911760288,8.168641440110435e-05,0,53,[],0.014015390072017908,None,['space'],285.96321960003115,285.96321960003115,0.20890519011300057,2.4551064458667264,286.1771470999811,285.96321960003115,[-1.9962490999605507],,,,,,,,,,udoety,001,fr,0,2022-05-03_11h33.02.726,Continuous,2022.1.1,35.49539322774955,
7,0,7,0,5,0,5,0,,,,,,,,2.246201255753726,both,2639.0,-0.8805965707450101,6.980894025917909e-05,0,54,[],0.01799598999787122,None,['space'],288.4287176000653,288.4287176000653,0.2198900900548324,2.4660913458085583,288.6358668000903,288.4287176000653,[-1.805836800020188],,,,,,,,,,udoety,001,fr,0,2022-05-03_11h33.02.726,Continuous,2022.1.1,35.49539322774955,
7,0,7,0,6,0,6,0,,,,,,,,2.246201255753726,both,2962.0,-2.0,4.5423933775008835e-05,0,55,[],0.014249890111386776,None,None,290.88425190001726,290.88425190001726,0.21075089008081704,2.456952145834543,291.1038631000556,290.88425190001726,,,,,,,,,,,udoety,001,fr,0,2022-05-03_11h33.02.726,Continuous,2022.1.1,35.49539322774955,
7,0,7,0,7,0,7,0,,,,,,,,2.246201255753726,both,3325.0,-3.4583651076839192,4.8413210821077784e-05,0,56,[],0.0182177898241207,None,None,293.34774560004007,293.34774560004007,0.2266039898386225,2.4728052455923484,293.5621264000656,293.34774560004007,,,,,,,,,,,udoety,001,fr,0,2022-05-03_11h33.02.726,Continuous,2022.1.1,35.49539322774955,
7,0,7,0,8,0,8,0,,,,,,,,2.246201255753726,both,3732.0,-2.0,6.293915471090753e-05,0,57,[],0.01613209000788629,None,['space'],295.8060970000224,295.8060970000224,0.21598369011189789,2.4621849458656238,296.02078680007253,295.8060970000224,[-1.2784696000162512],,,,,,,,,,udoety,001,fr,0,2022-05-03_11h33.02.726,Continuous,2022.1.1,35.49539322774955,
7,0,7,0,9,0,9,0,,,,,,,,2.246201255753726,both,4189.0,-5.063734448832569,5.411734550954654e-05,0,58,[],0.010210890090093017,None,['space'],298.26779970002826,298.26779970002826,0.20844089007005095,2.454642145823777,298.48351900000125,298.26779970002826,[-1.9643723999615759],,,,,,,,,,udoety,001,fr,0,2022-05-03_11h33.02.726,Continuous,2022.1.1,35.49539322774955,
7,0,7,0,10,0,10,0,,,,,,,,2.246201255753726,both,4702.0,-3.8717206501038453,8.468043568457001e-05,0,59,[],0.009774890029802918,None,['space'],300.73751010000706,300.73751010000706,0.20744568994268775,2.4536469456964136,300.9545803000219,300.73751010000706,[-1.9862624999368563],,,,,,,,,,udoety,001,fr,0,2022-05-03_11h33.02.726,Continuous,2022.1.1,35.49539322774955,
7,0,7,0,11,0,11,0,,,,,,,,2.246201255753726,both,5278.0,-3.916241004316822,9.077909776316125e-05,0,60,[],0.017780789989046752,None,['space'],303.2060533000622,303.2060533000622,0.22257838991936296,2.468779645673089,303.4139668000862,303.2060533000622,[-2.007275199983269],,,,,,,,,,udoety,001,fr,0,2022-05-03_11h33.02.726,Continuous,2022.1.1,35.49539322774955,
7,0,7,0,12,0,12,0,,,,,,,,2.246201255753726,both,5924.0,-3.7872776646519157,7.673360414389813e-05,0,61,[],0.015991889988072217,0.21538008993957192,['space'],305.6653301999904,305.6653301999904,0.21538008993957192,2.461581345693298,305.88120230007917,305.6653301999904,[-2.018373499973677],,,,,,,,,,udoety,001,fr,0,2022-05-03_11h33.02.726,Continuous,2022.1.1,35.49539322774955,
7,0,7,0,13,0,13,0,,,,,,,,2.246201255753726,both,6649.0,-3.7459283158236842,9.133742128101383e-05,0,62,[],0.017625290085561574,None,['space'],308.1272202000255,308.1272202000255,0.2211007900768891,2.467302045830615,308.3453665000852,308.1272202000255,[-2.19217029993888],,,,,,,,,,udoety,001,fr,0,2022-05-03_11h33.02.726,Continuous,2022.1.1,35.49539322774955,
7,0,7,0,14,0,14,0,,,,,,,,2.246201255753726,both,7463.0,-2.5186559088912395,0.00012366258263168882,0,63,[],0.016927390010096133,None,None,310.58734329999425,310.58734329999425,0.21906159003265202,2.465262845786378,310.80374430003576,310.58734329999425,,,,,,,,,,,udoety,001,fr,0,2022-05-03_11h33.02.726,Continuous,2022.1.1,35.49539322774955,
8,0,8,0,0,0,0,0,,,,,0.5833333333333334,317.5296566000907,None,2.02983954781236,frequency,125.0,6.0,0.0014420157515633036,0,67,[],0.023830789839848876,None,None,318.53478540002834,None,0.23064298985991627,2.260482537672276,318.74507250008173,None,,313.0563612000551,None,,,,,,,,udoety,001,fr,0,2022-05-03_11h33.02.726,Continuous,2022.1.1,35.49539322774955,
8,0,8,0,1,0,1,0,,,,,,,,2.239450312656477,frequency,,,,1,67,[],0.017714989953674376,None,['space'],320.7807801000308,320.7807801000308,0.22117518994491547,2.4606255026013923,320.989505500067,320.7807801000308,[-1.565899399924092],,,,,,,,,,udoety,001,fr,0,2022-05-03_11h33.02.726,Continuous,2022.1.1,35.49539322774955,
8,0,8,0,2,0,2,0,,,,,,,,2.064714063120266,frequency,280.0,6.328614944818369,0.0002811978766865,0,68,[],0.018842389923520386,None,None,323.22711320000235,323.22711320000235,0.22156708990223706,2.286281153022503,323.44261050003115,323.22711320000235,,,,,,,,,,,udoety,001,fr,0,2022-05-03_11h33.02.726,Continuous,2022.1.1,35.49539322774955,
8,0,8,0,3,0,3,0,,,,,,,,2.1692231179033854,frequency,420.0,6.0,0.00015070702720365966,0,69,[],0.017653289949521422,None,['space'],325.5131679000333,325.5131679000333,0.22135398990940303,2.3905771078127884,325.729614400072,325.5131679000333,[-1.7382892000023276],,,,,,,,,,udoety,001,fr,0,2022-05-03_11h33.02.726,Continuous,2022.1.1,35.49539322774955,
8,0,8,0,4,0,4,0,,,,,,,,2.0998943717341643,frequency,629.0,3.548421794780227,7.721705570348244e-05,0,70,[],0.017418790026567876,None,['space'],327.8979200000176,327.8979200000176,0.21844679000787437,2.3183411617420386,328.111641400028,327.8979200000176,[-1.9148226999677718],,,,,,,,,,udoety,001,fr,0,2022-05-03_11h33.02.726,Continuous,2022.1.1,35.49539322774955,
8,0,8,0,5,0,5,0,,,,,,,,2.1272455415456406,frequency,942.0,5.007055140672243,7.546739220340846e-05,0,71,[],0.010367889888584614,None,['space'],330.2173516000621,330.2173516000621,0.20686428993940353,2.334109831485044,330.44061030005105,330.2173516000621,[-1.7064498000545427],,,,,,,,,,udoety,001,fr,0,2022-05-03_11h33.02.726,Continuous,2022.1.1,35.49539322774955,
8,0,8,0,6,0,6,0,,,,,,,,2.4438112649950714,frequency,1411.0,4.855236326530983,8.834000756525117e-05,0,72,[],0.01322058995719999,0.2097834899323061,['space'],332.56204940006137,332.56204940006137,0.2097834899323061,2.6535947549273775,332.7805144999875,332.56204940006137,[-1.8752707000821829],,,,,,,,,,udoety,001,fr,0,2022-05-03_11h33.02.726,Continuous,2022.1.1,35.49539322774955,
8,0,8,0,7,0,7,0,,,,,,,,1.138848873293436,frequency,2114.0,3.125369197078893,0.00011083225786367289,0,73,[],0.009901489946059883,0.2083212899742648,['space'],335.2230047000339,335.2230047000339,0.2083212899742648,1.347170163267701,335.4382873000577,335.2230047000339,[-2.1680898000486195],,,,,,,,,,udoety,001,fr,0,2022-05-03_11h33.02.726,Continuous,2022.1.1,35.49539322774955,
8,0,8,0,8,0,8,0,,,,,,,,2.4082527321042724,frequency,3167.0,0.42064997220094646,7.275724115005761e-05,0,74,[],0.017214589985087514,None,['space'],336.57552180008497,336.57552180008497,0.22709458996541798,2.6353473220696904,336.7896427999949,336.57552180008497,[-0.928860199986957],,,,,,,,,,udoety,001,fr,0,2022-05-03_11h33.02.726,Continuous,2022.1.1,35.49539322774955,
8,0,8,0,9,0,9,0,,,,,,,,2.0659287106502804,frequency,4745.0,5.076628845163031,0.0002425548379398157,0,75,[],0.01722709008026868,None,['space'],339.19918890006375,339.19918890006375,0.2215924900956452,2.2875212007459256,339.41511210007593,339.19918890006375,[-2.15994189993944],,,,,,,,,,udoety,001,fr,0,2022-05-03_11h33.02.726,Continuous,2022.1.1,35.49539322774955,
8,0,8,0,10,0,10,0,,,,,,,,2.109904146133964,frequency,7109.0,-3.8163533673968737,9.958572507835536e-05,0,76,[],0.016769090085290372,None,['space'],341.4857993000187,341.4857993000187,0.22249939001630992,2.3324035361502737,341.6997248000698,341.4857993000187,[-1.9342669999459758],,,,,,,,,,udoety,001,fr,0,2022-05-03_11h33.02.726,Continuous,2022.1.1,35.49539322774955,
9,0,9,0,0,0,0,0,,,,,0.3333333333333333,347.4452192999888,None,2.2516421437894563,both,140.0,-5.782682471347064,0.0003027695091421002,0,64,[],0.02147768996655941,None,None,348.46413550002035,None,0.22923908999655396,2.48088123378601,348.6798197000753,None,,343.8050960000837,None,,,,,,,,udoety,001,fr,0,2022-05-03_11h33.02.726,Continuous,2022.1.1,35.49539322774955,
9,0,9,0,1,0,1,0,,,,,,,,2.2516421437894563,both,177.0,-1.8590849189889305,0.0002819223930161293,0,65,[],0.012824589968658984,None,None,350.9374592000386,350.9374592000386,0.20837619004305452,2.460018333832511,351.1518635000102,350.9374592000386,,,,,,,,,,,udoety,001,fr,0,2022-05-03_11h33.02.726,Continuous,2022.1.1,35.49539322774955,
9,0,9,0,2,0,2,0,,,,,,,,2.2516421437894563,both,223.0,1.586400054075379,0.0002645415283935839,0,66,[],0.016935589956119657,None,['space'],353.40922260005027,353.40922260005027,0.21844719001092017,2.4700893338003764,353.6303028999828,353.40922260005027,[-1.7456972000654787],,,,,,,,,,udoety,001,fr,0,2022-05-03_11h33.02.726,Continuous,2022.1.1,35.49539322774955,
9,0,9,0,3,0,3,0,,,,,,,,2.2516421437894563,both,281.0,-5.4501200884301255,7.18904924348126e-05,0,67,[],0.00917728990316391,0.20381338999141008,['space'],355.87894129997585,355.87894129997585,0.20381338999141008,2.4554555337808663,356.09946440008935,355.87894129997585,[-1.9434860000619665],,,,,,,,,,udoety,001,fr,0,2022-05-03_11h33.02.726,Continuous,2022.1.1,35.49539322774955,
9,0,9,0,4,0,4,0,,,,,,,,2.2516421437894563,both,354.0,-6.0,4.435325908195891e-05,0,68,[],0.01702718995511532,None,None,358.35160629998427,358.35160629998427,0.2216142900288105,2.4732564338182668,358.56693750002887,358.35160629998427,,,,,,,,,,,udoety,001,fr,0,2022-05-03_11h33.02.726,Continuous,2022.1.1,35.49539322774955,
9,0,9,0,5,0,5,0,,,,,,,,2.2516421437894563,both,446.0,-3.780550041292626,4.8017479668973836e-05,0,69,[],0.017011289950460196,None,None,360.81728090008255,360.81728090008255,0.21954448998440057,2.471186633773857,361.0377870000666,360.81728090008255,,,,,,,,,,,udoety,001,fr,0,2022-05-03_11h33.02.726,Continuous,2022.1.1,35.49539322774955,
9,0,9,0,6,0,6,0,,,,,,,,2.2516421437894563,both,562.0,1.3793769126787672,7.240444905596345e-05,0,70,[],0.016934290062636137,None,None,363.29183590004686,363.29183590004686,0.22102878999430686,2.472670933783763,363.50427400006447,363.29183590004686,,,,,,,,,,,udoety,001,fr,0,2022-05-03_11h33.02.726,Continuous,2022.1.1,35.49539322774955,
9,0,9,0,7,0,7,0,,,,,,,,2.2516421437894563,both,,,,1,70,[],0.005452789831906557,None,['space'],365.7633484000107,365.7633484000107,0.2069396898150444,2.4585818336045007,365.98315240000375,365.7633484000107,[-2.019902199972421],,,,,,,,,,udoety,001,fr,0,2022-05-03_11h33.02.726,Continuous,2022.1.1,35.49539322774955,
9,0,9,0,8,0,8,0,,,,,,,,2.2516421437894563,both,892.0,-4.459718988125065,2.4525426609953225e-05,0,71,[],0.014576690038666129,None,None,368.23603949998505,368.23603949998505,0.21124489000067115,2.4628870337901274,368.45242450002115,368.23603949998505,,,,,,,,,,,udoety,001,fr,0,2022-05-03_11h33.02.726,Continuous,2022.1.1,35.49539322774955,
9,0,9,0,9,0,9,0,,,,,,,,2.2516421437894563,both,1124.0,-2.025684894096308,3.899644713165808e-05,0,72,[],0.016785489860922098,None,None,370.7105267000152,370.7105267000152,0.21787918987683952,2.469521333666296,370.9220655000536,370.7105267000152,,,,,,,,,,,udoety,001,fr,0,2022-05-03_11h33.02.726,Continuous,2022.1.1,35.49539322774955,
9,0,9,0,10,0,10,0,,,,,,,,2.2516421437894563,both,1416.0,0.18997777210701117,5.150221547264008e-05,0,73,[],0.00919839006382972,0.20202339009847492,['space'],373.1807757000206,373.1807757000206,0.20202339009847492,2.453665533887931,373.3904559999937,373.1807757000206,[-1.9661965999985114],,,,,,,,,,udoety,001,fr,0,2022-05-03_11h33.02.726,Continuous,2022.1.1,35.49539322774955,
10,0,10,0,0,0,0,0,,,,,,378.7674593999982,None,2.527261902474454,none,1000.0,0.6755843085524091,4.761559545615966e-05,0,47,[],0.02381848997902125,None,None,379.7866836000467,None,0.2423632899299264,2.7696251924043804,380.01036890002433,None,,375.64782030007336,None,"[0.16666666666666666, 0.16666666666666666, 0.16666666666666666, 0.3333333333333333, 0.5833333333333334, 0.3333333333333333, 0.3333333333333333, 0.16666666666666666, 0.16666666666666666, 0.5833333333333334, 0.5833333333333334, 0.3333333333333333, 0.3333333333333333, 0.3333333333333333, 0.3333333333333333]",,,,,,,udoety,001,fr,0,2022-05-03_11h33.02.726,Continuous,2022.1.1,35.49539322774955,
10,0,10,0,1,0,1,0,,,,,,,,1.2879859877959996,none,,,,1,47,[],0.012759589939378202,None,None,382.5307007000083,382.5307007000083,0.20969818998128176,1.4976841777772814,382.7512969999807,382.5307007000083,,,,,,,,,,,udoety,001,fr,0,2022-05-03_11h33.02.726,Continuous,2022.1.1,35.49539322774955,
10,0,10,0,2,0,2,0,,,,,,,,1.1238512876339304,none,177.0,3.0,0.0004932689959622452,0,48,[],0.018006589962169528,None,None,384.04398389998823,384.04398389998823,0.22394458996132016,1.3477958775952505,384.25728070002515,384.04398389998823,,,,,,,,,,,udoety,001,fr,0,2022-05-03_11h33.02.726,Continuous,2022.1.1,35.49539322774955,
10,0,10,0,3,0,3,0,,,,,,,,1.5498851421714421,none,630.0,2.0544228794437593,6.481733164176779e-05,0,49,[],0.016605890006758273,None,['space'],385.3775975999888,385.3775975999888,0.22019749006722122,1.7700826322386634,385.5916311000474,385.3775975999888,[-0.8825236998964101],,,,,,,,,,udoety,001,fr,0,2022-05-03_11h33.02.726,Continuous,2022.1.1,35.49539322774955,
10,0,10,0,4,0,4,0,,,,,,,,1.0082816626781916,none,794.0,1.1930629313137673,4.433025729196543e-05,0,50,[],0.016272389912046492,None,['space'],387.14586230006535,387.14586230006535,0.22519408992957324,1.2334757526077649,387.36725150002167,387.14586230006535,[-1.2597584000322968],,,,,,,,,,udoety,001,fr,0,2022-05-03_11h33.02.726,Continuous,2022.1.1,35.49539322774955,
10,0,10,0,5,0,5,0,,,,,,,,1.090910058505501,none,265.0,6.406775680893794,0.0003169668750203643,0,51,[],0.012584790005348623,None,['space'],388.3725189000834,388.3725189000834,0.2070422900142148,1.2979523485197157,388.5864663000684,388.3725189000834,[-0.7250707000494003],,,,,,,,,,udoety,001,fr,0,2022-05-03_11h33.02.726,Continuous,2022.1.1,35.49539322774955,
10,0,10,0,6,0,6,0,,,,,,,,2.367316441460458,none,397.0,4.744449113782883,0.00013353294808922484,0,52,[],0.00735788990277797,0.2024758899351582,['space'],389.68900330003817,389.68900330003817,0.2024758899351582,2.5697923313956164,389.90779760002624,389.68900330003817,[-0.8577768999384716],,,,,,,,,,udoety,001,fr,0,2022-05-03_11h33.02.726,Continuous,2022.1.1,35.49539322774955,
10,0,10,0,7,0,7,0,,,,,,,,2.9643897389034737,none,500.0,4.183000776287149,0.00011564318468470426,0,53,[],0.01384169002994895,None,['space'],392.273935800069,392.273935800069,0.21273658995050937,3.177126328853983,392.4902672000462,392.273935800069,[-2.1791074000066146],,,,,,,,,,udoety,001,fr,0,2022-05-03_11h33.02.726,Continuous,2022.1.1,35.49539322774955,
10,0,10,0,8,0,8,0,,,,,,,,1.9359763670179986,none,141.0,3.0396752575988013,0.0008234125752193083,0,54,[],0.015515790088102221,None,['space'],395.45953690004535,395.45953690004535,0.21673979004845023,2.1527161570664486,395.67242210009135,395.45953690004535,[-2.7238736000144854],,,,,,,,,,udoety,001,fr,0,2022-05-03_11h33.02.726,Continuous,2022.1.1,35.49539322774955,
11,0,11,0,0,0,0,0,,,,,0.16666666666666666,401.73413270001765,None,1.6572606263656502,frequency,127.0,-3.619751542613592,0.0004646743658811545,0,77,[],0.02367788995616138,None,None,402.77281900006346,None,0.2197776900138706,1.8770383163795208,402.9803785000695,None,,397.61270060006063,None,,,,,,,,udoety,001,fr,0,2022-05-03_11h33.02.726,Continuous,2022.1.1,35.49539322774955,
11,0,11,0,1,0,1,0,,,,,,,,1.9957344924325997,frequency,143.0,1.974112638359816,0.0007059994713077254,0,78,[],0.011819589883089066,None,None,404.6381423000712,404.6381423000712,0.20715008990373462,2.2028845823363343,404.85382830002345,404.6381423000712,,,,,,,,,,,udoety,001,fr,0,2022-05-03_11h33.02.726,Continuous,2022.1.1,35.49539322774955,
11,0,11,0,2,0,2,0,,,,,,,,2.1210777124979607,frequency,161.0,0.8218967172133218,0.0004479199827935435,0,79,[],0.012285089935176075,0.20902478997595608,['space'],406.85665720002726,406.85665720002726,0.20902478997595608,2.330102502473917,407.0760132999858,406.85665720002726,[-1.7701107000466436],,,,,,,,,,udoety,001,fr,0,2022-05-03_11h33.02.726,Continuous,2022.1.1,35.49539322774955,
11,0,11,0,3,0,3,0,,,,,,,,2.35359600775368,frequency,181.0,0.9514353118877774,0.000373378539317447,0,80,[],0.009149989928118885,None,['space'],409.2015970000066,409.2015970000066,0.2134462899994105,2.5670422977530905,409.4198515000753,409.2015970000066,[-1.890794700011611],,,,,,,,,,udoety,001,fr,0,2022-05-03_11h33.02.726,Continuous,2022.1.1,35.49539322774955,
11,0,11,0,4,0,4,0,,,,,,,,1.6426148645013696,frequency,203.0,-4.0,0.0001637742235236889,0,81,[],0.015250390046276152,None,['space'],411.7769580000313,411.7769580000313,0.21593999001197517,1.8585548545133448,411.99263580003753,411.7769580000313,[-2.11304890003521],,,,,,,,,,udoety,001,fr,0,2022-05-03_11h33.02.726,Continuous,2022.1.1,35.49539322774955,
11,0,11,0,5,0,5,0,,,,,,,,2.121787967853346,frequency,228.0,-2.549534194151705,0.00015701838949776006,0,82,[],0.011926389997825027,0.20450319000519812,['space'],413.6346091000596,413.6346091000596,0.20450319000519812,2.326291157858544,413.85134809999727,413.6346091000596,[-1.203727100044489],,,,,,,,,,udoety,001,fr,0,2022-05-03_11h33.02.726,Continuous,2022.1.1,35.49539322774955,
11,0,11,0,6,0,6,0,,,,,,,,2.701917873809327,frequency,256.0,4.628742857388655,0.0002745386444503683,0,83,[],0.01569199003279209,None,['space'],415.9792831999948,415.9792831999948,0.21909458993468434,2.9210124637440114,416.19170419999864,415.9792831999948,[-1.8198846000013873],,,,,,,,,,udoety,001,fr,0,2022-05-03_11h33.02.726,Continuous,2022.1.1,35.49539322774955,
11,0,11,0,7,0,7,0,,,,,,,,2.9954854314851382,frequency,,,,1,83,[],0.01606238994281739,None,['space'],418.8964057000121,418.8964057000121,0.2193786900024861,3.2148641214876243,419.10757830005605,418.8964057000121,[-2.577594600035809],,,,,,,,,,udoety,001,fr,0,2022-05-03_11h33.02.726,Continuous,2022.1.1,35.49539322774955,
11,0,11,0,8,0,8,0,,,,,,,,2.817198007428508,frequency,322.0,0.3491065398431372,0.00010077389953756113,0,84,[],0.013088089879602194,0.209622289869003,None,422.1056908000028,422.1056908000028,0.209622289869003,3.026820297297511,422.3252757000737,422.1056908000028,,,,,,,,,,,udoety,001,fr,0,2022-05-03_11h33.02.726,Continuous,2022.1.1,35.49539322774955,
11,0,11,0,9,0,9,0,,,,,,,,2.670375151676136,frequency,361.0,-3.353768517561244,5.8915027561813814e-05,0,85,[],0.015859190025366843,None,['space'],425.1406088999938,425.1406088999938,0.219461590051651,2.889836741727787,425.3496435000561,425.1406088999938,[-2.5818338999524713],,,,,,,,,,udoety,001,fr,0,2022-05-03_11h33.02.726,Continuous,2022.1.1,35.49539322774955,
11,0,11,0,10,0,10,0,,,,,,,,1.189014833742249,frequency,405.0,-0.4484166889193224,7.245984181137063e-05,0,86,['frequency'],0.0092914899578318,None,['space'],428.02083380008116,428.02083380008116,0.20462759002111852,1.3936424237633676,428.2390287000453,428.02083380008116,[-1.8776544999564067],,,,"{'estimation': [[125.0, 7.767526731630287], [131.04733325229532, 7.0], [133.9716828170366, 6.656500306201034], [137.59688998503978, 6.0], [143.22549179037475, 5.0], [143.5872943746293, 4.9383307813550426], [148.1326432591692, 4.0], [152.99319904133253, 2.9999999999999996], [153.89305166811442, 2.8226896391781566], [157.982807142707, 2.0], [162.93405199746707, 1.0], [164.93848884661162, 0.6141123191195361], [168.61386827407807, 0.0], [174.62905719259822, -1.0], [176.77669529663655, -1.3417813444499562], [182.69418272625936, -2.0], [189.46457081379947, -2.7289243782391917], [195.34934598532453, -3.0], [203.0630990890585, -3.3451133942219644], [217.6376408240306, -3.13477427144145], [219.83471370740534, -3.0], [233.25824788420132, -2.223824622374808], [235.91525961676885, -2.0], [248.29823888657344, -1.0], [249.99999999999937, -0.8698867872471001], [260.49620542706424, 0.0], [267.94336563407256, 0.5844607539483321], [274.2204452072542, 1.0], [287.1745887492579, 1.818544143291099], [291.8405773251001, 2.0], [307.78610333622805, 2.59200826164761], [329.87697769322244, 2.7940741210175672], [353.55339059327247, 2.4591782867086414], [369.103830392371, 2.0], [378.929141627598, 1.7186549107929445], [399.30246244611686, 1.0], [406.12619817811606, 0.7651278444208784], [428.6278833595861, 0.0], [435.2752816480601, -0.22071858875039624], [462.72443739937603, -1.0], [466.5164957684015, -1.105000060371348], [499.9999999999975, -1.8190431633958455], [511.78306745026185, -2.0], [535.8867312681438, -2.3553015228258194], [574.3491774985143, -2.725071955333537], [615.5722066724546, -2.9589144101224716], [631.5671722420673, -3.0], [659.7539553864432, -3.0709678594939622], [707.1067811865431, -3.055901748999577], [725.7946794996953, -3.0], [757.8582832551941, -2.907780121619021], [812.2523963562301, -2.6341273352295715], [870.5505632961181, -2.264200169230329], [910.055054852868, -2.0], [933.0329915368008, -1.8529328521443178], [999.9999999999914, -1.487902211568136], [1071.773462536285, -1.2485059893439707], [1148.698354997026, -1.1968576365936163], [1231.1444133449063, -1.3581536316296505], [1319.5079107728832, -1.7095958006225027], [1375.7527413510945, -2.0], [1414.2135623730828, -2.1947543073332874], [1515.7165665103846, -2.7234244500613753], [1575.7234937849491, -3.0], [1624.5047927124563, -3.2205523030523264], [1741.1011265922318, -3.6183061881100667], [1866.065983073597, -3.888962660426317], [1970.0178077533665, -4.0], [1999.9999999999802, -4.0311136736746835], [2143.5469250725646, -4.056099213077483], [2255.715131261748, -4.0], [2297.396709994046, -3.979983568322673], [2462.2888266898062, -3.8158156166703256], [2639.01582154576, -3.573276582979185], [2828.427124746159, -3.267099240656722], [2986.4667033575693, -3.0], [3031.4331330207615, -2.926990990326293], [3249.0095854249043, -2.6136909786555353], [3482.2022531844555, -2.401014947815768], [3732.1319661471844, -2.359008500166427], [3999.9999999999504, -2.5343559735947507], [4287.093850145118, -2.9299749278943423], [4323.868968722175, -3.0], [4594.793419988076, -3.4911805888983807], [4859.681651726511, -4.0], [4924.577653379601, -4.118962296595276], [5278.031643091513, -4.685932364756374], [5576.147040918911, -5.0], [5656.854249492303, -5.081151211290564], [6062.866266041508, -5.216478480072111], [6498.019170849785, -5.060605548201611], [6562.138508833015, -5.0], [6964.404506368894, -4.636538271861262], [7464.2639322943505, -4.016007436795398], [7476.4817268627085, -4.0], [7999.999999999882, -3.289387473950897]], 'plus_line': [[125.0, 3.653245215303034], [131.09061071607937, 3.0000000000000004], [133.9716828170366, 2.7109119299859685], [137.7053188904128, 2.0], [143.47449775389006, 1.0], [143.5872943746293, 0.9812545723519732], [147.84839194260724, 0.0], [152.60975735961532, -1.0], [153.89305166811442, -1.249738099621342], [157.25369426254176, -2.0], [161.9145613010188, -3.0], [164.93848884661162, -3.580702689274456], [167.24821620260138, -4.0], [172.80753849841147, -5.0], [176.77669529663666, -5.644406911512421], [179.76843478544276, -6.0], [188.52056252992267, -7.0], [189.46457081379947, -7.1046626662129135], [203.0630990890585, -7.747348979404011], [217.6376408240306, -7.493012051759402], [224.89020117289138, -7.0], [233.25824788420132, -6.466477085962335], [238.37707136167882, -6.0], [249.45755174228492, -5.0], [249.99999999999937, -4.9542505497377025], [260.777534520148, -4.0], [267.94336563407256, -3.373730563028354], [273.1701704002352, -3.0], [287.1745887492579, -2.021047016118358], [287.65507816927106, -2.0], [307.78610333622805, -1.1916548250275523], [324.6516653611372, -1.0], [329.87697769322244, -0.9481981453942556], [333.5056020711294, -1.0], [353.55339059327247, -1.2987961024241206], [376.7667754564733, -2.0], [378.929141627598, -2.066471092403808], [403.75680776244695, -3.0], [406.12619817811606, -3.088134490060776], [431.0872041955243, -4.0], [435.2752816480601, -4.1506573042745165], [463.7033792240644, -5.0], [466.5164957684015, -5.083820682021338], [499.9999999999975, -5.814834169693636], [513.1481085442023, -6.0], [535.8867312681438, -6.32875434394651], [574.3491774985143, -6.6553128738085405], [615.5722066724546, -6.848395357333086], [659.7539553864432, -6.945760958215257], [707.1067811865431, -6.941556711891822], [757.8582832551941, -6.8052550200647675], [812.2523963562301, -6.514825686246896], [870.5505632961181, -6.081910533244374], [880.6821327961499, -6.0], [933.0329915368008, -5.628624676516942], [999.9999999999926, -5.233853369305242], [1069.4544413935598, -5.0], [1071.773462536285, -4.993110154049851], [1148.698354997026, -4.98269228521529], [1155.552583415114, -5.0], [1231.1444133449063, -5.206369798036873], [1319.5079107728832, -5.61635015741807], [1388.3809534845345, -6.0], [1414.2135623730828, -6.151104351543503], [1515.7165665103846, -6.741733260073393], [1568.5106618669256, -7.0], [1624.5047927124563, -7.284407889574904], [1741.1011265922318, -7.698474426510974], [1866.065983073597, -7.945523975276009], [1933.863906620594, -8.0], [1999.9999999999827, -8.056890470864076], [2143.5469250725646, -8.051370405798494], [2215.287156671902, -8.0], [2297.396709994046, -7.949836912177346], [2462.2888266898062, -7.7606856068710615], [2639.01582154576, -7.4681838060021875], [2828.427124746159, -7.079567310894939], [2865.7227949864064, -7.0], [3031.4331330207615, -6.691605221602435], [3249.0095854249043, -6.371758737749906], [3482.2022531844596, -6.200919434360944], [3732.1319661471844, -6.241347575592634], [3999.9999999999504, -6.494479484295619], [4287.093850145118, -6.9118953984643765], [4336.325033692163, -7.0], [4594.793419988081, -7.467445242999634], [4907.828661094033, -8.0], [4924.577653379601, -8.028968931127745], [5278.031643091506, -8.549483356141327], [5656.854249492303, -8.877711203582384], [6062.866266041508, -8.958105868635249], [6498.019170849792, -8.761569482191884], [6964.4045063688845, -8.320360343729645], [7249.118880722904, -8.0], [7464.2639322943505, -7.77485283439667], [7999.999999999882, -7.347033424431851]], 'minus_line': [[125.0, 12.109003672259723], [125.7178235317663, 12.0], [132.5914260059049, 11.0], [133.9716828170366, 10.810928945272677], [138.50737678781593, 10.0], [143.5872943746293, 9.047463965246108], [143.83108908997252, 9.0], [148.89623542555654, 8.0], [153.56737851048536, 7.0], [153.89305166811442, 6.934274132637278], [158.7812341239262, 6.0], [163.5750292699222, 5.0], [164.93848884661162, 4.729054359178661], [169.4553189458506, 4.0], [175.30005307491086, 3.0], [176.77669529663666, 2.758805364362013], [183.62035944672132, 2.0], [189.46457081379947, 1.3570022501874157], [196.71589469035092, 1.0], [203.0630990890584, 0.7127968809139753], [217.6376408240306, 0.8738910287748148], [219.86559003069044, 1.0], [233.25824788420132, 1.7344651241077391], [236.53619002701404, 2.0], [249.61584615213553, 3.0], [249.99999999999937, 3.028200663845343], [261.7427598777382, 4.0], [267.94336563407256, 4.470394479888709], [276.01026012222223, 5.0], [287.17458874925825, 5.696551652057382], [295.2281399989341, 6.0], [307.78610333622805, 6.474136499915804], [329.876977693222, 6.666795425011483], [353.55339059327247, 6.315445530604958], [363.7112501438402, 6.0], [378.929141627598, 5.5634099354684725], [394.57809578912446, 5.0], [406.12619817811606, 4.6045416534027], [423.6321844536756, 4.0], [435.2752816480601, 3.6160039262794372], [456.2061125701607, 3.0], [466.5164957684015, 2.7134775175723433], [497.70601824338934, 2.0], [499.9999999999975, 1.951159352269367], [535.8867312681438, 1.3742793983227375], [568.2533906750409, 1.0], [574.3491774985143, 0.9368382794777793], [615.5722066724546, 0.6852494761102306], [659.7539553864432, 0.5912024524455466], [707.1067811865431, 0.6490258304859235], [757.8582832551941, 0.8350802973228946], [789.1473974901303, 1.0], [812.2523963562301, 1.1299340892532166], [870.5505632961181, 1.4993629820061705], [933.0329915368008, 1.8774479055452447], [956.0947037094664, 2.0], [999.9999999999926, 2.2443058895325865], [1071.773462536285, 2.5038563368488633], [1148.698354997026, 2.5815820152516507], [1231.1444133449063, 2.443988103147071], [1319.5079107728816, 2.097663834609463], [1338.0846765324445, 2.0], [1414.2135623730828, 1.6405136305766097], [1515.7165665103846, 1.1318879772894461], [1544.5764544233589, 1.0], [1624.5047927124563, 0.6687761568965456], [1741.1011265922318, 0.28669776898470467], [1866.065983073597, 0.0026006423976298043], [1868.2338203939767, 0.0], [1999.9999999999802, -0.1376055291965025], [2143.5469250725646, -0.15892005236943968], [2297.396709994046, -0.07878091449941423], [2379.9216339810296, 0.0], [2462.2888266898062, 0.08445550814530234], [2639.01582154576, 0.310541912014489], [2828.427124746159, 0.5756908935887919], [3031.433133020758, 0.8737978270234756], [3117.1659602805366, 1.0], [3249.0095854249043, 1.2057188491667112], [3482.2022531844555, 1.4899954086018172], [3732.1319661471844, 1.6221495092464377], [3999.9999999999554, 1.5212919879447258], [4287.093850145118, 1.1413525159747129], [4355.420239870999, 1.0], [4594.793419988081, 0.5522209805124406], [4846.876988713694, 0.0], [4924.577653379601, -0.15578041043854057], [5278.031643091513, -0.8017053742508333], [5429.278670757227, -1.0], [5656.854249492303, -1.2633611315587414], [6062.866266041516, -1.4483737196032322], [6498.019170849792, -1.3400038906348724], [6897.383088532104, -1.0], [6964.404506368894, -0.9400091779699624], [7464.2639322943505, -0.21830703638383983], [7581.544485538781, 0.0], [7999.999999999882, 0.8123746274370255]]}",,,,,,udoety,001,fr,0,2022-05-03_11h33.02.726,Continuous,2022.1.1,35.49539322774955,
12,0,12,0,0,0,0,0,,,,,,433.1435978000518,None,1.0058654445613193,none,3212.0,-1.7104760461119726,5.75759479764013e-05,0,55,['frequency'],0.023648790083825588,0.22107268997933716,None,434.1668523000553,None,0.22107268997933716,1.2269381345406565,434.3749212999828,None,,429.4312200000277,None,"[0.3333333333333333, 0.5833333333333334, 0.3333333333333333, 0.16666666666666666, 0.16666666666666666, 0.5833333333333334, 0.5833333333333334, 0.16666666666666666, 0.16666666666666666, 0.5833333333333334, 0.5833333333333334, 0.16666666666666666, 0.3333333333333333, 0.5833333333333334, 0.16666666666666666]",,,,,,,udoety,001,fr,0,2022-05-03_11h33.02.726,Continuous,2022.1.1,35.49539322774955,
12,0,12,0,1,0,1,0,,,,,,,,1.655951220596662,none,,,,1,55,['frequency'],0.01153308991342783,None,['space'],435.3745879000053,435.3745879000053,0.2046677899779752,1.8606190105746372,435.5901894000126,435.3745879000053,[-0.36752790003083646],,,,,,,,,,udoety,001,fr,0,2022-05-03_11h33.02.726,Continuous,2022.1.1,35.49539322774955,
12,0,12,0,2,0,2,0,,,,,,,,1.1141562104073783,none,2144.0,1.560712035859539,9.335804580604362e-05,0,56,['frequency'],0.011486090021207929,None,None,437.2459851000458,437.2459851000458,0.2076807899866253,1.3218370003940036,437.46240429999307,437.2459851000458,,,,,,,,,,,udoety,001,fr,0,2022-05-03_11h33.02.726,Continuous,2022.1.1,35.49539322774955,
12,0,12,0,3,0,3,0,,,,,,,,1.5317525675895358,none,1910.0,1.559352071745164,8.466068757635062e-05,0,57,['frequency'],0.01475538988597691,None,['space'],438.58715909998864,438.58715909998864,0.21892008988652378,1.7506726574760596,438.79709740006365,438.58715909998864,[-0.7969180000945926],,,,,,,,,,udoety,001,fr,0,2022-05-03_11h33.02.726,Continuous,2022.1.1,35.49539322774955,
12,0,12,0,4,0,4,0,,,,,,,,1.6771802312098956,none,902.0,-0.7798835169144502,3.77233109511153e-05,0,58,['frequency'],0.008220290066674352,0.20374359004199505,['space'],440.33450480003376,440.33450480003376,0.20374359004199505,1.8809238212518906,440.55112780001946,440.33450480003376,[-1.2793005999410525],,,,,,,,,,udoety,001,fr,0,2022-05-03_11h33.02.726,Continuous,2022.1.1,35.49539322774955,
12,0,12,0,5,0,5,0,,,,,,,,2.102400910772456,none,6063.0,0.0,0.00011883876408699022,0,59,['frequency'],0.010693690041080117,None,None,442.2273071000818,442.2273071000818,0.206551990006119,2.308952900778575,442.44300299999304,442.2273071000818,,,,,,,,,,,udoety,001,fr,0,2022-05-03_11h33.02.726,Continuous,2022.1.1,35.49539322774955,
12,0,12,0,6,0,6,0,,,,,,,,1.6220355027992193,none,1702.0,1.2878118610127969,7.116209852099452e-05,0,60,['frequency'],0.01082229008898139,None,['space'],444.55293550004717,444.55293550004717,0.20642049005255103,1.8284559928517703,444.76703960006125,444.55293550004717,[-1.8826432999921963],,,,,,,,,,udoety,001,fr,0,2022-05-03_11h33.02.726,Continuous,2022.1.1,35.49539322774955,
12,0,12,0,7,0,7,0,,,,,,,,2.4241461338281676,none,1351.0,0.22252769537145523,5.335119362126946e-05,0,61,['frequency'],0.014611390070058405,None,['space'],446.3962028999813,446.3962028999813,0.21855569002218544,2.642701823850353,446.6080604000017,446.3962028999813,[-1.325428600073792],,,,,,,,,,udoety,001,fr,0,2022-05-03_11h33.02.726,Continuous,2022.1.1,35.49539322774955,
12,0,12,0,8,0,8,0,,,,,,,,1.1212534830000997,none,5402.0,-3.863039233299516,8.840582312538073e-05,0,62,['frequency'],0.011201290064491332,None,['space'],449.03376710007433,449.03376710007433,0.2089993900153786,1.3302528730154783,449.25048400007654,449.03376710007433,[-2.090920599992387],,,,,,,,,,udoety,001,fr,0,2022-05-03_11h33.02.726,Continuous,2022.1.1,35.49539322774955,
13,0,13,0,0,0,0,0,,,,,,452.9189954000758,None,2.807491953693991,time,501.0,4.371226927689258,0.00011791852187298302,0,27,['frequency'],0.023506890051066875,None,None,453.95466970000416,None,0.2219982900423929,3.029490243736384,454.1651472999947,None,,450.38287259999197,None,"[0.3333333333333333, 0.16666666666666666, 0.3333333333333333, 0.16666666666666666, 0.5833333333333334, 0.5833333333333334, 0.5833333333333334, 0.5833333333333334, 0.5833333333333334, 0.16666666666666666, 0.16666666666666666, 0.16666666666666666, 0.16666666666666666, 0.16666666666666666, 0.5833333333333334]",,,,,,,udoety,001,fr,0,2022-05-03_11h33.02.726,Continuous,2022.1.1,35.49539322774955,
13,0,13,0,1,0,1,0,,,,,,,,2.807491953693991,time,945.0,-2.041350150350944,3.3590113954636324e-05,0,28,['frequency'],0.009991290047764778,None,['space'],456.97921950009186,456.97921950009186,0.21049499011132866,3.0179869438053197,457.1979349000612,456.97921950009186,[-2.5324133000103757],,,,,,,,,,udoety,001,fr,0,2022-05-03_11h33.02.726,Continuous,2022.1.1,35.49539322774955,
13,0,13,0,2,0,2,0,,,,,,,,2.807491953693991,time,397.0,5.062719904391756,0.00013851664909233572,0,29,['frequency'],0.014303390053100884,None,['space'],460.0109124000883,460.0109124000883,0.21938769007101655,3.0268796437650076,460.23135240003467,460.0109124000883,[-2.5073775000637397],,,,,,,,,,udoety,001,fr,0,2022-05-03_11h33.02.726,Continuous,2022.1.1,35.49539322774955,
13,0,13,0,3,0,3,0,,,,,,,,2.807491953693991,time,,,,1,29,['frequency'],0.010938289924524724,None,['space'],463.0383503000485,463.0383503000485,0.20560598990414292,3.013097943598134,463.25241660000756,463.0383503000485,[-2.655626100022346],,,,,,,,,,udoety,001,fr,0,2022-05-03_11h33.02.726,Continuous,2022.1.1,35.49539322774955,
13,0,13,0,4,0,4,0,,,,,,,,2.807491953693991,time,354.0,-1.0,7.887248739356936e-05,0,30,['frequency'],0.015546290087513626,None,None,466.06804949999787,466.06804949999787,0.21875809004995972,3.026250043743951,466.2775125000626,466.06804949999787,,,,,,,,,,,udoety,001,fr,0,2022-05-03_11h33.02.726,Continuous,2022.1.1,35.49539322774955,
13,0,13,0,5,0,5,0,,,,,,,,2.807491953693991,time,562.0,1.4193263772476408,7.273822960802959e-05,0,31,['frequency'],0.013297389959916472,None,None,469.0873620000202,469.0873620000202,0.21304388996213675,3.020535843656128,469.3037558000069,469.0873620000202,,,,,,,,,,,udoety,001,fr,0,2022-05-03_11h33.02.726,Continuous,2022.1.1,35.49539322774955,
13,0,13,0,6,0,6,0,,,,,,,,2.807491953693991,time,236.0,1.4905193282712412,0.00023139989812736086,0,32,['frequency'],0.0015152900014072657,None,['space'],472.12691840005573,472.12691840005573,0.19716519000940025,3.0046571437033913,472.3452979000285,472.12691840005573,[-2.688952700002119],,,,,,,,,,udoety,001,fr,0,2022-05-03_11h33.02.726,Continuous,2022.1.1,35.49539322774955,
13,0,13,0,7,0,7,0,,,,,,,,2.807491953693991,time,446.0,0.14166164654284596,7.54240668131152e-05,0,33,['frequency'],0.012317590182647109,None,['space'],475.1608161000768,475.1608161000768,0.212751790182665,3.020243743876656,475.38204519997817,475.1608161000768,[-2.5219689999939874],,,,,,,,,,udoety,001,fr,0,2022-05-03_11h33.02.726,Continuous,2022.1.1,35.49539322774955,
14,0,14,0,0,0,0,0,,,,,0.3333333333333333,482.6066897000419,None,1.8410284659817204,both,125.0,5.0,0.0012851978913844323,0,74,['frequency'],0.023851890000514686,None,None,483.62114689999726,None,0.21711979003157467,2.058148256013295,483.8283193000825,None,,478.1972949000774,None,,,,,,,,udoety,001,fr,0,2022-05-03_11h33.02.726,Continuous,2022.1.1,35.49539322774955,
14,0,14,0,1,0,1,0,,,,,,,,1.8410284659817204,both,,,,1,74,['frequency'],0.013756789965555072,None,None,485.67139760009013,485.67139760009013,0.2146140899276361,2.0556425559093565,485.8793430000078,485.67139760009013,,,,,,,,,,,udoety,001,fr,0,2022-05-03_11h33.02.726,Continuous,2022.1.1,35.49539322774955,
14,0,14,0,2,0,2,0,,,,,,,,1.8410284659817204,both,198.0,4.356203538230728,0.00045033634845632333,0,75,['frequency'],0.011059490032494068,None,None,487.7253439000342,487.7253439000342,0.2069808900123462,2.0480093559940666,487.9404715000419,487.7253439000342,,,,,,,,,,,udoety,001,fr,0,2022-05-03_11h33.02.726,Continuous,2022.1.1,35.49539322774955,
14,0,14,0,3,0,3,0,,,,,,,,1.8410284659817204,both,249.0,5.534973322788346,0.00032045680875007775,0,76,['frequency'],0.013264989946037531,None,['space'],489.792978100013,489.792978100013,0.21749009005725384,2.0585185560389743,490.00747060007416,489.792978100013,[-1.6175298999296501],,,,,,,,,,udoety,001,fr,0,2022-05-03_11h33.02.726,Continuous,2022.1.1,35.49539322774955,
14,0,14,0,4,0,4,0,,,,,,,,1.8410284659817204,both,314.0,6.188287826348157,0.00020324730631249364,0,77,['frequency'],0.009650390013121068,None,"['space', 'space']",491.8484744000016,491.8484744000016,0.20505459001287818,2.0460830559945986,492.0668288000161,491.8484744000016,"[-1.7065102000487968, -0.009986200020648539]",,,,,,,,,,udoety,001,fr,0,2022-05-03_11h33.02.726,Continuous,2022.1.1,35.49539322774955,
14,0,14,0,5,0,5,0,,,,,,,,1.8410284659817204,both,396.0,5.022557741333662,0.00013834050656057133,0,78,['frequency'],0.001795190037228167,0.18514698999933898,['space'],493.9174968000734,493.9174968000734,0.18514698999933898,2.0261754559810594,494.12262500007637,493.9174968000734,[-0.12771530007012188],,,,,,,,,,udoety,001,fr,0,2022-05-03_11h33.02.726,Continuous,2022.1.1,35.49539322774955,
14,0,14,0,6,0,6,0,,,,,,,,1.8410284659817204,both,499.0,4.838348348829274,0.00012479520970220986,0,79,['frequency'],0.008831390063278377,None,['space'],495.96894649998285,495.96894649998285,0.20348459004890174,2.044513056030622,496.18171370006166,495.96894649998285,[-0.3696227000327781],,,,,,,,,,udoety,001,fr,0,2022-05-03_11h33.02.726,Continuous,2022.1.1,35.49539322774955,
14,0,14,0,7,0,7,0,,,,,,,,1.8410284659817204,both,629.0,4.68128786544146,8.79744461601154e-05,0,80,['frequency'],0.006233389838598669,0.19858878990635276,['space'],498.031102500041,498.031102500041,0.19858878990635276,2.039617255888073,498.2419125000015,498.031102500041,[-0.08121129998471588],,,,,,,,,,udoety,001,fr,0,2022-05-03_11h33.02.726,Continuous,2022.1.1,35.49539322774955,
14,0,14,0,8,0,8,0,,,,,,,,1.8410284659817204,both,792.0,-1.2307333838487962,3.36148602921553e-05,0,81,['frequency'],0.008861389942467213,0.2044368899660185,['space'],500.08928760001436,500.08928760001436,0.2044368899660185,2.045465355947739,500.30808650003746,500.08928760001436,[-0.21934099995996803],,,,,,,,,,udoety,001,fr,0,2022-05-03_11h33.02.726,Continuous,2022.1.1,35.49539322774955,
14,0,14,0,9,0,9,0,,,,,,,,1.8410284659817204,both,998.0,0.5282474246404609,4.6754306084200445e-05,0,82,['frequency'],0.007855289848521352,0.20134698995389044,None,502.14967870002147,502.14967870002147,0.20134698995389044,2.042375455935611,502.36102319997735,502.14967870002147,,,,,,,,,,,udoety,001,fr,0,2022-05-03_11h33.02.726,Continuous,2022.1.1,35.49539322774955,
14,0,14,0,10,0,10,0,,,,,,,,1.8410284659817204,both,1257.0,3.090472434132524,7.755446217938913e-05,0,83,['frequency'],0.009997790097258985,0.20699439011514187,['space'],504.2097345000366,504.2097345000366,0.20699439011514187,2.0480228560968623,504.42834169999696,504.2097345000366,[-1.7475857000099495],,,,,,,,,,udoety,001,fr,0,2022-05-03_11h33.02.726,Continuous,2022.1.1,35.49539322774955,
14,0,14,0,11,0,11,0,,,,,,,,1.8410284659817204,both,1584.0,3.700739136669177,8.482772012689536e-05,0,84,['frequency'],0.009190290002152324,0.20493819005787373,['space'],506.2689677000744,506.2689677000744,0.20493819005787373,2.045966656039594,506.48328150005545,506.2689677000744,[-1.758233500062488],,,,,,,,,,udoety,001,fr,0,2022-05-03_11h33.02.726,Continuous,2022.1.1,35.49539322774955,
14,0,14,0,12,0,12,0,,,,,,,,1.8410284659817204,both,1996.0,1.9984452687402314,9.393826092024089e-05,0,85,['frequency'],0.00946928991470486,None,['space'],508.33041100006085,508.33041100006085,0.20661738992203027,2.0476458559037507,508.5472427000059,508.33041100006085,[-1.7393544000806287],,,,,,,,,,udoety,001,fr,0,2022-05-03_11h33.02.726,Continuous,2022.1.1,35.49539322774955,
14,0,14,0,13,0,13,0,,,,,,,,1.8410284659817204,both,2515.0,1.8536031498005672,0.00010517472790724734,0,86,"['frequency', 'both']",0.012424490065313876,None,['space'],510.3972186000319,510.3972186000319,0.21359848999418318,2.0546269559759036,510.61378280003555,510.3972186000319,[-1.8219055000226945],,,,,"{'estimation': [[125.0, 4.261720557913135], [133.9716828170366, 4.189063231769842], [138.07874666644503, 4.0], [143.5872943746293, 3.7747366473771486], [153.89305166811442, 3.0577927990992073], [154.5157773438397, 3.0], [164.93848884661162, 2.090508462794409], [165.8385578471558, 2.0], [176.14635048434053, 1.0], [176.77669529663666, 0.9416428126482244], [186.25809479081545, 0.0], [189.46457081379947, -0.30476388570910573], [196.82527426495818, -1.0], [203.0630990890585, -1.5712181620426113], [208.1492248880471, -2.0], [217.6376408240306, -2.785559059888886], [220.68364388979518, -3.0], [233.25824788420132, -3.8727270796890294], [235.63078681082348, -4.0], [249.99999999999937, -4.756486217479026], [257.05645901468824, -5.0], [267.94336563407256, -5.3702386322931455], [287.1745887492579, -5.6507740053846875], [307.78610333622805, -5.586154255539878], [329.87697769322244, -5.192445266372678], [336.4466344706383, -5.0], [353.55339059327247, -4.526634480533467], [369.3352906795038, -4.0], [378.929141627598, -3.6955535056770636], [400.5266634857038, -3.0], [406.12619817811606, -2.828460094059145], [435.2752816480601, -2.060218917502678], [438.4529373360823, -2.0], [466.5164957684015, -1.497283575142248], [499.9999999999975, -1.2191973228587438], [535.8867312681438, -1.2426066917541811], [574.3491774985143, -1.5312532446640112], [615.4226462922422, -2.0], [615.5722066724546, -2.0017123491477826], [659.7539553864432, -2.5426963369085067], [704.4486139385245, -3.0], [707.1067811865431, -3.026649449539141], [757.8582832551941, -3.3620269812805152], [812.2523963562301, -3.483212336623439], [870.5505632961192, -3.390024387618566], [933.0329915368008, -3.119967959168528], [953.4345434746901, -3.0], [999.9999999999926, -2.7421125685840915], [1071.773462536285, -2.3522940566335055], [1148.698354997026, -2.008461196225527], [1151.4355248148033, -2.0], [1231.1444133449063, -1.765498432537309], [1319.5079107728832, -1.6434715509387416], [1414.2135623730828, -1.627100594523521], [1515.7165665103846, -1.6853003601422323], [1624.5047927124563, -1.7790046408427793], [1741.1011265922318, -1.8698548799121506], [1866.065983073597, -1.9265777917374436], [1999.9999999999802, -1.9309594594149266], [2143.5469250725646, -1.8834279527406101], [2297.396709994046, -1.8066330643319972], [2462.2888266898062, -1.7454187292948617], [2639.01582154576, -1.761705125799326], [2828.427124746159, -1.9245148541710762], [2869.259431914904, -2.0], [3031.4331330207615, -2.2891884756141545], [3249.0095854249043, -2.8623919897587293], [3289.7827595560134, -3.0], [3482.2022531844555, -3.6267740392178087], [3587.943396923175, -4.0], [3732.1319661471844, -4.494338493020818], [3890.2511914352626, -5.0], [3999.999999999946, -5.342406340537703], [4272.999384445226, -6.0], [4287.093850145114, -6.033649509147059], [4594.7934199880865, -6.465821845905126], [4924.577653379601, -6.564990837104686], [5278.031643091513, -6.332944788058279], [5514.86610898845, -6.0], [5656.854249492303, -5.810302221927097], [6062.866266041508, -5.107689261895634], [6120.141732362608, -5.0], [6498.019170849792, -4.3235730188748045], [6693.7159156675325, -4.0], [6964.404506368894, -3.5630483489840805], [7399.660724901584, -3.0], [7464.2639322943505, -2.914569234797892], [7999.999999999882, -2.4313388324973007]], 'plus_line': [[125.0, 1.214034109680822], [133.9716828170366, 1.4289373827402454], [143.5872943746293, 1.2017354053926832], [146.77852461586488, 1.0], [153.89305166811442, 0.5550764003140299], [160.3483496371586, 0.0], [164.93848884661162, -0.38593765754399395], [171.1134952265029, -1.0], [176.77669529663666, -1.5366254889238196], [181.27089520886338, -2.0], [189.46457081379947, -2.800782435006445], [191.48424965398104, -3.0], [201.77727004934462, -4.0], [203.0630990890585, -4.118668174651092], [212.76793563720904, -5.0], [217.6376408240306, -5.412965368588906], [225.44343287684552, -6.0], [233.25824788420132, -6.567678524549149], [240.93196648729892, -7.0], [249.99999999999937, -7.51125722002703], [263.9237208035104, -8.0], [267.94336563407256, -8.149219496819953], [287.1745887492579, -8.4574804822767], [307.78610333622805, -8.381878081331367], [326.3938249673497, -8.0], [329.87697769322244, -7.938039659505743], [353.55339059327247, -7.247015700238091], [360.2758548906384, -7.0], [378.929141627598, -6.369113385217177], [389.36838153376755, -6.0], [406.12619817811606, -5.448943964642632], [421.6009439084098, -5.0], [435.2752816480601, -4.635563893760566], [466.5164957684015, -4.056667020359388], [473.7810832234041, -4.0], [499.9999999999975, -3.8281428250340954], [535.8867312681438, -3.9207530462349776], [544.6534039918677, -4.0], [574.3491774985143, -4.298545920814288], [615.5722066724546, -4.799648201374354], [632.33371264393, -5.0], [659.7539553864432, -5.344066831744484], [707.1067811865431, -5.786768105220849], [746.5266097699089, -6.0], [757.8582832551941, -6.067234795532969], [812.2523963562311, -6.149625588189675], [866.5591808625579, -6.0], [870.5505632961181, -5.991111498385519], [933.0329915368008, -5.687187289890577], [999.9999999999926, -5.273925147933685], [1043.9327345324166, -5.0], [1071.773462536285, -4.85107131181285], [1148.698354997026, -4.533957354561242], [1231.1444133449063, -4.306529928261175], [1319.5079107728848, -4.174163606007216], [1414.2135623730828, -4.134966065670952], [1515.7165665103846, -4.189129866288048], [1624.5047927124563, -4.324088508871902], [1741.1011265922318, -4.493205691428816], [1866.065983073597, -4.626729836955302], [1999.9999999999802, -4.664632303309183], [2143.5469250725646, -4.585881668206559], [2297.396709994046, -4.422985293076443], [2462.2888266898062, -4.258909606739069], [2639.01582154576, -4.20766362206961], [2828.427124746159, -4.361128103762785], [3031.433133020758, -4.73448766645191], [3127.5898322401868, -5.0], [3249.0095854249043, -5.354332918899146], [3441.6340375966074, -6.0], [3482.2022531844555, -6.140683349927748], [3724.1406063146137, -7.0], [3732.1319661471844, -7.028760803452513], [3999.9999999999504, -7.912066103997414], [4034.927388188819, -8.0], [4287.093850145118, -8.650426337918628], [4543.2648413210645, -9.0], [4594.793419988081, -9.077839324301877], [4924.577653379601, -9.17287691981766], [5128.441178337791, -9.0], [5278.031643091506, -8.895775377932795], [5656.854249492303, -8.355611481001567], [5839.999497343496, -8.0], [6062.866266041508, -7.61235051160759], [6385.312983443849, -7.0], [6498.019170849792, -6.802288413841621], [6964.404506368894, -6.067098493553083], [7023.943355989767, -6.0], [7464.2639322943505, -5.552488680479171], [7999.999999999882, -5.316956646492722]], 'minus_line': [[125.0, 7.549071015209036], [133.9716828170366, 7.192987412797044], [136.7586067059103, 7.0], [143.5872943746293, 6.604360862442215], [150.7211487548639, 6.0], [153.89305166811442, 5.759688819279287], [161.7308227571976, 5.0], [164.93848884661162, 4.709299834915393], [171.8222228912612, 4.0], [176.77669529663666, 3.505951171812889], [181.7331176611062, 3.0], [189.46457081379947, 2.210651155668579], [191.68138084852788, 2.0], [202.10046621313694, 1.0], [203.0630990890585, 0.9126159706518517], [214.17950182109723, 0.0], [217.6376408240306, -0.2801012194310372], [228.27184255793821, -1.0], [233.25824788420132, -1.3312199775699134], [246.36361033843204, -2.0], [249.99999999999937, -2.1784420384982224], [267.94336563407256, -2.73825773473822], [286.20001998240934, -3.0], [287.1745887492579, -3.012274028547353], [290.5065501451432, -3.0], [307.78610333622805, -2.9278932878265005], [329.87697769322244, -2.5196998848861223], [349.49501218406056, -2.0], [353.55339059327247, -1.8881133787137847], [378.929141627598, -1.1012581124913627], [382.1666960975068, -1.0], [406.12619817811606, -0.27378218489964845], [416.9165949136945, 0.0], [435.2752816480601, 0.46290935668280986], [466.5164957684015, 0.9872456515956203], [467.9226632428605, 1.0], [499.9999999999975, 1.314791138044019], [535.8867312681438, 1.3444769946654644], [574.3491774985143, 1.0914813375656955], [582.043840800742, 1.0], [615.5722066724546, 0.6524579909161581], [659.7539553864432, 0.09822221337238701], [668.0475358875943, 0.0], [707.1067811865431, -0.40153569077122075], [757.8582832551941, -0.7621431720438746], [812.2523963562301, -0.9188787712599294], [870.5505632961181, -0.8450205814282635], [933.0329915368008, -0.5971313040962013], [999.9999999999939, -0.2612635526242291], [1050.994953177458, 0.0], [1071.773462536285, 0.11664098582300975], [1148.698354997026, 0.4767487415079754], [1231.1444133449063, 0.7147452707820579], [1319.5079107728832, 0.8172833973877293], [1414.2135623730828, 0.8031219383365945], [1515.7165665103828, 0.7299342164528155], [1624.5047927124563, 0.6662356836299183], [1741.1011265922318, 0.6501377789187306], [1866.065983073597, 0.6743406905149134], [1999.9999999999802, 0.7090593486962968], [2143.5469250725646, 0.7315326356409548], [2297.396709994046, 0.7354345405057197], [2462.2888266898062, 0.7190019263017899], [2639.01582154576, 0.6617047779779146], [2828.427124746159, 0.5072967577479265], [3031.4331330207615, 0.16555937955522726], [3091.8354382606617, 0.0], [3249.0095854249043, -0.37958687029335497], [3435.5388443088887, -1.0], [3482.202253184451, -1.144675258350754], [3726.239871450371, -2.0], [3732.1319661471844, -2.0195838388780176], [3999.9999999999504, -2.8584375005887455], [4053.6624907852374, -3.0], [4287.093850145118, -3.5492717185436247], [4584.04497883565, -4.0], [4594.793419988081, -4.014518845270093], [4924.577653379601, -4.127991870684323], [5144.343101806603, -4.0], [5278.031643091506, -3.913502319946765], [5656.854249492303, -3.399879722867528], [5890.218984015975, -3.0], [6062.866266041508, -2.6947624699712662], [6449.181455398441, -2.0], [6498.019170849792, -1.9094455500044072], [6964.404506368894, -1.1071180224971884], [7035.744457651217, -1.0], [7464.2639322943505, -0.3263427403004289], [7716.20218875179, 0.0], [7999.999999999882, 0.4065448591070451]]}",,,,,udoety,001,fr,0,2022-05-03_11h33.02.726,Continuous,2022.1.1,35.49539322774955,
15,0,15,0,0,0,0,0,,,,,,516.9803790000733,None,2.7368794936083236,time,325.0,2.526030414248723,0.00012843578631550667,0,34,"['frequency', 'both']",0.023551089921966195,None,None,518.0168066000333,None,0.23535968991927803,2.9722391835276016,518.2323507000692,None,,512.4563416000456,None,"[0.3333333333333333, 0.3333333333333333, 0.5833333333333334, 0.5833333333333334, 0.5833333333333334, 0.16666666666666666, 0.16666666666666666, 0.16666666666666666, 0.3333333333333333, 0.5833333333333334, 0.5833333333333334, 0.16666666666666666, 0.5833333333333334, 0.5833333333333334, 0.3333333333333333]",,,,,,,udoety,001,fr,0,2022-05-03_11h33.02.726,Continuous,2022.1.1,35.49539322774955,
15,0,15,0,1,0,1,0,,,,,,,,2.7368794936083236,time,1741.0,1.6994016651732153,7.675688055500417e-05,0,35,"['frequency', 'both']",0.012196289957500994,None,None,520.9757654999848,520.9757654999848,0.21442629001103342,2.951305783619357,521.188777100062,520.9757654999848,,,,,,,,,,,udoety,001,fr,0,2022-05-03_11h33.02.726,Continuous,2022.1.1,35.49539322774955,
15,0,15,0,2,0,2,0,,,,,,,,2.7368794936083236,time,3689.0,-1.525725913163932,6.583813799062815e-05,0,36,"['frequency', 'both']",0.008960089995525777,None,None,523.9327459000051,523.9327459000051,0.2079748900141567,2.9448543836224803,524.1458432000363,523.9327459000051,,,,,,,,,,,udoety,001,fr,0,2022-05-03_11h33.02.726,Continuous,2022.1.1,35.49539322774955,
15,0,15,0,3,0,3,0,,,,,,,,2.7368794936083236,time,615.0,0.7537439130778776,5.8355092961325344e-05,0,37,"['frequency', 'both']",0.005287089850753546,0.19936288986355066,['space'],526.894921500003,526.894921500003,0.19936288986355066,2.9362423834718743,527.1073818000732,526.894921500003,[-2.4962840999942273],,,,,,,,,,udoety,001,fr,0,2022-05-03_11h33.02.726,Continuous,2022.1.1,35.49539322774955,
15,0,15,0,4,0,4,0,,,,,,,,2.7368794936083236,time,6204.0,-1.991370627114529,9.977435324558834e-05,0,38,"['frequency', 'both']",0.008656490012072027,None,None,529.852643600083,529.852643600083,0.20893488998990506,2.9458143835982287,530.0733519999776,529.852643600083,,,,,,,,,,,udoety,001,fr,0,2022-05-03_11h33.02.726,Continuous,2022.1.1,35.49539322774955,
15,0,15,0,5,0,5,0,,,,,,,,2.7368794936083236,time,1551.0,0.7083089587360493,5.708108097737739e-05,0,39,"['frequency', 'both']",0.005885989987291396,0.1968235899694264,['space'],532.817149200011,532.817149200011,0.1968235899694264,2.93370308357775,533.0277146000881,532.817149200011,[-2.4992694000247866],,,,,,,,,,udoety,001,fr,0,2022-05-03_11h33.02.726,Continuous,2022.1.1,35.49539322774955,
15,0,15,0,6,0,6,0,,,,,,,,2.7368794936083236,time,1382.0,0.3433861182318878,5.329806477830993e-05,0,40,"['frequency', 'both']",0.011098989867605269,None,None,535.77433689998,535.77433689998,0.2113236899022013,2.948203183510525,535.9905632000882,535.77433689998,,,,,,,,,,,udoety,001,fr,0,2022-05-03_11h33.02.726,Continuous,2022.1.1,35.49539322774955,
15,0,15,0,7,0,7,0,,,,,,,,2.7368794936083236,time,410.0,5.09386765708974,0.00013669572765440395,0,41,"['frequency', 'both']",0.0088901900453493,0.2049586899811402,None,538.7345975000644,538.7345975000644,0.2049586899811402,2.941838183589464,538.9499090000754,538.7345975000644,,,,,,,,,,,udoety,001,fr,0,2022-05-03_11h33.02.726,Continuous,2022.1.1,35.49539322774955,
15,0,15,0,8,0,8,0,,,,,,,,2.7368794936083236,time,2462.0,0.0,8.505306297983944e-05,0,42,"['frequency', 'both']",0.012120890081860125,None,['space'],541.6969753000885,541.6969753000885,0.21407899004407227,2.950958483652396,541.912755300058,541.6969753000885,[-2.4976552000734955],,,,,,,,,,udoety,001,fr,0,2022-05-03_11h33.02.726,Continuous,2022.1.1,35.49539322774955,
15,0,15,0,9,0,9,0,,,,,,,,2.7368794936083236,time,,,,1,42,"['frequency', 'both']",0.008189190062694252,None,['space'],544.6524922000244,544.6524922000244,0.20410709001589566,2.9409865836242193,544.8717081000796,544.6524922000244,[-2.493779300013557],,,,,,,,,,udoety,001,fr,0,2022-05-03_11h33.02.726,Continuous,2022.1.1,35.49539322774955,
15,0,15,0,10,0,10,0,,,,,,,,2.7368794936083236,time,5527.0,-4.75793768768675,7.708557561960645e-05,0,43,"['frequency', 'both']",0.00982209003996104,None,None,547.6128189000301,547.6128189000301,0.2087011900730431,2.9455806836813667,547.8269547000527,547.6128189000301,,,,,,,,,,,udoety,001,fr,0,2022-05-03_11h33.02.726,Continuous,2022.1.1,35.49539322774955,
15,0,15,0,11,0,11,0,,,,,,,,2.7368794936083236,time,922.0,-1.015373592547783,3.722002804515576e-05,0,44,"['frequency', 'both']",0.010240890085697174,None,['space'],550.574563000002,550.574563000002,0.21085979009512812,2.9477392837034517,550.7901142999763,550.574563000002,[-2.5119720000075176],,,,,,,,,,udoety,001,fr,0,2022-05-03_11h33.02.726,Continuous,2022.1.1,35.49539322774955,
16,0,16,0,0,0,0,0,,,,,,557.7283550000284,None,2.71837424335936,none,2118.0,-1.559209271567088,6.470456044253118e-05,0,63,"['frequency', 'both']",0.022712490055710077,None,None,558.735764299985,None,0.23394468997139484,2.952318933330755,558.9535947000841,None,,553.5334072000114,None,"[0.16666666666666666, 0.16666666666666666, 0.16666666666666666, 0.16666666666666666, 0.5833333333333334, 0.5833333333333334, 0.16666666666666666, 0.5833333333333334, 0.5833333333333334, 0.16666666666666666, 0.16666666666666666, 0.16666666666666666, 0.16666666666666666, 0.5833333333333334, 0.5833333333333334]",,,,,,,udoety,001,fr,0,2022-05-03_11h33.02.726,Continuous,2022.1.1,35.49539322774955,
16,0,16,0,1,0,1,0,,,,,,,,1.3978587380101624,none,1414.0,-2.126909064987358,3.948292531766962e-05,0,64,"['frequency', 'both']",0.005927589954808354,None,['space'],561.6728312000632,561.6728312000632,0.20504318992607296,1.6029019279362353,561.8920897999778,561.6728312000632,[-1.7857648999197409],,,,,,,,,,udoety,001,fr,0,2022-05-03_11h33.02.726,Continuous,2022.1.1,35.49539322774955,
16,0,16,0,2,0,2,0,,,,,,,,1.9485641004180667,none,8000.0,-3.0,0.00012851978913844324,0,65,"['frequency', 'both']",0.007208390044979751,None,None,563.2937297000317,563.2937297000317,0.2093713900540024,2.1579354904720693,563.5100607000059,563.2937297000317,,,,,,,,,,,udoety,001,fr,0,2022-05-03_11h33.02.726,Continuous,2022.1.1,35.49539322774955,
16,0,16,0,3,0,3,0,,,,,,,,1.8763918598298572,none,1000.0,-2.6207732539848534,3.257851929879156e-05,0,66,"['frequency', 'both']",0.005539790028706193,0.1865223899949342,['space'],565.4687313000904,565.4687313000904,0.1865223899949342,2.062914249824791,565.667835200089,565.4687313000904,[-1.758609400014393],,,,,,,,,,udoety,001,fr,0,2022-05-03_11h33.02.726,Continuous,2022.1.1,35.49539322774955,
16,0,16,0,4,0,4,0,,,,,,,,1.367998065244732,none,1260.0,-0.5180261034647473,5.111944700522381e-05,0,67,"['frequency', 'both']",0.008065789937973022,None,None,567.5493017000845,567.5493017000845,0.2030907899606973,1.5710888552054294,567.7637626000214,567.5493017000845,,,,,,,,,,,udoety,001,fr,0,2022-05-03_11h33.02.726,Continuous,2022.1.1,35.49539322774955,
16,0,16,0,5,0,5,0,,,,,,,,2.951420450902155,none,1123.0,-1.06310908684112,4.352960780271578e-05,0,68,"['frequency', 'both']",0.011518889921717346,None,None,569.1427522000158,569.1427522000158,0.21335549000650644,3.1647759409086613,569.3585448000813,569.1427522000158,,,,,,,,,,,udoety,001,fr,0,2022-05-03_11h33.02.726,Continuous,2022.1.1,35.49539322774955,
16,0,16,0,6,0,6,0,,,,,,,,1.0079839668275001,none,5339.0,-3.8068941038048134,9.047792378493259e-05,0,69,"['frequency', 'both']",0.007317690062336624,None,None,572.319933300023,572.319933300023,0.20609078998677433,1.2140747568142745,572.5363114000065,572.319933300023,,,,,,,,,,,udoety,001,fr,0,2022-05-03_11h33.02.726,Continuous,2022.1.1,35.49539322774955,
16,0,16,0,7,0,7,0,,,,,,,,1.593265446572815,none,,,,1,69,"['frequency', 'both']",0.0020910899620503187,None,['space'],573.5600175000727,573.5600175000727,0.20494589000009,1.798211336572905,573.7823926000856,573.5600175000727,[-0.7936512000160292],,,,,,,,,,udoety,001,fr,0,2022-05-03_11h33.02.726,Continuous,2022.1.1,35.49539322774955,
16,0,16,0,8,0,8,0,,,,,,,,1.3698567315118204,none,3563.0,-3.608551893573988,5.0340878110312696e-05,0,70,"['frequency', 'both']",0.009102690033614635,0.20377358992118388,None,575.3759358000243,575.3759358000243,0.20377358992118388,1.5736303214330043,575.58759130002,575.3759358000243,,,,,,,,,,,udoety,001,fr,0,2022-05-03_11h33.02.726,Continuous,2022.1.1,35.49539322774955,
17,0,17,0,0,0,0,0,,,,,,580.5939241000451,None,2.3542055803944244,none,189.0,5.0,0.0005432714291414459,0,71,"['frequency', 'both']",0.02361858997028321,None,None,581.6121451000217,None,0.22060718992725015,2.5748127703216745,581.8218674000818,None,,576.9648694000207,None,"[0.16666666666666666, 0.16666666666666666, 0.3333333333333333, 0.16666666666666666, 0.5833333333333334, 0.16666666666666666, 0.5833333333333334, 0.16666666666666666, 0.3333333333333333, 0.16666666666666666, 0.16666666666666666, 0.16666666666666666, 0.16666666666666666, 0.3333333333333333, 0.16666666666666666]",,,,,,,udoety,001,fr,0,2022-05-03_11h33.02.726,Continuous,2022.1.1,35.49539322774955,
17,0,17,0,1,0,1,0,,,,,,,,1.7853456797987097,none,212.0,4.032501439946955,0.0003848737422575341,0,72,"['frequency', 'both']",0.008273390005342662,None,['space'],584.1758562000468,584.1758562000468,0.20504078990779817,1.990386469706508,584.3941847999813,584.1758562000468,[-2.0489004000555724],,,,,,,,,,udoety,001,fr,0,2022-05-03_11h33.02.726,Continuous,2022.1.1,35.49539322774955,
17,0,17,0,2,0,2,0,,,,,,,,2.4965665124044323,none,238.0,5.038968855167428,0.00034116611780102323,0,73,"['frequency', 'both']",0.007769989897496998,None,['space'],586.1870452000294,586.1870452000294,0.20436868991237134,2.7009352023168036,586.4030903000385,586.1870452000294,[-1.5639410000294447],,,,,,,,,,udoety,001,fr,0,2022-05-03_11h33.02.726,Continuous,2022.1.1,35.49539322774955,
17,0,17,0,3,0,3,0,,,,,,,,2.1102087742113813,none,150.0,4.3985381203059575,0.0008299018487284252,0,74,"['frequency', 'both']",0.0007454900769516826,None,['space'],588.914113100036,588.914113100036,0.19912319001741707,2.3093319642287984,589.1361393000698,588.914113100036,[-2.37082409998402],,,,,,,,,,udoety,001,fr,0,2022-05-03_11h33.02.726,Continuous,2022.1.1,35.49539322774955,
17,0,17,0,4,0,4,0,,,,,,,,1.9384355466682184,none,,,,1,74,"['frequency', 'both']",0.006854290026240051,None,['space'],591.2556190000614,591.2556190000614,0.21331528993323445,2.151750836601453,591.4792414000258,591.2556190000614,[-1.9613174999831244],,,,,,,,,,udoety,001,fr,0,2022-05-03_11h33.02.726,Continuous,2022.1.1,35.49539322774955,
17,0,17,0,5,0,5,0,,,,,,,,2.6378633356827823,none,378.0,5.627025508016134,0.00015724268332744675,0,75,"['frequency', 'both']",0.00841319013852626,0.1900863901246339,None,593.4212775999913,593.4212775999913,0.1900863901246339,2.827949725807416,593.6202047000406,593.4212775999913,,,,,,,,,,,udoety,001,fr,0,2022-05-03_11h33.02.726,Continuous,2022.1.1,35.49539322774955,
17,0,17,0,6,0,6,0,,,,,,,,2.934758085453881,none,267.0,5.34229830063008,0.00027648844732124425,0,76,"['frequency', 'both']",0.006572989979758859,0.1861048899590969,['space'],596.2630548999878,596.2630548999878,0.1861048899590969,3.1208629754129777,596.4623031000374,596.2630548999878,[-2.441069999942556],,,,,,,,,,udoety,001,fr,0,2022-05-03_11h33.02.726,Continuous,2022.1.1,35.49539322774955,
17,0,17,0,7,0,7,0,,,,,,,,1.6258405266555964,none,134.0,4.238208792379439,0.0010467608509887216,0,77,"['frequency', 'both']",0.006715690018609166,0.18602689006365836,['space'],599.4008543000091,599.4008543000091,0.18602689006365836,1.8118674167192548,599.5983842000132,599.4008543000091,[-2.7464321999577805],,,,,,,,,,udoety,001,fr,0,2022-05-03_11h33.02.726,Continuous,2022.1.1,35.49539322774955,
17,0,17,0,8,0,8,0,,,,,,,,2.5858886595919643,none,300.0,7.370340626176549,0.0002675278874127517,0,78,"['frequency', 'both']",0.005958690075203776,None,['space'],601.2332032000413,601.2332032000413,0.21613959001842886,2.802028249610393,601.4607003000565,601.2332032000413,[-1.2510152999311686],,,,,,,,,,udoety,001,fr,0,2022-05-03_11h33.02.726,Continuous,2022.1.1,35.49539322774955,
18,0,18,0,0,0,0,0,,,,,,608.4786206000717,None,2.5609572245926033,none,440.0,-1.5255105878054795,6.25089157555847e-05,0,79,"['frequency', 'both']",0.0234762899344787,None,None,609.5149554000236,None,0.2547644899459556,2.815721714538559,609.748438199982,None,,604.0503019000171,None,"[0.16666666666666666, 0.5833333333333334, 0.5833333333333334, 0.3333333333333333, 0.3333333333333333, 0.3333333333333333, 0.3333333333333333, 0.3333333333333333, 0.5833333333333334, 0.5833333333333334, 0.3333333333333333, 0.5833333333333334, 0.3333333333333333, 0.3333333333333333, 0.16666666666666666]",,,,,,,udoety,001,fr,0,2022-05-03_11h33.02.726,Continuous,2022.1.1,35.49539322774955,
18,0,18,0,1,0,1,0,,,,,,,,2.8408274735798322,none,989.0,-4.5847274490565715,2.580123258157499e-05,0,80,"['frequency', 'both']",0.00506728992331773,0.18370928999502212,None,612.3092014000285,612.3092014000285,0.18370928999502212,3.0245367635748543,612.5068644999992,612.3092014000285,,,,,,,,,,,udoety,001,fr,0,2022-05-03_11h33.02.726,Continuous,2022.1.1,35.49539322774955,
18,0,18,0,2,0,2,0,,,,,,,,1.5432878399464696,none,660.0,-7.0,2.1679282795184087e-05,0,81,"['frequency', 'both']",0.006252989987842739,None,None,615.3526881000726,615.3526881000726,0.21367989003192633,1.756967729978396,615.5813790999819,615.3526881000726,,,,,,,,,,,udoety,001,fr,0,2022-05-03_11h33.02.726,Continuous,2022.1.1,35.49539322774955,
18,0,18,0,3,0,3,0,,,,,,,,2.471240159152371,none,,,,1,81,"['frequency', 'both']",0.006736589944921434,None,None,617.1284462000476,617.1284462000476,0.21531859005335718,2.6865587492057283,617.350407000049,617.1284462000476,,,,,,,,,,,udoety,001,fr,0,2022-05-03_11h33.02.726,Continuous,2022.1.1,35.49539322774955,
