tTrials.thisRepN,tTrials.thisTrialN,tTrials.thisN,tTrials.thisIndex,blocks.thisRepN,blocks.thisTrialN,blocks.thisN,blocks.thisIndex,trials.thisRepN,trials.thisTrialN,trials.thisN,trials.thisIndex,tStart_text.started,tStart_text.stopped,Prediction,practice_Frequency,practice_Level,practice_Psychopy_Level,practice_isCatchTrial,Practice_trial_detection,practice_Cue_Delays,practice_Cue_Frequencies,practice_Interval,practice_Cue_Intensities,tCue_visual_cue.started,tCue_visual_cue.stopped,tProbe_visual_cue.started,tProbe_visual_cue.stopped,tFeedback.keys,tFeedback.corr,tFeedback.rt,tFeedback.started,tFeedback.stopped,tToo_late.keys,tToo_late.corr,tToo_early.keys,tToo_early.corr,more_instructions.started,more_instructions.stopped,readyy.keys,readyy.rt,readyy.started,readyy.stopped,txt_rhythm.started,txt_rhythm.stopped,sound_1.started,sound_1.stopped,sound_2.started,sound_2.stopped,sound_3.started,sound_3.stopped,sound_4.started,sound_4.stopped,cross.started,cross.stopped,sound_5.started,sound_5.stopped,circle.started,circle.stopped,rhythm_ready.keys,rhythm_ready.rt,rhythm_ready.started,rhythm_ready.stopped,rhytm_ready_txt.started,rhytm_ready_txt.stopped,txt_freq.started,txt_freq.stopped,sound_6.started,sound_6.stopped,sound_7.started,sound_7.stopped,sound_8.started,sound_8.stopped,sound_9.started,sound_9.stopped,cross_2.started,cross_2.stopped,sound_10.started,sound_10.stopped,circle_2.started,circle_2.stopped,freq_ready.keys,freq_ready.rt,freq_ready.started,freq_ready.stopped,freq_ready_txt.started,freq_ready_txt.stopped,txt_freq_2.started,txt_freq_2.stopped,sound_11.started,sound_11.stopped,sound_12.started,sound_12.stopped,sound_13.started,sound_13.stopped,sound_14.started,sound_14.stopped,cross_3.started,cross_3.stopped,sound_15.started,sound_15.stopped,circle_3.started,circle_3.stopped,freq_ready_2.keys,freq_ready_2.rt,freq_ready_2.started,freq_ready_2.stopped,freq_ready_txt_2.started,freq_ready_txt_2.stopped,txt_freq_3.started,txt_freq_3.stopped,sound_16.started,sound_16.stopped,sound_17.started,sound_17.stopped,sound_18.started,sound_18.stopped,sound_19.started,sound_19.stopped,cross_4.started,cross_4.stopped,sound_20.started,sound_20.stopped,circle_4.started,circle_4.stopped,freq_ready_txt_3.started,freq_ready_txt_3.stopped,tStart_text_2.started,tStart_text_2.stopped,this_trial_is.started,this_trial_is.stopped,Frequency,Level,Psychopy_Level,Real trial detection,Cue Delays,Cue Frequencies,Interval,Cue Intensities,Catch trial,cue_visual_cue.started,cue_visual_cue.stopped,probe_visual_cue.started,probe_visual_cue.stopped,feedback.keys,feedback.corr,feedback.started,feedback.stopped,answer_too_late.keys,answer_too_late.corr,answer_too_early.keys,answer_too_early.corr,answer_too_early.rt,feedback.rt,Catch trial answer,answer_too_late.rt,Audiogram_both,Audiogram_frequency,Audiogram_time,Audiogram_none,goodbye_text.started,goodbye_text.stopped,key_resp.keys,key_resp.rt,key_resp.started,key_resp.stopped,participant,session,Language (english or french),Skip training? (1 for yes),Resume previous experiment,date,expName,psychopyVersion,frameRate,
0,0,0,0,,,,,,,,,17.77151670004241,None,frequency,1000,30,0.0013930605843148849,False,1,"[0.7835756072739589, 0.7229640925625953, 0.5530852605137636, 0.6520071767228174]","[1587.4010519682001, 1414.2135623730956, 1259.9210498948735, 1122.4620483093731]",Tone,"[30, 30, 30, 30]",34.938282900024205,37.92167780001182,37.92167780001182,39.122703499975614,['space'],1,[0.48720019997563213],37.92167780001182,39.78950640000403,None,1,None,1,,,,,,,,,,,,,,,,,,,,,,,,,,,,,,,,,,,,,,,,,,,,,,,,,,,,,,,,,,,,,,,,,,,,,,,,,,,,,,,,,,,,,,,,,,,,,,,,,,,,,,,,,,,,,,,,,,,,,,,,,,,,,,,,,,wquuex,001,fr,0,0,2022-05-06_17h51.35.568,Cluster,2022.1.1,35.554076509427134,
1,0,1,0,,,,,,,,,,,both,2500,30,0.002716251657462167,False,1,"[0.43242292156745965, 0.43242292156745965, 0.43242292156745965, 0.43242292156745965]","[3968.502629920499, 3535.533905932738, 3149.802624737183, 2806.1551207734324]",Tone,"[30, 30, 30, 30]",46.152213599998504,48.3775041999761,48.3775041999761,49.596890500048175,['space'],1,[0.4957254999317229],48.3775041999761,50.020910300081596,None,1,None,1,,,,,,,,,,,,,,,,,,,,,,,,,,,,,,,,,,,,,,,,,,,,,,,,,,,,,,,,,,,,,,,,,,,,,,,,,,,,,,,,,,,,,,,,,,,,,,,,,,,,,,,,,,,,,,,,,,,,,,,,,,,,,,,,,,wquuex,001,fr,0,0,2022-05-06_17h51.35.568,Cluster,2022.1.1,35.554076509427134,
2,0,2,0,,,,,,,,,,,both,6000,30,0.003664122665694519,True,0,"[0.48779825126438475, 0.48779825126438475, 0.48779825126438475, 0.48779825126438475]","[2381.1015779523, 3000.000000000001, 3779.76314968462, 4762.203155904599]",Major_3rd,"[30, 30, 30, 30]",53.14059670001734,55.538696600007825,55.538696600007825,56.772852599970065,['space'],0,[0.40576630004215986],55.538696600007825,57.23141620005481,None,1,None,1,,,,,,,,,,,,,,,,,,,,,,,,,,,,,,,,,,,,,,,,,,,,,,,,,,,,,,,,,,,,,,,,,,,,,,,,,,,,,,,,,,,,,,,,,,,,,,,,,,,,,,,,,,,,,,,,,,,,,,,,,,,,,,,,,,wquuex,001,fr,0,0,2022-05-06_17h51.35.568,Cluster,2022.1.1,35.554076509427134,
3,0,3,0,,,,,,,,,,,both,440,30,0.0023562289915021436,False,1,"[0.6938369498126005, 0.6938369498126005, 0.6938369498126005, 0.6938369498126005]","[698.456462866008, 622.253967444162, 554.3652619537443, 493.8833012561241]",Tone,"[30, 30, 30, 30]",61.86844230000861,64.87320330005605,64.87320330005605,66.09226180007681,['space'],1,[1.2954161999514326],64.87320330005605,66.79185739997774,None,1,None,1,,,,,,,,,,,,,,,,,,,,,,,,,,,,,,,,,,,,,,,,,,,,,,,,,,,,,,,,,,,,,,,,,,,,,,,,,,,,,,,,,,,,,,,,,,,,,,,,,,,,,,,,,,,,,,,,,,,,,,,,,,,,,,,,,,wquuex,001,fr,0,0,2022-05-06_17h51.35.568,Cluster,2022.1.1,35.554076509427134,
4,0,4,0,,,,,,,,,,,both,250,30,0.005296268625886445,True,1,"[0.526691798436965, 0.526691798436965, 0.526691798436965, 0.526691798436965]","[1259.9210498948732, 840.8964152537146, 561.2310241546866, 374.5767692191704]",Perfect_5th,"[30, 30, 30, 30]",69.9436802000273,72.46111709997058,72.46111709997058,73.69056160002947,None,1,,72.46111709997058,74.20379409997258,None,1,None,1,,,,,,,,,,,,,,,,,,,,,,,,,,,,,,,,,,,,,,,,,,,,,,,,,,,,,,,,,,,,,,,,,,,,,,,,,,,,,,,,,,,,,,,,,,,,,,,,,,,,,,,,,,,,,,,,,,,,,,,,,,,,,,,,,,wquuex,001,fr,0,0,2022-05-06_17h51.35.568,Cluster,2022.1.1,35.554076509427134,
,,,,,,,,,,,,,,,,,,,,,,,,,,,,,,,,,,,,,78.0016961999936,None,space,23.543434599996544,78.0016961999936,None,,,,,,,,,,,,,,,,,,,,,,,,,,,,,,,,,,,,,,,,,,,,,,,,,,,,,,,,,,,,,,,,,,,,,,,,,,,,,,,,,,,,,,,,,,,,,,,,,,,,,,,,,,,,,,,,,,,,,,,,,,,,wquuex,001,fr,0,0,2022-05-06_17h51.35.568,Cluster,2022.1.1,35.554076509427134,
,,,,,,,,,,,,,,,,,,,,,,,,,,,,,,,,,,,,,,,,,,,101.61041149997618,102.62362710002344,103.08095788999927,None,103.58373758997769,None,104.087341890065,None,104.58338488996961,None,102.98692920000758,104.77521660004277,105.08893608998042,None,104.77521660004277,105.58767090004403,space,1.7785441000014544,105.76574359997176,None,,,,,,,,,,,,,,,,,,,,,,,,,,,,,,,,,,,,,,,,,,,,,,,,,,,,,,,,,,,,,,,,,,,,,,,,,,,,,,,,,,,,,,,,,,,,,,,,,,,,,,,,wquuex,001,fr,0,0,2022-05-06_17h51.35.568,Cluster,2022.1.1,35.554076509427134,
,,,,,,,,,,,,,,,,,,,,,,,,,,,,,,,,,,,,,,,,,,,,,,,,,,,,,,,,,,,,,,,105.76574359997176,None,107.60512289998587,108.6310630000662,109.0617861900013,None,109.35576668996364,None,110.05530989004765,110.2743283000309,110.45704349000007,None,108.97479790006764,110.75718930002768,111.05909318998457,111.27421050006524,110.75718930002768,111.56124399998225,space,1.2455606000730768,111.77094429999124,None,,,,,,,,,,,,,,,,,,,,,,,,,,,,,,,,,,,,,,,,,,,,,,,,,,,,,,,,,,,,,,,,,,,,,,,,,,,,,,,,,,wquuex,001,fr,0,0,2022-05-06_17h51.35.568,Cluster,2022.1.1,35.554076509427134,
,,,,,,,,,,,,,,,,,,,,,,,,,,,,,,,,,,,,,,,,,,,,,,,,,,,,,,,,,,,,,,,,,,,,,,,,,,,,,,,,,,,,,111.77094429999124,None,113.07646890007891,114.08156129997224,114.53145969004837,None,115.0445425900165,None,115.53174739002716,None,116.04517479005736,None,114.43729650008027,116.24111830000766,116.53199659006205,None,116.24111830000766,117.04222770000342,space,0.8713949000230059,117.2340070999926,None,,,,,,,,,,,,,,,,,,,,,,,,,,,,,,,,,,,,,,,,,,,,,,,,,,,,,,,,,,,,wquuex,001,fr,0,0,2022-05-06_17h51.35.568,Cluster,2022.1.1,35.554076509427134,
,,,,0,0,0,0,0,0,0,0,,,time,,,,,,,,,,,,,,,,,,,,,,,,,,,,,,,,,,,,,,,,,,,,,,,,,,,,,,,,,,,,,,,,,,,,,,,,,,,,,,,,,,,,,,,,,,,,,117.2340070999926,None,118.14176789997146,119.16884990001563,119.59963489007205,None,119.89135609006044,None,120.60204359001946,None,120.99245329000988,121.217946400051,119.50495790003333,121.30906470003538,121.5998538899934,None,121.30906470003538,122.14173530007247,122.30524370004423,None,123.34339280007407,None,139.2973015999887,None,1000.4726931086848,21.818442329398145,0.0005433591625998142,0,"[0.7616223670527232, 0.7616223670527232, 0.7616223670527232, 0.7616223670527232]","[290.3327460420101, 930.0985516973858, 2789.382976364909, 269.480663238778]",None,"[21.146209754046666, 26.93262277190714, 26.0, 20.0]",False,140.26508520008065,143.57557480002288,143.57557480002288,144.78345089999493,None,0,4.0853099196683615,5.098212819779292,None,1,['space'],0,[0.5138338999822736],,,,,,,,,,,,,,wquuex,001,fr,0,0,2022-05-06_17h51.35.568,Cluster,2022.1.1,35.554076509427134,
,,,,0,0,0,0,1,0,1,0,,,none,,,,,,,,,,,,,,,,,,,,,,,,,,,,,,,,,,,,,,,,,,,,,,,,,,,,,,,,,,,,,,,,,,,,,,,,,,,,,,,,,,,,,,,,,,,,,,,,,,,,,,,,,,,,,,,,,,,145.4051180999959,None,7092.420902044578,30.44079369897291,0.005124361562369882,0,"[0.7535424123787571, 0.7014883847001968, 0.4094716999292155, 0.6970630429885305]","[4099.5276385553525, 985.8811684195499, 130.78976683425117, 3730.3234136856486]",None,"[26.0, 27.818442329398145, 17.0, 24.913705148798854]",False,146.40729070000816,149.28265830001328,149.28265830001328,150.49896490003448,None,0,3.570775619824417,4.590609519858845,None,1,None,1,,,,,,,,,,,,,,,wquuex,001,fr,0,0,2022-05-06_17h51.35.568,Cluster,2022.1.1,35.554076509427134,
,,,,0,0,0,0,2,0,2,0,,,none,,,,,,,,,,,,,,,,,,,,,,,,,,,,,,,,,,,,,,,,,,,,,,,,,,,,,,,,,,,,,,,,,,,,,,,,,,,,,,,,,,,,,,,,,,,,,,,,,,,,,,,,,,,,,,,,,,,151.0372178000398,None,353.5533905932738,22.0,0.0011155631429593579,1,"[0.6299517519776516, 0.6851597715693668, 0.5119068165152948, 0.7336230920877775]","[852.6176504363044, 485.75138932540256, 126.34834072151678, 491.7480613090059]",None,"[25.92012787693378, 21.0, 18.0, 20.592673545545708]",False,152.95515260007232,155.81252090004273,155.81252090004273,157.03471240005456,['space'],1,3.604212789563462,4.631307689589448,None,1,None,1,,[0.3920977999223396],,,,,,,,,,,,,wquuex,001,fr,0,0,2022-05-06_17h51.35.568,Cluster,2022.1.1,35.554076509427134,
,,,,0,0,0,0,3,0,3,0,,,frequency,,,,,,,,,,,,,,,,,,,,,,,,,,,,,,,,,,,,,,,,,,,,,,,,,,,,,,,,,,,,,,,,,,,,,,,,,,,,,,,,,,,,,,,,,,,,,,,,,,,,,,,,,,,,,,,,,,,157.60951510001905,None,,,,,"[0.4686843106261303, 0.5197184820068182, 0.5909184287301205, 0.5253688867253801]","[1049.4886124544257, 832.9796637194006, 661.1363972281467, 524.7443062272127]",Major_3rd,"[28.577008912089823, 25.0, 21.531603556130058, 20.31287472400956]",True,158.61492329998873,161.220016199979,161.220016199979,162.4449169000145,['space'],0,3.129915919736959,4.158574919798411,None,1,None,1,,[0.05183119990397245],0,,,,,,,,,,,,wquuex,001,fr,0,0,2022-05-06_17h51.35.568,Cluster,2022.1.1,35.554076509427134,
,,,,0,0,0,0,4,0,4,0,,,frequency,,,,,,,,,,,,,,,,,,,,,,,,,,,,,,,,,,,,,,,,,,,,,,,,,,,,,,,,,,,,,,,,,,,,,,,,,,,,,,,,,,,,,,,,,,,,,,,,,,,,,,,,,,,,,,,,,,,162.80805810005404,None,2218.76422956665,23.0,0.0011252442063302607,1,"[0.5667863524413999, 0.7585374472064195, 0.7425130108108207, 0.42508432944977687]","[3522.0686720835124, 3137.806465161448, 2795.467757584803, 2490.47864183495]",Tone,"[24.602096383335358, 25.0, 26.0, 27.652103384288885]",False,163.80704950005747,166.91652129997965,166.91652129997965,168.1231845000293,['space'],1,3.504660719889216,4.522643219912425,None,1,None,1,,[0.40322009997908026],,,,,,,,,,,,,wquuex,001,fr,0,0,2022-05-06_17h51.35.568,Cluster,2022.1.1,35.554076509427134,
,,,,0,0,0,0,5,0,5,0,,,none,,,,,,,,,,,,,,,,,,,,,,,,,,,,,,,,,,,,,,,,,,,,,,,,,,,,,,,,,,,,,,,,,,,,,,,,,,,,,,,,,,,,,,,,,,,,,,,,,,,,,,,,,,,,,,,,,,,168.3668472999707,None,510.566560398805,14.592673545545708,0.0003745123500861208,0,"[0.7065812545113194, 0.7284427024212422, 0.772434815512244, 0.6233789564631174]","[602.5641795132932, 149.81075674651112, 338.9758370828781, 445.1357170860597]",None,"[20.78547655111803, 14.012707831730403, 22.77889493520776, 21.791290315692194]",False,169.39496860001236,172.62843789998442,172.62843789998442,173.84116980002727,None,0,3.8656688197515905,4.872192219831049,None,1,None,1,,,,,,,,,,,,,,,wquuex,001,fr,0,0,2022-05-06_17h51.35.568,Cluster,2022.1.1,35.554076509427134,
,,,,0,0,0,0,6,0,6,0,,,frequency,,,,,,,,,,,,,,,,,,,,,,,,,,,,,,,,,,,,,,,,,,,,,,,,,,,,,,,,,,,,,,,,,,,,,,,,,,,,,,,,,,,,,,,,,,,,,,,,,,,,,,,,,,,,,,,,,,,174.32771059998777,None,353.5533905932738,22.0,0.0011155631429593579,1,"[0.44280576939495125, 0.6103853819476034, 0.7101173042931277, 0.6683899920684785]","[890.8987181403395, 707.1067811865477, 561.2310241546866, 445.4493590701697]",Major_3rd,"[25.999999999999996, 22.51952926543764, 20.36950650046022, 21.791290315692194]",False,175.34201750007924,178.14657890005037,178.14657890005037,179.37091950001195,['space'],1,3.4758464097976685,4.513830809737556,None,1,None,1,,[0.2198552000336349],,,,,,,,,,,,,wquuex,001,fr,0,0,2022-05-06_17h51.35.568,Cluster,2022.1.1,35.554076509427134,
,,,,0,0,0,0,7,0,7,0,,,time,,,,,,,,,,,,,,,,,,,,,,,,,,,,,,,,,,,,,,,,,,,,,,,,,,,,,,,,,,,,,,,,,,,,,,,,,,,,,,,,,,,,,,,,,,,,,,,,,,,,,,,,,,,,,,,,,,,179.88635070004966,None,,,,,"[0.6968694362462878, 0.6968694362462878, 0.6968694362462878, 0.6968694362462878]","[3362.5193968355907, 188.59783772556497, 864.5622108064157, 864.2126816498134]",None,"[24.69830876856029, 13.47209236688566, 25.92012787693378, 25.92012787693378]",True,180.8981893999735,184.01134960004129,184.01134960004129,185.21770160004962,None,1,3.812841319828294,4.835676919785328,None,1,None,1,,,0,,,,,,,,,,,,wquuex,001,fr,0,0,2022-05-06_17h51.35.568,Cluster,2022.1.1,35.554076509427134,
,,,,0,0,0,0,8,0,8,0,,,both,,,,,,,,,,,,,,,,,,,,,,,,,,,,,,,,,,,,,,,,,,,,,,,,,,,,,,,,,,,,,,,,,,,,,,,,,,,,,,,,,,,,,,,,,,,,,,,,,,,,,,,,,,,,,,,,,,,185.77372200007085,None,592.2661027548834,14.369506500460218,0.0002983594104495135,1,"[0.5034081385897436, 0.5034081385897436, 0.5034081385897436, 0.5034081385897436]","[940.1638345582077, 837.5907550498132, 746.2085300000775, 664.796222842456]",Tone,"[27.000000000000004, 25.0, 23.64480579705644, 21.531603556130058]",False,186.77745900000446,189.3267840000335,189.3267840000335,190.53515180002432,['space'],1,3.0343551198020577,4.0393279197160155,None,1,['space'],0,[-2.5181509000249207],[0.6704850998939946],,,,,,,,,,,,,wquuex,001,fr,0,0,2022-05-06_17h51.35.568,Cluster,2022.1.1,35.554076509427134,
,,,,0,0,0,0,9,0,9,0,,,time,,,,,,,,,,,,,,,,,,,,,,,,,,,,,,,,,,,,,,,,,,,,,,,,,,,,,,,,,,,,,,,,,,,,,,,,,,,,,,,,,,,,,,,,,,,,,,,,,,,,,,,,,,,,,,,,,,,190.85973290004767,None,353.5533905932738,22.0,0.0011155631429593579,1,"[0.6994553040613845, 0.6994553040613845, 0.6994553040613845, 0.6994553040613845]","[813.1040576267272, 1784.908573008165, 3825.0933823093214, 172.1148576630075]",None,"[24.805826966679735, 30.574079018182736, 25.0, 13.147815514579257]",False,191.8907567000715,195.02598430006765,195.02598430006765,196.24134549999144,['space'],1,3.8487743098521605,4.8619093098677695,None,1,None,1,,[0.6416546999244019],,,,,,,,,,,,,wquuex,001,fr,0,0,2022-05-06_17h51.35.568,Cluster,2022.1.1,35.554076509427134,
,,,,0,0,0,0,10,0,10,0,,,none,,,,,,,,,,,,,,,,,,,,,,,,,,,,,,,,,,,,,,,,,,,,,,,,,,,,,,,,,,,,,,,,,,,,,,,,,,,,,,,,,,,,,,,,,,,,,,,,,,,,,,,,,,,,,,,,,,,196.782518299995,None,176.7766952966369,22.0,0.004406503025812892,1,"[0.40221182065186156, 0.5538709527358122, 0.709463441889816, 0.4987770459489897]","[3862.550182688323, 1159.586392604872, 807.5606238412325, 5452.64367269564]",None,"[25.0, 29.214969841516492, 24.805826966679735, 32.0]",False,197.80734120006673,200.49711300001945,200.49711300001945,201.7136443000054,['space'],1,3.1842258097603917,4.205532009829767,None,1,None,1,,[0.3404007999924943],,,,,,,,,,,,,wquuex,001,fr,0,0,2022-05-06_17h51.35.568,Cluster,2022.1.1,35.554076509427134,
,,,,0,0,0,0,11,0,11,0,,,none,,,,,,,,,,,,,,,,,,,,,,,,,,,,,,,,,,,,,,,,,,,,,,,,,,,,,,,,,,,,,,,,,,,,,,,,,,,,,,,,,,,,,,,,,,,,,,,,,,,,,,,,,,,,,,,,,,,202.0489080999978,None,,,,,"[0.4414146846384244, 0.7502009836945074, 0.7703368419234279, 0.6131406210390025]","[1241.6989989122037, 247.7255339592227, 1262.2907496496207, 1464.814754153336]",None,"[29.733553246263963, 18.0, 30.0, 30.448808367018295]",True,203.05811440001708,206.04663380002603,206.04663380002603,207.2536700000055,None,1,3.587471319711767,4.592715719714761,None,1,['space'],0,[0.505941899958998],,0,,,,,,,,,,,,wquuex,001,fr,0,0,2022-05-06_17h51.35.568,Cluster,2022.1.1,35.554076509427134,
,,,,0,0,0,0,12,0,12,0,,,frequency,,,,,,,,,,,,,,,,,,,,,,,,,,,,,,,,,,,,,,,,,,,,,,,,,,,,,,,,,,,,,,,,,,,,,,,,,,,,,,,,,,,,,,,,,,,,,,,,,,,,,,,,,,,,,,,,,,,207.68998180003837,None,957.6681259854851,21.000000000000004,0.0004807769822911861,1,"[0.49495599537926177, 0.7968585332709741, 0.6002641260024091, 0.7975334969836403]","[380.0508476564434, 478.83406299274264, 603.2931153712441, 760.1016953128866]",Major_3rd,"[22.869908733086287, 21.0, 20.78547655111803, 23.64480579705644]",False,208.70512749999762,211.63055090000853,211.63055090000853,212.85843520006165,['space'],1,3.714024619781412,4.734921019873582,None,1,None,1,,[0.35354859998915344],,,,,,,,,,,,,wquuex,001,fr,0,0,2022-05-06_17h51.35.568,Cluster,2022.1.1,35.554076509427134,
,,,,0,0,0,0,13,0,13,0,,,frequency,,,,,,,,,,,,,,,,,,,,,,,,,,,,,,,,,,,,,,,,,,,,,,,,,,,,,,,,,,,,,,,,,,,,,,,,,,,,,,,,,,,,,,,,,,,,,,,,,,,,,,,,,,,,,,,,,,,213.49850360001437,None,176.7766952966369,21.0,0.003927299955644927,1,"[0.41019609203779056, 0.6445979126127426, 0.6906773398020005, 0.5493210837165556]","[445.44935907016975, 353.55339059327383, 280.6155120773433, 222.72467953508485]",Major_3rd,"[21.791290315692194, 23.015482687218544, 21.0, 16.0]",False,215.5752379000187,218.35363999998663,218.35363999998663,219.57614400004968,['space'],1,3.331377439433709,4.363416339387186,None,1,None,1,,[0.31161090009845793],,,,,,,,,,,,,wquuex,001,fr,0,0,2022-05-06_17h51.35.568,Cluster,2022.1.1,35.554076509427134,
,,,,0,0,0,0,14,0,14,0,,,both,,,,,,,,,,,,,,,,,,,,,,,,,,,,,,,,,,,,,,,,,,,,,,,,,,,,,,,,,,,,,,,,,,,,,,,,,,,,,,,,,,,,,,,,,,,,,,,,,,,,,,,,,,,,,,,,,,,219.9667850000551,None,176.7766952966369,21.0,0.003927299955644927,1,"[0.5666675756703656, 0.5666675756703656, 0.5666675756703656, 0.5666675756703656]","[445.44935907016975, 353.55339059327383, 280.6155120773433, 222.72467953508485]",Major_3rd,"[21.791290315692194, 23.015482687218544, 21.0, 16.0]",False,220.99554250005167,223.73602160008159,223.73602160008159,224.97236530005466,['space'],1,3.3195199097972363,4.328001609770581,None,1,None,1,,[0.24872000003233552],,,,,,,,,,,,,wquuex,001,fr,0,0,2022-05-06_17h51.35.568,Cluster,2022.1.1,35.554076509427134,
,,,,0,0,0,0,15,0,15,0,,,time,,,,,,,,,,,,,,,,,,,,,,,,,,,,,,,,,,,,,,,,,,,,,,,,,,,,,,,,,,,,,,,,,,,,,,,,,,,,,,,,,,,,,,,,,,,,,,,,,,,,,,,,,,,,,,,,,,,225.34752170008142,None,3382.228088269841,18.602096383335358,0.0006222960708394097,0,"[0.5205652324995322, 0.5205652324995322, 0.5205652324995322, 0.5205652324995322]","[469.47662492780825, 1307.990767195496, 341.12453920646436, 740.5502334144074]",None,"[21.132904326090348, 30.14951529507025, 23.0, 23.0]",False,226.35686699999496,228.9664492000593,228.9664492000593,230.17776150000282,None,0,3.116251219762489,4.138961919816211,None,1,None,1,,,,,,,,,,,,,,,wquuex,001,fr,0,0,2022-05-06_17h51.35.568,Cluster,2022.1.1,35.554076509427134,
,,,,0,0,0,0,16,0,16,0,,,time,,,,,,,,,,,,,,,,,,,,,,,,,,,,,,,,,,,,,,,,,,,,,,,,,,,,,,,,,,,,,,,,,,,,,,,,,,,,,,,,,,,,,,,,,,,,,,,,,,,,,,,,,,,,,,,,,,,230.5376584000187,None,176.7766952966369,22.0,0.004406503025812892,1,"[0.4290663385492615, 0.4290663385492615, 0.4290663385492615, 0.4290663385492615]","[2351.569000435021, 845.8620858330466, 1129.4320985171237, 904.1877209832784]",None,"[28.0, 25.0, 29.0, 26.93262277190714]",False,232.40934550005477,234.71301140007563,234.71301140007563,235.92057870002463,['space'],1,2.756160309538245,3.7871390094514936,None,1,None,1,,[0.2793274000287056],,,,,,,,,,,,,wquuex,001,fr,0,0,2022-05-06_17h51.35.568,Cluster,2022.1.1,35.554076509427134,
,,,,0,0,0,0,17,0,17,0,,,both,,,,,,,,,,,,,,,,,,,,,,,,,,,,,,,,,,,,,,,,,,,,,,,,,,,,,,,,,,,,,,,,,,,,,,,,,,,,,,,,,,,,,,,,,,,,,,,,,,,,,,,,,,,,,,,,,,,236.22967480006628,None,,,,,"[0.7228034274960728, 0.7228034274960728, 0.7228034274960728, 0.7228034274960728]","[5329.7034831531355, 4230.188457917932, 3357.5028040613306, 2664.8517415765677]",Major_3rd,"[31.4639510954109, 26.757894318066356, 24.69830876856029, 26.734255736377243]",True,237.226769000059,240.41943870007526,240.41943870007526,241.64113970007747,None,1,3.9145576197188348,4.9155156197957695,None,1,None,1,,,0,,,,,,,,,,,,wquuex,001,fr,0,0,2022-05-06_17h51.35.568,Cluster,2022.1.1,35.554076509427134,
,,,,0,0,0,0,18,0,18,0,,,frequency,,,,,,,,,,,,,,,,,,,,,,,,,,,,,,,,,,,,,,,,,,,,,,,,,,,,,,,,,,,,,,,,,,,,,,,,,,,,,,,,,,,,,,,,,,,,,,,,,,,,,,,,,,,,,,,,,,,242.18309419997968,None,246.75395387765403,12.0,0.0006920788243660965,1,"[0.6578935409983353, 0.6842912428058237, 0.6553430951728241, 0.70211379820462]","[621.7810012704899, 493.50790775530805, 391.69748596270057, 310.89050063524496]",Major_3rd,"[21.0, 20.592673545545708, 22.869908733086287, 22.148150643800342]",False,243.17660210002214,246.20849160000216,246.20849160000216,247.42845010000747,['space'],1,3.7088455196935683,4.72352951974608,None,1,None,1,,[0.29821449995506555],,,,,,,,,,,,,wquuex,001,fr,0,0,2022-05-06_17h51.35.568,Cluster,2022.1.1,35.554076509427134,
,,,,0,0,0,0,19,0,19,0,,,none,,,,,,,,,,,,,,,,,,,,,,,,,,,,,,,,,,,,,,,,,,,,,,,,,,,,,,,,,,,,,,,,,,,,,,,,,,,,,,,,,,,,,,,,,,,,,,,,,,,,,,,,,,,,,,,,,,,247.95083910005633,None,230.32385743639418,10.854798477107213,0.0007189102062576263,1,"[0.5353862963527742, 0.7954705847320351, 0.6886702692995079, 0.6542796629446329]","[3647.8643522489715, 502.54366896444117, 2313.1365568990113, 4425.82671375227]",None,"[24.913705148798854, 20.592673545545708, 28.52430684289407, 26.999999999999996]",False,248.942923399969,251.9739217000315,251.9739217000315,253.2008966000285,['space'],1,3.6852311198599637,4.7078992198221385,None,1,None,1,,[0.4002125000115484],,,,,,,,,,,,,wquuex,001,fr,0,0,2022-05-06_17h51.35.568,Cluster,2022.1.1,35.554076509427134,
,,,,1,0,1,0,0,0,0,0,,,none,,,,,,,,,,,,,,,,,,,,,,,,,,,,,,,,,,,,,,,,,,,,,,,,,,,,,,,,,,,,,,,,,,,,,,,,,,,,,,,,,,,,,,,,,,,,,,,,,,,,,,,,,,,,,,,,,,,262.0768500000704,None,125.0,19.0,0.006441247758465671,1,"[0.5614014380864724, 0.5212369407134557, 0.7212152623759992, 0.7118285746900144]","[7677.294934256915, 189.8383418833683, 3456.8789418616016, 1450.636098567951]",None,"[36.806267975261164, 13.47209236688566, 24.602096383335358, 30.448808367018295]",False,263.06577770004515,265.8993718000129,265.8993718000129,267.11907380004413,['space'],1,3.5684621098916978,4.586405609850772,None,1,None,1,,[0.3422283000545576],,,,,,,,,,,,,wquuex,001,fr,0,0,2022-05-06_17h51.35.568,Cluster,2022.1.1,35.554076509427134,
,,,,1,0,1,0,1,0,1,0,,,time,,,,,,,,,,,,,,,,,,,,,,,,,,,,,,,,,,,,,,,,,,,,,,,,,,,,,,,,,,,,,,,,,,,,,,,,,,,,,,,,,,,,,,,,,,,,,,,,,,,,,,,,,,,,,,,,,,,267.67964420001954,None,7244.871358301885,30.806267975261164,0.005504926226220867,0,"[0.7048323368151973, 0.7048323368151973, 0.7048323368151973, 0.7048323368151973]","[3562.921880412514, 519.0740183374784, 2056.1470167307016, 668.1795811909188]",None,"[24.602096383335358, 20.31287472400956, 29.881351237623132, 21.531603556130058]",False,268.66844849998597,271.8054989000084,271.8054989000084,273.0070800000103,None,0,3.848695619846694,4.864970119902864,None,1,None,1,,,,,,,,,,,,,,,wquuex,001,fr,0,0,2022-05-06_17h51.35.568,Cluster,2022.1.1,35.554076509427134,
,,,,1,0,1,0,2,0,2,0,,,frequency,,,,,,,,,,,,,,,,,,,,,,,,,,,,,,,,,,,,,,,,,,,,,,,,,,,,,,,,,,,,,,,,,,,,,,,,,,,,,,,,,,,,,,,,,,,,,,,,,,,,,,,,,,,,,,,,,,,273.58403959998395,None,,,,,"[0.4197535868324761, 0.528853892315009, 0.7278549657929747, 0.5264262735417429]","[242.21492432870434, 215.78896559890197, 192.24611284089153, 171.2718154974133]",Tone,"[18.0, 15.438140240721271, 13.47209236688566, 13.147815514579257]",True,274.57480439997744,277.291530800052,277.291530800052,278.50416870007757,None,1,3.2143598197726533,4.220188719686121,None,1,None,1,,,0,,,,,,,,,,,,wquuex,001,fr,0,0,2022-05-06_17h51.35.568,Cluster,2022.1.1,35.554076509427134,
,,,,1,0,1,0,3,0,3,0,,,none,,,,,,,,,,,,,,,,,,,,,,,,,,,,,,,,,,,,,,,,,,,,,,,,,,,,,,,,,,,,,,,,,,,,,,,,,,,,,,,,,,,,,,,,,,,,,,,,,,,,,,,,,,,,,,,,,,,278.8346660999814,None,7105.343133439096,30.44079369897291,0.005137393148007969,0,"[0.6299660914149927, 0.5110522327296466, 0.6440647772455659, 0.49291912999032406]","[707.9749165451294, 5614.204699153843, 1398.7929489973656, 1355.0557688948893]",None,"[22.51952926543764, 33.0, 30.448808367018295, 30.14951529507025]",False,279.8350468999706,282.6598881999962,282.6598881999962,283.8742150000762,None,0,3.289842719794251,4.302167619811371,None,1,None,1,,,,,,,,,,,,,,,wquuex,001,fr,0,0,2022-05-06_17h51.35.568,Cluster,2022.1.1,35.554076509427134,
,,,,1,0,1,0,4,0,4,0,,,none,,,,,,,,,,,,,,,,,,,,,,,,,,,,,,,,,,,,,,,,,,,,,,,,,,,,,,,,,,,,,,,,,,,,,,,,,,,,,,,,,,,,,,,,,,,,,,,,,,,,,,,,,,,,,,,,,,,284.1808612999739,None,2462.2888266898335,20.0,0.0008505946547995336,0,"[0.6018249997716404, 0.5123212811088643, 0.6419472558168325, 0.4488595077127216]","[3764.0173814171067, 449.35224917093905, 881.9771961479828, 235.3385560798905]",None,"[25.0, 21.791290315692194, 25.999999999999996, 17.0]",False,285.9070006000111,288.7039463999681,288.7039463999681,289.93038749997504,None,0,3.2171486595179886,4.224221459473483,None,1,None,1,,,,,,,,,,,,,,,wquuex,001,fr,0,0,2022-05-06_17h51.35.568,Cluster,2022.1.1,35.554076509427134,
,,,,1,0,1,0,5,0,5,0,,,none,,,,,,,,,,,,,,,,,,,,,,,,,,,,,,,,,,,,,,,,,,,,,,,,,,,,,,,,,,,,,,,,,,,,,,,,,,,,,,,,,,,,,,,,,,,,,,,,,,,,,,,,,,,,,,,,,,,290.17415870004334,None,1606.5502065555788,24.673174063951816,0.0009769812010208723,1,"[0.4024255874724947, 0.42502363632429613, 0.4956265430997827, 0.6730382537714498]","[6141.834696369199, 746.9517403970036, 622.1628345044128, 1042.7580366676823]",None,"[34.51162848731565, 23.64480579705644, 21.0, 28.0]",False,291.16632060008124,293.4999033000786,293.4999033000786,294.71792299998924,['space'],1,3.010706819826737,4.029204119928181,None,1,None,1,,[0.3227840999606997],,,,,,,,,,,,,wquuex,001,fr,0,0,2022-05-06_17h51.35.568,Cluster,2022.1.1,35.554076509427134,
,,,,1,0,1,0,6,0,6,0,,,frequency,,,,,,,,,,,,,,,,,,,,,,,,,,,,,,,,,,,,,,,,,,,,,,,,,,,,,,,,,,,,,,,,,,,,,,,,,,,,,,,,,,,,,,,,,,,,,,,,,,,,,,,,,,,,,,,,,,,295.2429386000149,None,,,,,"[0.6244179130880345, 0.6766341523496314, 0.7448398823128215, 0.5014690170097803]","[3697.7017322252514, 4150.529860390672, 4658.81224866333, 5229.339939323438]",Tone,"[24.913705148798854, 26.0, 28.17773269207325, 31.4639510954109]",True,296.2594597999705,299.3186957000289,299.3186957000289,300.536902599968,None,1,3.5884984197327867,4.599009819794446,None,1,None,1,,,0,,,,,,,,,,,,wquuex,001,fr,0,0,2022-05-06_17h51.35.568,Cluster,2022.1.1,35.554076509427134,
,,,,1,0,1,0,7,0,7,0,,,time,,,,,,,,,,,,,,,,,,,,,,,,,,,,,,,,,,,,,,,,,,,,,,,,,,,,,,,,,,,,,,,,,,,,,,,,,,,,,,,,,,,,,,,,,,,,,,,,,,,,,,,,,,,,,,,,,,,300.904306899989,None,125.0,20.0,0.00722719885372964,1,"[0.5243884054233425, 0.5243884054233425, 0.5243884054233425, 0.5243884054233425]","[4928.060988180556, 514.1887032606744, 1955.9905876942703, 6937.144308422204]",None,"[29.784130182279302, 20.592673545545708, 30.0, 36.44079369897291]",False,301.91772749996744,304.519786400022,304.519786400022,305.75415719999,['space'],1,3.1317601097980514,4.143685109796934,None,1,None,1,,[0.31351300003007054],,,,,,,,,,,,,wquuex,001,fr,0,0,2022-05-06_17h51.35.568,Cluster,2022.1.1,35.554076509427134,
,,,,1,0,1,0,8,0,8,0,,,both,,,,,,,,,,,,,,,,,,,,,,,,,,,,,,,,,,,,,,,,,,,,,,,,,,,,,,,,,,,,,,,,,,,,,,,,,,,,,,,,,,,,,,,,,,,,,,,,,,,,,,,,,,,,,,,,,,,306.0930141999852,None,358.0503960917584,17.0,0.0006190622508201604,1,"[0.46538013029108216, 0.46538013029108216, 0.46538013029108216, 0.46538013029108216]","[142.09239385342198, 179.02519804587922, 225.55761547960174, 284.1847877068439]",Major_3rd,"[15.115265097683078, 13.147815514579257, 16.0, 21.0]",False,307.08366650005337,309.49908940005116,309.49908940005116,310.72200960002374,['space'],1,2.8783275197492912,3.879275519750081,None,1,None,1,,[0.37850840005557984],,,,,,,,,,,,,wquuex,001,fr,0,0,2022-05-06_17h51.35.568,Cluster,2022.1.1,35.554076509427134,
,,,,1,0,1,0,9,0,9,0,,,time,,,,,,,,,,,,,,,,,,,,,,,,,,,,,,,,,,,,,,,,,,,,,,,,,,,,,,,,,,,,,,,,,,,,,,,,,,,,,,,,,,,,,,,,,,,,,,,,,,,,,,,,,,,,,,,,,,,311.01540420006495,None,360.9579373947288,17.0,0.000613718507220082,1,"[0.5778925842736939, 0.5778925842736939, 0.5778925842736939, 0.5778925842736939]","[144.78259854661115, 143.94526813759913, 615.3063329200629, 2796.389245544169]",None,"[15.0, 15.115265097683078, 20.78547655111803, 26.0]",False,312.01636070001405,314.7979073000606,314.7979073000606,316.00845480000135,['space'],1,3.3427916198270395,4.374224019818939,None,1,None,1,,[0.37286879995372146],,,,,,,,,,,,,wquuex,001,fr,0,0,2022-05-06_17h51.35.568,Cluster,2022.1.1,35.554076509427134,
,,,,1,0,1,0,10,0,10,0,,,both,,,,,,,,,,,,,,,,,,,,,,,,,,,,,,,,,,,,,,,,,,,,,,,,,,,,,,,,,,,,,,,,,,,,,,,,,,,,,,,,,,,,,,,,,,,,,,,,,,,,,,,,,,,,,,,,,,,316.44006390008144,None,,,,,"[0.539286308362996, 0.539286308362996, 0.539286308362996, 0.539286308362996]","[401.7985127583833, 602.0175551444113, 902.0071632768693, 1351.4837161311937]",Perfect_5th,"[22.424382756355705, 20.78547655111803, 25.999999999999996, 30.14951529507025]",True,317.433740700013,320.0831940000644,320.0831940000644,321.3048565000063,None,1,3.1967735197395086,4.229940219782293,None,1,None,1,,,0,,,,,,,,,,,,wquuex,001,fr,0,0,2022-05-06_17h51.35.568,Cluster,2022.1.1,35.554076509427134,
,,,,1,0,1,0,11,0,11,0,,,none,,,,,,,,,,,,,,,,,,,,,,,,,,,,,,,,,,,,,,,,,,,,,,,,,,,,,,,,,,,,,,,,,,,,,,,,,,,,,,,,,,,,,,,,,,,,,,,,,,,,,,,,,,,,,,,,,,,321.7108307000017,None,4000.0,21.0,0.0009418245447449003,1,"[0.5026929498897479, 0.5543015168871812, 0.5918509002135921, 0.5424234292183322]","[7517.364437136367, 206.84891409723346, 2205.237664213296, 165.95822231478385]",None,"[36.806267975261164, 14.268407807522046, 29.0, 13.332629287798131]",False,322.7228627000004,325.391950200079,325.391950200079,326.60951330000535,['space'],1,3.231788909761235,4.254020709777251,None,1,None,1,,[0.37942869996186346],,,,,,,,,,,,,wquuex,001,fr,0,0,2022-05-06_17h51.35.568,Cluster,2022.1.1,35.554076509427134,
,,,,1,0,1,0,12,0,12,0,,,frequency,,,,,,,,,,,,,,,,,,,,,,,,,,,,,,,,,,,,,,,,,,,,,,,,,,,,,,,,,,,,,,,,,,,,,,,,,,,,,,,,,,,,,,,,,,,,,,,,,,,,,,,,,,,,,,,,,,,327.0106835999759,None,125.0,19.0,0.006441247758465671,1,"[0.5229337151563653, 0.5169840378467282, 0.534232993630471, 0.4036782527851088]","[314.9802624737183, 250.00000000000003, 198.42513149602496, 157.49013123685916]",Major_3rd,"[22.148150643800342, 18.377526291504818, 14.0, 14.0]",False,328.0329195000231,330.63710509997327,330.63710509997327,331.84881860006135,['space'],1,3.0043570098932832,4.00769730983302,None,1,None,1,,[0.35151079995557666],,,,,,,,,,,,,wquuex,001,fr,0,0,2022-05-06_17h51.35.568,Cluster,2022.1.1,35.554076509427134,
,,,,1,0,1,0,13,0,13,0,,,none,,,,,,,,,,,,,,,,,,,,,,,,,,,,,,,,,,,,,,,,,,,,,,,,,,,,,,,,,,,,,,,,,,,,,,,,,,,,,,,,,,,,,,,,,,,,,,,,,,,,,,,,,,,,,,,,,,,332.07218190003186,None,561.0457474742441,14.369506500460218,0.00032382998835782986,1,"[0.6436203635000387, 0.5618744678217302, 0.4725214906294954, 0.47607111669990354]","[3604.7004219494647, 1192.2176254640472, 1124.0950708664213, 162.73683939236852]",None,"[24.602096383335358, 29.733553246263963, 29.0, 13.332629287798131]",False,333.0669074000325,335.7755442999769,335.7755442999769,336.9952809000388,['space'],1,3.1824015197344124,4.216498619760387,None,1,None,1,,[0.4893421999877319],,,,,,,,,,,,,wquuex,001,fr,0,0,2022-05-06_17h51.35.568,Cluster,2022.1.1,35.554076509427134,
,,,,1,0,1,0,14,0,14,0,,,none,,,,,,,,,,,,,,,,,,,,,,,,,,,,,,,,,,,,,,,,,,,,,,,,,,,,,,,,,,,,,,,,,,,,,,,,,,,,,,,,,,,,,,,,,,,,,,,,,,,,,,,,,,,,,,,,,,,337.3432120999787,None,164.93848884661182,11.0,0.0013948972476246718,1,"[0.6447875785228622, 0.5910475382175102, 0.4738366483332981, 0.5884919340666394]","[2574.2767450616047, 1947.6502161134545, 540.2924952509777, 394.6915456267718]",None,"[27.0, 30.0, 20.31287472400956, 22.424382756355705]",False,339.2327577000251,341.96050629997626,341.96050629997626,343.19750999996904,['space'],1,3.3094761095708236,4.320861209533177,None,1,None,1,,[0.26757209992501885],,,,,,,,,,,,,wquuex,001,fr,0,0,2022-05-06_17h51.35.568,Cluster,2022.1.1,35.554076509427134,
,,,,1,0,1,0,15,0,15,0,,,frequency,,,,,,,,,,,,,,,,,,,,,,,,,,,,,,,,,,,,,,,,,,,,,,,,,,,,,,,,,,,,,,,,,,,,,,,,,,,,,,,,,,,,,,,,,,,,,,,,,,,,,,,,,,,,,,,,,,,343.6185225000372,None,302.4931994793441,16.0,0.0007058579968807944,1,"[0.7249307823385515, 0.5011502298511423, 0.5270300358422482, 0.536000894228694]","[190.55877473703723, 213.8949926146592, 240.0890115333686, 269.4908036623176]",Tone,"[13.47209236688566, 15.0, 17.0, 20.0]",False,344.6131604000693,347.39744259999134,347.39744259999134,348.63346200005617,['space'],1,3.3218306198250502,4.3498890198534355,None,1,None,1,,[0.27486010000575334],,,,,,,,,,,,,wquuex,001,fr,0,0,2022-05-06_17h51.35.568,Cluster,2022.1.1,35.554076509427134,
,,,,1,0,1,0,16,0,16,0,,,both,,,,,,,,,,,,,,,,,,,,,,,,,,,,,,,,,,,,,,,,,,,,,,,,,,,,,,,,,,,,,,,,,,,,,,,,,,,,,,,,,,,,,,,,,,,,,,,,,,,,,,,,,,,,,,,,,,,349.0193152000429,None,,,,,"[0.41727996712947085, 0.41727996712947085, 0.41727996712947085, 0.41727996712947085]","[1095.7328588831401, 731.3139447804429, 488.0934997016194, 325.76332798152566]",Perfect_5th,"[28.577008912089823, 23.0, 20.592673545545708, 22.77889493520776]",True,350.0317613000516,352.3062281999737,352.3062281999737,353.54487019998487,None,1,2.703355619800277,3.706844819826074,None,1,None,1,,,0,,,,,,,,,,,,wquuex,001,fr,0,0,2022-05-06_17h51.35.568,Cluster,2022.1.1,35.554076509427134,
,,,,1,0,1,0,17,0,17,0,,,frequency,,,,,,,,,,,,,,,,,,,,,,,,,,,,,,,,,,,,,,,,,,,,,,,,,,,,,,,,,,,,,,,,,,,,,,,,,,,,,,,,,,,,,,,,,,,,,,,,,,,,,,,,,,,,,,,,,,,353.7862851000391,None,574.3491774985172,19.0,0.0005333798065099767,1,"[0.43222755014751546, 0.42047348089393644, 0.42922418992375133, 0.5075401009198064]","[911.7224885582166, 812.2523963562353, 723.6346187201888, 644.6851542197893]",Tone,"[26.93262277190714, 24.805826966679735, 23.0, 21.531603556130058]",False,354.813610500074,357.14739160006866,357.14739160006866,358.3803450000705,['space'],1,2.843320009764284,3.8744304097490385,None,1,None,1,,[0.37778640002943575],,,,,,,,,,,,,wquuex,001,fr,0,0,2022-05-06_17h51.35.568,Cluster,2022.1.1,35.554076509427134,
,,,,1,0,1,0,18,0,18,0,,,frequency,,,,,,,,,,,,,,,,,,,,,,,,,,,,,,,,,,,,,,,,,,,,,,,,,,,,,,,,,,,,,,,,,,,,,,,,,,,,,,,,,,,,,,,,,,,,,,,,,,,,,,,,,,,,,,,,,,,358.7244099000236,None,3618.832257240961,18.913705148798854,0.0006816774499882534,0,"[0.43639796065567493, 0.4108434607868352, 0.4230381565285911, 0.7571233124860073]","[2279.721468468232, 2558.900829071704, 2872.2690660203775, 3224.0130191408825]",Tone,"[28.52430684289407, 27.0, 25.863803070070993, 24.69830876856029]",False,359.73338990006596,362.0551916999975,362.0551916999975,363.28753610001877,None,0,3.0463848197832704,4.08099291974213,None,1,None,1,,,,,,,,,,,,,,,wquuex,001,fr,0,0,2022-05-06_17h51.35.568,Cluster,2022.1.1,35.554076509427134,
,,,,1,0,1,0,19,0,19,0,,,none,,,,,,,,,,,,,,,,,,,,,,,,,,,,,,,,,,,,,,,,,,,,,,,,,,,,,,,,,,,,,,,,,,,,,,,,,,,,,,,,,,,,,,,,,,,,,,,,,,,,,,,,,,,,,,,,,,,363.87251820007805,None,156.92061877672793,8.0,0.0011015538575294113,1,"[0.4928247989873358, 0.5316817212093388, 0.7827006538651251, 0.7928388249207113]","[1790.6005112757034, 3207.0741300795794, 271.9378323323963, 326.66239527146706]",None,"[30.574079018182736, 24.69830876856029, 20.0, 22.77889493520776]",False,364.87480710004456,367.72430600004736,367.72430600004736,368.9615364000201,['space'],1,3.611312319757417,4.646091119851917,None,1,None,1,,[0.5269066999899223],,,,,,,,,,,,,wquuex,001,fr,0,0,2022-05-06_17h51.35.568,Cluster,2022.1.1,35.554076509427134,
,,,,2,0,2,0,0,0,0,0,,,both,,,,,,,,,,,,,,,,,,,,,,,,,,,,,,,,,,,,,,,,,,,,,,,,,,,,,,,,,,,,,,,,,,,,,,,,,,,,,,,,,,,,,,,,,,,,,,,,,,,,,,,,,,,,,,,,,,,374.3043379000155,None,125.0,19.0,0.006441247758465671,1,"[0.43744888473647436, 0.43744888473647436, 0.43744888473647436, 0.43744888473647436]","[629.9605249474366, 420.4482076268573, 280.6155120773433, 187.2883846095852]",Perfect_5th,"[21.0, 22.0, 21.0, 13.47209236688566]",False,375.303671700065,377.63722729997244,377.63722729997244,378.86754340003245,['space'],1,2.8010155097581446,3.8101660098182037,None,1,None,1,,[0.2957492000423372],,,,,,,,,,,,,wquuex,001,fr,0,0,2022-05-06_17h51.35.568,Cluster,2022.1.1,35.554076509427134,
,,,,2,0,2,0,1,0,1,0,,,both,,,,,,,,,,,,,,,,,,,,,,,,,,,,,,,,,,,,,,,,,,,,,,,,,,,,,,,,,,,,,,,,,,,,,,,,,,,,,,,,,,,,,,,,,,,,,,,,,,,,,,,,,,,,,,,,,,,379.139817200019,None,1788.1029663437396,24.574079018182736,0.0011047000036675772,1,"[0.5733421573813478, 0.5733421573813478, 0.5733421573813478, 0.5733421573813478]","[4505.737133351883, 3576.2059326874796, 2838.4365298015105, 2252.8685666759416]",Major_3rd,"[28.0, 24.602096383335358, 25.863803070070993, 28.52430684289407]",False,380.15547890006565,382.90498180000577,382.90498180000577,384.1166763000656,['space'],1,3.315172519767657,4.342095619766042,None,1,None,1,,[0.32536909996997565],,,,,,,,,,,,,wquuex,001,fr,0,0,2022-05-06_17h51.35.568,Cluster,2022.1.1,35.554076509427134,
,,,,2,0,2,0,2,0,2,0,,,none,,,,,,,,,,,,,,,,,,,,,,,,,,,,,,,,,,,,,,,,,,,,,,,,,,,,,,,,,,,,,,,,,,,,,,,,,,,,,,,,,,,,,,,,,,,,,,,,,,,,,,,,,,,,,,,,,,,384.55217589996755,None,,,,,"[0.7974665471209411, 0.6669884744061256, 0.5413793489258572, 0.7567470194946516]","[2399.7866209871145, 205.08687971081122, 3656.1676958827343, 2298.8831993156327]",None,"[28.0, 14.268407807522046, 24.913705148798854, 28.52430684289407]",True,385.56519320001826,388.6089719000738,388.6089719000738,389.8415773999877,None,1,3.771388219902292,4.8032756198663265,None,1,None,1,,,0,,,,,,,,,,,,wquuex,001,fr,0,0,2022-05-06_17h51.35.568,Cluster,2022.1.1,35.554076509427134,
,,,,2,0,2,0,3,0,3,0,,,time,,,,,,,,,,,,,,,,,,,,,,,,,,,,,,,,,,,,,,,,,,,,,,,,,,,,,,,,,,,,,,,,,,,,,,,,,,,,,,,,,,,,,,,,,,,,,,,,,,,,,,,,,,,,,,,,,,,390.4198711999925,None,2143.5469250725882,21.0,0.0008751051287496474,1,"[0.43949144099685666, 0.43949144099685666, 0.43949144099685666, 0.43949144099685666]","[847.4015300346427, 5946.545975221944, 6922.701885097698, 3024.877026169807]",None,"[25.92012787693378, 34.0, 36.44079369897291, 25.15223632413791]",False,391.43838579999283,393.7794658000348,393.7794658000348,395.00910650007427,['space'],1,2.8146947098430246,3.8201089097419754,None,1,None,1,,[0.342313600005582],,,,,,,,,,,,,wquuex,001,fr,0,0,2022-05-06_17h51.35.568,Cluster,2022.1.1,35.554076509427134,
,,,,2,0,2,0,4,0,4,0,,,both,,,,,,,,,,,,,,,,,,,,,,,,,,,,,,,,,,,,,,,,,,,,,,,,,,,,,,,,,,,,,,,,,,,,,,,,,,,,,,,,,,,,,,,,,,,,,,,,,,,,,,,,,,,,,,,,,,,395.29387419996783,None,3732.1319661472303,19.0,0.0007062095770881294,1,"[0.5186389846842112, 0.5186389846842112, 0.5186389846842112, 0.5186389846842112]","[740.5487761432821, 1109.569472067845, 1662.4757922855756, 2490.899244717646]",Perfect_5th,"[23.0, 29.0, 30.673174063951816, 27.652103384288885]",False,396.3138390000677,398.89610580005683,398.89610580005683,400.1138206999749,['space'],1,3.11128160986118,4.143668109900318,None,1,None,1,,[0.3689828999340534],,,,,,,,,,,,,wquuex,001,fr,0,0,2022-05-06_17h51.35.568,Cluster,2022.1.1,35.554076509427134,
,,,,2,0,2,0,5,0,5,0,,,time,,,,,,,,,,,,,,,,,,,,,,,,,,,,,,,,,,,,,,,,,,,,,,,,,,,,,,,,,,,,,,,,,,,,,,,,,,,,,,,,,,,,,,,,,,,,,,,,,,,,,,,,,,,,,,,,,,,400.4956319000339,None,1279.9565592665583,24.0,0.0008521257720554898,1,"[0.4834123974194515, 0.4834123974194515, 0.4834123974194515, 0.4834123974194515]","[4830.699633454206, 3726.0894280489224, 3496.1204718941945, 130.27143827775498]",None,"[29.0, 24.913705148798854, 24.602096383335358, 17.0]",False,401.48444660007954,403.94974509999156,403.94974509999156,405.1546412999742,['space'],1,2.96499631984625,3.9693575197597966,None,1,None,1,,[0.43236840004101396],,,,,,,,,,,,,wquuex,001,fr,0,0,2022-05-06_17h51.35.568,Cluster,2022.1.1,35.554076509427134,
,,,,2,0,2,0,6,0,6,0,,,time,,,,,,,,,,,,,,,,,,,,,,,,,,,,,,,,,,,,,,,,,,,,,,,,,,,,,,,,,,,,,,,,,,,,,,,,,,,,,,,,,,,,,,,,,,,,,,,,,,,,,,,,,,,,,,,,,,,405.5111948000267,None,574.3491774985172,20.0,0.0005984619860562044,1,"[0.6087188411430219, 0.6087188411430219, 0.6087188411430219, 0.6087188411430219]","[1748.5858474524755, 1136.1113264553112, 1222.7738328750324, 802.0274556211656]",None,"[30.574079018182736, 29.214969841516492, 29.733553246263963, 24.805826966679735]",False,407.520227800007,410.3903140000766,410.3903140000766,411.5999736000085,['space'],1,3.4803280594060197,4.501760559389368,None,1,None,1,,[0.33853850001469254],,,,,,,,,,,,,wquuex,001,fr,0,0,2022-05-06_17h51.35.568,Cluster,2022.1.1,35.554076509427134,
,,,,2,0,2,0,7,0,7,0,,,frequency,,,,,,,,,,,,,,,,,,,,,,,,,,,,,,,,,,,,,,,,,,,,,,,,,,,,,,,,,,,,,,,,,,,,,,,,,,,,,,,,,,,,,,,,,,,,,,,,,,,,,,,,,,,,,,,,,,,412.0567094000289,None,1515.7165665103996,21.0,0.0005568608891974556,0,"[0.7093517030423011, 0.7767466658670317, 0.4719108973835781, 0.6547593683281006]","[601.5125180410591, 757.8582832552, 954.8416039104177, 1203.025036082118]",Major_3rd,"[20.78547655111803, 23.64480579705644, 27.000000000000004, 29.733553246263963]",False,413.06505580001976,416.0393885000376,416.0393885000376,417.23937600001227,None,0,3.645955109735951,4.652306409785524,None,1,None,1,,,,,,,,,,,,,,,wquuex,001,fr,0,0,2022-05-06_17h51.35.568,Cluster,2022.1.1,35.554076509427134,
,,,,2,0,2,0,8,0,8,0,,,both,,,,,,,,,,,,,,,,,,,,,,,,,,,,,,,,,,,,,,,,,,,,,,,,,,,,,,,,,,,,,,,,,,,,,,,,,,,,,,,,,,,,,,,,,,,,,,,,,,,,,,,,,,,,,,,,,,,417.75041049998254,None,,,,,"[0.7639848247995538, 0.7639848247995538, 0.7639848247995538, 0.7639848247995538]","[899.293196570238, 713.7694831317203, 566.5192141930454, 449.64659828511896]",Major_3rd,"[25.999999999999996, 22.51952926543764, 20.36950650046022, 21.791290315692194]",True,418.7493830000749,422.07039700006135,422.07039700006135,423.2798717999831,None,1,4.093046019785106,5.120993319782428,None,1,None,1,,,0,,,,,,,,,,,,wquuex,001,fr,0,0,2022-05-06_17h51.35.568,Cluster,2022.1.1,35.554076509427134,
,,,,2,0,2,0,9,0,9,0,,,time,,,,,,,,,,,,,,,,,,,,,,,,,,,,,,,,,,,,,,,,,,,,,,,,,,,,,,,,,,,,,,,,,,,,,,,,,,,,,,,,,,,,,,,,,,,,,,,,,,,,,,,,,,,,,,,,,,,423.9198260999983,None,574.0403713204923,14.369506500460218,0.00031322855297729197,0,"[0.7660928023638955, 0.7660928023638955, 0.7660928023638955, 0.7660928023638955]","[610.1932799906623, 1702.4617340592636, 127.80508584700488, 767.6065906698516]",None,"[20.78547655111803, 30.574079018182736, 18.0, 24.0]",False,424.9249792000046,428.2453934000805,428.2453934000805,429.4783033999847,None,0,4.080812519765459,5.101728019770235,None,1,None,1,,,,,,,,,,,,,,,wquuex,001,fr,0,0,2022-05-06_17h51.35.568,Cluster,2022.1.1,35.554076509427134,
,,,,2,0,2,0,10,0,10,0,,,time,,,,,,,,,,,,,,,,,,,,,,,,,,,,,,,,,,,,,,,,,,,,,,,,,,,,,,,,,,,,,,,,,,,,,,,,,,,,,,,,,,,,,,,,,,,,,,,,,,,,,,,,,,,,,,,,,,,430.07551770005375,None,217.63764082403114,17.0,0.0016345528837347653,1,"[0.7643041954658392, 0.7643041954658392, 0.7643041954658392, 0.7643041954658392]","[322.9103091262452, 6550.219556333123, 823.9650131189866, 342.481012249886]",None,"[22.77889493520776, 35.65675390165805, 25.0, 23.0]",False,431.8489520000294,435.181008500047,435.181008500047,436.38575230003335,['space'],1,4.108321639592759,5.115020339610055,None,1,None,1,,[0.265055000083521],,,,,,,,,,,,,wquuex,001,fr,0,0,2022-05-06_17h51.35.568,Cluster,2022.1.1,35.554076509427134,
,,,,2,0,2,0,11,0,11,0,,,frequency,,,,,,,,,,,,,,,,,,,,,,,,,,,,,,,,,,,,,,,,,,,,,,,,,,,,,,,,,,,,,,,,,,,,,,,,,,,,,,,,,,,,,,,,,,,,,,,,,,,,,,,,,,,,,,,,,,,437.0001365999924,None,2545.5533114262885,21.0,0.0009320001303978054,0,"[0.4921540653261321, 0.5466006848577559, 0.727501476096596, 0.6762394023191525]","[1603.5981003477898, 1799.9780083813996, 2020.4070021996117, 2267.830182107576]",Tone,"[30.673174063951816, 30.574079018182736, 29.881351237623132, 28.52430684289407]",False,438.0025462000631,440.789293800015,440.789293800015,441.9919689000817,None,0,3.4715205198153853,4.488763319794089,None,1,None,1,,,,,,,,,,,,,,,wquuex,001,fr,0,0,2022-05-06_17h51.35.568,Cluster,2022.1.1,35.554076509427134,
,,,,2,0,2,0,12,0,12,0,,,none,,,,,,,,,,,,,,,,,,,,,,,,,,,,,,,,,,,,,,,,,,,,,,,,,,,,,,,,,,,,,,,,,,,,,,,,,,,,,,,,,,,,,,,,,,,,,,,,,,,,,,,,,,,,,,,,,,,442.54678099998273,None,,,,,"[0.6666393659584434, 0.6100922165537864, 0.4436604997951687, 0.4484135819892152]","[2328.9004408926544, 1103.8028993848534, 524.7326622997831, 890.584971435589]",None,"[28.52430684289407, 29.0, 20.31287472400956, 25.999999999999996]",True,443.5472076999722,446.2950855999952,446.2950855999952,447.5123518999899,None,1,3.1798292198218405,4.203769419807941,None,1,None,1,,,0,,,,,,,,,,,,wquuex,001,fr,0,0,2022-05-06_17h51.35.568,Cluster,2022.1.1,35.554076509427134,
,,,,2,0,2,0,13,0,13,0,,,none,,,,,,,,,,,,,,,,,,,,,,,,,,,,,,,,,,,,,,,,,,,,,,,,,,,,,,,,,,,,,,,,,,,,,,,,,,,,,,,,,,,,,,,,,,,,,,,,,,,,,,,,,,,,,,,,,,,447.7878134000348,None,353.5533905932738,17.0,0.0006273272561452761,1,"[0.611237929400987, 0.7706874326747721, 0.6528910592856075, 0.6161603768107657]","[293.18783696099194, 134.9985278050782, 1094.143899376014, 525.0139348406416]",None,"[21.146209754046666, 16.517707918015578, 28.577008912089823, 20.31287472400956]",False,448.8094797000522,451.8672092000488,451.8672092000488,453.0971260999795,['space'],1,3.6737923097098246,4.681210309732705,None,1,None,1,,[0.4109792000381276],,,,,,,,,,,,,wquuex,001,fr,0,0,2022-05-06_17h51.35.568,Cluster,2022.1.1,35.554076509427134,
,,,,2,0,2,0,14,0,14,0,,,time,,,,,,,,,,,,,,,,,,,,,,,,,,,,,,,,,,,,,,,,,,,,,,,,,,,,,,,,,,,,,,,,,,,,,,,,,,,,,,,,,,,,,,,,,,,,,,,,,,,,,,,,,,,,,,,,,,,453.5709945000708,None,4802.792236161034,23.0,0.0019659274760235627,1,"[0.40144946620147626, 0.40144946620147626, 0.40144946620147626, 0.40144946620147626]","[650.5731392939075, 3887.179097239313, 283.1142247316268, 126.29111192258407]",None,"[21.531603556130058, 25.64520523886877, 21.0, 18.0]",False,454.5172932000132,456.7636579000391,456.7636579000391,457.9804965000367,['space'],1,2.6396098197437823,3.642672819783911,None,1,None,1,,[0.4301743999822065],,,,,,,,,,,,,wquuex,001,fr,0,0,2022-05-06_17h51.35.568,Cluster,2022.1.1,35.554076509427134,
,,,,2,0,2,0,15,0,15,0,,,time,,,,,,,,,,,,,,,,,,,,,,,,,,,,,,,,,,,,,,,,,,,,,,,,,,,,,,,,,,,,,,,,,,,,,,,,,,,,,,,,,,,,,,,,,,,,,,,,,,,,,,,,,,,,,,,,,,,458.21316729998216,None,164.93848884661182,14.0,0.0019703447331607922,1,"[0.554493907579337, 0.554493907579337, 0.554493907579337, 0.554493907579337]","[1415.8109697797263, 509.14502405185584, 560.2433045385255, 506.4957951666533]",None,"[30.448808367018295, 20.592673545545708, 20.36950650046022, 20.592673545545708]",False,459.9818518999964,462.6809252999956,462.6809252999956,463.8944117000792,['space'],1,3.242761049536057,4.260576049564406,None,1,None,1,,[0.43851480004377663],,,,,,,,,,,,,wquuex,001,fr,0,0,2022-05-06_17h51.35.568,Cluster,2022.1.1,35.554076509427134,
,,,,2,0,2,0,16,0,16,0,,,time,,,,,,,,,,,,,,,,,,,,,,,,,,,,,,,,,,,,,,,,,,,,,,,,,,,,,,,,,,,,,,,,,,,,,,,,,,,,,,,,,,,,,,,,,,,,,,,,,,,,,,,,,,,,,,,,,,,464.2754897000268,None,,,,,"[0.7289980358261194, 0.7289980358261194, 0.7289980358261194, 0.7289980358261194]","[758.9239650064359, 5791.539912462422, 1270.1175766609347, 297.42321856071163]",None,"[23.64480579705644, 34.0, 30.0, 22.0]",True,465.2726263999939,468.486430900055,468.486430900055,469.711020900053,None,1,3.9280252198223025,4.941096719820052,None,1,['space'],0,[0.5779246999882162],,0,,,,,,,,,,,,wquuex,001,fr,0,0,2022-05-06_17h51.35.568,Cluster,2022.1.1,35.554076509427134,
,,,,2,0,2,0,17,0,17,0,,,none,,,,,,,,,,,,,,,,,,,,,,,,,,,,,,,,,,,,,,,,,,,,,,,,,,,,,,,,,,,,,,,,,,,,,,,,,,,,,,,,,,,,,,,,,,,,,,,,,,,,,,,,,,,,,,,,,,,470.25312690006103,None,6446.868202405033,29.656753901658053,0.004087243288262644,1,"[0.6744956873051768, 0.6010311998246264, 0.65581577300924, 0.6968271768078599]","[260.3129760267574, 6148.383598803922, 543.7701709895445, 1033.2573171903525]",None,"[19.0, 34.51162848731565, 20.31287472400956, 28.0]",False,471.2446945999982,474.195731200045,474.195731200045,475.416651400039,['space'],1,3.652124619926326,4.679043619893491,None,1,None,1,,[0.4814231999916956],,,,,,,,,,,,,wquuex,001,fr,0,0,2022-05-06_17h51.35.568,Cluster,2022.1.1,35.554076509427134,
,,,,2,0,2,0,18,0,18,0,,,time,,,,,,,,,,,,,,,,,,,,,,,,,,,,,,,,,,,,,,,,,,,,,,,,,,,,,,,,,,,,,,,,,,,,,,,,,,,,,,,,,,,,,,,,,,,,,,,,,,,,,,,,,,,,,,,,,,,475.9790137000382,None,3029.5471392754303,19.15223632413791,0.0005226198829136395,1,"[0.670357224467752, 0.670357224467752, 0.670357224467752, 0.670357224467752]","[5454.417268561167, 1826.250574593346, 816.083698745091, 5428.286173439463]",None,"[32.0, 30.316041856632342, 24.805826966679735, 32.0]",False,476.9805461000651,480.01500810007565,480.01500810007565,481.252874400001,['space'],1,3.715592519729398,4.716640019672923,None,1,None,1,,[0.5068675000220537],,,,,,,,,,,,,wquuex,001,fr,0,0,2022-05-06_17h51.35.568,Cluster,2022.1.1,35.554076509427134,
,,,,2,0,2,0,19,0,19,0,,,time,,,,,,,,,,,,,,,,,,,,,,,,,,,,,,,,,,,,,,,,,,,,,,,,,,,,,,,,,,,,,,,,,,,,,,,,,,,,,,,,,,,,,,,,,,,,,,,,,,,,,,,,,,,,,,,,,,,481.7468392000301,None,1624.5047927124701,17.0,0.0004095962509705184,0,"[0.6213277651114438, 0.6213277651114438, 0.6213277651114438, 0.6213277651114438]","[258.8615318525622, 1064.345930605405, 588.9743806830007, 894.1597721179869]",None,"[19.0, 28.577008912089823, 20.36950650046022, 25.999999999999996]",False,483.59952669998165,486.50829540006816,486.50829540006816,487.717556699994,None,0,3.5253982194699347,4.540939919534139,None,1,None,1,,,,,,,,,,,,,,,wquuex,001,fr,0,0,2022-05-06_17h51.35.568,Cluster,2022.1.1,35.554076509427134,
,,,,3,0,3,0,0,0,0,0,,,both,,,,,,,,,,,,,,,,,,,,,,,,,,,,,,,,,,,,,,,,,,,,,,,,,,,,,,,,,,,,,,,,,,,,,,,,,,,,,,,,,,,,,,,,,,,,,,,,,,,,,,,,,,,,,,,,,,,490.5623433999717,None,357.72861846887895,17.0,0.000619653642973783,1,"[0.6755652154931018, 0.6755652154931018, 0.6755652154931018, 0.6755652154931018]","[141.9646963191573, 178.8643092344395, 225.35490827937628, 283.9293926383146]",Major_3rd,"[15.115265097683078, 13.147815514579257, 16.0, 21.0]",False,491.53436910000164,494.5923892999999,494.5923892999999,495.79764100001194,['space'],1,3.7225909198168665,4.754795519867912,None,1,None,1,,[0.3448452999582514],,,,,,,,,,,,,wquuex,001,fr,0,0,2022-05-06_17h51.35.568,Cluster,2022.1.1,35.554076509427134,
,,,,3,0,3,0,1,0,1,0,,,both,,,,,,,,,,,,,,,,,,,,,,,,,,,,,,,,,,,,,,,,,,,,,,,,,,,,,,,,,,,,,,,,,,,,,,,,,,,,,,,,,,,,,,,,,,,,,,,,,,,,,,,,,,,,,,,,,,,496.34534520003945,None,203.0630990890589,16.0,0.0016369622261606788,1,"[0.4406863190240619, 0.4406863190240619, 0.4406863190240619, 0.4406863190240619]","[127.92173649959686, 143.58729437462938, 161.1712885549474, 180.90865468004728]",Tone,"[18.0, 15.115265097683078, 13.332629287798131, 13.147815514579257]",False,498.0612672000425,500.42481039999984,500.42481039999984,501.64525810000487,['space'],1,2.785504669533111,3.813277469482273,None,1,None,1,,[0.30215259990654886],,,,,,,,,,,,,wquuex,001,fr,0,0,2022-05-06_17h51.35.568,Cluster,2022.1.1,35.554076509427134,
,,,,3,0,3,0,2,0,2,0,,,frequency,,,,,,,,,,,,,,,,,,,,,,,,,,,,,,,,,,,,,,,,,,,,,,,,,,,,,,,,,,,,,,,,,,,,,,,,,,,,,,,,,,,,,,,,,,,,,,,,,,,,,,,,,,,,,,,,,,,501.92530140001327,None,,,,,"[0.40688112637137835, 0.7770627461273616, 0.4962416986768076, 0.6131029704039213]","[2634.236554582606, 1758.1419691842098, 1173.4189848780338, 783.1632133274721]",Perfect_5th,"[26.734255736377243, 30.574079018182736, 29.214969841516492, 24.0]",True,502.9165461000521,505.63595849997364,505.63595849997364,506.85024160007015,None,1,3.325931719620712,4.323050819686614,None,1,None,1,,,0,,,,,,,,,,,,wquuex,001,fr,0,0,2022-05-06_17h51.35.568,Cluster,2022.1.1,35.554076509427134,
,,,,3,0,3,0,3,0,3,0,,,none,,,,,,,,,,,,,,,,,,,,,,,,,,,,,,,,,,,,,,,,,,,,,,,,,,,,,,,,,,,,,,,,,,,,,,,,,,,,,,,,,,,,,,,,,,,,,,,,,,,,,,,,,,,,,,,,,,,507.2827774999896,None,757.8582832551998,21.0,0.00045199635245948133,1,"[0.797716871058124, 0.7103217537411831, 0.42827747004590244, 0.4037788639488871]","[229.96378347075964, 900.3337022644112, 351.6110308842218, 6704.070730822111]",None,"[16.854798477107213, 25.999999999999996, 23.0, 36.0]",False,508.2878013000591,511.24128680001013,511.24128680001013,512.4565849000355,['space'],1,3.3690960097592324,4.391349609824829,None,1,None,1,,[0.40973650000523776],,,,,,,,,,,,,wquuex,001,fr,0,0,2022-05-06_17h51.35.568,Cluster,2022.1.1,35.554076509427134,
,,,,3,0,3,0,4,0,4,0,,,both,,,,,,,,,,,,,,,,,,,,,,,,,,,,,,,,,,,,,,,,,,,,,,,,,,,,,,,,,,,,,,,,,,,,,,,,,,,,,,,,,,,,,,,,,,,,,,,,,,,,,,,,,,,,,,,,,,,512.7139677000232,None,466.6225434918639,15.13290432609035,0.00041769627356019485,1,"[0.6666458034204503, 0.6666458034204503, 0.6666458034204503, 0.6666458034204503]","[1175.8151298017708, 933.2450869837279, 740.7171164110617, 587.9075649008853]",Major_3rd,"[29.214969841516492, 26.93262277190714, 23.0, 20.36950650046022]",False,513.7399396999972,516.7642634999938,516.7642634999938,517.9771593000041,['space'],1,3.681304619880393,4.700096019776538,None,1,None,1,,[0.34048180002719164],,,,,,,,,,,,,wquuex,001,fr,0,0,2022-05-06_17h51.35.568,Cluster,2022.1.1,35.554076509427134,
,,,,3,0,3,0,5,0,5,0,,,time,,,,,,,,,,,,,,,,,,,,,,,,,,,,,,,,,,,,,,,,,,,,,,,,,,,,,,,,,,,,,,,,,,,,,,,,,,,,,,,,,,,,,,,,,,,,,,,,,,,,,,,,,,,,,,,,,,,518.4971557999961,None,913.2845753730282,20.93262277190714,0.00046301750593301106,0,"[0.7332781125445198, 0.7332781125445198, 0.7332781125445198, 0.7332781125445198]","[305.2677216019455, 170.61819262432195, 7360.373526763236, 305.4919441132259]",None,"[22.0, 13.332629287798131, 36.806267975261164, 22.0]",False,519.5148131999886,522.7368956999853,522.7368956999853,523.9694434000412,None,0,3.955544419819489,4.982517219847068,None,1,None,1,,,,,,,,,,,,,,,wquuex,001,fr,0,0,2022-05-06_17h51.35.568,Cluster,2022.1.1,35.554076509427134,
,,,,3,0,3,0,6,0,6,0,,,time,,,,,,,,,,,,,,,,,,,,,,,,,,,,,,,,,,,,,,,,,,,,,,,,,,,,,,,,,,,,,,,,,,,,,,,,,,,,,,,,,,,,,,,,,,,,,,,,,,,,,,,,,,,,,,,,,,,524.553021300002,None,,,,,"[0.48141590540021206, 0.48141590540021206, 0.48141590540021206, 0.48141590540021206]","[1703.941266353253, 2607.308658801699, 5729.67693729766, 1869.0427311098604]",None,"[30.574079018182736, 27.0, 33.07990894285818, 30.316041856632342]",True,525.5554158000741,528.0428809999721,528.0428809999721,529.2754290000303,None,1,2.9475552197545767,3.9619962197029963,None,1,None,1,,,0,,,,,,,,,,,,wquuex,001,fr,0,0,2022-05-06_17h51.35.568,Cluster,2022.1.1,35.554076509427134,
,,,,3,0,3,0,7,0,7,0,,,none,,,,,,,,,,,,,,,,,,,,,,,,,,,,,,,,,,,,,,,,,,,,,,,,,,,,,,,,,,,,,,,,,,,,,,,,,,,,,,,,,,,,,,,,,,,,,,,,,,,,,,,,,,,,,,,,,,,529.5628075000132,None,400.55411290463644,16.424382756355705,0.0005070239684433917,0,"[0.6931613018037015, 0.6581517706743092, 0.6675858083047406, 0.6086445414330202]","[150.91751080979122, 1528.6749901998646, 2971.7729343508463, 168.20721262950485]",None,"[14.012707831730403, 30.626755575124612, 25.15223632413791, 13.332629287798131]",False,530.561166599975,533.592821600032,533.592821600032,534.8151423999807,None,0,3.650402419734746,4.674930819659494,None,1,None,1,,,,,,,,,,,,,,,wquuex,001,fr,0,0,2022-05-06_17h51.35.568,Cluster,2022.1.1,35.554076509427134,
,,,,3,0,3,0,8,0,8,0,,,both,,,,,,,,,,,,,,,,,,,,,,,,,,,,,,,,,,,,,,,,,,,,,,,,,,,,,,,,,,,,,,,,,,,,,,,,,,,,,,,,,,,,,,,,,,,,,,,,,,,,,,,,,,,,,,,,,,,535.2882630000822,None,1414.213562373095,22.0,0.0006349055446025294,0,"[0.445523928441643, 0.445523928441643, 0.445523928441643, 0.445523928441643]","[3563.594872561358, 2828.4271247461907, 2244.9240966187463, 1781.7974362806788]",Major_3rd,"[24.602096383335358, 25.863803070070993, 29.0, 30.574079018182736]",False,536.2931976000546,538.6505969000282,538.6505969000282,539.8866230000276,None,0,2.814087809761986,3.8210938097909093,None,1,None,1,,,,,,,,,,,,,,,wquuex,001,fr,0,0,2022-05-06_17h51.35.568,Cluster,2022.1.1,35.554076509427134,
,,,,3,0,3,0,9,0,9,0,,,time,,,,,,,,,,,,,,,,,,,,,,,,,,,,,,,,,,,,,,,,,,,,,,,,,,,,,,,,,,,,,,,,,,,,,,,,,,,,,,,,,,,,,,,,,,,,,,,,,,,,,,,,,,,,,,,,,,,540.144982400001,None,329.87697769322364,14.0,0.0004749197086349175,0,"[0.5926553564423694, 0.5926553564423694, 0.5926553564423694, 0.5926553564423694]","[203.25787291374863, 4364.342145551904, 296.0431382254401, 210.11508749152065]",None,"[14.268407807522046, 26.999999999999996, 22.0, 15.0]",False,541.1503557000542,543.9557720000157,543.9557720000157,545.1732090000296,None,0,3.4018175097880885,4.416133009712212,None,1,None,1,,,,,,,,,,,,,,,wquuex,001,fr,0,0,2022-05-06_17h51.35.568,Cluster,2022.1.1,35.554076509427134,
,,,,3,0,3,0,10,0,10,0,,,none,,,,,,,,,,,,,,,,,,,,,,,,,,,,,,,,,,,,,,,,,,,,,,,,,,,,,,,,,,,,,,,,,,,,,,,,,,,,,,,,,,,,,,,,,,,,,,,,,,,,,,,,,,,,,,,,,,,545.6018332000822,None,1319.5079107728945,23.0,0.0007455877576898717,0,"[0.5321123904023042, 0.5015540807639034, 0.7278368017101366, 0.7274365684919862]","[297.7811514130174, 240.055124657666, 422.02138711006273, 891.7751502195329]",None,"[22.0, 17.0, 22.0, 25.999999999999996]",False,546.6345288000302,549.426778000081,549.426778000081,550.6676185000688,None,0,3.5282632098533213,4.540776009787805,None,1,None,1,,,,,,,,,,,,,,,wquuex,001,fr,0,0,2022-05-06_17h51.35.568,Cluster,2022.1.1,35.554076509427134,
,,,,3,0,3,0,11,0,11,0,,,none,,,,,,,,,,,,,,,,,,,,,,,,,,,,,,,,,,,,,,,,,,,,,,,,,,,,,,,,,,,,,,,,,,,,,,,,,,,,,,,,,,,,,,,,,,,,,,,,,,,,,,,,,,,,,,,,,,,551.2151238999795,None,7381.358077710664,30.806267975261164,0.005648483055589382,0,"[0.44720598635364195, 0.41531221730990403, 0.7351327792283437, 0.6853133563309701]","[298.3628807770942, 6652.268508720903, 3658.3298784524723, 5175.401985784217]",None,"[22.0, 36.0, 24.913705148798854, 31.0]",False,552.2254647000227,554.8407738000387,554.8407738000387,556.0767832000274,None,0,3.3071358198067173,4.3413058198057115,None,1,None,1,,,,,,,,,,,,,,,wquuex,001,fr,0,0,2022-05-06_17h51.35.568,Cluster,2022.1.1,35.554076509427134,
,,,,3,0,3,0,12,0,12,0,,,frequency,,,,,,,,,,,,,,,,,,,,,,,,,,,,,,,,,,,,,,,,,,,,,,,,,,,,,,,,,,,,,,,,,,,,,,,,,,,,,,,,,,,,,,,,,,,,,,,,,,,,,,,,,,,,,,,,,,,556.6265915000113,None,176.7766952966369,13.0,0.0015634862732566773,1,"[0.7250264904310513, 0.6965248038570757, 0.44298516839693236, 0.41114415552928585]","[890.8987181403394, 594.6035575013606, 396.8502629920499, 264.86577358982385]",Perfect_5th,"[25.999999999999996, 20.36950650046022, 22.424382756355705, 19.849273838440702]",False,557.6385561000789,560.5411817000713,560.5411817000713,561.7764988000272,['space'],1,3.311159909819253,4.345401209779084,None,1,None,1,,[0.42777700000442564],,,,,,,,,,,,,wquuex,001,fr,0,0,2022-05-06_17h51.35.568,Cluster,2022.1.1,35.554076509427134,
,,,,3,0,3,0,13,0,13,0,,,frequency,,,,,,,,,,,,,,,,,,,,,,,,,,,,,,,,,,,,,,,,,,,,,,,,,,,,,,,,,,,,,,,,,,,,,,,,,,,,,,,,,,,,,,,,,,,,,,,,,,,,,,,,,,,,,,,,,,,562.0222471000161,None,,,,,"[0.431132013759479, 0.6670115775129104, 0.4314900000046662, 0.526490310810012]","[722.4421379166481, 573.4027048575211, 455.11002844612005, 361.22106895832405]",Major_3rd,"[23.0, 20.36950650046022, 21.132904326090348, 23.0]",True,563.0174141000025,565.5634829000337,565.5634829000337,566.7805425999686,None,1,3.0931272199377418,4.123871919931844,None,1,None,1,,,0,,,,,,,,,,,,wquuex,001,fr,0,0,2022-05-06_17h51.35.568,Cluster,2022.1.1,35.554076509427134,
,,,,3,0,3,0,14,0,14,0,,,none,,,,,,,,,,,,,,,,,,,,,,,,,,,,,,,,,,,,,,,,,,,,,,,,,,,,,,,,,,,,,,,,,,,,,,,,,,,,,,,,,,,,,,,,,,,,,,,,,,,,,,,,,,,,,,,,,,,567.1905244999798,None,3031.4331330207992,21.0,0.0006485109083489231,0,"[0.7658902745482854, 0.6104466605668364, 0.770930331561061, 0.5302471947740225]","[1577.934145216959, 2631.721166516564, 2470.376359134392, 352.3560588124312]",None,"[30.673174063951816, 26.734255736377243, 27.652103384288885, 23.0]",False,568.2583442999749,571.4439676000038,571.4439676000038,572.6534935999662,None,0,3.7117210899014026,4.716123989899643,None,1,None,1,,,,,,,,,,,,,,,wquuex,001,fr,0,0,2022-05-06_17h51.35.568,Cluster,2022.1.1,35.554076509427134,
,,,,3,0,3,0,15,0,15,0,,,frequency,,,,,,,,,,,,,,,,,,,,,,,,,,,,,,,,,,,,,,,,,,,,,,,,,,,,,,,,,,,,,,,,,,,,,,,,,,,,,,,,,,,,,,,,,,,,,,,,,,,,,,,,,,,,,,,,,,,573.023253899999,None,5024.156259005171,24.000000000000004,0.0024067437042421904,0,"[0.7915475779298796, 0.4735529464774828, 0.5688317439755499, 0.5796804764465116]","[7975.350930797423, 7105.229920966785, 6330.040228681693, 5639.4247255093005]",Tone,"[36.74751142073656, 36.44079369897291, 35.0, 33.0]",False,574.040462300065,576.8938862000359,576.8938862000359,578.1257129000733,None,0,3.429993019788526,4.4362883197609335,None,1,None,1,,,,,,,,,,,,,,,wquuex,001,fr,0,0,2022-05-06_17h51.35.568,Cluster,2022.1.1,35.554076509427134,
,,,,3,0,3,0,16,0,16,0,,,frequency,,,,,,,,,,,,,,,,,,,,,,,,,,,,,,,,,,,,,,,,,,,,,,,,,,,,,,,,,,,,,,,,,,,,,,,,,,,,,,,,,,,,,,,,,,,,,,,,,,,,,,,,,,,,,,,,,,,578.5262920000823,None,406.12619817811805,14.0,0.0003821118841650657,1,"[0.5951521437339804, 0.5144968786865297, 0.49197316768713195, 0.48142504360135924]","[255.84347299919392, 287.174588749259, 322.34257710989505, 361.8173093600948]",Tone,"[19.0, 21.146209754046666, 22.77889493520776, 23.0]",False,580.9335972999688,583.5643798999954,583.5643798999954,584.7855107000796,['space'],1,3.103913429309614,4.107575729372911,None,1,None,1,,[0.869889699970372],,,,,,,,,,,,,wquuex,001,fr,0,0,2022-05-06_17h51.35.568,Cluster,2022.1.1,35.554076509427134,
,,,,3,0,3,0,17,0,17,0,,,both,,,,,,,,,,,,,,,,,,,,,,,,,,,,,,,,,,,,,,,,,,,,,,,,,,,,,,,,,,,,,,,,,,,,,,,,,,,,,,,,,,,,,,,,,,,,,,,,,,,,,,,,,,,,,,,,,,,585.0936779000331,None,223.3209473698174,10.0,0.000694917011313964,1,"[0.7255749938268882, 0.7255749938268882, 0.7255749938268882, 0.7255749938268882]","[140.683381236849, 157.91175626620193, 177.2499533906915, 198.95634574565648]",Tone,"[15.115265097683078, 14.0, 13.147815514579257, 14.0]",False,586.1114346999675,589.3240006000269,589.3240006000269,590.5396970000584,['space'],1,3.919425319880247,4.935470319818705,None,1,None,1,,[0.30731169995851815],,,,,,,,,,,,,wquuex,001,fr,0,0,2022-05-06_17h51.35.568,Cluster,2022.1.1,35.554076509427134,
,,,,3,0,3,0,18,0,18,0,,,time,,,,,,,,,,,,,,,,,,,,,,,,,,,,,,,,,,,,,,,,,,,,,,,,,,,,,,,,,,,,,,,,,,,,,,,,,,,,,,,,,,,,,,,,,,,,,,,,,,,,,,,,,,,,,,,,,,,591.0985940999817,None,,,,,"[0.7063259070427713, 0.7063259070427713, 0.7063259070427713, 0.7063259070427713]","[5604.255902214092, 247.52995868995671, 773.2750551597148, 1945.7799403751935]",None,"[33.0, 18.0, 24.0, 30.0]",True,592.0917973000323,595.247503300081,595.247503300081,596.4569980000379,None,1,3.849590019788593,4.860445519792847,None,1,None,1,,,0,,,,,,,,,,,,wquuex,001,fr,0,0,2022-05-06_17h51.35.568,Cluster,2022.1.1,35.554076509427134,
,,,,3,0,3,0,19,0,19,0,,,both,,,,,,,,,,,,,,,,,,,,,,,,,,,,,,,,,,,,,,,,,,,,,,,,,,,,,,,,,,,,,,,,,,,,,,,,,,,,,,,,,,,,,,,,,,,,,,,,,,,,,,,,,,,,,,,,,,,596.9975598000456,None,164.93848884661182,10.0,0.0012432034805456682,1,"[0.719208004891968, 0.719208004891968, 0.719208004891968, 0.719208004891968]","[831.2378961427879, 554.7847360339226, 370.27438807164117, 247.1285050882241]",Perfect_5th,"[25.0, 20.31287472400956, 22.869908733086287, 18.0]",False,598.016135700047,601.2157441000454,601.2157441000454,602.4519220000366,['space'],1,3.902425809763372,4.915666909771971,None,1,None,1,,[0.348270499962382],,,,,,,,,,,,,wquuex,001,fr,0,0,2022-05-06_17h51.35.568,Cluster,2022.1.1,35.554076509427134,
,,,,4,0,4,0,0,0,0,0,,,frequency,,,,,,,,,,,,,,,,,,,,,,,,,,,,,,,,,,,,,,,,,,,,,,,,,,,,,,,,,,,,,,,,,,,,,,,,,,,,,,,,,,,,,,,,,,,,,,,,,,,,,,,,,,,,,,,,,,,605.2412812999683,None,1655.3407497288385,24.673174063951816,0.0010147107815767018,1,"[0.6880397626073813, 0.4934766599332407, 0.6913734768115987, 0.4040477090544212]","[1042.7993276660625, 1170.5026693076854, 1313.8448237426933, 1474.7409520188905]",Tone,"[28.0, 29.214969841516492, 30.14951529507025, 30.626755575124612]",False,606.2376073000487,609.1504984999774,609.1504984999774,610.3621446000179,['space'],1,3.31972901977133,4.345339919789694,None,1,None,1,,[0.26808040007017553],,,,,,,,,,,,,wquuex,001,fr,0,0,2022-05-06_17h51.35.568,Cluster,2022.1.1,35.554076509427134,
,,,,4,0,4,0,1,0,1,0,,,time,,,,,,,,,,,,,,,,,,,,,,,,,,,,,,,,,,,,,,,,,,,,,,,,,,,,,,,,,,,,,,,,,,,,,,,,,,,,,,,,,,,,,,,,,,,,,,,,,,,,,,,,,,,,,,,,,,,610.6407034000149,None,297.67157668751105,16.0,0.000738087742326022,1,"[0.6111614580682624, 0.6111614580682624, 0.6111614580682624, 0.6111614580682624]","[342.6358535117899, 361.10292403234274, 1919.21326070402, 1198.210425569118]",None,"[23.0, 23.0, 30.0, 29.733553246263963]",False,611.6471411000239,614.4947941000573,614.4947941000573,615.730789000052,['space'],1,3.4761814197991043,4.496167519828305,None,1,None,1,,[0.2408985000802204],,,,,,,,,,,,,wquuex,001,fr,0,0,2022-05-06_17h51.35.568,Cluster,2022.1.1,35.554076509427134,
,,,,4,0,4,0,2,0,2,0,,,frequency,,,,,,,,,,,,,,,,,,,,,,,,,,,,,,,,,,,,,,,,,,,,,,,,,,,,,,,,,,,,,,,,,,,,,,,,,,,,,,,,,,,,,,,,,,,,,,,,,,,,,,,,,,,,,,,,,,,616.1990160000278,None,707.1067811865476,17.0,0.0003143487978586953,1,"[0.572686799639598, 0.46103517993586135, 0.6042116678160102, 0.49870652974288243]","[445.4493590701697, 500.00000000000006, 561.2310241546866, 629.9605249474366]",Tone,"[21.791290315692194, 20.592673545545708, 20.36950650046022, 21.0]",False,617.2357413000427,619.888404999976,619.888404999976,621.103746799985,['space'],1,3.1691254096804187,4.203508609673008,None,1,None,1,,[0.27714739996008575],,,,,,,,,,,,,wquuex,001,fr,0,0,2022-05-06_17h51.35.568,Cluster,2022.1.1,35.554076509427134,
,,,,4,0,4,0,3,0,3,0,,,none,,,,,,,,,,,,,,,,,,,,,,,,,,,,,,,,,,,,,,,,,,,,,,,,,,,,,,,,,,,,,,,,,,,,,,,,,,,,,,,,,,,,,,,,,,,,,,,,,,,,,,,,,,,,,,,,,,,621.4843853000784,None,,,,,"[0.5187900452145775, 0.586668135236209, 0.47975550835075736, 0.7247938167522079]","[1855.7615386129225, 3870.3009833414453, 1649.3344539777631, 472.52555811588707]",None,"[30.316041856632342, 25.0, 30.673174063951816, 21.0]",True,622.4802642000141,625.0868204999715,625.0868204999715,626.3110803000163,None,1,3.322543319896795,4.346006119856611,None,1,None,1,,,0,,,,,,,,,,,,wquuex,001,fr,0,0,2022-05-06_17h51.35.568,Cluster,2022.1.1,35.554076509427134,
,,,,4,0,4,0,4,0,4,0,,,frequency,,,,,,,,,,,,,,,,,,,,,,,,,,,,,,,,,,,,,,,,,,,,,,,,,,,,,,,,,,,,,,,,,,,,,,,,,,,,,,,,,,,,,,,,,,,,,,,,,,,,,,,,,,,,,,,,,,,626.8690825999947,None,939.7304117629363,21.000000000000004,0.0004750566747119736,0,"[0.43645631599715917, 0.4102952621246556, 0.7232325806857918, 0.4196831451586672]","[1491.7290441989944, 1328.9794932895977, 1183.9861270065003, 1054.811722846036]",Tone,"[30.626755575124612, 30.14951529507025, 29.214969841516492, 28.577008912089823]",False,627.8636261000065,630.4580396000529,630.4580396000529,631.6796792000532,None,0,3.012156819808297,4.022375319735147,None,1,None,1,,,,,,,,,,,,,,,wquuex,001,fr,0,0,2022-05-06_17h51.35.568,Cluster,2022.1.1,35.554076509427134,
,,,,4,0,4,0,5,0,5,0,,,both,,,,,,,,,,,,,,,,,,,,,,,,,,,,,,,,,,,,,,,,,,,,,,,,,,,,,,,,,,,,,,,,,,,,,,,,,,,,,,,,,,,,,,,,,,,,,,,,,,,,,,,,,,,,,,,,,,,631.9361746000359,None,753.8979175126566,17.64480579705644,0.0003085405350009163,1,"[0.5106463862431552, 0.5106463862431552, 0.5106463862431552, 0.5106463862431552]","[1899.7037114922098, 1507.7958350253134, 1196.738347336226, 949.8518557461048]",Major_3rd,"[30.316041856632342, 30.626755575124612, 29.733553246263963, 27.000000000000004]",False,632.9331931000343,635.4805844000075,635.4805844000075,636.7191519000335,['space'],1,3.0701230198610574,4.095006719813682,None,1,None,1,,[0.3368896000320092],,,,,,,,,,,,,wquuex,001,fr,0,0,2022-05-06_17h51.35.568,Cluster,2022.1.1,35.554076509427134,
,,,,4,0,4,0,6,0,6,0,,,time,,,,,,,,,,,,,,,,,,,,,,,,,,,,,,,,,,,,,,,,,,,,,,,,,,,,,,,,,,,,,,,,,,,,,,,,,,,,,,,,,,,,,,,,,,,,,,,,,,,,,,,,,,,,,,,,,,,637.0813693000237,None,125.0,15.0,0.004064152580820497,1,"[0.49572174862691076, 0.49572174862691076, 0.49572174862691076, 0.49572174862691076]","[248.67576944018091, 344.3245445367021, 134.52641747118125, 610.9961613427317]",None,"[18.377526291504818, 23.0, 16.517707918015578, 20.78547655111803]",False,638.0835285000503,640.6111903999699,640.6111903999699,641.8168585000094,['space'],1,3.0151934097521007,4.047977809794247,None,1,None,1,,[0.32620859995950013],,,,,,,,,,,,,wquuex,001,fr,0,0,2022-05-06_17h51.35.568,Cluster,2022.1.1,35.554076509427134,
,,,,4,0,4,0,7,0,7,0,,,both,,,,,,,,,,,,,,,,,,,,,,,,,,,,,,,,,,,,,,,,,,,,,,,,,,,,,,,,,,,,,,,,,,,,,,,,,,,,,,,,,,,,,,,,,,,,,,,,,,,,,,,,,,,,,,,,,,,642.1731006000191,None,2639.015821545789,16.0,0.0004874559173554693,0,"[0.41477959924463276, 0.41477959924463276, 0.41477959924463276, 0.41477959924463276]","[4189.176491282508, 3732.1319661472307, 3324.951584571152, 2962.1951045731294]",Tone,"[26.757894318066356, 24.913705148798854, 24.69830876856029, 25.15223632413791]",False,643.193858499988,645.4597393000731,645.4597393000731,646.6942611000268,None,0,2.7072252098005265,3.7195853097364306,None,1,None,1,,,,,,,,,,,,,,,wquuex,001,fr,0,0,2022-05-06_17h51.35.568,Cluster,2022.1.1,35.554076509427134,
,,,,4,0,4,0,8,0,8,0,,,time,,,,,,,,,,,,,,,,,,,,,,,,,,,,,,,,,,,,,,,,,,,,,,,,,,,,,,,,,,,,,,,,,,,,,,,,,,,,,,,,,,,,,,,,,,,,,,,,,,,,,,,,,,,,,,,,,,,646.9424602000508,None,928.1634570623957,20.93262277190714,0.0004677256929959911,0,"[0.5058448222804877, 0.5058448222804877, 0.5058448222804877, 0.5058448222804877]","[537.697632026934, 6962.106022958552, 908.8816806689791, 3539.3569612292044]",None,"[20.31287472400956, 36.44079369897291, 26.93262277190714, 24.602096383335358]",False,647.9509687999962,650.5029614000814,650.5029614000814,651.702664899989,None,0,3.043655119719915,4.056121919769794,None,1,None,1,,,,,,,,,,,,,,,wquuex,001,fr,0,0,2022-05-06_17h51.35.568,Cluster,2022.1.1,35.554076509427134,
,,,,4,0,4,0,9,0,9,0,,,time,,,,,,,,,,,,,,,,,,,,,,,,,,,,,,,,,,,,,,,,,,,,,,,,,,,,,,,,,,,,,,,,,,,,,,,,,,,,,,,,,,,,,,,,,,,,,,,,,,,,,,,,,,,,,,,,,,,652.0602363999933,None,,,,,"[0.7295937917283438, 0.7295937917283438, 0.7295937917283438, 0.7295937917283438]","[234.0363114818563, 1002.8557973404046, 3871.873974072908, 186.93348106162045]",None,"[17.0, 27.818442329398145, 25.0, 13.47209236688566]",True,653.0565082000103,656.2715958000626,656.2715958000626,657.49598040001,None,1,3.9552829196909443,4.967775519704446,None,1,None,1,,,0,,,,,,,,,,,,wquuex,001,fr,0,0,2022-05-06_17h51.35.568,Cluster,2022.1.1,35.554076509427134,
,,,,4,0,4,0,10,0,10,0,,,time,,,,,,,,,,,,,,,,,,,,,,,,,,,,,,,,,,,,,,,,,,,,,,,,,,,,,,,,,,,,,,,,,,,,,,,,,,,,,,,,,,,,,,,,,,,,,,,,,,,,,,,,,,,,,,,,,,,658.0635141000384,None,189.4645708137998,11.0,0.0010779657212192314,1,"[0.742256065167885, 0.742256065167885, 0.742256065167885, 0.742256065167885]","[5009.858020469943, 2235.5190543187437, 264.27874835795376, 3653.862033677287]",None,"[30.000000000000004, 29.0, 19.849273838440702, 24.913705148798854]",False,659.0724208999891,662.3370365999872,662.3370365999872,663.5478153000586,['space'],1,4.020323509699665,5.045255609788001,None,1,None,1,,[0.28485599998384714],,,,,,,,,,,,,wquuex,001,fr,0,0,2022-05-06_17h51.35.568,Cluster,2022.1.1,35.554076509427134,
,,,,4,0,4,0,11,0,11,0,,,both,,,,,,,,,,,,,,,,,,,,,,,,,,,,,,,,,,,,,,,,,,,,,,,,,,,,,,,,,,,,,,,,,,,,,,,,,,,,,,,,,,,,,,,,,,,,,,,,,,,,,,,,,,,,,,,,,,,664.1507529000519,None,592.4840643048574,14.369506500460218,0.00029818159035138443,1,"[0.45778811303637035, 0.45778811303637035, 0.45778811303637035, 0.45778811303637035]","[235.1274567379813, 296.24203215242875, 373.24157217247875, 470.2549134759625]",Major_3rd,"[17.0, 22.0, 22.869908733086287, 21.132904326090348]",False,665.1646539000794,667.5532969000051,667.5532969000051,668.7850466000382,['space'],1,2.8470047197770327,3.861797519843094,None,1,None,1,,[0.3586107000010088],,,,,,,,,,,,,wquuex,001,fr,0,0,2022-05-06_17h51.35.568,Cluster,2022.1.1,35.554076509427134,
,,,,4,0,4,0,12,0,12,0,,,frequency,,,,,,,,,,,,,,,,,,,,,,,,,,,,,,,,,,,,,,,,,,,,,,,,,,,,,,,,,,,,,,,,,,,,,,,,,,,,,,,,,,,,,,,,,,,,,,,,,,,,,,,,,,,,,,,,,,,669.0807007000549,None,125.0,14.0,0.0036221798003749518,1,"[0.49826222481484894, 0.4050142025678664, 0.7174702705714563, 0.5580972602188149]","[314.9802624737183, 250.00000000000003, 198.42513149602496, 157.49013123685916]",Major_3rd,"[22.148150643800342, 18.377526291504818, 14.0, 14.0]",False,670.1154005000135,672.7692546000471,672.7692546000471,673.9909473999869,['space'],1,3.219953409745358,4.251803309773095,None,1,None,1,,[0.20202799991238862],,,,,,,,,,,,,wquuex,001,fr,0,0,2022-05-06_17h51.35.568,Cluster,2022.1.1,35.554076509427134,
,,,,4,0,4,0,13,0,13,0,,,both,,,,,,,,,,,,,,,,,,,,,,,,,,,,,,,,,,,,,,,,,,,,,,,,,,,,,,,,,,,,,,,,,,,,,,,,,,,,,,,,,,,,,,,,,,,,,,,,,,,,,,,,,,,,,,,,,,,674.406181700062,None,,,,,"[0.5598210318902992, 0.5598210318902992, 0.5598210318902992, 0.5598210318902992]","[2624.892688467781, 2338.513531411895, 2083.3787074886955, 1856.0794199025556]",Tone,"[26.734255736377243, 28.52430684289407, 29.282955207381704, 30.316041856632342]",True,675.412540600053,678.1279316999717,678.1279316999717,679.362902599969,['space'],0,3.279378519859165,4.289254819857888,None,1,None,1,,[0.39831119996961206],0,,,,,,,,,,,,wquuex,001,fr,0,0,2022-05-06_17h51.35.568,Cluster,2022.1.1,35.554076509427134,
,,,,4,0,4,0,14,0,14,0,,,none,,,,,,,,,,,,,,,,,,,,,,,,,,,,,,,,,,,,,,,,,,,,,,,,,,,,,,,,,,,,,,,,,,,,,,,,,,,,,,,,,,,,,,,,,,,,,,,,,,,,,,,,,,,,,,,,,,,679.7504387000808,None,6658.375340628051,30.0,0.004454738118687069,0,"[0.6244598177738148, 0.6723990957803274, 0.7960081424296231, 0.6829828981585404]","[2375.956424525431, 1904.7574338233346, 4263.694463742772, 2959.654549807004]",None,"[28.0, 30.316041856632342, 26.757894318066356, 25.15223632413791]",False,680.7493952000514,683.8648798000067,683.8648798000067,685.0699936000165,None,0,3.8129353197291493,4.8352513196878135,None,1,None,1,,,,,,,,,,,,,,,wquuex,001,fr,0,0,2022-05-06_17h51.35.568,Cluster,2022.1.1,35.554076509427134,
,,,,4,0,4,0,15,0,15,0,,,both,,,,,,,,,,,,,,,,,,,,,,,,,,,,,,,,,,,,,,,,,,,,,,,,,,,,,,,,,,,,,,,,,,,,,,,,,,,,,,,,,,,,,,,,,,,,,,,,,,,,,,,,,,,,,,,,,,,685.6451120000565,None,4924.577653379667,20.0,0.001475565566339624,0,"[0.666311532933433, 0.666311532933433, 0.666311532933433, 0.666311532933433]","[1954.3199368684932, 2462.288826689834, 3102.289523667471, 3908.6398737369855]",Major_3rd,"[30.0, 27.652103384288885, 25.0, 25.64520523886877]",False,686.7424237000523,689.7751562000485,689.7751562000485,691.0064848000184,None,0,3.6903304897714406,4.721517289755866,None,1,None,1,,,,,,,,,,,,,,,wquuex,001,fr,0,0,2022-05-06_17h51.35.568,Cluster,2022.1.1,35.554076509427134,
,,,,4,0,4,0,16,0,16,0,,,frequency,,,,,,,,,,,,,,,,,,,,,,,,,,,,,,,,,,,,,,,,,,,,,,,,,,,,,,,,,,,,,,,,,,,,,,,,,,,,,,,,,,,,,,,,,,,,,,,,,,,,,,,,,,,,,,,,,,,691.5223168000812,None,1094.9411737633443,22.577008912089823,0.0006461075201039866,1,"[0.6625869553044873, 0.6913094394241521, 0.7064332116494726, 0.4996077552641018]","[5518.15773288415, 3682.9284317251636, 2458.0598253613452, 1640.558109413279]",Perfect_5th,"[32.0, 24.913705148798854, 27.652103384288885, 30.673174063951816]",False,692.5318644000217,695.629620200023,695.629620200023,696.8529899000423,['space'],1,3.572079219855368,4.606458219815977,None,1,None,1,,[0.25119330000597984],,,,,,,,,,,,,wquuex,001,fr,0,0,2022-05-06_17h51.35.568,Cluster,2022.1.1,35.554076509427134,
,,,,4,0,4,0,17,0,17,0,,,both,,,,,,,,,,,,,,,,,,,,,,,,,,,,,,,,,,,,,,,,,,,,,,,,,,,,,,,,,,,,,,,,,,,,,,,,,,,,,,,,,,,,,,,,,,,,,,,,,,,,,,,,,,,,,,,,,,,697.2008199000265,None,,,,,"[0.759767986937319, 0.759767986937319, 0.759767986937319, 0.759767986937319]","[359.68074199854584, 285.4787941105971, 226.5846690428874, 179.8403709992729]",Major_3rd,"[23.0, 21.0, 16.0, 13.147815514579257]",True,698.2022457000567,701.516074800049,701.516074800049,702.7350904999766,None,1,4.078864119714126,5.107980319764465,None,1,None,1,,,0,,,,,,,,,,,,wquuex,001,fr,0,0,2022-05-06_17h51.35.568,Cluster,2022.1.1,35.554076509427134,
,,,,4,0,4,0,18,0,18,0,,,time,,,,,,,,,,,,,,,,,,,,,,,,,,,,,,,,,,,,,,,,,,,,,,,,,,,,,,,,,,,,,,,,,,,,,,,,,,,,,,,,,,,,,,,,,,,,,,,,,,,,,,,,,,,,,,,,,,,703.3609920999734,None,149.46715839902288,8.012707831730403,0.0012700914088471249,1,"[0.522917113459235, 0.522917113459235, 0.522917113459235, 0.522917113459235]","[302.32393628073186, 1586.4476685305422, 1224.4485663701973, 2381.7668762629087]",None,"[22.0, 30.673174063951816, 29.733553246263963, 28.0]",False,704.3755337999901,706.9868435000535,706.9868435000535,708.1996185000753,['space'],1,3.1089969197055325,4.140614919713698,None,1,None,1,,[0.3731741999508813],,,,,,,,,,,,,wquuex,001,fr,0,0,2022-05-06_17h51.35.568,Cluster,2022.1.1,35.554076509427134,
,,,,4,0,4,0,19,0,19,0,,,time,,,,,,,,,,,,,,,,,,,,,,,,,,,,,,,,,,,,,,,,,,,,,,,,,,,,,,,,,,,,,,,,,,,,,,,,,,,,,,,,,,,,,,,,,,,,,,,,,,,,,,,,,,,,,,,,,,,708.5745148999849,None,2297.3967099940687,17.0,0.0005762980050050316,0,"[0.6060249731219043, 0.6060249731219043, 0.6060249731219043, 0.6060249731219043]","[373.4298124463726, 1897.0326170302865, 251.3788242088081, 210.8566896827482]",None,"[22.869908733086287, 30.316041856632342, 18.377526291504818, 15.0]",False,710.6153584000422,713.4674022999825,713.4674022999825,714.6955230999738,None,0,3.4598964494653046,4.498013849486597,None,1,None,1,,,,,,,,,,,,,,,wquuex,001,fr,0,0,2022-05-06_17h51.35.568,Cluster,2022.1.1,35.554076509427134,
,,,,5,0,5,0,0,0,0,0,,,time,,,,,,,,,,,,,,,,,,,,,,,,,,,,,,,,,,,,,,,,,,,,,,,,,,,,,,,,,,,,,,,,,,,,,,,,,,,,,,,,,,,,,,,,,,,,,,,,,,,,,,,,,,,,,,,,,,,717.8695320000406,None,1116.4829717547902,23.0,0.0006910782212217926,1,"[0.6565660646138454, 0.6565660646138454, 0.6565660646138454, 0.6565660646138454]","[1118.8857352557588, 767.6204279874033, 1929.4650483321798, 374.3211923205594]",None,"[29.0, 24.0, 30.0, 22.869908733086287]",False,718.8510300000198,721.84636830003,721.84636830003,723.0736393000698,['space'],1,3.645587219740264,4.649327119812369,None,1,None,1,,[0.3531438000500202],,,,,,,,,,,,,wquuex,001,fr,0,0,2022-05-06_17h51.35.568,Cluster,2022.1.1,35.554076509427134,
,,,,5,0,5,0,1,0,1,0,,,time,,,,,,,,,,,,,,,,,,,,,,,,,,,,,,,,,,,,,,,,,,,,,,,,,,,,,,,,,,,,,,,,,,,,,,,,,,,,,,,,,,,,,,,,,,,,,,,,,,,,,,,,,,,,,,,,,,,723.5575909999898,None,4594.793419988137,19.0,0.0011128646778678342,1,"[0.4319663250555525, 0.4319663250555525, 0.4319663250555525, 0.4319663250555525]","[2615.8352903973555, 2881.884833127339, 4893.746319835997, 1593.451005393903]",None,"[26.734255736377243, 25.863803070070993, 29.784130182279302, 30.673174063951816]",False,725.5994632000802,727.9319548000349,727.9319548000349,729.1437543000793,['space'],1,2.7477995494846255,3.758720849407837,None,1,None,1,,[0.4505936000496149],,,,,,,,,,,,,wquuex,001,fr,0,0,2022-05-06_17h51.35.568,Cluster,2022.1.1,35.554076509427134,
,,,,5,0,5,0,2,0,2,0,,,time,,,,,,,,,,,,,,,,,,,,,,,,,,,,,,,,,,,,,,,,,,,,,,,,,,,,,,,,,,,,,,,,,,,,,,,,,,,,,,,,,,,,,,,,,,,,,,,,,,,,,,,,,,,,,,,,,,,729.3963700999739,None,1940.6844864132133,24.0,0.0011432389815179207,1,"[0.4096760621487361, 0.4096760621487361, 0.4096760621487361, 0.4096760621487361]","[310.75822869559744, 1851.0732121340966, 629.5603641071078, 971.6139939160967]",None,"[22.148150643800342, 30.316041856632342, 21.0, 27.818442329398145]",False,730.3984195999801,732.658079600078,732.658079600078,733.8697645000648,['space'],1,2.678917719749734,3.706666219746694,None,1,None,1,,[0.3489263999508694],,,,,,,,,,,,,wquuex,001,fr,0,0,2022-05-06_17h51.35.568,Cluster,2022.1.1,35.554076509427134,
,,,,5,0,5,0,3,0,3,0,,,time,,,,,,,,,,,,,,,,,,,,,,,,,,,,,,,,,,,,,,,,,,,,,,,,,,,,,,,,,,,,,,,,,,,,,,,,,,,,,,,,,,,,,,,,,,,,,,,,,,,,,,,,,,,,,,,,,,,734.1596815000521,None,,,,,"[0.5158274619921176, 0.5158274619921176, 0.5158274619921176, 0.5158274619921176]","[143.92830487403177, 1659.4929481129157, 635.9293012950454, 248.1277383574432]",None,"[15.115265097683078, 30.673174063951816, 21.0, 18.377526291504818]",True,735.1673345000017,737.73736680008,737.73736680008,738.9478714000434,None,1,3.078818419831805,4.101483919774182,None,1,None,1,,,0,,,,,,,,,,,,wquuex,001,fr,0,0,2022-05-06_17h51.35.568,Cluster,2022.1.1,35.554076509427134,
,,,,5,0,5,0,4,0,4,0,,,time,,,,,,,,,,,,,,,,,,,,,,,,,,,,,,,,,,,,,,,,,,,,,,,,,,,,,,,,,,,,,,,,,,,,,,,,,,,,,,,,,,,,,,,,,,,,,,,,,,,,,,,,,,,,,,,,,,,739.3157939000521,None,435.2752816480623,15.0,0.0004203609419229965,1,"[0.6017726289037144, 0.6017726289037144, 0.6017726289037144, 0.6017726289037144]","[852.9939968410516, 197.82876529823477, 2064.5163134672175, 584.1920654772427]",None,"[25.92012787693378, 14.0, 29.881351237623132, 20.36950650046022]",False,740.329645800055,743.1698330000509,743.1698330000509,744.392116400064,['space'],1,3.435676809749566,4.464431109721772,None,1,None,1,,[0.10613289999309927],,,,,,,,,,,,,wquuex,001,fr,0,0,2022-05-06_17h51.35.568,Cluster,2022.1.1,35.554076509427134,
,,,,5,0,5,0,5,0,5,0,,,none,,,,,,,,,,,,,,,,,,,,,,,,,,,,,,,,,,,,,,,,,,,,,,,,,,,,,,,,,,,,,,,,,,,,,,,,,,,,,,,,,,,,,,,,,,,,,,,,,,,,,,,,,,,,,,,,,,,744.8363951999927,None,2143.5469250725882,23.0,0.0011016920845743376,1,"[0.43692287233180244, 0.44315648042884553, 0.4056624633490936, 0.4272948341546936]","[2959.6309283433884, 2784.667237645451, 228.26338180499397, 6617.435614602579]",None,"[25.15223632413791, 26.0, 16.0, 36.0]",False,745.8435608000727,748.1615074999863,748.1615074999863,749.3743306000251,['space'],1,2.749950609751977,3.7542967097833753,None,1,None,1,,[0.39850120001938194],,,,,,,,,,,,,wquuex,001,fr,0,0,2022-05-06_17h51.35.568,Cluster,2022.1.1,35.554076509427134,
,,,,5,0,5,0,6,0,6,0,,,none,,,,,,,,,,,,,,,,,,,,,,,,,,,,,,,,,,,,,,,,,,,,,,,,,,,,,,,,,,,,,,,,,,,,,,,,,,,,,,,,,,,,,,,,,,,,,,,,,,,,,,,,,,,,,,,,,,,749.6316052000038,None,5806.474445945551,28.0,0.003089777137118395,0,"[0.6416701179821965, 0.5801310598910486, 0.5945884313951147, 0.72380260712322]","[5345.726017995252, 775.5682397635273, 1090.8940123396276, 897.9387308548285]",None,"[32.0, 24.0, 28.577008912089823, 25.999999999999996]",False,750.6232339000562,753.4704899999779,753.4704899999779,754.6868257999886,None,0,3.5717828199267387,4.606536719831638,None,1,None,1,,,,,,,,,,,,,,,wquuex,001,fr,0,0,2022-05-06_17h51.35.568,Cluster,2022.1.1,35.554076509427134,
,,,,5,0,5,0,7,0,7,0,,,time,,,,,,,,,,,,,,,,,,,,,,,,,,,,,,,,,,,,,,,,,,,,,,,,,,,,,,,,,,,,,,,,,,,,,,,,,,,,,,,,,,,,,,,,,,,,,,,,,,,,,,,,,,,,,,,,,,,755.2916179000167,None,606.7843270422121,14.785476551118029,0.00030057013362124157,1,"[0.6050516517997814, 0.6050516517997814, 0.6050516517997814, 0.6050516517997814]","[5456.368641973269, 2734.3849696389075, 6892.9139805879695, 551.3745870945838]",None,"[32.0, 26.0, 36.44079369897291, 20.31287472400956]",False,756.2980370000005,759.1461185000371,759.1461185000371,760.3479796000756,['space'],1,3.4439772197511047,4.466716219787486,None,1,None,1,,[0.3559489999897778],,,,,,,,,,,,,wquuex,001,fr,0,0,2022-05-06_17h51.35.568,Cluster,2022.1.1,35.554076509427134,
,,,,5,0,5,0,8,0,8,0,,,time,,,,,,,,,,,,,,,,,,,,,,,,,,,,,,,,,,,,,,,,,,,,,,,,,,,,,,,,,,,,,,,,,,,,,,,,,,,,,,,,,,,,,,,,,,,,,,,,,,,,,,,,,,,,,,,,,,,760.8218942000531,None,203.0630990890589,8.0,0.0006516864001597818,1,"[0.49465588836412333, 0.49465588836412333, 0.49465588836412333, 0.49465588836412333]","[146.59250299951185, 1531.9376455602676, 256.2937092493135, 364.43956344453875]",None,"[15.0, 30.626755575124612, 19.0, 23.0]",False,762.976477600052,765.4912150000455,765.4912150000455,766.6944490000606,['space'],1,3.00301430944819,4.015530609409325,None,1,None,1,,[0.3643904000055045],,,,,,,,,,,,,wquuex,001,fr,0,0,2022-05-06_17h51.35.568,Cluster,2022.1.1,35.554076509427134,
,,,,5,0,5,0,9,0,9,0,,,frequency,,,,,,,,,,,,,,,,,,,,,,,,,,,,,,,,,,,,,,,,,,,,,,,,,,,,,,,,,,,,,,,,,,,,,,,,,,,,,,,,,,,,,,,,,,,,,,,,,,,,,,,,,,,,,,,,,,,767.0380242000101,None,,,,,"[0.5858994945926818, 0.7997654409022126, 0.6228338349323678, 0.5238281573049359]","[454.9192453227456, 361.0696442929529, 286.5811665922085, 227.45962266137278]",Major_3rd,"[21.132904326090348, 23.0, 21.146209754046666, 16.0]",True,768.0326549999882,771.0710427999729,771.0710427999729,772.2689792000456,None,1,3.554910019855015,4.571776619879529,None,1,None,1,,,0,,,,,,,,,,,,wquuex,001,fr,0,0,2022-05-06_17h51.35.568,Cluster,2022.1.1,35.554076509427134,
,,,,5,0,5,0,10,0,10,0,,,none,,,,,,,,,,,,,,,,,,,,,,,,,,,,,,,,,,,,,,,,,,,,,,,,,,,,,,,,,,,,,,,,,,,,,,,,,,,,,,,,,,,,,,,,,,,,,,,,,,,,,,,,,,,,,,,,,,,772.6538812000072,None,1071.7734625362941,28.0,0.0011819561324015676,1,"[0.7109803424812485, 0.44428253189562134, 0.5447249648788809, 0.5533289529946481]","[710.8918842636588, 2692.4358222623487, 4778.150847225484, 540.518982301827]",None,"[22.51952926543764, 26.734255736377243, 29.0, 20.31287472400956]",False,773.663820900023,776.3970374000492,776.3970374000492,777.6077432000311,['space'],1,3.2906540097901598,4.310507809743285,None,1,None,1,,[0.35665359999984503],,,,,,,,,,,,,wquuex,001,fr,0,0,2022-05-06_17h51.35.568,Cluster,2022.1.1,35.554076509427134,
,,,,5,0,5,0,11,0,11,0,,,both,,,,,,,,,,,,,,,,,,,,,,,,,,,,,,,,,,,,,,,,,,,,,,,,,,,,,,,,,,,,,,,,,,,,,,,,,,,,,,,,,,,,,,,,,,,,,,,,,,,,,,,,,,,,,,,,,,,778.0136789999669,None,4699.076834166773,23.0,0.0018651255919973015,1,"[0.7793757812039437, 0.7793757812039437, 0.7793757812039437, 0.7793757812039437]","[7459.319509835733, 6645.498189511878, 5920.465818440078, 5274.53540844196]",Tone,"[36.806267975261164, 36.0, 34.0, 31.4639510954109]",False,779.0158925000578,782.3816369000124,782.3816369000124,783.622665700037,['space'],1,4.137495019822381,5.156427319860086,None,1,None,1,,[0.5769348000176251],,,,,,,,,,,,,wquuex,001,fr,0,0,2022-05-06_17h51.35.568,Cluster,2022.1.1,35.554076509427134,
,,,,5,0,5,0,12,0,12,0,,,none,,,,,,,,,,,,,,,,,,,,,,,,,,,,,,,,,,,,,,,,,,,,,,,,,,,,,,,,,,,,,,,,,,,,,,,,,,,,,,,,,,,,,,,,,,,,,,,,,,,,,,,,,,,,,,,,,,,784.238676100038,None,840.0725929273443,19.0,0.000352106610885705,0,"[0.5670438184069281, 0.4981331294031115, 0.7628419714840232, 0.6081083650530179]","[225.1804071349917, 280.42039318658624, 1457.053035697755, 1923.912232230402]",None,"[16.0, 21.0, 30.448808367018295, 30.0]",False,785.2391343000345,788.0981600000523,788.0981600000523,789.2986654000124,None,0,3.4715994198340923,4.498271619901061,None,1,None,1,,,,,,,,,,,,,,,wquuex,001,fr,0,0,2022-05-06_17h51.35.568,Cluster,2022.1.1,35.554076509427134,
,,,,5,0,5,0,13,0,13,0,,,both,,,,,,,,,,,,,,,,,,,,,,,,,,,,,,,,,,,,,,,,,,,,,,,,,,,,,,,,,,,,,,,,,,,,,,,,,,,,,,,,,,,,,,,,,,,,,,,,,,,,,,,,,,,,,,,,,,,789.795831299969,None,125.0,13.0,0.003228271145173279,1,"[0.7925599061452757, 0.7925599061452757, 0.7925599061452757, 0.7925599061452757]","[629.9605249474366, 420.4482076268573, 280.6155120773433, 187.2883846095852]",Perfect_5th,"[21.0, 22.0, 21.0, 13.47209236688566]",False,790.8026598000433,794.2284112999914,794.2284112999914,795.4535858000163,['space'],1,4.210025109816343,5.221255509764887,None,1,None,1,,[0.34907039999961853],,,,,,,,,,,,,wquuex,001,fr,0,0,2022-05-06_17h51.35.568,Cluster,2022.1.1,35.554076509427134,
,,,,5,0,5,0,14,0,14,0,,,both,,,,,,,,,,,,,,,,,,,,,,,,,,,,,,,,,,,,,,,,,,,,,,,,,,,,,,,,,,,,,,,,,,,,,,,,,,,,,,,,,,,,,,,,,,,,,,,,,,,,,,,,,,,,,,,,,,,796.0591445000609,None,,,,,"[0.6176754399946147, 0.6176754399946147, 0.6176754399946147, 0.6176754399946147]","[1905.511649889142, 1271.776446428662, 848.8089431438598, 566.5120029421854]",Perfect_5th,"[30.316041856632342, 30.0, 25.92012787693378, 20.36950650046022]",True,797.068515400053,799.9462699000724,799.9462699000724,801.164804100059,None,1,3.4831145198550075,4.487501519848593,None,1,None,1,,,0,,,,,,,,,,,,wquuex,001,fr,0,0,2022-05-06_17h51.35.568,Cluster,2022.1.1,35.554076509427134,
,,,,5,0,5,0,15,0,15,0,,,none,,,,,,,,,,,,,,,,,,,,,,,,,,,,,,,,,,,,,,,,,,,,,,,,,,,,,,,,,,,,,,,,,,,,,,,,,,,,,,,,,,,,,,,,,,,,,,,,,,,,,,,,,,,,,,,,,,,801.603162500076,None,125.0,13.0,0.003228271145173279,1,"[0.7403218232394764, 0.7687853486446422, 0.6508582036560813, 0.46903634888924123]","[5378.49641406899, 604.2590773682446, 796.6756973459939, 2504.2965604355572]",None,"[32.0, 20.78547655111803, 24.805826966679735, 27.652103384288885]",False,802.6393412000034,805.8233880000189,805.8233880000189,807.0514221000485,['space'],1,3.666067309677601,4.684917509672232,None,1,None,1,,[0.37387419992592186],,,,,,,,,,,,,wquuex,001,fr,0,0,2022-05-06_17h51.35.568,Cluster,2022.1.1,35.554076509427134,
,,,,5,0,5,0,16,0,16,0,,,none,,,,,,,,,,,,,,,,,,,,,,,,,,,,,,,,,,,,,,,,,,,,,,,,,,,,,,,,,,,,,,,,,,,,,,,,,,,,,,,,,,,,,,,,,,,,,,,,,,,,,,,,,,,,,,,,,,,807.3645523000741,None,2547.8100933304772,21.0,0.000930426575353101,1,"[0.4961468792409689, 0.4918561068408666, 0.7050140363967612, 0.7126193842499888]","[3885.341199471108, 631.1761913465256, 209.3294629414456, 265.7348449799069]",None,"[25.64520523886877, 21.0, 15.0, 19.849273838440702]",False,808.3629812999861,811.0889422000619,811.0889422000619,812.3234725000802,['space'],1,3.4197414198424667,4.441571019822732,None,1,None,1,,[0.3954842999810353],,,,,,,,,,,,,wquuex,001,fr,0,0,2022-05-06_17h51.35.568,Cluster,2022.1.1,35.554076509427134,
,,,,5,0,5,0,17,0,17,0,,,none,,,,,,,,,,,,,,,,,,,,,,,,,,,,,,,,,,,,,,,,,,,,,,,,,,,,,,,,,,,,,,,,,,,,,,,,,,,,,,,,,,,,,,,,,,,,,,,,,,,,,,,,,,,,,,,,,,,812.861722700065,None,176.7766952966369,5.0,0.0006224350964454478,1,"[0.6632199806137402, 0.5695115429611395, 0.6259582786708315, 0.47274795831983235]","[758.0188507448966, 1148.8804327395228, 1019.018801165068, 515.7485173306576]",None,"[23.64480579705644, 29.214969841516492, 28.0, 20.592673545545708]",False,815.5334222000092,818.4159680000739,818.4159680000739,819.6355882000644,['space'],1,3.3724349294789135,4.391596729401499,None,1,None,1,,[0.6000307999784127],,,,,,,,,,,,,wquuex,001,fr,0,0,2022-05-06_17h51.35.568,Cluster,2022.1.1,35.554076509427134,
,,,,5,0,5,0,18,0,18,0,,,frequency,,,,,,,,,,,,,,,,,,,,,,,,,,,,,,,,,,,,,,,,,,,,,,,,,,,,,,,,,,,,,,,,,,,,,,,,,,,,,,,,,,,,,,,,,,,,,,,,,,,,,,,,,,,,,,,,,,,819.9580955000129,None,,,,,"[0.450521833390868, 0.5686876191050948, 0.5452444126602599, 0.6430338216430345]","[3642.829145138618, 4088.9374638933755, 4589.677121130691, 5151.738382463022]",Tone,"[24.913705148798854, 26.0, 28.17773269207325, 31.0]",True,820.9536961000413,823.5595233000349,823.5595233000349,824.7660600000527,None,1,3.246060319710523,4.24579061975237,None,1,None,1,,,0,,,,,,,,,,,,wquuex,001,fr,0,0,2022-05-06_17h51.35.568,Cluster,2022.1.1,35.554076509427134,
,,,,5,0,5,0,19,0,19,0,,,time,,,,,,,,,,,,,,,,,,,,,,,,,,,,,,,,,,,,,,,,,,,,,,,,,,,,,,,,,,,,,,,,,,,,,,,,,,,,,,,,,,,,,,,,,,,,,,,,,,,,,,,,,,,,,,,,,,,825.2534289000323,None,7375.31604822813,30.806267975261164,0.00564212804464604,0,"[0.49497251998435526, 0.49497251998435526, 0.49497251998435526, 0.49497251998435526]","[421.1251268991485, 867.6888076314603, 1244.3406450460475, 747.955310110976]",None,"[22.0, 25.92012787693378, 29.733553246263963, 23.64480579705644]",False,826.2558079999872,828.7732761000516,828.7732761000516,829.9879621000728,None,0,3.014321319758892,4.023379019694403,None,1,None,1,,,,,,,,,,,,,,,wquuex,001,fr,0,0,2022-05-06_17h51.35.568,Cluster,2022.1.1,35.554076509427134,
,,,,6,0,6,0,0,0,0,0,,,frequency,,,,,,,,,,,,,,,,,,,,,,,,,,,,,,,,,,,,,,,,,,,,,,,,,,,,,,,,,,,,,,,,,,,,,,,,,,,,,,,,,,,,,,,,,,,,,,,,,,,,,,,,,,,,,,,,,,,832.5035007999977,None,176.7766952966369,9.0,0.0009864931471052672,1,"[0.770022952775696, 0.5133847684615092, 0.5150775861181678, 0.621535944206456]","[445.44935907016975, 353.55339059327383, 280.6155120773433, 222.72467953508485]",Major_3rd,"[21.791290315692194, 23.015482687218544, 21.0, 16.0]",False,833.5081427000696,836.3341526000295,836.3341526000295,837.5501969000325,['space'],1,3.4498996098991483,4.453859809902497,None,1,None,1,,[0.3892731999512762],,,,,,,,,,,,,wquuex,001,fr,0,0,2022-05-06_17h51.35.568,Cluster,2022.1.1,35.554076509427134,
,,,,6,0,6,0,1,0,1,0,,,frequency,,,,,,,,,,,,,,,,,,,,,,,,,,,,,,,,,,,,,,,,,,,,,,,,,,,,,,,,,,,,,,,,,,,,,,,,,,,,,,,,,,,,,,,,,,,,,,,,,,,,,,,,,,,,,,,,,,,837.9993933000369,None,7491.209371475593,30.806267975261164,0.005764024725161582,0,"[0.7913200382096668, 0.42552110825097045, 0.5389699590387125, 0.5677528239116051]","[4719.16618814592, 5297.084945858605, 5945.776818397195, 6673.908826368503]",Tone,"[29.0, 31.4639510954109, 34.0, 36.0]",False,838.9893945000367,841.7817357999738,841.7817357999738,842.9884704999859,None,0,3.3596418197266757,4.38397271966096,None,1,None,1,,,,,,,,,,,,,,,wquuex,001,fr,0,0,2022-05-06_17h51.35.568,Cluster,2022.1.1,35.554076509427134,
,,,,6,0,6,0,2,0,2,0,,,frequency,,,,,,,,,,,,,,,,,,,,,,,,,,,,,,,,,,,,,,,,,,,,,,,,,,,,,,,,,,,,,,,,,,,,,,,,,,,,,,,,,,,,,,,,,,,,,,,,,,,,,,,,,,,,,,,,,,,843.426046699984,None,3482.202253184498,24.0,0.0011863040584824262,1,"[0.7904494357555469, 0.517199591622769, 0.4977631594544545, 0.5259825935442098]","[5527.651519871108, 4924.577653379668, 4387.299918778506, 3908.639873736986]",Tone,"[33.0, 29.784130182279302, 26.999999999999996, 25.64520523886877]",False,845.4223196000094,848.2591918000253,848.2591918000253,849.4838236999931,['space'],1,3.377622869447805,4.392164969351143,None,1,None,1,,[0.38240769994445145],,,,,,,,,,,,,wquuex,001,fr,0,0,2022-05-06_17h51.35.568,Cluster,2022.1.1,35.554076509427134,
,,,,6,0,6,0,3,0,3,0,,,both,,,,,,,,,,,,,,,,,,,,,,,,,,,,,,,,,,,,,,,,,,,,,,,,,,,,,,,,,,,,,,,,,,,,,,,,,,,,,,,,,,,,,,,,,,,,,,,,,,,,,,,,,,,,,,,,,,,849.8514842999866,None,,,,,"[0.6918553947908155, 0.6918553947908155, 0.6918553947908155, 0.6918553947908155]","[326.48381474292256, 411.34383064458626, 518.260750973506, 652.967629485845]",Major_3rd,"[22.77889493520776, 22.424382756355705, 20.31287472400956, 21.531603556130058]",True,850.846705300035,853.957425700035,853.957425700035,855.1818045000546,None,1,3.795038219774142,4.8066630196990445,None,1,None,1,,,0,,,,,,,,,,,,wquuex,001,fr,0,0,2022-05-06_17h51.35.568,Cluster,2022.1.1,35.554076509427134,
,,,,6,0,6,0,4,0,4,0,,,none,,,,,,,,,,,,,,,,,,,,,,,,,,,,,,,,,,,,,,,,,,,,,,,,,,,,,,,,,,,,,,,,,,,,,,,,,,,,,,,,,,,,,,,,,,,,,,,,,,,,,,,,,,,,,,,,,,,855.6988389000762,None,571.1998073286028,14.369506500460218,0.0003155459771644488,0,"[0.6767514780870174, 0.7315533289992571, 0.4846874487917562, 0.729260225411274]","[996.8961005675006, 1634.154866422761, 267.9698731395675, 1490.8752104459]",None,"[27.818442329398145, 30.673174063951816, 19.849273838440702, 30.626755575124612]",False,856.720541800023,859.6505332000088,859.6505332000088,860.8735667000292,None,0,3.6442439197562635,4.6764315196778625,None,1,None,1,,,,,,,,,,,,,,,wquuex,001,fr,0,0,2022-05-06_17h51.35.568,Cluster,2022.1.1,35.554076509427134,
,,,,6,0,6,0,5,0,5,0,,,none,,,,,,,,,,,,,,,,,,,,,,,,,,,,,,,,,,,,,,,,,,,,,,,,,,,,,,,,,,,,,,,,,,,,,,,,,,,,,,,,,,,,,,,,,,,,,,,,,,,,,,,,,,,,,,,,,,,861.4495468999958,None,4287.0938501451765,20.0,0.0010369393866016961,0,"[0.45316435765070423, 0.6032241435717951, 0.5704496928576945, 0.6040175303295738]","[843.6672674483297, 5555.959882705268, 7583.172357678866, 2528.0484044600285]",None,"[25.0, 33.0, 36.806267975261164, 27.0]",False,863.7196800999809,866.3817460000282,866.3817460000282,867.6142877000384,None,0,3.256321979453787,4.2828320794506,None,1,None,1,,,,,,,,,,,,,,,wquuex,001,fr,0,0,2022-05-06_17h51.35.568,Cluster,2022.1.1,35.554076509427134,
,,,,6,0,6,0,6,0,6,0,,,none,,,,,,,,,,,,,,,,,,,,,,,,,,,,,,,,,,,,,,,,,,,,,,,,,,,,,,,,,,,,,,,,,,,,,,,,,,,,,,,,,,,,,,,,,,,,,,,,,,,,,,,,,,,,,,,,,,,868.0480839000084,None,497.694292412724,14.592673545545708,0.00038398941664360915,0,"[0.6478161652943614, 0.40577910809466733, 0.5019733394669775, 0.4555958529530649]","[187.2290741451902, 434.1340945283555, 477.17960317889293, 2508.605881145295]",None,"[13.47209236688566, 21.791290315692194, 21.0, 27.652103384288885]",False,869.0662526000524,871.6376288000029,871.6376288000029,872.8642531000078,None,0,3.0420891197863966,4.060327419778332,None,1,None,1,,,,,,,,,,,,,,,wquuex,001,fr,0,0,2022-05-06_17h51.35.568,Cluster,2022.1.1,35.554076509427134,
,,,,6,0,6,0,7,0,7,0,,,frequency,,,,,,,,,,,,,,,,,,,,,,,,,,,,,,,,,,,,,,,,,,,,,,,,,,,,,,,,,,,,,,,,,,,,,,,,,,,,,,,,,,,,,,,,,,,,,,,,,,,,,,,,,,,,,,,,,,,873.1871605999768,None,187.27733547765823,7.47209236688566,0.0007369701866991821,1,"[0.6951967475651935, 0.4163360463182109, 0.7066739083490933, 0.5094505190864504]","[943.8186285461022, 629.9233602457205, 420.42340316434775, 280.59895708478376]",Perfect_5th,"[27.000000000000004, 21.0, 22.0, 21.0]",False,874.185690900078,877.0240572000621,877.0240572000621,878.2583535000449,['space'],1,3.35229011985939,4.365146119846031,None,1,None,1,,[0.2890305999899283],,,,,,,,,,,,,wquuex,001,fr,0,0,2022-05-06_17h51.35.568,Cluster,2022.1.1,35.554076509427134,
,,,,6,0,6,0,8,0,8,0,,,none,,,,,,,,,,,,,,,,,,,,,,,,,,,,,,,,,,,,,,,,,,,,,,,,,,,,,,,,,,,,,,,,,,,,,,,,,,,,,,,,,,,,,,,,,,,,,,,,,,,,,,,,,,,,,,,,,,,878.6101356999716,None,1741.101126592249,19.0,0.0005625726968543373,1,"[0.4085016805551741, 0.7892258255245512, 0.5802558248493246, 0.7896399200777134]","[7460.533781134685, 1860.9160987367911, 1386.1145623904233, 350.6271330670412]",None,"[36.806267975261164, 30.316041856632342, 30.448808367018295, 23.0]",False,879.6335129999788,882.4286633000011,882.4286633000011,883.663677399978,['space'],1,3.5871485099196434,4.589852009899914,None,1,None,1,,[0.339077900047414],,,,,,,,,,,,,wquuex,001,fr,0,0,2022-05-06_17h51.35.568,Cluster,2022.1.1,35.554076509427134,
,,,,6,0,6,0,9,0,9,0,,,none,,,,,,,,,,,,,,,,,,,,,,,,,,,,,,,,,,,,,,,,,,,,,,,,,,,,,,,,,,,,,,,,,,,,,,,,,,,,,,,,,,,,,,,,,,,,,,,,,,,,,,,,,,,,,,,,,,,884.2666818000143,None,2110.099234626649,23.282955207381704,0.0011273522686288074,0,"[0.42521348963005673, 0.6278800758827968, 0.5093961774906448, 0.5414287648964642]","[2394.381927219078, 5180.3724235036125, 1578.3053624357642, 4343.000602094096]",None,"[28.0, 31.0, 30.673174063951816, 26.999999999999996]",False,885.2842779000057,887.8709255000576,887.8709255000576,889.1032405999722,None,0,3.118115719757043,4.146891719778068,None,1,None,1,,,,,,,,,,,,,,,wquuex,001,fr,0,0,2022-05-06_17h51.35.568,Cluster,2022.1.1,35.554076509427134,
,,,,6,0,6,0,10,0,10,0,,,both,,,,,,,,,,,,,,,,,,,,,,,,,,,,,,,,,,,,,,,,,,,,,,,,,,,,,,,,,,,,,,,,,,,,,,,,,,,,,,,,,,,,,,,,,,,,,,,,,,,,,,,,,,,,,,,,,,,889.4951980999904,None,2022.074119860256,23.881351237623132,0.001177250588023947,1,"[0.7424593001741091, 0.7424593001741091, 0.7424593001741091, 0.7424593001741091]","[3209.842585023842, 2859.6446444300136, 2547.6537480595853, 2269.7014584117155]",Tone,"[24.69830876856029, 25.863803070070993, 27.0, 28.52430684289407]",False,890.4898945000023,893.7407467999728,893.7407467999728,894.976378899999,['space'],1,3.9805285197217017,4.98959191981703,None,1,None,1,,[0.28534200007561594],,,,,,,,,,,,,wquuex,001,fr,0,0,2022-05-06_17h51.35.568,Cluster,2022.1.1,35.554076509427134,
,,,,6,0,6,0,11,0,11,0,,,time,,,,,,,,,,,,,,,,,,,,,,,,,,,,,,,,,,,,,,,,,,,,,,,,,,,,,,,,,,,,,,,,,,,,,,,,,,,,,,,,,,,,,,,,,,,,,,,,,,,,,,,,,,,,,,,,,,,895.53983959998,None,,,,,"[0.6132983784829069, 0.6132983784829069, 0.6132983784829069, 0.6132983784829069]","[225.98064983027996, 139.86454535797932, 170.12810522589893, 4181.133126302845]",None,"[16.0, 16.0, 13.332629287798131, 26.0]",True,896.5356014000718,899.3895707000047,899.3895707000047,900.615061199991,None,1,3.4738722196780145,4.488455319777131,None,1,None,1,,,0,,,,,,,,,,,,wquuex,001,fr,0,0,2022-05-06_17h51.35.568,Cluster,2022.1.1,35.554076509427134,
,,,,6,0,6,0,12,0,12,0,,,none,,,,,,,,,,,,,,,,,,,,,,,,,,,,,,,,,,,,,,,,,,,,,,,,,,,,,,,,,,,,,,,,,,,,,,,,,,,,,,,,,,,,,,,,,,,,,,,,,,,,,,,,,,,,,,,,,,,901.0740170000354,None,176.7766952966369,2.0,0.00044065030258128913,0,"[0.42166878054186907, 0.7705309321686339, 0.5965198205190214, 0.6077845333603102]","[2914.870942877118, 139.78304907499376, 572.5660878837676, 5630.391925780929]",None,"[25.863803070070993, 16.0, 20.36950650046022, 33.0]",False,902.0858032000251,904.89058570005,904.89058570005,906.1247135000303,None,0,3.4285808098502457,4.444351109908894,None,1,None,1,,,,,,,,,,,,,,,wquuex,001,fr,0,0,2022-05-06_17h51.35.568,Cluster,2022.1.1,35.554076509427134,
,,,,6,0,6,0,13,0,13,0,,,time,,,,,,,,,,,,,,,,,,,,,,,,,,,,,,,,,,,,,,,,,,,,,,,,,,,,,,,,,,,,,,,,,,,,,,,,,,,,,,,,,,,,,,,,,,,,,,,,,,,,,,,,,,,,,,,,,,,906.5732613999862,None,5278.031643091578,20.0,0.00142493270940771,0,"[0.6804424972241616, 0.6804424972241616, 0.6804424972241616, 0.6804424972241616]","[269.35428474881616, 1426.5086765044289, 6937.687603749359, 1618.9306850729515]",None,"[20.0, 30.448808367018295, 36.44079369897291, 30.673174063951816]",False,907.5879294000333,910.6428745000158,910.6428745000158,911.8592438000487,None,0,3.746935509843752,4.772099509835243,None,1,None,1,,,,,,,,,,,,,,,wquuex,001,fr,0,0,2022-05-06_17h51.35.568,Cluster,2022.1.1,35.554076509427134,
