practice.thisRepN,practice.thisTrialN,practice.thisN,practice.thisIndex,trials.thisRepN,trials.thisTrialN,trials.thisN,trials.thisIndex,blank_txt.started,blank_txt.stopped,practice_frequency,practice_level,psychopy_volume,tProbe.started,tProbe.stopped,tFeedback.keys,tFeedback.corr,tFeedback.started,tFeedback.stopped,tToo_early.keys,tToo_early.corr,tToo_early.started,tToo_early.stopped,tToo_late.keys,tToo_late.corr,tToo_late.rt,tToo_late.started,tToo_late.stopped,you_done_goofed.started,you_done_goofed.stopped,tFeedback.rt,Init_phase,Frequency,Level,Psychopy_Volume,Catch trial,probe.started,probe.stopped,feedback.keys,feedback.corr,feedback.rt,feedback.started,feedback.stopped,too_late.keys,too_late.corr,too_late.started,too_late.stopped,too_late.rt,Audiogram,participant,session,Language (english or french),Tone duration (ms),date,expName,psychopyVersion,frameRate,
0,0,0,0,,,,,80.46429280005395,None,567,40,0.006099267302654233,1.0155536665115505,None,None,0,82.48497959994711,83.49076310009696,None,1,81.48472840012982,82.49568130006082,['space'],0,[0.06276079989038408],83.49076310009696,None,84.5279387999326,None,,,,,,,,,,,,,,,,,,,,erfnpg,002,fr,200,2022-05-10_14h25.34.421,Bayesian,2022.1.1,None,
1,0,1,0,,,,,,,234,40,0.019882976039061955,1.0023100667167455,None,['space'],1,94.5605878001079,95.57019510003738,None,1,93.57917649997398,94.5980851999484,None,1,,95.57019510003738,None,96.60437020007521,None,[0.3844015998765826],,,,,,,,,,,,,,,,,,,erfnpg,002,fr,200,2022-05-10_14h25.34.421,Bayesian,2022.1.1,None,
2,0,2,0,,,,,,,2345,40,0.008245949202640053,1.0110595666337758,None,['space'],1,98.96911419997923,99.97459600004368,None,1,97.96664629993029,98.96911419997923,None,1,,99.97459600004368,None,101.02580359997228,None,[0.3280959997791797],,,,,,,,,,,,,,,,,,,erfnpg,002,fr,200,2022-05-10_14h25.34.421,Bayesian,2022.1.1,None,
,,,,0,0,0,0,102.71925739990547,None,,,,,,,,,,,,,,,,,,,,,,"{'x': [], 'y': [], 'is_init_phase': True, 'is_exam_finished': False, 'threshold_uncertainty_db': 6}",1000,60,0.0440524436504007,False,0.005476400023326278,0.19547870010137558,['space'],1,[0.28231469984166324],103.81474300008267,104.8412343999371,None,1,104.8412343999371,None,,,erfnpg,002,fr,200,2022-05-10_14h25.34.421,Bayesian,2022.1.1,None,
,,,,1,0,1,0,,,,,,,,,,,,,,,,,,,,,,,,"{'x': [[1000, 60]], 'y': [[1]], 'audiogram': {}, 'is_init_phase': True, 'is_exam_finished': False, 'threshold_uncertainty_db': 6}",1000,40,0.004405244365040069,False,0.013172999955713749,None,['space'],1,[0.36311119981110096],106.39051620010287,107.3977038001176,None,1,107.3977038001176,106.39051620010287,,,erfnpg,002,fr,200,2022-05-10_14h25.34.421,Bayesian,2022.1.1,None,
,,,,2,0,2,0,,,,,,,,,,,,,,,,,,,,,,,,"{'x': [[1000, 60], [1000, 40]], 'y': [[1], [1]], 'audiogram': {}, 'is_init_phase': True, 'is_exam_finished': False, 'threshold_uncertainty_db': 6}",1000,20,0.0004405244365040069,False,0.004243699833750725,None,['space'],1,[0.29728479986079037],109.19196940003894,110.20233349991031,None,1,110.20233349991031,109.19196940003894,,,erfnpg,002,fr,200,2022-05-10_14h25.34.421,Bayesian,2022.1.1,None,
,,,,3,0,3,0,,,,,,,,,,,,,,,,,,,,,,,,"{'x': [[1000, 60], [1000, 40], [1000, 20]], 'y': [[1], [1], [1]], 'audiogram': {}, 'is_init_phase': True, 'is_exam_finished': False, 'threshold_uncertainty_db': 6}",1000,0,4.405244365040069e-05,False,0.00013023335486650467,0.18387583317235112,['space'],1,[0.38236279995180666],111.9706999999471,112.99425429990515,None,1,112.99425429990515,111.9706999999471,,,erfnpg,002,fr,200,2022-05-10_14h25.34.421,Bayesian,2022.1.1,None,
,,,,4,0,4,0,,,,,,,,,,,,,,,,,,,,,,,,"{'x': [[1000, 60], [1000, 40], [1000, 20], [1000, 0]], 'y': [[1], [1], [1], [1]], 'audiogram': {}, 'is_init_phase': True, 'is_exam_finished': False, 'threshold_uncertainty_db': 6}",,,,True,0.014228833373636007,None,None,0,,114.35122680012137,115.35873709991574,None,1,115.35873709991574,114.35122680012137,,,erfnpg,002,fr,200,2022-05-10_14h25.34.421,Bayesian,2022.1.1,None,
,,,,5,0,5,0,,,,,,,,,,,,,,,,,,,,,,,,"{'x': [[1000, 60], [1000, 40], [1000, 20], [1000, 0]], 'y': [[1], [1], [1], [1]], 'audiogram': {}, 'is_init_phase': True, 'is_exam_finished': False, 'threshold_uncertainty_db': 6}",1000,-20,4.405244365040069e-06,False,0.015774999978020787,None,None,0,,117.68143080011941,118.69083460001275,None,1,118.69083460001275,117.68143080011941,,,erfnpg,002,fr,200,2022-05-10_14h25.34.421,Bayesian,2022.1.1,None,
,,,,6,0,6,0,,,,,,,,,,,,,,,,,,,,,,,,"{'x': [[1000, 60], [1000, 40], [1000, 20], [1000, 0], [1000, -20]], 'y': [[1], [1], [1], [1], [-1]], 'audiogram': {}, 'is_init_phase': True, 'is_exam_finished': False, 'threshold_uncertainty_db': 6}",1500,-10,1.527460556607758e-05,False,0.008309900294989347,None,None,0,,120.12862959993072,121.12184910010546,None,1,121.12184910010546,120.12862959993072,,,erfnpg,002,fr,200,2022-05-10_14h25.34.421,Bayesian,2022.1.1,None,
,,,,7,0,7,0,,,,,,,,,,,,,,,,,,,,,,,,"{'x': [[1000, 60], [1000, 40], [1000, 20], [1000, 0], [1000, -20], [1500, -10]], 'y': [[1], [1], [1], [1], [-1], [-1]], 'audiogram': {}, 'is_init_phase': True, 'is_exam_finished': False, 'threshold_uncertainty_db': 6}",1500,10,0.0001527460556607757,False,0.009704400086775422,None,['space'],1,[0.5876044000033289],123.38229270000011,124.39143400010653,None,1,124.39143400010653,123.38229270000011,,,erfnpg,002,fr,200,2022-05-10_14h25.34.421,Bayesian,2022.1.1,None,
,,,,8,0,8,0,,,,,,,,,,,,,,,,,,,,,,,,"{'x': [[1000, 60], [1000, 40], [1000, 20], [1000, 0], [1000, -20], [1500, -10], [1500, 10]], 'y': [[1], [1], [1], [1], [-1], [-1], [1]], 'audiogram': {}, 'is_init_phase': True, 'is_exam_finished': False, 'threshold_uncertainty_db': 6}",,,,True,0.010697333607822657,None,None,0,,126.68284730007872,127.69681759993546,None,1,127.69681759993546,126.68284730007872,,,erfnpg,002,fr,200,2022-05-10_14h25.34.421,Bayesian,2022.1.1,None,
,,,,9,0,9,0,,,,,,,,,,,,,,,,,,,,,,,,"{'x': [[1000, 60], [1000, 40], [1000, 20], [1000, 0], [1000, -20], [1500, -10], [1500, 10]], 'y': [[1], [1], [1], [1], [-1], [-1], [1]], 'audiogram': {}, 'is_init_phase': True, 'is_exam_finished': False, 'threshold_uncertainty_db': 6}",2000,-10,2.3657562948074015e-05,False,0.011684000259265304,None,None,0,,129.55030509992503,130.55612790002488,None,1,130.55612790002488,129.55030509992503,,,erfnpg,002,fr,200,2022-05-10_14h25.34.421,Bayesian,2022.1.1,None,
,,,,10,0,10,0,,,,,,,,,,,,,,,,,,,,,,,,"{'x': [[1000, 60], [1000, 40], [1000, 20], [1000, 0], [1000, -20], [1500, -10], [1500, 10], [2000, -10]], 'y': [[1], [1], [1], [1], [-1], [-1], [1], [-1]], 'audiogram': {}, 'is_init_phase': True, 'is_exam_finished': False, 'threshold_uncertainty_db': 6}",2000,10,0.00023657562948074026,False,0.008006200194358826,None,['space'],1,[0.5482287998311222],131.70827009994537,132.7024972999934,None,1,132.7024972999934,131.70827009994537,,,erfnpg,002,fr,200,2022-05-10_14h25.34.421,Bayesian,2022.1.1,None,
,,,,11,0,11,0,,,,,,,,,,,,,,,,,,,,,,,,"{'x': [[1000, 60], [1000, 40], [1000, 20], [1000, 0], [1000, -20], [1500, -10], [1500, 10], [2000, -10], [2000, 10]], 'y': [[1], [1], [1], [1], [-1], [-1], [1], [-1], [1]], 'audiogram': {}, 'is_init_phase': True, 'is_exam_finished': False, 'threshold_uncertainty_db': 6}",3000,-10,1.7336842522626584e-05,False,0.010792399989441037,None,None,0,,134.80961510003544,135.80994180007838,None,1,135.80994180007838,134.80961510003544,,,erfnpg,002,fr,200,2022-05-10_14h25.34.421,Bayesian,2022.1.1,None,
,,,,12,0,12,0,,,,,,,,,,,,,,,,,,,,,,,,"{'x': [[1000, 60], [1000, 40], [1000, 20], [1000, 0], [1000, -20], [1500, -10], [1500, 10], [2000, -10], [2000, 10], [3000, -10]], 'y': [[1], [1], [1], [1], [-1], [-1], [1], [-1], [1], [-1]], 'audiogram': {}, 'is_init_phase': True, 'is_exam_finished': False, 'threshold_uncertainty_db': 6}",,,,True,0.016115033300593495,None,None,0,,137.3322080001235,138.36464249994606,None,1,138.36464249994606,137.3322080001235,,,erfnpg,002,fr,200,2022-05-10_14h25.34.421,Bayesian,2022.1.1,None,
,,,,13,0,13,0,,,,,,,,,,,,,,,,,,,,,,,,"{'x': [[1000, 60], [1000, 40], [1000, 20], [1000, 0], [1000, -20], [1500, -10], [1500, 10], [2000, -10], [2000, 10], [3000, -10]], 'y': [[1], [1], [1], [1], [-1], [-1], [1], [-1], [1], [-1]], 'audiogram': {}, 'is_init_phase': True, 'is_exam_finished': False, 'threshold_uncertainty_db': 6}",3000,10,0.00017336842522626576,False,0.007804100168868899,0.20095740025863051,['space'],1,[0.47839439986273646],140.9144820999354,141.9128879001364,None,1,141.9128879001364,140.9144820999354,,,erfnpg,002,fr,200,2022-05-10_14h25.34.421,Bayesian,2022.1.1,None,
,,,,14,0,14,0,,,,,,,,,,,,,,,,,,,,,,,,"{'x': [[1000, 60], [1000, 40], [1000, 20], [1000, 0], [1000, -20], [1500, -10], [1500, 10], [2000, -10], [2000, 10], [3000, -10], [3000, 10]], 'y': [[1], [1], [1], [1], [-1], [-1], [1], [-1], [1], [-1], [1]], 'audiogram': {}, 'is_init_phase': True, 'is_exam_finished': False, 'threshold_uncertainty_db': 6}",4000,-10,2.6544222211549425e-05,False,0.009351399959996343,None,None,0,,143.78218020009808,144.78846439998597,None,1,144.78846439998597,143.78218020009808,,,erfnpg,002,fr,200,2022-05-10_14h25.34.421,Bayesian,2022.1.1,None,
,,,,15,0,15,0,,,,,,,,,,,,,,,,,,,,,,,,"{'x': [[1000, 60], [1000, 40], [1000, 20], [1000, 0], [1000, -20], [1500, -10], [1500, 10], [2000, -10], [2000, 10], [3000, -10], [3000, 10], [4000, -10]], 'y': [[1], [1], [1], [1], [-1], [-1], [1], [-1], [1], [-1], [1], [-1]], 'audiogram': {}, 'is_init_phase': True, 'is_exam_finished': False, 'threshold_uncertainty_db': 6}",4000,10,0.00026544222211549425,False,0.011520300060510635,None,['space'],1,[0.4062126998323947],147.434003100032,148.44427350000478,None,1,148.44427350000478,147.434003100032,,,erfnpg,002,fr,200,2022-05-10_14h25.34.421,Bayesian,2022.1.1,None,
,,,,16,0,16,0,,,,,,,,,,,,,,,,,,,,,,,,"{'x': [[1000, 60], [1000, 40], [1000, 20], [1000, 0], [1000, -20], [1500, -10], [1500, 10], [2000, -10], [2000, 10], [3000, -10], [3000, 10], [4000, -10], [4000, 10]], 'y': [[1], [1], [1], [1], [-1], [-1], [1], [-1], [1], [-1], [1], [-1], [1]], 'audiogram': {}, 'is_init_phase': True, 'is_exam_finished': False, 'threshold_uncertainty_db': 6}",6000,-10,3.664122665694518e-05,False,0.013480300083756447,None,None,0,,150.2175054999534,151.22508269990794,None,1,151.22508269990794,150.2175054999534,,,erfnpg,002,fr,200,2022-05-10_14h25.34.421,Bayesian,2022.1.1,None,
,,,,17,0,17,0,,,,,,,,,,,,,,,,,,,,,,,,"{'x': [[1000, 60], [1000, 40], [1000, 20], [1000, 0], [1000, -20], [1500, -10], [1500, 10], [2000, -10], [2000, 10], [3000, -10], [3000, 10], [4000, -10], [4000, 10], [6000, -10]], 'y': [[1], [1], [1], [1], [-1], [-1], [1], [-1], [1], [-1], [1], [-1], [1], [-1]], 'audiogram': {}, 'is_init_phase': True, 'is_exam_finished': False, 'threshold_uncertainty_db': 6}",6000,10,0.00036641226656945183,False,0.012697200058028102,None,['space'],1,[0.4311116999015212],154.27351470012218,155.29449629993178,None,1,155.29449629993178,154.27351470012218,,,erfnpg,002,fr,200,2022-05-10_14h25.34.421,Bayesian,2022.1.1,None,
,,,,18,0,18,0,,,,,,,,,,,,,,,,,,,,,,,,"{'x': [[1000, 60], [1000, 40], [1000, 20], [1000, 0], [1000, -20], [1500, -10], [1500, 10], [2000, -10], [2000, 10], [3000, -10], [3000, 10], [4000, -10], [4000, 10], [6000, -10], [6000, 10]], 'y': [[1], [1], [1], [1], [-1], [-1], [1], [-1], [1], [-1], [1], [-1], [1], [-1], [1]], 'audiogram': {}, 'is_init_phase': True, 'is_exam_finished': False, 'threshold_uncertainty_db': 6}",8000,-10,5.740768107484415e-05,False,0.004229000071063638,0.1955155001487583,None,0,,157.38193550007418,158.3962358001154,None,1,158.3962358001154,157.38193550007418,,,erfnpg,002,fr,200,2022-05-10_14h25.34.421,Bayesian,2022.1.1,None,
,,,,19,0,19,0,,,,,,,,,,,,,,,,,,,,,,,,"{'x': [[1000, 60], [1000, 40], [1000, 20], [1000, 0], [1000, -20], [1500, -10], [1500, 10], [2000, -10], [2000, 10], [3000, -10], [3000, 10], [4000, -10], [4000, 10], [6000, -10], [6000, 10], [8000, -10]], 'y': [[1], [1], [1], [1], [-1], [-1], [1], [-1], [1], [-1], [1], [-1], [1], [-1], [1], [-1]], 'audiogram': {}, 'is_init_phase': True, 'is_exam_finished': False, 'threshold_uncertainty_db': 6}",,,,True,0.016338433604687452,None,None,0,,159.7204849999398,160.7502911000047,None,1,160.7502911000047,159.7204849999398,,,erfnpg,002,fr,200,2022-05-10_14h25.34.421,Bayesian,2022.1.1,None,
,,,,20,0,20,0,,,,,,,,,,,,,,,,,,,,,,,,"{'x': [[1000, 60], [1000, 40], [1000, 20], [1000, 0], [1000, -20], [1500, -10], [1500, 10], [2000, -10], [2000, 10], [3000, -10], [3000, 10], [4000, -10], [4000, 10], [6000, -10], [6000, 10], [8000, -10]], 'y': [[1], [1], [1], [1], [-1], [-1], [1], [-1], [1], [-1], [1], [-1], [1], [-1], [1], [-1]], 'audiogram': {}, 'is_init_phase': True, 'is_exam_finished': False, 'threshold_uncertainty_db': 6}",8000,0,0.0001815390273850507,False,0.0057124001905322075,None,['space'],1,[0.5451614998746663],162.46359890000895,163.4623376999516,None,1,163.4623376999516,162.46359890000895,,,erfnpg,002,fr,200,2022-05-10_14h25.34.421,Bayesian,2022.1.1,None,
,,,,21,0,21,0,,,,,,,,,,,,,,,,,,,,,,,,"{'x': [[1000, 60], [1000, 40], [1000, 20], [1000, 0], [1000, -20], [1500, -10], [1500, 10], [2000, -10], [2000, 10], [3000, -10], [3000, 10], [4000, -10], [4000, 10], [6000, -10], [6000, 10], [8000, -10], [8000, 0]], 'y': [[1], [1], [1], [1], [-1], [-1], [1], [-1], [1], [-1], [1], [-1], [1], [-1], [1], [-1], [1]], 'audiogram': {}, 'is_init_phase': True, 'is_exam_finished': False, 'threshold_uncertainty_db': 6}",750,-10,1.2851978913844322e-05,False,0.014467400265857577,None,None,0,,166.3937319999095,167.39847459993325,None,1,167.39847459993325,166.3937319999095,,,erfnpg,002,fr,200,2022-05-10_14h25.34.421,Bayesian,2022.1.1,None,
,,,,22,0,22,0,,,,,,,,,,,,,,,,,,,,,,,,"{'x': [[1000, 60], [1000, 40], [1000, 20], [1000, 0], [1000, -20], [1500, -10], [1500, 10], [2000, -10], [2000, 10], [3000, -10], [3000, 10], [4000, -10], [4000, 10], [6000, -10], [6000, 10], [8000, -10], [8000, 0], [750, -10]], 'y': [[1], [1], [1], [1], [-1], [-1], [1], [-1], [1], [-1], [1], [-1], [1], [-1], [1], [-1], [1], [-1]], 'audiogram': {}, 'is_init_phase': True, 'is_exam_finished': False, 'threshold_uncertainty_db': 6}",750,10,0.00012851978913844324,False,0.013695700094103813,None,['space'],1,[0.4256416999269277],169.71817480004393,170.72377669997513,None,1,170.72377669997513,169.71817480004393,,,erfnpg,002,fr,200,2022-05-10_14h25.34.421,Bayesian,2022.1.1,None,
,,,,23,0,23,0,,,,,,,,,,,,,,,,,,,,,,,,"{'x': [[1000, 60], [1000, 40], [1000, 20], [1000, 0], [1000, -20], [1500, -10], [1500, 10], [2000, -10], [2000, 10], [3000, -10], [3000, 10], [4000, -10], [4000, 10], [6000, -10], [6000, 10], [8000, -10], [8000, 0], [750, -10], [750, 10]], 'y': [[1], [1], [1], [1], [-1], [-1], [1], [-1], [1], [-1], [1], [-1], [1], [-1], [1], [-1], [1], [-1], [1]], 'audiogram': {}, 'is_init_phase': True, 'is_exam_finished': False, 'threshold_uncertainty_db': 6}",500,-10,2.259279721874613e-05,False,0.013099700212478638,0.20950420014560223,None,0,,173.5229543999303,174.53799790004268,None,1,174.53799790004268,173.5229543999303,,,erfnpg,002,fr,200,2022-05-10_14h25.34.421,Bayesian,2022.1.1,None,
,,,,24,0,24,0,,,,,,,,,,,,,,,,,,,,,,,,"{'x': [[1000, 60], [1000, 40], [1000, 20], [1000, 0], [1000, -20], [1500, -10], [1500, 10], [2000, -10], [2000, 10], [3000, -10], [3000, 10], [4000, -10], [4000, 10], [6000, -10], [6000, 10], [8000, -10], [8000, 0], [750, -10], [750, 10], [500, -10]], 'y': [[1], [1], [1], [1], [-1], [-1], [1], [-1], [1], [-1], [1], [-1], [1], [-1], [1], [-1], [1], [-1], [1], [-1]], 'audiogram': {}, 'is_init_phase': True, 'is_exam_finished': False, 'threshold_uncertainty_db': 6}",,,,True,0.011799033498391509,None,None,0,,176.9168789999094,177.92034960002638,None,1,177.92034960002638,176.9168789999094,,,erfnpg,002,fr,200,2022-05-10_14h25.34.421,Bayesian,2022.1.1,None,
,,,,25,0,25,0,,,,,,,,,,,,,,,,,,,,,,,,"{'x': [[1000, 60], [1000, 40], [1000, 20], [1000, 0], [1000, -20], [1500, -10], [1500, 10], [2000, -10], [2000, 10], [3000, -10], [3000, 10], [4000, -10], [4000, 10], [6000, -10], [6000, 10], [8000, -10], [8000, 0], [750, -10], [750, 10], [500, -10]], 'y': [[1], [1], [1], [1], [-1], [-1], [1], [-1], [1], [-1], [1], [-1], [1], [-1], [1], [-1], [1], [-1], [1], [-1]], 'audiogram': {}, 'is_init_phase': True, 'is_exam_finished': False, 'threshold_uncertainty_db': 6}",500,10,0.0002259279721874612,False,0.010457100113853812,None,['space'],1,[0.3283154000528157],179.240807000082,180.2539544000756,None,1,180.2539544000756,179.240807000082,,,erfnpg,002,fr,200,2022-05-10_14h25.34.421,Bayesian,2022.1.1,None,
,,,,26,0,26,0,,,,,,,,,,,,,,,,,,,,,,,,"{'x': [[1000, 60], [1000, 40], [1000, 20], [1000, 0], [1000, -20], [1500, -10], [1500, 10], [2000, -10], [2000, 10], [3000, -10], [3000, 10], [4000, -10], [4000, 10], [6000, -10], [6000, 10], [8000, -10], [8000, 0], [750, -10], [750, 10], [500, -10], [500, 10]], 'y': [[1], [1], [1], [1], [-1], [-1], [1], [-1], [1], [-1], [1], [-1], [1], [-1], [1], [-1], [1], [-1], [1], [-1], [1]], 'audiogram': {}, 'is_init_phase': True, 'is_exam_finished': False, 'threshold_uncertainty_db': 6}",250,-10,5.296268625886443e-05,False,0.011872400064021349,None,None,0,,181.54152960004285,182.54681070009246,None,1,182.54681070009246,181.54152960004285,,,erfnpg,002,fr,200,2022-05-10_14h25.34.421,Bayesian,2022.1.1,None,
,,,,27,0,27,0,,,,,,,,,,,,,,,,,,,,,,,,"{'x': [[1000, 60], [1000, 40], [1000, 20], [1000, 0], [1000, -20], [1500, -10], [1500, 10], [2000, -10], [2000, 10], [3000, -10], [3000, 10], [4000, -10], [4000, 10], [6000, -10], [6000, 10], [8000, -10], [8000, 0], [750, -10], [750, 10], [500, -10], [500, 10], [250, -10]], 'y': [[1], [1], [1], [1], [-1], [-1], [1], [-1], [1], [-1], [1], [-1], [1], [-1], [1], [-1], [1], [-1], [1], [-1], [1], [-1]], 'audiogram': {}, 'is_init_phase': True, 'is_exam_finished': False, 'threshold_uncertainty_db': 6}",250,10,0.0005296268625886444,False,0.009880400029942393,None,['space'],1,[0.46294169989414513],184.54613370005973,185.55889640003443,None,1,185.55889640003443,184.54613370005973,,,erfnpg,002,fr,200,2022-05-10_14h25.34.421,Bayesian,2022.1.1,None,
,,,,28,0,28,0,,,,,,,,,,,,,,,,,,,,,,,,"{'x': [[1000, 60], [1000, 40], [1000, 20], [1000, 0], [1000, -20], [1500, -10], [1500, 10], [2000, -10], [2000, 10], [3000, -10], [3000, 10], [4000, -10], [4000, 10], [6000, -10], [6000, 10], [8000, -10], [8000, 0], [750, -10], [750, 10], [500, -10], [500, 10], [250, -10], [250, 10]], 'y': [[1], [1], [1], [1], [-1], [-1], [1], [-1], [1], [-1], [1], [-1], [1], [-1], [1], [-1], [1], [-1], [1], [-1], [1], [-1], [1]], 'audiogram': {}, 'is_init_phase': True, 'is_exam_finished': False, 'threshold_uncertainty_db': 6}",125,-10,0.0002285440948074376,False,0.014418266713619232,0.2118878667242825,None,0,,187.42979989992455,188.4427871000953,None,1,188.4427871000953,187.42979989992455,,,erfnpg,002,fr,200,2022-05-10_14h25.34.421,Bayesian,2022.1.1,None,
,,,,29,0,29,0,,,,,,,,,,,,,,,,,,,,,,,,"{'x': [[1000, 60], [1000, 40], [1000, 20], [1000, 0], [1000, -20], [1500, -10], [1500, 10], [2000, -10], [2000, 10], [3000, -10], [3000, 10], [4000, -10], [4000, 10], [6000, -10], [6000, 10], [8000, -10], [8000, 0], [750, -10], [750, 10], [500, -10], [500, 10], [250, -10], [250, 10], [125, -10]], 'y': [[1], [1], [1], [1], [-1], [-1], [1], [-1], [1], [-1], [1], [-1], [1], [-1], [1], [-1], [1], [-1], [1], [-1], [1], [-1], [1], [-1]], 'audiogram': {}, 'is_init_phase': True, 'is_exam_finished': False, 'threshold_uncertainty_db': 6}",125,0,0.000722719885372964,False,0.014166600303724408,None,None,0,,191.49418810009956,192.50027860002592,None,1,192.50027860002592,191.49418810009956,,,erfnpg,002,fr,200,2022-05-10_14h25.34.421,Bayesian,2022.1.1,None,
,,,,30,0,30,0,,,,,,,,,,,,,,,,,,,,,,,,"{'x': [[1000, 60], [1000, 40], [1000, 20], [1000, 0], [1000, -20], [1500, -10], [1500, 10], [2000, -10], [2000, 10], [3000, -10], [3000, 10], [4000, -10], [4000, 10], [6000, -10], [6000, 10], [8000, -10], [8000, 0], [750, -10], [750, 10], [500, -10], [500, 10], [250, -10], [250, 10], [125, -10], [125, 0]], 'y': [[1], [1], [1], [1], [-1], [-1], [1], [-1], [1], [-1], [1], [-1], [1], [-1], [1], [-1], [1], [-1], [1], [-1], [1], [-1], [1], [-1], [-1]], 'audiogram': {}, 'is_init_phase': True, 'is_exam_finished': False, 'threshold_uncertainty_db': 6}",,,,True,0.00797813362441957,None,None,0,,193.96309669991024,194.98351359996013,None,1,194.98351359996013,193.96309669991024,,,erfnpg,002,fr,200,2022-05-10_14h25.34.421,Bayesian,2022.1.1,None,
,,,,31,0,31,0,,,,,,,,,,,,,,,,,,,,,,,,"{'x': [[1000, 60], [1000, 40], [1000, 20], [1000, 0], [1000, -20], [1500, -10], [1500, 10], [2000, -10], [2000, 10], [3000, -10], [3000, 10], [4000, -10], [4000, 10], [6000, -10], [6000, 10], [8000, -10], [8000, 0], [750, -10], [750, 10], [500, -10], [500, 10], [250, -10], [250, 10], [125, -10], [125, 0]], 'y': [[1], [1], [1], [1], [-1], [-1], [1], [-1], [1], [-1], [1], [-1], [1], [-1], [1], [-1], [1], [-1], [1], [-1], [1], [-1], [1], [-1], [-1]], 'audiogram': {}, 'is_init_phase': True, 'is_exam_finished': False, 'threshold_uncertainty_db': 6}",125,10,0.002285440948074376,False,0.00938500021584332,None,['space'],1,[0.5583493998274207],197.42635060008615,198.43873220006935,None,1,198.43873220006935,197.42635060008615,,,erfnpg,002,fr,200,2022-05-10_14h25.34.421,Bayesian,2022.1.1,None,
,,,,32,0,32,0,,,,,,,,,,,,,,,,,,,,,,,,"{'x': [[1000, 60], [1000, 40], [1000, 20], [1000, 0], [1000, -20], [1500, -10], [1500, 10], [2000, -10], [2000, 10], [3000, -10], [3000, 10], [4000, -10], [4000, 10], [6000, -10], [6000, 10], [8000, -10], [8000, 0], [750, -10], [750, 10], [500, -10], [500, 10], [250, -10], [250, 10], [125, -10], [125, 0], [125, 10]], 'y': [[1], [1], [1], [1], [-1], [-1], [1], [-1], [1], [-1], [1], [-1], [1], [-1], [1], [-1], [1], [-1], [1], [-1], [1], [-1], [1], [-1], [-1], [1]], 'audiogram': {}, 'is_init_phase': True, 'is_exam_finished': False, 'threshold_uncertainty_db': 6}",353.5533905932738,-1.0,7.897582242723967e-05,False,0.0060396334156394005,None,None,0,,201.30193020007573,202.32400829996914,None,1,202.32400829996914,201.30193020007573,,,erfnpg,002,fr,200,2022-05-10_14h25.34.421,Bayesian,2022.1.1,None,
,,,,33,0,33,0,,,,,,,,,,,,,,,,,,,,,,,,,203.0630990890589,2.0,0.00032661690408859664,False,0.009242900414392352,None,None,0,,205.1348024001345,206.13895220006816,None,1,206.13895220006816,205.1348024001345,,,erfnpg,002,fr,200,2022-05-10_14h25.34.421,Bayesian,2022.1.1,None,
,,,,34,0,34,0,,,,,,,,,,,,,,,,,,,,,,,,,,,,True,0.009511333424597979,None,None,0,,208.0434254000429,209.05329730012454,None,1,209.05329730012454,208.0434254000429,,,erfnpg,002,fr,200,2022-05-10_14h25.34.421,Bayesian,2022.1.1,None,
,,,,35,0,35,0,,,,,,,,,,,,,,,,,,,,,,,,,2462.2888266898335,0.0,8.505946547995337e-05,False,0.007006233558058739,None,None,0,,213.07025069999509,214.07727189990692,None,1,214.07727189990692,213.07025069999509,,,erfnpg,002,fr,200,2022-05-10_14h25.34.421,Bayesian,2022.1.1,None,
,,,,36,0,36,0,,,,,,,,,,,,,,,,,,,,,,,,,4594.793419988137,0.0,0.00012486547057085194,False,0.007030033506453037,None,['space'],1,[0.5863267998211086],217.55802390002646,218.55495100002736,None,1,218.55495100002736,217.55802390002646,,,erfnpg,002,fr,200,2022-05-10_14h25.34.421,Bayesian,2022.1.1,None,
,,,,37,0,37,0,,,,,,,,,,,,,,,,,,,,,,,,,615.5722066724584,0.0,5.34153907348926e-05,False,0.004762799944728613,None,None,0,,221.6485979000572,222.67898510000668,None,1,222.67898510000668,221.6485979000572,,,erfnpg,002,fr,200,2022-05-10_14h25.34.421,Bayesian,2022.1.1,None,
,,,,38,0,38,0,,,,,,,,,,,,,,,,,,,,,,,,,,,,True,0.014788133557885885,None,None,0,,225.68707969994284,226.71774660004303,None,1,226.71774660004303,225.68707969994284,,,erfnpg,002,fr,200,2022-05-10_14h25.34.421,Bayesian,2022.1.1,None,
,,,,39,0,39,0,,,,,,,,,,,,,,,,,,,,,,,,,1515.7165665103996,0.0,4.963027899072243e-05,False,0.014405233319848776,None,None,0,,230.5753794000484,231.59418089990504,None,1,231.59418089990504,230.5753794000484,,,erfnpg,002,fr,200,2022-05-10_14h25.34.421,Bayesian,2022.1.1,None,
,,,,40,0,40,0,,,,,,,,,,,,,,,,,,,,,,,,,378.9291416275994,4.0,0.00013000016238178756,False,0.008363766595721245,0.20106096658855677,['space'],1,[0.6318345998879522],234.82499850005843,235.84454570012167,None,1,235.84454570012167,234.82499850005843,,,erfnpg,002,fr,200,2022-05-10_14h25.34.421,Bayesian,2022.1.1,None,
,,,,41,0,41,0,,,,,,,,,,,,,,,,,,,,,,,,,3249.0095854249403,1.0,7.939092648083988e-05,False,0.00893860007636249,None,['space'],1,[0.5690538997296244],238.85508599993773,239.86566290003248,None,1,239.86566290003248,238.85508599993773,,,erfnpg,002,fr,200,2022-05-10_14h25.34.421,Bayesian,2022.1.1,None,
,,,,42,0,42,0,,,,,,,,,,,,,,,,,,,,,,,,,153.8930516681146,5.0,0.0008277719269625906,False,0.011301066726446152,None,['space'],1,[0.5503562998492271],242.92283029993996,243.91910500009544,None,1,243.91910500009544,242.92283029993996,,,erfnpg,002,fr,200,2022-05-10_14h25.34.421,Bayesian,2022.1.1,None,
,,,,43,0,43,0,,,,,,,,,,,,,,,,,,,,,,,,,,,,True,0.013158733490854502,None,None,0,,246.90823019994423,247.9178512999788,None,1,247.9178512999788,246.90823019994423,,,erfnpg,002,fr,200,2022-05-10_14h25.34.421,Bayesian,2022.1.1,None,
,,,,44,0,44,0,,,,,,,,,,,,,,,,,,,,,,,,,6062.8662660415985,-3.0,8.41269401965078e-05,False,0.006258066510781646,None,['space'],1,[0.5905190999619663],252.0501310999971,253.05533270002343,None,1,253.05533270002343,252.0501310999971,,,erfnpg,002,fr,200,2022-05-10_14h25.34.421,Bayesian,2022.1.1,None,
,,,,45,0,45,0,,,,,,,,,,,,,,,,,,,,,,,,,267.9433656340732,3.0,0.00020972419135141431,False,0.0027848666068166494,None,['space'],1,[0.7009465000592172],256.6436133000534,257.6692616001237,None,1,257.6692616001237,256.6436133000534,,,erfnpg,002,fr,200,2022-05-10_14h25.34.421,Bayesian,2022.1.1,None,
,,,,46,0,46,0,,,,,,,,,,,,,,,,,,,,,,,,,757.8582832551998,0.0,4.0284217316254384e-05,False,0.00012070010416209698,0.19234480010345578,['space'],1,[0.6667965997476131],260.2457523001358,261.2530440001283,None,1,261.2530440001283,260.2457523001358,,,erfnpg,002,fr,200,2022-05-10_14h25.34.421,Bayesian,2022.1.1,None,
,,,,47,0,47,0,,,,,,,,,,,,,,,,,,,,,,,,,8000.0,-4.0,0.00011454338263838867,False,0.0028806666377931833,None,['space'],1,[0.5373522997833788],265.143768500071,266.14101859997027,None,1,266.14101859997027,265.143768500071,,,erfnpg,002,fr,200,2022-05-10_14h25.34.421,Bayesian,2022.1.1,None,
,,,,48,0,48,0,,,,,,,,,,,,,,,,,,,,,,,,,1148.6983549970344,-2.0,3.993252316139017e-05,False,0.005154166603460908,None,None,0,,269.86896499991417,270.87508110003546,None,1,270.87508110003546,269.86896499991417,,,erfnpg,002,fr,200,2022-05-10_14h25.34.421,Bayesian,2022.1.1,None,
,,,,49,0,49,0,,,,,,,,,,,,,,,,,,,,,,,,,,,,True,0.01463763345964253,None,None,0,,273.16876569995657,274.17756430013105,None,1,274.17756430013105,273.16876569995657,,,erfnpg,002,fr,200,2022-05-10_14h25.34.421,Bayesian,2022.1.1,None,
,,,,50,0,50,0,,,,,,,,,,,,,,,,,,,,,,,,,1866.0659830736151,4.0,0.00010898398547837883,False,0.003946033306419849,0.1942314333282411,['space'],1,[0.8635326998773962],277.90649900003336,278.92093080002815,None,1,278.92093080002815,277.90649900003336,,,erfnpg,002,fr,200,2022-05-10_14h25.34.421,Bayesian,2022.1.1,None,
,,,,51,0,51,0,,,,,,,,,,,,,,,,,,,,,,,,,4287.0938501451765,-4.0,6.542645217571266e-05,False,0.004092999966815114,None,['space'],1,[0.625764399766922],281.48767630010843,282.49346940009855,None,1,282.49346940009855,281.48767630010843,,,erfnpg,002,fr,200,2022-05-10_14h25.34.421,Bayesian,2022.1.1,None,
,,,,52,0,52,0,,,,,,,,,,,,,,,,,,,,,,,,,500.0,2.0,8.994354575643942e-05,False,0.0037108000833541155,0.18980180006474257,['space'],1,[0.5640177999157459],285.6445553000085,286.6556975999847,None,1,286.6556975999847,285.6445553000085,,,erfnpg,002,fr,200,2022-05-10_14h25.34.421,Bayesian,2022.1.1,None,
,,,,53,0,53,0,,,,,,,,,,,,,,,,,,,,,,,,,125.0,2.0,0.000909850429304992,False,0.01641630008816719,None,['space'],1,[0.6480185999535024],289.59233639994636,290.62024859990925,None,1,290.62024859990925,289.59233639994636,,,erfnpg,002,fr,200,2022-05-10_14h25.34.421,Bayesian,2022.1.1,None,
,,,,54,0,54,0,,,,,,,,,,,,,,,,,,,,,,,,,,,,True,0.01329113356769085,None,None,0,,292.55773929995485,293.5727768999059,None,1,293.5727768999059,292.55773929995485,,,erfnpg,002,fr,200,2022-05-10_14h25.34.421,Bayesian,2022.1.1,None,
,,,,55,0,55,0,,,,,,,,,,,,,,,,,,,,,,,,,3031.4331330207992,-1.0,5.1513052502824035e-05,False,0.01399260014295578,None,None,0,,296.1173481999431,297.131631199969,None,1,297.131631199969,296.1173481999431,,,erfnpg,002,fr,200,2022-05-10_14h25.34.421,Bayesian,2022.1.1,None,
,,,,56,0,56,0,,,,,,,,,,,,,,,,,,,,,,,,,5656.85424949238,-7.0,5.7409421777346256e-05,False,0.009971733437851071,None,None,0,,300.7445122001227,301.7458190000616,None,1,301.7458190000616,300.7445122001227,,,erfnpg,002,fr,200,2022-05-10_14h25.34.421,Bayesian,2022.1.1,None,
,,,,57,0,57,0,,,,,,,,,,,,,,,,,,,,,,,,,176.7766952966369,3.0,0.0004944177713899504,False,0.008461966644972563,None,['space'],1,[0.6104075997136533],304.39729220001027,305.41601209994406,None,1,305.41601209994406,304.39729220001027,,,erfnpg,002,fr,200,2022-05-10_14h25.34.421,Bayesian,2022.1.1,None,
,,,,58,0,58,0,,,,,,,,,,,,,,,,,,,,,,,,,8000.0,-6.0,9.098504293049921e-05,False,0.009313933085650206,None,['space'],1,[0.6654266999103129],308.66318159992807,309.6775891999714,None,1,309.6775891999714,308.66318159992807,,,erfnpg,002,fr,200,2022-05-10_14h25.34.421,Bayesian,2022.1.1,None,
,,,,59,0,59,0,,,,,,,,,,,,,,,,,,,,,,,,,,,,True,0.014618833549320698,None,None,0,,312.4431491999421,313.45272930013016,None,1,313.45272930013016,312.4431491999421,,,erfnpg,002,fr,200,2022-05-10_14h25.34.421,Bayesian,2022.1.1,None,
,,,,60,0,60,0,,,,,,,,,,,,,,,,,,,,,,,,,287.17458874925893,1.0,0.00014373014543855395,False,0.012254366651177406,None,None,0,,316.85619130008854,317.8617074000649,None,1,317.8617074000649,316.85619130008854,,,erfnpg,002,fr,200,2022-05-10_14h25.34.421,Bayesian,2022.1.1,None,
,,,,61,0,61,0,,,,,,,,,,,,,,,,,,,,,,,,,2143.5469250725882,2.0,9.818841039113999e-05,False,0.010875966399908066,0.20722386660054326,None,0,,321.70841170009226,322.7223142001312,None,1,322.7223142001312,321.70841170009226,,,erfnpg,002,fr,200,2022-05-10_14h25.34.421,Bayesian,2022.1.1,None,
,,,,62,0,62,0,,,,,,,,,,,,,,,,,,,,,,,,,435.2752816480623,1.0,8.387303461037769e-05,False,0.013355966657400131,None,None,0,,327.5448272000067,328.5398617000319,['space'],0,328.5398617000319,327.5448272000067,[-0.02794650010764599],,erfnpg,002,fr,200,2022-05-10_14h25.34.421,Bayesian,2022.1.1,None,
,,,,63,0,63,0,,,,,,,,,,,,,,,,,,,,,,,,,435.2752816480623,1.0,8.387303461037769e-05,False,None,None,None,0,,None,None,None,1,None,None,,"{'estimation': [[125.0, 0.6513169308613973], [133.97168281703668, 0.7607281090035263], [143.5872943746293, 0.9195125427319033], [147.31068369789887, 1.0], [153.89305166811442, 1.1364636648559236], [164.93848884661162, 1.3953005798190787], [176.77669529663666, 1.6830309251755509], [189.46457081379947, 1.979952219004358], [190.4507731131908, 2.0], [203.0630990890585, 2.2387509643365275], [217.6376408240306, 2.4176608241797153], [233.25824788420132, 2.4979919556278745], [249.99999999999937, 2.468962899417771], [267.94336563407256, 2.332992182463365], [287.1745887492579, 2.1016103571606415], [293.9774469865354, 2.0], [307.78610333622805, 1.8013134890138534], [329.87697769322244, 1.488071809041017], [353.55339059327247, 1.1866726115627373], [371.6069497245404, 1.0], [378.929141627598, 0.9234464111163349], [406.12619817811606, 0.7336691393324172], [435.2752816480601, 0.617863536165133], [466.5164957684015, 0.5524966040394848], [499.9999999999975, 0.4967140462148888], [535.8867312681438, 0.4001339218354596], [574.3491774985143, 0.2162080469979284], [603.4291155827511, 0.0], [615.5722066724546, -0.08847580781687177], [659.7539553864432, -0.4888568680565563], [707.1067811865431, -0.9414716951540865], [713.6389930243013, -1.0], [757.8582832551941, -1.3845053380808765], [812.2523963562301, -1.7082938798369542], [870.5505632961181, -1.8543397550484455], [933.0329915368008, -1.7753056649857237], [999.9999999999926, -1.4722969045611616], [1067.7276261162149, -1.0], [1071.773462536285, -0.9721556249585369], [1148.698354997026, -0.3560993758566167], [1192.283545001862, 0.0], [1231.1444133449063, 0.31483317056897286], [1319.5079107728832, 0.9522353035329638], [1326.9573428788162, 1.0], [1414.2135623730828, 1.534493828869186], [1508.9337202775837, 2.0], [1515.7165665103846, 2.0328653594911135], [1624.5047927124563, 2.4569145368022927], [1741.1011265922318, 2.805384390886723], [1823.186403498007, 3.0], [1866.065983073597, 3.0979932635099328], [1999.9999999999802, 3.296753518001286], [2143.5469250725646, 3.3604760645724063], [2297.396709994046, 3.237281137673755], [2401.2931376904494, 3.0], [2462.2888266898035, 2.865510346829452], [2639.0158215457564, 2.243990824798374], [2689.0300848389065, 2.0], [2828.427124746159, 1.35644501917866], [2893.111224324881, 1.0], [3031.4331330207615, 0.26852413981444323], [3079.3861564569042, 0.0], [3249.0095854249043, -0.9299358685142374], [3262.569656602793, -1.0], [3456.600538210053, -2.0], [3482.2022531844555, -2.1267426584883307], [3684.0825397496465, -3.0], [3732.1319661471844, -3.2032772330197514], [3975.608533036396, -4.0], [3999.9999999999504, -4.0792509450085115], [4287.093850145118, -4.721095772747878], [4483.2150428401965, -5.0], [4594.793419988081, -5.155498893438741], [4924.577653379601, -5.420671560145156], [5278.031643091506, -5.5987683377341995], [5656.854249492303, -5.769106609400451], [6062.866266041508, -5.98433807790334], [6087.123146367866, -6.0], [6498.019170849785, -6.24867324849558], [6964.404506368894, -6.520458606717975], [7464.2639322943505, -6.749294479563709], [7999.999999999882, -6.869648872614917]], 'plus_line': [[125.0, -1.3041495554163778], [133.9716828170366, -1.157728117430449], [143.5872943746293, -1.0237211073517567], [144.7771180328761, -1.0], [153.89305166811442, -0.8577212063990687], [164.93848884661162, -0.6146452416481146], [176.77669529663655, -0.29398488123094396], [186.89307243702865, 0.0], [189.46457081379947, 0.06072280993641188], [203.0630990890585, 0.32054325633156233], [217.6376408240306, 0.5111007636135264], [233.25824788420132, 0.6135072462998661], [249.99999999999937, 0.6119296030437256], [267.94336563407256, 0.49946378582183115], [287.1745887492579, 0.2839342280207596], [306.38061323911336, 0.0], [307.78610333622805, -0.02516941527977255], [329.87697769322244, -0.4420476419509969], [353.55339059327247, -0.812980092180096], [368.53773468075246, -1.0], [378.929141627598, -1.1541065493222864], [406.12619817811606, -1.4096106448333154], [435.2752816480601, -1.5460232261910198], [466.5164957684015, -1.5989930118492341], [499.9999999999975, -1.6207512253494771], [535.8867312681438, -1.675423401557791], [574.3491774985143, -1.820139045991523], [601.393009837289, -2.0], [615.5722066724546, -2.1093537101558835], [659.7539553864432, -2.543207734094335], [706.8560027436106, -3.0], [707.1067811865431, -3.002812751019071], [757.8582832551941, -3.5079620167963697], [812.2523963562301, -3.83855496744339], [870.5505632961181, -3.9646171097952134], [933.0329915368008, -3.856146198351119], [999.9999999999926, -3.5214523181324777], [1066.6047872915697, -3.0], [1071.773462536285, -2.9647932283607847], [1148.698354997026, -2.376332856396676], [1194.133872763063, -2.0], [1231.1444133449063, -1.7254021842951892], [1319.5079107728832, -1.1031264036659711], [1334.8957608482021, -1.0], [1414.2135623730828, -0.5437622188216655], [1513.8787075155549, 0.0], [1515.7165665103846, 0.008976008043340644], [1624.5047927124563, 0.45668978168897], [1741.1011265922318, 0.888847950770311], [1776.1772091331488, 1.0], [1866.065983073597, 1.2251199910019621], [1999.9999999999802, 1.4297394943102844], [2143.5469250725646, 1.4829004555866887], [2297.396709994046, 1.3420487791822278], [2454.1213974925454, 1.0], [2462.2888266898062, 0.97920962190777], [2639.01582154576, 0.32640952455629635], [2708.3670949604025, 0.0], [2828.427124746159, -0.5604570357815785], [2908.540781749612, -1.0], [3031.4331330207615, -1.6460956758167786], [3093.137896514213, -2.0], [3249.0095854249043, -2.8530203576788957], [3276.4758218567067, -3.0], [3463.507868771565, -4.0], [3482.2022531844555, -4.0946585586562545], [3678.2332854180568, -5.0], [3732.131966147189, -5.237647392388257], [3958.245018429255, -6.0], [3999.9999999999504, -6.142908555741232], [4287.093850145118, -6.791009066207908], [4452.803321408409, -7.0], [4594.793419988081, -7.198523043500403], [4924.577653379601, -7.434855587723304], [5278.031643091506, -7.578622134559732], [5656.854249492303, -7.72142420064235], [6062.866266041508, -7.907028044132723], [6230.972866084517, -8.0], [6498.019170849792, -8.170261775521778], [6964.404506368894, -8.44823302909954], [7464.2639322943505, -8.687117024661447], [7999.999999999882, -8.88139260051512]], 'minus_line': [[125.0, 2.570026125934744], [133.9716828170366, 2.630491609861067], [143.5872943746292, 2.797223123449942], [152.86055342945795, 3.0], [153.89305166811442, 3.0270968075602296], [164.93848884661162, 3.319535425744143], [176.77669529663666, 3.5941691045619795], [189.46457081379947, 3.8543488170966422], [197.62469103201627, 4.0], [203.0630990890585, 4.114128110238799], [217.6376408240306, 4.319785130222172], [233.25824788420132, 4.405244618765552], [249.99999999999937, 4.361847484892499], [267.94336563407256, 4.194703518743793], [281.70666774318624, 4.0], [287.1745887492579, 3.938278732572204], [307.78610333622805, 3.689121298063732], [329.87697769322244, 3.4303717366585933], [353.55339059327247, 3.176737901519525], [373.37951161390544, 3.0], [378.929141627598, 2.9588518014155962], [406.12619817811606, 2.818998356034476], [435.2752816480601, 2.7201927545150677], [466.5164957684015, 2.6442518833845234], [499.9999999999975, 2.5598901397584037], [535.8867312681438, 2.4269913846577236], [574.3491774985143, 2.201164195645608], [597.5135820541329, 2.0], [615.5722066724546, 1.8713509807244322], [659.7539553864432, 1.493490142192487], [707.1067811865431, 1.0253616704182749], [709.8057514335727, 1.0], [757.8582832551932, 0.6287606626412579], [812.2523963562301, 0.31437419644178644], [870.5505632961181, 0.1519158361190034], [933.0329915368008, 0.22011254863595076], [999.9999999999914, 0.5222535539838791], [1071.3583964772724, 1.0], [1071.773462536285, 1.0031910601049259], [1148.698354997026, 1.6903568397714381], [1184.8360344674218, 2.0], [1231.1444133449063, 2.4239365296383424], [1307.8852332754498, 3.0], [1319.5079107728832, 3.095100999904415], [1414.2135623730828, 3.6966068987383944], [1482.7371857687976, 4.0], [1515.7165665103828, 4.1599540439466205], [1624.5047927124563, 4.531588170430531], [1741.101126592234, 4.801153655228726], [1853.6431713704703, 5.0], [1866.065983073597, 5.025801167068279], [1999.9999999999827, 5.236808340628901], [2143.5469250725646, 5.332689847708704], [2297.396709994046, 5.24418425247606], [2403.974186966739, 5.0], [2462.2888266898035, 4.888836658793795], [2639.01582154576, 4.272317346658439], [2691.980926019712, 4.0], [2828.427124746159, 3.354708449405041], [2890.709342008284, 3.0], [3031.433133020758, 2.2172010789752137], [3069.830220850863, 2.0], [3243.578406184605, 1.0], [3249.0095854249043, 0.9711350523266326], [3440.591072852692, 0.0], [3482.2022531844596, -0.2061474862443935], [3669.1119078589613, -1.0], [3732.1319661471844, -1.261203329829633], [3957.638269829473, -2.0], [3999.9999999999554, -2.13264982371643], [4287.093850145118, -2.7558740388208895], [4442.865702580493, -3.0], [4594.7934199880865, -3.2027787689714833], [4924.577653379601, -3.4627583869517995], [5278.0316430915, -3.647963005830749], [5656.854249492303, -3.8308267685056983], [5933.337138549119, -4.0], [6062.866266041508, -4.063824737171978], [6498.019170849792, -4.324688421296656], [6964.404506368902, -4.628514923841298], [7464.2639322943505, -4.9015655638947715], [7999.999999999882, -4.983867539211312]]}",erfnpg,002,fr,200,2022-05-10_14h25.34.421,Bayesian,2022.1.1,None,
