tTrials.thisRepN,tTrials.thisTrialN,tTrials.thisN,tTrials.thisIndex,blocks.thisRepN,blocks.thisTrialN,blocks.thisN,blocks.thisIndex,trials.thisRepN,trials.thisTrialN,trials.thisN,trials.thisIndex,tStart_text.started,tStart_text.stopped,Prediction,practice_Frequency,practice_Level,practice_Psychopy_Level,practice_isCatchTrial,Practice_trial_detection,practice_Cue_Delays,practice_Cue_Frequencies,practice_Interval,practice_Cue_Intensities,tCue_visual_cue.started,tCue_visual_cue.stopped,tProbe_visual_cue.started,tProbe_visual_cue.stopped,tFeedback.keys,tFeedback.corr,tFeedback.rt,tFeedback.started,tFeedback.stopped,tToo_late.keys,tToo_late.corr,tToo_early.keys,tToo_early.corr,more_instructions.started,more_instructions.stopped,readyy.keys,readyy.rt,readyy.started,readyy.stopped,txt_rhythm.started,txt_rhythm.stopped,sound_1.started,sound_1.stopped,sound_2.started,sound_2.stopped,sound_3.started,sound_3.stopped,sound_4.started,sound_4.stopped,cross.started,cross.stopped,sound_5.started,sound_5.stopped,circle.started,circle.stopped,rhythm_ready.keys,rhythm_ready.rt,rhythm_ready.started,rhythm_ready.stopped,rhytm_ready_txt.started,rhytm_ready_txt.stopped,txt_freq.started,txt_freq.stopped,sound_6.started,sound_6.stopped,sound_7.started,sound_7.stopped,sound_8.started,sound_8.stopped,sound_9.started,sound_9.stopped,cross_2.started,cross_2.stopped,sound_10.started,sound_10.stopped,circle_2.started,circle_2.stopped,freq_ready.keys,freq_ready.rt,freq_ready.started,freq_ready.stopped,freq_ready_txt.started,freq_ready_txt.stopped,txt_freq_2.started,txt_freq_2.stopped,sound_11.started,sound_11.stopped,sound_12.started,sound_12.stopped,sound_13.started,sound_13.stopped,sound_14.started,sound_14.stopped,cross_3.started,cross_3.stopped,sound_15.started,sound_15.stopped,circle_3.started,circle_3.stopped,freq_ready_2.keys,freq_ready_2.rt,freq_ready_2.started,freq_ready_2.stopped,freq_ready_txt_2.started,freq_ready_txt_2.stopped,txt_freq_3.started,txt_freq_3.stopped,sound_16.started,sound_16.stopped,sound_17.started,sound_17.stopped,sound_18.started,sound_18.stopped,sound_19.started,sound_19.stopped,cross_4.started,cross_4.stopped,sound_20.started,sound_20.stopped,circle_4.started,circle_4.stopped,freq_ready_txt_3.started,freq_ready_txt_3.stopped,tStart_text_2.started,tStart_text_2.stopped,this_trial_is.started,this_trial_is.stopped,Frequency,Level,Psychopy_Level,Real trial detection,Cue Delays,Cue Frequencies,Interval,Cue Intensities,Catch trial,cue_visual_cue.started,cue_visual_cue.stopped,probe_visual_cue.started,probe_visual_cue.stopped,feedback.keys,feedback.corr,feedback.started,feedback.stopped,answer_too_late.keys,answer_too_late.corr,answer_too_early.keys,answer_too_early.corr,feedback.rt,answer_too_early.rt,Catch trial answer,answer_too_late.rt,Audiogram_time,Audiogram_frequency,Audiogram_none,Audiogram_both,participant,session,Language (english or french),Skip training? (1 for yes),Resume previous experiment,date,expName,psychopyVersion,frameRate,
0,0,0,0,,,,,,,,,24.852181300026132,None,none,1000,30,0.0013930605843148849,False,1,"[0.5925080426331585, 0.45656658039527065, 0.7665171309702145, 0.4933795614011005]","[6701.603397031935, 922.5091778799288, 1300.5302944242032, 733.4768231784648]",None,"[30, 30, 30, 30]",61.32132640000782,64.07310420001158,64.07310420001158,65.28616540000075,['space'],1,[0.8489293999737129],64.07310420001158,65.77521300001536,None,1,None,1,,,,,,,,,,,,,,,,,,,,,,,,,,,,,,,,,,,,,,,,,,,,,,,,,,,,,,,,,,,,,,,,,,,,,,,,,,,,,,,,,,,,,,,,,,,,,,,,,,,,,,,,,,,,,,,,,,,,,,,,,,,,ofgjwt,001,fr,0,0,2022-04-27_16h43.45.386,Cluster,2022.1.1,35.98645901557145,
1,0,1,0,,,,,,,,,,,frequency,2500,30,0.002716251657462167,False,1,"[0.4205089613817471, 0.48242757051513796, 0.7550271392754792, 0.4517921984767099]","[6299.605249474367, 5000.000000000001, 3968.502629920499, 3149.802624737183]",Major_3rd,"[30, 30, 30, 30]",74.4686993000214,77.05950270002359,77.05950270002359,78.2719959000242,['space'],1,[0.583272899966687],77.05950270002359,78.73354560000007,None,1,None,1,,,,,,,,,,,,,,,,,,,,,,,,,,,,,,,,,,,,,,,,,,,,,,,,,,,,,,,,,,,,,,,,,,,,,,,,,,,,,,,,,,,,,,,,,,,,,,,,,,,,,,,,,,,,,,,,,,,,,,,,,,,,ofgjwt,001,fr,0,0,2022-04-27_16h43.45.386,Cluster,2022.1.1,35.98645901557145,
2,0,2,0,,,,,,,,,,,frequency,6000,30,0.003664122665694519,True,0,"[0.427621736556519, 0.7417516362776253, 0.6192245984822932, 0.597620625125029]","[3779.7631496846193, 4242.640687119285, 4762.203155904598, 5345.392308842036]",Tone,"[30, 30, 30, 30]",81.37597570000798,84.0950426000054,84.0950426000054,85.31050690001575,['space'],0,[0.5082319999637548],84.0950426000054,85.91977410000982,None,1,None,1,,,,,,,,,,,,,,,,,,,,,,,,,,,,,,,,,,,,,,,,,,,,,,,,,,,,,,,,,,,,,,,,,,,,,,,,,,,,,,,,,,,,,,,,,,,,,,,,,,,,,,,,,,,,,,,,,,,,,,,,,,,,ofgjwt,001,fr,0,0,2022-04-27_16h43.45.386,Cluster,2022.1.1,35.98645901557145,
3,0,3,0,,,,,,,,,,,time,440,30,0.0023562289915021436,False,1,"[0.47881149800044853, 0.47881149800044853, 0.47881149800044853, 0.47881149800044853]","[782.6319197476098, 4621.689635647393, 1769.8030149019344, 861.1339930577208]",None,"[30, 30, 30, 30]",91.2024963000149,93.56674340000609,93.56674340000609,94.7967640000279,['space'],1,[1.1001368999714032],93.56674340000609,95.24805680001737,None,1,None,1,,,,,,,,,,,,,,,,,,,,,,,,,,,,,,,,,,,,,,,,,,,,,,,,,,,,,,,,,,,,,,,,,,,,,,,,,,,,,,,,,,,,,,,,,,,,,,,,,,,,,,,,,,,,,,,,,,,,,,,,,,,,ofgjwt,001,fr,0,0,2022-04-27_16h43.45.386,Cluster,2022.1.1,35.98645901557145,
4,0,4,0,,,,,,,,,,,time,250,30,0.005296268625886445,True,1,"[0.45884379456388624, 0.45884379456388624, 0.45884379456388624, 0.45884379456388624]","[629.7999616093368, 3427.2978235858823, 151.1904037113727, 769.1132648891995]",None,"[30, 30, 30, 30]",98.00874700001441,100.30708680002135,100.30708680002135,101.5178415000264,None,1,,100.30708680002135,101.98331740000867,None,1,None,1,,,,,,,,,,,,,,,,,,,,,,,,,,,,,,,,,,,,,,,,,,,,,,,,,,,,,,,,,,,,,,,,,,,,,,,,,,,,,,,,,,,,,,,,,,,,,,,,,,,,,,,,,,,,,,,,,,,,,,,,,,,,ofgjwt,001,fr,0,0,2022-04-27_16h43.45.386,Cluster,2022.1.1,35.98645901557145,
,,,,,,,,,,,,,,,,,,,,,,,,,,,,,,,,,,,,,106.16778960000374,None,space,65.28154869997525,106.16778960000374,None,,,,,,,,,,,,,,,,,,,,,,,,,,,,,,,,,,,,,,,,,,,,,,,,,,,,,,,,,,,,,,,,,,,,,,,,,,,,,,,,,,,,,,,,,,,,,,,,,,,,,,,,,,,,,,,,,,,,,,ofgjwt,001,fr,0,0,2022-04-27_16h43.45.386,Cluster,2022.1.1,35.98645901557145,
,,,,,,,,,,,,,,,,,,,,,,,,,,,,,,,,,,,,,,,,,,,171.49376350000966,172.51595070000621,172.9489281000104,None,173.46875700000675,173.6856048000045,173.94776079999866,174.17735080001876,174.4469636000111,None,172.86562850000337,174.6691449000209,174.95352290001466,None,174.6691449000209,175.47619990000385,space,7.285855799971614,175.6521236000117,None,,,,,,,,,,,,,,,,,,,,,,,,,,,,,,,,,,,,,,,,,,,,,,,,,,,,,,,,,,,,,,,,,,,,,,,,,,,,,,,,,,,,,,,,,,,,,,,,,,ofgjwt,001,fr,0,0,2022-04-27_16h43.45.386,Cluster,2022.1.1,35.98645901557145,
,,,,,,,,,,,,,,,,,,,,,,,,,,,,,,,,,,,,,,,,,,,,,,,,,,,,,,,,,,,,,,,175.6521236000117,None,183.00545330002205,184.01438760000747,184.46106330000913,None,184.76542990001036,None,185.45990260001855,None,185.86374950002647,None,184.36966470000334,186.1735896000173,186.47040770000314,None,186.1735896000173,186.9935228000104,space,3.2473229999595787,187.16425170001457,None,,,,,,,,,,,,,,,,,,,,,,,,,,,,,,,,,,,,,,,,,,,,,,,,,,,,,,,,,,,,,,,,,,,,,,,,,,,,ofgjwt,001,fr,0,0,2022-04-27_16h43.45.386,Cluster,2022.1.1,35.98645901557145,
,,,,,,,,,,,,,,,,,,,,,,,,,,,,,,,,,,,,,,,,,,,,,,,,,,,,,,,,,,,,,,,,,,,,,,,,,,,,,,,,,,,,,187.16425170001457,None,190.48014760002843,191.50783080002293,191.94445920000436,None,192.43063680002234,192.65024200000335,192.93489100002336,None,193.430888100015,None,191.83138790001976,193.65260940001463,193.92701070000186,194.14473090000683,193.65260940001463,194.48172870001872,space,2.770780799968634,194.6319714000274,None,,,,,,,,,,,,,,,,,,,,,,,,,,,,,,,,,,,,,,,,,,,,,,,,,,,,,,ofgjwt,001,fr,0,0,2022-04-27_16h43.45.386,Cluster,2022.1.1,35.98645901557145,
,,,,0,0,0,0,0,0,0,0,,,frequency,,,,,,,,,,,,,,,,,,,,,,,,,,,,,,,,,,,,,,,,,,,,,,,,,,,,,,,,,,,,,,,,,,,,,,,,,,,,,,,,,,,,,,,,,,,,,194.6319714000274,None,197.43955160002224,198.45124850000138,198.89733200000484,199.114275800006,199.19770860000864,199.42292100001941,199.91892340000487,200.13753680000082,200.30774300002378,200.52335610002046,198.8085837000108,200.62180079999962,200.89528580002371,201.12540420002188,200.62180079999962,201.4343433000031,201.60959920001915,None,202.63455200000317,None,255.58082010000362,None,215.07733539186785,5.767674517343375,0.00045826524959263065,0,"[0.518734248347967, 0.7492653244011879, 0.6141090793168815, 0.7975448268811681]","[341.41398845556836, 304.1652846702464, 270.9804622155139, 241.416146428878]",Tone,"[12.633888727792076, 12.692802249890509, 12.411447692845933, 12.0]",False,256.5699679000245,259.47600640001474,259.47600640001474,260.6806411000143,None,0,3.6990112000203226,4.722982500010403,None,1,None,1,,,,,,,,,ofgjwt,001,fr,0,0,2022-04-27_16h43.45.386,Cluster,2022.1.1,35.98645901557145,
,,,,0,0,0,0,1,0,1,0,,,both,,,,,,,,,,,,,,,,,,,,,,,,,,,,,,,,,,,,,,,,,,,,,,,,,,,,,,,,,,,,,,,,,,,,,,,,,,,,,,,,,,,,,,,,,,,,,,,,,,,,,,,,,,,,,,,,,,,261.3252902000095,None,456.7499312830793,5.224919305042747,0.00013441447883502026,1,"[0.6558121384605402, 0.6558121384605402, 0.6558121384605402, 0.6558121384605402]","[181.26133035129078, 228.37496564153972, 287.7344264807943, 362.5226607025815]",Major_3rd,"[12.635602034081144, 11.891341302813132, 12.613922452999732, 12.46127946129036]",False,262.34155820001615,265.3602277000027,265.3602277000027,266.58575880000717,['space'],1,3.6478459000063594,4.65767399998731,None,1,['space'],0,[0.32645339996088296],[-3.9254199000133667],,,,,,,ofgjwt,001,fr,0,0,2022-04-27_16h43.45.386,Cluster,2022.1.1,35.98645901557145,
,,,,0,0,0,0,2,0,2,0,,,both,,,,,,,,,,,,,,,,,,,,,,,,,,,,,,,,,,,,,,,,,,,,,,,,,,,,,,,,,,,,,,,,,,,,,,,,,,,,,,,,,,,,,,,,,,,,,,,,,,,,,,,,,,,,,,,,,,,267.02970680000726,None,353.5533905932738,0.0,8.861233020703779e-05,1,"[0.5590858909051009, 0.5590858909051009, 0.5590858909051009, 0.5590858909051009]","[1781.7974362806788, 1189.2071150027211, 793.7005259840998, 529.7315471796477]",Perfect_5th,"[5.0, 7.0, 4.060577118408513, 10.01701877723087]",False,268.51899170002434,271.21458700002404,271.21458700002404,272.4247313000087,['space'],1,3.2481633999559563,4.274263199942652,None,1,None,1,[0.2976082999666687],,,,,,,,ofgjwt,001,fr,0,0,2022-04-27_16h43.45.386,Cluster,2022.1.1,35.98645901557145,
,,,,0,0,0,0,3,0,3,0,,,both,,,,,,,,,,,,,,,,,,,,,,,,,,,,,,,,,,,,,,,,,,,,,,,,,,,,,,,,,,,,,,,,,,,,,,,,,,,,,,,,,,,,,,,,,,,,,,,,,,,,,,,,,,,,,,,,,,,272.8313402000058,None,,,,,"[0.5885711045979136, 0.5885711045979136, 0.5885711045979136, 0.5885711045979136]","[543.7884099719176, 685.1304644124822, 863.2102940375365, 1087.576819943835]",Major_3rd,"[10.0, 6.0, 3.891779487324177, 6.0]",True,273.840955200023,276.63439990000916,276.63439990000916,277.85688330000266,['space'],0,3.3941102999961004,4.392583100008778,None,1,None,1,[0.23392999998759478],,0,,,,,,ofgjwt,001,fr,0,0,2022-04-27_16h43.45.386,Cluster,2022.1.1,35.98645901557145,
,,,,0,0,0,0,4,0,4,0,,,none,,,,,,,,,,,,,,,,,,,,,,,,,,,,,,,,,,,,,,,,,,,,,,,,,,,,,,,,,,,,,,,,,,,,,,,,,,,,,,,,,,,,,,,,,,,,,,,,,,,,,,,,,,,,,,,,,,,278.2687435000262,None,243.89161179442277,6.0,0.0003580502473667202,1,"[0.434772670155668, 0.4045416580662149, 0.7997106206046093, 0.7281721572118646]","[496.9946334457229, 447.1582663744516, 228.42120764876944, 907.1822882422983]",None,"[10.711014651906595, 11.6079989710239, 11.891341302813132, 4.0]",False,279.2787233000272,281.9433470000222,281.9433470000222,283.15896630001953,['space'],1,3.411035199998878,4.411764799995581,None,1,None,1,[0.3782721999741625],,,,,,,,ofgjwt,001,fr,0,0,2022-04-27_16h43.45.386,Cluster,2022.1.1,35.98645901557145,
,,,,0,0,0,0,5,0,5,0,,,none,,,,,,,,,,,,,,,,,,,,,,,,,,,,,,,,,,,,,,,,,,,,,,,,,,,,,,,,,,,,,,,,,,,,,,,,,,,,,,,,,,,,,,,,,,,,,,,,,,,,,,,,,,,,,,,,,,,283.71908410001197,None,353.5533905932738,-2.0,7.038727582816145e-05,1,"[0.676177083440944, 0.5735993796703655, 0.4570452803447344, 0.577987161311734]","[919.291776006256, 5352.179701904761, 314.1774416018861, 5467.230376826188]",None,"[4.187791949715262, -7.737642093698149, 12.692802249890509, -7.737642093698149]",False,285.70833980001044,288.442286400008,288.442286400008,289.6625313000113,['space'],1,3.3113502999185584,4.3207331999146845,None,1,None,1,[0.489923099958105],,,,,,,,ofgjwt,001,fr,0,0,2022-04-27_16h43.45.386,Cluster,2022.1.1,35.98645901557145,
,,,,0,0,0,0,6,0,6,0,,,both,,,,,,,,,,,,,,,,,,,,,,,,,,,,,,,,,,,,,,,,,,,,,,,,,,,,,,,,,,,,,,,,,,,,,,,,,,,,,,,,,,,,,,,,,,,,,,,,,,,,,,,,,,,,,,,,,,,290.0487673000025,None,3754.930303091536,-8.0,3.170454729525101e-05,1,"[0.42159230066473036, 0.42159230066473036, 0.42159230066473036, 0.42159230066473036]","[745.0725391493469, 1116.3474581939447, 1672.6312968652826, 2506.1153090986745]",Perfect_5th,"[5.0, 6.0, 6.0, 2.2619426833123955]",False,291.0404125000059,293.3551381000143,293.3551381000143,294.5899610000197,['space'],1,2.7276772999903187,3.7468202999734785,None,1,None,1,[0.4364363999629859],,,,,,,,ofgjwt,001,fr,0,0,2022-04-27_16h43.45.386,Cluster,2022.1.1,35.98645901557145,
,,,,0,0,0,0,7,0,7,0,,,none,,,,,,,,,,,,,,,,,,,,,,,,,,,,,,,,,,,,,,,,,,,,,,,,,,,,,,,,,,,,,,,,,,,,,,,,,,,,,,,,,,,,,,,,,,,,,,,,,,,,,,,,,,,,,,,,,,,294.8373867000046,None,,,,,"[0.5843073490704253, 0.7279715837434197, 0.5862563463796009, 0.4408404488807773]","[2254.0552828656723, 1502.9926339418441, 690.5110814104652, 299.0573555159253]",None,"[2.4582237535051696, 7.070959241853986, 6.0, 12.692802249890509]",True,295.84948010000517,298.757585400017,298.757585400017,299.9729445000121,['space'],0,3.3687444999814034,4.389656599989394,None,1,None,1,[0.6817395999678411],,0,,,,,,ofgjwt,001,fr,0,0,2022-04-27_16h43.45.386,Cluster,2022.1.1,35.98645901557145,
,,,,0,0,0,0,8,0,8,0,,,time,,,,,,,,,,,,,,,,,,,,,,,,,,,,,,,,,,,,,,,,,,,,,,,,,,,,,,,,,,,,,,,,,,,,,,,,,,,,,,,,,,,,,,,,,,,,,,,,,,,,,,,,,,,,,,,,,,,300.2717905000027,None,658.0628403162206,0.80272692949871,5.341936107517908e-05,1,"[0.6256628752792573, 0.6256628752792573, 0.6256628752792573, 0.6256628752792573]","[4311.126031985848, 319.80928655817814, 182.53034337822328, 2227.1074061424315]",None,"[-5.0, 12.633888727792076, 12.635602034081144, 2.4582237535051696]",False,301.26110750000225,304.1515688000072,304.1515688000072,305.3645845000283,['space'],1,3.548410299990792,4.572150699998019,None,1,None,1,[0.3556100999703631],,,,,,,,ofgjwt,001,fr,0,0,2022-04-27_16h43.45.386,Cluster,2022.1.1,35.98645901557145,
,,,,0,0,0,0,9,0,9,0,,,time,,,,,,,,,,,,,,,,,,,,,,,,,,,,,,,,,,,,,,,,,,,,,,,,,,,,,,,,,,,,,,,,,,,,,,,,,,,,,,,,,,,,,,,,,,,,,,,,,,,,,,,,,,,,,,,,,,,305.860184500023,None,353.5533905932738,-2.0,7.038727582816145e-05,1,"[0.7681457718299401, 0.7681457718299401, 0.7681457718299401, 0.7681457718299401]","[2692.0929877081708, 5663.72425216685, 514.5914805983429, 296.8334677879679]",None,"[2.0, -7.305837667111589, 10.711014651906595, 12.613922452999732]",False,307.61646630000905,310.95209360000445,310.95209360000445,312.1711640000285,['space'],1,4.10608379993937,5.107944299932569,None,1,None,1,[0.3800032999715768],,,,,,,,ofgjwt,001,fr,0,0,2022-04-27_16h43.45.386,Cluster,2022.1.1,35.98645901557145,
,,,,0,0,0,0,10,0,10,0,,,both,,,,,,,,,,,,,,,,,,,,,,,,,,,,,,,,,,,,,,,,,,,,,,,,,,,,,,,,,,,,,,,,,,,,,,,,,,,,,,,,,,,,,,,,,,,,,,,,,,,,,,,,,,,,,,,,,,,312.7692748000263,None,2143.5469250725882,-1.0,6.951207121178725e-05,1,"[0.7162569965123435, 0.7162569965123435, 0.7162569965123435, 0.7162569965123435]","[1350.3499461681909, 1515.7165665103992, 1701.3343219017127, 1909.6832078208347]",Tone,"[7.674896035970219, 7.070959241853986, 5.253629396202419, 4.0]",False,313.78495090000797,316.9441307000234,316.9441307000234,318.1435677000263,['space'],1,3.8773036999918986,4.907984099991154,None,1,None,1,[0.4295084999757819],,,,,,,,ofgjwt,001,fr,0,0,2022-04-27_16h43.45.386,Cluster,2022.1.1,35.98645901557145,
,,,,0,0,0,0,11,0,11,0,,,both,,,,,,,,,,,,,,,,,,,,,,,,,,,,,,,,,,,,,,,,,,,,,,,,,,,,,,,,,,,,,,,,,,,,,,,,,,,,,,,,,,,,,,,,,,,,,,,,,,,,,,,,,,,,,,,,,,,318.7397022000223,None,,,,,"[0.726444144747634, 0.726444144747634, 0.726444144747634, 0.726444144747634]","[1240.3811432443565, 1392.2807587303823, 1562.782312266233, 1754.163835288014]",Tone,"[7.33586302511102, 7.582715715090722, 7.0, 5.253629396202419]",True,319.73134000002756,322.9446664000279,322.9446664000279,324.1556875000242,['space'],0,3.9463132999953814,4.955999500001781,None,1,None,1,[0.7673229999782052],,0,,,,,,ofgjwt,001,fr,0,0,2022-04-27_16h43.45.386,Cluster,2022.1.1,35.98645901557145,
,,,,0,0,0,0,12,0,12,0,,,none,,,,,,,,,,,,,,,,,,,,,,,,,,,,,,,,,,,,,,,,,,,,,,,,,,,,,,,,,,,,,,,,,,,,,,,,,,,,,,,,,,,,,,,,,,,,,,,,,,,,,,,,,,,,,,,,,,,324.71402320000925,None,807.9551535666376,-1.9394228815914873,3.087099400223533e-05,1,"[0.6790900839271018, 0.7303982075861798, 0.6508296022605891, 0.670597135457832]","[662.7858480210878, 2508.567700439657, 1093.157713975483, 554.5691910692965]",None,"[6.80272692949871, 2.2619426833123955, 6.0, 10.0]",False,325.72438240001793,328.8232741000247,328.8232741000247,330.0523188000079,['space'],1,3.7755538999917917,4.792566299991449,None,1,None,1,[0.24039489997085184],,,,,,,,ofgjwt,001,fr,0,0,2022-04-27_16h43.45.386,Cluster,2022.1.1,35.98645901557145,
,,,,0,0,0,0,13,0,13,0,,,none,,,,,,,,,,,,,,,,,,,,,,,,,,,,,,,,,,,,,,,,,,,,,,,,,,,,,,,,,,,,,,,,,,,,,,,,,,,,,,,,,,,,,,,,,,,,,,,,,,,,,,,,,,,,,,,,,,,330.551268900017,None,2462.2888266898335,0.0,8.505946547995337e-05,1,"[0.469577892173106, 0.73856965410739, 0.6949586193446218, 0.742073551946194]","[5128.605704427855, 315.68466147825836, 322.7755328081938, 447.7431794901417]",None,"[-7.737642093698149, 12.692802249890509, 12.633888727792076, 11.6079989710239]",False,332.238467600022,335.15804960002424,335.15804960002424,336.3619349000219,['space'],1,3.667096199991647,4.689325099985581,None,1,None,1,[0.33016059998772107],,,,,,,,ofgjwt,001,fr,0,0,2022-04-27_16h43.45.386,Cluster,2022.1.1,35.98645901557145,
,,,,0,0,0,0,14,0,14,0,,,both,,,,,,,,,,,,,,,,,,,,,,,,,,,,,,,,,,,,,,,,,,,,,,,,,,,,,,,,,,,,,,,,,,,,,,,,,,,,,,,,,,,,,,,,,,,,,,,,,,,,,,,,,,,,,,,,,,,336.97780610001064,None,682.3675842313062,0.0,4.6572394845050983e-05,1,"[0.6729700695742379, 0.6729700695742379, 0.6729700695742379, 0.6729700695742379]","[135.3988776297218, 202.86909655377195, 303.96020304609533, 455.4257233128377]",Perfect_5th,"[14.50595197061979, 11.84221032185445, 12.692802249890509, 11.224919305042746]",False,337.97573630002444,341.0269756000198,341.0269756000198,342.2535479000071,['space'],1,3.7183969999896362,4.747690499993041,None,1,None,1,[0.42999909998616204],,,,,,,,ofgjwt,001,fr,0,0,2022-04-27_16h43.45.386,Cluster,2022.1.1,35.98645901557145,
,,,,0,0,0,0,15,0,15,0,,,frequency,,,,,,,,,,,,,,,,,,,,,,,,,,,,,,,,,,,,,,,,,,,,,,,,,,,,,,,,,,,,,,,,,,,,,,,,,,,,,,,,,,,,,,,,,,,,,,,,,,,,,,,,,,,,,,,,,,,342.7738212000113,None,,,,,"[0.4006327623529281, 0.5299195878366785, 0.40220470418568466, 0.43261014733537995]","[7926.468496994004, 7061.68062335174, 6291.242215260537, 5604.859625086001]",Tone,"[3.0, -1.0, -5.0, -7.305837667111589]",True,343.7774794000143,346.1298951000208,346.1298951000208,347.36424439999973,None,1,2.815600000001723,3.84978340001544,None,1,None,1,,,0,,,,,,ofgjwt,001,fr,0,0,2022-04-27_16h43.45.386,Cluster,2022.1.1,35.98645901557145,
,,,,0,0,0,0,16,0,16,0,,,frequency,,,,,,,,,,,,,,,,,,,,,,,,,,,,,,,,,,,,,,,,,,,,,,,,,,,,,,,,,,,,,,,,,,,,,,,,,,,,,,,,,,,,,,,,,,,,,,,,,,,,,,,,,,,,,,,,,,,347.66741930000717,None,378.9291416275994,0.0,8.202455723840657e-05,1,"[0.4775336590004917, 0.44816951250626147, 0.488603715726571, 0.4118973762973924]","[150.37812951026456, 189.46457081379972, 238.71040097760408, 300.75625902052906]",Major_3rd,"[14.0, 12.145326944620653, 12.0, 12.692802249890509]",False,348.6995346000185,351.1334066000127,351.1334066000127,352.3680071000126,['space'],1,2.8418593000096735,3.8547454999934416,None,1,['space'],0,[0.3929111999750603],[-3.4435342000215314],,,,,,,ofgjwt,001,fr,0,0,2022-04-27_16h43.45.386,Cluster,2022.1.1,35.98645901557145,
,,,,0,0,0,0,17,0,17,0,,,both,,,,,,,,,,,,,,,,,,,,,,,,,,,,,,,,,,,,,,,,,,,,,,,,,,,,,,,,,,,,,,,,,,,,,,,,,,,,,,,,,,,,,,,,,,,,,,,,,,,,,,,,,,,,,,,,,,,352.61385580000933,None,1319.5079107728945,-4.0,3.3304181786869376e-05,1,"[0.6726196724112439, 0.6726196724112439, 0.6726196724112439, 0.6726196724112439]","[523.6470614103137, 659.7539553864475, 831.2378961427881, 1047.294122820627]",Major_3rd,"[10.01701877723087, 6.80272692949871, 4.0, 5.7389287608496184]",False,353.637649900018,356.6728581000061,356.6728581000061,357.90545170000405,['space'],1,3.7222320000000764,4.761128899990581,None,1,None,1,[0.3348105999757536],,,,,,,,ofgjwt,001,fr,0,0,2022-04-27_16h43.45.386,Cluster,2022.1.1,35.98645901557145,
,,,,0,0,0,0,18,0,18,0,,,frequency,,,,,,,,,,,,,,,,,,,,,,,,,,,,,,,,,,,,,,,,,,,,,,,,,,,,,,,,,,,,,,,,,,,,,,,,,,,,,,,,,,,,,,,,,,,,,,,,,,,,,,,,,,,,,,,,,,,358.4548140000261,None,185.4620114039197,6.145326944620652,0.000645988436309283,1,"[0.6067425283252206, 0.47900772076480114, 0.4978575124081198, 0.4739016889021841]","[934.6699684945659, 623.8173622211984, 416.34813840804, 277.8790441782767]",Perfect_5th,"[4.187791949715262, 8.0, 11.926694878212647, 12.613922452999732]",False,359.4601738000056,362.0776203000278,362.0776203000278,363.3153770000208,['space'],1,3.08420529999421,4.121998199989321,None,1,None,1,[0.5406759999750648],,,,,,,,ofgjwt,001,fr,0,0,2022-04-27_16h43.45.386,Cluster,2022.1.1,35.98645901557145,
,,,,0,0,0,0,19,0,19,0,,,time,,,,,,,,,,,,,,,,,,,,,,,,,,,,,,,,,,,,,,,,,,,,,,,,,,,,,,,,,,,,,,,,,,,,,,,,,,,,,,,,,,,,,,,,,,,,,,,,,,,,,,,,,,,,,,,,,,,363.6291430000274,None,316.637274040923,6.6928022498905095,0.00021219458111645364,1,"[0.528539565724021, 0.528539565724021, 0.528539565724021, 0.528539565724021]","[441.9210804684788, 3980.997539133417, 388.0578713134291, 162.42017027505142]",None,"[11.6079989710239, -3.3692651329855767, 12.215520051168408, 13.238881238214129]",False,364.6322598000115,367.2509539000166,367.2509539000166,368.4829901000194,['space'],1,3.1578882999892812,4.190148699999554,None,1,None,1,[0.6711031999730039],,,,,,,,ofgjwt,001,fr,0,0,2022-04-27_16h43.45.386,Cluster,2022.1.1,35.98645901557145,
,,,,1,0,1,0,0,0,0,0,,,both,,,,,,,,,,,,,,,,,,,,,,,,,,,,,,,,,,,,,,,,,,,,,,,,,,,,,,,,,,,,,,,,,,,,,,,,,,,,,,,,,,,,,,,,,,,,,,,,,,,,,,,,,,,,,,,,,,,379.1687129000202,None,,,,,"[0.4118857610209415, 0.4118857610209415, 0.4118857610209415, 0.4118857610209415]","[237.71386505373806, 299.50070243307385, 377.34723945373037, 475.42773010747607]",Major_3rd,"[12.0, 12.692802249890509, 12.215520051168408, 11.0]",True,380.1460994000081,382.40285250000306,382.40285250000306,383.62799080001423,['space'],0,2.6901163999864366,3.705287699965993,None,1,None,1,[0.5681935999600682],,0,,,,,,ofgjwt,001,fr,0,0,2022-04-27_16h43.45.386,Cluster,2022.1.1,35.98645901557145,
,,,,1,0,1,0,1,0,1,0,,,none,,,,,,,,,,,,,,,,,,,,,,,,,,,,,,,,,,,,,,,,,,,,,,,,,,,,,,,,,,,,,,,,,,,,,,,,,,,,,,,,,,,,,,,,,,,,,,,,,,,,,,,,,,,,,,,,,,,383.8896537000255,None,2243.0833796569977,-3.5417762464948304,5.3344182494800165e-05,0,"[0.7640245501884623, 0.4045237388675651, 0.7124571631246581, 0.4998665797735862]","[142.07093689461777, 296.53827187620914, 3302.612716668757, 3765.4354100451565]",None,"[14.285385275557555, 12.613922452999732, 0.7330606016354322, -2.0]",False,384.89023650001036,387.8072083000152,387.8072083000152,389.03919070001575,None,0,3.4165292999823578,4.4560271999798715,None,1,None,1,,,,,,,,,ofgjwt,001,fr,0,0,2022-04-27_16h43.45.386,Cluster,2022.1.1,35.98645901557145,
,,,,1,0,1,0,2,0,2,0,,,time,,,,,,,,,,,,,,,,,,,,,,,,,,,,,,,,,,,,,,,,,,,,,,,,,,,,,,,,,,,,,,,,,,,,,,,,,,,,,,,,,,,,,,,,,,,,,,,,,,,,,,,,,,,,,,,,,,,389.3910791000235,None,2462.2888266898335,0.0,8.505946547995337e-05,1,"[0.7983779093398473, 0.7983779093398473, 0.7983779093398473, 0.7983779093398473]","[5931.618786110831, 6436.780907351912, 6311.818790262137, 369.88998672035655]",None,"[-6.083539334766696, -4.185113103192911, -5.0, 12.215520051168408]",False,390.4097135000047,393.84322980002617,393.84322980002617,395.0830965000205,['space'],1,4.2490451999765355,5.282884999964153,None,1,None,1,[0.5334222999517806],,,,,,,,ofgjwt,001,fr,0,0,2022-04-27_16h43.45.386,Cluster,2022.1.1,35.98645901557145,
,,,,1,0,1,0,3,0,3,0,,,time,,,,,,,,,,,,,,,,,,,,,,,,,,,,,,,,,,,,,,,,,,,,,,,,,,,,,,,,,,,,,,,,,,,,,,,,,,,,,,,,,,,,,,,,,,,,,,,,,,,,,,,,,,,,,,,,,,,395.7238772000128,None,6877.513875403893,-8.0,5.8726301257303215e-05,1,"[0.6827983398775872, 0.6827983398775872, 0.6827983398775872, 0.6827983398775872]","[359.50912938249394, 1182.5126800198504, 267.54629318307076, 4939.28101378511]",None,"[12.46127946129036, 7.0, 12.411447692845933, -7.407129935038894]",False,396.73498490001657,399.81997890002094,399.81997890002094,401.0522402000206,['space'],1,3.749856699985685,4.785309399972903,None,1,None,1,[0.45565519997035153],,,,,,,,ofgjwt,001,fr,0,0,2022-04-27_16h43.45.386,Cluster,2022.1.1,35.98645901557145,
,,,,1,0,1,0,4,0,4,0,,,none,,,,,,,,,,,,,,,,,,,,,,,,,,,,,,,,,,,,,,,,,,,,,,,,,,,,,,,,,,,,,,,,,,,,,,,,,,,,,,,,,,,,,,,,,,,,,,,,,,,,,,,,,,,,,,,,,,,401.5731531000056,None,1319.5079107728945,-3.0,3.7367906570294796e-05,0,"[0.6524364476158118, 0.5567005637525779, 0.741951446818928, 0.7711301704926794]","[2902.049438360649, 2200.1201767225257, 5182.885239242603, 548.1115367416014]",None,"[1.901561825943622, 2.8271288358007522, -7.737642093698149, 10.0]",False,402.5868047000258,405.55959540000185,405.55959540000185,406.7674400000251,None,0,3.7530254000157584,4.777313600003254,None,1,None,1,,,,,,,,,ofgjwt,001,fr,0,0,2022-04-27_16h43.45.386,Cluster,2022.1.1,35.98645901557145,
,,,,1,0,1,0,5,0,5,0,,,frequency,,,,,,,,,,,,,,,,,,,,,,,,,,,,,,,,,,,,,,,,,,,,,,,,,,,,,,,,,,,,,,,,,,,,,,,,,,,,,,,,,,,,,,,,,,,,,,,,,,,,,,,,,,,,,,,,,,,407.4108158000163,None,,,,,"[0.694915934693588, 0.685824599693852, 0.5995707533088677, 0.696253771842531]","[132.1534448638732, 148.3372264130429, 166.50290700011539, 186.89319404081456]",Tone,"[14.50595197061979, 14.0, 13.238881238214129, 12.145326944620653]",True,408.42641790001653,411.4225335000083,411.4225335000083,412.6468748000043,None,1,3.6975819999934174,4.706215199985309,None,1,None,1,,,0,,,,,,ofgjwt,001,fr,0,0,2022-04-27_16h43.45.386,Cluster,2022.1.1,35.98645901557145,
,,,,1,0,1,0,6,0,6,0,,,time,,,,,,,,,,,,,,,,,,,,,,,,,,,,,,,,,,,,,,,,,,,,,,,,,,,,,,,,,,,,,,,,,,,,,,,,,,,,,,,,,,,,,,,,,,,,,,,,,,,,,,,,,,,,,,,,,,,413.17516350001097,None,1414.213562373095,-3.0,3.570336253224866e-05,1,"[0.6585137329898593, 0.6585137329898593, 0.6585137329898593, 0.6585137329898593]","[712.056462090167, 248.1651520528022, 1251.6547362473711, 301.89338173831277]",None,"[5.63663289417287, 12.140918769099049, 7.33586302511102, 12.692802249890509]",False,414.2057479000068,417.20551500000875,417.20551500000875,418.4267991000088,['space'],1,3.642274699988775,4.675078699976439,None,1,None,1,[0.419735799980117],,,,,,,,ofgjwt,001,fr,0,0,2022-04-27_16h43.45.386,Cluster,2022.1.1,35.98645901557145,
,,,,1,0,1,0,7,0,7,0,,,both,,,,,,,,,,,,,,,,,,,,,,,,,,,,,,,,,,,,,,,,,,,,,,,,,,,,,,,,,,,,,,,,,,,,,,,,,,,,,,,,,,,,,,,,,,,,,,,,,,,,,,,,,,,,,,,,,,,418.9388418000017,None,380.8998067948373,6.215520051168409,0.00016672573444514755,1,"[0.7028860860542498, 0.7028860860542498, 0.7028860860542498, 0.7028860860542498]","[239.95184224085284, 269.3368363372752, 302.3203770003043, 339.3431496134234]",Tone,"[12.0, 12.411447692845933, 12.692802249890509, 12.633888727792076]",False,419.9488607000094,423.09103950002464,423.09103950002464,424.30334040001617,['space'],1,3.853890099999262,4.886623700003838,None,1,None,1,[0.4492622999823652],,,,,,,,ofgjwt,001,fr,0,0,2022-04-27_16h43.45.386,Cluster,2022.1.1,35.98645901557145,
,,,,1,0,1,0,8,0,8,0,,,both,,,,,,,,,,,,,,,,,,,,,,,,,,,,,,,,,,,,,,,,,,,,,,,,,,,,,,,,,,,,,,,,,,,,,,,,,,,,,,,,,,,,,,,,,,,,,,,,,,,,,,,,,,,,,,,,,,,424.8723134000029,None,164.93848884661182,7.0,0.0008801206631839937,1,"[0.58820637111623, 0.58820637111623, 0.58820637111623, 0.58820637111623]","[261.82353070515677, 233.25824788420192, 207.809474035697, 185.13719403582058]",Tone,"[12.411447692845933, 11.891341302813132, 11.84221032185445, 12.145326944620653]",False,426.80078220000723,429.59385540001676,429.59385540001676,430.81409650002024,['space'],1,3.3564819999446627,4.383003399969311,None,1,None,1,[0.56141439997009],,,,,,,,ofgjwt,001,fr,0,0,2022-04-27_16h43.45.386,Cluster,2022.1.1,35.98645901557145,
,,,,1,0,1,0,9,0,9,0,,,none,,,,,,,,,,,,,,,,,,,,,,,,,,,,,,,,,,,,,,,,,,,,,,,,,,,,,,,,,,,,,,,,,,,,,,,,,,,,,,,,,,,,,,,,,,,,,,,,,,,,,,,,,,,,,,,,,,,431.2272815000033,None,,,,,"[0.7643792850703465, 0.6358118726526127, 0.5212635111485877, 0.43958947396247744]","[1704.577864159022, 4087.0020427248564, 1197.4977349396481, 2495.377176263733]",None,"[5.253629396202419, -4.0, 7.0, 2.2619426833123955]",True,432.2226981000276,435.16764650002006,435.16764650002006,436.38318310002796,['space'],0,3.396868399984669,4.3989329999894835,None,1,None,1,[0.7605587999569252],,0,,,,,,ofgjwt,001,fr,0,0,2022-04-27_16h43.45.386,Cluster,2022.1.1,35.98645901557145,
,,,,1,0,1,0,10,0,10,0,,,time,,,,,,,,,,,,,,,,,,,,,,,,,,,,,,,,,,,,,,,,,,,,,,,,,,,,,,,,,,,,,,,,,,,,,,,,,,,,,,,,,,,,,,,,,,,,,,,,,,,,,,,,,,,,,,,,,,,436.6598903000122,None,3121.6650524080533,-5.0,3.730444439647712e-05,0,"[0.5961470669190767, 0.5961470669190767, 0.5961470669190767, 0.5961470669190767]","[640.0651450165668, 377.03028269610127, 1508.7803227528575, 1764.3027283606996]",None,"[7.0, 12.215520051168408, 7.070959241853986, 5.0]",False,437.6623810000019,440.485911900003,440.485911900003,441.7136473999999,None,0,3.415575799997896,4.429784200008726,None,1,None,1,,,,,,,,,ofgjwt,001,fr,0,0,2022-04-27_16h43.45.386,Cluster,2022.1.1,35.98645901557145,
,,,,1,0,1,0,11,0,11,0,,,none,,,,,,,,,,,,,,,,,,,,,,,,,,,,,,,,,,,,,,,,,,,,,,,,,,,,,,,,,,,,,,,,,,,,,,,,,,,,,,,,,,,,,,,,,,,,,,,,,,,,,,,,,,,,,,,,,,,442.1352383000194,None,3419.5372447434333,-6.0,3.696290822182282e-05,0,"[0.5940798983297197, 0.6059911601508263, 0.6286484289062642, 0.5735795175841618]","[425.4293141092208, 588.4965582423064, 396.3682078572125, 3576.904149986842]",None,"[11.6079989710239, 9.0, 12.0, -1.0]",False,443.1320775000204,445.97485280002,445.97485280002,447.1773835000058,None,0,3.4212251999997534,4.430366100015817,None,1,None,1,,,,,,,,,ofgjwt,001,fr,0,0,2022-04-27_16h43.45.386,Cluster,2022.1.1,35.98645901557145,
,,,,1,0,1,0,12,0,12,0,,,both,,,,,,,,,,,,,,,,,,,,,,,,,,,,,,,,,,,,,,,,,,,,,,,,,,,,,,,,,,,,,,,,,,,,,,,,,,,,,,,,,,,,,,,,,,,,,,,,,,,,,,,,,,,,,,,,,,,447.60901840002043,None,312.3139619782895,6.6928022498905095,0.0002192622471312301,1,"[0.6080912282760854, 0.6080912282760854, 0.6080912282760854, 0.6080912282760854]","[196.74546743625697, 220.83932037408604, 247.88375589434648, 278.24010838378877]",Tone,"[12.0, 11.767674517343375, 12.140918769099049, 12.613922452999732]",False,448.6129555000225,451.4621023000218,451.4621023000218,452.69088430001284,['space'],1,3.450082899973495,4.459171999973478,None,1,None,1,[0.36354659995413385],,,,,,,,ofgjwt,001,fr,0,0,2022-04-27_16h43.45.386,Cluster,2022.1.1,35.98645901557145,
,,,,1,0,1,0,13,0,13,0,,,time,,,,,,,,,,,,,,,,,,,,,,,,,,,,,,,,,,,,,,,,,,,,,,,,,,,,,,,,,,,,,,,,,,,,,,,,,,,,,,,,,,,,,,,,,,,,,,,,,,,,,,,,,,,,,,,,,,,453.11480710000615,None,164.93848884661182,7.0,0.0008801206631839937,1,"[0.7426774743959939, 0.7426774743959939, 0.7426774743959939, 0.7426774743959939]","[272.40732240104893, 172.9009337389673, 6973.893746708633, 1290.6168923200178]",None,"[12.411447692845933, 13.0, -1.8027797586857162, 7.674896035970219]",False,454.1623772000021,457.4356902000145,457.4356902000145,458.67098280001665,['space'],1,3.9952355999848805,5.0004114999610465,None,1,None,1,[0.41899979996378534],,,,,,,,ofgjwt,001,fr,0,0,2022-04-27_16h43.45.386,Cluster,2022.1.1,35.98645901557145,
,,,,1,0,1,0,14,0,14,0,,,frequency,,,,,,,,,,,,,,,,,,,,,,,,,,,,,,,,,,,,,,,,,,,,,,,,,,,,,,,,,,,,,,,,,,,,,,,,,,,,,,,,,,,,,,,,,,,,,,,,,,,,,,,,,,,,,,,,,,,459.2129877000116,None,,,,,"[0.7045684655918989, 0.6336962581422971, 0.7575496723838977, 0.682979121603408]","[4457.8110795670955, 3538.1669985901513, 2808.2450078005863, 2228.9055397835477]",Major_3rd,"[-6.0, -0.35482135484895494, 1.901561825943622, 2.4582237535051696]",True,460.2206201000081,463.3302150000236,463.3302150000236,464.54423430000315,None,1,3.8205415999982506,4.8426476000167895,None,1,None,1,,,0,,,,,,ofgjwt,001,fr,0,0,2022-04-27_16h43.45.386,Cluster,2022.1.1,35.98645901557145,
,,,,1,0,1,0,15,0,15,0,,,time,,,,,,,,,,,,,,,,,,,,,,,,,,,,,,,,,,,,,,,,,,,,,,,,,,,,,,,,,,,,,,,,,,,,,,,,,,,,,,,,,,,,,,,,,,,,,,,,,,,,,,,,,,,,,,,,,,,465.102752900013,None,416.34713986432763,5.926694878212646,0.00014980976217752155,1,"[0.41614412233053355, 0.41614412233053355, 0.41614412233053355, 0.41614412233053355]","[150.310605180834, 264.136272696978, 729.1319412392047, 3421.211237639952]",None,"[14.0, 12.411447692845933, 5.0, 0.0]",False,466.10074320001877,468.39084800001,468.39084800001,469.59917920001317,['space'],1,2.691574299999047,3.7084687000024132,None,1,None,1,[0.4024556999793276],,,,,,,,ofgjwt,001,fr,0,0,2022-04-27_16h43.45.386,Cluster,2022.1.1,35.98645901557145,
,,,,1,0,1,0,16,0,16,0,,,time,,,,,,,,,,,,,,,,,,,,,,,,,,,,,,,,,,,,,,,,,,,,,,,,,,,,,,,,,,,,,,,,,,,,,,,,,,,,,,,,,,,,,,,,,,,,,,,,,,,,,,,,,,,,,,,,,,,469.8484583000245,None,1000.0,-6.0,2.2078522367665627e-05,1,"[0.4974657168377352, 0.4974657168377352, 0.4974657168377352, 0.4974657168377352]","[417.9486840363693, 340.49274904439284, 1274.1230803089043, 744.4087225572176]",None,"[11.926694878212647, 12.633888727792076, 7.33586302511102, 5.0]",False,471.71527800001786,474.25094780002837,474.25094780002837,475.45661610001116,['space'],1,3.01534309994895,4.038914599950658,None,1,None,1,[0.38166849996196106],,,,,,,,ofgjwt,001,fr,0,0,2022-04-27_16h43.45.386,Cluster,2022.1.1,35.98645901557145,
,,,,1,0,1,0,17,0,17,0,,,both,,,,,,,,,,,,,,,,,,,,,,,,,,,,,,,,,,,,,,,,,,,,,,,,,,,,,,,,,,,,,,,,,,,,,,,,,,,,,,,,,,,,,,,,,,,,,,,,,,,,,,,,,,,,,,,,,,,475.79867899999954,None,250.0,3.0,0.00023657562948074026,1,"[0.7077251119254465, 0.7077251119254465, 0.7077251119254465, 0.7077251119254465]","[396.85026299205003, 353.5533905932739, 314.98026247371837, 280.6155120773433]",Tone,"[12.0, 12.46127946129036, 12.692802249890509, 12.613922452999732]",False,476.82322540000314,479.9819497000135,479.9819497000135,481.1965024000092,['space'],1,3.882690999977058,4.88753869998618,None,1,None,1,[0.4332451999653131],,,,,,,,ofgjwt,001,fr,0,0,2022-04-27_16h43.45.386,Cluster,2022.1.1,35.98645901557145,
,,,,1,0,1,0,18,0,18,0,,,time,,,,,,,,,,,,,,,,,,,,,,,,,,,,,,,,,,,,,,,,,,,,,,,,,,,,,,,,,,,,,,,,,,,,,,,,,,,,,,,,,,,,,,,,,,,,,,,,,,,,,,,,,,,,,,,,,,,481.7381462000194,None,,,,,"[0.7297926192703738, 0.7297926192703738, 0.7297926192703738, 0.7297926192703738]","[1354.6348455347015, 2724.4575168249694, 485.0236843703673, 6380.176756345393]",None,"[7.674896035970219, 2.0, 11.0, -5.0]",True,482.74480650000623,485.95545290000155,485.95545290000155,487.1844722000242,None,1,3.9582394999742974,4.980861199990613,None,1,None,1,,,0,,,,,,ofgjwt,001,fr,0,0,2022-04-27_16h43.45.386,Cluster,2022.1.1,35.98645901557145,
,,,,1,0,1,0,19,0,19,0,,,none,,,,,,,,,,,,,,,,,,,,,,,,,,,,,,,,,,,,,,,,,,,,,,,,,,,,,,,,,,,,,,,,,,,,,,,,,,,,,,,,,,,,,,,,,,,,,,,,,,,,,,,,,,,,,,,,,,,487.7553130000015,None,5278.031643091578,-9.0,5.055852040547311e-05,1,"[0.5104137658312758, 0.6739514763574521, 0.4747168902508448, 0.45871746388065504]","[633.8557340283895, 1028.5479587969314, 176.9064680543945, 200.11265605593144]",None,"[8.0, 5.0, 12.635602034081144, 11.84221032185445]",False,488.76494570000796,491.4443232000049,491.4443232000049,492.6643782000174,['space'],1,3.1278870000096504,4.1514801000012085,None,1,None,1,[0.3621469999779947],,,,,,,,ofgjwt,001,fr,0,0,2022-04-27_16h43.45.386,Cluster,2022.1.1,35.98645901557145,
,,,,2,0,2,0,0,0,0,0,,,both,,,,,,,,,,,,,,,,,,,,,,,,,,,,,,,,,,,,,,,,,,,,,,,,,,,,,,,,,,,,,,,,,,,,,,,,,,,,,,,,,,,,,,,,,,,,,,,,,,,,,,,,,,,,,,,,,,,509.4980247000058,None,4231.976676070006,-10.99735158304083,2.8164669956934124e-05,1,"[0.41830692612936216, 0.41830692612936216, 0.41830692612936216, 0.41830692612936216]","[839.7305284373015, 1258.1741934270042, 1885.131297955291, 2824.505564568137]",Perfect_5th,"[4.0, 7.33586302511102, 4.2710920114166075, 1.901561825943622]",False,510.5044248000195,512.7923115000012,512.7923115000012,514.0055975000141,['space'],1,2.704846400010865,3.734754500008421,None,1,None,1,[0.2884943999815732],,,,,,,,ofgjwt,001,fr,0,0,2022-04-27_16h43.45.386,Cluster,2022.1.1,35.98645901557145,
,,,,2,0,2,0,1,0,1,0,,,time,,,,,,,,,,,,,,,,,,,,,,,,,,,,,,,,,,,,,,,,,,,,,,,,,,,,,,,,,,,,,,,,,,,,,,,,,,,,,,,,,,,,,,,,,,,,,,,,,,,,,,,,,,,,,,,,,,,514.2859810000227,None,565.6502692106129,3.1095892702922567,8.754952960794891e-05,1,"[0.6088146384928033, 0.6088146384928033, 0.6088146384928033, 0.6088146384928033]","[6929.216107772105, 205.98871573582065, 2025.0878745715538, 501.5538893167258]",None,"[-2.0, 11.84221032185445, 3.43526397327203, 10.711014651906595]",False,515.3019001000212,518.1525767000276,518.1525767000276,519.3598375000001,['space'],1,3.47216799997841,4.500731199979782,None,1,None,1,[0.37261589997797273],,,,,,,,ofgjwt,001,fr,0,0,2022-04-27_16h43.45.386,Cluster,2022.1.1,35.98645901557145,
,,,,2,0,2,0,2,0,2,0,,,time,,,,,,,,,,,,,,,,,,,,,,,,,,,,,,,,,,,,,,,,,,,,,,,,,,,,,,,,,,,,,,,,,,,,,,,,,,,,,,,,,,,,,,,,,,,,,,,,,,,,,,,,,,,,,,,,,,,519.8450534000003,None,4287.0938501451765,-6.0,5.197007826100645e-05,1,"[0.7690977015638333, 0.7690977015638333, 0.7690977015638333, 0.7690977015638333]","[6434.096904272952, 3213.4605827185414, 5432.374478360322, 4123.076186685077]",None,"[-4.185113103192911, 0.7330606016354322, -7.737642093698149, -4.0]",False,521.7893342000025,525.1197327000264,525.1197327000264,526.3354453000065,['space'],1,4.114404799969634,5.1103402999578975,None,1,None,1,[0.4302301999705378],,,,,,,,ofgjwt,001,fr,0,0,2022-04-27_16h43.45.386,Cluster,2022.1.1,35.98645901557145,
,,,,2,0,2,0,3,0,3,0,,,both,,,,,,,,,,,,,,,,,,,,,,,,,,,,,,,,,,,,,,,,,,,,,,,,,,,,,,,,,,,,,,,,,,,,,,,,,,,,,,,,,,,,,,,,,,,,,,,,,,,,,,,,,,,,,,,,,,,526.9364114000055,None,378.9291416275994,-6.0,4.110966093181886e-05,0,"[0.5315106203353206, 0.5315106203353206, 0.5315106203353206, 0.5315106203353206]","[238.71040097760402, 267.9433656340732, 300.75625902052906, 337.5874865420474]",Tone,"[12.0, 12.411447692845933, 12.692802249890509, 12.633888727792076]",False,527.9376436000166,530.5494132000022,530.5494132000022,531.7719830000133,None,0,3.140172999963397,4.148534199979622,None,1,None,1,,,,,,,,,ofgjwt,001,fr,0,0,2022-04-27_16h43.45.386,Cluster,2022.1.1,35.98645901557145,
,,,,2,0,2,0,4,0,4,0,,,time,,,,,,,,,,,,,,,,,,,,,,,,,,,,,,,,,,,,,,,,,,,,,,,,,,,,,,,,,,,,,,,,,,,,,,,,,,,,,,,,,,,,,,,,,,,,,,,,,,,,,,,,,,,,,,,,,,,532.1388356000243,None,363.53547770348706,6.46127946129036,0.00018099555453526836,1,"[0.6651730786679253, 0.6651730786679253, 0.6651730786679253, 0.6651730786679253]","[294.68261032714184, 130.35062379343378, 128.47936662896967, 2248.764670715732]",None,"[12.613922452999732, 14.50595197061979, 14.435699499344308, 2.4582237535051696]",False,533.1382974000007,536.1561390999996,536.1561390999996,537.3654690000112,['space'],1,3.695095400005812,4.725088899984257,None,1,None,1,[0.40988019996439107],,,,,,,,ofgjwt,001,fr,0,0,2022-04-27_16h43.45.386,Cluster,2022.1.1,35.98645901557145,
,,,,2,0,2,0,5,0,5,0,,,both,,,,,,,,,,,,,,,,,,,,,,,,,,,,,,,,,,,,,,,,,,,,,,,,,,,,,,,,,,,,,,,,,,,,,,,,,,,,,,,,,,,,,,,,,,,,,,,,,,,,,,,,,,,,,,,,,,,537.9083608000074,None,943.8979831306415,-1.8122080502847386,3.446262225652991e-05,0,"[0.4559877226000558, 0.4559877226000558, 0.4559877226000558, 0.4559877226000558]","[4756.947751598445, 3174.8817215190707, 2118.979327079812, 1414.2490279742667]",Perfect_5th,"[-7.0, 1.0, 3.0, 7.582715715090722]",False,538.9224747000262,541.322085700027,541.322085700027,542.5384829000104,None,0,2.8490374000102747,3.8838277000177186,None,1,None,1,,,,,,,,,ofgjwt,001,fr,0,0,2022-04-27_16h43.45.386,Cluster,2022.1.1,35.98645901557145,
,,,,2,0,2,0,6,0,6,0,,,time,,,,,,,,,,,,,,,,,,,,,,,,,,,,,,,,,,,,,,,,,,,,,,,,,,,,,,,,,,,,,,,,,,,,,,,,,,,,,,,,,,,,,,,,,,,,,,,,,,,,,,,,,,,,,,,,,,,542.8493746000167,None,378.9291416275994,-6.0,4.110966093181886e-05,0,"[0.48290309356413075, 0.48290309356413075, 0.48290309356413075, 0.48290309356413075]","[405.9509425301199, 979.8211441276455, 406.29970285387145, 262.1611774370886]",None,"[11.926694878212647, 4.853291291955699, 11.926694878212647, 12.411447692845933]",False,543.8754378000158,546.3550073000079,546.3550073000079,547.5762363000249,None,0,2.942115500016371,3.9493543000135105,None,1,None,1,,,,,,,,,ofgjwt,001,fr,0,0,2022-04-27_16h43.45.386,Cluster,2022.1.1,35.98645901557145,
,,,,2,0,2,0,7,0,7,0,,,none,,,,,,,,,,,,,,,,,,,,,,,,,,,,,,,,,,,,,,,,,,,,,,,,,,,,,,,,,,,,,,,,,,,,,,,,,,,,,,,,,,,,,,,,,,,,,,,,,,,,,,,,,,,,,,,,,,,547.8733982000267,None,,,,,"[0.7719130016594475, 0.63339341505661, 0.6567026935297168, 0.4819599749048925]","[3048.161459993088, 1321.7437426295605, 306.1944332857981, 1092.9070101979207]",None,"[1.4739359530235028, 7.674896035970219, 12.692802249890509, 6.0]",True,548.8656367000076,551.9654677000071,551.9654677000071,553.16651000001,None,1,3.5729692000022624,4.598178500018548,None,1,None,1,,,0,,,,,,ofgjwt,001,fr,0,0,2022-04-27_16h43.45.386,Cluster,2022.1.1,35.98645901557145,
,,,,2,0,2,0,8,0,8,0,,,frequency,,,,,,,,,,,,,,,,,,,,,,,,,,,,,,,,,,,,,,,,,,,,,,,,,,,,,,,,,,,,,,,,,,,,,,,,,,,,,,,,,,,,,,,,,,,,,,,,,,,,,,,,,,,,,,,,,,,553.5012798000243,None,2462.2888266898335,0.0,8.505946547995337e-05,1,"[0.42221851365551016, 0.642999994585643, 0.7929154712734287, 0.5431458830664182]","[488.5799842171232, 732.042847972813, 1096.8249796946263, 1643.3806291715812]",Perfect_5th,"[11.0, 5.0, 6.0, 6.0]",False,554.5187804000161,557.4125912000018,557.4125912000018,558.6319078000088,['space'],1,3.4317123999644537,4.443551099975593,None,1,None,1,[0.4678357999655418],,,,,,,,ofgjwt,001,fr,0,0,2022-04-27_16h43.45.386,Cluster,2022.1.1,35.98645901557145,
,,,,2,0,2,0,9,0,9,0,,,time,,,,,,,,,,,,,,,,,,,,,,,,,,,,,,,,,,,,,,,,,,,,,,,,,,,,,,,,,,,,,,,,,,,,,,,,,,,,,,,,,,,,,,,,,,,,,,,,,,,,,,,,,,,,,,,,,,,558.9890668000153,None,3115.7408796953328,-5.0,3.698917549586644e-05,0,"[0.5518614821606074, 0.5518614821606074, 0.5518614821606074, 0.5518614821606074]","[4468.584801091062, 187.2231612885441, 543.6315443510163, 429.1103652601749]",None,"[-6.0, 12.145326944620653, 10.0, 11.6079989710239]",False,559.9984368000005,562.6948269000277,562.6948269000277,563.8856871000025,None,0,3.231804299954092,4.246638099953998,None,1,None,1,,,,,,,,,ofgjwt,001,fr,0,0,2022-04-27_16h43.45.386,Cluster,2022.1.1,35.98645901557145,
,,,,2,0,2,0,10,0,10,0,,,time,,,,,,,,,,,,,,,,,,,,,,,,,,,,,,,,,,,,,,,,,,,,,,,,,,,,,,,,,,,,,,,,,,,,,,,,,,,,,,,,,,,,,,,,,,,,,,,,,,,,,,,,,,,,,,,,,,,564.2888125000172,None,203.0630990890589,4.0,0.00041118632047867253,1,"[0.7480267157420755, 0.7480267157420755, 0.7480267157420755, 0.7480267157420755]","[343.8091136650226, 5751.2966451917555, 753.0920157176639, 6949.996621806406]",None,"[12.46127946129036, -7.0, 4.670978789390276, -1.8027797586857162]",False,566.309148100001,569.5575779000064,569.5575779000064,570.7954619000084,['space'],1,4.030862399929902,5.0421576999360695,None,1,None,1,[0.3962036999873817],,,,,,,,ofgjwt,001,fr,0,0,2022-04-27_16h43.45.386,Cluster,2022.1.1,35.98645901557145,
,,,,2,0,2,0,11,0,11,0,,,frequency,,,,,,,,,,,,,,,,,,,,,,,,,,,,,,,,,,,,,,,,,,,,,,,,,,,,,,,,,,,,,,,,,,,,,,,,,,,,,,,,,,,,,,,,,,,,,,,,,,,,,,,,,,,,,,,,,,,571.3870694000216,None,,,,,"[0.6981552386173175, 0.6910968421602296, 0.6418274534620676, 0.7300056256927053]","[6781.158848341683, 4525.880544112125, 3020.662862746812, 2016.0505876028967]",Perfect_5th,"[-3.0, -6.0, 1.4739359530235028, 3.43526397327203]",True,572.3963116000232,575.4694860000163,575.4694860000163,576.7081467000244,None,1,3.7849082999746315,4.8029972999647725,None,1,None,1,,,0,,,,,,ofgjwt,001,fr,0,0,2022-04-27_16h43.45.386,Cluster,2022.1.1,35.98645901557145,
,,,,2,0,2,0,12,0,12,0,,,both,,,,,,,,,,,,,,,,,,,,,,,,,,,,,,,,,,,,,,,,,,,,,,,,,,,,,,,,,,,,,,,,,,,,,,,,,,,,,,,,,,,,,,,,,,,,,,,,,,,,,,,,,,,,,,,,,,,577.2371654000017,None,535.8867312681471,-4.0,4.154624098611583e-05,1,"[0.5469105908075769, 0.5469105908075769, 0.5469105908075769, 0.5469105908075769]","[337.5874865420477, 378.9291416275998, 425.33358047542816, 477.4208019552087]",Tone,"[12.633888727792076, 12.215520051168408, 11.6079989710239, 11.0]",False,578.3180386000022,580.9849161000166,580.9849161000166,582.1972677000158,['space'],1,3.2408285999845248,4.263248599978397,None,1,None,1,[0.3492254999873694],,,,,,,,ofgjwt,001,fr,0,0,2022-04-27_16h43.45.386,Cluster,2022.1.1,35.98645901557145,
,,,,2,0,2,0,13,0,13,0,,,frequency,,,,,,,,,,,,,,,,,,,,,,,,,,,,,,,,,,,,,,,,,,,,,,,,,,,,,,,,,,,,,,,,,,,,,,,,,,,,,,,,,,,,,,,,,,,,,,,,,,,,,,,,,,,,,,,,,,,582.6106865000038,None,1774.2526424632347,-1.0,5.7591377759183965e-05,1,"[0.4627708186659305, 0.5606752343895942, 0.4085899311014328, 0.530213841117576]","[704.1126277758742, 887.1263212316175, 1117.709126035516, 1408.2252555517482]",Major_3rd,"[5.63663289417287, 4.0, 6.0, 7.582715715090722]",False,583.6165968000132,586.0644356000121,586.0644356000121,587.277659000014,['space'],1,3.0048708000103943,4.02044790002401,None,1,None,1,[0.429560999997193],,,,,,,,ofgjwt,001,fr,0,0,2022-04-27_16h43.45.386,Cluster,2022.1.1,35.98645901557145,
,,,,2,0,2,0,14,0,14,0,,,time,,,,,,,,,,,,,,,,,,,,,,,,,,,,,,,,,,,,,,,,,,,,,,,,,,,,,,,,,,,,,,,,,,,,,,,,,,,,,,,,,,,,,,,,,,,,,,,,,,,,,,,,,,,,,,,,,,,587.6830044000235,None,4989.452269935534,-13.407129935038894,3.247469772036132e-05,1,"[0.4431311208797922, 0.4431311208797922, 0.4431311208797922, 0.4431311208797922]","[623.960606765652, 1532.821120546409, 254.86331874279847, 925.4576652233264]",None,"[8.0, 7.0, 12.140918769099049, 4.187791949715262]",False,588.6931178000232,591.0509947000246,591.0509947000246,592.2624053000181,['space'],1,2.7891533999936655,3.8065860999922734,None,1,None,1,[0.5134413999621756],,,,,,,,ofgjwt,001,fr,0,0,2022-04-27_16h43.45.386,Cluster,2022.1.1,35.98645901557145,
,,,,2,0,2,0,15,0,15,0,,,both,,,,,,,,,,,,,,,,,,,,,,,,,,,,,,,,,,,,,,,,,,,,,,,,,,,,,,,,,,,,,,,,,,,,,,,,,,,,,,,,,,,,,,,,,,,,,,,,,,,,,,,,,,,,,,,,,,,592.5475967000239,None,,,,,"[0.6867543548318369, 0.6867543548318369, 0.6867543548318369, 0.6867543548318369]","[252.37183738819525, 378.13050996310403, 566.5556190607073, 848.874293482907]",Perfect_5th,"[12.140918769099049, 12.215520051168408, 9.109589270292258, 4.0]",True,593.555900700012,596.6457816000038,596.6457816000038,597.844719900022,None,1,3.768640399997821,4.7834793999791145,['space'],0,None,1,,,0,[-0.02747950004413724],,,,,ofgjwt,001,fr,0,0,2022-04-27_16h43.45.386,Cluster,2022.1.1,35.98645901557145,
,,,,2,0,2,0,16,0,16,0,,,none,,,,,,,,,,,,,,,,,,,,,,,,,,,,,,,,,,,,,,,,,,,,,,,,,,,,,,,,,,,,,,,,,,,,,,,,,,,,,,,,,,,,,,,,,,,,,,,,,,,,,,,,,,,,,,,,,,,598.3742874000163,None,477.09638690599417,5.0,0.00012912975607768005,1,"[0.5572346179288024, 0.412811104826064, 0.5894142117955121, 0.49702706819021386]","[220.90561083931803, 1663.7252389560012, 4869.046521224585, 5246.7064002155375]",None,"[11.767674517343375, 6.0, -7.407129935038894, -7.737642093698149]",False,599.3898007000098,601.9673301000148,601.9673301000148,603.1981278000167,['space'],1,3.07886789998156,4.093404199986253,None,1,None,1,[0.53299289997085],,,,,,,,ofgjwt,001,fr,0,0,2022-04-27_16h43.45.386,Cluster,2022.1.1,35.98645901557145,
,,,,2,0,2,0,17,0,17,0,,,frequency,,,,,,,,,,,,,,,,,,,,,,,,,,,,,,,,,,,,,,,,,,,,,,,,,,,,,,,,,,,,,,,,,,,,,,,,,,,,,,,,,,,,,,,,,,,,,,,,,,,,,,,,,,,,,,,,,,,603.5255660000257,None,615.5722066724584,-3.0,3.781520069199877e-05,0,"[0.6747754994396447, 0.4836614785748936, 0.7387178593168735, 0.663210907857317]","[1551.1447618337352, 1231.1444133449168, 977.1599684342464, 775.5723809168676]",Major_3rd,"[7.0, 7.33586302511102, 4.853291291955699, 4.670978789390276]",False,604.5576837000262,607.4803205000062,607.4803205000062,608.7112605000148,None,0,3.584273699991172,4.597686099994462,None,1,None,1,,,,,,,,,ofgjwt,001,fr,0,0,2022-04-27_16h43.45.386,Cluster,2022.1.1,35.98645901557145,
,,,,2,0,2,0,18,0,18,0,,,frequency,,,,,,,,,,,,,,,,,,,,,,,,,,,,,,,,,,,,,,,,,,,,,,,,,,,,,,,,,,,,,,,,,,,,,,,,,,,,,,,,,,,,,,,,,,,,,,,,,,,,,,,,,,,,,,,,,,,609.2044473999995,None,268.86420643480966,6.411447692845933,0.0003085730244177856,1,"[0.5882069549332488, 0.45663179793121716, 0.6715013941122789, 0.7173993366455811]","[169.37383662524863, 190.11570358839367, 213.39766206560597, 239.53077686659148]",Tone,"[13.0, 12.145326944620653, 11.767674517343375, 12.0]",False,610.2151154000021,612.966304600006,612.966304600006,614.1741129000147,['space'],1,3.4571926999778952,4.473217399965506,None,1,None,1,[0.44987259997287765],,,,,,,,ofgjwt,001,fr,0,0,2022-04-27_16h43.45.386,Cluster,2022.1.1,35.98645901557145,
,,,,2,0,2,0,19,0,19,0,,,time,,,,,,,,,,,,,,,,,,,,,,,,,,,,,,,,,,,,,,,,,,,,,,,,,,,,,,,,,,,,,,,,,,,,,,,,,,,,,,,,,,,,,,,,,,,,,,,,,,,,,,,,,,,,,,,,,,,614.7339892000018,None,535.8867312681471,-4.0,4.154624098611583e-05,0,"[0.6184559131229262, 0.6184559131229262, 0.6184559131229262, 0.6184559131229262]","[6167.048581103599, 2446.3505572818076, 131.98640880866478, 1574.9595014471654]",None,"[-6.0, 2.2619426833123955, 14.50595197061979, 6.243810934919466]",False,615.7520975000225,618.6116979000217,618.6116979000217,619.8165352000215,None,0,3.498138299997663,4.509701700008009,None,1,None,1,,,,,,,,,ofgjwt,001,fr,0,0,2022-04-27_16h43.45.386,Cluster,2022.1.1,35.98645901557145,
,,,,3,0,3,0,0,0,0,0,,,none,,,,,,,,,,,,,,,,,,,,,,,,,,,,,,,,,,,,,,,,,,,,,,,,,,,,,,,,,,,,,,,,,,,,,,,,,,,,,,,,,,,,,,,,,,,,,,,,,,,,,,,,,,,,,,,,,,,655.2322794000211,None,164.93848884661182,7.0,0.0008801206631839937,1,"[0.6958376536388309, 0.646232717403149, 0.42021170647302775, 0.5925179212403185]","[6293.89753789008, 413.52145608816403, 210.6326309923385, 4452.799248616477]",None,"[-5.0, 11.926694878212647, 11.767674517343375, -6.0]",False,656.2373354000156,659.0176992000197,659.0176992000197,660.2225851000112,['space'],1,3.402974499971606,4.4262258999515325,None,1,None,1,[0.5835982999706175],,,,,,,,ofgjwt,001,fr,0,0,2022-04-27_16h43.45.386,Cluster,2022.1.1,35.98645901557145,
,,,,3,0,3,0,1,0,1,0,,,none,,,,,,,,,,,,,,,,,,,,,,,,,,,,,,,,,,,,,,,,,,,,,,,,,,,,,,,,,,,,,,,,,,,,,,,,,,,,,,,,,,,,,,,,,,,,,,,,,,,,,,,,,,,,,,,,,,,660.6909075000149,None,520.5162532327569,4.017018777230869,0.0001083718278051572,1,"[0.49267087319217695, 0.6125414764742996, 0.7741537248113038, 0.513502045439757]","[1598.5607644991087, 149.3552961213786, 218.9188540224607, 836.617270057351]",None,"[6.243810934919466, 14.0, 11.767674517343375, 4.0]",False,661.6965011000284,664.6027542000229,664.6027542000229,665.8250023,['space'],1,3.432519699970726,4.448714299971471,None,1,None,1,[0.33874279996962287],,,,,,,,ofgjwt,001,fr,0,0,2022-04-27_16h43.45.386,Cluster,2022.1.1,35.98645901557145,
,,,,3,0,3,0,2,0,2,0,,,time,,,,,,,,,,,,,,,,,,,,,,,,,,,,,,,,,,,,,,,,,,,,,,,,,,,,,,,,,,,,,,,,,,,,,,,,,,,,,,,,,,,,,,,,,,,,,,,,,,,,,,,,,,,,,,,,,,,666.1918157000036,None,,,,,"[0.7738972411092023, 0.7738972411092023, 0.7738972411092023, 0.7738972411092023]","[176.42366436278365, 154.41829149700067, 222.84398161255024, 201.6244449674542]",None,"[12.635602034081144, 13.825011270946982, 11.767674517343375, 11.84221032185445]",True,667.2045197000261,670.5501685000199,670.5501685000199,671.7520232000097,None,1,4.113875899987761,5.127769599988824,None,1,None,1,,,0,,,,,,ofgjwt,001,fr,0,0,2022-04-27_16h43.45.386,Cluster,2022.1.1,35.98645901557145,
,,,,3,0,3,0,3,0,3,0,,,frequency,,,,,,,,,,,,,,,,,,,,,,,,,,,,,,,,,,,,,,,,,,,,,,,,,,,,,,,,,,,,,,,,,,,,,,,,,,,,,,,,,,,,,,,,,,,,,,,,,,,,,,,,,,,,,,,,,,,672.3700142000162,None,4924.577653379667,-8.0,5.874332325816365e-05,1,"[0.5826884264545942, 0.7768530721043714, 0.5978653802619738, 0.6058370527074364]","[7817.279747473972, 6964.404506368996, 6204.579047334942, 5527.651519871107]",Tone,"[2.0, -1.8027797586857162, -5.0, -7.305837667111589]",False,673.3932572000194,676.3735573000158,676.3735573000158,677.5936900000088,['space'],1,3.578416999982437,4.592541099962546,None,1,None,1,[0.3850296999735292],,,,,,,,ofgjwt,001,fr,0,0,2022-04-27_16h43.45.386,Cluster,2022.1.1,35.98645901557145,
,,,,3,0,3,0,4,0,4,0,,,both,,,,,,,,,,,,,,,,,,,,,,,,,,,,,,,,,,,,,,,,,,,,,,,,,,,,,,,,,,,,,,,,,,,,,,,,,,,,,,,,,,,,,,,,,,,,,,,,,,,,,,,,,,,,,,,,,,,678.0386528000236,None,1193.8501546259324,1.0,5.852519851528273e-05,1,"[0.7577015738947099, 0.7577015738947099, 0.7577015738947099, 0.7577015738947099]","[752.0784701167307, 844.1795400566051, 947.5594956728014, 1063.5995724078891]",Tone,"[4.670978789390276, 4.0, 4.187791949715262, 5.7389287608496184]",False,679.0335705000034,682.3204873000213,682.3204873000213,683.5477000000246,['space'],1,4.046918400010327,5.066073100024369,None,1,None,1,[0.37001889999373816],,,,,,,,ofgjwt,001,fr,0,0,2022-04-27_16h43.45.386,Cluster,2022.1.1,35.98645901557145,
,,,,3,0,3,0,5,0,5,0,,,both,,,,,,,,,,,,,,,,,,,,,,,,,,,,,,,,,,,,,,,,,,,,,,,,,,,,,,,,,,,,,,,,,,,,,,,,,,,,,,,,,,,,,,,,,,,,,,,,,,,,,,,,,,,,,,,,,,,684.1435845000087,None,189.4645708137998,4.0,0.0004815096005698101,1,"[0.7494988908481004, 0.7494988908481004, 0.7494988908481004, 0.7494988908481004]","[954.8416039104168, 637.2803136596312, 425.333580475428, 283.8761072677194]",Perfect_5th,"[4.187791949715262, 7.0, 11.6079989710239, 12.613922452999732]",False,686.1170418000256,689.3772972000006,689.3772972000006,690.5797874000273,['space'],1,4.024535799951991,5.045391299965559,None,1,None,1,[0.3609400999848731],,,,,,,,ofgjwt,001,fr,0,0,2022-04-27_16h43.45.386,Cluster,2022.1.1,35.98645901557145,
,,,,3,0,3,0,6,0,6,0,,,frequency,,,,,,,,,,,,,,,,,,,,,,,,,,,,,,,,,,,,,,,,,,,,,,,,,,,,,,,,,,,,,,,,,,,,,,,,,,,,,,,,,,,,,,,,,,,,,,,,,,,,,,,,,,,,,,,,,,,691.2124455000157,None,3324.9681255416353,-5.266939398364568,3.931260305332961e-05,1,"[0.7193598939533651, 0.48703388832814176, 0.7569573044521362, 0.6151908838669946]","[2094.5986657997028, 2351.107508799614, 2639.028950122762, 2962.20984090253]",Tone,"[3.0, 2.4582237535051696, 2.1227880221156723, 1.4739359530235028]",False,692.2198443000088,695.2033303000208,695.2033303000208,696.4055094000068,['space'],1,3.59819140000036,4.61968020000495,None,1,None,1,[0.44898509996710345],,,,,,,,ofgjwt,001,fr,0,0,2022-04-27_16h43.45.386,Cluster,2022.1.1,35.98645901557145,
,,,,3,0,3,0,7,0,7,0,,,frequency,,,,,,,,,,,,,,,,,,,,,,,,,,,,,,,,,,,,,,,,,,,,,,,,,,,,,,,,,,,,,,,,,,,,,,,,,,,,,,,,,,,,,,,,,,,,,,,,,,,,,,,,,,,,,,,,,,,696.8847442000115,None,1148.6983549970344,-5.0,2.827006143192812e-05,0,"[0.6653175193057018, 0.41826929872539054, 0.6671604755051046, 0.7395217613539526]","[5789.07694976151, 3863.7453156993806, 2578.740616879157, 1721.1028744886592]",Perfect_5th,"[-7.0, -3.0, 2.1227880221156723, 5.253629396202419]",False,698.663011800003,701.4327264000021,701.4327264000021,702.6382802000153,None,0,3.507892699970398,4.522356799978297,None,1,None,1,,,,,,,,,ofgjwt,001,fr,0,0,2022-04-27_16h43.45.386,Cluster,2022.1.1,35.98645901557145,
,,,,3,0,3,0,8,0,8,0,,,none,,,,,,,,,,,,,,,,,,,,,,,,,,,,,,,,,,,,,,,,,,,,,,,,,,,,,,,,,,,,,,,,,,,,,,,,,,,,,,,,,,,,,,,,,,,,,,,,,,,,,,,,,,,,,,,,,,,703.2273395000084,None,,,,,"[0.595674213330178, 0.45788863387932743, 0.41878624496791605, 0.4159882290770925]","[127.35401191186646, 4931.820847371388, 330.1106089831719, 2393.6868161871857]",None,"[14.435699499344308, -7.407129935038894, 12.633888727792076, 2.2619426833123955]",True,704.2214998000127,706.7281999000115,706.7281999000115,707.9398508000013,None,1,2.9244513000012375,3.928200200025458,None,1,None,1,,,0,,,,,,ofgjwt,001,fr,0,0,2022-04-27_16h43.45.386,Cluster,2022.1.1,35.98645901557145,
,,,,3,0,3,0,9,0,9,0,,,time,,,,,,,,,,,,,,,,,,,,,,,,,,,,,,,,,,,,,,,,,,,,,,,,,,,,,,,,,,,,,,,,,,,,,,,,,,,,,,,,,,,,,,,,,,,,,,,,,,,,,,,,,,,,,,,,,,,708.1880413000181,None,625.6090269546752,2.0,6.527483321666171e-05,1,"[0.4855147641610334, 0.4855147641610334, 0.4855147641610334, 0.4855147641610334]","[362.7306784823733, 4300.627272561768, 205.49674735727427, 161.98612531783024]",None,"[12.46127946129036, -5.0, 11.84221032185445, 13.238881238214129]",False,709.1837862000102,711.6748273000121,711.6748273000121,712.8900201000215,['space'],1,2.9609818999597337,3.970049299969105,None,1,None,1,[0.39328179997392],,,,,,,,ofgjwt,001,fr,0,0,2022-04-27_16h43.45.386,Cluster,2022.1.1,35.98645901557145,
,,,,3,0,3,0,10,0,10,0,,,none,,,,,,,,,,,,,,,,,,,,,,,,,,,,,,,,,,,,,,,,,,,,,,,,,,,,,,,,,,,,,,,,,,,,,,,,,,,,,,,,,,,,,,,,,,,,,,,,,,,,,,,,,,,,,,,,,,,713.1962028000271,None,535.8867312681471,-5.0,3.702812625480642e-05,0,"[0.6732613686880422, 0.6385233157775538, 0.6978780647319287, 0.7162017200174144]","[763.2955971574344, 685.4010123835167, 7232.144739537489, 1791.808323940269]",None,"[4.670978789390276, 6.0, 0.0, 5.0]",False,714.2264576000161,717.2692514000228,717.2692514000228,718.4716143000114,None,0,3.7600251999974716,4.776598599972203,None,1,None,1,,,,,,,,,ofgjwt,001,fr,0,0,2022-04-27_16h43.45.386,Cluster,2022.1.1,35.98645901557145,
,,,,3,0,3,0,11,0,11,0,,,none,,,,,,,,,,,,,,,,,,,,,,,,,,,,,,,,,,,,,,,,,,,,,,,,,,,,,,,,,,,,,,,,,,,,,,,,,,,,,,,,,,,,,,,,,,,,,,,,,,,,,,,,,,,,,,,,,,,719.0380335000227,None,1137.8849388407357,0.6349420285508768,5.359803341299735e-05,0,"[0.6257933343841731, 0.7935536580892928, 0.5005807079021838, 0.6034192052067588]","[555.7381058749127, 289.33792880089936, 6271.987235206833, 4153.564029626556]",None,"[9.109589270292258, 12.613922452999732, -5.0, -4.0]",False,720.0494836000144,723.0052442000015,723.0052442000015,724.2105681000103,None,0,3.550050099991495,4.578786500002025,None,1,None,1,,,,,,,,,ofgjwt,001,fr,0,0,2022-04-27_16h43.45.386,Cluster,2022.1.1,35.98645901557145,
,,,,3,0,3,0,12,0,12,0,,,none,,,,,,,,,,,,,,,,,,,,,,,,,,,,,,,,,,,,,,,,,,,,,,,,,,,,,,,,,,,,,,,,,,,,,,,,,,,,,,,,,,,,,,,,,,,,,,,,,,,,,,,,,,,,,,,,,,,724.6701254000072,None,1624.5047927124701,2.0,7.283765795300079e-05,1,"[0.5345376483587968, 0.6231646098596944, 0.6327169256020511, 0.77029740951999]","[2685.5073002939166, 1079.0350388715067, 1668.315266457413, 1842.2423768509168]",None,"[2.1227880221156723, 5.7389287608496184, 6.0, 4.2710920114166075]",False,726.8240423000243,729.6427291000145,729.6427291000145,730.8433346000093,['space'],1,3.5848474999074824,4.61257079988718,None,1,None,1,[0.3123545999696944],,,,,,,,ofgjwt,001,fr,0,0,2022-04-27_16h43.45.386,Cluster,2022.1.1,35.98645901557145,
,,,,3,0,3,0,13,0,13,0,,,none,,,,,,,,,,,,,,,,,,,,,,,,,,,,,,,,,,,,,,,,,,,,,,,,,,,,,,,,,,,,,,,,,,,,,,,,,,,,,,,,,,,,,,,,,,,,,,,,,,,,,,,,,,,,,,,,,,,731.4645734000078,None,,,,,"[0.7282581169204825, 0.5480200128565512, 0.4821322776341798, 0.7420670207031179]","[2229.1428430514684, 378.2106490337227, 159.7518062282829, 2280.1672179854677]",None,"[2.4582237535051696, 12.215520051168408, 13.238881238214129, 2.4582237535051696]",True,732.4626835000236,735.2554499000253,735.2554499000253,736.4784279000014,None,1,3.5480280999618117,4.567057099979138,None,1,None,1,,,0,,,,,,ofgjwt,001,fr,0,0,2022-04-27_16h43.45.386,Cluster,2022.1.1,35.98645901557145,
,,,,3,0,3,0,14,0,14,0,,,frequency,,,,,,,,,,,,,,,,,,,,,,,,,,,,,,,,,,,,,,,,,,,,,,,,,,,,,,,,,,,,,,,,,,,,,,,,,,,,,,,,,,,,,,,,,,,,,,,,,,,,,,,,,,,,,,,,,,,737.067458400008,None,238.38335539945268,6.0,0.00037958256184289024,1,"[0.5954195304170828, 0.44226530650531604, 0.4869261664340863, 0.5932531288574404]","[378.40998913280043, 337.12497424991165, 300.3442074123412, 267.5762693845309]",Tone,"[12.215520051168408, 12.633888727792076, 12.692802249890509, 12.411447692845933]",False,738.0838568000181,740.6265831000055,740.6265831000055,741.8345935000107,['space'],1,3.157120499992743,4.185964699980104,None,1,None,1,[0.35437329998239875],,,,,,,,ofgjwt,001,fr,0,0,2022-04-27_16h43.45.386,Cluster,2022.1.1,35.98645901557145,
,,,,3,0,3,0,15,0,15,0,,,both,,,,,,,,,,,,,,,,,,,,,,,,,,,,,,,,,,,,,,,,,,,,,,,,,,,,,,,,,,,,,,,,,,,,,,,,,,,,,,,,,,,,,,,,,,,,,,,,,,,,,,,,,,,,,,,,,,,742.3156105000235,None,445.5765392425721,5.607998971023899,0.00014156419747432026,1,"[0.647321586752551, 0.647321586752551, 0.647321586752551, 0.647321586752551]","[280.6956305655127, 315.07019243605646, 353.6543335630043, 396.96356764461603]",Tone,"[12.613922452999732, 12.692802249890509, 12.46127946129036, 12.0]",False,743.3074263000162,746.2659132000117,746.2659132000117,747.4891171000199,['space'],1,3.6196965999843087,4.646483799995622,None,1,None,1,[0.349383399967337],,,,,,,,ofgjwt,001,fr,0,0,2022-04-27_16h43.45.386,Cluster,2022.1.1,35.98645901557145,
,,,,3,0,3,0,16,0,16,0,,,both,,,,,,,,,,,,,,,,,,,,,,,,,,,,,,,,,,,,,,,,,,,,,,,,,,,,,,,,,,,,,,,,,,,,,,,,,,,,,,,,,,,,,,,,,,,,,,,,,,,,,,,,,,,,,,,,,,,747.9952659000119,None,2639.015821545789,-5.0,4.344455436419077e-05,0,"[0.5661768420387099, 0.5661768420387099, 0.5661768420387099, 0.5661768420387099]","[4189.176491282508, 3732.1319661472307, 3324.951584571152, 2962.1951045731294]",Tone,"[-4.0, -1.7562789393965659, 0.7330606016354322, 1.4739359530235028]",False,750.5778186000243,753.2966001000023,753.2966001000023,754.5303404000006,None,0,3.2789545998966787,4.294921399909072,['space'],0,None,1,,,,[-0.05262690002564341],,,,,ofgjwt,001,fr,0,0,2022-04-27_16h43.45.386,Cluster,2022.1.1,35.98645901557145,
,,,,3,0,3,0,17,0,17,0,,,frequency,,,,,,,,,,,,,,,,,,,,,,,,,,,,,,,,,,,,,,,,,,,,,,,,,,,,,,,,,,,,,,,,,,,,,,,,,,,,,,,,,,,,,,,,,,,,,,,,,,,,,,,,,,,,,,,,,,,754.9244382000179,None,,,,,"[0.6131825266640387, 0.753400168657796, 0.6255764082515344, 0.7789026302771925]","[147.54575510196997, 185.89600267560584, 234.21428686230945, 295.0915102039399]",Major_3rd,"[14.0, 12.145326944620653, 11.891341302813132, 12.613922452999732]",True,755.9159253000107,758.9250826000061,758.9250826000061,760.1404803000041,['space'],0,3.805707799998345,4.8162628000136465,None,1,None,1,[0.0965071999526117],,0,,,,,,ofgjwt,001,fr,0,0,2022-04-27_16h43.45.386,Cluster,2022.1.1,35.98645901557145,
,,,,3,0,3,0,18,0,18,0,,,both,,,,,,,,,,,,,,,,,,,,,,,,,,,,,,,,,,,,,,,,,,,,,,,,,,,,,,,,,,,,,,,,,,,,,,,,,,,,,,,,,,,,,,,,,,,,,,,,,,,,,,,,,,,,,,,,,,,760.7711975000275,None,465.690647633228,5.224919305042747,0.00013358077543365235,1,"[0.7403514436905054, 0.7403514436905054, 0.7403514436905054, 0.7403514436905054]","[293.36672484614, 329.2930148766105, 369.6189119723691, 414.88320102638727]",Tone,"[12.613922452999732, 12.633888727792076, 12.215520051168408, 11.926694878212647]",False,761.7893384000054,765.0458137000096,765.0458137000096,766.2704836000048,['space'],1,3.9891869999992196,5.000661500002025,None,1,None,1,[0.40845639997860417],,,,,,,,ofgjwt,001,fr,0,0,2022-04-27_16h43.45.386,Cluster,2022.1.1,35.98645901557145,
,,,,3,0,3,0,19,0,19,0,,,both,,,,,,,,,,,,,,,,,,,,,,,,,,,,,,,,,,,,,,,,,,,,,,,,,,,,,,,,,,,,,,,,,,,,,,,,,,,,,,,,,,,,,,,,,,,,,,,,,,,,,,,,,,,,,,,,,,,766.837929500005,None,8000.0,-7.0,8.109050486794653e-05,0,"[0.4330546607998266, 0.4330546607998266, 0.4330546607998266, 0.4330546607998266]","[3174.8021039364003, 4000.0000000000014, 5039.684199579494, 6349.604207872799]",Major_3rd,"[1.0, -3.3692651329855767, -7.407129935038894, -5.0]",False,769.505258500023,771.8286857000203,771.8286857000203,773.0450186000089,None,0,2.7701188999053556,3.7985934999014717,None,1,None,1,,,,,,,,,ofgjwt,001,fr,0,0,2022-04-27_16h43.45.386,Cluster,2022.1.1,35.98645901557145,
,,,,4,0,4,0,0,0,0,0,,,none,,,,,,,,,,,,,,,,,,,,,,,,,,,,,,,,,,,,,,,,,,,,,,,,,,,,,,,,,,,,,,,,,,,,,,,,,,,,,,,,,,,,,,,,,,,,,,,,,,,,,,,,,,,,,,,,,,,776.4207741000282,None,1986.60860316476,-2.56473602672797,5.5234289702409895e-05,1,"[0.7779789853920206, 0.6935883678199934, 0.5025642568359893, 0.7495125527043658]","[6180.882973597929, 7269.780146623571, 299.7486043736471, 1100.7231868956956]",None,"[-6.0, 0.0, 12.692802249890509, 6.0]",False,777.4206762000103,780.4218701000209,780.4218701000209,781.6293370000203,['space'],1,3.763708599988604,4.77179719999549,None,1,None,1,[0.3789641999755986],,,,,,,,ofgjwt,001,fr,0,0,2022-04-27_16h43.45.386,Cluster,2022.1.1,35.98645901557145,
,,,,4,0,4,0,1,0,1,0,,,frequency,,,,,,,,,,,,,,,,,,,,,,,,,,,,,,,,,,,,,,,,,,,,,,,,,,,,,,,,,,,,,,,,,,,,,,,,,,,,,,,,,,,,,,,,,,,,,,,,,,,,,,,,,,,,,,,,,,,782.2421341000008,None,,,,,"[0.7983104055090957, 0.5728423221298462, 0.5725078658639878, 0.7031988532668603]","[2206.224558691581, 1965.5226312680652, 1751.081592672546, 1560.036346271115]",Tone,"[2.8271288358007522, 3.43526397327203, 5.253629396202419, 7.0]",True,783.2517695999995,786.2300581000163,786.2300581000163,787.453038800013,None,1,3.6851147999987006,4.713901400013128,None,1,None,1,,,0,,,,,,ofgjwt,001,fr,0,0,2022-04-27_16h43.45.386,Cluster,2022.1.1,35.98645901557145,
,,,,4,0,4,0,2,0,2,0,,,none,,,,,,,,,,,,,,,,,,,,,,,,,,,,,,,,,,,,,,,,,,,,,,,,,,,,,,,,,,,,,,,,,,,,,,,,,,,,,,,,,,,,,,,,,,,,,,,,,,,,,,,,,,,,,,,,,,,788.0100605000043,None,329.87697769322364,-4.0,5.9788848976237954e-05,0,"[0.7278296209047976, 0.47265642836822547, 0.4974604110319738, 0.7997760625207248]","[4115.747763586615, 7385.114462745254, 392.93430184204186, 7960.104273171456]",None,"[-4.0, 0.7842820040272738, 12.0, 3.0]",False,789.0354856000049,791.7678123000078,791.7678123000078,792.9776572000119,None,0,3.5361115999985486,4.565313099999912,None,1,None,1,,,,,,,,,ofgjwt,001,fr,0,0,2022-04-27_16h43.45.386,Cluster,2022.1.1,35.98645901557145,
,,,,4,0,4,0,3,0,3,0,,,time,,,,,,,,,,,,,,,,,,,,,,,,,,,,,,,,,,,,,,,,,,,,,,,,,,,,,,,,,,,,,,,,,,,,,,,,,,,,,,,,,,,,,,,,,,,,,,,,,,,,,,,,,,,,,,,,,,,793.633050000004,None,1866.0659830736151,-5.0,3.8668977259766345e-05,1,"[0.7749147501453024, 0.7749147501453024, 0.7749147501453024, 0.7749147501453024]","[4549.370655827654, 285.6562249223482, 584.4801951019074, 410.40504954926723]",None,"[-6.426168930023824, 12.613922452999732, 9.0, 11.926694878212647]",False,794.6439442000119,797.9896152000001,797.9896152000001,799.2167842000199,['space'],1,4.110027899994748,5.114515699999174,None,1,None,1,[0.3609657999477349],,,,,,,,ofgjwt,001,fr,0,0,2022-04-27_16h43.45.386,Cluster,2022.1.1,35.98645901557145,
,,,,4,0,4,0,4,0,4,0,,,both,,,,,,,,,,,,,,,,,,,,,,,,,,,,,,,,,,,,,,,,,,,,,,,,,,,,,,,,,,,,,,,,,,,,,,,,,,,,,,,,,,,,,,,,,,,,,,,,,,,,,,,,,,,,,,,,,,,799.8113748000178,None,5849.384175437461,-13.0,2.7183422998290753e-05,1,"[0.6785284297064279, 0.6785284297064279, 0.6785284297064279, 0.6785284297064279]","[3684.8811257778107, 4136.13921621711, 4642.659296727782, 5211.208863807619]",Tone,"[-1.7562789393965659, -4.0, -6.426168930023824, -7.737642093698149]",False,800.805096200027,803.8716943000036,803.8716943000036,805.0810916000046,['space'],1,3.7532840999774635,4.773834299994633,None,1,None,1,[0.5229302999796346],,,,,,,,ofgjwt,001,fr,0,0,2022-04-27_16h43.45.386,Cluster,2022.1.1,35.98645901557145,
,,,,4,0,4,0,5,0,5,0,,,time,,,,,,,,,,,,,,,,,,,,,,,,,,,,,,,,,,,,,,,,,,,,,,,,,,,,,,,,,,,,,,,,,,,,,,,,,,,,,,,,,,,,,,,,,,,,,,,,,,,,,,,,,,,,,,,,,,,805.6274061000149,None,,,,,"[0.5362319432528002, 0.5362319432528002, 0.5362319432528002, 0.5362319432528002]","[7752.4188411882715, 824.4951858011325, 307.0263694756098, 346.00421140935424]",None,"[2.0, 4.0, 12.692802249890509, 12.46127946129036]",True,806.6409743000113,809.2632247000001,809.2632247000001,810.4695754000277,None,1,3.184211100015091,4.212680199998431,None,1,None,1,,,0,,,,,,ofgjwt,001,fr,0,0,2022-04-27_16h43.45.386,Cluster,2022.1.1,35.98645901557145,
,,,,4,0,4,0,6,0,6,0,,,time,,,,,,,,,,,,,,,,,,,,,,,,,,,,,,,,,,,,,,,,,,,,,,,,,,,,,,,,,,,,,,,,,,,,,,,,,,,,,,,,,,,,,,,,,,,,,,,,,,,,,,,,,,,,,,,,,,,810.8973270000133,None,3177.5543901963583,-5.0,3.908435617342946e-05,0,"[0.666220527219864, 0.666220527219864, 0.666220527219864, 0.666220527219864]","[654.6922041504179, 4144.542110006658, 5519.1660781209175, 2298.6864785782245]",None,"[7.0, -4.0, -7.305837667111589, 2.4582237535051696]",False,811.9156781000202,814.9504515000153,814.9504515000153,816.1685316000076,None,0,3.6925962999812327,4.6929624999756925,None,1,None,1,,,,,,,,,ofgjwt,001,fr,0,0,2022-04-27_16h43.45.386,Cluster,2022.1.1,35.98645901557145,
,,,,4,0,4,0,7,0,7,0,,,frequency,,,,,,,,,,,,,,,,,,,,,,,,,,,,,,,,,,,,,,,,,,,,,,,,,,,,,,,,,,,,,,,,,,,,,,,,,,,,,,,,,,,,,,,,,,,,,,,,,,,,,,,,,,,,,,,,,,,816.6588921000075,None,353.5533905932738,-4.0,5.591060055563459e-05,1,"[0.4296942234639372, 0.40353043165616914, 0.7697009892432204, 0.5438735401953343]","[222.72467953508485, 250.00000000000003, 280.6155120773433, 314.9802624737183]",Tone,"[11.767674517343375, 12.140918769099049, 12.613922452999732, 12.692802249890509]",False,817.6843029000156,820.3047196000116,820.3047196000116,821.5334143000073,['space'],1,3.1515414000023156,4.182314100005897,None,1,None,1,[0.9824345999804791],,,,,,,,ofgjwt,001,fr,0,0,2022-04-27_16h43.45.386,Cluster,2022.1.1,35.98645901557145,
,,,,4,0,4,0,8,0,8,0,,,time,,,,,,,,,,,,,,,,,,,,,,,,,,,,,,,,,,,,,,,,,,,,,,,,,,,,,,,,,,,,,,,,,,,,,,,,,,,,,,,,,,,,,,,,,,,,,,,,,,,,,,,,,,,,,,,,,,,821.9208262000175,None,125.0,2.0,0.000909850429304992,1,"[0.489971225646719, 0.489971225646719, 0.489971225646719, 0.489971225646719]","[1534.0926298202737, 5308.681513183999, 397.52825293913077, 1376.9487608512632]",None,"[7.0, -7.737642093698149, 12.0, 7.582715715090722]",False,822.9507539000188,825.4367617000244,825.4367617000244,826.6476476000098,['space'],1,2.9896032999968156,4.0047493999882136,None,1,None,1,[0.4245626999763772],,,,,,,,ofgjwt,001,fr,0,0,2022-04-27_16h43.45.386,Cluster,2022.1.1,35.98645901557145,
,,,,4,0,4,0,9,0,9,0,,,none,,,,,,,,,,,,,,,,,,,,,,,,,,,,,,,,,,,,,,,,,,,,,,,,,,,,,,,,,,,,,,,,,,,,,,,,,,,,,,,,,,,,,,,,,,,,,,,,,,,,,,,,,,,,,,,,,,,827.0047281000006,None,,,,,"[0.4638171798231309, 0.5282507841677526, 0.7157999044961646, 0.7739546108771362]","[587.678197791143, 2828.3428905969636, 6153.740908064477, 3737.4857883904615]",None,"[9.0, 1.901561825943622, -6.0, -1.7562789393965659]",True,827.9978042000148,830.7396131000132,830.7396131000132,831.95953740002,None,1,3.511966299993219,4.522040099982405,None,1,None,1,,,0,,,,,,ofgjwt,001,fr,0,0,2022-04-27_16h43.45.386,Cluster,2022.1.1,35.98645901557145,
,,,,4,0,4,0,10,0,10,0,,,none,,,,,,,,,,,,,,,,,,,,,,,,,,,,,,,,,,,,,,,,,,,,,,,,,,,,,,,,,,,,,,,,,,,,,,,,,,,,,,,,,,,,,,,,,,,,,,,,,,,,,,,,,,,,,,,,,,,832.5570582000073,None,565.6021476301995,3.1095892702922567,8.756026814150314e-05,0,"[0.5974301691419787, 0.6637724486769259, 0.7442358798426847, 0.7649420396510567]","[126.03298276068388, 812.1917283531417, 1097.764458682258, 2292.0688851318814]",None,"[14.435699499344308, 4.060577118408513, 6.0, 2.4582237535051696]",False,833.5481071000104,836.5995041000133,836.5995041000133,837.8123166000005,None,0,3.818175899970811,4.82455319998553,None,1,None,1,,,,,,,,,ofgjwt,001,fr,0,0,2022-04-27_16h43.45.386,Cluster,2022.1.1,35.98645901557145,
,,,,4,0,4,0,11,0,11,0,,,time,,,,,,,,,,,,,,,,,,,,,,,,,,,,,,,,,,,,,,,,,,,,,,,,,,,,,,,,,,,,,,,,,,,,,,,,,,,,,,,,,,,,,,,,,,,,,,,,,,,,,,,,,,,,,,,,,,,838.419333400001,None,240.0043401789135,6.0,0.00037324597336013405,1,"[0.4534075655797396, 0.4534075655797396, 0.4534075655797396, 0.4534075655797396]","[202.30307479014172, 589.6921925779463, 528.5723652253143, 6094.7695209700305]",None,"[11.84221032185445, 9.0, 10.01701877723087, -6.0]",False,839.431573400012,841.8224840000039,841.8224840000039,843.0509139000205,['space'],1,2.833477399981348,3.8618024999741465,None,1,None,1,[0.5307982999656815],,,,,,,,ofgjwt,001,fr,0,0,2022-04-27_16h43.45.386,Cluster,2022.1.1,35.98645901557145,
,,,,4,0,4,0,12,0,12,0,,,none,,,,,,,,,,,,,,,,,,,,,,,,,,,,,,,,,,,,,,,,,,,,,,,,,,,,,,,,,,,,,,,,,,,,,,,,,,,,,,,,,,,,,,,,,,,,,,,,,,,,,,,,,,,,,,,,,,,843.3466014000005,None,3732.1319661472303,-3.0,5.609622067137951e-05,1,"[0.4006040857292723, 0.4530801369473121, 0.45487367662377, 0.6966405452661426]","[2027.627398959374, 174.93588673475628, 1485.4099630705146, 1494.6940383098506]",None,"[3.43526397327203, 12.635602034081144, 7.070959241853986, 7.070959241853986]",False,844.3704910000088,846.7035841000034,846.7035841000034,847.9308786000183,['space'],1,3.0192475999938324,4.043768999981694,None,1,None,1,[0.3843258999695536],,,,,,,,ofgjwt,001,fr,0,0,2022-04-27_16h43.45.386,Cluster,2022.1.1,35.98645901557145,
,,,,4,0,4,0,13,0,13,0,,,time,,,,,,,,,,,,,,,,,,,,,,,,,,,,,,,,,,,,,,,,,,,,,,,,,,,,,,,,,,,,,,,,,,,,,,,,,,,,,,,,,,,,,,,,,,,,,,,,,,,,,,,,,,,,,,,,,,,848.4667730000219,None,1000.0,-9.0,1.563039683561978e-05,0,"[0.5534456022049591, 0.5534456022049591, 0.5534456022049591, 0.5534456022049591]","[359.96431097427944, 7012.166822572477, 219.08296035742498, 6632.294827552445]",None,"[12.46127946129036, -1.8027797586857162, 11.767674517343375, -3.0]",False,849.4755944000208,852.1709265000245,852.1709265000245,853.3793883000035,None,0,3.241634800011525,4.248411400010809,None,1,None,1,,,,,,,,,ofgjwt,001,fr,0,0,2022-04-27_16h43.45.386,Cluster,2022.1.1,35.98645901557145,
,,,,4,0,4,0,14,0,14,0,,,none,,,,,,,,,,,,,,,,,,,,,,,,,,,,,,,,,,,,,,,,,,,,,,,,,,,,,,,,,,,,,,,,,,,,,,,,,,,,,,,,,,,,,,,,,,,,,,,,,,,,,,,,,,,,,,,,,,,853.7757451000216,None,,,,,"[0.7376302328191678, 0.481536437238228, 0.7718762277770583, 0.5124614440385994]","[3847.5909568380594, 547.3921372400919, 286.4757826874703, 188.9550613788369]",None,"[-2.0, 10.0, 12.613922452999732, 12.145326944620653]",True,854.7770920000039,857.797266700014,857.797266700014,859.0152753000148,None,1,3.521102799975779,4.541089699981967,None,1,None,1,,,0,,,,,,ofgjwt,001,fr,0,0,2022-04-27_16h43.45.386,Cluster,2022.1.1,35.98645901557145,
,,,,4,0,4,0,15,0,15,0,,,time,,,,,,,,,,,,,,,,,,,,,,,,,,,,,,,,,,,,,,,,,,,,,,,,,,,,,,,,,,,,,,,,,,,,,,,,,,,,,,,,,,,,,,,,,,,,,,,,,,,,,,,,,,,,,,,,,,,859.3569659000204,None,179.60228335605873,6.635602034081144,0.000729313610841342,1,"[0.6003465880029009, 0.6003465880029009, 0.6003465880029009, 0.6003465880029009]","[2163.183936779442, 272.009916652923, 1013.8233313211902, 2232.9844532169427]",None,"[2.8271288358007522, 12.411447692845933, 5.0, 2.4582237535051696]",False,860.3715501000115,863.1865556000266,863.1865556000266,864.4156622000155,['space'],1,3.432667599990964,4.449183099990478,None,1,None,1,[0.27107919997069985],,,,,,,,ofgjwt,001,fr,0,0,2022-04-27_16h43.45.386,Cluster,2022.1.1,35.98645901557145,
,,,,4,0,4,0,16,0,16,0,,,frequency,,,,,,,,,,,,,,,,,,,,,,,,,,,,,,,,,,,,,,,,,,,,,,,,,,,,,,,,,,,,,,,,,,,,,,,,,,,,,,,,,,,,,,,,,,,,,,,,,,,,,,,,,,,,,,,,,,,864.8694783000101,None,189.20210158486165,6.145326944620652,0.0006183517678760579,1,"[0.4643113729643263, 0.49465952004314384, 0.693528271215305, 0.6003315058452651]","[300.3396150904036, 267.57217809080345, 238.37971047111535, 212.37217848938187]",Tone,"[12.692802249890509, 12.411447692845933, 12.0, 11.767674517343375]",False,865.880256000004,868.5496282000095,868.5496282000095,869.7500198000052,['space'],1,3.2884564999840222,4.308300699980464,None,1,None,1,[0.3630940999719314],,,,,,,,ofgjwt,001,fr,0,0,2022-04-27_16h43.45.386,Cluster,2022.1.1,35.98645901557145,
,,,,4,0,4,0,17,0,17,0,,,none,,,,,,,,,,,,,,,,,,,,,,,,,,,,,,,,,,,,,,,,,,,,,,,,,,,,,,,,,,,,,,,,,,,,,,,,,,,,,,,,,,,,,,,,,,,,,,,,,,,,,,,,,,,,,,,,,,,870.2305793000269,None,1141.898949143008,0.6349420285508768,5.377866079477253e-05,1,"[0.7645266189056752, 0.4217166014264221, 0.41070101648748664, 0.5891967629988633]","[4432.033579408571, 240.92504376425387, 844.4609041830564, 614.4546674308062]",None,"[-6.0, 12.0, 4.0, 8.007441273986634]",False,871.2394501000235,873.8591696000076,873.8591696000076,875.0797493999999,['space'],1,3.213649399986025,4.217385299998568,None,1,None,1,[0.5498015999619383],,,,,,,,ofgjwt,001,fr,0,0,2022-04-27_16h43.45.386,Cluster,2022.1.1,35.98645901557145,
,,,,4,0,4,0,18,0,18,0,,,frequency,,,,,,,,,,,,,,,,,,,,,,,,,,,,,,,,,,,,,,,,,,,,,,,,,,,,,,,,,,,,,,,,,,,,,,,,,,,,,,,,,,,,,,,,,,,,,,,,,,,,,,,,,,,,,,,,,,,875.5028777000261,None,,,,,"[0.446315573513289, 0.7994448471007074, 0.7794018358733471, 0.724324120496232]","[2366.9183257645595, 2108.684502366524, 1878.6243201207358, 1673.66399866283]",Tone,"[2.4582237535051696, 3.0, 4.2710920114166075, 6.0]",True,876.5018683000235,879.5554370000027,879.5554370000027,880.7695027000154,None,1,3.785809499997413,4.794128700013971,None,1,None,1,,,0,,,,,,ofgjwt,001,fr,0,0,2022-04-27_16h43.45.386,Cluster,2022.1.1,35.98645901557145,
,,,,4,0,4,0,19,0,19,0,,,time,,,,,,,,,,,,,,,,,,,,,,,,,,,,,,,,,,,,,,,,,,,,,,,,,,,,,,,,,,,,,,,,,,,,,,,,,,,,,,,,,,,,,,,,,,,,,,,,,,,,,,,,,,,,,,,,,,,881.3397878000105,None,8000.0,-8.0,7.22719885372964e-05,1,"[0.47566302460601273, 0.47566302460601273, 0.47566302460601273, 0.47566302460601273]","[130.6386849972717, 2949.5421156928796, 5137.4776078643845, 127.53361773454989]",None,"[14.50595197061979, 1.4739359530235028, -7.737642093698149, 14.435699499344308]",False,882.4277488000225,884.8731232000282,884.8731232000282,886.079118900001,['space'],1,2.9583921999728773,3.9764168999681715,None,1,None,1,[0.5703392999712378],,,,,,,,ofgjwt,001,fr,0,0,2022-04-27_16h43.45.386,Cluster,2022.1.1,35.98645901557145,
,,,,5,0,5,0,0,0,0,0,,,time,,,,,,,,,,,,,,,,,,,,,,,,,,,,,,,,,,,,,,,,,,,,,,,,,,,,,,,,,,,,,,,,,,,,,,,,,,,,,,,,,,,,,,,,,,,,,,,,,,,,,,,,,,,,,,,,,,,954.6556608000246,None,1613.4471150370055,0.2438109349194657,5.8990547190023845e-05,1,"[0.5892639336596474, 0.5892639336596474, 0.5892639336596474, 0.5892639336596474]","[2163.860160635236, 901.7066889607538, 2638.1169127010053, 292.8875289866155]",None,"[2.8271288358007522, 4.0, 2.1227880221156723, 12.613922452999732]",False,955.6409358000092,958.448649900005,958.448649900005,959.6711573000066,['space'],1,3.3943408000050113,4.411876400001347,None,1,None,1,[0.4163529999786988],,,,,,,,ofgjwt,001,fr,0,0,2022-04-27_16h43.45.386,Cluster,2022.1.1,35.98645901557145,
,,,,5,0,5,0,1,0,1,0,,,time,,,,,,,,,,,,,,,,,,,,,,,,,,,,,,,,,,,,,,,,,,,,,,,,,,,,,,,,,,,,,,,,,,,,,,,,,,,,,,,,,,,,,,,,,,,,,,,,,,,,,,,,,,,,,,,,,,,960.0977455000102,None,6062.8662660415985,-15.0,2.1131731960402576e-05,1,"[0.7997688988000534, 0.7997688988000534, 0.7997688988000534, 0.7997688988000534]","[395.8268729804896, 2560.602461642817, 2044.9388958425143, 792.6981439037654]",None,"[12.0, 2.1227880221156723, 3.43526397327203, 4.060577118408513]",False,962.8735143000085,966.2971707000106,966.2971707000106,967.5084465000255,['space'],1,4.224697299941909,5.252984799939441,None,1,None,1,[0.7620174999756273],,,,,,,,ofgjwt,001,fr,0,0,2022-04-27_16h43.45.386,Cluster,2022.1.1,35.98645901557145,
,,,,5,0,5,0,2,0,2,0,,,time,,,,,,,,,,,,,,,,,,,,,,,,,,,,,,,,,,,,,,,,,,,,,,,,,,,,,,,,,,,,,,,,,,,,,,,,,,,,,,,,,,,,,,,,,,,,,,,,,,,,,,,,,,,,,,,,,,,968.158608800004,None,1071.231631572567,-0.26107123915038166,4.5639257816413436e-05,1,"[0.4711679679520919, 0.4711679679520919, 0.4711679679520919, 0.4711679679520919]","[1267.3861686233367, 5107.682331769932, 4057.474269970671, 1533.5079804237575]",None,"[7.33586302511102, -7.737642093698149, -4.0, 7.0]",False,969.1743690000148,971.6126542000275,971.6126542000275,972.8381428000284,['space'],1,2.9111548999790102,3.9278764999762643,None,1,None,1,[0.2934098999830894],,,,,,,,ofgjwt,001,fr,0,0,2022-04-27_16h43.45.386,Cluster,2022.1.1,35.98645901557145,
,,,,5,0,5,0,3,0,3,0,,,both,,,,,,,,,,,,,,,,,,,,,,,,,,,,,,,,,,,,,,,,,,,,,,,,,,,,,,,,,,,,,,,,,,,,,,,,,,,,,,,,,,,,,,,,,,,,,,,,,,,,,,,,,,,,,,,,,,,973.1532624000101,None,125.0,2.0,0.000909850429304992,1,"[0.7593909755110448, 0.7593909755110448, 0.7593909755110448, 0.7593909755110448]","[629.9605249474366, 420.4482076268573, 280.6155120773433, 187.2883846095852]",Perfect_5th,"[8.0, 11.926694878212647, 12.613922452999732, 12.145326944620653]",False,974.1853133000259,977.4756828000245,977.4756828000245,978.6996345000225,['space'],1,4.061569299985422,5.0742073000001255,None,1,None,1,[0.3290166999795474],,,,,,,,ofgjwt,001,fr,0,0,2022-04-27_16h43.45.386,Cluster,2022.1.1,35.98645901557145,
,,,,5,0,5,0,4,0,4,0,,,frequency,,,,,,,,,,,,,,,,,,,,,,,,,,,,,,,,,,,,,,,,,,,,,,,,,,,,,,,,,,,,,,,,,,,,,,,,,,,,,,,,,,,,,,,,,,,,,,,,,,,,,,,,,,,,,,,,,,,979.2957075000159,None,,,,,"[0.6634420615821475, 0.4584405292749172, 0.5342720282044563, 0.7227714425562013]","[1033.747614005014, 689.9437571635368, 460.48221209885054, 307.33500442296224]",Perfect_5th,"[5.0, 6.0, 11.224919305042746, 12.692802249890509]",True,980.2937104000011,982.9759977000067,982.9759977000067,984.1999985000002,None,1,3.4165428999986034,4.440330999990692,None,1,None,1,,,0,,,,,,ofgjwt,001,fr,0,0,2022-04-27_16h43.45.386,Cluster,2022.1.1,35.98645901557145,
,,,,5,0,5,0,5,0,5,0,,,time,,,,,,,,,,,,,,,,,,,,,,,,,,,,,,,,,,,,,,,,,,,,,,,,,,,,,,,,,,,,,,,,,,,,,,,,,,,,,,,,,,,,,,,,,,,,,,,,,,,,,,,,,,,,,,,,,,,984.7789520000224,None,287.17458874925893,-1.0,0.0001141689127028708,1,"[0.7528794085252055, 0.7528794085252055, 0.7528794085252055, 0.7528794085252055]","[604.5411898652953, 412.7386132070037, 1462.0107125507318, 7219.513618605607]",None,"[8.007441273986634, 11.926694878212647, 7.582715715090722, 0.0]",False,985.805425700004,989.0861165000242,989.0861165000242,990.3144474000146,['space'],1,4.031454899988603,5.044728999986546,None,1,None,1,[0.4476796999806538],,,,,,,,ofgjwt,001,fr,0,0,2022-04-27_16h43.45.386,Cluster,2022.1.1,35.98645901557145,
,,,,5,0,5,0,6,0,6,0,,,time,,,,,,,,,,,,,,,,,,,,,,,,,,,,,,,,,,,,,,,,,,,,,,,,,,,,,,,,,,,,,,,,,,,,,,,,,,,,,,,,,,,,,,,,,,,,,,,,,,,,,,,,,,,,,,,,,,,990.9021627000184,None,328.8017078444512,6.633888727792077,0.0002039821351865305,1,"[0.5872324009990887, 0.5872324009990887, 0.5872324009990887, 0.5872324009990887]","[244.90463017588763, 1456.970325392298, 160.6970196134821, 1161.367619985872]",None,"[12.0, 7.582715715090722, 13.238881238214129, 6.634942028550877]",False,991.913532000006,994.6914686000091,994.6914686000091,995.9048047000251,['space'],1,3.371487199998228,4.39876589999767,None,1,None,1,[0.43904819997260347],,,,,,,,ofgjwt,001,fr,0,0,2022-04-27_16h43.45.386,Cluster,2022.1.1,35.98645901557145,
,,,,5,0,5,0,7,0,7,0,,,frequency,,,,,,,,,,,,,,,,,,,,,,,,,,,,,,,,,,,,,,,,,,,,,,,,,,,,,,,,,,,,,,,,,,,,,,,,,,,,,,,,,,,,,,,,,,,,,,,,,,,,,,,,,,,,,,,,,,,996.3624287000275,None,466.5164957684038,-4.0,4.615806072703715e-05,0,"[0.4652820812149503, 0.7423775345292518, 0.791875371832844, 0.7378184335486366]","[740.5487761432823, 659.7539553864473, 587.7739531418044, 523.6470614103134]",Tone,"[5.0, 6.80272692949871, 9.0, 10.01701877723087]",False,997.371223300026,1000.3875729000138,1000.3875729000138,1001.6046763000195,None,0,3.7444137999846134,4.774618199997349,None,1,None,1,,,,,,,,,ofgjwt,001,fr,0,0,2022-04-27_16h43.45.386,Cluster,2022.1.1,35.98645901557145,
,,,,5,0,5,0,8,0,8,0,,,none,,,,,,,,,,,,,,,,,,,,,,,,,,,,,,,,,,,,,,,,,,,,,,,,,,,,,,,,,,,,,,,,,,,,,,,,,,,,,,,,,,,,,,,,,,,,,,,,,,,,,,,,,,,,,,,,,,,1002.19808620002,None,,,,,"[0.4671031615673193, 0.572535570760784, 0.5882125278512116, 0.7278968204069033]","[498.6172816579811, 233.4145055934151, 5117.3196306681875, 260.3269101136682]",None,"[10.711014651906595, 11.891341302813132, -7.737642093698149, 12.411447692845933]",True,1003.2084212000191,1005.8692635000043,1005.8692635000043,1007.0918275000004,None,1,3.3760887999960687,4.408964800008107,None,1,None,1,,,0,,,,,,ofgjwt,001,fr,0,0,2022-04-27_16h43.45.386,Cluster,2022.1.1,35.98645901557145,
,,,,5,0,5,0,9,0,9,0,,,both,,,,,,,,,,,,,,,,,,,,,,,,,,,,,,,,,,,,,,,,,,,,,,,,,,,,,,,,,,,,,,,,,,,,,,,,,,,,,,,,,,,,,,,,,,,,,,,,,,,,,,,,,,,,,,,,,,,1007.6644330000272,None,1517.722883122989,1.070959241853986,5.633461379689658e-05,1,"[0.5560562950517676, 0.5560562950517676, 0.5560562950517676, 0.5560562950517676]","[301.1543626582052, 451.22171280307543, 676.0686855332655, 1012.9584959892074]",Perfect_5th,"[12.692802249890509, 11.224919305042746, 6.0, 5.0]",False,1008.6791176000261,1011.3865912000183,1011.3865912000183,1012.5939819000196,['space'],1,3.2415559999935795,4.266440999985207,None,1,None,1,[0.3301591999770608],,,,,,,,ofgjwt,001,fr,0,0,2022-04-27_16h43.45.386,Cluster,2022.1.1,35.98645901557145,
,,,,5,0,5,0,10,0,10,0,,,time,,,,,,,,,,,,,,,,,,,,,,,,,,,,,,,,,,,,,,,,,,,,,,,,,,,,,,,,,,,,,,,,,,,,,,,,,,,,,,,,,,,,,,,,,,,,,,,,,,,,,,,,,,,,,,,,,,,1012.9969293000177,None,757.8582832551998,-5.0,2.26534801498785e-05,1,"[0.7916403079892188, 0.7916403079892188, 0.7916403079892188, 0.7916403079892188]","[587.4292198265877, 4890.645757567854, 1059.2031984710547, 1246.0800998644813]",None,"[9.0, -7.407129935038894, 5.7389287608496184, 7.33586302511102]",False,1014.0257038000273,1017.430643300002,1017.430643300002,1018.6482397000073,['space'],1,4.192825500009349,5.194787600019481,None,1,None,1,[0.3862159999553114],,,,,,,,ofgjwt,001,fr,0,0,2022-04-27_16h43.45.386,Cluster,2022.1.1,35.98645901557145,
,,,,5,0,5,0,11,0,11,0,,,both,,,,,,,,,,,,,,,,,,,,,,,,,,,,,,,,,,,,,,,,,,,,,,,,,,,,,,,,,,,,,,,,,,,,,,,,,,,,,,,,,,,,,,,,,,,,,,,,,,,,,,,,,,,,,,,,,,,1019.2806877000257,None,707.1067811865476,-4.0,2.801636609927772e-05,0,"[0.6237300994802302, 0.6237300994802302, 0.6237300994802302, 0.6237300994802302]","[140.30775603867164, 210.22410381342866, 314.9802624737183, 471.93715634084674]",Perfect_5th,"[14.285385275557555, 11.84221032185445, 12.692802249890509, 11.224919305042746]",False,1020.2868470000103,1023.1937047000101,1023.1937047000101,1024.4102082000172,None,0,3.5241204999911133,4.548577199981082,None,1,None,1,,,,,,,,,ofgjwt,001,fr,0,0,2022-04-27_16h43.45.386,Cluster,2022.1.1,35.98645901557145,
,,,,5,0,5,0,12,0,12,0,,,frequency,,,,,,,,,,,,,,,,,,,,,,,,,,,,,,,,,,,,,,,,,,,,,,,,,,,,,,,,,,,,,,,,,,,,,,,,,,,,,,,,,,,,,,,,,,,,,,,,,,,,,,,,,,,,,,,,,,,1024.885817900009,None,,,,,"[0.5416099609532591, 0.4530154124042789, 0.49992154214255413, 0.4066775529488216]","[1506.641795647339, 1195.8223856749214, 949.1248564937462, 753.3208978236695]",Major_3rd,"[7.070959241853986, 7.0, 4.187791949715262, 4.670978789390276]",True,1025.8820675000024,1028.4128360000032,1028.4128360000032,1029.6145706000098,None,1,2.9245776000025216,3.939718100009486,None,1,None,1,,,0,,,,,,ofgjwt,001,fr,0,0,2022-04-27_16h43.45.386,Cluster,2022.1.1,35.98645901557145,
,,,,5,0,5,0,13,0,13,0,,,time,,,,,,,,,,,,,,,,,,,,,,,,,,,,,,,,,,,,,,,,,,,,,,,,,,,,,,,,,,,,,,,,,,,,,,,,,,,,,,,,,,,,,,,,,,,,,,,,,,,,,,,,,,,,,,,,,,,1029.8632030000153,None,859.083744936044,-2.108220512675823,3.1416853576487526e-05,1,"[0.7092266935420912, 0.7092266935420912, 0.7092266935420912, 0.7092266935420912]","[205.04987242945023, 3604.145875153183, 2414.7143121176223, 4831.851720560939]",None,"[11.84221032185445, -1.0, 2.2619426833123955, -7.0]",False,1030.8566741000104,1034.012487800006,1034.012487800006,1035.2248535000253,['space'],1,3.873670500004664,4.9000729999970645,None,1,None,1,[0.40007709997007623],,,,,,,,ofgjwt,001,fr,0,0,2022-04-27_16h43.45.386,Cluster,2022.1.1,35.98645901557145,
,,,,5,0,5,0,14,0,14,0,,,none,,,,,,,,,,,,,,,,,,,,,,,,,,,,,,,,,,,,,,,,,,,,,,,,,,,,,,,,,,,,,,,,,,,,,,,,,,,,,,,,,,,,,,,,,,,,,,,,,,,,,,,,,,,,,,,,,,,1035.8087372000155,None,8000.0,-6.0,9.098504293049921e-05,1,"[0.6281321210869754, 0.5452391219569775, 0.7719139902351881, 0.7124733124461038]","[2845.0351613822813, 283.10580266127926, 623.7809781370945, 3381.316906450545]",None,"[1.901561825943622, 12.613922452999732, 8.0, 0.0]",False,1036.837779500027,1039.8105191000213,1039.8105191000213,1041.015215100022,['space'],1,3.681036399997538,4.693671399989398,None,1,None,1,[0.389750299975276],,,,,,,,ofgjwt,001,fr,0,0,2022-04-27_16h43.45.386,Cluster,2022.1.1,35.98645901557145,
,,,,5,0,5,0,15,0,15,0,,,both,,,,,,,,,,,,,,,,,,,,,,,,,,,,,,,,,,,,,,,,,,,,,,,,,,,,,,,,,,,,,,,,,,,,,,,,,,,,,,,,,,,,,,,,,,,,,,,,,,,,,,,,,,,,,,,,,,,1041.5847601999994,None,1108.0265787551348,0.0,4.857088474182984e-05,1,"[0.566532211766711, 0.566532211766711, 0.566532211766711, 0.566532211766711]","[698.0130052082968, 783.4931075726859, 879.4412783623129, 987.1394586783753]",Tone,"[6.0, 4.670978789390276, 3.891779487324177, 4.853291291955699]",False,1042.6035211000126,1045.3437296000193,1045.3437296000193,1046.5624902000127,['space'],1,3.2962025000015274,4.309507900004974,None,1,None,1,[0.4311681999824941],,,,,,,,ofgjwt,001,fr,0,0,2022-04-27_16h43.45.386,Cluster,2022.1.1,35.98645901557145,
,,,,5,0,5,0,16,0,16,0,,,time,,,,,,,,,,,,,,,,,,,,,,,,,,,,,,,,,,,,,,,,,,,,,,,,,,,,,,,,,,,,,,,,,,,,,,,,,,,,,,,,,,,,,,,,,,,,,,,,,,,,,,,,,,,,,,,,,,,1046.9660380000132,None,,,,,"[0.5180111954868694, 0.5180111954868694, 0.5180111954868694, 0.5180111954868694]","[7712.514618253474, 730.3815271917128, 185.7806448408872, 670.8394031194659]",None,"[2.0, 5.0, 12.145326944620653, 6.80272692949871]",True,1047.978236200026,1050.5485548000142,1050.5485548000142,1051.7601551000262,None,1,3.117929300002288,4.135177499993006,None,1,None,1,,,0,,,,,,ofgjwt,001,fr,0,0,2022-04-27_16h43.45.386,Cluster,2022.1.1,35.98645901557145,
,,,,5,0,5,0,17,0,17,0,,,time,,,,,,,,,,,,,,,,,,,,,,,,,,,,,,,,,,,,,,,,,,,,,,,,,,,,,,,,,,,,,,,,,,,,,,,,,,,,,,,,,,,,,,,,,,,,,,,,,,,,,,,,,,,,,,,,,,,1052.151837100013,None,1319.5079107728945,-7.0,2.3577555098377164e-05,0,"[0.4181501429549601, 0.4181501429549601, 0.4181501429549601, 0.4181501429549601]","[801.8301813976411, 5512.211638607978, 181.5356401557629, 143.39183281648974]",None,"[4.060577118408513, -7.305837667111589, 12.635602034081144, 14.285385275557555]",False,1053.2210849000257,1055.4932798000227,1055.4932798000227,1056.6966527000186,None,0,2.7069587000005413,3.716445800004294,None,1,None,1,,,,,"{'estimation': [[125.0, -0.10413608020346576], [126.20062498284597, 0.0], [133.97168281703654, 0.6322900318662552], [138.71576446523395, 1.0], [143.5872943746293, 1.3695225080071078], [152.67432386812746, 2.0], [153.89305166811442, 2.083444037104469], [164.93848884661162, 2.712550931837979], [172.1215888299711, 3.0], [176.77669529663666, 3.1762167231291283], [189.46457081379947, 3.3503290640147103], [203.0630990890585, 3.1450896008717946], [206.29233098352222, 3.0], [217.6376408240306, 2.506139334705898], [225.181459035083, 2.0], [233.25824788420132, 1.469642873804574], [239.12472637708083, 1.0], [249.99999999999937, 0.1480695474884952], [251.82717523147517, 0.0], [264.2048018598926, -1.0], [267.94336563407256, -1.2856610062570224], [278.1031487793804, -2.0], [287.1745887492579, -2.605698488903327], [294.8919826789402, -3.0], [307.78610333622805, -3.6265143920744283], [321.5086775622384, -4.0], [329.87697769322244, -4.219594090602962], [353.55339059327247, -4.345344212999924], [378.929141627598, -4.07226909217583], [382.6057409800932, -4.0], [406.12619817811606, -3.550784135175941], [434.0543839840625, -3.0], [435.2752816480601, -2.975934412707441], [466.5164957684015, -2.538346692750139], [499.9999999999975, -2.388955854048879], [535.8867312681438, -2.5990290637782385], [562.543710268968, -3.0], [574.3491774985143, -3.170005144467823], [614.9732768732244, -4.0], [615.5722066724546, -4.011785221262185], [659.7199989127487, -5.0], [659.7539553864432, -5.000728544060627], [707.1067811865431, -5.988339685280763], [707.7636883097698, -6.0], [757.8582832551941, -6.84203633254594], [770.913143430987, -7.0], [812.2523963562301, -7.4750125726873415], [870.550563296117, -7.838573689158865], [933.0329915368008, -7.960623992032069], [999.9999999999926, -7.89628978328704], [1071.773462536285, -7.7316526071876766], [1148.698354997026, -7.554255193597519], [1231.1444133449063, -7.431229845969902], [1319.5079107728832, -7.397366134949674], [1414.2135623730828, -7.446439699908327], [1515.7165665103846, -7.530922651958625], [1624.5047927124563, -7.571633650190907], [1741.1011265922298, -7.474566547155847], [1866.065983073597, -7.150522632208275], [1898.4544580133543, -7.0], [1999.9999999999802, -6.542864521461401], [2087.091230404979, -6.0], [2143.5469250725646, -5.653907479546583], [2234.1021519488236, -5.0], [2297.396709994046, -4.553957746767345], [2373.715789397902, -4.0], [2462.2888266898062, -3.380329185152446], [2523.9765194788483, -3.0], [2639.01582154576, -2.325431227242804], [2722.3781156605455, -2.0], [2828.427124746159, -1.6070455206600256], [3031.4331330207615, -1.4377469159293481], [3249.0095854249043, -1.9601766890145844], [3256.204544705432, -2.0], [3439.35337113882, -3.0], [3482.2022531844596, -3.2243206784266674], [3582.3102193531395, -4.0], [3709.6193393371973, -5.0], [3732.1319661471844, -5.163600586486328], [3825.4434390700367, -6.0], [3930.715301676323, -7.0], [3999.9999999999504, -7.5909152664842665], [4046.551896791105, -8.0], [4149.949001819256, -9.0], [4257.872575531533, -10.0], [4287.093850145118, -10.239813202357585], [4380.22590993097, -11.0], [4495.301287684971, -12.0], [4594.793419988076, -12.770583434613815], [4631.381116166358, -13.0], [4782.742791272712, -14.0], [4924.577653379601, -14.874873785145233], [4955.4692120581385, -15.0], [5201.316026437886, -16.0], [5278.031643091506, -16.298604537539997], [5656.854249492303, -16.876541128865355], [6062.866266041508, -16.605643157013333], [6314.456974088628, -16.0], [6498.019170849792, -15.579724882096274], [6666.385534088732, -15.0], [6964.404506368894, -14.00255282019633], [6965.094243780566, -14.000000000000002], [7229.823919341628, -13.0], [7464.2639322943505, -12.1430103234435], [7506.527620220205, -12.0], [7787.61988242103, -11.0], [7999.999999999882, -10.256849973479591]], 'plus_line': [[125.0, -2.964305462412413], [133.9716828170366, -2.193994647117348], [136.57872490435568, -2.0], [143.5872943746293, -1.5179205371372233], [151.37767108243833, -1.0], [153.89305166811442, -0.843450299577577], [164.93848884661162, -0.21523826627141754], [169.55258144640936, 0.0], [176.77669529663666, 0.29302436591673786], [189.46457081379947, 0.5186486252124346], [203.0630990890585, 0.341553260491657], [210.77976951105964, 0.0], [217.6376408240306, -0.3145348237376634], [227.40266008878743, -1.0], [233.25824788420147, -1.3974130956033304], [240.3627736334813, -2.0], [249.99999999999937, -2.7559101672560136], [252.9019949253061, -3.0], [265.22008629102874, -4.0], [267.94336563407256, -4.203286275926658], [279.1790548873665, -5.0], [287.1745887492579, -5.513552067794862], [297.2105818391148, -6.0], [307.78610333622805, -6.489350655745408], [329.6010916761221, -7.0], [329.87697769322244, -7.006755353399617], [353.55339059327247, -7.11358802695068], [363.3533472093836, -7.0], [378.929141627598, -6.848161606016783], [406.12619817811606, -6.375808523768465], [425.4865783701707, -6.0], [435.2752816480601, -5.827553666833403], [466.5164957684015, -5.420166234548134], [499.9999999999975, -5.257884753396851], [535.8867312681438, -5.447832251847876], [574.3491774985143, -5.9689717409714085], [575.8562001755384, -6.0], [615.5722066724546, -6.80265189320657], [624.271828889657, -7.0], [659.7539553864432, -7.780093935579057], [670.1845692436581, -8.0], [707.1067811865431, -8.75350906717484], [721.9503225227955, -9.0], [757.8582832551941, -9.587443358260504], [796.7516903865145, -10.0], [812.2523963562301, -10.170659630780811], [870.5505632961181, -10.50684457286834], [933.0329915368008, -10.609311205656908], [999.9999999999926, -10.574331575026577], [1071.773462536285, -10.484924531178928], [1148.6983549970273, -10.400369082233068], [1231.1444133449063, -10.352705144355689], [1319.5079107728832, -10.350824943629007], [1414.2135623730828, -10.38408276347952], [1515.7165665103828, -10.422767428134424], [1624.5047927124563, -10.417295173403934], [1741.101126592234, -10.297291472977216], [1853.5459896365262, -10.0], [1866.065983073597, -9.971054126916862], [1999.9999999999802, -9.42706894441921], [2070.255391190531, -9.0], [2143.5469250725646, -8.576810217298513], [2223.9971767048983, -8.0], [2297.396709994046, -7.486067741570065], [2362.6633559973443, -7.0], [2462.2888266898062, -6.271802966499456], [2503.0999004939144, -6.0], [2639.01582154576, -5.135045622071686], [2668.195874354585, -5.0], [2828.427124746159, -4.34097105856733], [3031.4331330207615, -4.089966812401764], [3249.0095854249043, -4.589179535892278], [3322.1593981108003, -5.0], [3482.2022531844596, -5.846341357812586], [3501.583560812467, -6.0], [3618.032562463025, -7.0], [3732.1319661471844, -7.815340804690058], [3752.4759849681136, -8.0], [3848.368606788558, -9.0], [3959.965280345796, -10.0], [3999.9999999999504, -10.29963433458326], [4069.84295326444, -11.0], [4164.101615871936, -12.0], [4287.093850145118, -12.98447321106644], [4288.990526237712, -13.0], [4394.172045402817, -14.0], [4507.520136340651, -15.0], [4594.793419988081, -15.61491914298339], [4650.4361151017465, -16.0], [4789.566348330751, -17.0], [4924.577653379601, -17.799645628342827], [4970.73864726543, -18.0], [5201.607802655406, -19.0], [5278.031643091506, -19.30566555520627], [5656.854249492303, -19.91922562280701], [6062.866266041501, -19.650312909769006], [6317.664412537342, -19.0], [6498.019170849792, -18.5605314922643], [6658.275505075247, -18.0], [6928.127564712103, -17.0], [6964.404506368894, -16.875824341217964], [7204.1363378692195, -16.0], [7449.419983518343, -15.0], [7464.2639322943505, -14.945461402702787], [7758.7157477315095, -14.0], [7999.999999999882, -13.126594853381146]], 'minus_line': [[125.0, 2.672197239727002], [129.26107330576244, 3.0], [133.9716828170366, 3.360552844218597], [142.00922261099714, 4.0], [143.5872943746293, 4.128669824009984], [153.89305166811442, 4.880822592910561], [155.9529545116562, 5.0], [164.93848884661162, 5.5244210592375325], [176.77669529663666, 5.9236047263392395], [184.806706565578, 6.0], [189.46457081379947, 6.048441477971194], [192.00421776222822, 6.0], [203.0630990890585, 5.823167738602592], [217.6376408240306, 5.206900030421], [220.78845389782592, 5.0], [233.25824788420132, 4.201513454029289], [235.88347465059763, 4.0], [248.5802155131398, 3.0], [249.99999999999937, 2.892046829946751], [261.37102919224407, 2.0], [267.94336563407256, 1.4767091452741266], [274.7784441998911, 1.0], [287.1745887492579, 0.11702905511930983], [289.3692734287256, 0.0], [307.78610333622805, -0.9498227826297303], [309.4319214560627, -1.0], [329.87697769322244, -1.553000598447509], [353.55339059327247, -1.6717304533377642], [378.929141627598, -1.3498453434302768], [395.2197822279633, -1.0], [406.12619817811606, -0.7480065996500539], [435.2752816480601, -0.1095267326792849], [442.562840063581, 0.0], [466.5164957684015, 0.38150837870985677], [499.9999999999975, 0.52519250534787], [535.8867312681438, 0.2683936857918505], [551.202788453761, 0.0], [574.3491774985143, -0.35767111370728144], [602.99711954272, -1.0], [615.5722066724546, -1.2616618310017875], [646.5423405655882, -2.0], [659.7539553864432, -2.2985024465206347], [691.4396271190567, -3.0], [707.1067811865431, -3.329348974103735], [744.154752445069, -4.0], [757.8582832551941, -4.232022974189679], [812.2523963562301, -4.908050207036979], [824.2999558924482, -5.0], [870.5505632961181, -5.300635753802111], [933.0329915368008, -5.418542772754762], [999.9999999999926, -5.310695592830195], [1071.773462536285, -5.0645132991909945], [1089.6542996807832, -5.0], [1148.698354997026, -4.7610171281737514], [1231.1444133449063, -4.5464210274322685], [1319.5079107728832, -4.479540319737426], [1414.2135623730828, -4.552432169237051], [1515.7165665103846, -4.700756436177413], [1624.5047927124563, -4.810998236761398], [1741.1011265922318, -4.746283008506394], [1866.065983073597, -4.413064437816278], [1952.5740942889847, -4.0], [1999.9999999999802, -3.7632561896579872], [2115.832522861315, -3.0], [2143.5469250725646, -2.817155256040986], [2251.0134403374927, -2.0], [2297.396709994046, -1.6610605424440543], [2386.45561096148, -1.0], [2462.2888266898062, -0.4652721509309598], [2539.512583569622, 0.0], [2639.01582154576, 0.5793474744252506], [2756.0396129674964, 1.0], [2828.427124746159, 1.2670845401543835], [3031.4331330207615, 1.4175454854961687], [3191.971254815881, 1.0], [3249.0095854249043, 0.8674870607169584], [3409.0013235757233, 0.0], [3482.2022531844555, -0.39668643936900316], [3564.7584732696696, -1.0], [3685.962369718988, -2.0], [3732.1319661471844, -2.362153318876538], [3810.7381621702834, -3.0], [3913.728979572286, -4.0], [3999.9999999999504, -4.837704810294003], [4020.8858786832216, -5.0], [4135.812507978197, -6.0], [4231.053670644481, -7.0], [4287.093850145118, -7.515352314371214], [4354.927595361067, -8.0], [4471.668947423916, -9.0], [4582.811701158861, -10.0], [4594.793419988081, -10.090232897526793], [4747.323662145814, -11.0], [4893.520121178605, -12.0], [4924.577653379601, -12.188208646975784], [5132.594820554375, -13.0], [5278.031643091506, -13.575158894658049], [5552.134305528163, -14.0], [5656.854249492303, -14.149758876061505], [5882.398210843093, -14.0], [6062.866266041508, -13.871516831562444], [6441.908415014272, -13.0], [6498.019170849792, -12.875645261802593], [6748.90939527812, -12.0], [6964.404506368894, -11.34111613558747], [7052.894601790933, -11.0], [7307.514382376346, -10.0], [7464.2639322943505, -9.481563648303542], [7591.012504537643, -9.0], [7847.149440587607, -8.0], [7999.999999999892, -7.48994586387537]]}",,,,ofgjwt,001,fr,0,0,2022-04-27_16h43.45.386,Cluster,2022.1.1,35.98645901557145,
