tTrials.thisRepN,tTrials.thisTrialN,tTrials.thisN,tTrials.thisIndex,blocks.thisRepN,blocks.thisTrialN,blocks.thisN,blocks.thisIndex,trials.thisRepN,trials.thisTrialN,trials.thisN,trials.thisIndex,tStart_text.started,tStart_text.stopped,Prediction,practice_Frequency,practice_Level,practice_Psychopy_Level,practice_isCatchTrial,Practice_trial_detection,practice_Cue_Delays,practice_Cue_Frequencies,practice_Interval,practice_Cue_Intensities,tCue_visual_cue.started,tCue_visual_cue.stopped,tProbe_visual_cue.started,tProbe_visual_cue.stopped,tFeedback.keys,tFeedback.corr,tFeedback.rt,tFeedback.started,tFeedback.stopped,tToo_late.keys,tToo_late.corr,tToo_early.keys,tToo_early.corr,more_instructions.started,more_instructions.stopped,readyy.keys,readyy.rt,readyy.started,readyy.stopped,txt_rhythm.started,txt_rhythm.stopped,sound_1.started,sound_1.stopped,sound_2.started,sound_2.stopped,sound_3.started,sound_3.stopped,sound_4.started,sound_4.stopped,cross.started,cross.stopped,sound_5.started,sound_5.stopped,circle.started,circle.stopped,rhythm_ready.keys,rhythm_ready.rt,rhythm_ready.started,rhythm_ready.stopped,rhytm_ready_txt.started,rhytm_ready_txt.stopped,txt_freq.started,txt_freq.stopped,sound_6.started,sound_6.stopped,sound_7.started,sound_7.stopped,sound_8.started,sound_8.stopped,sound_9.started,sound_9.stopped,cross_2.started,cross_2.stopped,sound_10.started,sound_10.stopped,circle_2.started,circle_2.stopped,freq_ready.keys,freq_ready.rt,freq_ready.started,freq_ready.stopped,freq_ready_txt.started,freq_ready_txt.stopped,txt_freq_2.started,txt_freq_2.stopped,sound_11.started,sound_11.stopped,sound_12.started,sound_12.stopped,sound_13.started,sound_13.stopped,sound_14.started,sound_14.stopped,cross_3.started,cross_3.stopped,sound_15.started,sound_15.stopped,circle_3.started,circle_3.stopped,freq_ready_2.keys,freq_ready_2.rt,freq_ready_2.started,freq_ready_2.stopped,freq_ready_txt_2.started,freq_ready_txt_2.stopped,txt_freq_3.started,txt_freq_3.stopped,sound_16.started,sound_16.stopped,sound_17.started,sound_17.stopped,sound_18.started,sound_18.stopped,sound_19.started,sound_19.stopped,cross_4.started,cross_4.stopped,sound_20.started,sound_20.stopped,circle_4.started,circle_4.stopped,freq_ready_txt_3.started,freq_ready_txt_3.stopped,tStart_text_2.started,tStart_text_2.stopped,this_trial_is.started,this_trial_is.stopped,Frequency,Level,Psychopy_Level,Real trial detection,Cue Delays,Cue Frequencies,Interval,Cue Intensities,Catch trial,cue_visual_cue.started,cue_visual_cue.stopped,probe_visual_cue.started,probe_visual_cue.stopped,feedback.keys,feedback.corr,feedback.started,feedback.stopped,answer_too_late.keys,answer_too_late.corr,answer_too_early.keys,answer_too_early.corr,answer_too_early.rt,Catch trial answer,feedback.rt,Audiogram_time,Audiogram_none,Audiogram_frequency,Audiogram_both,participant,session,Language (english or french),Skip training? (1 for yes),Resume previous experiment,date,expName,psychopyVersion,frameRate,
0,0,0,0,,,,,,,,,17.850912699941546,None,both,1000,30,0.0013930605843148849,False,1,"[0.6951308859819973, 0.6951308859819973, 0.6951308859819973, 0.6951308859819973]","[198.42513149602496, 297.3017787506803, 445.4493590701697, 667.4199270850172]",Perfect_5th,"[30, 30, 30, 30]",44.08765400003176,47.091975199989974,47.091975199989974,48.31825100001879,['space'],1,[0.5560372999170795],47.091975199989974,48.9997555000009,None,1,None,1,,,,,,,,,,,,,,,,,,,,,,,,,,,,,,,,,,,,,,,,,,,,,,,,,,,,,,,,,,,,,,,,,,,,,,,,,,,,,,,,,,,,,,,,,,,,,,,,,,,,,,,,,,,,,,,,,,,,,,,,,,,tsbvqq,001,fr,0,0,2022-05-04_16h54.43.372,Cluster,2022.1.1,34.987042549916396,
1,0,1,0,,,,,,,,,,,both,2500,30,0.002716251657462167,False,1,"[0.7081559399416173, 0.7081559399416173, 0.7081559399416173, 0.7081559399416173]","[6299.605249474367, 5000.000000000001, 3968.502629920499, 3149.802624737183]",Major_3rd,"[30, 30, 30, 30]",51.81401550001465,54.85418399993796,54.85418399993796,56.06262809992768,['space'],1,[0.8892596000805497],54.85418399993796,56.788358699996024,None,1,None,1,,,,,,,,,,,,,,,,,,,,,,,,,,,,,,,,,,,,,,,,,,,,,,,,,,,,,,,,,,,,,,,,,,,,,,,,,,,,,,,,,,,,,,,,,,,,,,,,,,,,,,,,,,,,,,,,,,,,,,,,,,,tsbvqq,001,fr,0,0,2022-05-04_16h54.43.372,Cluster,2022.1.1,34.987042549916396,
2,0,2,0,,,,,,,,,,,time,6000,30,0.003664122665694519,True,0,"[0.6152521547410507, 0.6152521547410507, 0.6152521547410507, 0.6152521547410507]","[467.7210286723614, 1512.76359516815, 399.78339515897676, 5262.688974073633]",None,"[30, 30, 30, 30]",59.4021346999798,62.170819199993275,62.170819199993275,63.393661899957806,['space'],0,[0.8212324999039993],62.170819199993275,63.985719299991615,None,1,None,1,,,,,,,,,,,,,,,,,,,,,,,,,,,,,,,,,,,,,,,,,,,,,,,,,,,,,,,,,,,,,,,,,,,,,,,,,,,,,,,,,,,,,,,,,,,,,,,,,,,,,,,,,,,,,,,,,,,,,,,,,,,tsbvqq,001,fr,0,0,2022-05-04_16h54.43.372,Cluster,2022.1.1,34.987042549916396,
3,0,3,0,,,,,,,,,,,none,440,30,0.0023562289915021436,False,1,"[0.6635691600989266, 0.7409152725810515, 0.7467847757013237, 0.5973605655336476]","[295.5161893898501, 2074.497451154612, 621.6200760618245, 150.0141090705198]",None,"[30, 30, 30, 30]",67.71327069995459,70.78185729996767,70.78185729996767,72.01460080000106,['space'],1,[1.0104243999812752],70.78185729996767,72.60362970002461,None,1,None,1,,,,,,,,,,,,,,,,,,,,,,,,,,,,,,,,,,,,,,,,,,,,,,,,,,,,,,,,,,,,,,,,,,,,,,,,,,,,,,,,,,,,,,,,,,,,,,,,,,,,,,,,,,,,,,,,,,,,,,,,,,,tsbvqq,001,fr,0,0,2022-05-04_16h54.43.372,Cluster,2022.1.1,34.987042549916396,
4,0,4,0,,,,,,,,,,,both,250,30,0.005296268625886445,True,1,"[0.6261102410343029, 0.6261102410343029, 0.6261102410343029, 0.6261102410343029]","[629.9605249474366, 500.00000000000006, 396.8502629920499, 314.9802624737183]",Major_3rd,"[30, 30, 30, 30]",75.27943799993955,78.09720239997841,78.09720239997841,79.3006461999612,None,1,,78.09720239997841,79.94993649993557,None,1,None,1,,,,,,,,,,,,,,,,,,,,,,,,,,,,,,,,,,,,,,,,,,,,,,,,,,,,,,,,,,,,,,,,,,,,,,,,,,,,,,,,,,,,,,,,,,,,,,,,,,,,,,,,,,,,,,,,,,,,,,,,,,,tsbvqq,001,fr,0,0,2022-05-04_16h54.43.372,Cluster,2022.1.1,34.987042549916396,
,,,,,,,,,,,,,,,,,,,,,,,,,,,,,,,,,,,,,81.99983709992375,None,space,38.59137520007789,81.99983709992375,None,,,,,,,,,,,,,,,,,,,,,,,,,,,,,,,,,,,,,,,,,,,,,,,,,,,,,,,,,,,,,,,,,,,,,,,,,,,,,,,,,,,,,,,,,,,,,,,,,,,,,,,,,,,,,,,,,,,,,tsbvqq,001,fr,0,0,2022-05-04_16h54.43.372,Cluster,2022.1.1,34.987042549916396,
,,,,,,,,,,,,,,,,,,,,,,,,,,,,,,,,,,,,,,,,,,,120.64934350003023,121.65941009996459,122.12594838996884,122.34711470000912,122.63748518992216,122.85796860000119,123.15239698996302,123.37278650002554,123.64283828993794,None,122.03897849994246,123.82896569999866,124.14114928999916,None,123.82896569999866,124.65906769991852,space,1.967069200007245,124.83363290003035,None,,,,,,,,,,,,,,,,,,,,,,,,,,,,,,,,,,,,,,,,,,,,,,,,,,,,,,,,,,,,,,,,,,,,,,,,,,,,,,,,,,,,,,,,,,,,,,,,,tsbvqq,001,fr,0,0,2022-05-04_16h54.43.372,Cluster,2022.1.1,34.987042549916396,
,,,,,,,,,,,,,,,,,,,,,,,,,,,,,,,,,,,,,,,,,,,,,,,,,,,,,,,,,,,,,,,124.83363290003035,None,126.84759469993878,127.84835909993853,128.316190990014,128.53290569991805,128.61700518997387,128.83273090003058,129.32794458998833,129.5522115000058,129.7326319899643,129.95260620000772,128.2167766999919,130.01259719999507,130.30734628995415,None,130.01259719999507,130.8367962000193,space,0.8341427000705153,131.03722079994623,None,,,,,,,,,,,,,,,,,,,,,,,,,,,,,,,,,,,,,,,,,,,,,,,,,,,,,,,,,,,,,,,,,,,,,,,,,,,tsbvqq,001,fr,0,0,2022-05-04_16h54.43.372,Cluster,2022.1.1,34.987042549916396,
,,,,,,,,,,,,,,,,,,,,,,,,,,,,,,,,,,,,,,,,,,,,,,,,,,,,,,,,,,,,,,,,,,,,,,,,,,,,,,,,,,,,,131.03722079994623,None,131.92667660000734,132.9502005999675,133.4192372900201,None,133.90097108993214,134.1165177000221,134.4011424899567,134.61818749993108,134.8996690900298,135.11185530002695,133.29110789997503,135.11185530002695,135.43163609001786,135.65560529998038,135.11185530002695,135.92251309996936,space,0.8310661999275908,136.12776850000955,None,,,,,,,,,,,,,,,,,,,,,,,,,,,,,,,,,,,,,,,,,,,,,,,,,,,,,tsbvqq,001,fr,0,0,2022-05-04_16h54.43.372,Cluster,2022.1.1,34.987042549916396,
,,,,0,0,0,0,0,0,0,0,,,time,,,,,,,,,,,,,,,,,,,,,,,,,,,,,,,,,,,,,,,,,,,,,,,,,,,,,,,,,,,,,,,,,,,,,,,,,,,,,,,,,,,,,,,,,,,,,136.12776850000955,None,137.0139212999493,138.01289010001346,138.48085568994284,138.69720159994904,138.78130658993032,138.99828870000783,139.46857858994045,139.69529389997479,139.8745572899701,None,138.36520479992032,140.16369730001315,140.4741625899682,140.6944917999208,140.16369730001315,140.98526420001872,141.1562426999444,None,142.20518139994238,None,146.0018573999405,None,1178.2986716317437,8.0,0.00012938768272862113,0,"[0.6691297290655457, 0.6691297290655457, 0.6691297290655457, 0.6691297290655457]","[3279.4714310877953, 1551.4627490840103, 3603.9356247291803, 3843.041777312818]",None,"[9.977041029447504, 16.0, 8.94859108714806, 8.0]",False,147.00292370002717,150.0546636999352,150.0546636999352,151.28732070000842,None,0,3.711669219774194,4.718084919848479,None,1,['space'],0,[0.39364819996990263],,,,,,,tsbvqq,001,fr,0,0,2022-05-04_16h54.43.372,Cluster,2022.1.1,34.987042549916396,
,,,,0,0,0,0,1,0,1,0,,,none,,,,,,,,,,,,,,,,,,,,,,,,,,,,,,,,,,,,,,,,,,,,,,,,,,,,,,,,,,,,,,,,,,,,,,,,,,,,,,,,,,,,,,,,,,,,,,,,,,,,,,,,,,,,,,,,,,,151.76399180002045,None,1500.6211514955112,10.095998892040232,0.00015461139588711392,0,"[0.4566789464504146, 0.5267159033679689, 0.7671677270197419, 0.4134801147981439]","[1059.6272029872184, 3176.0343450833066, 261.9475449465363, 490.67022300627593]",None,"[13.279640519195809, 10.0, 22.0, 25.0]",False,152.77857470000163,155.56088979996275,155.56088979996275,156.77311109995935,None,0,3.176441319985315,4.195011819945648,None,1,None,1,,,,,,,,tsbvqq,001,fr,0,0,2022-05-04_16h54.43.372,Cluster,2022.1.1,34.987042549916396,
,,,,0,0,0,0,2,0,2,0,,,both,,,,,,,,,,,,,,,,,,,,,,,,,,,,,,,,,,,,,,,,,,,,,,,,,,,,,,,,,,,,,,,,,,,,,,,,,,,,,,,,,,,,,,,,,,,,,,,,,,,,,,,,,,,,,,,,,,,157.0167064999696,None,195.58115399268138,11.0,0.000998925862922165,0,"[0.5457736955073849, 0.5457736955073849, 0.5457736955073849, 0.5457736955073849]","[492.83362575622004, 391.1623079853628, 310.46572959313687, 246.41681287811]",Major_3rd,"[25.0, 30.0, 26.999999999999996, 20.0]",False,158.01369389996398,160.66769469995052,160.66769469995052,161.87170909997076,None,0,3.2139523199293762,4.2379451198503375,None,1,['space'],0,[0.4050527000799775],,,,,,,tsbvqq,001,fr,0,0,2022-05-04_16h54.43.372,Cluster,2022.1.1,34.987042549916396,
,,,,0,0,0,0,3,0,3,0,,,frequency,,,,,,,,,,,,,,,,,,,,,,,,,,,,,,,,,,,,,,,,,,,,,,,,,,,,,,,,,,,,,,,,,,,,,,,,,,,,,,,,,,,,,,,,,,,,,,,,,,,,,,,,,,,,,,,,,,,162.29122609994374,None,446.81331898624046,21.0,0.0008321154164310272,0,"[0.775926853974866, 0.545418459687562, 0.4073580351499151, 0.5482720140459753]","[177.31798314804024, 223.4066594931203, 281.47475298207854, 354.6359662960804]",Major_3rd,"[16.533228341172187, 18.0, 24.0, 29.782625608166118]",False,163.28661680000369,166.03506559995003,166.03506559995003,167.2402596999891,None,0,3.2860401198267937,4.301790119847283,None,1,['space'],0,[0.34890570002608],,,,,,,tsbvqq,001,fr,0,0,2022-05-04_16h54.43.372,Cluster,2022.1.1,34.987042549916396,
,,,,0,0,0,0,4,0,4,0,,,none,,,,,,,,,,,,,,,,,,,,,,,,,,,,,,,,,,,,,,,,,,,,,,,,,,,,,,,,,,,,,,,,,,,,,,,,,,,,,,,,,,,,,,,,,,,,,,,,,,,,,,,,,,,,,,,,,,,167.62970059993677,None,353.5533905932738,18.0,0.0007038727582816146,0,"[0.7189251848319593, 0.6866021155376458, 0.7803027953193973, 0.7829801003994382]","[429.45352662423346, 281.4912643965022, 138.06398510305652, 4722.239673413178]",None,"[28.00213892984289, 24.0, 18.0, 7.487080647649432]",False,168.63533099996857,171.84555500000715,171.84555500000715,173.08072840003297,None,0,4.017526509822346,5.023211109917611,None,1,['space'],0,[0.362286499934271],,,,,,,tsbvqq,001,fr,0,0,2022-05-04_16h54.43.372,Cluster,2022.1.1,34.987042549916396,
,,,,0,0,0,0,5,0,5,0,,,both,,,,,,,,,,,,,,,,,,,,,,,,,,,,,,,,,,,,,,,,,,,,,,,,,,,,,,,,,,,,,,,,,,,,,,,,,,,,,,,,,,,,,,,,,,,,,,,,,,,,,,,,,,,,,,,,,,,173.69017409998924,None,353.5533905932738,18.0,0.0007038727582816146,0,"[0.591613171246322, 0.591613171246322, 0.591613171246322, 0.591613171246322]","[140.30775603867167, 176.77669529663694, 222.72467953508487, 280.6155120773433]",Major_3rd,"[17.29647638438854, 16.533228341172187, 18.0, 24.0]",False,174.71455639996566,177.53020459995605,177.53020459995605,178.73144759994466,None,0,3.3899665100034326,4.408598909969442,None,1,['space'],0,[0.4537473999662325],,,,,,,tsbvqq,001,fr,0,0,2022-05-04_16h54.43.372,Cluster,2022.1.1,34.987042549916396,
,,,,0,0,0,0,6,0,6,0,,,frequency,,,,,,,,,,,,,,,,,,,,,,,,,,,,,,,,,,,,,,,,,,,,,,,,,,,,,,,,,,,,,,,,,,,,,,,,,,,,,,,,,,,,,,,,,,,,,,,,,,,,,,,,,,,,,,,,,,,179.15011029993184,None,,,,,"[0.4210885061209089, 0.54035377093357, 0.6192104707589688, 0.4732897770676305]","[5280.48547313377, 4191.124097477671, 3326.497400632663, 2640.242736566885]",Major_3rd,"[7.022136109135772, 7.602375190643109, 9.977041029447504, 13.173429664566957]",True,180.17133819998708,182.7937579000136,182.7937579000136,184.02523209992796,None,1,3.0812778199324384,4.110493819927797,None,1,['space'],0,[0.34309759992174804],0,,,,,,tsbvqq,001,fr,0,0,2022-05-04_16h54.43.372,Cluster,2022.1.1,34.987042549916396,
,,,,0,0,0,0,7,0,7,0,,,frequency,,,,,,,,,,,,,,,,,,,,,,,,,,,,,,,,,,,,,,,,,,,,,,,,,,,,,,,,,,,,,,,,,,,,,,,,,,,,,,,,,,,,,,,,,,,,,,,,,,,,,,,,,,,,,,,,,,,184.32012029993348,None,329.87697769322364,23.0,0.001338505600537739,0,"[0.6088113939723769, 0.4766789535395858, 0.5688260851429093, 0.7890279058548421]","[130.9117653525784, 164.93848884661188, 207.80947403569704, 261.82353070515677]",Major_3rd,"[18.09798957993931, 16.535813243161147, 17.11642891230437, 22.0]",False,185.32451479998417,188.00006140000187,188.00006140000187,189.20176760002505,None,0,3.4715014098910615,4.475330309942365,None,1,['space'],0,[0.36758419999387115],,,,,,,tsbvqq,001,fr,0,0,2022-05-04_16h54.43.372,Cluster,2022.1.1,34.987042549916396,
,,,,0,0,0,0,8,0,8,0,,,none,,,,,,,,,,,,,,,,,,,,,,,,,,,,,,,,,,,,,,,,,,,,,,,,,,,,,,,,,,,,,,,,,,,,,,,,,,,,,,,,,,,,,,,,,,,,,,,,,,,,,,,,,,,,,,,,,,,189.82455140003003,None,199.20296294584986,11.0,0.000952124036139875,0,"[0.5331558170575468, 0.6424622499161239, 0.6585085227795464, 0.5369976494161114]","[3310.0065430200807, 532.3735657204089, 299.4259730045886, 761.4183340257043]",None,"[9.977041029447504, 23.0, 26.0, 18.0]",False,190.81722680001985,193.67867409996688,193.67867409996688,194.89421629998833,None,0,3.389655019971542,4.398493619984947,None,1,None,1,,,,,,,,tsbvqq,001,fr,0,0,2022-05-04_16h54.43.372,Cluster,2022.1.1,34.987042549916396,
,,,,0,0,0,0,9,0,9,0,,,time,,,,,,,,,,,,,,,,,,,,,,,,,,,,,,,,,,,,,,,,,,,,,,,,,,,,,,,,,,,,,,,,,,,,,,,,,,,,,,,,,,,,,,,,,,,,,,,,,,,,,,,,,,,,,,,,,,,195.26672229997348,None,353.5533905932738,18.0,0.0007038727582816146,1,"[0.6072799793490835, 0.6072799793490835, 0.6072799793490835, 0.6072799793490835]","[191.6006936413892, 498.56099227436897, 624.4587886936189, 2176.2266454558935]",None,"[16.72540755029058, 24.451487491523768, 21.0, 14.174236238575745]",False,196.27855049993377,199.1116717000259,199.1116717000259,200.3434465000173,['space'],1,3.467953009880148,4.484600409865379,None,1,None,1,,,[0.5275899999542162],,,,,tsbvqq,001,fr,0,0,2022-05-04_16h54.43.372,Cluster,2022.1.1,34.987042549916396,
,,,,0,0,0,0,10,0,10,0,,,frequency,,,,,,,,,,,,,,,,,,,,,,,,,,,,,,,,,,,,,,,,,,,,,,,,,,,,,,,,,,,,,,,,,,,,,,,,,,,,,,,,,,,,,,,,,,,,,,,,,,,,,,,,,,,,,,,,,,,200.7971231000265,None,,,,,"[0.5752606378992586, 0.5923754622055434, 0.5899980881801141, 0.7996095383189389]","[128.62406969545566, 144.37563673224872, 162.05617293244984, 181.9019038109356]",Tone,"[19.0, 17.29647638438854, 16.535813243161147, 16.533228341172187]",True,201.79530460003298,204.5792607999174,204.5792607999174,205.78262810001615,None,1,3.5793057198170573,4.608391119749285,None,1,None,1,,0,,,,,,tsbvqq,001,fr,0,0,2022-05-04_16h54.43.372,Cluster,2022.1.1,34.987042549916396,
,,,,0,0,0,0,11,0,11,0,,,none,,,,,,,,,,,,,,,,,,,,,,,,,,,,,,,,,,,,,,,,,,,,,,,,,,,,,,,,,,,,,,,,,,,,,,,,,,,,,,,,,,,,,,,,,,,,,,,,,,,,,,,,,,,,,,,,,,,206.44113089994062,None,176.7766952966369,22.0,0.004406503025812892,1,"[0.5462214024809449, 0.7896919874383506, 0.5133383445680857, 0.5763007338059131]","[181.64083288100275, 1195.7282140814812, 284.5057818761494, 1303.967092334242]",None,"[16.533228341172187, 14.0, 24.0, 15.507063998267402]",False,207.5094281999627,210.38909650000278,210.38909650000278,211.5927362999646,['space'],1,3.4496975899674,4.469975490006618,None,1,None,1,,,[0.19309790001716465],,,,,tsbvqq,001,fr,0,0,2022-05-04_16h54.43.372,Cluster,2022.1.1,34.987042549916396,
,,,,0,0,0,0,12,0,12,0,,,time,,,,,,,,,,,,,,,,,,,,,,,,,,,,,,,,,,,,,,,,,,,,,,,,,,,,,,,,,,,,,,,,,,,,,,,,,,,,,,,,,,,,,,,,,,,,,,,,,,,,,,,,,,,,,,,,,,,212.01130070001818,None,148.05706118463436,11.0,0.0018359716351608025,0,"[0.7450987091730187, 0.7450987091730187, 0.7450987091730187, 0.7450987091730187]","[2655.6620442817784, 159.31583651685136, 380.0309258022586, 724.5985361388201]",None,"[13.173429664566957, 16.77529653324789, 30.06216040488124, 19.0]",False,213.00794639997184,216.26810590003151,216.26810590003151,217.4925742999185,None,0,4.000384319922887,5.025363320019096,None,1,None,1,,,,,,,,tsbvqq,001,fr,0,0,2022-05-04_16h54.43.372,Cluster,2022.1.1,34.987042549916396,
,,,,0,0,0,0,13,0,13,0,,,time,,,,,,,,,,,,,,,,,,,,,,,,,,,,,,,,,,,,,,,,,,,,,,,,,,,,,,,,,,,,,,,,,,,,,,,,,,,,,,,,,,,,,,,,,,,,,,,,,,,,,,,,,,,,,,,,,,,218.08181849995162,None,189.4645708137998,21.0,0.003408826918638871,1,"[0.49516289470030367, 0.49516289470030367, 0.49516289470030367, 0.49516289470030367]","[3534.666856329023, 3775.576430366866, 254.04489535777168, 354.1488945065209]",None,"[8.94859108714806, 8.213167330708274, 21.0, 29.782625608166118]",False,219.82167869992554,222.3394514999818,222.3394514999818,223.5536892999662,['space'],1,3.0219668499194086,4.041730949888006,None,1,None,1,,,[0.24072420003358275],,,,,tsbvqq,001,fr,0,0,2022-05-04_16h54.43.372,Cluster,2022.1.1,34.987042549916396,
,,,,0,0,0,0,14,0,14,0,,,time,,,,,,,,,,,,,,,,,,,,,,,,,,,,,,,,,,,,,,,,,,,,,,,,,,,,,,,,,,,,,,,,,,,,,,,,,,,,,,,,,,,,,,,,,,,,,,,,,,,,,,,,,,,,,,,,,,,223.88313029997516,None,,,,,"[0.6890848177036618, 0.6890848177036618, 0.6890848177036618, 0.6890848177036618]","[310.9431939220879, 329.98989882038296, 995.7373458249574, 2438.248679604541]",None,"[26.999999999999996, 28.57696318718835, 13.28722819198618, 13.736246230917883]",True,224.87523609993514,227.98207289993297,227.98207289993297,229.2040483999299,['space'],0,3.7945555199403316,4.823605219949968,None,1,None,1,,0,[0.10771690006367862],,,,,tsbvqq,001,fr,0,0,2022-05-04_16h54.43.372,Cluster,2022.1.1,34.987042549916396,
,,,,0,0,0,0,15,0,15,0,,,both,,,,,,,,,,,,,,,,,,,,,,,,,,,,,,,,,,,,,,,,,,,,,,,,,,,,,,,,,,,,,,,,,,,,,,,,,,,,,,,,,,,,,,,,,,,,,,,,,,,,,,,,,,,,,,,,,,,229.74105780001264,None,6483.96360260622,0.624589840340092,0.00014569312728525486,1,"[0.49874127377460886, 0.49874127377460886, 0.49874127377460886, 0.49874127377460886]","[1286.581330462579, 1927.6939124094984, 2888.277431015249, 4327.526514873349]",Perfect_5th,"[15.0, 14.740833633636964, 12.0, 7.602375190643109]",False,230.73134489997756,233.25579149997793,233.25579149997793,234.47662849992048,['space'],1,3.0250448199221864,4.036251019919291,None,1,None,1,,,[0.3812203999841586],,,,,tsbvqq,001,fr,0,0,2022-05-04_16h54.43.372,Cluster,2022.1.1,34.987042549916396,
,,,,0,0,0,0,16,0,16,0,,,none,,,,,,,,,,,,,,,,,,,,,,,,,,,,,,,,,,,,,,,,,,,,,,,,,,,,,,,,,,,,,,,,,,,,,,,,,,,,,,,,,,,,,,,,,,,,,,,,,,,,,,,,,,,,,,,,,,,234.81636569998227,None,6015.249213886101,0.48720478398739975,0.00012331489650907858,1,"[0.5167355715844656, 0.6292948244724997, 0.4809410262493373, 0.7280829277447752]","[228.34034233000898, 131.45265847347025, 3023.001987104128, 293.5327749413392]",None,"[18.78141104740799, 18.09798957993931, 11.157465300610848, 25.0]",False,235.80608170002233,238.45734239998274,238.45734239998274,239.68073060002644,['space'],1,3.3679346198914573,4.375465319957584,None,1,None,1,,,[0.45015439996495843],,,,,tsbvqq,001,fr,0,0,2022-05-04_16h54.43.372,Cluster,2022.1.1,34.987042549916396,
,,,,0,0,0,0,17,0,17,0,,,both,,,,,,,,,,,,,,,,,,,,,,,,,,,,,,,,,,,,,,,,,,,,,,,,,,,,,,,,,,,,,,,,,,,,,,,,,,,,,,,,,,,,,,,,,,,,,,,,,,,,,,,,,,,,,,,,,,,240.2325282000238,None,176.7766952966369,22.0,0.004406503025812892,1,"[0.44001532562076034, 0.44001532562076034, 0.44001532562076034, 0.44001532562076034]","[890.8987181403394, 594.6035575013606, 396.8502629920499, 264.86577358982385]",Perfect_5th,"[15.0, 21.8580067445056, 29.40017881097733, 22.0]",False,241.25748319993727,243.61642159998883,243.61642159998883,244.83852570003364,['space'],1,2.790750209824182,3.79538200981915,None,1,None,1,,,[0.21140539995394647],,,,,tsbvqq,001,fr,0,0,2022-05-04_16h54.43.372,Cluster,2022.1.1,34.987042549916396,
,,,,0,0,0,0,18,0,18,0,,,frequency,,,,,,,,,,,,,,,,,,,,,,,,,,,,,,,,,,,,,,,,,,,,,,,,,,,,,,,,,,,,,,,,,,,,,,,,,,,,,,,,,,,,,,,,,,,,,,,,,,,,,,,,,,,,,,,,,,,245.08034969994333,None,488.7081968920471,19.0,0.000641893830781248,1,"[0.7483143530118385, 0.6864024841208612, 0.491390421958903, 0.7062418073264554]","[1231.4674890409167, 977.4163937840942, 775.7759058519175, 615.7337445204583]",Major_3rd,"[14.68421633517286, 13.28722819198618, 18.0, 21.036801501734764]",False,246.07430590002332,249.02809409995098,249.02809409995098,250.25007429998368,['space'],1,3.645520719815977,4.6675519198179245,None,1,None,1,,,[0.19223219994455576],,,,,tsbvqq,001,fr,0,0,2022-05-04_16h54.43.372,Cluster,2022.1.1,34.987042549916396,
,,,,0,0,0,0,19,0,19,0,,,frequency,,,,,,,,,,,,,,,,,,,,,,,,,,,,,,,,,,,,,,,,,,,,,,,,,,,,,,,,,,,,,,,,,,,,,,,,,,,,,,,,,,,,,,,,,,,,,,,,,,,,,,,,,,,,,,,,,,,250.78803759999573,None,,,,,"[0.45059281329174916, 0.785227626266461, 0.48615774679751694, 0.720898904022084]","[1012.2628736464478, 803.4335752473619, 637.6856512671169, 506.1314368232239]",Major_3rd,"[13.28722819198618, 17.0, 21.0, 24.0]",True,251.78944630001206,254.53926270001102,254.53926270001102,255.7652465000283,None,1,3.451488319900818,4.458150919876061,None,1,['space'],0,[0.40434820007067174],0,,,,,,tsbvqq,001,fr,0,0,2022-05-04_16h54.43.372,Cluster,2022.1.1,34.987042549916396,
,,,,1,0,1,0,0,0,0,0,,,none,,,,,,,,,,,,,,,,,,,,,,,,,,,,,,,,,,,,,,,,,,,,,,,,,,,,,,,,,,,,,,,,,,,,,,,,,,,,,,,,,,,,,,,,,,,,,,,,,,,,,,,,,,,,,,,,,,,261.49714969994966,None,329.87697769322364,24.0,0.001501827984989875,1,"[0.5907880584643517, 0.46789419699164103, 0.6108694513895732, 0.4014740289789278]","[307.91623206812346, 1103.869390289481, 575.6759777758042, 354.8381763964157]",None,"[26.6663512155508, 13.279640519195809, 21.8580067445056, 29.782625608166118]",False,262.5042567999335,265.20827219996136,265.20827219996136,266.41626620001625,['space'],1,3.11390280991327,4.135250709950924,None,1,None,1,,,[0.261619700002484],,,,,tsbvqq,001,fr,0,0,2022-05-04_16h54.43.372,Cluster,2022.1.1,34.987042549916396,
,,,,1,0,1,0,1,0,1,0,,,both,,,,,,,,,,,,,,,,,,,,,,,,,,,,,,,,,,,,,,,,,,,,,,,,,,,,,,,,,,,,,,,,,,,,,,,,,,,,,,,,,,,,,,,,,,,,,,,,,,,,,,,,,,,,,,,,,,,266.668952899985,None,815.2276754230348,10.637466820273653,0.00013204283475374908,1,"[0.5968262606904785, 0.5968262606904785, 0.5968262606904785, 0.5968262606904785]","[513.5612543611734, 576.4530175025736, 647.0466347800576, 726.2852910269103]",Tone,"[24.0, 21.8580067445056, 20.274920557427446, 19.0]",False,267.6830651999917,270.5017762000207,270.5017762000207,271.7149520999519,['space'],1,3.406824219971895,4.422734519932419,None,1,['space'],0,[-3.0625641000224277],,[0.18235640006605536],,,,,tsbvqq,001,fr,0,0,2022-05-04_16h54.43.372,Cluster,2022.1.1,34.987042549916396,
,,,,1,0,1,0,2,0,2,0,,,time,,,,,,,,,,,,,,,,,,,,,,,,,,,,,,,,,,,,,,,,,,,,,,,,,,,,,,,,,,,,,,,,,,,,,,,,,,,,,,,,,,,,,,,,,,,,,,,,,,,,,,,,,,,,,,,,,,,272.15778130001854,None,5409.921783003555,1.0,0.0001544230043758964,1,"[0.5809544829385104, 0.5809544829385104, 0.5809544829385104, 0.5809544829385104]","[5291.392800213372, 1030.640953713737, 355.97092323594165, 1116.792069990281]",None,"[7.0, 13.28722819198618, 29.782625608166118, 13.830957238324812]",False,273.1608267999254,275.91939369996544,275.91939369996544,277.1226662999252,['space'],1,3.350866219843738,4.374199519865215,None,1,None,1,,,[0.1684414999326691],,,,,tsbvqq,001,fr,0,0,2022-05-04_16h54.43.372,Cluster,2022.1.1,34.987042549916396,
,,,,1,0,1,0,3,0,3,0,,,time,,,,,,,,,,,,,,,,,,,,,,,,,,,,,,,,,,,,,,,,,,,,,,,,,,,,,,,,,,,,,,,,,,,,,,,,,,,,,,,,,,,,,,,,,,,,,,,,,,,,,,,,,,,,,,,,,,,277.5852982000215,None,,,,,"[0.4270232246237413, 0.4270232246237413, 0.4270232246237413, 0.4270232246237413]","[243.85172787994983, 1529.8859659103787, 4367.196067197981, 1021.6035954247761]",None,"[20.0, 16.09599889204023, 7.602375190643109, 13.28722819198618]",True,278.57638079999015,280.892696899944,280.892696899944,282.1252942000283,None,1,2.745576119865291,3.7589450199157,None,1,None,1,,0,,,,,,tsbvqq,001,fr,0,0,2022-05-04_16h54.43.372,Cluster,2022.1.1,34.987042549916396,
,,,,1,0,1,0,4,0,4,0,,,time,,,,,,,,,,,,,,,,,,,,,,,,,,,,,,,,,,,,,,,,,,,,,,,,,,,,,,,,,,,,,,,,,,,,,,,,,,,,,,,,,,,,,,,,,,,,,,,,,,,,,,,,,,,,,,,,,,,282.3782226999756,None,870.5505632961246,0.0,4.037325170706638e-05,0,"[0.7839278640073101, 0.7839278640073101, 0.7839278640073101, 0.7839278640073101]","[638.399401813301, 2490.8810860996537, 4934.7037661917575, 7643.024270966096]",None,"[21.0, 13.736246230917883, 7.31058309055847, 9.0]",False,283.391638699919,286.76610969996545,286.76610969996545,287.9987199000316,None,0,4.180857509956695,5.2112756099086255,None,1,None,1,,,,,,,,tsbvqq,001,fr,0,0,2022-05-04_16h54.43.372,Cluster,2022.1.1,34.987042549916396,
,,,,1,0,1,0,5,0,5,0,,,none,,,,,,,,,,,,,,,,,,,,,,,,,,,,,,,,,,,,,,,,,,,,,,,,,,,,,,,,,,,,,,,,,,,,,,,,,,,,,,,,,,,,,,,,,,,,,,,,,,,,,,,,,,,,,,,,,,,288.6374942000257,None,834.3180542407972,10.0,0.00012441493488466216,0,"[0.6008413906227765, 0.5375051003205582, 0.771696235979804, 0.46158192029388456]","[2276.709770659935, 4078.7515401961123, 1211.5324329983453, 3098.1708455074154]",None,"[14.020284546888995, 7.793222268823757, 14.68421633517286, 11.0]",False,289.6496902999934,292.5993402999593,292.5993402999593,293.80720579996705,None,0,3.3804240197641775,4.393199119833298,None,1,None,1,,,,,,,,tsbvqq,001,fr,0,0,2022-05-04_16h54.43.372,Cluster,2022.1.1,34.987042549916396,
,,,,1,0,1,0,6,0,6,0,,,time,,,,,,,,,,,,,,,,,,,,,,,,,,,,,,,,,,,,,,,,,,,,,,,,,,,,,,,,,,,,,,,,,,,,,,,,,,,,,,,,,,,,,,,,,,,,,,,,,,,,,,,,,,,,,,,,,,,294.0962624999229,None,501.74552621896703,18.451487491523768,0.0005955057456916085,1,"[0.6510573509325694, 0.6510573509325694, 0.6510573509325694, 0.6510573509325694]","[5741.168404616342, 878.0177910165196, 351.2826545834992, 3281.3631293395533]",None,"[6.6894277273926255, 15.0, 29.782625608166118, 9.977041029447504]",False,295.089332500007,298.0780049000168,298.0780049000168,299.3086875999579,['space'],1,3.6281090198317543,4.629952919785865,None,1,None,1,,,[0.23442470002919436],,,,,tsbvqq,001,fr,0,0,2022-05-04_16h54.43.372,Cluster,2022.1.1,34.987042549916396,
,,,,1,0,1,0,7,0,7,0,,,frequency,,,,,,,,,,,,,,,,,,,,,,,,,,,,,,,,,,,,,,,,,,,,,,,,,,,,,,,,,,,,,,,,,,,,,,,,,,,,,,,,,,,,,,,,,,,,,,,,,,,,,,,,,,,,,,,,,,,299.77269319992047,None,,,,,"[0.6916504491987079, 0.4842381516594809, 0.4365727541836389, 0.7180823555871687]","[731.4855294804476, 651.6795205523381, 580.5804494983889, 517.2383782354567]",Tone,"[19.0, 20.274920557427446, 21.8580067445056, 24.0]",True,300.7657141999807,303.4130608999403,303.4130608999403,304.64354969991837,None,1,3.365684919874184,4.382686619879678,None,1,None,1,,0,,,,,,tsbvqq,001,fr,0,0,2022-05-04_16h54.43.372,Cluster,2022.1.1,34.987042549916396,
,,,,1,0,1,0,8,0,8,0,,,frequency,,,,,,,,,,,,,,,,,,,,,,,,,,,,,,,,,,,,,,,,,,,,,,,,,,,,,,,,,,,,,,,,,,,,,,,,,,,,,,,,,,,,,,,,,,,,,,,,,,,,,,,,,,,,,,,,,,,305.19215849996544,None,176.7766952966369,22.0,0.004406503025812892,1,"[0.7890928670593049, 0.6070062231169819, 0.59969855287717, 0.5415644240176243]","[280.61551207734334, 250.00000000000006, 222.72467953508487, 198.42513149602496]",Tone,"[24.0, 20.25224880082594, 18.0, 17.0]",False,306.22015790001024,309.2445713999914,309.2445713999914,310.45871359994635,['space'],1,3.572878909879364,4.587840309832245,None,1,None,1,,,[0.08398540003690869],,,,,tsbvqq,001,fr,0,0,2022-05-04_16h54.43.372,Cluster,2022.1.1,34.987042549916396,
,,,,1,0,1,0,9,0,9,0,,,time,,,,,,,,,,,,,,,,,,,,,,,,,,,,,,,,,,,,,,,,,,,,,,,,,,,,,,,,,,,,,,,,,,,,,,,,,,,,,,,,,,,,,,,,,,,,,,,,,,,,,,,,,,,,,,,,,,,310.83938929997385,None,8000.0,2.0,0.0002285440948074376,1,"[0.7014230913412222, 0.7014230913412222, 0.7014230913412222, 0.7014230913412222]","[925.4914187699561, 761.9583038374304, 149.09257736125673, 295.7279148400303]",None,"[14.0, 18.0, 17.0, 25.0]",False,311.85175979998894,314.99309649993666,314.99309649993666,316.2267646000255,['space'],1,3.8525636099511757,4.879874909878708,None,1,None,1,,,[0.03077119996305555],,,,,tsbvqq,001,fr,0,0,2022-05-04_16h54.43.372,Cluster,2022.1.1,34.987042549916396,
,,,,1,0,1,0,10,0,10,0,,,time,,,,,,,,,,,,,,,,,,,,,,,,,,,,,,,,,,,,,,,,,,,,,,,,,,,,,,,,,,,,,,,,,,,,,,,,,,,,,,,,,,,,,,,,,,,,,,,,,,,,,,,,,,,,,,,,,,,316.75902629992925,None,418.64002587990143,23.0,0.0010679056218681755,1,"[0.49829405714859787, 0.49829405714859787, 0.49829405714859787, 0.49829405714859787]","[165.64562275944334, 6363.553488499425, 2542.1975861146407, 572.4395809439862]",None,"[16.535813243161147, 6.624589840340092, 13.736246230917883, 21.8580067445056]",False,317.7806723000249,320.29873769998085,320.29873769998085,321.53429250000045,['space'],1,3.014782319893129,4.033495519892313,None,1,None,1,,,[0.7157398000126705],,,,,tsbvqq,001,fr,0,0,2022-05-04_16h54.43.372,Cluster,2022.1.1,34.987042549916396,
,,,,1,0,1,0,11,0,11,0,,,none,,,,,,,,,,,,,,,,,,,,,,,,,,,,,,,,,,,,,,,,,,,,,,,,,,,,,,,,,,,,,,,,,,,,,,,,,,,,,,,,,,,,,,,,,,,,,,,,,,,,,,,,,,,,,,,,,,,321.86660860001575,None,,,,,"[0.47443171182026544, 0.7995510563883493, 0.4956301152121204, 0.7416656012503342]","[509.160541175131, 238.9873624705784, 160.8791642921328, 4785.427238788953]",None,"[24.0, 19.0, 16.535813243161147, 7.31058309055847]",True,322.88319500000216,325.70109799993224,325.70109799993224,326.9273156999843,None,1,3.55119501973968,4.562937219743617,None,1,['space'],0,[0.4734870999818668],0,,,,,,tsbvqq,001,fr,0,0,2022-05-04_16h54.43.372,Cluster,2022.1.1,34.987042549916396,
,,,,1,0,1,0,12,0,12,0,,,none,,,,,,,,,,,,,,,,,,,,,,,,,,,,,,,,,,,,,,,,,,,,,,,,,,,,,,,,,,,,,,,,,,,,,,,,,,,,,,,,,,,,,,,,,,,,,,,,,,,,,,,,,,,,,,,,,,,327.4855728999246,None,574.3491774985172,15.0,0.00033653990631489413,1,"[0.7870646588026193, 0.4524776466164753, 0.6900497163609869, 0.5183743620822429]","[764.6016869154092, 637.5049261450068, 5707.028554154719, 3809.458442359898]",None,"[18.0, 21.0, 6.6894277273926255, 8.0]",False,328.50551509996876,331.4469594999682,331.4469594999682,332.68032509996556,['space'],1,3.4785078099230304,4.499078609980643,None,1,None,1,,,[0.5519293999532238],,,,,tsbvqq,001,fr,0,0,2022-05-04_16h54.43.372,Cluster,2022.1.1,34.987042549916396,
,,,,1,0,1,0,13,0,13,0,,,time,,,,,,,,,,,,,,,,,,,,,,,,,,,,,,,,,,,,,,,,,,,,,,,,,,,,,,,,,,,,,,,,,,,,,,,,,,,,,,,,,,,,,,,,,,,,,,,,,,,,,,,,,,,,,,,,,,,333.0352761999238,None,2828.42712474619,1.0,7.347646265424591e-05,0,"[0.6982764128157073, 0.6982764128157073, 0.6982764128157073, 0.6982764128157073]","[418.2357839153124, 435.62488750516326, 498.39287289898425, 450.3664800661017]",None,"[29.0, 28.0, 24.451487491523768, 27.0]",False,334.10907160001807,337.2501415000297,337.2501415000297,338.4847027999349,None,0,3.816754389903508,4.840021989890374,None,1,None,1,,,,,,,,tsbvqq,001,fr,0,0,2022-05-04_16h54.43.372,Cluster,2022.1.1,34.987042549916396,
,,,,1,0,1,0,14,0,14,0,,,none,,,,,,,,,,,,,,,,,,,,,,,,,,,,,,,,,,,,,,,,,,,,,,,,,,,,,,,,,,,,,,,,,,,,,,,,,,,,,,,,,,,,,,,,,,,,,,,,,,,,,,,,,,,,,,,,,,,338.99514130002353,None,876.608087685603,9.0,0.00011427251327648835,0,"[0.705658654374394, 0.44764962964833055, 0.7698979001341225, 0.6128269649360427]","[4475.261291039828, 1142.8541770352174, 4384.997523476282, 276.9026209577596]",None,"[7.487080647649432, 13.830957238324812, 7.602375190643109, 23.0]",False,340.0034231999889,342.9402946999762,342.9402946999762,344.15086079994217,None,0,3.5496386198792607,4.5584767198888585,None,1,None,1,,,,,,,,tsbvqq,001,fr,0,0,2022-05-04_16h54.43.372,Cluster,2022.1.1,34.987042549916396,
,,,,1,0,1,0,15,0,15,0,,,both,,,,,,,,,,,,,,,,,,,,,,,,,,,,,,,,,,,,,,,,,,,,,,,,,,,,,,,,,,,,,,,,,,,,,,,,,,,,,,,,,,,,,,,,,,,,,,,,,,,,,,,,,,,,,,,,,,,344.6144075000193,None,,,,,"[0.6665552952163871, 0.6665552952163871, 0.6665552952163871, 0.6665552952163871]","[592.2268091274688, 746.159023131771, 940.1014598127139, 1184.4536182549373]",Major_3rd,"[21.8580067445056, 18.10746395226843, 13.945474298346642, 14.0]",True,345.6115033000242,348.64690980000887,348.64690980000887,349.85859089996666,['space'],0,3.6894398198928684,4.716316619887948,None,1,None,1,,0,[0.03704650001600385],,,,,tsbvqq,001,fr,0,0,2022-05-04_16h54.43.372,Cluster,2022.1.1,34.987042549916396,
,,,,1,0,1,0,16,0,16,0,,,none,,,,,,,,,,,,,,,,,,,,,,,,,,,,,,,,,,,,,,,,,,,,,,,,,,,,,,,,,,,,,,,,,,,,,,,,,,,,,,,,,,,,,,,,,,,,,,,,,,,,,,,,,,,,,,,,,,,350.37573359999806,None,8000.0,2.0,0.0002285440948074376,0,"[0.6540638866230468, 0.460527207711055, 0.6999642065447931, 0.7133620476874276]","[4151.947700107424, 3624.999689979653, 132.01276670391863, 154.18882954890074]",None,"[7.602375190643109, 8.213167330708274, 18.09798957993931, 16.77529653324789]",False,351.4048052999424,354.2494118999457,354.2494118999457,355.4850693999324,None,0,3.5474861100083217,4.577830909984186,None,1,None,1,,,,,,,,tsbvqq,001,fr,0,0,2022-05-04_16h54.43.372,Cluster,2022.1.1,34.987042549916396,
,,,,1,0,1,0,17,0,17,0,,,both,,,,,,,,,,,,,,,,,,,,,,,,,,,,,,,,,,,,,,,,,,,,,,,,,,,,,,,,,,,,,,,,,,,,,,,,,,,,,,,,,,,,,,,,,,,,,,,,,,,,,,,,,,,,,,,,,,,356.0298324000323,None,329.87697769322364,24.0,0.001501827984989875,1,"[0.643225606822327, 0.643225606822327, 0.643225606822327, 0.643225606822327]","[130.9117653525784, 164.93848884661188, 207.80947403569704, 261.82353070515677]",Major_3rd,"[18.09798957993931, 16.535813243161147, 17.11642891230437, 22.0]",False,357.0432254000334,360.007547599962,360.007547599962,361.2088813999435,['space'],1,3.602937309886329,4.633874509949237,None,1,None,1,,,[0.15743540006224066],,,,,tsbvqq,001,fr,0,0,2022-05-04_16h54.43.372,Cluster,2022.1.1,34.987042549916396,
,,,,1,0,1,0,18,0,18,0,,,both,,,,,,,,,,,,,,,,,,,,,,,,,,,,,,,,,,,,,,,,,,,,,,,,,,,,,,,,,,,,,,,,,,,,,,,,,,,,,,,,,,,,,,,,,,,,,,,,,,,,,,,,,,,,,,,,,,,361.71197049994953,None,3158.6736067040333,4.0,0.00010962939289323905,1,"[0.5698520170245472, 0.5698520170245472, 0.5698520170245472, 0.5698520170245472]","[7959.358733667543, 6317.347213408067, 5014.081806106169, 3979.6793668337714]",Major_3rd,"[10.303659041322252, 6.624589840340092, 7.31058309055847, 7.793222268823757]",False,362.716056699981,365.447825799929,365.447825799929,366.65213329996914,['space'],1,3.302053819759749,4.306202219799161,None,1,None,1,,,[0.11858000000938773],,,,,tsbvqq,001,fr,0,0,2022-05-04_16h54.43.372,Cluster,2022.1.1,34.987042549916396,
,,,,1,0,1,0,19,0,19,0,,,both,,,,,,,,,,,,,,,,,,,,,,,,,,,,,,,,,,,,,,,,,,,,,,,,,,,,,,,,,,,,,,,,,,,,,,,,,,,,,,,,,,,,,,,,,,,,,,,,,,,,,,,,,,,,,,,,,,,367.0702861000318,None,615.5722066724584,8.0,0.00013417339522075924,1,"[0.48943941773798605, 0.48943941773798605, 0.48943941773798605, 0.48943941773798605]","[3102.289523667471, 2070.529847682756, 1381.9128799677767, 922.3161935859396]",Perfect_5th,"[11.0, 14.375882463379812, 16.0, 14.0]",False,369.04056609992404,371.5267328999471,371.5267328999471,372.73296089994255,['space'],1,2.985510269762017,4.00080486969091,None,1,None,1,,,[0.09676200000103563],,,,,tsbvqq,001,fr,0,0,2022-05-04_16h54.43.372,Cluster,2022.1.1,34.987042549916396,
,,,,2,0,2,0,0,0,0,0,,,none,,,,,,,,,,,,,,,,,,,,,,,,,,,,,,,,,,,,,,,,,,,,,,,,,,,,,,,,,,,,,,,,,,,,,,,,,,,,,,,,,,,,,,,,,,,,,,,,,,,,,,,,,,,,,,,,,,,374.8617440999951,None,2609.912398741652,7.173429664566957,0.00018057452387257108,1,"[0.6476144834853723, 0.5836072146066129, 0.6272902793306281, 0.5367864182715953]","[125.8951922652099, 306.99868942897905, 860.011136141025, 4044.256129662626]",None,"[19.0, 26.6663512155508, 15.15034245042767, 7.793222268823757]",False,375.8606973999413,378.75653999997303,378.75653999997303,379.98460099997465,['space'],1,3.4101524198194966,4.415196019806899,None,1,None,1,,,[0.20841069996822625],,,,,tsbvqq,001,fr,0,0,2022-05-04_16h54.43.372,Cluster,2022.1.1,34.987042549916396,
,,,,2,0,2,0,1,0,1,0,,,both,,,,,,,,,,,,,,,,,,,,,,,,,,,,,,,,,,,,,,,,,,,,,,,,,,,,,,,,,,,,,,,,,,,,,,,,,,,,,,,,,,,,,,,,,,,,,,,,,,,,,,,,,,,,,,,,,,,380.3259844999993,None,,,,,"[0.7570335218276325, 0.7570335218276325, 0.7570335218276325, 0.7570335218276325]","[1207.9440262458904, 1809.8710829951294, 2711.742651886066, 4063.0232059892323]",Perfect_5th,"[14.68421633517286, 15.0, 13.0, 7.793222268823757]",True,381.31884900003206,384.61264780000784,384.61264780000784,385.82963349996135,None,1,4.048142019892111,5.061263419920579,None,1,None,1,,0,,,,,,tsbvqq,001,fr,0,0,2022-05-04_16h54.43.372,Cluster,2022.1.1,34.987042549916396,
,,,,2,0,2,0,2,0,2,0,,,frequency,,,,,,,,,,,,,,,,,,,,,,,,,,,,,,,,,,,,,,,,,,,,,,,,,,,,,,,,,,,,,,,,,,,,,,,,,,,,,,,,,,,,,,,,,,,,,,,,,,,,,,,,,,,,,,,,,,,386.4289927999489,None,619.1856815608489,15.0,0.00029720687880135677,1,"[0.4944791320474749, 0.5614584837593599, 0.6129841261065876, 0.48015002937949713]","[1560.2501479840348, 1238.3713631216979, 982.8960022733382, 780.1250739920174]",Major_3rd,"[16.0, 14.68421633517286, 13.28722819198618, 17.0]",False,387.4196243999759,390.1137104999507,390.1137104999507,391.3388478999259,['space'],1,3.1604916198411956,4.179338119807653,None,1,None,1,,,[0.37285170005634427],,,,,tsbvqq,001,fr,0,0,2022-05-04_16h54.43.372,Cluster,2022.1.1,34.987042549916396,
,,,,2,0,2,0,3,0,3,0,,,time,,,,,,,,,,,,,,,,,,,,,,,,,,,,,,,,,,,,,,,,,,,,,,,,,,,,,,,,,,,,,,,,,,,,,,,,,,,,,,,,,,,,,,,,,,,,,,,,,,,,,,,,,,,,,,,,,,,391.65122749994043,None,212.2672553971183,11.765565160124222,0.0009354714185099782,1,"[0.7559126254381119, 0.7559126254381119, 0.7559126254381119, 0.7559126254381119]","[7379.501258307094, 4322.034731175508, 671.8374289171672, 1019.9198170633879]",None,"[8.523674680694327, 7.602375190643109, 20.0, 13.28722819198618]",False,392.6479804000119,395.96021369996015,395.96021369996015,397.17905659996904,['space'],1,4.034912919858471,5.05833761987742,None,1,None,1,,,[0.3485701000317931],,,,,tsbvqq,001,fr,0,0,2022-05-04_16h54.43.372,Cluster,2022.1.1,34.987042549916396,
,,,,2,0,2,0,4,0,4,0,,,none,,,,,,,,,,,,,,,,,,,,,,,,,,,,,,,,,,,,,,,,,,,,,,,,,,,,,,,,,,,,,,,,,,,,,,,,,,,,,,,,,,,,,,,,,,,,,,,,,,,,,,,,,,,,,,,,,,,397.7571198999649,None,4000.0,1.0,9.418245447449e-05,0,"[0.5391143823334416, 0.7809567880209298, 0.5595089955711307, 0.5257411081598578]","[1350.1851774639033, 725.3003196596637, 3632.94676021905, 607.0263397701505]",None,"[15.507063998267402, 19.0, 8.213167330708274, 21.036801501734764]",False,398.78917230002116,401.69382879999466,401.69382879999466,402.89236189995427,None,0,3.4316518099512905,4.45740370999556,None,1,None,1,,,,,,,,tsbvqq,001,fr,0,0,2022-05-04_16h54.43.372,Cluster,2022.1.1,34.987042549916396,
,,,,2,0,2,0,5,0,5,0,,,time,,,,,,,,,,,,,,,,,,,,,,,,,,,,,,,,,,,,,,,,,,,,,,,,,,,,,,,,,,,,,,,,,,,,,,,,,,,,,,,,,,,,,,,,,,,,,,,,,,,,,,,,,,,,,,,,,,,403.27698089997284,None,,,,,"[0.6846866503118072, 0.6846866503118072, 0.6846866503118072, 0.6846866503118072]","[925.879682206977, 1221.2126638765276, 335.6312651325949, 214.6306595306812]",None,"[14.0, 14.68421633517286, 29.0, 17.765565160124222]",True,404.2911272000056,407.3688466999447,407.3688466999447,408.5905013999436,None,1,3.7466468198690563,4.762491319910623,None,1,None,1,,0,,,,,,tsbvqq,001,fr,0,0,2022-05-04_16h54.43.372,Cluster,2022.1.1,34.987042549916396,
,,,,2,0,2,0,6,0,6,0,,,frequency,,,,,,,,,,,,,,,,,,,,,,,,,,,,,,,,,,,,,,,,,,,,,,,,,,,,,,,,,,,,,,,,,,,,,,,,,,,,,,,,,,,,,,,,,,,,,,,,,,,,,,,,,,,,,,,,,,,409.1011316999793,None,4924.577653379667,2.0,0.00018576269882334046,1,"[0.6365771174521586, 0.7993100727952356, 0.6569871087069741, 0.7903153211779549]","[977.1599684342464, 1464.085695945626, 2193.6499593892527, 3286.7612583431624]",Perfect_5th,"[13.28722819198618, 16.01994791733071, 14.174236238575745, 9.977041029447504]",False,410.1120710999239,413.2413209999213,413.2413209999213,414.4563371000113,['space'],1,3.915135009912774,4.949628009926528,None,1,None,1,,,[0.3790980000048876],,,,,tsbvqq,001,fr,0,0,2022-05-04_16h54.43.372,Cluster,2022.1.1,34.987042549916396,
,,,,2,0,2,0,7,0,7,0,,,both,,,,,,,,,,,,,,,,,,,,,,,,,,,,,,,,,,,,,,,,,,,,,,,,,,,,,,,,,,,,,,,,,,,,,,,,,,,,,,,,,,,,,,,,,,,,,,,,,,,,,,,,,,,,,,,,,,,415.1073032999411,None,2388.4262849569213,7.736246230917883,0.00020327951158240955,1,"[0.782796675129606, 0.782796675129606, 0.782796675129606, 0.782796675129606]","[3791.3903972891158, 3377.744844914465, 3009.228552539436, 2680.917860048692]",Tone,"[8.213167330708274, 9.0, 11.157465300610848, 13.0]",False,416.1095060999505,419.4916864000261,419.4916864000261,420.7007084999932,['space'],1,4.1440822198055685,5.176016219891608,None,1,None,1,,,[0.15510850003920496],,,,,tsbvqq,001,fr,0,0,2022-05-04_16h54.43.372,Cluster,2022.1.1,34.987042549916396,
,,,,2,0,2,0,8,0,8,0,,,time,,,,,,,,,,,,,,,,,,,,,,,,,,,,,,,,,,,,,,,,,,,,,,,,,,,,,,,,,,,,,,,,,,,,,,,,,,,,,,,,,,,,,,,,,,,,,,,,,,,,,,,,,,,,,,,,,,,421.3518804999767,None,329.87697769322364,12.0,0.00037724213379574414,0,"[0.4453680890945343, 0.4453680890945343, 0.4453680890945343, 0.4453680890945343]","[653.0440327091537, 130.55562968093187, 1041.6949671468515, 409.3160547811601]",None,"[20.274920557427446, 18.09798957993931, 13.279640519195809, 29.40017881097733]",False,422.3673379999818,424.75596610002685,424.75596610002685,425.9672971999971,None,0,2.804818709846586,3.803735809866339,None,1,None,1,,,,,,,,tsbvqq,001,fr,0,0,2022-05-04_16h54.43.372,Cluster,2022.1.1,34.987042549916396,
,,,,2,0,2,0,9,0,9,0,,,time,,,,,,,,,,,,,,,,,,,,,,,,,,,,,,,,,,,,,,,,,,,,,,,,,,,,,,,,,,,,,,,,,,,,,,,,,,,,,,,,,,,,,,,,,,,,,,,,,,,,,,,,,,,,,,,,,,,426.2145523999352,None,,,,,"[0.7497988336080418, 0.7497988336080418, 0.7497988336080418, 0.7497988336080418]","[6925.190774433735, 620.2767061328982, 247.17462737277845, 2463.658113717304]",None,"[7.279976985850478, 21.0, 20.0, 13.736246230917883]",True,427.22710719995666,430.50370899995323,430.50370899995323,431.70738759997766,None,1,4.030908219865523,5.056391919963062,None,1,['space'],0,[0.6638100000564009],0,,,,,,tsbvqq,001,fr,0,0,2022-05-04_16h54.43.372,Cluster,2022.1.1,34.987042549916396,
,,,,2,0,2,0,10,0,10,0,,,both,,,,,,,,,,,,,,,,,,,,,,,,,,,,,,,,,,,,,,,,,,,,,,,,,,,,,,,,,,,,,,,,,,,,,,,,,,,,,,,,,,,,,,,,,,,,,,,,,,,,,,,,,,,,,,,,,,,432.32774009997956,None,4594.793419988137,-1.0,0.0001112864677867834,0,"[0.6723624477670813, 0.6723624477670813, 0.6723624477670813, 0.6723624477670813]","[7293.779908465733, 6498.019170849882, 5789.07694976151, 5157.481233758314]",Tone,"[8.0, 6.624589840340092, 6.6894277273926255, 7.022136109135772]",False,433.3381021999521,436.37404829997104,436.37404829997104,437.6008619000204,None,0,3.728662909939885,4.749841909855604,None,1,None,1,,,,,,,,tsbvqq,001,fr,0,0,2022-05-04_16h54.43.372,Cluster,2022.1.1,34.987042549916396,
,,,,2,0,2,0,11,0,11,0,,,none,,,,,,,,,,,,,,,,,,,,,,,,,,,,,,,,,,,,,,,,,,,,,,,,,,,,,,,,,,,,,,,,,,,,,,,,,,,,,,,,,,,,,,,,,,,,,,,,,,,,,,,,,,,,,,,,,,,438.1234767999267,None,1246.0811694280746,8.68421633517286,0.00014769741584302505,1,"[0.7193694493865975, 0.4745583964917113, 0.7904304769373536, 0.4961039454604551]","[2172.4291431347865, 2700.2693285295218, 3770.088211671935, 944.2105956932394]",None,"[14.174236238575745, 13.0, 8.213167330708274, 13.945474298346642]",False,439.1197843999835,442.13378049992025,442.13378049992025,443.35078019998036,['space'],1,3.4879809198901057,4.499177619931288,None,1,None,1,,,[0.2810109000420198],,,,,tsbvqq,001,fr,0,0,2022-05-04_16h54.43.372,Cluster,2022.1.1,34.987042549916396,
,,,,2,0,2,0,12,0,12,0,,,time,,,,,,,,,,,,,,,,,,,,,,,,,,,,,,,,,,,,,,,,,,,,,,,,,,,,,,,,,,,,,,,,,,,,,,,,,,,,,,,,,,,,,,,,,,,,,,,,,,,,,,,,,,,,,,,,,,,443.67184919991996,None,155.11247699963516,10.775296533247888,0.0015719067513103246,1,"[0.6884418332213503, 0.6884418332213503, 0.6884418332213503, 0.6884418332213503]","[2113.1661057092833, 576.9318299479879, 2690.7756507351587, 820.2592949407974]",None,"[14.174236238575745, 21.8580067445056, 13.0, 16.63746682027365]",False,444.6683661999414,447.7471254999982,447.7471254999982,448.955845199991,['space'],1,3.781090819858946,4.790938519872725,None,1,None,1,,,[0.40854810003656894],,,,,tsbvqq,001,fr,0,0,2022-05-04_16h54.43.372,Cluster,2022.1.1,34.987042549916396,
,,,,2,0,2,0,13,0,13,0,,,frequency,,,,,,,,,,,,,,,,,,,,,,,,,,,,,,,,,,,,,,,,,,,,,,,,,,,,,,,,,,,,,,,,,,,,,,,,,,,,,,,,,,,,,,,,,,,,,,,,,,,,,,,,,,,,,,,,,,,449.51124199992046,None,359.7865919105597,23.782625608166118,0.0013446871517886097,1,"[0.7202307760920303, 0.5665223144416452, 0.6114064138006708, 0.7558745846561228]","[906.6054012361013, 719.5731838211194, 571.1256144828758, 453.30270061805066]",Major_3rd,"[14.0, 19.0, 22.0, 27.0]",False,450.50825740001164,453.4258058000123,453.4258058000123,454.6604229999939,['space'],1,3.675711420015432,4.710687219980173,None,1,None,1,,,[0.19105490006040782],,,,,tsbvqq,001,fr,0,0,2022-05-04_16h54.43.372,Cluster,2022.1.1,34.987042549916396,
,,,,2,0,2,0,14,0,14,0,,,none,,,,,,,,,,,,,,,,,,,,,,,,,,,,,,,,,,,,,,,,,,,,,,,,,,,,,,,,,,,,,,,,,,,,,,,,,,,,,,,,,,,,,,,,,,,,,,,,,,,,,,,,,,,,,,,,,,,455.27590609993786,None,,,,,"[0.6966771970676345, 0.5283674676190042, 0.6755982272473852, 0.7580738807362]","[2558.6220607511527, 3260.4750175184117, 4528.476710267564, 258.05901447562945]",None,"[13.173429664566957, 9.977041029447504, 7.487080647649432, 21.0]",True,456.2909886999987,459.23371299996506,459.23371299996506,460.4498440999305,None,1,3.6694771198090166,4.692232919740491,None,1,None,1,,0,,,,,,tsbvqq,001,fr,0,0,2022-05-04_16h54.43.372,Cluster,2022.1.1,34.987042549916396,
,,,,2,0,2,0,15,0,15,0,,,both,,,,,,,,,,,,,,,,,,,,,,,,,,,,,,,,,,,,,,,,,,,,,,,,,,,,,,,,,,,,,,,,,,,,,,,,,,,,,,,,,,,,,,,,,,,,,,,,,,,,,,,,,,,,,,,,,,,461.0272144000046,None,1845.4359754466475,8.740833633636964,0.0001855585728361666,0,"[0.47495028636906494, 0.47495028636906494, 0.47495028636906494, 0.47495028636906494]","[4650.207263397019, 3690.8719508932954, 2929.447008763969, 2325.1036316985096]",Major_3rd,"[7.487080647649432, 8.213167330708274, 12.0, 14.0]",False,462.02071609999985,464.4749987999676,464.4749987999676,465.6920935999369,None,0,2.9292594199068844,3.9314647199353203,None,1,['space'],0,[0.40399190003518015],,,,,,,tsbvqq,001,fr,0,0,2022-05-04_16h54.43.372,Cluster,2022.1.1,34.987042549916396,
,,,,2,0,2,0,16,0,16,0,,,time,,,,,,,,,,,,,,,,,,,,,,,,,,,,,,,,,,,,,,,,,,,,,,,,,,,,,,,,,,,,,,,,,,,,,,,,,,,,,,,,,,,,,,,,,,,,,,,,,,,,,,,,,,,,,,,,,,,466.003956999979,None,4000.0,1.0,9.418245447449e-05,0,"[0.7105127406256919, 0.7105127406256919, 0.7105127406256919, 0.7105127406256919]","[925.0451160109058, 4508.518936553854, 2142.2160611254044, 604.3475594941775]",None,"[14.0, 7.487080647649432, 14.174236238575745, 21.036801501734764]",False,467.09833289997187,470.26225679996423,470.26225679996423,471.4787095999345,None,0,3.882362989941612,4.888083989964798,None,1,['space'],0,[0.4731911000562832],,,,,,,tsbvqq,001,fr,0,0,2022-05-04_16h54.43.372,Cluster,2022.1.1,34.987042549916396,
,,,,2,0,2,0,17,0,17,0,,,none,,,,,,,,,,,,,,,,,,,,,,,,,,,,,,,,,,,,,,,,,,,,,,,,,,,,,,,,,,,,,,,,,,,,,,,,,,,,,,,,,,,,,,,,,,,,,,,,,,,,,,,,,,,,,,,,,,,472.02630040002987,None,233.2582478842019,18.0,0.00159090436875498,1,"[0.7058330775980193, 0.5678194439332038, 0.44289817085668487, 0.5827574780616152]","[1843.2779296104313, 7300.816462645694, 626.7400843010041, 1597.3976877951343]",None,"[14.740833633636964, 8.0, 21.0, 15.78086081459099]",False,473.0360329999821,475.7846519999439,475.7846519999439,477.00981489999685,['space'],1,3.3531759097240865,4.361955509753898,None,1,None,1,,,[0.4496759999310598],,,,,tsbvqq,001,fr,0,0,2022-05-04_16h54.43.372,Cluster,2022.1.1,34.987042549916396,
,,,,2,0,2,0,18,0,18,0,,,none,,,,,,,,,,,,,,,,,,,,,,,,,,,,,,,,,,,,,,,,,,,,,,,,,,,,,,,,,,,,,,,,,,,,,,,,,,,,,,,,,,,,,,,,,,,,,,,,,,,,,,,,,,,,,,,,,,,477.42736169998534,None,,,,,"[0.4281767731463248, 0.4426018233628991, 0.6235057632050043, 0.5789776822419487]","[6149.706753361557, 2009.9874215862562, 5350.362109986773, 164.67749571323796]",None,"[6.4872047839874, 14.375882463379812, 7.0, 16.535813243161147]",True,478.4238368999213,480.9378713000333,480.9378713000333,482.15301779995207,None,1,3.1062611198285595,4.134279319783673,None,1,None,1,,0,,,,,,tsbvqq,001,fr,0,0,2022-05-04_16h54.43.372,Cluster,2022.1.1,34.987042549916396,
,,,,2,0,2,0,19,0,19,0,,,time,,,,,,,,,,,,,,,,,,,,,,,,,,,,,,,,,,,,,,,,,,,,,,,,,,,,,,,,,,,,,,,,,,,,,,,,,,,,,,,,,,,,,,,,,,,,,,,,,,,,,,,,,,,,,,,,,,,482.6054880999727,None,837.6059952633021,10.0,0.00012471044768635244,1,"[0.701827564396754, 0.701827564396754, 0.701827564396754, 0.701827564396754]","[663.8321815647132, 1163.2759903406413, 209.1891802888477, 4407.974451831359]",None,"[20.274920557427446, 14.0, 17.11642891230437, 7.602375190643109]",False,483.6076621999964,486.7618863999378,486.7618863999378,487.9860403999919,['space'],1,3.842200019862503,4.843385919812135,None,1,None,1,,,[0.4118332000216469],,,,,tsbvqq,001,fr,0,0,2022-05-04_16h54.43.372,Cluster,2022.1.1,34.987042549916396,
,,,,3,0,3,0,0,0,0,0,,,frequency,,,,,,,,,,,,,,,,,,,,,,,,,,,,,,,,,,,,,,,,,,,,,,,,,,,,,,,,,,,,,,,,,,,,,,,,,,,,,,,,,,,,,,,,,,,,,,,,,,,,,,,,,,,,,,,,,,,490.4056097000139,None,8000.0,2.0,0.0002285440948074376,1,"[0.736109162985743, 0.6198235055108295, 0.4822778267363275, 0.7446909754939897]","[3174.8021039364003, 4000.0000000000014, 5039.684199579494, 6349.604207872799]",Major_3rd,"[10.0, 7.793222268823757, 7.31058309055847, 6.624589840340092]",False,491.4165369999828,494.2971740999492,494.2971740999492,495.51090110000223,['space'],1,3.626605609897524,4.627171509899199,None,1,None,1,,,[0.11194989993236959],,,,,tsbvqq,001,fr,0,0,2022-05-04_16h54.43.372,Cluster,2022.1.1,34.987042549916396,
,,,,3,0,3,0,1,0,1,0,,,frequency,,,,,,,,,,,,,,,,,,,,,,,,,,,,,,,,,,,,,,,,,,,,,,,,,,,,,,,,,,,,,,,,,,,,,,,,,,,,,,,,,,,,,,,,,,,,,,,,,,,,,,,,,,,,,,,,,,,496.0815334999934,None,4002.886460163329,1.793222268823757,0.00010343260423639228,0,"[0.6828227465931833, 0.4000886499058418, 0.465153484324737, 0.48251548249864723]","[1588.546544443133, 2001.4432300816648, 2521.660455749477, 3177.0930888862654]",Major_3rd,"[15.78086081459099, 14.375882463379812, 13.736246230917883, 10.0]",False,497.08028549992014,499.65562610002235,499.65562610002235,500.87487649999093,None,0,3.051822919747792,4.055683319806121,None,1,None,1,,,,,,,,tsbvqq,001,fr,0,0,2022-05-04_16h54.43.372,Cluster,2022.1.1,34.987042549916396,
,,,,3,0,3,0,2,0,2,0,,,time,,,,,,,,,,,,,,,,,,,,,,,,,,,,,,,,,,,,,,,,,,,,,,,,,,,,,,,,,,,,,,,,,,,,,,,,,,,,,,,,,,,,,,,,,,,,,,,,,,,,,,,,,,,,,,,,,,,501.1927704999689,None,,,,,"[0.6891073791541582, 0.6891073791541582, 0.6891073791541582, 0.6891073791541582]","[332.1503411436631, 139.96746927809417, 7108.97250477127, 5592.470615942783]",None,"[28.57696318718835, 17.29647638438854, 8.0, 6.6894277273926255]",True,502.2066382999765,505.3113214999903,505.3113214999903,506.52369479998015,None,1,3.767935619922355,4.782320219906978,None,1,None,1,,0,,,,,,tsbvqq,001,fr,0,0,2022-05-04_16h54.43.372,Cluster,2022.1.1,34.987042549916396,
,,,,3,0,3,0,3,0,3,0,,,frequency,,,,,,,,,,,,,,,,,,,,,,,,,,,,,,,,,,,,,,,,,,,,,,,,,,,,,,,,,,,,,,,,,,,,,,,,,,,,,,,,,,,,,,,,,,,,,,,,,,,,,,,,,,,,,,,,,,,507.0342454999918,None,2462.2888266898335,2.0,0.00010708352260634206,0,"[0.6589502852281492, 0.4474735751828746, 0.7414768856992289, 0.7723561122882915]","[3908.639873736986, 3482.202253184498, 3102.289523667471, 2763.8257599355534]",Tone,"[8.0, 8.94859108714806, 11.0, 12.284322015631432]",False,508.0395231000148,510.90579320001416,510.90579320001416,512.1213075999403,None,0,3.6552581099094823,4.684277009917423,None,1,None,1,,,,,,,,tsbvqq,001,fr,0,0,2022-05-04_16h54.43.372,Cluster,2022.1.1,34.987042549916396,
,,,,3,0,3,0,4,0,4,0,,,none,,,,,,,,,,,,,,,,,,,,,,,,,,,,,,,,,,,,,,,,,,,,,,,,,,,,,,,,,,,,,,,,,,,,,,,,,,,,,,,,,,,,,,,,,,,,,,,,,,,,,,,,,,,,,,,,,,,512.754296900006,None,4144.767239975559,1.602375190643109,0.00011292474975981407,1,"[0.4900351196485857, 0.7270591248896211, 0.6669766065531577, 0.7963975613997377]","[731.9732881730563, 6334.056999194877, 7827.040239199949, 2262.0344520311614]",None,"[19.0, 6.624589840340092, 10.0, 14.020284546888995]",False,513.7730514999712,516.6702634999529,516.6702634999529,517.894194799941,['space'],1,3.6968407199019566,4.7090650198515505,None,1,None,1,,,[0.29756380000617355],,,,,tsbvqq,001,fr,0,0,2022-05-04_16h54.43.372,Cluster,2022.1.1,34.987042549916396,
,,,,3,0,3,0,5,0,5,0,,,frequency,,,,,,,,,,,,,,,,,,,,,,,,,,,,,,,,,,,,,,,,,,,,,,,,,,,,,,,,,,,,,,,,,,,,,,,,,,,,,,,,,,,,,,,,,,,,,,,,,,,,,,,,,,,,,,,,,,,518.5374509999529,None,2365.0702075998374,8.0,0.0002082464218976583,0,"[0.7735178791288526, 0.607299971529997, 0.4501342948122794, 0.72178698441295]","[938.5787338806578, 1182.535103799919, 1489.9008695171367, 1877.157467761315]",Major_3rd,"[13.945474298346642, 14.0, 16.09599889204023, 14.740833633636964]",False,519.5556865999242,522.4280693000183,522.4280693000183,523.6650972999632,None,0,3.5672528197756037,4.579536119825207,None,1,None,1,,,,,,,,tsbvqq,001,fr,0,0,2022-05-04_16h54.43.372,Cluster,2022.1.1,34.987042549916396,
,,,,3,0,3,0,6,0,6,0,,,both,,,,,,,,,,,,,,,,,,,,,,,,,,,,,,,,,,,,,,,,,,,,,,,,,,,,,,,,,,,,,,,,,,,,,,,,,,,,,,,,,,,,,,,,,,,,,,,,,,,,,,,,,,,,,,,,,,,524.1938716999721,None,8000.0,-1.0,0.00016179682846481421,1,"[0.646564848769173, 0.646564848769173, 0.646564848769173, 0.646564848769173]","[1587.4010519681997, 2378.4142300054423, 3563.5948725613575, 5339.359416680138]",Perfect_5th,"[15.78086081459099, 14.0, 8.94859108714806, 7.0]",False,525.2072133999318,528.1696563999867,528.1696563999867,529.4049220000161,['space'],1,3.607536709867418,4.618548409780487,None,1,None,1,,,[0.5967796000186354],,,,,tsbvqq,001,fr,0,0,2022-05-04_16h54.43.372,Cluster,2022.1.1,34.987042549916396,
,,,,3,0,3,0,7,0,7,0,,,both,,,,,,,,,,,,,,,,,,,,,,,,,,,,,,,,,,,,,,,,,,,,,,,,,,,,,,,,,,,,,,,,,,,,,,,,,,,,,,,,,,,,,,,,,,,,,,,,,,,,,,,,,,,,,,,,,,,529.8598503000103,None,,,,,"[0.489407314549123, 0.489407314549123, 0.489407314549123, 0.489407314549123]","[2763.497908897268, 1844.4135728558122, 1230.9983723100422, 821.5928438889432]",Perfect_5th,"[12.284322015631432, 14.740833633636964, 14.68421633517286, 16.63746682027365]",True,530.8616417000303,533.3423138000071,533.3423138000071,534.5761040999787,None,1,2.983780719921924,4.006282219896093,None,1,None,1,,0,,,,,,tsbvqq,001,fr,0,0,2022-05-04_16h54.43.372,Cluster,2022.1.1,34.987042549916396,
,,,,3,0,3,0,8,0,8,0,,,frequency,,,,,,,,,,,,,,,,,,,,,,,,,,,,,,,,,,,,,,,,,,,,,,,,,,,,,,,,,,,,,,,,,,,,,,,,,,,,,,,,,,,,,,,,,,,,,,,,,,,,,,,,,,,,,,,,,,,534.9146883999929,None,870.5505632961246,-1.0,3.598269845943275e-05,0,"[0.5866238274151917, 0.6276835636494984, 0.7936390939467444, 0.5060475512632773]","[345.47821999194434, 435.27528164806245, 548.4124898473134, 690.9564399838885]",Major_3rd,"[29.0, 28.00213892984289, 22.963512851527405, 19.338971386041575]",False,535.9251999999397,538.9729700000025,538.9729700000025,540.1819935999811,None,0,3.5380347098689526,4.5597147098742425,None,1,None,1,,,,,,,,tsbvqq,001,fr,0,0,2022-05-04_16h54.43.372,Cluster,2022.1.1,34.987042549916396,
,,,,3,0,3,0,9,0,9,0,,,time,,,,,,,,,,,,,,,,,,,,,,,,,,,,,,,,,,,,,,,,,,,,,,,,,,,,,,,,,,,,,,,,,,,,,,,,,,,,,,,,,,,,,,,,,,,,,,,,,,,,,,,,,,,,,,,,,,,540.5234154999489,None,659.7539553864473,6.0,9.688084955247381e-05,0,"[0.633301140439243, 0.633301140439243, 0.633301140439243, 0.633301140439243]","[218.4090703946841, 4798.520230925519, 1740.261028834955, 260.0920775673592]",None,"[17.765565160124222, 7.31058309055847, 15.259401909493146, 21.0]",False,541.5488051000284,544.4878454999998,544.4878454999998,545.7225034999428,None,0,3.578956509940326,4.602154709980823,None,1,None,1,,,,,,,,tsbvqq,001,fr,0,0,2022-05-04_16h54.43.372,Cluster,2022.1.1,34.987042549916396,
,,,,3,0,3,0,10,0,10,0,,,frequency,,,,,,,,,,,,,,,,,,,,,,,,,,,,,,,,,,,,,,,,,,,,,,,,,,,,,,,,,,,,,,,,,,,,,,,,,,,,,,,,,,,,,,,,,,,,,,,,,,,,,,,,,,,,,,,,,,,546.1825706999516,None,139.29585389120632,12.0,0.0023705153265853427,1,"[0.6477105061558454, 0.6695270619283028, 0.5846209906821551, 0.47162090730128686]","[702.0071139224461, 468.53353678728234, 312.7086189594532, 208.70796366477467]",Perfect_5th,"[19.338971386041575, 26.22569265138384, 26.999999999999996, 17.11642891230437]",False,547.1786585999653,550.12595529994,550.12595529994,551.3298829999985,['space'],1,3.4045038198819384,4.428500819951296,None,1,None,1,,,[0.1444388999370858],,,,,tsbvqq,001,fr,0,0,2022-05-04_16h54.43.372,Cluster,2022.1.1,34.987042549916396,
,,,,3,0,3,0,11,0,11,0,,,time,,,,,,,,,,,,,,,,,,,,,,,,,,,,,,,,,,,,,,,,,,,,,,,,,,,,,,,,,,,,,,,,,,,,,,,,,,,,,,,,,,,,,,,,,,,,,,,,,,,,,,,,,,,,,,,,,,,551.6608116999269,None,,,,,"[0.7778513761288093, 0.7778513761288093, 0.7778513761288093, 0.7778513761288093]","[1790.0895388118515, 133.37575482624487, 726.5993476988104, 6314.121451879027]",None,"[15.0, 18.09798957993931, 19.0, 6.624589840340092]",True,552.6788798000198,556.0494254999794,556.0494254999794,557.2657276999671,None,1,4.135756219853647,5.1534802198875695,None,1,None,1,,0,,,,,,tsbvqq,001,fr,0,0,2022-05-04_16h54.43.372,Cluster,2022.1.1,34.987042549916396,
,,,,3,0,3,0,12,0,12,0,,,both,,,,,,,,,,,,,,,,,,,,,,,,,,,,,,,,,,,,,,,,,,,,,,,,,,,,,,,,,,,,,,,,,,,,,,,,,,,,,,,,,,,,,,,,,,,,,,,,,,,,,,,,,,,,,,,,,,,557.8829120999435,None,554.1919729520612,16.0,0.00039744463731347434,1,"[0.4137090340482991, 0.4137090340482991, 0.4137090340482991, 0.4137090340482991]","[349.119066202536, 391.87290215355415, 439.8624604282169, 493.72891830665685]",Tone,"[29.782625608166118, 30.0, 28.0, 25.0]",False,558.8858048999682,561.1446001000004,561.1446001000004,562.3726979999337,['space'],1,2.6772573199123144,3.7091050199232996,None,1,None,1,,,[0.5728790999855846],,,,,tsbvqq,001,fr,0,0,2022-05-04_16h54.43.372,Cluster,2022.1.1,34.987042549916396,
,,,,3,0,3,0,13,0,13,0,,,frequency,,,,,,,,,,,,,,,,,,,,,,,,,,,,,,,,,,,,,,,,,,,,,,,,,,,,,,,,,,,,,,,,,,,,,,,,,,,,,,,,,,,,,,,,,,,,,,,,,,,,,,,,,,,,,,,,,,,562.6508170999587,None,125.0,18.0,0.005740768107484416,1,"[0.46614783663195597, 0.7767073165142148, 0.7844200175065056, 0.5533330696371965]","[314.9802624737183, 250.00000000000003, 198.42513149602496, 157.49013123685916]",Major_3rd,"[26.999999999999996, 20.25224880082594, 17.0, 16.77529653324789]",False,563.6617920999415,566.7107886000304,566.7107886000304,567.9438556999667,['space'],1,3.627154509886168,4.654216309892945,None,1,None,1,,,[0.17388959997333586],,,,,tsbvqq,001,fr,0,0,2022-05-04_16h54.43.372,Cluster,2022.1.1,34.987042549916396,
,,,,3,0,3,0,14,0,14,0,,,both,,,,,,,,,,,,,,,,,,,,,,,,,,,,,,,,,,,,,,,,,,,,,,,,,,,,,,,,,,,,,,,,,,,,,,,,,,,,,,,,,,,,,,,,,,,,,,,,,,,,,,,,,,,,,,,,,,,568.3580524999416,None,870.5505632961246,-3.0,2.8582073347897348e-05,0,"[0.4177735348212713, 0.4177735348212713, 0.4177735348212713, 0.4177735348212713]","[548.4124898473132, 615.5722066724584, 690.9564399838883, 775.5723809168677]",Tone,"[22.963512851527405, 21.036801501734764, 19.338971386041575, 18.0]",False,569.3841248999815,571.6592897999799,571.6592897999799,572.8802148000104,None,0,2.702429609838873,3.7071763097774237,None,1,None,1,,,,,,,,tsbvqq,001,fr,0,0,2022-05-04_16h54.43.372,Cluster,2022.1.1,34.987042549916396,
,,,,3,0,3,0,15,0,15,0,,,both,,,,,,,,,,,,,,,,,,,,,,,,,,,,,,,,,,,,,,,,,,,,,,,,,,,,,,,,,,,,,,,,,,,,,,,,,,,,,,,,,,,,,,,,,,,,,,,,,,,,,,,,,,,,,,,,,,,573.1290893999394,None,2352.8929976859017,8.0,0.00020756837448278792,0,"[0.5201379798428698, 0.5201379798428698, 0.5201379798428698, 0.5201379798428698]","[466.8731024619014, 699.5192734220389, 1048.0946777798752, 1570.367672954372]",Perfect_5th,"[26.22569265138384, 19.338971386041575, 13.279640519195809, 16.0]",False,574.1204401999712,576.7214758000337,576.7214758000337,577.9547037000302,None,0,3.0911660199053586,4.097582919988781,None,1,['space'],0,[0.36581610003486276],,,,,,,tsbvqq,001,fr,0,0,2022-05-04_16h54.43.372,Cluster,2022.1.1,34.987042549916396,
,,,,3,0,3,0,16,0,16,0,,,frequency,,,,,,,,,,,,,,,,,,,,,,,,,,,,,,,,,,,,,,,,,,,,,,,,,,,,,,,,,,,,,,,,,,,,,,,,,,,,,,,,,,,,,,,,,,,,,,,,,,,,,,,,,,,,,,,,,,,578.2752018999308,None,,,,,"[0.6178583787012177, 0.5037226061592027, 0.5815207065040284, 0.7516839518975584]","[155.9892538883854, 175.0920174338079, 196.53414453137248, 220.60211843341472]",Tone,"[16.77529653324789, 16.533228341172187, 17.0, 18.0]",True,579.2845132999355,582.0238212000113,582.0238212000113,583.2578932000324,None,1,3.474135419819504,4.491081919753924,None,1,None,1,,0,,,,,,tsbvqq,001,fr,0,0,2022-05-04_16h54.43.372,Cluster,2022.1.1,34.987042549916396,
,,,,3,0,3,0,17,0,17,0,,,both,,,,,,,,,,,,,,,,,,,,,,,,,,,,,,,,,,,,,,,,,,,,,,,,,,,,,,,,,,,,,,,,,,,,,,,,,,,,,,,,,,,,,,,,,,,,,,,,,,,,,,,,,,,,,,,,,,,583.8206681000302,None,250.0,18.0,0.0013303625298994048,1,"[0.6471627861407214, 0.6471627861407214, 0.6471627861407214, 0.6471627861407214]","[629.9605249474366, 500.00000000000006, 396.8502629920499, 314.9802624737183]",Major_3rd,"[21.0, 24.451487491523768, 29.40017881097733, 26.999999999999996]",False,584.8352864999324,587.8002558000153,587.8002558000153,589.0334301999537,['space'],1,3.6116959099890664,4.633324909955263,None,1,None,1,,,[0.5011179000139236],,,,,tsbvqq,001,fr,0,0,2022-05-04_16h54.43.372,Cluster,2022.1.1,34.987042549916396,
,,,,3,0,3,0,18,0,18,0,,,none,,,,,,,,,,,,,,,,,,,,,,,,,,,,,,,,,,,,,,,,,,,,,,,,,,,,,,,,,,,,,,,,,,,,,,,,,,,,,,,,,,,,,,,,,,,,,,,,,,,,,,,,,,,,,,,,,,,589.5039250999689,None,125.0,23.0,0.01020868972334765,1,"[0.5792443197912731, 0.7721683355666157, 0.7768093469231366, 0.5028544234009188]","[1615.0469228154284, 377.5317336759178, 263.75499939237477, 3054.825606834166]",None,"[15.78086081459099, 30.06216040488124, 22.0, 11.0]",False,590.5181417999556,593.6738133999752,593.6738133999752,594.9035997999599,['space'],1,3.654979209881276,4.659551609889604,None,1,None,1,,,[0.3119279000675306],,,,,tsbvqq,001,fr,0,0,2022-05-04_16h54.43.372,Cluster,2022.1.1,34.987042549916396,
,,,,3,0,3,0,19,0,19,0,,,time,,,,,,,,,,,,,,,,,,,,,,,,,,,,,,,,,,,,,,,,,,,,,,,,,,,,,,,,,,,,,,,,,,,,,,,,,,,,,,,,,,,,,,,,,,,,,,,,,,,,,,,,,,,,,,,,,,,595.2212275000056,None,170.31877560874327,10.535813243161147,0.0012564014989835954,0,"[0.7114119268126755, 0.7114119268126755, 0.7114119268126755, 0.7114119268126755]","[2367.55668829096, 1192.3160023863593, 145.4004304758923, 7025.531095822712]",None,"[14.0, 14.0, 17.29647638438854, 7.279976985850478]",False,596.2255244000116,599.4046390999574,599.4046390999574,600.6131651999895,None,0,3.874882419826463,4.909917519777082,None,1,None,1,,,,,,,,tsbvqq,001,fr,0,0,2022-05-04_16h54.43.372,Cluster,2022.1.1,34.987042549916396,
,,,,4,0,4,0,0,0,0,0,,,frequency,,,,,,,,,,,,,,,,,,,,,,,,,,,,,,,,,,,,,,,,,,,,,,,,,,,,,,,,,,,,,,,,,,,,,,,,,,,,,,,,,,,,,,,,,,,,,,,,,,,,,,,,,,,,,,,,,,,603.0472391999792,None,251.03055653746745,14.252248800825939,0.0008585035828895006,0,"[0.5030373203525277, 0.6706054661760716, 0.7455920908476863, 0.6823890408400534]","[632.5573646967606, 502.0611130749349, 398.4861695237384, 316.2786823483803]",Major_3rd,"[21.0, 24.451487491523768, 29.40017881097733, 26.999999999999996]",False,604.0116703999229,606.9507151999278,606.9507151999278,608.1722734000068,None,0,3.631993919843808,4.664891419932246,None,1,None,1,,,,,,,,tsbvqq,001,fr,0,0,2022-05-04_16h54.43.372,Cluster,2022.1.1,34.987042549916396,
,,,,4,0,4,0,1,0,1,0,,,frequency,,,,,,,,,,,,,,,,,,,,,,,,,,,,,,,,,,,,,,,,,,,,,,,,,,,,,,,,,,,,,,,,,,,,,,,,,,,,,,,,,,,,,,,,,,,,,,,,,,,,,,,,,,,,,,,,,,,608.7339173000073,None,6062.8662660415985,-3.0,8.41269401965078e-05,1,"[0.5360199519794276, 0.6775196602189639, 0.4869666855865495, 0.56483595038782]","[2406.0500721642366, 3031.4331330208, 3819.3664156416708, 4812.100144328472]",Major_3rd,"[13.736246230917883, 11.157465300610848, 8.0, 7.31058309055847]",False,611.0611641999567,613.7918462000089,613.7918462000089,615.012023099931,['space'],1,3.2983345498796552,4.321680349879898,None,1,None,1,,,[0.6605848999461159],,,,,tsbvqq,001,fr,0,0,2022-05-04_16h54.43.372,Cluster,2022.1.1,34.987042549916396,
,,,,4,0,4,0,2,0,2,0,,,both,,,,,,,,,,,,,,,,,,,,,,,,,,,,,,,,,,,,,,,,,,,,,,,,,,,,,,,,,,,,,,,,,,,,,,,,,,,,,,,,,,,,,,,,,,,,,,,,,,,,,,,,,,,,,,,,,,,615.4260695999255,None,,,,,"[0.44051926583197987, 0.44051926583197987, 0.44051926583197987, 0.44051926583197987]","[491.2352886563912, 389.8937069885288, 309.45884031468574, 245.61764432819558]",Major_3rd,"[25.0, 30.0, 26.6663512155508, 20.0]",True,616.4173472999828,618.7606483999407,618.7606483999407,619.9658401999623,None,1,2.7749782198807225,3.794006719836034,None,1,None,1,,0,,,,,,tsbvqq,001,fr,0,0,2022-05-04_16h54.43.372,Cluster,2022.1.1,34.987042549916396,
,,,,4,0,4,0,3,0,3,0,,,none,,,,,,,,,,,,,,,,,,,,,,,,,,,,,,,,,,,,,,,,,,,,,,,,,,,,,,,,,,,,,,,,,,,,,,,,,,,,,,,,,,,,,,,,,,,,,,,,,,,,,,,,,,,,,,,,,,,620.2595901000313,None,6287.931421217117,0.624589840340092,0.00013908982705237522,1,"[0.7873598940541187, 0.6253238323565514, 0.5080963063846844, 0.527663946856871]","[791.7942033309548, 1844.820844334367, 518.7728349157703, 206.70391927502777]",None,"[17.0, 14.740833633636964, 24.0, 17.11642891230437]",False,621.2813204999547,624.220739500015,624.220739500015,625.435346800019,['space'],1,3.475935719907284,4.48133921995759,None,1,None,1,,,[0.24105499999132007],,,,,tsbvqq,001,fr,0,0,2022-05-04_16h54.43.372,Cluster,2022.1.1,34.987042549916396,
,,,,4,0,4,0,4,0,4,0,,,frequency,,,,,,,,,,,,,,,,,,,,,,,,,,,,,,,,,,,,,,,,,,,,,,,,,,,,,,,,,,,,,,,,,,,,,,,,,,,,,,,,,,,,,,,,,,,,,,,,,,,,,,,,,,,,,,,,,,,625.8239207000006,None,889.0375408803752,9.0,0.00011526815778762058,1,"[0.5981150276968772, 0.40889151054842804, 0.4279975035367149, 0.6017629882433055]","[560.0585559509792, 628.6444738859257, 705.6295638163643, 792.0424055489658]",Tone,"[22.0, 21.0, 19.338971386041575, 17.0]",False,626.8250517999986,629.2812490999931,629.2812490999931,630.5064031999791,['space'],1,3.071047519915737,4.106524519971572,None,1,None,1,,,[0.24073720001615584],,,,,tsbvqq,001,fr,0,0,2022-05-04_16h54.43.372,Cluster,2022.1.1,34.987042549916396,
,,,,4,0,4,0,5,0,5,0,,,frequency,,,,,,,,,,,,,,,,,,,,,,,,,,,,,,,,,,,,,,,,,,,,,,,,,,,,,,,,,,,,,,,,,,,,,,,,,,,,,,,,,,,,,,,,,,,,,,,,,,,,,,,,,,,,,,,,,,,630.9895509999478,None,8000.0,-3.0,0.00012851978913844324,0,"[0.7714540429734357, 0.6438855029955073, 0.44993426973362616, 0.7241624546748017]","[5039.684199579492, 5656.8542494923795, 6349.604207872798, 7127.189745122714]",Tone,"[7.31058309055847, 6.6894277273926255, 6.624589840340092, 8.0]",False,634.0528570000315,636.9514696999686,636.9514696999686,638.1537103999872,None,0,3.6185634897556156,4.623868189752102,None,1,['space'],0,[0.5833239000057802],,,,,,,tsbvqq,001,fr,0,0,2022-05-04_16h54.43.372,Cluster,2022.1.1,34.987042549916396,
,,,,4,0,4,0,6,0,6,0,,,time,,,,,,,,,,,,,,,,,,,,,,,,,,,,,,,,,,,,,,,,,,,,,,,,,,,,,,,,,,,,,,,,,,,,,,,,,,,,,,,,,,,,,,,,,,,,,,,,,,,,,,,,,,,,,,,,,,,638.7318211999955,None,,,,,"[0.7629194875752933, 0.7629194875752933, 0.7629194875752933, 0.7629194875752933]","[5682.169178381258, 484.6849984663739, 212.11772641939527, 134.70474857726538]",None,"[6.6894277273926255, 25.0, 17.765565160124222, 18.0]",True,639.7190496999538,643.0296522999415,643.0296522999415,644.2522460999899,None,1,4.059651819989085,5.088012919994071,None,1,None,1,,0,,,,,,tsbvqq,001,fr,0,0,2022-05-04_16h54.43.372,Cluster,2022.1.1,34.987042549916396,
,,,,4,0,4,0,7,0,7,0,,,time,,,,,,,,,,,,,,,,,,,,,,,,,,,,,,,,,,,,,,,,,,,,,,,,,,,,,,,,,,,,,,,,,,,,,,,,,,,,,,,,,,,,,,,,,,,,,,,,,,,,,,,,,,,,,,,,,,,644.8510988999624,None,2143.5469250725882,6.0,0.00015561814320749588,1,"[0.6594895995519705, 0.6594895995519705, 0.6594895995519705, 0.6594895995519705]","[7709.163601274574, 748.6213927714575, 3371.940267373915, 1224.6176320767556]",None,"[9.0, 18.10746395226843, 9.0, 14.68421633517286]",False,645.8624840999255,648.8788714000257,648.8788714000257,650.0979065999854,['space'],1,3.66206820984371,4.683057409827597,None,1,None,1,,,[0.31954419997055084],,,,,tsbvqq,001,fr,0,0,2022-05-04_16h54.43.372,Cluster,2022.1.1,34.987042549916396,
,,,,4,0,4,0,8,0,8,0,,,time,,,,,,,,,,,,,,,,,,,,,,,,,,,,,,,,,,,,,,,,,,,,,,,,,,,,,,,,,,,,,,,,,,,,,,,,,,,,,,,,,,,,,,,,,,,,,,,,,,,,,,,,,,,,,,,,,,,650.5775905000046,None,317.96141449587253,22.0,0.0012318878105647014,1,"[0.5138441424025817, 0.5138441424025817, 0.5138441424025817, 0.5138441424025817]","[3974.1106016441563, 2873.1420872098947, 1139.4275803225037, 311.5959117458913]",None,"[7.793222268823757, 12.0, 13.830957238324812, 26.999999999999996]",False,651.5766597000184,654.1360376999946,654.1360376999946,655.3550798000069,['space'],1,3.0740488198352978,4.098158319829963,None,1,None,1,,,[0.17181190010160208],,,,,tsbvqq,001,fr,0,0,2022-05-04_16h54.43.372,Cluster,2022.1.1,34.987042549916396,
,,,,4,0,4,0,9,0,9,0,,,both,,,,,,,,,,,,,,,,,,,,,,,,,,,,,,,,,,,,,,,,,,,,,,,,,,,,,,,,,,,,,,,,,,,,,,,,,,,,,,,,,,,,,,,,,,,,,,,,,,,,,,,,,,,,,,,,,,,655.732131900033,None,790.2843767943268,11.0,0.00013770248879068652,0,"[0.6658925366934683, 0.6658925366934683, 0.6658925366934683, 0.6658925366934683]","[156.81228138466844, 234.95295093982622, 352.0316691262014, 527.4515411364979]",Perfect_5th,"[16.77529653324789, 19.0, 29.782625608166118, 23.0]",False,656.7264758999227,659.7688558999216,659.7688558999216,660.9772216000129,None,0,3.6711338199675083,4.692836219910532,None,1,None,1,,,,,,,,tsbvqq,001,fr,0,0,2022-05-04_16h54.43.372,Cluster,2022.1.1,34.987042549916396,
,,,,4,0,4,0,10,0,10,0,,,time,,,,,,,,,,,,,,,,,,,,,,,,,,,,,,,,,,,,,,,,,,,,,,,,,,,,,,,,,,,,,,,,,,,,,,,,,,,,,,,,,,,,,,,,,,,,,,,,,,,,,,,,,,,,,,,,,,,661.4809670000104,None,,,,,"[0.7278751567447251, 0.7278751567447251, 0.7278751567447251, 0.7278751567447251]","[5493.490318539391, 6088.647482256561, 701.3667279085643, 447.3311486551798]",None,"[6.6894277273926255, 6.4872047839874, 19.338971386041575, 27.0]",True,662.4747470000293,665.6971995999338,665.6971995999338,666.8995326999575,None,1,3.9355275199050084,4.95887391990982,None,1,None,1,,0,,,,,,tsbvqq,001,fr,0,0,2022-05-04_16h54.43.372,Cluster,2022.1.1,34.987042549916396,
,,,,4,0,4,0,11,0,11,0,,,time,,,,,,,,,,,,,,,,,,,,,,,,,,,,,,,,,,,,,,,,,,,,,,,,,,,,,,,,,,,,,,,,,,,,,,,,,,,,,,,,,,,,,,,,,,,,,,,,,,,,,,,,,,,,,,,,,,,667.4864439999219,None,8000.0,-2.0,0.00014420157515633036,0,"[0.4631478218093889, 0.4631478218093889, 0.4631478218093889, 0.4631478218093889]","[202.10782287832478, 1549.136891148035, 1749.0889210080609, 1131.4765682821626]",None,"[17.11642891230437, 16.0, 15.259401909493146, 13.830957238324812]",False,668.4971810999559,670.9239226999925,670.9239226999925,672.1238017999567,None,0,2.91166950983461,3.934468509745784,None,1,None,1,,,,,,,,tsbvqq,001,fr,0,0,2022-05-04_16h54.43.372,Cluster,2022.1.1,34.987042549916396,
,,,,4,0,4,0,12,0,12,0,,,both,,,,,,,,,,,,,,,,,,,,,,,,,,,,,,,,,,,,,,,,,,,,,,,,,,,,,,,,,,,,,,,,,,,,,,,,,,,,,,,,,,,,,,,,,,,,,,,,,,,,,,,,,,,,,,,,,,,672.4697715999791,None,153.8930516681146,20.0,0.004654903623635121,1,"[0.6719996188713491, 0.6719996188713491, 0.6719996188713491, 0.6719996188713491]","[244.28999210856162, 217.63764082403114, 193.89309522921693, 172.7391099959721]",Tone,"[20.0, 17.765565160124222, 16.72540755029058, 16.533228341172187]",False,673.4840362999821,676.5401763999835,676.5401763999835,677.7462900999235,['space'],1,3.7269460099050775,4.75388520990964,None,1,None,1,,,[0.10020059999078512],,,,,tsbvqq,001,fr,0,0,2022-05-04_16h54.43.372,Cluster,2022.1.1,34.987042549916396,
,,,,4,0,4,0,13,0,13,0,,,frequency,,,,,,,,,,,,,,,,,,,,,,,,,,,,,,,,,,,,,,,,,,,,,,,,,,,,,,,,,,,,,,,,,,,,,,,,,,,,,,,,,,,,,,,,,,,,,,,,,,,,,,,,,,,,,,,,,,,678.2847684000153,None,3921.535932801147,2.0,0.00010394045051885769,1,"[0.4256151504784822, 0.6027817983868328, 0.5219048062614565, 0.454657280009247]","[1556.262566264909, 1960.7679664005739, 2470.4128348276463, 3112.5251325298177]",Major_3rd,"[16.0, 14.375882463379812, 13.736246230917883, 11.0]",False,679.2968076999532,681.8611659000162,681.8611659000162,683.0836675999453,['space'],1,3.042635319987312,4.0507102200062945,None,1,None,1,,,[0.22835999995004386],,,,,tsbvqq,001,fr,0,0,2022-05-04_16h54.43.372,Cluster,2022.1.1,34.987042549916396,
,,,,4,0,4,0,14,0,14,0,,,none,,,,,,,,,,,,,,,,,,,,,,,,,,,,,,,,,,,,,,,,,,,,,,,,,,,,,,,,,,,,,,,,,,,,,,,,,,,,,,,,,,,,,,,,,,,,,,,,,,,,,,,,,,,,,,,,,,,683.429606199963,None,,,,,"[0.7355264783484519, 0.770189669022286, 0.41605914543545985, 0.6829016544551442]","[1584.4629971789118, 2734.53588360279, 1690.9990866069904, 1200.6761305252858]",None,"[16.0, 13.0, 15.259401909493146, 14.68421633517286]",True,684.4218524999451,687.3788217999972,687.3788217999972,688.6206189999357,None,1,3.6380774199496955,4.649321119999513,None,1,None,1,,0,,,,,,tsbvqq,001,fr,0,0,2022-05-04_16h54.43.372,Cluster,2022.1.1,34.987042549916396,
,,,,4,0,4,0,15,0,15,0,,,none,,,,,,,,,,,,,,,,,,,,,,,,,,,,,,,,,,,,,,,,,,,,,,,,,,,,,,,,,,,,,,,,,,,,,,,,,,,,,,,,,,,,,,,,,,,,,,,,,,,,,,,,,,,,,,,,,,,689.1312301999424,None,2639.015821545789,2.0,9.726024221079524e-05,0,"[0.5424752090504398, 0.70301424764628, 0.6511484589976556, 0.4802395565562309]","[1186.805867927385, 3356.1302310953165, 520.7485071101138, 577.9563691841317]",None,"[14.0, 9.977041029447504, 24.0, 21.8580067445056]",False,690.1406063999748,693.0867087999359,693.0867087999359,694.2955567999743,None,0,3.4118460098979995,4.4262276098597795,None,1,None,1,,,,,,,,tsbvqq,001,fr,0,0,2022-05-04_16h54.43.372,Cluster,2022.1.1,34.987042549916396,
,,,,4,0,4,0,16,0,16,0,,,time,,,,,,,,,,,,,,,,,,,,,,,,,,,,,,,,,,,,,,,,,,,,,,,,,,,,,,,,,,,,,,,,,,,,,,,,,,,,,,,,,,,,,,,,,,,,,,,,,,,,,,,,,,,,,,,,,,,694.5999688999727,None,6170.526531075588,0.48720478398739975,0.00013105492442192502,1,"[0.46022876483537206, 0.46022876483537206, 0.46022876483537206, 0.46022876483537206]","[846.3701070555817, 1042.8555684616947, 179.87265246859928, 2824.0607082363854]",None,"[16.0, 13.279640519195809, 16.533228341172187, 12.284322015631432]",False,695.6070979000069,698.0348202999448,698.0348202999448,699.2405296999495,['space'],1,2.852608519955538,3.8640246199211106,None,1,None,1,,,[0.31520329997874796],,,,,tsbvqq,001,fr,0,0,2022-05-04_16h54.43.372,Cluster,2022.1.1,34.987042549916396,
,,,,4,0,4,0,17,0,17,0,,,time,,,,,,,,,,,,,,,,,,,,,,,,,,,,,,,,,,,,,,,,,,,,,,,,,,,,,,,,,,,,,,,,,,,,,,,,,,,,,,,,,,,,,,,,,,,,,,,,,,,,,,,,,,,,,,,,,,,699.5253038000083,None,125.0,20.0,0.00722719885372964,1,"[0.468293805578458, 0.468293805578458, 0.468293805578458, 0.468293805578458]","[200.22527802869567, 1619.4390761267603, 178.30793095978686, 2351.976760294519]",None,"[17.0, 15.78086081459099, 16.533228341172187, 14.0]",False,702.4404310999671,704.898187499959,704.898187499959,706.109845399973,['space'],1,2.89953863970004,3.9066537397447973,None,1,None,1,,,[0.4141986999893561],,,,,tsbvqq,001,fr,0,0,2022-05-04_16h54.43.372,Cluster,2022.1.1,34.987042549916396,
,,,,4,0,4,0,18,0,18,0,,,both,,,,,,,,,,,,,,,,,,,,,,,,,,,,,,,,,,,,,,,,,,,,,,,,,,,,,,,,,,,,,,,,,,,,,,,,,,,,,,,,,,,,,,,,,,,,,,,,,,,,,,,,,,,,,,,,,,,706.3976735000033,None,781.5353544639463,11.0,0.0001391139702697322,0,"[0.7625156898883575, 0.7625156898883575, 0.7625156898883575, 0.7625156898883575]","[1240.6100438264082, 1105.2578977569772, 984.6728443261771, 877.2437747977931]",Tone,"[14.68421633517286, 13.279640519195809, 13.28722819198618, 15.0]",False,707.4250712000066,710.7345386999659,710.7345386999659,711.9390378999524,None,0,4.085065119899809,5.101528219995089,None,1,None,1,,,,,,,,tsbvqq,001,fr,0,0,2022-05-04_16h54.43.372,Cluster,2022.1.1,34.987042549916396,
,,,,4,0,4,0,19,0,19,0,,,time,,,,,,,,,,,,,,,,,,,,,,,,,,,,,,,,,,,,,,,,,,,,,,,,,,,,,,,,,,,,,,,,,,,,,,,,,,,,,,,,,,,,,,,,,,,,,,,,,,,,,,,,,,,,,,,,,,,712.5852268999442,None,138.43718311354,12.0,0.002400948979365359,1,"[0.7002516915689343, 0.7002516915689343, 0.7002516915689343, 0.7002516915689343]","[704.0078208826471, 536.4586437035053, 174.44876253294143, 2860.2811790461415]",None,"[19.338971386041575, 22.963512851527405, 16.533228341172187, 12.0]",False,713.6017064999323,716.741264399956,716.741264399956,717.9554753999691,['space'],1,3.832017419859767,4.850770319812,None,1,None,1,,,[0.12559480010531843],,,,,tsbvqq,001,fr,0,0,2022-05-04_16h54.43.372,Cluster,2022.1.1,34.987042549916396,
,,,,5,0,5,0,0,0,0,0,,,both,,,,,,,,,,,,,,,,,,,,,,,,,,,,,,,,,,,,,,,,,,,,,,,,,,,,,,,,,,,,,,,,,,,,,,,,,,,,,,,,,,,,,,,,,,,,,,,,,,,,,,,,,,,,,,,,,,,720.2478647999233,None,,,,,"[0.4706628926979877, 0.4706628926979877, 0.4706628926979877, 0.4706628926979877]","[5908.696643543866, 5264.050265613356, 4689.735633861251, 4178.07946462406]",Tone,"[6.4872047839874, 7.022136109135772, 7.487080647649432, 7.602375190643109]",True,721.2386044999585,723.669355400023,723.669355400023,724.8972646000329,['space'],0,2.914287819992751,3.9294606199255213,None,1,None,1,,0,[0.2870821999385953],,,,,tsbvqq,001,fr,0,0,2022-05-04_16h54.43.372,Cluster,2022.1.1,34.987042549916396,
,,,,5,0,5,0,1,0,1,0,,,both,,,,,,,,,,,,,,,,,,,,,,,,,,,,,,,,,,,,,,,,,,,,,,,,,,,,,,,,,,,,,,,,,,,,,,,,,,,,,,,,,,,,,,,,,,,,,,,,,,,,,,,,,,,,,,,,,,,725.2170597999357,None,4924.577653379667,3.0,0.00020842917620072566,1,"[0.4847835294393047, 0.4847835294393047, 0.4847835294393047, 0.4847835294393047]","[977.1599684342464, 1464.085695945626, 2193.6499593892527, 3286.7612583431624]",Perfect_5th,"[13.28722819198618, 16.01994791733071, 14.174236238575745, 9.977041029447504]",False,726.2293973999331,728.6996338999597,728.6996338999597,729.9225756999804,['space'],1,2.9863567099673674,3.9995371099794284,None,1,None,1,,,[0.19926629995461553],,,,,tsbvqq,001,fr,0,0,2022-05-04_16h54.43.372,Cluster,2022.1.1,34.987042549916396,
,,,,5,0,5,0,2,0,2,0,,,both,,,,,,,,,,,,,,,,,,,,,,,,,,,,,,,,,,,,,,,,,,,,,,,,,,,,,,,,,,,,,,,,,,,,,,,,,,,,,,,,,,,,,,,,,,,,,,,,,,,,,,,,,,,,,,,,,,,730.2568813000107,None,178.70952743925463,10.533228341172187,0.0011532734574548776,0,"[0.6805316487106925, 0.6805316487106925, 0.6805316487106925, 0.6805316487106925]","[900.6395817499294, 601.1048039814183, 401.1893244437317, 267.76174966752274]",Perfect_5th,"[15.0, 21.036801501734764, 29.40017881097733, 22.17487994231128]",False,731.2557059000246,734.3373415999813,734.3373415999813,735.5491390000097,None,0,3.7408557198941708,4.756658719968982,None,1,None,1,,,,,,,,tsbvqq,001,fr,0,0,2022-05-04_16h54.43.372,Cluster,2022.1.1,34.987042549916396,
,,,,5,0,5,0,3,0,3,0,,,none,,,,,,,,,,,,,,,,,,,,,,,,,,,,,,,,,,,,,,,,,,,,,,,,,,,,,,,,,,,,,,,,,,,,,,,,,,,,,,,,,,,,,,,,,,,,,,,,,,,,,,,,,,,,,,,,,,,736.0658678000327,None,1312.906476437864,9.507063998267402,0.000158197040734872,1,"[0.4810646836071024, 0.749745327595446, 0.7696166490065355, 0.6522481959646844]","[788.4303327679348, 1766.7271974037671, 142.05396540554406, 1340.3035693747793]",None,"[17.0, 15.259401909493146, 17.29647638438854, 15.507063998267402]",False,737.0617893999442,740.0971115999855,740.0971115999855,741.3270643999567,['space'],1,3.680708019877784,4.707721519866027,None,1,None,1,,,[0.2692662999033928],,,,,tsbvqq,001,fr,0,0,2022-05-04_16h54.43.372,Cluster,2022.1.1,34.987042549916396,
,,,,5,0,5,0,4,0,4,0,,,time,,,,,,,,,,,,,,,,,,,,,,,,,,,,,,,,,,,,,,,,,,,,,,,,,,,,,,,,,,,,,,,,,,,,,,,,,,,,,,,,,,,,,,,,,,,,,,,,,,,,,,,,,,,,,,,,,,,741.8369244999485,None,1319.5079107728945,12.0,0.0002101351810032872,1,"[0.7758201771534373, 0.7758201771534373, 0.7758201771534373, 0.7758201771534373]","[3304.0717988272936, 159.16816227631446, 324.60706249497855, 177.10398346355365]",None,"[9.977041029447504, 16.77529653324789, 28.0, 16.533228341172187]",False,742.8450534000294,746.1992309999187,746.1992309999187,747.4191508999793,['space'],1,4.14737430983223,5.154979809885845,None,1,None,1,,,[0.24726360000204295],,,,,tsbvqq,001,fr,0,0,2022-05-04_16h54.43.372,Cluster,2022.1.1,34.987042549916396,
,,,,5,0,5,0,5,0,5,0,,,frequency,,,,,,,,,,,,,,,,,,,,,,,,,,,,,,,,,,,,,,,,,,,,,,,,,,,,,,,,,,,,,,,,,,,,,,,,,,,,,,,,,,,,,,,,,,,,,,,,,,,,,,,,,,,,,,,,,,,748.0345459999517,None,659.7539553864473,5.0,8.634514805083658e-05,0,"[0.5313788582551588, 0.794963551637137, 0.5867912361824651, 0.5364154066532704]","[1662.4757922855763, 1319.5079107728948, 1047.294122820627, 831.237896142788]",Major_3rd,"[15.78086081459099, 15.507063998267402, 13.279640519195809, 16.0]",False,749.0497740999563,752.0019172999309,752.0019172999309,753.2238912000321,None,0,3.4741725098574534,4.4799017099430785,None,1,None,1,,,,,,,,tsbvqq,001,fr,0,0,2022-05-04_16h54.43.372,Cluster,2022.1.1,34.987042549916396,
,,,,5,0,5,0,6,0,6,0,,,time,,,,,,,,,,,,,,,,,,,,,,,,,,,,,,,,,,,,,,,,,,,,,,,,,,,,,,,,,,,,,,,,,,,,,,,,,,,,,,,,,,,,,,,,,,,,,,,,,,,,,,,,,,,,,,,,,,,753.5742011999246,None,,,,,"[0.5199256388266459, 0.5199256388266459, 0.5199256388266459, 0.5199256388266459]","[3909.427682088269, 782.8336078228928, 1491.0858493864157, 1796.6669955772156]",None,"[8.0, 17.0, 16.09599889204023, 15.0]",True,754.5909647999797,757.1941583999433,757.1941583999433,758.4059657999314,['space'],0,3.103886619908735,4.130111219943501,None,1,None,1,,0,[0.07350980001501739],,,,,tsbvqq,001,fr,0,0,2022-05-04_16h54.43.372,Cluster,2022.1.1,34.987042549916396,
,,,,5,0,5,0,7,0,7,0,,,none,,,,,,,,,,,,,,,,,,,,,,,,,,,,,,,,,,,,,,,,,,,,,,,,,,,,,,,,,,,,,,,,,,,,,,,,,,,,,,,,,,,,,,,,,,,,,,,,,,,,,,,,,,,,,,,,,,,758.7727179999929,None,435.2752816480623,18.0,0.0005937756127592179,0,"[0.6665818022033831, 0.7270661080082508, 0.5990250535929283, 0.7539511552175744]","[1865.341180478184, 661.1806313157625, 4716.954033050707, 6469.802301516917]",None,"[14.740833633636964, 20.274920557427446, 7.487080647649432, 6.624589840340092]",False,759.8014393999474,762.8371267999755,762.8371267999755,764.061356500024,None,0,3.774994309991598,4.796929909964092,None,1,None,1,,,,,,,,tsbvqq,001,fr,0,0,2022-05-04_16h54.43.372,Cluster,2022.1.1,34.987042549916396,
,,,,5,0,5,0,8,0,8,0,,,frequency,,,,,,,,,,,,,,,,,,,,,,,,,,,,,,,,,,,,,,,,,,,,,,,,,,,,,,,,,,,,,,,,,,,,,,,,,,,,,,,,,,,,,,,,,,,,,,,,,,,,,,,,,,,,,,,,,,,764.6334625999443,None,1047.5930269681799,7.279640519195809,0.00010645027799159986,1,"[0.5938043923183294, 0.7880126148727464, 0.4181920016243819, 0.6410421998181187]","[5279.53802560119, 3523.668884089322, 2351.766829690639, 1569.6160459930882]",Perfect_5th,"[7.022136109135772, 8.94859108714806, 14.0, 16.0]",False,765.6248323000036,768.4508032000158,768.4508032000158,769.6757078999653,['space'],1,3.4746430199593306,4.487573919934221,None,1,None,1,,,[0.26946189999580383],,,,,tsbvqq,001,fr,0,0,2022-05-04_16h54.43.372,Cluster,2022.1.1,34.987042549916396,
,,,,5,0,5,0,9,0,9,0,,,time,,,,,,,,,,,,,,,,,,,,,,,,,,,,,,,,,,,,,,,,,,,,,,,,,,,,,,,,,,,,,,,,,,,,,,,,,,,,,,,,,,,,,,,,,,,,,,,,,,,,,,,,,,,,,,,,,,,770.1723721999442,None,2502.1988851433116,7.736246230917883,0.00020897333577914808,1,"[0.7524209397412851, 0.7524209397412851, 0.7524209397412851, 0.7524209397412851]","[209.15330174748505, 1005.6285922463219, 4146.366491175678, 1038.359862358033]",None,"[17.11642891230437, 13.28722819198618, 7.602375190643109, 13.279640519195809]",False,771.1659191999352,774.4566664999584,774.4566664999584,775.6794029999292,['space'],1,4.021351319854148,5.040259519824758,None,1,None,1,,,[0.22905229998286813],,,,,tsbvqq,001,fr,0,0,2022-05-04_16h54.43.372,Cluster,2022.1.1,34.987042549916396,
,,,,5,0,5,0,10,0,10,0,,,frequency,,,,,,,,,,,,,,,,,,,,,,,,,,,,,,,,,,,,,,,,,,,,,,,,,,,,,,,,,,,,,,,,,,,,,,,,,,,,,,,,,,,,,,,,,,,,,,,,,,,,,,,,,,,,,,,,,,,776.2684513999848,None,,,,,"[0.7194252887770787, 0.4419005697921212, 0.6272503761051892, 0.7656144286555295]","[5828.980691163319, 4626.465040527487, 3672.027736113716, 2914.4903455816593]",Major_3rd,"[6.6894277273926255, 7.487080647649432, 8.213167330708274, 12.0]",True,777.2839190999512,780.0907897999277,780.0907897999277,781.2974423000123,None,1,3.5639475198695436,4.59754551993683,None,1,None,1,,0,,,,,,tsbvqq,001,fr,0,0,2022-05-04_16h54.43.372,Cluster,2022.1.1,34.987042549916396,
,,,,5,0,5,0,11,0,11,0,,,time,,,,,,,,,,,,,,,,,,,,,,,,,,,,,,,,,,,,,,,,,,,,,,,,,,,,,,,,,,,,,,,,,,,,,,,,,,,,,,,,,,,,,,,,,,,,,,,,,,,,,,,,,,,,,,,,,,,781.9309282000177,None,1866.0659830736151,6.0,0.0001372027087973376,1,"[0.48448147640854017, 0.48448147640854017, 0.48448147640854017, 0.48448147640854017]","[2405.318399192097, 3232.35543921544, 469.48280718937275, 462.12047781354096]",None,"[13.736246230917883, 10.0, 26.0, 26.22569265138384]",False,782.9589435999515,785.44185069995,785.44185069995,786.6603120999644,['space'],1,2.965448610018939,3.9733854100340977,None,1,None,1,,,[0.3222928000614047],,,,,tsbvqq,001,fr,0,0,2022-05-04_16h54.43.372,Cluster,2022.1.1,34.987042549916396,
,,,,5,0,5,0,12,0,12,0,,,both,,,,,,,,,,,,,,,,,,,,,,,,,,,,,,,,,,,,,,,,,,,,,,,,,,,,,,,,,,,,,,,,,,,,,,,,,,,,,,,,,,,,,,,,,,,,,,,,,,,,,,,,,,,,,,,,,,,786.9750977000222,None,1148.6983549970344,11.0,0.0001783720288938129,1,"[0.5504941639750685, 0.5504941639750685, 0.5504941639750685, 0.5504941639750685]","[227.93062213955412, 341.51006418859873, 511.6869459983872, 766.6641723347999]",Perfect_5th,"[18.78141104740799, 29.0, 24.0, 18.0]",False,787.9871534999693,790.669734199997,790.669734199997,791.8916277999524,['space'],1,3.2250264099566266,4.228988509974442,None,1,None,1,,,[0.40154860005714],,,,,tsbvqq,001,fr,0,0,2022-05-04_16h54.43.372,Cluster,2022.1.1,34.987042549916396,
,,,,5,0,5,0,13,0,13,0,,,both,,,,,,,,,,,,,,,,,,,,,,,,,,,,,,,,,,,,,,,,,,,,,,,,,,,,,,,,,,,,,,,,,,,,,,,,,,,,,,,,,,,,,,,,,,,,,,,,,,,,,,,,,,,,,,,,,,,792.2574591999874,None,4721.57134453642,1.4870806476494316,0.00015853429162833292,0,"[0.6390372413116712, 0.6390372413116712, 0.6390372413116712, 0.6390372413116712]","[7495.02731926002, 6677.310231155575, 5948.807125561874, 5299.78464262719]",Tone,"[8.523674680694327, 7.0, 6.4872047839874, 7.0]",False,793.2489202999277,796.1849268999649,796.1849268999649,797.4019649999682,None,0,3.5867686198325828,4.61360621987842,None,1,None,1,,,,,,,,tsbvqq,001,fr,0,0,2022-05-04_16h54.43.372,Cluster,2022.1.1,34.987042549916396,
,,,,5,0,5,0,14,0,14,0,,,none,,,,,,,,,,,,,,,,,,,,,,,,,,,,,,,,,,,,,,,,,,,,,,,,,,,,,,,,,,,,,,,,,,,,,,,,,,,,,,,,,,,,,,,,,,,,,,,,,,,,,,,,,,,,,,,,,,,797.9221426999429,None,,,,,"[0.44230787749917577, 0.7576760484712295, 0.7172148977761659, 0.5716414128625913]","[3018.7989904953806, 632.2780421591975, 6694.41461525056, 7831.924794183806]",None,"[11.157465300610848, 21.0, 7.0, 10.0]",True,798.9364248999627,801.8888350999914,801.8888350999914,803.1145406999858,None,1,3.512317919987254,4.527424919884652,None,1,None,1,,0,,,,,,tsbvqq,001,fr,0,0,2022-05-04_16h54.43.372,Cluster,2022.1.1,34.987042549916396,
,,,,5,0,5,0,15,0,15,0,,,time,,,,,,,,,,,,,,,,,,,,,,,,,,,,,,,,,,,,,,,,,,,,,,,,,,,,,,,,,,,,,,,,,,,,,,,,,,,,,,,,,,,,,,,,,,,,,,,,,,,,,,,,,,,,,,,,,,,803.5142431999557,None,7871.214500727941,4.0,0.00028153287017289584,1,"[0.5972947195568232, 0.5972947195568232, 0.5972947195568232, 0.5972947195568232]","[266.2974647448932, 735.9760687093734, 135.72833205920566, 2029.9940181548295]",None,"[22.0, 19.0, 18.0, 14.375882463379812]",False,804.5303330000024,807.3469441999914,807.3469441999914,808.5691963999998,['space'],1,3.409283119835891,4.422329419758171,None,1,None,1,,,[0.243795600021258],,,,,tsbvqq,001,fr,0,0,2022-05-04_16h54.43.372,Cluster,2022.1.1,34.987042549916396,
,,,,5,0,5,0,16,0,16,0,,,none,,,,,,,,,,,,,,,,,,,,,,,,,,,,,,,,,,,,,,,,,,,,,,,,,,,,,,,,,,,,,,,,,,,,,,,,,,,,,,,,,,,,,,,,,,,,,,,,,,,,,,,,,,,,,,,,,,,809.0111120999791,None,1898.5356628627278,8.740833633636964,0.00019211732570375496,0,"[0.5091101141367879, 0.7498105771355875, 0.48817367380859106, 0.6633621709209474]","[5906.832736027917, 527.4549916614651, 4749.754218329994, 1277.2076834093193]",None,"[6.4872047839874, 23.0, 7.487080647649432, 15.0]",False,810.0039807999274,812.7705144999782,812.7705144999782,813.975056599942,None,0,3.4388818198349327,4.465427019749768,None,1,['space'],0,[0.5080910000251606],,,,,,,tsbvqq,001,fr,0,0,2022-05-04_16h54.43.372,Cluster,2022.1.1,34.987042549916396,
,,,,5,0,5,0,17,0,17,0,,,frequency,,,,,,,,,,,,,,,,,,,,,,,,,,,,,,,,,,,,,,,,,,,,,,,,,,,,,,,,,,,,,,,,,,,,,,,,,,,,,,,,,,,,,,,,,,,,,,,,,,,,,,,,,,,,,,,,,,,814.530278799939,None,189.4645708137998,15.0,0.0017084605332667944,0,"[0.6765831021886657, 0.4986198572575104, 0.6025776811679754, 0.7863057766475738]","[300.7562590205293, 267.9433656340734, 238.71040097760422, 212.666790237714]",Tone,"[26.0, 22.17487994231128, 19.0, 17.765565160124222]",False,815.5557573999977,818.3596831000177,818.3596831000177,819.5936107999878,None,0,3.6041553099639714,4.6093600098975,None,1,['space'],0,[0.5835643999744207],,,,,,,tsbvqq,001,fr,0,0,2022-05-04_16h54.43.372,Cluster,2022.1.1,34.987042549916396,
,,,,5,0,5,0,18,0,18,0,,,time,,,,,,,,,,,,,,,,,,,,,,,,,,,,,,,,,,,,,,,,,,,,,,,,,,,,,,,,,,,,,,,,,,,,,,,,,,,,,,,,,,,,,,,,,,,,,,,,,,,,,,,,,,,,,,,,,,,820.2037010999629,None,4287.0938501451765,3.0,0.0001464715815072985,1,"[0.5985636914412369, 0.5985636914412369, 0.5985636914412369, 0.5985636914412369]","[2046.257968801773, 760.6627243560534, 1791.6345318420515, 4774.339789311565]",None,"[14.375882463379812, 18.0, 15.0, 7.31058309055847]",False,821.3005341999233,824.1309249999467,824.1309249999467,825.3657618999714,['space'],1,3.412073989980854,4.441774589940906,None,1,None,1,,,[0.22643779998179525],,,,,tsbvqq,001,fr,0,0,2022-05-04_16h54.43.372,Cluster,2022.1.1,34.987042549916396,
,,,,5,0,5,0,19,0,19,0,,,time,,,,,,,,,,,,,,,,,,,,,,,,,,,,,,,,,,,,,,,,,,,,,,,,,,,,,,,,,,,,,,,,,,,,,,,,,,,,,,,,,,,,,,,,,,,,,,,,,,,,,,,,,,,,,,,,,,,825.7854257000145,None,6864.997815562789,1.2799769858504781,0.000170495568225694,1,"[0.47686270985575335, 0.47686270985575335, 0.47686270985575335, 0.47686270985575335]","[160.05852439787387, 742.162571171917, 143.629975130862, 3604.9114007375547]",None,"[16.535813243161147, 18.10746395226843, 17.29647638438854, 8.94859108714806]",False,826.7774598000105,829.2412458999315,829.2412458999315,830.4711768999696,['space'],1,2.935836919932626,3.955587219912559,None,1,None,1,,,[0.2318235000129789],,,,,tsbvqq,001,fr,0,0,2022-05-04_16h54.43.372,Cluster,2022.1.1,34.987042549916396,
,,,,6,0,6,0,0,0,0,0,,,frequency,,,,,,,,,,,,,,,,,,,,,,,,,,,,,,,,,,,,,,,,,,,,,,,,,,,,,,,,,,,,,,,,,,,,,,,,,,,,,,,,,,,,,,,,,,,,,,,,,,,,,,,,,,,,,,,,,,,832.6682625999674,None,537.2292963226903,16.963512851527405,0.00046272588598967934,1,"[0.414070322294301, 0.7574355216731248, 0.6321392299630909, 0.4325694788318062]","[852.7983501307741, 759.7569569637029, 676.8664990571679, 603.01949636217]",Tone,"[16.0, 18.10746395226843, 20.0, 21.036801501734764]",False,833.6606832999969,836.4851958999643,836.4851958999643,837.7046979999868,['space'],1,3.243949219933711,4.277630619937554,None,1,None,1,,,[0.20725570002105087],,,,,tsbvqq,001,fr,0,0,2022-05-04_16h54.43.372,Cluster,2022.1.1,34.987042549916396,
,,,,6,0,6,0,1,0,1,0,,,both,,,,,,,,,,,,,,,,,,,,,,,,,,,,,,,,,,,,,,,,,,,,,,,,,,,,,,,,,,,,,,,,,,,,,,,,,,,,,,,,,,,,,,,,,,,,,,,,,,,,,,,,,,,,,,,,,,,838.0008402999956,None,,,,,"[0.6388813290981, 0.6388813290981, 0.6388813290981, 0.6388813290981]","[2456.8204589247157, 1949.9796904970442, 1547.699906005816, 1228.4102294623578]",Major_3rd,"[13.736246230917883, 14.375882463379812, 16.0, 14.68421633517286]",True,838.9982931999257,841.9303936000215,841.9303936000215,843.1340400999179,None,1,3.578606119961478,4.6063901198795065,None,1,None,1,,0,,,,,,tsbvqq,001,fr,0,0,2022-05-04_16h54.43.372,Cluster,2022.1.1,34.987042549916396,
,,,,6,0,6,0,2,0,2,0,,,time,,,,,,,,,,,,,,,,,,,,,,,,,,,,,,,,,,,,,,,,,,,,,,,,,,,,,,,,,,,,,,,,,,,,,,,,,,,,,,,,,,,,,,,,,,,,,,,,,,,,,,,,,,,,,,,,,,,843.6559177000308,None,1000.0,4.0,6.981841805279689e-05,0,"[0.4493617229641263, 0.4493617229641263, 0.4493617229641263, 0.4493617229641263]","[184.33340153670503, 384.71280799734166, 696.4124394514054, 404.61953075852705]",None,"[16.72540755029058, 30.0, 19.338971386041575, 29.40017881097733]",False,844.6839624999557,847.0584682000335,847.0584682000335,848.289152399986,None,0,2.8448377097956836,3.8771182098425925,None,1,None,1,,,,,,,,tsbvqq,001,fr,0,0,2022-05-04_16h54.43.372,Cluster,2022.1.1,34.987042549916396,
,,,,6,0,6,0,3,0,3,0,,,time,,,,,,,,,,,,,,,,,,,,,,,,,,,,,,,,,,,,,,,,,,,,,,,,,,,,,,,,,,,,,,,,,,,,,,,,,,,,,,,,,,,,,,,,,,,,,,,,,,,,,,,,,,,,,,,,,,,848.5949294000166,None,1845.5548926068564,8.740833633636964,0.00018557326121388556,1,"[0.669367624800783, 0.669367624800783, 0.669367624800783, 0.669367624800783]","[2233.5854797740885, 2754.238223581636, 5032.62729663515, 6967.424893227807]",None,"[14.020284546888995, 12.284322015631432, 7.31058309055847, 7.279976985850478]",False,849.6109976000153,852.6645749999443,852.6645749999443,853.865512899938,['space'],1,3.7041393199469894,4.708335019880906,None,1,None,1,,,[0.260603400063701],,,,,tsbvqq,001,fr,0,0,2022-05-04_16h54.43.372,Cluster,2022.1.1,34.987042549916396,
,,,,6,0,6,0,4,0,4,0,,,none,,,,,,,,,,,,,,,,,,,,,,,,,,,,,,,,,,,,,,,,,,,,,,,,,,,,,,,,,,,,,,,,,,,,,,,,,,,,,,,,,,,,,,,,,,,,,,,,,,,,,,,,,,,,,,,,,,,854.3775910999393,None,164.93848884661182,17.0,0.0027831859114393217,1,"[0.6634401443963598, 0.6457929020121718, 0.4410440161941308, 0.7913184008189333]","[2254.0272001813323, 2418.572864891998, 5089.6662439445245, 452.9315090556351]",None,"[14.020284546888995, 13.736246230917883, 7.31058309055847, 27.0]",False,855.403171599959,858.1991720999358,858.1991720999358,859.4351098999614,['space'],1,3.5827466098126024,4.593910109833814,None,1,None,1,,,[0.38789719995111227],,,,,tsbvqq,001,fr,0,0,2022-05-04_16h54.43.372,Cluster,2022.1.1,34.987042549916396,
,,,,6,0,6,0,5,0,5,0,,,time,,,,,,,,,,,,,,,,,,,,,,,,,,,,,,,,,,,,,,,,,,,,,,,,,,,,,,,,,,,,,,,,,,,,,,,,,,,,,,,,,,,,,,,,,,,,,,,,,,,,,,,,,,,,,,,,,,,860.0463513999712,None,435.2752816480623,14.0,0.0003746470838436557,0,"[0.78206035153476, 0.78206035153476, 0.78206035153476, 0.78206035153476]","[132.62356683965396, 486.768096004463, 2850.300709438472, 6825.952707652425]",None,"[18.09798957993931, 25.0, 12.284322015631432, 7.0]",False,861.0681389999809,864.4392107999884,864.4392107999884,865.6736535999225,None,0,4.18047470995225,5.18564110994339,None,1,None,1,,,,,,,,tsbvqq,001,fr,0,0,2022-05-04_16h54.43.372,Cluster,2022.1.1,34.987042549916396,
,,,,6,0,6,0,6,0,6,0,,,frequency,,,,,,,,,,,,,,,,,,,,,,,,,,,,,,,,,,,,,,,,,,,,,,,,,,,,,,,,,,,,,,,,,,,,,,,,,,,,,,,,,,,,,,,,,,,,,,,,,,,,,,,,,,,,,,,,,,,866.2922688999679,None,250.0,23.0,0.0023657562948074026,1,"[0.47083870662000604, 0.4625336093287269, 0.7416782970355911, 0.6092173686329267]","[629.9605249474366, 500.00000000000006, 396.8502629920499, 314.9802624737183]",Major_3rd,"[21.0, 24.451487491523768, 29.40017881097733, 26.999999999999996]",False,867.305374299991,869.9911904999753,869.9911904999753,871.1928026999813,['space'],1,3.309060010011308,4.341599609935656,None,1,None,1,,,[0.1529910999815911],,,,,tsbvqq,001,fr,0,0,2022-05-04_16h54.43.372,Cluster,2022.1.1,34.987042549916396,
,,,,6,0,6,0,7,0,7,0,,,time,,,,,,,,,,,,,,,,,,,,,,,,,,,,,,,,,,,,,,,,,,,,,,,,,,,,,,,,,,,,,,,,,,,,,,,,,,,,,,,,,,,,,,,,,,,,,,,,,,,,,,,,,,,,,,,,,,,871.6969067000318,None,3164.2916323410655,4.0,0.00010978569411135552,1,"[0.711401350482999, 0.711401350482999, 0.711401350482999, 0.711401350482999]","[1180.8410988123603, 1759.7720933005246, 426.4603729463241, 2558.499609532073]",None,"[14.0, 15.259401909493146, 28.00213892984289, 13.173429664566957]",False,872.6973619000055,875.8524019999895,875.8524019999895,877.0882404999575,['space'],1,3.8806960198562592,4.8961518198484555,None,1,None,1,,,[0.26202789996750653],,,,,tsbvqq,001,fr,0,0,2022-05-04_16h54.43.372,Cluster,2022.1.1,34.987042549916396,
,,,,6,0,6,0,8,0,8,0,,,both,,,,,,,,,,,,,,,,,,,,,,,,,,,,,,,,,,,,,,,,,,,,,,,,,,,,,,,,,,,,,,,,,,,,,,,,,,,,,,,,,,,,,,,,,,,,,,,,,,,,,,,,,,,,,,,,,,,877.6538020999869,None,,,,,"[0.4801815173417321, 0.4801815173417321, 0.4801815173417321, 0.4801815173417321]","[4362.440919108641, 3886.4930227968516, 3462.4716520710876, 3084.711556427395]",Tone,"[7.602375190643109, 8.0, 9.0, 11.0]",True,878.6610280999448,881.1412674000021,881.1412674000021,882.3580106999725,['space'],0,2.9584727197652683,3.9905838198028505,None,1,None,1,,0,[0.06757109996397048],,,,,tsbvqq,001,fr,0,0,2022-05-04_16h54.43.372,Cluster,2022.1.1,34.987042549916396,
,,,,6,0,6,0,9,0,9,0,,,frequency,,,,,,,,,,,,,,,,,,,,,,,,,,,,,,,,,,,,,,,,,,,,,,,,,,,,,,,,,,,,,,,,,,,,,,,,,,,,,,,,,,,,,,,,,,,,,,,,,,,,,,,,,,,,,,,,,,,882.71028749994,None,5106.610212182826,1.0221361091357721,0.00016739887335348358,1,"[0.5198437435310638, 0.42191356403744606, 0.5387238235537073, 0.7733448206192881]","[1013.2798028513212, 1518.2042994683432, 2274.736246038023, 3408.253415466666]",Perfect_5th,"[13.28722819198618, 16.09599889204023, 14.020284546888995, 9.0]",False,883.710733099957,886.2024545000168,886.2024545000168,887.4292404999724,['space'],1,3.2822554198792204,4.3148810198763385,None,1,None,1,,,[0.42535519995726645],,,,,tsbvqq,001,fr,0,0,2022-05-04_16h54.43.372,Cluster,2022.1.1,34.987042549916396,
,,,,6,0,6,0,10,0,10,0,,,frequency,,,,,,,,,,,,,,,,,,,,,,,,,,,,,,,,,,,,,,,,,,,,,,,,,,,,,,,,,,,,,,,,,,,,,,,,,,,,,,,,,,,,,,,,,,,,,,,,,,,,,,,,,,,,,,,,,,,888.0849478000309,None,1741.101126592249,15.0,0.0003549593748842735,1,"[0.6503821019316172, 0.603289219382455, 0.4869795150535852, 0.42964092762445005]","[690.9564399838887, 870.5505632961249, 1096.8249796946268, 1381.912879967777]",Major_3rd,"[19.338971386041575, 15.15034245042767, 13.279640519195809, 16.0]",False,890.6796661999542,893.4606138999807,893.4606138999807,894.669888000004,['space'],1,3.186062759719789,4.200952159706503,None,1,None,1,,,[0.2092055999673903],,,,,tsbvqq,001,fr,0,0,2022-05-04_16h54.43.372,Cluster,2022.1.1,34.987042549916396,
,,,,6,0,6,0,11,0,11,0,,,both,,,,,,,,,,,,,,,,,,,,,,,,,,,,,,,,,,,,,,,,,,,,,,,,,,,,,,,,,,,,,,,,,,,,,,,,,,,,,,,,,,,,,,,,,,,,,,,,,,,,,,,,,,,,,,,,,,,894.933550799964,None,435.2752816480623,17.0,0.0005292030719125924,1,"[0.49347806643953795, 0.49347806643953795, 0.49347806643953795, 0.49347806643953795]","[1096.8249796946266, 870.5505632961247, 690.9564399838885, 548.4124898473133]",Major_3rd,"[13.279640519195809, 15.15034245042767, 19.338971386041575, 22.963512851527405]",False,895.9352664999897,898.4568728000158,898.4568728000158,899.6743144999491,['space'],1,3.0113790098112077,4.047643009806052,None,1,None,1,,,[0.5317888000281528],,,,,tsbvqq,001,fr,0,0,2022-05-04_16h54.43.372,Cluster,2022.1.1,34.987042549916396,
,,,,6,0,6,0,12,0,12,0,,,frequency,,,,,,,,,,,,,,,,,,,,,,,,,,,,,,,,,,,,,,,,,,,,,,,,,,,,,,,,,,,,,,,,,,,,,,,,,,,,,,,,,,,,,,,,,,,,,,,,,,,,,,,,,,,,,,,,,,,900.0269055999815,None,,,,,"[0.4911770858540794, 0.622240262792685, 0.6022450929735168, 0.6645785804107697]","[723.0730989586028, 482.5933949840881, 322.092448491991, 214.97091848715925]",Perfect_5th,"[19.0, 25.0, 28.0, 17.765565160124222]",True,901.01973369997,903.7775068000192,903.7775068000192,904.9846981000155,None,1,3.4189721199218184,4.424290319904685,None,1,None,1,,0,,,,,,tsbvqq,001,fr,0,0,2022-05-04_16h54.43.372,Cluster,2022.1.1,34.987042549916396,
,,,,6,0,6,0,13,0,13,0,,,both,,,,,,,,,,,,,,,,,,,,,,,,,,,,,,,,,,,,,,,,,,,,,,,,,,,,,,,,,,,,,,,,,,,,,,,,,,,,,,,,,,,,,,,,,,,,,,,,,,,,,,,,,,,,,,,,,,,905.50341200002,None,342.76652505985084,23.0,0.001291238671596829,0,"[0.4693857333705862, 0.4693857333705862, 0.4693857333705862, 0.4693857333705862]","[1727.4350404888985, 1152.9245687672044, 769.4848316211325, 513.5695102136029]",Perfect_5th,"[15.259401909493146, 13.830957238324812, 18.0, 24.0]",False,906.4986723000184,908.9324100000085,908.9324100000085,910.1523319999687,None,0,2.9112225198186934,3.91802871983964,None,1,None,1,,,,,,,,tsbvqq,001,fr,0,0,2022-05-04_16h54.43.372,Cluster,2022.1.1,34.987042549916396,
,,,,6,0,6,0,14,0,14,0,,,none,,,,,,,,,,,,,,,,,,,,,,,,,,,,,,,,,,,,,,,,,,,,,,,,,,,,,,,,,,,,,,,,,,,,,,,,,,,,,,,,,,,,,,,,,,,,,,,,,,,,,,,,,,,,,,,,,,,910.4802369999234,None,347.5880431033856,23.782625608166118,0.00139363788121628,0,"[0.6941805829990643, 0.5458031252558184, 0.4875640593004365, 0.5772539738921617]","[1162.886335824997, 630.6462862207122, 183.34315086159768, 281.2515591393667]",None,"[14.0, 21.0, 16.72540755029058, 24.0]",False,911.4753553000046,914.221744599985,914.221744599985,915.4557148999302,None,0,3.340731719858013,4.376173719880171,None,1,['space'],0,[0.5296838999493048],,,,,,,tsbvqq,001,fr,0,0,2022-05-04_16h54.43.372,Cluster,2022.1.1,34.987042549916396,
