frequencies,training_trials.thisRepN,training_trials.thisTrialN,training_trials.thisN,training_trials.thisIndex,frequencies.thisRepN,frequencies.thisTrialN,frequencies.thisN,frequencies.thisIndex,trials.thisRepN,trials.thisTrialN,trials.thisN,trials.thisIndex,tFrequency,tLevel,tCorrect,Tprobe.started,Tprobe.stopped,tTriangle_cue.started,tTriangle_cue.stopped,Tfeedback.keys,Tfeedback.corr,Tfeedback.rt,Tfeedback.started,Tfeedback.stopped,reversals_nTrials.routineEndVal,track_dir.routineEndVal,step_up.routineEndVal,Correct,Frequency,Level,Psychopy_Level,Direction,Reversals,Track_dir,Step,probe.started,probe.stopped,cross_cue.started,cross_cue.stopped,circle_cue.started,circle_cue.stopped,triangle_cue.started,triangle_cue.stopped,feedback.keys,feedback.corr,feedback.rt,feedback.started,feedback.stopped,memo.started,memo.stopped,key_resp.keys,key_resp.rt,key_resp.started,key_resp.stopped,text.started,text.stopped,participant,session,skip_training,language (english or french),date,expName,psychopyVersion,frameRate,
1300,0,0,0,3,,,,,,,,,1300,30,up,37.05491186684618,None,None,None,up,1,1.93017499987036,35.55747319990769,None,,,,,,,,,,,,,,,,,,,,,,,,,,,,,,,,,eqdcwr,001,0,fr,2022-05-24_15h35.25.988,3-AFC_adaptive_staircase_mess,2022.1.1,None,
450,0,1,1,1,,,,,,,,,450,30,left,42.38236116670693,None,None,None,left,1,0.9592969999648631,41.92663939995691,None,,,,,,,,,,,,,,,,,,,,,,,,,,,,,,,,,eqdcwr,001,0,fr,2022-05-24_15h35.25.988,3-AFC_adaptive_staircase_mess,2022.1.1,None,
200,0,2,2,0,,,,,,,,,200,30,up,46.9651172669294,None,None,None,up,1,1.8941860999912024,45.49608340021223,None,,,,,,,,,,,,,,,,,,,,,,,,,,,,,,,,,eqdcwr,001,0,fr,2022-05-24_15h35.25.988,3-AFC_adaptive_staircase_mess,2022.1.1,None,
850,0,3,3,2,,,,,,,,,850,30,up,51.00356866658355,None,None,None,up,1,1.7599890995770693,49.526119799818844,None,,,,,,,,,,,,,,,,,,,,,,,,,,,,,,,,,eqdcwr,001,0,fr,2022-05-24_15h35.25.988,3-AFC_adaptive_staircase_mess,2022.1.1,None,
5000,0,4,4,4,,,,,,,,,5000,30,up,55.50206806656594,None,None,None,up,1,1.8036472997628152,54.04264899995178,None,,,,,,,,,,,,,,,,,,,,,,,,,,,,,,,,,eqdcwr,001,0,fr,2022-05-24_15h35.25.988,3-AFC_adaptive_staircase_mess,2022.1.1,None,
,,,,,0,0,0,0,0,0,0,0,,,,,,,,,,,,,[],[],10,up,1000,30,0.0013930605843148849,0,0,-1,10,72.76592676673705,None,71.75383180007339,72.08530060015619,72.74926010007039,73.08559660008177,None,None,up,1,1.3099383995868266,71.78382499981672,None,None,None,,,,,,,eqdcwr,001,0,fr,2022-05-24_15h35.25.988,3-AFC_adaptive_staircase_mess,2022.1.1,None,
,,,,,0,0,0,0,1,0,1,0,,,,,,,,,,,,,,,,left,1000,30,0.0013930605843148849,0,0,-1,10,74.65705396660293,None,74.6098183998838,74.94386010011658,None,None,None,None,left,1,0.44850129960104823,74.66910539986566,None,None,None,,,,,,,eqdcwr,001,0,fr,2022-05-24_15h35.25.988,3-AFC_adaptive_staircase_mess,2022.1.1,None,
,,,,,0,0,0,0,2,0,2,0,,,,,,,,,,,,,,,,up,1000,10,0.00013930605843148847,-1,0,-1,-10,77.66602636693666,None,76.63483510026708,76.969510700088,77.62086419994012,77.96066869981587,None,None,up,1,1.291293399874121,76.6665574000217,None,None,None,,,,,,,eqdcwr,001,0,fr,2022-05-24_15h35.25.988,3-AFC_adaptive_staircase_mess,2022.1.1,None,
,,,,,0,0,0,0,3,0,3,0,,,,,,,,,,,,,,,,up,1000,10,0.00013930605843148847,-1,0,-1,-10,80.50777126668642,None,79.46747299982235,79.79440669994801,80.45891699986532,80.80314079998061,None,None,up,1,1.324919399805367,79.49686670023948,None,None,None,,,,,,,eqdcwr,001,0,fr,2022-05-24_15h35.25.988,3-AFC_adaptive_staircase_mess,2022.1.1,None,
,,,,,0,0,0,0,4,0,4,0,,,,,,,,,,,,,,,,left,1000,0,4.405244365040069e-05,-1,0,-1,-10,82.36129176669444,None,82.34462510002777,82.67799950018525,83.33106919983402,83.66273700026795,None,None,up,0,1.3438820000737906,82.37435470009223,None,None,None,,,,,,,eqdcwr,001,0,fr,2022-05-24_15h35.25.988,3-AFC_adaptive_staircase_mess,2022.1.1,None,
,,,,,0,0,0,0,5,0,5,0,,,,,,,,,,,,,,,,left,1000,5,7.833755350540742e-05,1,1,1,5,85.27128266689057,None,85.22476499993354,85.56862210016698,None,None,None,None,left,1,0.4894154001958668,85.2846849001944,None,None,None,,,,,,,eqdcwr,001,0,fr,2022-05-24_15h35.25.988,3-AFC_adaptive_staircase_mess,2022.1.1,None,
,,,,,0,0,0,0,6,0,6,0,,,,,,,,,,,,,,,,right,1000,5,7.833755350540742e-05,1,1,1,5,None,None,87.28583100019023,87.61138480016962,88.26617470011115,88.60276910010725,89.26339086663599,None,up,0,1.9171271999366581,87.31466329982504,None,None,None,,,,,,,eqdcwr,001,0,fr,2022-05-24_15h35.25.988,3-AFC_adaptive_staircase_mess,2022.1.1,None,
,,,,,0,0,0,0,7,0,7,0,,,,,,,,,,,,,,,,up,1000,10,0.00013930605843148847,1,1,1,5,91.77446266689027,None,90.74949620012194,91.0851990999654,91.72778820013627,92.0643424000591,None,None,up,1,1.344530699774623,90.78128540003672,None,None,None,,,,,,,eqdcwr,001,0,fr,2022-05-24_15h35.25.988,3-AFC_adaptive_staircase_mess,2022.1.1,None,
,,,,,0,0,0,0,8,0,8,0,,,,,,,,,,,,,,,,right,1000,10,0.00013930605843148847,1,1,1,5,95.68641096685703,None,93.66193549986929,93.98982169991359,94.65262569999322,94.98708170000464,95.66974430019036,None,left,0,2.137750499881804,93.69205110007897,None,None,None,,,,,,,eqdcwr,001,0,fr,2022-05-24_15h35.25.988,3-AFC_adaptive_staircase_mess,2022.1.1,None,
,,,,,0,0,0,0,9,0,9,0,,,,,,,,,,,,,,,,right,1000,15,0.000247725095402395,1,1,1,5,None,None,97.38435420021415,None,None,None,None,None,right,1,-1.126482699997723,97.4439111999236,None,None,None,,,,,,,eqdcwr,001,0,fr,2022-05-24_15h35.25.988,3-AFC_adaptive_staircase_mess,2022.1.1,None,
,,,,,0,0,0,0,10,0,10,0,,,,,,,,,,,,,,,,right,1000,15,0.000247725095402395,1,1,1,5,100.98798286688204,None,98.95169680006802,99.27916039992124,99.95171590009704,100.2778994999826,100.93886710004881,101.28413690021262,right,1,2.296337299980223,98.98199959984049,None,None,None,,,,,,,eqdcwr,001,0,fr,2022-05-24_15h35.25.988,3-AFC_adaptive_staircase_mess,2022.1.1,None,
,,,,,0,0,0,0,11,0,11,0,,,,,,,,,,,,,,,,up,1000,5,7.833755350540742e-05,-1,2,-1,-5.0,103.83211416664223,None,102.79449980007485,103.1291646999307,103.78325679991394,104.12075420003384,None,None,up,1,1.4861462996341288,102.85575099987909,None,None,None,,,,,,,eqdcwr,001,0,fr,2022-05-24_15h35.25.988,3-AFC_adaptive_staircase_mess,2022.1.1,None,
,,,,,0,0,0,0,12,0,12,0,,,,,,,,,,,,,,,,up,1000,5,7.833755350540742e-05,-1,2,-1,-5.0,106.86731006676952,None,105.85057320026681,106.18407549988478,106.85064340010285,None,None,None,left,0,1.0464144996367395,105.87161769997329,None,None,None,,,,,,,eqdcwr,001,0,fr,2022-05-24_15h35.25.988,3-AFC_adaptive_staircase_mess,2022.1.1,None,
,,,,,0,0,0,0,13,0,13,0,,,,,,,,,,,,,,,,up,1000,7.5,0.00010446480654270194,1,3,1,2.5,109.49460986681903,None,108.46363000012934,108.79303879989311,109.44785699993372,109.78638100018725,None,None,up,1,1.4645961998030543,108.4936473001726,None,None,None,,,,,,,eqdcwr,001,0,fr,2022-05-24_15h35.25.988,3-AFC_adaptive_staircase_mess,2022.1.1,None,
,,,,,0,0,0,0,14,0,14,0,,,,,,,,,,,,,,,,left,1000,7.5,0.00010446480654270194,1,3,1,2.5,111.50349536684031,None,111.45682730013505,111.79212430026382,None,None,None,None,left,1,0.4804930998943746,111.51770320022479,None,None,None,,,,,,,eqdcwr,001,0,fr,2022-05-24_15h35.25.988,3-AFC_adaptive_staircase_mess,2022.1.1,None,
,,,,,0,0,0,0,15,0,15,0,,,,,,,,,,,,,,,,left,1000,2.5,5.874487774697646e-05,-1,4,-1,-5.0,113.54454316670696,None,113.49918790021911,113.83544360008091,None,None,None,None,left,1,0.5928767998702824,113.55742840003222,None,None,None,,,,,,,eqdcwr,001,0,fr,2022-05-24_15h35.25.988,3-AFC_adaptive_staircase_mess,2022.1.1,None,
,,,,,0,0,0,0,16,0,16,0,,,,,,,,,,,,,,,,right,1000,2.5,5.874487774697646e-05,-1,4,-1,-5.0,117.70171766687805,None,115.66625439980999,115.99493410019204,116.64301870018244,116.97688930016011,117.65230539999902,117.992386800237,right,1,2.279574000276625,115.69503099983558,None,None,None,,,,,,,eqdcwr,001,0,fr,2022-05-24_15h35.25.988,3-AFC_adaptive_staircase_mess,2022.1.1,None,
,,,,,0,0,0,0,17,0,17,0,,,,,,,,,,,,,,,,right,1000,-2.5,3.303467240037979e-05,-1,4,-1,-5.0,121.534220466918,None,119.51061609992757,119.84007989987731,120.52131009986624,120.8532461002469,121.49712909990922,121.83140140026808,right,1,4.448706499766558,119.54104290017858,None,122.04237300017849,None,,,,,,,eqdcwr,001,0,fr,2022-05-24_15h35.25.988,3-AFC_adaptive_staircase_mess,2022.1.1,None,
,,,,,0,0,0,0,18,0,18,0,,,,,,,,,,,,,,,,left,1000,-2.5,3.303467240037979e-05,-1,4,-1,-5.0,125.56097406667347,None,125.51438269997016,125.8478471999988,126.52252830006182,126.8488110001199,127.52396509982646,127.85126269981265,right,0,5.9930961998179555,125.57280809991062,None,128.06431310018525,None,,,,,,,eqdcwr,001,0,fr,2022-05-24_15h35.25.988,3-AFC_adaptive_staircase_mess,2022.1.1,None,
,,,,,0,0,0,0,19,0,19,0,,,,,,,,,,,,,,,,left,1000,0.0,4.405244365040069e-05,1,5,1,2.5,133.0979353665064,None,133.0812686998397,133.41559390025213,134.07530720019713,134.4006610000506,135.08696989994496,135.4158553001471,right,0,2.823163399938494,133.11086549982429,None,135.6239359001629,None,,,,,,,eqdcwr,001,0,fr,2022-05-24_15h35.25.988,3-AFC_adaptive_staircase_mess,2022.1.1,None,
,,,,,0,0,0,0,20,0,20,0,,,,,,,,,,,,,,,,up,1000,2.5,5.874487774697646e-05,1,5,1,2.5,138.51930356683832,None,137.4697894002311,137.79422240005806,138.4702639998868,138.8039653999731,None,None,up,1,1.566302299965173,137.52732340013608,None,None,None,,,,,,,eqdcwr,001,0,fr,2022-05-24_15h35.25.988,3-AFC_adaptive_staircase_mess,2022.1.1,None,
,,,,,0,0,0,0,21,0,21,0,,,,,,,,,,,,,,,,right,1000,2.5,5.874487774697646e-05,1,5,1,2.5,None,None,140.61377190006897,140.93894900009036,None,None,None,None,left,0,0.7828349997289479,140.67078359983861,None,None,None,,,,,,,eqdcwr,001,0,fr,2022-05-24_15h35.25.988,3-AFC_adaptive_staircase_mess,2022.1.1,None,
,,,,,0,0,0,0,22,0,22,0,,,,,,,,,,,,,,,,left,1000,5.0,7.833755350540742e-05,1,5,1,2.5,143.0038523665319,None,142.98718569986522,143.3212978998199,None,None,None,None,left,1,0.5497594997286797,143.0080038998276,None,None,None,,,,,,,eqdcwr,001,0,fr,2022-05-24_15h35.25.988,3-AFC_adaptive_staircase_mess,2022.1.1,None,
,,,,,0,0,0,0,23,0,23,0,,,,,,,,,,,,,,,,left,1000,5.0,7.833755350540742e-05,1,5,1,2.5,145.11071796674904,145.34000100009143,145.06059919996187,145.4034941000864,None,None,None,None,left,1,0.4135023998096585,145.12813939992338,None,None,None,,,,,,,eqdcwr,001,0,fr,2022-05-24_15h35.25.988,3-AFC_adaptive_staircase_mess,2022.1.1,None,
,,,,,0,0,0,0,24,0,24,0,,,,,,,,,,,,,,,,left,1000,0.0,4.405244365040069e-05,-1,6,-1,-5.0,147.09234376677003,None,147.07567710010335,147.38806900009513,None,None,None,None,left,1,0.3643617001362145,147.10550330020487,None,None,None,,,,,,,eqdcwr,001,0,fr,2022-05-24_15h35.25.988,3-AFC_adaptive_staircase_mess,2022.1.1,None,
,,,,,1,0,1,0,0,0,0,0,,,,,,,,,,,,,[],[],10,up,1500,30,0.001527460556607757,0,0,-1,10,151.96580706682678,None,150.92207180010155,151.24755069985986,151.919898299966,152.25302600022405,None,None,up,1,1.3836975996382535,150.9830152001232,None,None,None,left,1.8918115003034472,148.530100800097,None,148.530100800097,None,eqdcwr,001,0,fr,2022-05-24_15h35.25.988,3-AFC_adaptive_staircase_mess,2022.1.1,None,
,,,,,1,0,1,0,1,0,1,0,,,,,,,,,,,,,,,,up,1500,30,0.001527460556607757,0,0,-1,10,154.9184271665911,None,153.88573550013825,154.22243570024148,154.90176049992442,155.24399989983067,None,None,up,1,1.2821011999621987,153.95570959988981,None,None,None,,,,,,,eqdcwr,001,0,fr,2022-05-24_15h35.25.988,3-AFC_adaptive_staircase_mess,2022.1.1,None,
,,,,,1,0,1,0,2,0,2,0,,,,,,,,,,,,,,,,right,1500,10,0.0001527460556607757,-1,0,-1,-10,158.79958946683135,None,156.75608160020784,157.08974169986323,157.74791250005364,158.07398780016229,158.75285119982436,159.0827501998283,right,1,2.331925299949944,156.82610179996118,None,None,None,,,,,,,eqdcwr,001,0,fr,2022-05-24_15h35.25.988,3-AFC_adaptive_staircase_mess,2022.1.1,None,
,,,,,1,0,1,0,3,0,3,0,,,,,,,,,,,,,,,,left,1500,10,0.0001527460556607757,-1,0,-1,-10,160.71817156678688,None,160.65940310014412,160.981905200053,None,None,None,None,left,1,0.443440199829638,160.72997870016843,None,None,None,,,,,,,eqdcwr,001,0,fr,2022-05-24_15h35.25.988,3-AFC_adaptive_staircase_mess,2022.1.1,None,
,,,,,1,0,1,0,4,0,4,0,,,,,,,,,,,,,,,,left,1500,0,4.830254394949071e-05,-1,0,-1,-10,162.73067036649834,None,162.71400369983166,163.04655520012602,None,None,None,None,left,1,0.7185184000991285,162.74320749985054,None,None,None,,,,,,,eqdcwr,001,0,fr,2022-05-24_15h35.25.988,3-AFC_adaptive_staircase_mess,2022.1.1,None,
,,,,,1,0,1,0,5,0,5,0,,,,,,,,,,,,,,,,left,1500,0,4.830254394949071e-05,-1,0,-1,-10,165.0238793665233,None,165.0072126998566,165.34770350018516,None,None,None,None,left,1,0.7386177000589669,165.03543219994754,None,None,None,,,,,,,eqdcwr,001,0,fr,2022-05-24_15h35.25.988,3-AFC_adaptive_staircase_mess,2022.1.1,None,
,,,,,1,0,1,0,6,0,6,0,,,,,,,,,,,,,,,,up,1500,-10,1.527460556607758e-05,-1,0,-1,-10,168.3317088666993,None,167.30577920004725,167.63762409985065,168.31504220003262,168.6492894999683,169.304425700102,169.63383980002254,left,0,2.9358655996620655,167.36574300006032,None,169.86996209993958,None,,,,,,,eqdcwr,001,0,fr,2022-05-24_15h35.25.988,3-AFC_adaptive_staircase_mess,2022.1.1,None,
,,,,,1,0,1,0,7,0,7,0,,,,,,,,,,,,,,,,left,1500,-5,2.716251657462168e-05,1,1,1,5,171.8624791666555,None,171.8024217998609,172.12493740022182,172.82042000023648,173.13715930003673,173.81384730013087,174.15230560023338,left,1,4.347585199866444,171.87376599991694,None,174.35994970006868,None,,,,,,,eqdcwr,001,0,fr,2022-05-24_15h35.25.988,3-AFC_adaptive_staircase_mess,2022.1.1,None,
,,,,,1,0,1,0,8,0,8,0,,,,,,,,,,,,,,,,left,1500,-5,2.716251657462168e-05,1,1,1,5,177.73887366668012,None,177.72220700001344,178.04423899995163,178.69997780025005,179.0197584000416,179.72264399984851,180.0354436999187,up,0,3.8245709002949297,177.74112519994378,None,180.26318310014904,None,,,,,,,eqdcwr,001,0,fr,2022-05-24_15h35.25.988,3-AFC_adaptive_staircase_mess,2022.1.1,None,
,,,,,1,0,1,0,9,0,9,0,,,,,,,,,,,,,,,,up,1500,0,4.830254394949071e-05,1,1,1,5,184.11786396667983,184.3481940999627,183.06763349985704,183.39799860026687,184.0693783001043,184.41011539986357,185.08069900004193,185.40324820019305,right,0,3.0636356002651155,183.13321859994903,None,185.60379090020433,None,,,,,,,eqdcwr,001,0,fr,2022-05-24_15h35.25.988,3-AFC_adaptive_staircase_mess,2022.1.1,None,
,,,,,1,0,1,0,10,0,10,0,,,,,,,,,,,,,,,,left,1500,5,8.589541935787943e-05,1,1,1,5,187.77265476674464,None,187.72716999985278,188.0737417000346,188.73747810022905,189.07350479997694,189.72244299994782,190.04021820006892,up,0,3.650178600102663,187.78818710008636,None,190.28437090013176,None,,,,,,,eqdcwr,001,0,fr,2022-05-24_15h35.25.988,3-AFC_adaptive_staircase_mess,2022.1.1,None,
,,,,,1,0,1,0,11,0,11,0,,,,,,,,,,,,,,,,right,1500,10,0.0001527460556607757,1,1,1,5,194.9757637666228,None,192.94260809989646,193.2572874999605,193.95790670020506,194.28701440012082,194.95909709995613,195.28682960011065,right,1,2.4398986999876797,192.99044860014692,None,None,None,,,,,,,eqdcwr,001,0,fr,2022-05-24_15h35.25.988,3-AFC_adaptive_staircase_mess,2022.1.1,None,
,,,,,1,0,1,0,12,0,12,0,,,,,,,,,,,,,,,,up,1500,10,0.0001527460556607757,1,1,1,5,197.98247186659526,None,196.96469089994207,197.2928609000519,197.96580519992858,198.29497520020232,None,None,up,1,1.6986576998606324,196.99494529981166,None,None,None,,,,,,,eqdcwr,001,0,fr,2022-05-24_15h35.25.988,3-AFC_adaptive_staircase_mess,2022.1.1,None,
,,,,,1,0,1,0,13,0,13,0,,,,,,,,,,,,,,,,right,1500,0,4.830254394949071e-05,-1,2,-1,-5.0,202.24232046684872,None,200.18612009985372,200.51510640000924,201.2114380998537,201.54738030023873,202.1972558000125,202.52194770006463,up,0,3.966615399811417,200.23060370003805,None,202.7483852999285,None,,,,,,,eqdcwr,001,0,fr,2022-05-24_15h35.25.988,3-AFC_adaptive_staircase_mess,2022.1.1,None,
,,,,,1,0,1,0,14,0,14,0,,,,,,,,,,,,,,,,left,1500,2.5,6.441247758465671e-05,1,3,1,2.5,205.76074206649017,205.97928379988298,205.7047954001464,206.03403950016946,206.73159130010754,207.07343439990655,207.71009659999982,208.02094089984894,up,0,3.745975600089878,205.77164300018921,None,208.2741403998807,None,,,,,,,eqdcwr,001,0,fr,2022-05-24_15h35.25.988,3-AFC_adaptive_staircase_mess,2022.1.1,None,
,,,,,1,0,1,0,15,0,15,0,,,,,,,,,,,,,,,,left,1500,5.0,8.589541935787943e-05,1,3,1,2.5,211.06036766671266,None,211.04370100004598,211.3826025002636,None,None,None,None,left,1,0.5764718996360898,211.06930050021037,None,None,None,,,,,,,eqdcwr,001,0,fr,2022-05-24_15h35.25.988,3-AFC_adaptive_staircase_mess,2022.1.1,None,
,,,,,1,0,1,0,16,0,16,0,,,,,,,,,,,,,,,,left,1500,5.0,8.589541935787943e-05,1,3,1,2.5,213.21260826668393,None,213.16686169989407,213.49925679992884,None,None,None,None,left,1,0.474437799770385,213.22742239991203,None,None,None,,,,,,,eqdcwr,001,0,fr,2022-05-24_15h35.25.988,3-AFC_adaptive_staircase_mess,2022.1.1,None,
,,,,,1,0,1,0,17,0,17,0,,,,,,,,,,,,,,,,right,1500,0.0,4.830254394949071e-05,-1,4,-1,-5.0,None,None,215.23275709990412,215.5830280999653,216.2156404000707,216.52895329985768,None,None,up,0,1.703660000115633,215.26231699995697,None,None,None,,,,,,,eqdcwr,001,0,fr,2022-05-24_15h35.25.988,3-AFC_adaptive_staircase_mess,2022.1.1,None,
,,,,,1,0,1,0,18,0,18,0,,,,,,,,,,,,,,,,right,1500,2.5,6.441247758465671e-05,1,5,1,2.5,220.53899556684,None,218.5259805000387,218.87296950025484,219.51743619982153,219.83387080021203,220.5223289001733,220.8523817001842,up,0,2.963656799867749,218.55464040022343,None,221.05665990011767,None,,,,,,,eqdcwr,001,0,fr,2022-05-24_15h35.25.988,3-AFC_adaptive_staircase_mess,2022.1.1,None,
,,,,,1,0,1,0,19,0,19,0,,,,,,,,,,,,,,,,left,1500,5.0,8.589541935787943e-05,1,5,1,2.5,223.08940716652822,None,223.07274049986154,223.40678850002587,None,None,None,None,left,1,0.7103664996102452,223.10381900006905,None,None,None,,,,,,,eqdcwr,001,0,fr,2022-05-24_15h35.25.988,3-AFC_adaptive_staircase_mess,2022.1.1,None,
,,,,,1,0,1,0,20,0,20,0,,,,,,,,,,,,,,,,left,1500,5.0,8.589541935787943e-05,1,5,1,2.5,225.37677236652624,None,225.32875820016488,225.63881690008566,None,None,None,None,left,1,0.6359174000099301,225.38633330026641,None,None,None,,,,,,,eqdcwr,001,0,fr,2022-05-24_15h35.25.988,3-AFC_adaptive_staircase_mess,2022.1.1,None,
,,,,,1,0,1,0,21,0,21,0,,,,,,,,,,,,,,,,right,1500,0.0,4.830254394949071e-05,-1,6,-1,-5.0,229.55184776668128,229.77677450003102,227.53416060004383,227.84876450011507,228.5252111000009,228.84120120014995,229.5351811000146,229.8596286000684,up,0,5.595680999569595,227.56236169999465,None,230.08942350000143,None,,,,,,,eqdcwr,001,0,fr,2022-05-24_15h35.25.988,3-AFC_adaptive_staircase_mess,2022.1.1,None,
,,,,,2,0,2,0,0,0,0,0,,,,,,,,,,,,,[],[],10,right,2000,30,0.0023657562948074026,0,0,-1,10,239.16430416662868,None,237.14188770018518,237.45408640010282,238.1305622998625,238.4432171001099,239.147637499962,239.46217590011656,right,1,2.505531699862331,237.19691940024495,None,239.68628060026094,None,up,2.428611199837178,234.2333368002437,None,234.2333368002437,None,eqdcwr,001,0,fr,2022-05-24_15h35.25.988,3-AFC_adaptive_staircase_mess,2022.1.1,None,
,,,,,2,0,2,0,1,0,1,0,,,,,,,,,,,,,,,,up,2000,30,0.0023657562948074026,0,0,-1,10,242.26042016648378,None,241.22608170006424,241.54290190013126,242.21694369986653,242.56328110024333,None,None,up,1,1.4163764999248087,241.28509399993345,None,None,None,,,,,,,eqdcwr,001,0,fr,2022-05-24_15h35.25.988,3-AFC_adaptive_staircase_mess,2022.1.1,None,
,,,,,2,0,2,0,2,0,2,0,,,,,,,,,,,,,,,,right,2000,10,0.00023657562948074026,-1,0,-1,-10,246.26389686676364,246.47893849993125,244.19887930015102,244.5118652000092,245.23169590020552,245.55372230010107,246.21732529997826,246.53254709998146,right,1,2.4141476000659168,244.25612899987027,None,None,None,,,,,,,eqdcwr,001,0,fr,2022-05-24_15h35.25.988,3-AFC_adaptive_staircase_mess,2022.1.1,None,
,,,,,2,0,2,0,3,0,3,0,,,,,,,,,,,,,,,,right,2000,10,0.00023657562948074026,-1,0,-1,-10,250.23109946685534,250.44954119995236,248.19620910007507,248.50841209990904,249.17929479992017,249.48975249985233,250.18556369980797,250.50343179982156,right,1,2.3138877996243536,248.22732939990237,None,None,None,,,,,,,eqdcwr,001,0,fr,2022-05-24_15h35.25.988,3-AFC_adaptive_staircase_mess,2022.1.1,None,
,,,,,2,0,2,0,4,0,4,0,,,,,,,,,,,,,,,,left,2000,0,7.481178280472168e-05,-1,0,-1,-10,252.09400376683723,252.3194710998796,252.07733710017055,252.40156179992482,253.08218460017815,253.39952709991485,254.06675089988858,254.40716970013455,up,0,3.460576199926436,252.10484819998965,None,254.63453879998997,None,,,,,,,eqdcwr,001,0,fr,2022-05-24_15h35.25.988,3-AFC_adaptive_staircase_mess,2022.1.1,None,
,,,,,2,0,2,0,5,0,5,0,,,,,,,,,,,,,,,,up,2000,5,0.0001330362529899405,1,1,1,5,258.09879186662533,None,257.0739409998059,257.4074849002063,258.0513834999874,258.38739639986306,None,None,up,1,1.4541263999417424,257.10465779993683,None,None,None,,,,,,,eqdcwr,001,0,fr,2022-05-24_15h35.25.988,3-AFC_adaptive_staircase_mess,2022.1.1,None,
,,,,,2,0,2,0,6,0,6,0,,,,,,,,,,,,,,,,right,2000,5,0.0001330362529899405,1,1,1,5,262.1004522666956,262.3255803999491,260.07886460004374,260.3944010999985,261.0968571002595,261.41532400017604,262.08378560002893,262.4186061001383,right,1,2.393561599776149,260.12455910025164,None,None,None,,,,,,,eqdcwr,001,0,fr,2022-05-24_15h35.25.988,3-AFC_adaptive_staircase_mess,2022.1.1,None,
,,,,,2,0,2,0,7,0,7,0,,,,,,,,,,,,,,,,left,2000,-5,4.206975708225974e-05,-1,2,-1,-5.0,264.1089386665883,None,264.06125169992447,264.3836324000731,265.06815750012174,265.4194527999498,266.0868055000901,266.4211075999774,right,0,4.003318199887872,264.1224525999278,None,266.6224155998789,None,,,,,,,eqdcwr,001,0,fr,2022-05-24_15h35.25.988,3-AFC_adaptive_staircase_mess,2022.1.1,None,
,,,,,2,0,2,0,8,0,8,0,,,,,,,,,,,,,,,,right,2000,-2.5,5.610092271509818e-05,1,3,1,2.5,271.6782975667777,None,269.65525839990005,269.97502150014043,270.6542309001088,270.9907188001089,271.66163090011105,271.9996171002276,up,0,3.0923092998564243,269.7212220001966,None,272.22469750000164,None,,,,,,,eqdcwr,001,0,fr,2022-05-24_15h35.25.988,3-AFC_adaptive_staircase_mess,2022.1.1,None,
,,,,,2,0,2,0,9,0,9,0,,,,,,,,,,,,,,,,right,2000,0.0,7.481178280472168e-05,1,3,1,2.5,None,None,274.32856190018356,274.6621214998886,275.35881630005315,None,None,None,left,0,0.9710334995761514,274.3951997002587,None,None,None,,,,,,,eqdcwr,001,0,fr,2022-05-24_15h35.25.988,3-AFC_adaptive_staircase_mess,2022.1.1,None,
,,,,,2,0,2,0,10,0,10,0,,,,,,,,,,,,,,,,right,2000,2.5,9.976311574844399e-05,1,3,1,2.5,278.9341333667437,None,276.8964312002063,277.23079719999805,277.8984027002007,278.23386979987845,278.8873876002617,279.20415539992973,right,1,2.9232883998192847,276.9627429000102,None,279.46790800010785,None,,,,,,,eqdcwr,001,0,fr,2022-05-24_15h35.25.988,3-AFC_adaptive_staircase_mess,2022.1.1,None,
,,,,,2,0,2,0,11,0,11,0,,,,,,,,,,,,,,,,up,2000,2.5,9.976311574844399e-05,1,3,1,2.5,282.44771396654346,None,281.3997837002389,281.7347567002289,282.3995436998084,282.7401870000176,None,None,up,1,1.7703687995672226,281.4669045000337,None,None,None,,,,,,,eqdcwr,001,0,fr,2022-05-24_15h35.25.988,3-AFC_adaptive_staircase_mess,2022.1.1,None,
,,,,,2,0,2,0,12,0,12,0,,,,,,,,,,,,,,,,left,2000,-2.5,5.610092271509818e-05,-1,4,-1,-5.0,284.8031180669243,None,284.7584294001572,285.10521510010585,285.77258299989626,286.1065191999078,286.77249839995056,287.1056186002679,up,0,3.272748399991542,284.8149135001004,None,287.32789559988305,None,,,,,,,eqdcwr,001,0,fr,2022-05-24_15h35.25.988,3-AFC_adaptive_staircase_mess,2022.1.1,None,
,,,,,2,0,2,0,13,0,13,0,,,,,,,,,,,,,,,,left,2000,0.0,7.481178280472168e-05,1,5,1,2.5,289.6632942665058,None,289.61398490006104,289.96113270008937,290.6113976002671,290.94591719983146,291.6078424002044,291.9265187000856,up,0,3.627439699601382,289.68252479983494,None,292.18124110018834,None,,,,,,,eqdcwr,001,0,fr,2022-05-24_15h35.25.988,3-AFC_adaptive_staircase_mess,2022.1.1,None,
,,,,,2,0,2,0,14,0,14,0,,,,,,,,,,,,,,,,right,2000,2.5,9.976311574844399e-05,1,5,1,2.5,296.8609648668828,None,294.8190329000354,295.14716649986804,295.8120581000112,296.14662270015106,296.8127040998079,297.15048049995676,right,1,2.6769832000136375,294.8807736001909,None,297.3754634000361,None,,,,,,,eqdcwr,001,0,fr,2022-05-24_15h35.25.988,3-AFC_adaptive_staircase_mess,2022.1.1,None,
,,,,,2,0,2,0,15,0,15,0,,,,,,,,,,,,,,,,up,2000,2.5,9.976311574844399e-05,1,5,1,2.5,300.10483066650727,None,299.05486509995535,299.3881435999647,300.05317800026387,300.3948229001835,None,None,right,0,1.5488901999779046,299.12084300024435,None,None,None,,,,,,,eqdcwr,001,0,fr,2022-05-24_15h35.25.988,3-AFC_adaptive_staircase_mess,2022.1.1,None,
,,,,,2,0,2,0,16,0,16,0,,,,,,,,,,,,,,,,right,2000,5.0,0.0001330362529899405,1,5,1,2.5,None,None,302.1893254001625,None,None,None,None,None,up,0,-1.4907039999961853,302.25625149998814,None,None,None,,,,,,,eqdcwr,001,0,fr,2022-05-24_15h35.25.988,3-AFC_adaptive_staircase_mess,2022.1.1,None,
,,,,,2,0,2,0,17,0,17,0,,,,,,,,,,,,,,,,right,2000,7.5,0.00017740669461678777,1,5,1,2.5,305.8160220669272,306.04330090014264,303.7585909999907,304.09593670023605,304.76161330007017,305.0966318999417,305.7661995999515,306.10282600019127,right,1,2.4997158995829523,303.82617759983987,None,306.3315134001896,None,,,,,,,eqdcwr,001,0,fr,2022-05-24_15h35.25.988,3-AFC_adaptive_staircase_mess,2022.1.1,None,
,,,,,2,0,2,0,18,0,18,0,,,,,,,,,,,,,,,,left,2000,7.5,0.00017740669461678777,1,5,1,2.5,307.85896496667215,None,307.8422983000055,308.16405230015516,None,None,None,None,left,1,0.6128532998263836,307.87386739999056,None,None,None,,,,,,,eqdcwr,001,0,fr,2022-05-24_15h35.25.988,3-AFC_adaptive_staircase_mess,2022.1.1,None,
,,,,,2,0,2,0,19,0,19,0,,,,,,,,,,,,,,,,right,2000,2.5,9.976311574844399e-05,-1,6,-1,-5.0,312.0456956667515,None,309.99918340006843,310.3408221998252,310.99078720016405,311.3343099001795,311.9954659999348,312.3383597000502,right,1,2.479021199978888,310.0631963000633,None,312.5539273000322,None,,,,,,,eqdcwr,001,0,fr,2022-05-24_15h35.25.988,3-AFC_adaptive_staircase_mess,2022.1.1,None,
,,,,,3,0,3,0,0,0,0,0,,,,,,,,,,,,,[],[],10,right,3000,30,0.001733684252262658,0,0,-1,10,316.99141806649664,317.2150485999882,314.9462739001028,315.2721220999956,315.9693379998207,316.30199920013547,316.97475139983,317.305515000131,right,1,2.294273499865085,315.007473600097,None,None,None,left,0.8448656001128256,313.6333314999938,None,313.6333314999938,None,eqdcwr,001,0,fr,2022-05-24_15h35.25.988,3-AFC_adaptive_staircase_mess,2022.1.1,None,
,,,,,3,0,3,0,1,0,1,0,,,,,,,,,,,,,,,,left,3000,30,0.001733684252262658,0,0,-1,10,318.8288824665981,None,318.81221579993144,319.1523337000981,None,None,None,None,left,1,0.35925749968737364,318.8474830002524,None,None,None,,,,,,,eqdcwr,001,0,fr,2022-05-24_15h35.25.988,3-AFC_adaptive_staircase_mess,2022.1.1,None,
,,,,,3,0,3,0,2,0,2,0,,,,,,,,,,,,,,,,right,3000,10,0.00017336842522626576,-1,0,-1,-10,322.7574324669006,322.98646919988096,320.71629559993744,321.0391857000068,321.7235187999904,322.0392991001718,322.74076580023393,323.07825679983944,right,1,2.290370099712163,320.7788492999971,None,None,None,,,,,,,eqdcwr,001,0,fr,2022-05-24_15h35.25.988,3-AFC_adaptive_staircase_mess,2022.1.1,None,
,,,,,3,0,3,0,3,0,3,0,,,,,,,,,,,,,,,,up,3000,10,0.00017336842522626576,-1,0,-1,-10,325.6070887665885,None,324.5702499002218,324.9110579001717,325.59042209992185,325.9100921000354,None,None,up,1,1.3579788999632,324.63171550026163,None,None,None,,,,,,,eqdcwr,001,0,fr,2022-05-24_15h35.25.988,3-AFC_adaptive_staircase_mess,2022.1.1,None,
,,,,,3,0,3,0,4,0,4,0,,,,,,,,,,,,,,,,up,3000,0,5.482390980715923e-05,-1,0,-1,-10,328.5621184665399,None,327.51369460020214,327.843969900161,328.5128385000862,328.85649920022115,None,None,up,1,1.5216379999183118,327.579776099883,None,None,None,,,,,,,eqdcwr,001,0,fr,2022-05-24_15h35.25.988,3-AFC_adaptive_staircase_mess,2022.1.1,None,
,,,,,3,0,3,0,5,0,5,0,,,,,,,,,,,,,,,,up,3000,0,5.482390980715923e-05,-1,0,-1,-10,331.6405343665431,331.8625439000316,330.61322470009327,330.95537840016186,331.6238676998764,331.955273500178,None,None,up,1,1.368686500005424,330.67748739989474,None,None,None,,,,,,,eqdcwr,001,0,fr,2022-05-24_15h35.25.988,3-AFC_adaptive_staircase_mess,2022.1.1,None,
,,,,,3,0,3,0,6,0,6,0,,,,,,,,,,,,,,,,right,3000,-10,1.7336842522626584e-05,-1,0,-1,-10,335.6035995665627,None,333.5574031001888,333.87155940011144,334.5679903998971,334.88440479990095,335.5556067000143,335.8960735001601,up,0,2.6604466000571847,333.61785440007225,None,336.1113885999657,None,,,,,,,eqdcwr,001,0,fr,2022-05-24_15h35.25.988,3-AFC_adaptive_staircase_mess,2022.1.1,None,
,,,,,3,0,3,0,7,0,7,0,,,,,,,,,,,,,,,,right,3000,-5,3.082975009307411e-05,1,1,1,5,339.8237025668534,None,337.7890209001489,338.1153555000201,338.79447440011427,339.1057062000036,339.80703590018675,340.12833000021055,right,1,2.3752963999286294,337.8550344002433,None,None,None,,,,,,,eqdcwr,001,0,fr,2022-05-24_15h35.25.988,3-AFC_adaptive_staircase_mess,2022.1.1,None,
,,,,,3,0,3,0,8,0,8,0,,,,,,,,,,,,,,,,left,3000,-5,3.082975009307411e-05,1,1,1,5,341.80890996667245,None,341.7587778000161,342.10264489986,342.7623359002173,343.0964295002632,343.76279019983485,344.09538449998945,up,0,4.300544099882245,341.82587439985946,None,344.320677800104,None,,,,,,,eqdcwr,001,0,fr,2022-05-24_15h35.25.988,3-AFC_adaptive_staircase_mess,2022.1.1,None,
,,,,,3,0,3,0,9,0,9,0,,,,,,,,,,,,,,,,right,3000,0,5.482390980715923e-05,1,1,1,5,349.6762585668514,None,347.6436294000596,347.95658460026607,348.6252685999498,348.93718370003626,349.62722160015255,349.9678330998868,left,0,2.3115317998453975,347.670647200197,None,None,None,,,,,,,eqdcwr,001,0,fr,2022-05-24_15h35.25.988,3-AFC_adaptive_staircase_mess,2022.1.1,None,
,,,,,3,0,3,0,10,0,10,0,,,,,,,,,,,,,,,,left,3000,5,9.749222998790222e-05,1,1,1,5,351.55048036674657,None,351.5011863000691,351.84444139990956,None,None,None,None,left,1,0.4955687001347542,351.56634070025757,None,None,None,,,,,,,eqdcwr,001,0,fr,2022-05-24_15h35.25.988,3-AFC_adaptive_staircase_mess,2022.1.1,None,
,,,,,3,0,3,0,11,0,11,0,,,,,,,,,,,,,,,,right,3000,5,9.749222998790222e-05,1,1,1,5,355.6488242666858,None,353.6123215002008,353.92698170011863,354.59331570006907,354.9328363002278,355.60286490013823,355.940998500213,right,1,2.3840745999477804,353.6455117999576,None,None,None,,,,,,,eqdcwr,001,0,fr,2022-05-24_15h35.25.988,3-AFC_adaptive_staircase_mess,2022.1.1,None,
,,,,,3,0,3,0,12,0,12,0,,,,,,,,,,,,,,,,up,3000,-5,3.082975009307411e-05,-1,2,-1,-5.0,358.60149726650366,None,357.54428259981796,357.85711489990354,358.5518665998243,358.88540480006486,359.5481495000422,359.88448380026966,left,0,5.590528899803758,357.60811869986355,None,360.1032067001797,None,,,,,,,eqdcwr,001,0,fr,2022-05-24_15h35.25.988,3-AFC_adaptive_staircase_mess,2022.1.1,None,
,,,,,3,0,3,0,13,0,13,0,,,,,,,,,,,,,,,,up,3000,-2.5,4.1112132497353565e-05,1,3,1,2.5,365.77472676668935,None,364.74870719993487,365.08842380018905,365.7236717999913,366.064286199864,None,None,up,1,1.5686808000318706,364.78046459984034,None,None,None,,,,,,,eqdcwr,001,0,fr,2022-05-24_15h35.25.988,3-AFC_adaptive_staircase_mess,2022.1.1,None,
,,,,,3,0,3,0,14,0,14,0,,,,,,,,,,,,,,,,right,3000,-2.5,4.1112132497353565e-05,1,3,1,2.5,369.8806295665602,None,367.85521289985627,368.17620619991794,368.86634129984304,369.1856925999746,369.8639628998935,370.196215600241,right,1,2.4443120998330414,367.9134403001517,None,370.3863841668392,None,,,,,,,eqdcwr,001,0,fr,2022-05-24_15h35.25.988,3-AFC_adaptive_staircase_mess,2022.1.1,None,
,,,,,3,0,3,0,15,0,15,0,,,,,,,,,,,,,,,,up,3000,-7.5,2.3119051069963017e-05,-1,4,-1,-5.0,372.9134747665996,None,371.87230469984934,372.19527280004695,372.86927369982004,373.19949669996276,373.87620950024575,374.20519539993256,right,0,2.867665199562907,371.9300462999381,None,374.432935600169,None,,,,,,,eqdcwr,001,0,fr,2022-05-24_15h35.25.988,3-AFC_adaptive_staircase_mess,2022.1.1,None,
,,,,,3,0,3,0,16,0,16,0,,,,,,,,,,,,,,,,right,3000,-5.0,3.082975009307411e-05,1,5,1,2.5,378.3549785665857,None,376.29995989985764,376.6222463999875,377.32444040011615,377.64486490003765,378.31099449982867,378.6407969999127,right,1,2.621621999889612,376.359354800079,None,378.87245120014995,None,,,,,,,eqdcwr,001,0,fr,2022-05-24_15h35.25.988,3-AFC_adaptive_staircase_mess,2022.1.1,None,
,,,,,3,0,3,0,17,0,17,0,,,,,,,,,,,,,,,,right,3000,-5.0,3.082975009307411e-05,1,5,1,2.5,382.5370660666997,None,380.50789140025154,380.8411015002057,381.503211800009,381.82346590003,382.52039940003306,382.841779100243,right,1,2.3648056997917593,380.56848270026967,None,None,None,,,,,,,eqdcwr,001,0,fr,2022-05-24_15h35.25.988,3-AFC_adaptive_staircase_mess,2022.1.1,None,
,,,,,3,0,3,0,18,0,18,0,,,,,,,,,,,,,,,,right,3000,-10.0,1.7336842522626584e-05,-1,6,-1,-5.0,386.508355466711,None,384.4821256999858,384.80266010016203,385.4741179998964,385.8064186000265,386.46594339981675,386.7954994998872,right,1,2.4957547998055816,384.510061299894,None,387.023357400205,None,,,,,,,eqdcwr,001,0,fr,2022-05-24_15h35.25.988,3-AFC_adaptive_staircase_mess,2022.1.1,None,
,,,,,4,0,4,0,0,0,0,0,,,,,,,,,,,,,[],[],10,up,4000,30,0.0026544222211549416,0,0,1,10,390.657479566584,None,389.6316684000194,389.94773200014606,390.6117846998386,390.9463209002279,None,None,right,0,1.4573284997604787,389.6600794000551,None,None,None,right,1.0504108997993171,388.0833848998882,None,388.0833848998882,None,eqdcwr,001,0,fr,2022-05-24_15h35.25.988,3-AFC_adaptive_staircase_mess,2022.1.1,None,
,,,,,4,0,4,0,1,0,1,0,,,,,,,,,,,,,,,,right,4000,40,0.008394020090612802,1,0,1,10,394.662249066929,394.8856716998853,392.61622299999,392.92663160013035,393.62798540014774,393.95929259993136,394.6155273001641,394.94483829988167,right,1,2.3006374002434313,392.67296800017357,None,None,None,,,,,,,eqdcwr,001,0,fr,2022-05-24_15h35.25.988,3-AFC_adaptive_staircase_mess,2022.1.1,None,
,,,,,4,0,4,0,2,0,2,0,,,,,,,,,,,,,,,,right,4000,40,0.008394020090612802,1,0,1,10,398.5334449667173,None,396.4771920000203,396.7984771998599,397.4775805999525,397.7972730998881,398.4913451001048,398.81652110023424,right,1,2.425960599910468,396.5641890000552,None,399.0160554666693,None,,,,,,,eqdcwr,001,0,fr,2022-05-24_15h35.25.988,3-AFC_adaptive_staircase_mess,2022.1.1,None,
,,,,,4,0,4,0,3,0,3,0,,,,,,,,,,,,,,,,right,4000,20,0.0008394020090612801,-1,1,-1,-10,402.54024436657005,None,400.4975070999935,400.8119025998749,401.4892990998924,401.830931100063,402.49293590011075,402.8257901999168,right,1,2.319216600153595,400.5586534999311,None,None,None,,,,,,,eqdcwr,001,0,fr,2022-05-24_15h35.25.988,3-AFC_adaptive_staircase_mess,2022.1.1,None,
,,,,,4,0,4,0,4,0,4,0,,,,,,,,,,,,,,,,right,4000,20,0.0008394020090612801,-1,1,-1,-10,406.4314733665126,None,404.38357410021126,404.7129335999489,405.39790769992396,405.70217119995505,406.38760269992054,406.72121400013566,right,1,2.276565299835056,404.4418108998798,None,None,None,,,,,,,eqdcwr,001,0,fr,2022-05-24_15h35.25.988,3-AFC_adaptive_staircase_mess,2022.1.1,None,
,,,,,4,0,4,0,5,0,5,0,,,,,,,,,,,,,,,,right,4000,10,0.00026544222211549425,-1,1,-1,-10,410.2621701667706,None,408.22414790000767,408.54332680022344,409.22277410002425,409.5544655001722,410.24550350010395,410.56927980016917,right,1,2.3570693000219762,408.2725988002494,None,None,None,,,,,,,eqdcwr,001,0,fr,2022-05-24_15h35.25.988,3-AFC_adaptive_staircase_mess,2022.1.1,None,
,,,,,4,0,4,0,6,0,6,0,,,,,,,,,,,,,,,,up,4000,10,0.00026544222211549425,-1,1,-1,-10,413.20066566678383,None,412.1513930000365,412.4683229001239,413.1541220000945,413.47862400021404,None,None,up,1,1.4596494999714196,412.2105066999793,None,None,None,,,,,,,eqdcwr,001,0,fr,2022-05-24_15h35.25.988,3-AFC_adaptive_staircase_mess,2022.1.1,None,
,,,,,4,0,4,0,7,0,7,0,,,,,,,,,,,,,,,,left,4000,0,8.394020090612804e-05,-1,1,-1,-10,415.21984346682825,None,415.1751743000932,415.50472189998254,416.18708219984546,None,None,None,left,1,1.1983068999834359,415.2318732999265,None,None,None,,,,,,,eqdcwr,001,0,fr,2022-05-24_15h35.25.988,3-AFC_adaptive_staircase_mess,2022.1.1,None,
,,,,,4,0,4,0,8,0,8,0,,,,,,,,,,,,,,,,left,4000,0,8.394020090612804e-05,-1,1,-1,-10,418.00251856685304,None,417.9494268000126,418.28081359993666,None,None,None,None,left,1,0.48459360003471375,418.0166762000881,None,None,None,,,,,,,eqdcwr,001,0,fr,2022-05-24_15h35.25.988,3-AFC_adaptive_staircase_mess,2022.1.1,None,
,,,,,4,0,4,0,9,0,9,0,,,,,,,,,,,,,,,,right,4000,-10,2.6544222211549425e-05,-1,1,-1,-10,422.04771416687095,422.27151140011847,419.99814159981906,420.32178540015593,420.9979818998836,421.3175837001763,422.0030904999003,422.3203667998314,right,1,2.77339329989627,420.05611270014197,None,422.56068000011146,None,,,,,,,eqdcwr,001,0,fr,2022-05-24_15h35.25.988,3-AFC_adaptive_staircase_mess,2022.1.1,None,
,,,,,4,0,4,0,10,0,10,0,,,,,,,,,,,,,,,,right,4000,-10,2.6544222211549425e-05,-1,1,-1,-10,426.40567756683254,None,424.38804219989106,424.70665549999103,425.3767128000036,425.70275160018355,426.3890109001659,426.7180353999138,right,1,2.668279599864036,424.41699810000136,None,426.92137560015544,None,,,,,,,eqdcwr,001,0,fr,2022-05-24_15h35.25.988,3-AFC_adaptive_staircase_mess,2022.1.1,None,
,,,,,4,0,4,0,11,0,11,0,,,,,,,,,,,,,,,,right,4000,-20,8.394020090612804e-06,-1,1,-1,-10,430.6413682667228,None,428.5900413999334,428.92262959992513,429.59778989991173,429.94315960025415,430.59736899985,430.910674800165,left,0,2.378194599878043,428.64451659983024,None,None,None,,,,,,,eqdcwr,001,0,fr,2022-05-24_15h35.25.988,3-AFC_adaptive_staircase_mess,2022.1.1,None,
,,,,,4,0,4,0,12,0,12,0,,,,,,,,,,,,,,,,right,4000,-15,1.4926913094589802e-05,1,2,1,2.5,434.5897541666093,None,432.55538039980456,432.8854176001623,433.55947689991444,433.8969760001637,434.57308749994263,434.91095930011943,left,0,2.645344600081444,432.60920860012993,None,435.0967438998632,None,,,,,,,eqdcwr,001,0,fr,2022-05-24_15h35.25.988,3-AFC_adaptive_staircase_mess,2022.1.1,None,
,,,,,4,0,4,0,13,0,13,0,,,,,,,,,,,,,,,,right,4000,-12.5,1.9905358527674868e-05,1,2,1,2.5,438.8165915664906,None,436.7674177000299,437.0846044002101,437.79743089992553,438.131142700091,438.7810092000291,439.09486610023305,left,0,3.7354600997641683,436.8304651998915,None,439.33891300018877,None,,,,,,,eqdcwr,001,0,fr,2022-05-24_15h35.25.988,3-AFC_adaptive_staircase_mess,2022.1.1,None,
,,,,,4,0,4,0,14,0,14,0,,,,,,,,,,,,,,,,left,4000,-10.0,2.6544222211549425e-05,1,2,1,2.5,442.1070397669139,None,442.09037310024723,442.42047929996625,443.08313750009984,443.4057444999926,444.0611712001264,444.3726472998969,left,1,2.7561591998673975,442.12113060010597,None,444.6248790002428,None,,,,,,,eqdcwr,001,0,fr,2022-05-24_15h35.25.988,3-AFC_adaptive_staircase_mess,2022.1.1,None,
,,,,,4,0,4,0,15,0,15,0,,,,,,,,,,,,,,,,up,4000,-10.0,2.6544222211549425e-05,1,2,1,2.5,447.4097469668525,None,446.3695327998139,446.69883080013096,447.36616000020877,447.69643549993634,448.3677642000839,448.69495869986713,left,0,2.9905371996574104,446.423156700097,None,448.9113415000029,None,,,,,,,eqdcwr,001,0,fr,2022-05-24_15h35.25.988,3-AFC_adaptive_staircase_mess,2022.1.1,None,
,,,,,4,0,4,0,16,0,16,0,,,,,,,,,,,,,,,,up,4000,-7.5,3.53972892192069e-05,1,2,1,2.5,451.97650986683243,None,450.93493410013616,451.26429159985855,451.9317487999797,452.2610153001733,452.9308584998362,453.2624464002438,right,0,3.2496222998015583,450.98027430009097,None,453.4817071999423,None,,,,,,,eqdcwr,001,0,fr,2022-05-24_15h35.25.988,3-AFC_adaptive_staircase_mess,2022.1.1,None,
,,,,,4,0,4,0,17,0,17,0,,,,,,,,,,,,,,,,left,4000,-5.0,4.720304381429618e-05,1,2,1,2.5,455.7596101668353,None,455.7429435001686,456.07260619988665,456.71789170010015,457.05419320007786,457.7519640000537,458.08105840021744,left,1,2.396079800091684,455.7695814999752,None,None,None,,,,,,,eqdcwr,001,0,fr,2022-05-24_15h35.25.988,3-AFC_adaptive_staircase_mess,2022.1.1,None,
,,,,,4,0,4,0,18,0,18,0,,,,,,,,,,,,,,,,up,4000,-5.0,4.720304381429618e-05,1,2,1,2.5,460.7099279668803,None,459.69422130007297,460.02136270003393,460.69326130021363,461.02208610018715,461.6949173999019,462.03031319985166,up,1,2.3166207000613213,459.7212776998058,None,None,None,,,,,,,eqdcwr,001,0,fr,2022-05-24_15h35.25.988,3-AFC_adaptive_staircase_mess,2022.1.1,None,
,,,,,4,0,4,0,19,0,19,0,,,,,,,,,,,,,,,,left,4000,-10.0,2.6544222211549425e-05,-1,3,-1,-5.0,463.6008013669091,None,463.55889250012115,463.8872890002094,464.5599480001256,464.8879666002467,465.5660395999439,465.8926778002642,up,0,3.8112980001606047,463.61036430019885,None,466.1079922998324,None,,,,,,,eqdcwr,001,0,fr,2022-05-24_15h35.25.988,3-AFC_adaptive_staircase_mess,2022.1.1,None,
,,,,,4,0,4,0,20,0,20,0,,,,,,,,,,,,,,,,right,4000,-7.5,3.53972892192069e-05,1,4,1,2.5,470.97588996688523,None,468.95538720022887,469.28108510002494,469.9329527001828,470.25973699986935,470.9335606000386,471.2619704999961,right,1,2.670576899778098,468.98214800003916,None,471.5075739999302,None,,,,,,,eqdcwr,001,0,fr,2022-05-24_15h35.25.988,3-AFC_adaptive_staircase_mess,2022.1.1,None,
,,,,,4,0,4,0,21,0,21,0,,,,,,,,,,,,,,,,left,4000,-7.5,3.53972892192069e-05,1,4,1,2.5,473.2094072667571,None,473.1676382999867,473.49416449991986,474.1635678000748,474.49487690022215,475.1628813999705,475.49353790003806,left,1,3.0523637998849154,473.21914099995047,None,475.7370649999939,None,,,,,,,eqdcwr,001,0,fr,2022-05-24_15h35.25.988,3-AFC_adaptive_staircase_mess,2022.1.1,None,
,,,,,4,0,4,0,22,0,22,0,,,,,,,,,,,,,,,,up,4000,-12.5,1.9905358527674868e-05,-1,5,-1,-5.0,478.81144856667765,None,477.76506489980966,478.09385390020907,478.76723199989647,479.09647280024365,479.7675534998998,480.09810090018436,left,0,3.4652281999588013,477.8196665998548,None,480.3444953998551,None,,,,,,,eqdcwr,001,0,fr,2022-05-24_15h35.25.988,3-AFC_adaptive_staircase_mess,2022.1.1,None,
,,,,,4,0,4,0,23,0,23,0,,,,,,,,,,,,,,,,left,4000,-10.0,2.6544222211549425e-05,1,6,1,2.5,482.84177046647915,None,482.7974199000746,483.1277278000489,483.7979832999408,484.12954230001196,484.8009033999406,485.1403550999239,left,1,2.5382173000834882,482.85072869993746,None,485.3665118999779,None,,,,,,,eqdcwr,001,0,fr,2022-05-24_15h35.25.988,3-AFC_adaptive_staircase_mess,2022.1.1,None,
,,,,,5,0,5,0,0,0,0,0,,,,,,,,,,,,,[],[],10,left,6000,30,0.003664122665694519,0,0,-1,10,487.82517116662734,None,487.78343009995297,488.11256519984454,None,None,None,None,left,1,0.47444829996675253,487.8352872999385,None,None,None,left,0.8028023997321725,486.4823429998942,None,486.4823429998942,None,eqdcwr,001,0,fr,2022-05-24_15h35.25.988,3-AFC_adaptive_staircase_mess,2022.1.1,None,
,,,,,5,0,5,0,1,0,1,0,,,,,,,,,,,,,,,,left,6000,30,0.003664122665694519,0,0,-1,10,489.8607172668601,None,489.8156030001119,490.14883759990335,None,None,None,None,left,1,0.3187922998331487,489.8708726000041,None,None,None,,,,,,,eqdcwr,001,0,fr,2022-05-24_15h35.25.988,3-AFC_adaptive_staircase_mess,2022.1.1,None,
,,,,,5,0,5,0,2,0,2,0,,,,,,,,,,,,,,,,right,6000,10,0.00036641226656945183,-1,0,-1,-10,493.75323616672927,None,491.713195099961,492.04119870020077,492.70937710022554,493.03004419989884,493.70894270017743,494.0380547000095,right,1,2.3062460999935865,491.73944379994646,None,None,None,,,,,,,eqdcwr,001,0,fr,2022-05-24_15h35.25.988,3-AFC_adaptive_staircase_mess,2022.1.1,None,
,,,,,5,0,5,0,3,0,3,0,,,,,,,,,,,,,,,,right,6000,10,0.00036641226656945183,-1,0,-1,-10,497.61205756670483,None,495.5602484000847,495.894811199978,496.5645762998611,496.8937328001484,497.56644920026883,497.8985517001711,right,1,2.29929480003193,495.6261077001691,None,None,None,,,,,,,eqdcwr,001,0,fr,2022-05-24_15h35.25.988,3-AFC_adaptive_staircase_mess,2022.1.1,None,
,,,,,5,0,5,0,4,0,4,0,,,,,,,,,,,,,,,,right,6000,0,0.00011586973249842387,-1,0,-1,-10,501.47413486667597,None,499.4304372998886,499.7546259998344,500.43071119999513,500.7585367001593,501.4318984001875,501.76011480018497,right,1,2.7718130997382104,499.48194279987365,None,501.9823169000447,None,,,,,,,eqdcwr,001,0,fr,2022-05-24_15h35.25.988,3-AFC_adaptive_staircase_mess,2022.1.1,None,
,,,,,5,0,5,0,5,0,5,0,,,,,,,,,,,,,,,,right,6000,0,0.00011586973249842387,-1,0,-1,-10,505.8194320668156,None,503.77222400018945,504.1046253000386,504.7723675002344,505.10329410014674,505.77560630021617,506.1090064002201,right,1,2.426606100052595,503.8263345002197,None,None,None,,,,,,,eqdcwr,001,0,fr,2022-05-24_15h35.25.988,3-AFC_adaptive_staircase_mess,2022.1.1,None,
,,,,,5,0,5,0,6,0,6,0,,,,,,,,,,,,,,,,up,6000,-10,3.664122665694518e-05,-1,0,-1,-10,508.80046926677846,None,507.7621915000491,508.0867107999511,508.7559656002559,509.0869835000485,509.7582505000755,510.0726744001731,right,0,3.140565099660307,507.81650849990547,None,510.32660849997774,None,,,,,,,eqdcwr,001,0,fr,2022-05-24_15h35.25.988,3-AFC_adaptive_staircase_mess,2022.1.1,None,
,,,,,5,0,5,0,7,0,7,0,,,,,,,,,,,,,,,,right,6000,-5,6.515833892261494e-05,1,1,1,5,514.4901410667846,None,512.4438428999856,512.7694453001022,513.4436061000451,513.77198030008,514.4449562001973,514.7626054999419,up,0,4.518037300091237,512.495699999854,None,515.0057521001436,None,,,,,,,eqdcwr,001,0,fr,2022-05-24_15h35.25.988,3-AFC_adaptive_staircase_mess,2022.1.1,None,
,,,,,5,0,5,0,8,0,8,0,,,,,,,,,,,,,,,,left,6000,0,0.00011586973249842387,1,1,1,5,518.5786847668389,None,518.5333059001714,518.8508736002259,519.5311426999979,519.8518039002083,520.531349199824,520.8658431000076,left,1,2.5053725000470877,518.5878363000229,None,521.086167700123,None,,,,,,,eqdcwr,001,0,fr,2022-05-24_15h35.25.988,3-AFC_adaptive_staircase_mess,2022.1.1,None,
,,,,,5,0,5,0,9,0,9,0,,,,,,,,,,,,,,,,up,6000,0,0.00011586973249842387,1,1,1,5,None,None,522.598752700258,522.9260983001441,None,None,None,None,left,0,0.6959386998787522,522.6533432998694,None,None,None,,,,,,,eqdcwr,001,0,fr,2022-05-24_15h35.25.988,3-AFC_adaptive_staircase_mess,2022.1.1,None,
,,,,,5,0,5,0,10,0,10,0,,,,,,,,,,,,,,,,up,6000,5,0.000206048759548665,1,1,1,5,525.9097209666545,None,524.8695820001885,525.1952202999964,525.8572797998786,526.195157899987,None,None,up,1,1.4410068998113275,524.9243564000353,None,None,None,,,,,,,eqdcwr,001,0,fr,2022-05-24_15h35.25.988,3-AFC_adaptive_staircase_mess,2022.1.1,None,
,,,,,5,0,5,0,11,0,11,0,,,,,,,,,,,,,,,,up,6000,5,0.000206048759548665,1,1,1,5,528.9106415669123,None,527.8716396000236,528.197559799999,528.8649956998415,529.1915980000049,None,None,up,1,1.3508297996595502,527.9269031998701,None,None,None,,,,,,,eqdcwr,001,0,fr,2022-05-24_15h35.25.988,3-AFC_adaptive_staircase_mess,2022.1.1,None,
,,,,,5,0,5,0,12,0,12,0,,,,,,,,,,,,,,,,right,6000,-5,6.515833892261494e-05,-1,2,-1,-5.0,532.8486499665926,None,530.8013042001985,531.1299792001955,531.7965242001228,532.1311984998174,532.8027385999449,533.1342309000902,right,1,3.254806899931282,530.8550129998475,None,533.3499385998584,None,,,,,,,eqdcwr,001,0,fr,2022-05-24_15h35.25.988,3-AFC_adaptive_staircase_mess,2022.1.1,None,
,,,,,5,0,5,0,13,0,13,0,,,,,,,,,,,,,,,,left,6000,-5,6.515833892261494e-05,-1,2,-1,-5.0,535.6767450664813,None,535.6346050002612,535.9644539998844,536.6386910998262,536.9720821999945,537.6412019999698,537.9705555001274,right,0,2.87028139969334,535.6865866002627,None,538.1840348998085,None,,,,,,,eqdcwr,001,0,fr,2022-05-24_15h35.25.988,3-AFC_adaptive_staircase_mess,2022.1.1,None,
,,,,,5,0,5,0,14,0,14,0,,,,,,,,,,,,,,,,left,6000,-2.5,8.689004143746872e-05,1,3,1,2.5,540.1072038668829,None,540.0637969998643,540.3926669000648,None,None,None,None,left,1,0.7118910998106003,540.1182972998358,None,None,None,,,,,,,eqdcwr,001,0,fr,2022-05-24_15h35.25.988,3-AFC_adaptive_staircase_mess,2022.1.1,None,
,,,,,5,0,5,0,15,0,15,0,,,,,,,,,,,,,,,,up,6000,-2.5,8.689004143746872e-05,1,3,1,2.5,543.3851640667456,None,542.3332460001111,542.6614923998713,543.3429760998115,543.6756358002312,544.3481940999627,544.6812737998553,right,0,3.4729606001637876,542.3876565000974,None,544.8979344000109,None,,,,,,,eqdcwr,001,0,fr,2022-05-24_15h35.25.988,3-AFC_adaptive_staircase_mess,2022.1.1,None,
,,,,,5,0,5,0,16,0,16,0,,,,,,,,,,,,,,,,up,6000,0.0,0.00011586973249842387,1,3,1,2.5,548.4202960665027,None,547.3715293002315,547.6985955000855,548.3750625001267,548.7068735999055,549.3775988002308,549.7081166999415,up,1,3.0850928998552263,547.4255915000103,None,549.9206905001774,None,,,,,,,eqdcwr,001,0,fr,2022-05-24_15h35.25.988,3-AFC_adaptive_staircase_mess,2022.1.1,None,
,,,,,5,0,5,0,17,0,17,0,,,,,,,,,,,,,,,,left,6000,0.0,0.00011586973249842387,1,3,1,2.5,552.0463904669198,None,552.000827500131,552.313386300113,None,None,None,None,left,1,0.7874390999786556,552.0577398999594,None,None,None,,,,,,,eqdcwr,001,0,fr,2022-05-24_15h35.25.988,3-AFC_adaptive_staircase_mess,2022.1.1,None,
,,,,,5,0,5,0,18,0,18,0,,,,,,,,,,,,,,,,right,6000,-5.0,6.515833892261494e-05,-1,4,-1,-5.0,556.3915359667192,None,554.3806360000744,554.7129212999716,555.3519902001135,555.6674391999841,556.3748693000525,556.7086264998652,up,0,3.261207999661565,554.4078520000912,None,556.9249427998438,None,,,,,,,eqdcwr,001,0,fr,2022-05-24_15h35.25.988,3-AFC_adaptive_staircase_mess,2022.1.1,None,
,,,,,5,0,5,0,19,0,19,0,,,,,,,,,,,,,,,,left,6000,-2.5,8.689004143746872e-05,1,5,1,2.5,559.2122919667202,None,559.1702772001736,559.4900754000992,560.1780810998753,560.5107185998932,561.1572849000804,561.4909820999019,left,1,2.803042999934405,559.2261951998807,None,561.7091232999228,None,,,,,,,eqdcwr,001,0,fr,2022-05-24_15h35.25.988,3-AFC_adaptive_staircase_mess,2022.1.1,None,
,,,,,5,0,5,0,20,0,20,0,,,,,,,,,,,,,,,,left,6000,-2.5,8.689004143746872e-05,1,5,1,2.5,563.599165366559,None,563.556085200049,563.889292200096,564.5647670999169,564.8981181001291,565.5504743000492,565.8844325998798,right,0,2.4921712996438146,563.6096517001279,None,566.1049855002202,None,,,,,,,eqdcwr,001,0,fr,2022-05-24_15h35.25.988,3-AFC_adaptive_staircase_mess,2022.1.1,None,
,,,,,5,0,5,0,21,0,21,0,,,,,,,,,,,,,,,,left,6000,0.0,0.00011586973249842387,1,5,1,2.5,567.6541290665666,None,567.6119972001761,567.9331292998977,568.6203932999633,568.9545785998926,569.636378900148,569.9672961998731,up,0,3.0437141000293195,567.6653402000666,None,570.1564846001565,None,,,,,,,eqdcwr,001,0,fr,2022-05-24_15h35.25.988,3-AFC_adaptive_staircase_mess,2022.1.1,None,
,,,,,5,0,5,0,22,0,22,0,,,,,,,,,,,,,,,,up,6000,2.5,0.00015451477162567947,1,5,1,2.5,573.2672115667413,None,572.2091304999776,572.5419095000252,573.2221437999979,573.5578597001731,None,None,up,1,1.8117300001904368,572.2650664998218,None,None,None,,,,,,,eqdcwr,001,0,fr,2022-05-24_15h35.25.988,3-AFC_adaptive_staircase_mess,2022.1.1,None,
,,,,,5,0,5,0,23,0,23,0,,,,,,,,,,,,,,,,up,6000,2.5,0.00015451477162567947,1,5,1,2.5,576.6164245666625,None,575.587438300252,575.9059303998947,576.5997578999959,576.932252400089,None,None,up,1,1.61836940003559,575.6432684999891,None,None,None,,,,,,,eqdcwr,001,0,fr,2022-05-24_15h35.25.988,3-AFC_adaptive_staircase_mess,2022.1.1,None,
,,,,,5,0,5,0,24,0,24,0,,,,,,,,,,,,,,,,right,6000,-2.5,8.689004143746872e-05,-1,6,-1,-5.0,580.802923266838,None,578.7585101998411,579.0926769999787,579.7762815002352,580.1063899002038,580.7585026002489,581.0909082000144,right,1,2.5826779999770224,578.814330900088,None,581.3089282000437,None,,,,,,,eqdcwr,001,0,fr,2022-05-24_15h35.25.988,3-AFC_adaptive_staircase_mess,2022.1.1,None,
,,,,,6,0,6,0,0,0,0,0,,,,,,,,,,,,,[],[],10,right,8000,30,0.005740768107484416,0,0,-1,10,586.6217425666439,None,584.5828137998469,584.9150904002599,585.5965991001576,585.9162886999547,586.5770065002143,586.9017594000325,right,1,2.304736199788749,584.6373817999847,None,None,None,left,1.6365792998112738,582.4810025999323,None,582.4810025999323,None,eqdcwr,001,0,fr,2022-05-24_15h35.25.988,3-AFC_adaptive_staircase_mess,2022.1.1,None,
,,,,,6,0,6,0,1,0,1,0,,,,,,,,,,,,,,,,left,8000,30,0.005740768107484416,0,0,-1,10,588.4841390667173,None,588.440210300032,588.7741474001668,None,None,None,None,left,1,0.5289539000950754,588.4849809999578,None,None,None,,,,,,,eqdcwr,001,0,fr,2022-05-24_15h35.25.988,3-AFC_adaptive_staircase_mess,2022.1.1,None,
,,,,,6,0,6,0,2,0,2,0,,,,,,,,,,,,,,,,up,8000,10,0.0005740768107484417,-1,0,-1,-10,591.5651235664884,None,590.510356800165,590.8427877002396,591.5208709002472,591.8592862999067,None,None,up,1,1.4502865998074412,590.5549900000915,None,None,None,,,,,,,eqdcwr,001,0,fr,2022-05-24_15h35.25.988,3-AFC_adaptive_staircase_mess,2022.1.1,None,
,,,,,6,0,6,0,3,0,3,0,,,,,,,,,,,,,,,,up,8000,10,0.0005740768107484417,-1,0,-1,-10,594.5353567666064,None,593.5069575002417,593.8389049000107,594.5186900999397,594.854429199826,None,None,up,1,1.2820861996151507,593.5627445001155,None,None,None,,,,,,,eqdcwr,001,0,fr,2022-05-24_15h35.25.988,3-AFC_adaptive_staircase_mess,2022.1.1,None,
,,,,,6,0,6,0,4,0,4,0,,,,,,,,,,,,,,,,right,8000,0,0.0001815390273850507,-1,0,-1,-10,598.3949084669041,None,596.348697300069,596.6595030999742,597.3364055999555,597.6685307002626,598.3491915999912,598.6791097000241,right,1,2.3481323001906276,596.3934859000146,None,None,None,,,,,,,eqdcwr,001,0,fr,2022-05-24_15h35.25.988,3-AFC_adaptive_staircase_mess,2022.1.1,None,
,,,,,6,0,6,0,5,0,5,0,,,,,,,,,,,,,,,,up,8000,0,0.0001815390273850507,-1,0,-1,-10,601.2816240667055,None,600.245190099813,600.5589411002584,601.2649574000388,601.5964870001189,602.2496353001334,602.5790929999202,right,0,3.1982587999664247,600.311244700104,None,602.7972412998788,None,,,,,,,eqdcwr,001,0,fr,2022-05-24_15h35.25.988,3-AFC_adaptive_staircase_mess,2022.1.1,None,
,,,,,6,0,6,0,6,0,6,0,,,,,,,,,,,,,,,,right,8000,5,0.00032282711451732784,1,1,1,5,None,None,605.0174318999052,605.3476987001486,606.0036766999401,606.3375697000884,None,None,up,0,1.7399711995385587,605.0739317000844,None,None,None,,,,,,,eqdcwr,001,0,fr,2022-05-24_15h35.25.988,3-AFC_adaptive_staircase_mess,2022.1.1,None,
,,,,,6,0,6,0,7,0,7,0,,,,,,,,,,,,,,,,left,8000,10,0.0005740768107484417,1,1,1,5,608.3685786668832,None,608.3241782002151,608.6563583998941,None,None,None,None,left,1,0.6259862002916634,608.3794308002107,None,None,None,,,,,,,eqdcwr,001,0,fr,2022-05-24_15h35.25.988,3-AFC_adaptive_staircase_mess,2022.1.1,None,
,,,,,6,0,6,0,8,0,8,0,,,,,,,,,,,,,,,,right,8000,10,0.0005740768107484417,1,1,1,5,612.5245705666641,None,610.5016581001692,610.8360301000066,611.4914552001283,611.8247126000933,612.5079038999975,612.8409078000113,up,0,2.327881199773401,610.5570638999343,None,None,None,,,,,,,eqdcwr,001,0,fr,2022-05-24_15h35.25.988,3-AFC_adaptive_staircase_mess,2022.1.1,None,
,,,,,6,0,6,0,9,0,9,0,,,,,,,,,,,,,,,,up,8000,15,0.001020868972334765,1,1,1,5,615.4283964667159,None,614.3993476000614,614.7287138998508,615.4117298000492,615.7425652001984,None,None,up,1,1.3984183995053172,614.45558599988,None,None,None,,,,,,,eqdcwr,001,0,fr,2022-05-24_15h35.25.988,3-AFC_adaptive_staircase_mess,2022.1.1,None,
,,,,,6,0,6,0,10,0,10,0,,,,,,,,,,,,,,,,right,8000,15,0.001020868972334765,1,1,1,5,619.4020197666871,None,617.3756357999519,617.7097896002233,618.364821900148,618.6987359998748,619.3853531000204,619.7189633999951,right,1,2.2944187000393867,617.4311422002502,None,None,None,,,,,,,eqdcwr,001,0,fr,2022-05-24_15h35.25.988,3-AFC_adaptive_staircase_mess,2022.1.1,None,
,,,,,6,0,6,0,11,0,11,0,,,,,,,,,,,,,,,,left,8000,5,0.00032282711451732784,-1,2,-1,-5.0,621.2888480667646,None,621.2445851000957,621.5593985002488,None,None,None,None,left,1,0.6486419998109341,621.3007918000221,None,None,None,,,,,,,eqdcwr,001,0,fr,2022-05-24_15h35.25.988,3-AFC_adaptive_staircase_mess,2022.1.1,None,
,,,,,6,0,6,0,12,0,12,0,,,,,,,,,,,,,,,,up,8000,5,0.00032282711451732784,-1,2,-1,-5.0,624.5064717666867,None,623.4697648999281,623.7887597000226,624.4619693001732,624.7950340001844,None,None,up,1,1.4245973997749388,623.5261798999272,None,None,None,,,,,,,eqdcwr,001,0,fr,2022-05-24_15h35.25.988,3-AFC_adaptive_staircase_mess,2022.1.1,None,
,,,,,6,0,6,0,13,0,13,0,,,,,,,,,,,,,,,,up,8000,0.0,0.0001815390273850507,-1,2,-1,-5.0,627.4918828667762,None,626.4584177001379,626.7916414998472,627.4477476002648,627.7821936998516,None,None,up,1,1.4040187997743487,626.5130783999339,None,None,None,,,,,,,eqdcwr,001,0,fr,2022-05-24_15h35.25.988,3-AFC_adaptive_staircase_mess,2022.1.1,None,
,,,,,6,0,6,0,14,0,14,0,,,,,,,,,,,,,,,,right,8000,0.0,0.0001815390273850507,-1,2,-1,-5.0,631.4515896668347,None,629.4186678002588,629.7502287998796,630.4329487001523,630.7453808998689,631.434923000168,631.7642161999829,up,0,2.5880164997652173,629.4736043000594,None,631.9601127998903,None,,,,,,,eqdcwr,001,0,fr,2022-05-24_15h35.25.988,3-AFC_adaptive_staircase_mess,2022.1.1,None,
,,,,,6,0,6,0,15,0,15,0,,,,,,,,,,,,,,,,right,8000,2.5,0.00024208618379204972,1,3,1,2.5,635.6238214667576,None,633.5860863002017,633.8957287999801,634.5866685002111,634.9217972001061,635.579532600008,635.9118635999039,right,1,2.640996200032532,633.6441736998968,None,636.1330940001644,None,,,,,,,eqdcwr,001,0,fr,2022-05-24_15h35.25.988,3-AFC_adaptive_staircase_mess,2022.1.1,None,
,,,,,6,0,6,0,16,0,16,0,,,,,,,,,,,,,,,,up,8000,2.5,0.00024208618379204972,1,3,1,2.5,638.8695844668584,None,637.8105521001853,638.1427950998768,638.823966700118,639.1433103000745,None,None,up,1,1.5555826998315752,637.8657495002262,None,None,None,,,,,,,eqdcwr,001,0,fr,2022-05-24_15h35.25.988,3-AFC_adaptive_staircase_mess,2022.1.1,None,
,,,,,6,0,6,0,17,0,17,0,,,,,,,,,,,,,,,,up,8000,-2.5,0.00013613506540389563,-1,4,-1,-5.0,641.9919949668149,None,640.9448684998788,641.2584925000556,641.9475698000751,642.2801819001324,None,None,up,1,1.4967771000228822,640.9970431001857,None,None,None,,,,,,,eqdcwr,001,0,fr,2022-05-24_15h35.25.988,3-AFC_adaptive_staircase_mess,2022.1.1,None,
,,,,,6,0,6,0,18,0,18,0,,,,,,,,,,,,,,,,up,8000,-2.5,0.00013613506540389563,-1,4,-1,-5.0,645.0430574669192,None,644.0094159999862,644.3438837002032,644.9973428002559,645.3331836001016,None,None,up,1,1.7688894998282194,644.0365917999297,None,None,None,,,,,,,eqdcwr,001,0,fr,2022-05-24_15h35.25.988,3-AFC_adaptive_staircase_mess,2022.1.1,None,
,,,,,6,0,6,0,19,0,19,0,,,,,,,,,,,,,,,,left,8000,-7.5,7.655437308410152e-05,-1,4,-1,-5.0,647.3781190668853,None,647.3333938000724,647.6486793998629,648.3352594999596,648.6694653001614,649.3353098002262,649.6707191998139,right,0,2.6069339998066425,647.3911410998553,None,649.8685185001232,None,,,,,,,eqdcwr,001,0,fr,2022-05-24_15h35.25.988,3-AFC_adaptive_staircase_mess,2022.1.1,None,
,,,,,6,0,6,0,20,0,20,0,,,,,,,,,,,,,,,,right,8000,-5.0,0.00010208689723347648,1,5,1,2.5,653.5754720667067,None,651.5169501001947,651.8507230002433,652.5381574002095,652.8715655999258,653.5309505998157,653.8470974001102,up,0,2.680146999657154,651.5732483002357,None,654.0700664999895,None,,,,,,,eqdcwr,001,0,fr,2022-05-24_15h35.25.988,3-AFC_adaptive_staircase_mess,2022.1.1,None,
,,,,,6,0,6,0,21,0,21,0,,,,,,,,,,,,,,,,right,8000,-2.5,0.00013613506540389563,1,5,1,2.5,657.7951589665065,None,655.7660126001574,656.1030779001303,656.7713538999669,657.0837205001153,657.7514896998182,658.0737646999769,up,0,3.278989600017667,655.8223029999062,None,658.3267978001386,None,,,,,,,eqdcwr,001,0,fr,2022-05-24_15h35.25.988,3-AFC_adaptive_staircase_mess,2022.1.1,None,
,,,,,6,0,6,0,22,0,22,0,,,,,,,,,,,,,,,,right,8000,0.0,0.0001815390273850507,1,5,1,2.5,662.6632639668571,None,660.628531599883,660.9619061998092,661.625231300015,661.9563599000685,662.6188058000989,662.952731099911,right,1,2.6593189002014697,660.674362800084,None,663.17621350009,None,,,,,,,eqdcwr,001,0,fr,2022-05-24_15h35.25.988,3-AFC_adaptive_staircase_mess,2022.1.1,None,
,,,,,6,0,6,0,23,0,23,0,,,,,,,,,,,,,,,,up,8000,0.0,0.0001815390273850507,1,5,1,2.5,665.885640566765,None,664.8614091998897,665.1976000000723,665.8689739000984,666.1904978998937,666.8686027000658,667.1817295998335,left,0,2.888427499681711,664.91644489998,None,667.4105703998357,None,,,,,,,eqdcwr,001,0,fr,2022-05-24_15h35.25.988,3-AFC_adaptive_staircase_mess,2022.1.1,None,
,,,,,6,0,6,0,24,0,24,0,,,,,,,,,,,,,,,,up,8000,2.5,0.00024208618379204972,1,5,1,2.5,670.3877086667965,None,669.3420092999004,669.676206599921,670.3425815999508,670.680411899928,671.3442263999023,671.6774209002033,up,1,3.0514993998222053,669.3940526000224,None,671.9014301998541,None,,,,,,,eqdcwr,001,0,fr,2022-05-24_15h35.25.988,3-AFC_adaptive_staircase_mess,2022.1.1,None,
,,,,,6,0,6,0,25,0,25,0,,,,,,,,,,,,,,,,right,8000,2.5,0.00024208618379204972,1,5,1,2.5,676.0063940669099,None,673.9534853999503,674.2868738002144,674.9367827000096,675.2547303000465,675.9621568000875,676.2776641999371,right,1,3.6195891997776926,674.009715099819,None,676.4992276998237,None,,,,,,,eqdcwr,001,0,fr,2022-05-24_15h35.25.988,3-AFC_adaptive_staircase_mess,2022.1.1,None,
,,,,,6,0,6,0,26,0,26,0,,,,,,,,,,,,,,,,right,8000,-2.5,0.00013613506540389563,-1,6,-1,-5.0,681.1869549668083,None,679.1518629002385,679.4879147000611,680.1614421000704,680.4934871001169,681.1410733000375,681.4743178002536,left,0,5.065331399906427,679.2038059001788,None,681.697369299829,None,,,,,,,eqdcwr,001,0,fr,2022-05-24_15h35.25.988,3-AFC_adaptive_staircase_mess,2022.1.1,None,
,,,,,7,0,7,0,0,0,0,0,,,,,,,,,,,,,[],[],10,left,750,30,0.0012851978913844323,0,0,-1,10,696.4046259667414,None,696.3533021002077,696.6564372000284,None,None,None,None,left,1,0.6451383996754885,696.4159603002481,None,None,None,right,10.541894499678165,685.3432975998148,None,685.3432975998148,None,eqdcwr,001,0,fr,2022-05-24_15h35.25.988,3-AFC_adaptive_staircase_mess,2022.1.1,None,
,,,,,7,0,7,0,1,0,1,0,,,,,,,,,,,,,,,,up,750,30,0.0012851978913844323,0,0,-1,10,699.5988153666879,None,698.556357299909,698.889794100076,699.5563384001143,699.8920375001617,None,None,up,1,1.4472520998679101,698.6136762998067,None,None,None,,,,,,,eqdcwr,001,0,fr,2022-05-24_15h35.25.988,3-AFC_adaptive_staircase_mess,2022.1.1,None,
,,,,,7,0,7,0,2,0,2,0,,,,,,,,,,,,,,,,right,750,10,0.00012851978913844324,-1,0,-1,-10,703.6124973665612,None,701.5750557002611,701.9095251001418,702.5979377999902,702.9353904002346,703.5958306998946,703.9277315000072,right,1,2.324677599593997,701.6333792000078,None,None,None,,,,,,,eqdcwr,001,0,fr,2022-05-24_15h35.25.988,3-AFC_adaptive_staircase_mess,2022.1.1,None,
,,,,,7,0,7,0,3,0,3,0,,,,,,,,,,,,,,,,left,750,10,0.00012851978913844324,-1,0,-1,-10,705.5150850667308,705.7321476000361,705.4799683000892,705.8152879998088,None,None,None,None,left,1,0.5830565998330712,705.5335181001574,None,None,None,,,,,,,eqdcwr,001,0,fr,2022-05-24_15h35.25.988,3-AFC_adaptive_staircase_mess,2022.1.1,None,
,,,,,7,0,7,0,4,0,4,0,,,,,,,,,,,,,,,,right,750,0,4.064152580820497e-05,-1,0,-1,-10,709.6663876665446,None,707.6424385998398,707.967889400199,708.6328735002317,708.9630867000669,709.6220964002423,709.9569656001404,left,0,3.193981099873781,707.6998505000956,None,710.1733083999716,None,,,,,,,eqdcwr,001,0,fr,2022-05-24_15h35.25.988,3-AFC_adaptive_staircase_mess,2022.1.1,None,
,,,,,7,0,7,0,5,0,5,0,,,,,,,,,,,,,,,,up,750,5,7.22719885372964e-05,1,1,1,5,713.4464243665027,None,712.3983543999493,712.7313628001139,713.404436300043,713.7390781999566,714.4109982000664,714.7417191998102,right,0,2.6821991996839643,712.4428098001517,None,714.9594482001849,None,,,,,,,eqdcwr,001,0,fr,2022-05-24_15h35.25.988,3-AFC_adaptive_staircase_mess,2022.1.1,None,
,,,,,7,0,7,0,6,0,6,0,,,,,,,,,,,,,,,,left,750,10,0.00012851978913844324,1,1,1,5,716.676882466829,None,716.6271955999546,716.9660263000987,None,None,None,None,left,1,0.5161181995645165,716.6813260000199,None,None,None,,,,,,,eqdcwr,001,0,fr,2022-05-24_15h35.25.988,3-AFC_adaptive_staircase_mess,2022.1.1,None,
,,,,,7,0,7,0,7,0,7,0,,,,,,,,,,,,,,,,left,750,10,0.00012851978913844324,1,1,1,5,718.7311487668815,None,718.6796611999162,719.0138660999946,None,None,None,None,left,1,0.44606149988248944,718.743528299965,None,None,None,,,,,,,eqdcwr,001,0,fr,2022-05-24_15h35.25.988,3-AFC_adaptive_staircase_mess,2022.1.1,None,
,,,,,7,0,7,0,8,0,8,0,,,,,,,,,,,,,,,,left,750,0,4.064152580820497e-05,-1,2,-1,-5.0,720.7451326666089,None,720.7014979999512,721.0315351998433,721.6990539999679,722.0297929998487,722.702043000143,723.0312534999102,left,1,2.546750399749726,720.7465468998998,None,723.2496914998628,None,,,,,,,eqdcwr,001,0,fr,2022-05-24_15h35.25.988,3-AFC_adaptive_staircase_mess,2022.1.1,None,
,,,,,7,0,7,0,9,0,9,0,,,,,,,,,,,,,,,,left,750,0,4.064152580820497e-05,-1,2,-1,-5.0,724.857504666845,None,724.813435500022,725.1470738998614,725.8175015002489,726.1461388999596,726.8160994998179,727.1465763999149,left,1,2.873638399876654,724.8673914000392,None,727.3573317001574,None,,,,,,,eqdcwr,001,0,fr,2022-05-24_15h35.25.988,3-AFC_adaptive_staircase_mess,2022.1.1,None,
,,,,,7,0,7,0,10,0,10,0,,,,,,,,,,,,,,,,up,750,-5.0,2.285440948074376e-05,-1,2,-1,-5.0,730.2903106664928,None,729.2508103,729.5763103999197,730.2470549000427,730.578001299873,731.2507146000862,731.5791837000288,right,0,2.8767721001058817,729.2962966002524,None,731.8250135998242,None,,,,,,,eqdcwr,001,0,fr,2022-05-24_15h35.25.988,3-AFC_adaptive_staircase_mess,2022.1.1,None,
,,,,,7,0,7,0,11,0,11,0,,,,,,,,,,,,,,,,up,750,-2.5,3.0476844862008466e-05,1,3,1,2.5,734.7297867667551,None,733.6842563999817,734.0114600001834,734.6860257000662,735.0163320000283,735.6866743001156,736.0140843000263,up,1,3.7553870999254286,733.7295641000383,None,736.2301444001496,None,,,,,,,eqdcwr,001,0,fr,2022-05-24_15h35.25.988,3-AFC_adaptive_staircase_mess,2022.1.1,None,
,,,,,7,0,7,0,12,0,12,0,,,,,,,,,,,,,,,,right,750,-2.5,3.0476844862008466e-05,1,3,1,2.5,741.0314947665358,None,738.9835824999027,739.3003771002404,739.9849880002439,740.3145745000802,740.9868550002575,741.3164996998385,right,1,2.9914513998664916,739.037576300092,None,741.5351156000979,None,,,,,,,eqdcwr,001,0,fr,2022-05-24_15h35.25.988,3-AFC_adaptive_staircase_mess,2022.1.1,None,
,,,,,7,0,7,0,13,0,13,0,,,,,,,,,,,,,,,,right,750,-7.5,1.7138389327322525e-05,-1,4,-1,-5.0,745.5785883665706,None,743.5333842001855,743.8629687000066,744.5340891000815,744.8717268998735,745.5333000998944,745.8561841002665,right,1,5.1456334996037185,743.5882262000814,None,746.099388900213,None,,,,,,,eqdcwr,001,0,fr,2022-05-24_15h35.25.988,3-AFC_adaptive_staircase_mess,2022.1.1,None,
,,,,,7,0,7,0,14,0,14,0,,,,,,,,,,,,,,,,left,750,-7.5,1.7138389327322525e-05,-1,4,-1,-5.0,750.286779166727,None,750.24176120013,750.5726725999266,751.2451361999847,751.5696562998928,752.2384148002602,752.5638728002086,left,1,3.668748199939728,750.2964905002154,None,752.8080959999934,None,,,,,,,eqdcwr,001,0,fr,2022-05-24_15h35.25.988,3-AFC_adaptive_staircase_mess,2022.1.1,None,
,,,,,7,0,7,0,15,0,15,0,,,,,,,,,,,,,,,,up,750,-12.5,9.637624565954684e-06,-1,4,-1,-5.0,756.5223219665388,None,755.4790388001129,755.8044161000289,756.4781595999375,756.8102449001744,757.4779941998422,757.8135132002644,up,1,3.168252299539745,755.5328522999771,None,758.0340403001755,None,,,,,,,eqdcwr,001,0,fr,2022-05-24_15h35.25.988,3-AFC_adaptive_staircase_mess,2022.1.1,None,
,,,,,7,0,7,0,16,0,16,0,,,,,,,,,,,,,,,,right,750,-12.5,9.637624565954684e-06,-1,4,-1,-5.0,762.2586076665359,None,760.2065535001457,760.536101100035,761.2074615000747,761.5379421999678,762.2156070000492,762.5461774999276,left,0,3.1292158998548985,760.2601684001274,None,762.7636720002629,None,,,,,,,eqdcwr,001,0,fr,2022-05-24_15h35.25.988,3-AFC_adaptive_staircase_mess,2022.1.1,None,
,,,,,7,0,7,0,17,0,17,0,,,,,,,,,,,,,,,,left,750,-10.0,1.2851978913844322e-05,1,5,1,2.5,764.9345566668237,None,764.9178900001571,765.2486021998338,765.9283600999042,766.2519086999819,766.8948395000771,767.2323885001242,left,1,2.5975655997172,764.9448493001983,None,767.4481887998991,None,,,,,,,eqdcwr,001,0,fr,2022-05-24_15h35.25.988,3-AFC_adaptive_staircase_mess,2022.1.1,None,
,,,,,7,0,7,0,18,0,18,0,,,,,,,,,,,,,,,,left,750,-10.0,1.2851978913844322e-05,1,5,1,2.5,769.1136481664764,None,769.0680706999265,769.40017300006,770.0699934000149,770.399651600048,771.0714755002409,771.3904992002062,left,1,2.482596299611032,769.1230759001337,None,771.6143379001878,None,,,,,,,eqdcwr,001,0,fr,2022-05-24_15h35.25.988,3-AFC_adaptive_staircase_mess,2022.1.1,None,
,,,,,7,0,7,0,19,0,19,0,,,,,,,,,,,,,,,,right,750,-15.0,7.22719885372964e-06,-1,6,-1,-5.0,775.1470861668388,None,773.097345800139,773.4225473999977,774.0954936998896,774.4249896998517,775.1025800001808,775.4386312002316,up,0,2.6375576998107135,773.151860400103,None,775.6534819002263,None,,,,,,,eqdcwr,001,0,fr,2022-05-24_15h35.25.988,3-AFC_adaptive_staircase_mess,2022.1.1,None,
,,,,,8,0,8,0,0,0,0,0,,,,,,,,,,,,,[],[],10,left,500,30,0.002259279721874612,0,0,-1,10,778.8420024668487,None,778.7989774998277,779.1262337001972,None,None,None,None,left,1,0.504184199962765,778.8534057000652,None,None,None,up,1.4720636997371912,776.8448013002053,None,776.8448013002053,None,eqdcwr,001,0,fr,2022-05-24_15h35.25.988,3-AFC_adaptive_staircase_mess,2022.1.1,None,
,,,,,8,0,8,0,1,0,1,0,,,,,,,,,,,,,,,,up,500,30,0.002259279721874612,0,0,-1,10,781.9079896668593,None,780.866890899837,781.1918426998891,781.8632378000766,782.1907989000902,None,None,up,1,1.3405633997172117,780.912093500141,None,None,None,,,,,,,eqdcwr,001,0,fr,2022-05-24_15h35.25.988,3-AFC_adaptive_staircase_mess,2022.1.1,None,
,,,,,8,0,8,0,2,0,2,0,,,,,,,,,,,,,,,,right,500,10,0.0002259279721874612,-1,0,-1,-10,785.816415866899,None,783.7705768002197,784.0946418000385,784.7947320002131,785.1278734002262,785.7729898001999,786.1034486000426,right,1,2.299833399709314,783.8251302000135,None,None,None,,,,,,,eqdcwr,001,0,fr,2022-05-24_15h35.25.988,3-AFC_adaptive_staircase_mess,2022.1.1,None,
,,,,,8,0,8,0,3,0,3,0,,,,,,,,,,,,,,,,left,500,10,0.0002259279721874612,-1,0,-1,-10,787.6519681667598,None,787.6084310002625,787.9341569999233,None,None,None,None,left,1,0.48570779990404844,787.6632218002342,None,None,None,,,,,,,eqdcwr,001,0,fr,2022-05-24_15h35.25.988,3-AFC_adaptive_staircase_mess,2022.1.1,None,
,,,,,8,0,8,0,4,0,4,0,,,,,,,,,,,,,,,,left,500,0,7.144469792555515e-05,-1,0,-1,-10,789.6930338666464,None,789.6510888999328,789.9761108001694,None,None,None,None,left,1,0.6935009998269379,789.7031296002679,None,None,None,,,,,,,eqdcwr,001,0,fr,2022-05-24_15h35.25.988,3-AFC_adaptive_staircase_mess,2022.1.1,None,
,,,,,8,0,8,0,5,0,5,0,,,,,,,,,,,,,,,,left,500,0,7.144469792555515e-05,-1,0,-1,-10,791.9430323667514,None,791.9007871998474,792.2195612001233,792.903469200246,None,None,None,left,1,1.10634610010311,791.9550071000122,None,None,None,,,,,,,eqdcwr,001,0,fr,2022-05-24_15h35.25.988,3-AFC_adaptive_staircase_mess,2022.1.1,None,
,,,,,8,0,8,0,6,0,6,0,,,,,,,,,,,,,,,,left,500,-10,2.259279721874613e-05,-1,0,-1,-10,794.620052966817,None,794.5754685001448,794.9053177000023,795.5772325000726,795.903391700238,796.5717878998257,796.9009389998391,up,0,3.2800376997329295,794.6292972001247,None,797.119531000033,None,,,,,,,eqdcwr,001,0,fr,2022-05-24_15h35.25.988,3-AFC_adaptive_staircase_mess,2022.1.1,None,
,,,,,8,0,8,0,7,0,7,0,,,,,,,,,,,,,,,,left,500,-5,4.017630610928089e-05,1,1,1,5,799.4677207666139,None,799.4234629999846,799.7555340002291,800.423434600234,800.7511960002594,801.4311393001117,801.7580138999037,right,0,2.736140999943018,799.4776607998647,None,801.9724571998231,None,,,,,,,eqdcwr,001,0,fr,2022-05-24_15h35.25.988,3-AFC_adaptive_staircase_mess,2022.1.1,None,
,,,,,8,0,8,0,8,0,8,0,,,,,,,,,,,,,,,,right,500,0,7.144469792555515e-05,1,1,1,5,805.780453666641,None,803.7563026002608,804.0878035998903,804.7603046000004,805.090585200116,805.7363082999364,806.0605746000074,right,1,2.6434435001574457,803.8015991002321,None,806.3080636002123,None,,,,,,,eqdcwr,001,0,fr,2022-05-24_15h35.25.988,3-AFC_adaptive_staircase_mess,2022.1.1,None,
,,,,,8,0,8,0,9,0,9,0,,,,,,,,,,,,,,,,right,500,0,7.144469792555515e-05,1,1,1,5,809.9764392665277,None,807.9310718998313,808.2597496001981,808.9307968998328,809.2592246001586,809.9332464998588,810.2612040000968,right,1,2.611365200020373,807.9852944002487,None,810.4785846001469,None,,,,,,,eqdcwr,001,0,fr,2022-05-24_15h35.25.988,3-AFC_adaptive_staircase_mess,2022.1.1,None,
,,,,,8,0,8,0,10,0,10,0,,,,,,,,,,,,,,,,left,500,-10,2.259279721874613e-05,-1,2,-1,-5.0,812.1507800669099,None,812.1061575999483,812.434937399812,813.102548299823,813.4298069998622,814.0971987000667,814.4262966001406,left,1,3.2682933998294175,812.1606371002272,None,814.6737208999693,None,,,,,,,eqdcwr,001,0,fr,2022-05-24_15h35.25.988,3-AFC_adaptive_staircase_mess,2022.1.1,None,
,,,,,8,0,8,0,11,0,11,0,,,,,,,,,,,,,,,,right,500,-10,2.259279721874613e-05,-1,2,-1,-5.0,819.0000419668543,None,816.951168099884,817.2848721002229,817.9569761999883,818.2780263000168,818.9833753001876,819.3128412002698,right,1,2.6052207998000085,817.0081480001099,None,819.5008093002252,None,,,,,,,eqdcwr,001,0,fr,2022-05-24_15h35.25.988,3-AFC_adaptive_staircase_mess,2022.1.1,None,
,,,,,8,0,8,0,12,0,12,0,,,,,,,,,,,,,,,,up,500,-15.0,1.2704863527746532e-05,-1,2,-1,-5.0,822.155550566564,None,821.1104402001947,821.4380736001767,822.1117090000771,822.440086199902,823.1106449998915,823.4429505998269,left,0,2.951021600048989,821.1656018001959,None,823.6590340998955,None,,,,,,,eqdcwr,001,0,fr,2022-05-24_15h35.25.988,3-AFC_adaptive_staircase_mess,2022.1.1,None,
,,,,,8,0,8,0,13,0,13,0,,,,,,,,,,,,,,,,right,500,-12.5,1.6942207806960138e-05,1,3,1,2.5,827.6493491666081,None,825.6080392999575,825.9234143001959,826.603172800038,826.9389184000902,827.6032893001102,827.9251920999959,left,0,2.7600192995741963,825.6612988999113,None,828.1617169999518,None,,,,,,,eqdcwr,001,0,fr,2022-05-24_15h35.25.988,3-AFC_adaptive_staircase_mess,2022.1.1,None,
,,,,,8,0,8,0,14,0,14,0,,,,,,,,,,,,,,,,left,500,-10.0,2.259279721874613e-05,1,3,1,2.5,829.9777125665607,None,829.9321952001192,830.2633485998958,830.9588115001097,831.287222399842,831.9302399000153,832.2571506001987,up,0,14.242379900068045,829.9865839001723,None,832.500327100046,None,,,,,,,eqdcwr,001,0,fr,2022-05-24_15h35.25.988,3-AFC_adaptive_staircase_mess,2022.1.1,None,
,,,,,8,0,8,0,15,0,15,0,,,,,,,,,,,,,,,,up,500,-7.5,3.0127979303717903e-05,1,3,1,2.5,846.789220366689,None,845.7607916002162,846.0932733002119,846.7429033000953,847.0707069002092,847.7498925998807,848.0833636000752,right,0,2.6488918997347355,845.7879682001658,None,848.2993490998633,None,,,,,,,eqdcwr,001,0,fr,2022-05-24_15h35.25.988,3-AFC_adaptive_staircase_mess,2022.1.1,None,
,,,,,8,0,8,0,16,0,16,0,,,,,,,,,,,,,,,,up,500,-5.0,4.017630610928089e-05,1,3,1,2.5,850.9738390665191,None,849.9504321999848,850.2643336001784,850.9279335001484,851.273675700184,851.9338718000799,852.2721779998392,right,0,2.656226399820298,849.9811320002191,None,852.4887439999729,None,,,,,,,eqdcwr,001,0,fr,2022-05-24_15h35.25.988,3-AFC_adaptive_staircase_mess,2022.1.1,None,
,,,,,8,0,8,0,17,0,17,0,,,,,,,,,,,,,,,,up,500,-2.5,5.357596526188033e-05,1,3,1,2.5,855.1707151667836,None,854.1469439002685,854.4771016999148,855.1540485001169,855.4846506002359,856.1401765001938,856.4722994999029,up,1,2.8327036001719534,854.2039393000305,None,856.7080240999348,None,,,,,,,eqdcwr,001,0,fr,2022-05-24_15h35.25.988,3-AFC_adaptive_staircase_mess,2022.1.1,None,
,,,,,8,0,8,0,18,0,18,0,,,,,,,,,,,,,,,,left,500,-2.5,5.357596526188033e-05,1,3,1,2.5,858.5620036665971,None,858.5453369999304,858.8752902001143,859.5415590000339,859.8550917999819,860.5373500999995,860.8663445999846,up,0,2.693987099919468,858.5746376002207,None,861.1035247999243,None,,,,,,,eqdcwr,001,0,fr,2022-05-24_15h35.25.988,3-AFC_adaptive_staircase_mess,2022.1.1,None,
,,,,,8,0,8,0,19,0,19,0,,,,,,,,,,,,,,,,left,500,0.0,7.144469792555515e-05,1,3,1,2.5,862.8315908667321,863.0582928000949,862.7813213998452,863.1216867002659,863.8020319999196,864.136487999931,864.7746051000431,865.0984991998412,up,0,2.9395847995765507,862.8487837002613,None,865.3350450000726,None,,,,,,,eqdcwr,001,0,fr,2022-05-24_15h35.25.988,3-AFC_adaptive_staircase_mess,2022.1.1,None,
,,,,,8,0,8,0,20,0,20,0,,,,,,,,,,,,,,,,left,500,2.5,9.527303589816237e-05,1,3,1,2.5,867.3682558667535,None,867.3195430999622,867.6577535001561,868.3059115000069,None,None,None,left,1,1.0844212998636067,867.3848804999143,None,None,None,,,,,,,eqdcwr,001,0,fr,2022-05-24_15h35.25.988,3-AFC_adaptive_staircase_mess,2022.1.1,None,
,,,,,8,0,8,0,21,0,21,0,,,,,,,,,,,,,,,,up,500,2.5,9.527303589816237e-05,1,3,1,2.5,871.0351635665322,None,869.9919666000642,870.3208347000182,870.9855768000707,871.3257279000245,871.9823143999092,872.3213172000833,left,0,2.9520890996791422,870.0207735998556,None,872.5333138001151,None,,,,,,,eqdcwr,001,0,fr,2022-05-24_15h35.25.988,3-AFC_adaptive_staircase_mess,2022.1.1,None,
,,,,,8,0,8,0,22,0,22,0,,,,,,,,,,,,,,,,left,500,5.0,0.00012704863527746526,1,3,1,2.5,874.5253366665604,None,874.4784985999577,874.7948582000099,None,None,None,None,left,1,0.665601400192827,874.5388525999151,None,None,None,,,,,,,eqdcwr,001,0,fr,2022-05-24_15h35.25.988,3-AFC_adaptive_staircase_mess,2022.1.1,None,
,,,,,8,0,8,0,23,0,23,0,,,,,,,,,,,,,,,,up,500,5.0,0.00012704863527746526,1,3,1,2.5,877.7448436665038,None,876.7199959000573,877.0526319001801,877.7281769998372,878.0409169001505,None,None,up,1,1.544983500149101,876.7799721001647,None,None,None,,,,,,,eqdcwr,001,0,fr,2022-05-24_15h35.25.988,3-AFC_adaptive_staircase_mess,2022.1.1,None,
,,,,,8,0,8,0,24,0,24,0,,,,,,,,,,,,,,,,left,500,0.0,7.144469792555515e-05,-1,4,-1,-5.0,879.9069734668049,None,879.8593549998477,880.2015821002424,880.8523205998354,881.1958432001993,881.8795119002461,882.2202671002597,right,0,3.0861359001137316,879.9187497999519,None,882.4262572000735,None,,,,,,,eqdcwr,001,0,fr,2022-05-24_15h35.25.988,3-AFC_adaptive_staircase_mess,2022.1.1,None,
,,,,,8,0,8,0,25,0,25,0,,,,,,,,,,,,,,,,up,500,2.5,9.527303589816237e-05,1,5,1,2.5,885.582673566478,None,884.5279572000727,884.8602360999212,885.5332738999277,885.8717422001064,None,None,up,1,1.5953909000381827,884.5854580001906,None,None,None,,,,,,,eqdcwr,001,0,fr,2022-05-24_15h35.25.988,3-AFC_adaptive_staircase_mess,2022.1.1,None,
,,,,,8,0,8,0,26,0,26,0,,,,,,,,,,,,,,,,up,500,2.5,9.527303589816237e-05,1,5,1,2.5,888.7562566665622,None,887.6971359001473,888.0313423001207,888.7105352999642,889.0442623002455,889.6992537002079,None,up,1,1.991126799955964,887.7573196999729,None,None,None,,,,,,,eqdcwr,001,0,fr,2022-05-24_15h35.25.988,3-AFC_adaptive_staircase_mess,2022.1.1,None,
,,,,,8,0,8,0,27,0,27,0,,,,,,,,,,,,,,,,left,500,-2.5,5.357596526188033e-05,-1,6,-1,-5.0,891.2831388665984,None,891.2664721999317,891.6113271000795,892.260850599967,None,None,None,left,1,1.0625156997703016,891.2954795002006,None,None,None,,,,,,,eqdcwr,001,0,fr,2022-05-24_15h35.25.988,3-AFC_adaptive_staircase_mess,2022.1.1,None,
,,,,,9,0,9,0,0,0,0,0,,,,,,,,,,,,,[],[],10,right,250,30,0.005296268625886445,0,0,-1,10,898.4879539665455,None,896.4483035001904,896.7811985998414,897.4634007001296,897.7928344998509,898.4712872998789,898.8148242998868,right,1,2.309540099930018,896.5116965998895,None,None,None,up,2.551635999698192,893.4369880999438,None,893.4369880999438,None,eqdcwr,001,0,fr,2022-05-24_15h35.25.988,3-AFC_adaptive_staircase_mess,2022.1.1,None,
,,,,,9,0,9,0,1,0,1,0,,,,,,,,,,,,,,,,left,250,30,0.005296268625886445,0,1,-1,10,900.3880310669231,None,900.3422085000202,900.686332100071,None,None,None,None,right,0,0.40388760017231107,900.4010479999706,None,None,None,,,,,,,eqdcwr,001,0,fr,2022-05-24_15h35.25.988,3-AFC_adaptive_staircase_mess,2022.1.1,None,
,,,,,9,0,9,0,2,0,2,0,,,,,,,,,,,,,,,,up,250,40,0.016748271957891383,1,2,1,2.5,903.3550095665889,None,902.3163288999349,902.6499017998576,903.3092156001367,903.6515104002319,None,None,up,1,1.3711866000667214,902.3461390999146,None,None,None,,,,,,,eqdcwr,001,0,fr,2022-05-24_15h35.25.988,3-AFC_adaptive_staircase_mess,2022.1.1,None,
,,,,,9,0,9,0,3,0,3,0,,,,,,,,,,,,,,,,up,250,40,0.016748271957891383,1,2,1,2.5,906.2883700668501,None,905.2526596002281,905.5730158998631,906.2403732999228,906.5600073998794,None,None,up,1,1.377432500012219,905.3154905000702,None,None,None,,,,,,,eqdcwr,001,0,fr,2022-05-24_15h35.25.988,3-AFC_adaptive_staircase_mess,2022.1.1,None,
,,,,,9,0,9,0,4,0,4,0,,,,,,,,,,,,,,,,left,250,35.0,0.009418245447449004,-1,3,-1,-10,908.2349768668103,None,908.2183102001436,908.5287561998703,None,None,None,None,left,1,0.46178400004282594,908.2471755002625,None,None,None,,,,,,,eqdcwr,001,0,fr,2022-05-24_15h35.25.988,3-AFC_adaptive_staircase_mess,2022.1.1,None,
,,,,,9,0,9,0,5,0,5,0,,,,,,,,,,,,,,,,right,250,35.0,0.009418245447449004,-1,3,-1,-10,912.2510048668521,None,910.223639300093,910.5569489998743,911.2084649000317,911.5392168001272,912.2054326999933,912.5357559002005,right,1,2.3509857999160886,910.2535541001707,None,None,None,,,,,,,eqdcwr,001,0,fr,2022-05-24_15h35.25.988,3-AFC_adaptive_staircase_mess,2022.1.1,None,
,,,,,9,0,9,0,6,0,6,0,,,,,,,,,,,,,,,,up,250,25.0,0.0029783107176450524,-1,3,-1,-10,915.1626420668947,None,914.1188174998388,914.4530807002448,915.1165151000023,915.4608291001059,None,None,up,1,1.4358419999480247,914.177875299938,None,None,None,,,,,,,eqdcwr,001,0,fr,2022-05-24_15h35.25.988,3-AFC_adaptive_staircase_mess,2022.1.1,None,
,,,,,9,0,9,0,7,0,7,0,,,,,,,,,,,,,,,,right,250,25.0,0.0029783107176450524,-1,3,-1,-10,919.1802550666655,None,917.1668875999749,917.5011824998073,918.1654729000293,918.5008181999438,919.1635883999988,919.4737133998424,left,0,2.9981241999194026,917.1998172998428,None,919.6920067002065,None,,,,,,,eqdcwr,001,0,fr,2022-05-24_15h35.25.988,3-AFC_adaptive_staircase_mess,2022.1.1,None,
,,,,,9,0,9,0,8,0,8,0,,,,,,,,,,,,,,,,left,250,30.0,0.005296268625886445,1,4,1,5,921.7567024669299,None,921.7088760999031,922.0200743000023,None,None,None,None,left,1,0.705651099793613,921.7716362001374,None,None,None,,,,,,,eqdcwr,001,0,fr,2022-05-24_15h35.25.988,3-AFC_adaptive_staircase_mess,2022.1.1,None,
,,,,,9,0,9,0,9,0,9,0,,,,,,,,,,,,,,,,up,250,30.0,0.005296268625886445,1,4,1,5,925.0363202668416,None,924.0159466001205,924.3305041999556,924.9897210001945,925.3321563000791,None,None,up,1,1.3104488998651505,924.0464130002074,None,None,None,,,,,,,eqdcwr,001,0,fr,2022-05-24_15h35.25.988,3-AFC_adaptive_staircase_mess,2022.1.1,None,
,,,,,9,0,9,0,10,0,10,0,,,,,,,,,,,,,,,,left,250,20.0,0.0016748271957891384,-1,5,-1,-10,926.8906919668118,None,926.8740253001451,927.213599300012,None,None,None,None,left,1,0.4580168998800218,926.9070443999954,None,None,None,,,,,,,eqdcwr,001,0,fr,2022-05-24_15h35.25.988,3-AFC_adaptive_staircase_mess,2022.1.1,None,
,,,,,9,0,9,0,11,0,11,0,,,,,,,,,,,,,,,,right,250,20.0,0.0016748271957891384,-1,5,-1,-10,930.9044511668073,None,928.8780379001983,929.2142608999275,929.8664418999106,930.207452500239,930.8602415001951,931.189207599964,right,1,2.316963099874556,928.9438312998973,None,None,None,,,,,,,eqdcwr,001,0,fr,2022-05-24_15h35.25.988,3-AFC_adaptive_staircase_mess,2022.1.1,None,
,,,,,9,0,9,0,12,0,12,0,,,,,,,,,,,,,,,,right,250,10.0,0.0005296268625886444,-1,5,-1,-10,934.8030120665828,None,932.7856133999303,933.1199324000627,933.7836830001324,934.1207904000767,934.7863453999162,935.1211406001821,right,1,2.3409598995931447,932.8162928000093,None,None,None,,,,,,,eqdcwr,001,0,fr,2022-05-24_15h35.25.988,3-AFC_adaptive_staircase_mess,2022.1.1,None,
,,,,,9,0,9,0,13,0,13,0,,,,,,,,,,,,,,,,up,250,10.0,0.0005296268625886444,-1,5,-1,-10,None,None,936.6863878001459,None,None,None,None,None,up,1,-1.4708834001794457,936.7169540999457,None,None,None,,,,,,,eqdcwr,001,0,fr,2022-05-24_15h35.25.988,3-AFC_adaptive_staircase_mess,2022.1.1,None,
,,,,,9,0,9,0,14,0,14,0,,,,,,,,,,,,,,,,right,250,0.0,0.0001674827195789138,-1,5,-1,-10,940.235310766908,None,938.2223240998574,938.5389487999491,939.2253129999153,939.5649342001416,940.2186441002414,940.5347041999921,right,1,2.3817107998766005,938.2550097000785,None,None,None,,,,,,,eqdcwr,001,0,fr,2022-05-24_15h35.25.988,3-AFC_adaptive_staircase_mess,2022.1.1,None,
,,,,,9,0,9,0,15,0,15,0,,,,,,,,,,,,,,,,right,250,0.0,0.0001674827195789138,-1,5,-1,-10,944.2066929666946,None,942.1611013999209,942.4955056002364,943.1613745000213,943.4995769001544,944.1581743001007,944.4992968002334,right,1,2.6393458996899426,942.2290296000428,None,944.7189056002535,None,,,,,,,eqdcwr,001,0,fr,2022-05-24_15h35.25.988,3-AFC_adaptive_staircase_mess,2022.1.1,None,
,,,,,9,0,9,0,16,0,16,0,,,,,,,,,,,,,,,,left,250,-10.0,5.296268625886443e-05,-1,5,-1,-10,946.4132453664827,None,946.396578699816,946.736093299929,947.3812569002621,947.709161200095,948.3968961001374,948.7329770000651,left,1,2.512883400078863,946.4285364001989,None,948.9467842001468,None,,,,,,,eqdcwr,001,0,fr,2022-05-24_15h35.25.988,3-AFC_adaptive_staircase_mess,2022.1.1,None,
,,,,,9,0,9,0,17,0,17,0,,,,,,,,,,,,,,,,right,250,-10.0,5.296268625886443e-05,-1,5,-1,-10,952.494812166846,None,950.4362237001769,950.7681813999079,951.4583991998807,951.7953166998923,952.4500326998532,952.7635487001389,up,0,3.0197859001345932,950.4968536002561,None,953.0040000998415,None,,,,,,,eqdcwr,001,0,fr,2022-05-24_15h35.25.988,3-AFC_adaptive_staircase_mess,2022.1.1,None,
,,,,,9,0,9,0,18,0,18,0,,,,,,,,,,,,,,,,left,250,-5.0,9.418245447449e-05,1,6,1,5,955.0958632669101,None,955.0503457998857,955.3838243000209,956.0365299000405,956.3504615998827,957.0615783999674,957.3924580998719,up,0,3.048309799749404,955.1091573000886,None,957.6075842999853,None,,,,,,,eqdcwr,001,0,fr,2022-05-24_15h35.25.988,3-AFC_adaptive_staircase_mess,2022.1.1,None,
,,,,,10,0,10,0,0,0,0,0,,,,,,,,,,,,,[],[],10,up,125,30,0.02285440948074376,0,0,-1,10,962.058112866773,None,961.0241302000359,961.3368350001983,962.0110118999146,962.3481650999747,None,None,up,1,1.5359016000293195,961.0528195998631,None,None,None,up,1.276242499705404,959.2410936998203,None,959.2410936998203,None,eqdcwr,001,0,fr,2022-05-24_15h35.25.988,3-AFC_adaptive_staircase_mess,2022.1.1,None,
,,,,,10,0,10,0,1,0,1,0,,,,,,,,,,,,,,,,up,125,30,0.02285440948074376,0,0,-1,10,965.1609339668105,None,964.1321944999509,964.4617269998416,965.1119564999826,965.4232080001384,None,None,up,1,1.4025463997386396,964.1620689001866,None,None,None,,,,,,,eqdcwr,001,0,fr,2022-05-24_15h35.25.988,3-AFC_adaptive_staircase_mess,2022.1.1,None,
,,,,,10,0,10,0,2,0,2,0,,,,,,,,,,,,,,,,up,125,10,0.002285440948074376,-1,0,-1,-10,968.1006732667486,None,967.0707414001226,967.4005374000408,968.0840066000819,968.4202187000774,None,None,up,1,1.5069375997409225,967.129820600152,None,None,None,,,,,,,eqdcwr,001,0,fr,2022-05-24_15h35.25.988,3-AFC_adaptive_staircase_mess,2022.1.1,None,
,,,,,10,0,10,0,3,0,3,0,,,,,,,,,,,,,,,,up,125,10,0.002285440948074376,-1,0,-1,-10,971.2031483664798,971.4279469000176,970.1528981002048,970.4710039999336,971.1573445000686,971.4868287001736,None,None,up,1,1.342930099926889,970.214178299997,None,None,None,,,,,,,eqdcwr,001,0,fr,2022-05-24_15h35.25.988,3-AFC_adaptive_staircase_mess,2022.1.1,None,
,,,,,10,0,10,0,4,0,4,0,,,,,,,,,,,,,,,,right,125,0,0.000722719885372964,-1,0,-1,-10,975.1137778666491,None,973.0966309998184,973.4119004998356,974.0940539999865,974.412200300023,975.0971111999825,975.4246014999226,right,1,2.5037956996820867,973.1251892000437,None,975.6257591000758,None,,,,,,,eqdcwr,001,0,fr,2022-05-24_15h35.25.988,3-AFC_adaptive_staircase_mess,2022.1.1,None,
,,,,,10,0,10,0,5,0,5,0,,,,,,,,,,,,,,,,right,125,0,0.000722719885372964,-1,0,-1,-10,979.1848383667568,None,977.1401622998528,977.4706162000075,978.1310780998319,978.4614605000243,979.1363857001998,979.4573085000739,right,1,2.3837868999689817,977.2048198999837,None,None,None,,,,,,,eqdcwr,001,0,fr,2022-05-24_15h35.25.988,3-AFC_adaptive_staircase_mess,2022.1.1,None,
,,,,,10,0,10,0,6,0,6,0,,,,,,,,,,,,,,,,up,125,-10,0.0002285440948074376,-1,0,-1,-10,982.1653406667212,None,981.1155806998722,981.4358657002449,982.1195637001656,982.4423110000789,983.1303983000107,983.4665414998308,up,1,2.7827868000604212,981.1739791999571,None,983.6845086999238,None,,,,,,,eqdcwr,001,0,fr,2022-05-24_15h35.25.988,3-AFC_adaptive_staircase_mess,2022.1.1,None,
,,,,,10,0,10,0,7,0,7,0,,,,,,,,,,,,,,,,up,125,-10,0.0002285440948074376,-1,0,-1,-10,None,None,985.4751252001151,985.7932743001729,986.4590245667534,None,None,None,left,0,0.9000028995797038,985.5364510999061,None,None,None,,,,,,,eqdcwr,001,0,fr,2022-05-24_15h35.25.988,3-AFC_adaptive_staircase_mess,2022.1.1,None,
,,,,,10,0,10,0,8,0,8,0,,,,,,,,,,,,,,,,left,125,-5,0.00040641525808204974,1,1,1,5,988.0030980664926,None,987.9492460000329,988.2791337999515,988.9694671002217,989.3073912002146,989.9634012002498,990.2924772999249,left,1,4.097367299720645,988.0195412002504,None,990.5063916998915,None,,,,,,,eqdcwr,001,0,fr,2022-05-24_15h35.25.988,3-AFC_adaptive_staircase_mess,2022.1.1,None,
,,,,,10,0,10,0,9,0,9,0,,,,,,,,,,,,,,,,up,125,-5,0.00040641525808204974,1,1,1,5,994.6956105665924,None,993.6477375999093,993.9823706001043,994.6483179000206,994.9626239999197,None,None,up,1,1.5352932000532746,993.709189500194,None,None,None,,,,,,,eqdcwr,001,0,fr,2022-05-24_15h35.25.988,3-AFC_adaptive_staircase_mess,2022.1.1,None,
,,,,,10,0,10,0,10,0,10,0,,,,,,,,,,,,,,,,up,125,-15,0.00012851978913844324,-1,2,-1,-5.0,997.8049130668553,None,996.7762612998486,997.1133890999481,997.7882464001887,998.1112999999896,998.794803199824,999.1231074999087,up,1,2.6346410997211933,996.8429904999211,None,999.3327506999485,None,,,,,,,eqdcwr,001,0,fr,2022-05-24_15h35.25.988,3-AFC_adaptive_staircase_mess,2022.1.1,None,
,,,,,10,0,10,0,11,0,11,0,,,,,,,,,,,,,,,,right,125,-15,0.00012851978913844324,-1,2,-1,-5.0,1003.0517170667338,None,1001.0204171999358,1001.3280074000359,1002.0107654002495,1002.3391248001717,1003.0049593001604,1003.3299793000333,up,0,3.3803667002357543,1001.0498139001429,None,1003.5621784999967,None,,,,,,,eqdcwr,001,0,fr,2022-05-24_15h35.25.988,3-AFC_adaptive_staircase_mess,2022.1.1,None,
,,,,,10,0,10,0,12,0,12,0,,,,,,,,,,,,,,,,left,125,-12.5,0.00017138389327322524,1,3,1,2.5,1006.0153904664951,None,1005.9622157001868,1006.3023573998362,1006.9694532002322,1007.3095114999451,1007.9672377998941,1008.3048001998104,up,0,2.5786335999146104,1006.0340033001266,None,1008.5204495000653,None,,,,,,,eqdcwr,001,0,fr,2022-05-24_15h35.25.988,3-AFC_adaptive_staircase_mess,2022.1.1,None,
,,,,,10,0,10,0,13,0,13,0,,,,,,,,,,,,,,,,left,125,-10.0,0.0002285440948074376,1,3,1,2.5,1010.1756506665299,None,1010.1285904999822,1010.4660515999421,1011.1459759999998,1011.4710812000558,1012.1262062001042,1012.4577641999349,up,0,3.230599499773234,1010.1899934001267,None,1012.6949267000891,None,,,,,,,eqdcwr,001,0,fr,2022-05-24_15h35.25.988,3-AFC_adaptive_staircase_mess,2022.1.1,None,
,,,,,10,0,10,0,14,0,14,0,,,,,,,,,,,,,,,,right,125,-7.5,0.0003047684486200847,1,3,1,2.5,1016.9804840665931,1017.2094391998835,1014.9336840999313,1015.2637920998968,1015.9423544001766,1016.2581599000841,1016.9354715999216,1017.2671719999053,right,1,2.7149542002007365,1014.9941544001922,None,1017.4936345000751,None,,,,,,,eqdcwr,001,0,fr,2022-05-24_15h35.25.988,3-AFC_adaptive_staircase_mess,2022.1.1,None,
,,,,,10,0,10,0,15,0,15,0,,,,,,,,,,,,,,,,right,125,-7.5,0.0003047684486200847,1,3,1,2.5,1021.2637197669285,None,1019.2394766001962,1019.5646363999695,1020.23637339985,1020.5625150999986,1021.2161206002347,1021.5378256002441,up,0,2.9693227000534534,1019.2686290000565,None,1021.7684883000329,None,,,,,,,eqdcwr,001,0,fr,2022-05-24_15h35.25.988,3-AFC_adaptive_staircase_mess,2022.1.1,None,
,,,,,10,0,10,0,16,0,16,0,,,,,,,,,,,,,,,,right,125,-5.0,0.00040641525808204974,1,3,1,2.5,1025.7873193668822,1026.0143086002208,1023.7465200000443,1024.054176100064,1024.7523304000497,1025.0686189001426,1025.7706527002156,1026.1011039000005,right,1,2.53047230001539,1023.8023379002698,None,1026.3023613002151,None,,,,,,,eqdcwr,001,0,fr,2022-05-24_15h35.25.988,3-AFC_adaptive_staircase_mess,2022.1.1,None,
,,,,,10,0,10,0,17,0,17,0,,,,,,,,,,,,,,,,right,125,-5.0,0.00040641525808204974,1,3,1,2.5,1029.8835524665812,None,1027.8414921001531,1028.154011100065,1028.8263485999778,1029.1400084001943,1029.8274396001361,1030.1519881002605,right,1,2.495714199729264,1027.8687513000332,None,1030.3820854998194,None,,,,,,,eqdcwr,001,0,fr,2022-05-24_15h35.25.988,3-AFC_adaptive_staircase_mess,2022.1.1,None,
,,,,,10,0,10,0,18,0,18,0,,,,,,,,,,,,,,,,left,125,-10.0,0.0002285440948074376,-1,4,-1,-5.0,1031.905057466651,None,1031.8600325002335,1032.1803562999703,1032.8775877002627,1033.1976661002263,1033.880574800074,1034.1944038998336,left,1,2.6868663001805544,1031.9177808999084,None,1034.4152265000157,None,,,,,,,eqdcwr,001,0,fr,2022-05-24_15h35.25.988,3-AFC_adaptive_staircase_mess,2022.1.1,None,
,,,,,10,0,10,0,19,0,19,0,,,,,,,,,,,,,,,,left,125,-10.0,0.0002285440948074376,-1,4,-1,-5.0,1036.1874640668432,1036.4108127998188,1036.1306500998326,1036.464785499964,1037.127774400171,1037.431384800002,1038.136574300006,1038.435896200128,left,1,3.1181076001375914,1036.1990620000288,None,1038.6931445002556,None,,,,,,,eqdcwr,001,0,fr,2022-05-24_15h35.25.988,3-AFC_adaptive_staircase_mess,2022.1.1,None,
,,,,,10,0,10,0,20,0,20,0,,,,,,,,,,,,,,,,left,125,-15.0,0.00012851978913844324,-1,4,-1,-5.0,1040.8551960667285,None,1040.8111414001323,1041.1392171001062,1041.8152172998525,1042.1438935999759,1042.800299699884,1043.135751800146,left,1,2.688352099619806,1040.8687594002113,None,1043.3736425000243,None,,,,,,,eqdcwr,001,0,fr,2022-05-24_15h35.25.988,3-AFC_adaptive_staircase_mess,2022.1.1,None,
,,,,,10,0,10,0,21,0,21,0,,,,,,,,,,,,,,,,up,125,-15.0,0.00012851978913844324,-1,4,-1,-5.0,1046.1050783666471,None,1045.069336200133,1045.3933740002103,1046.0613234001212,1046.390846800059,1047.0876585999504,1047.4339065998793,right,0,3.4679436995647848,1045.128566000145,None,1047.6157376999035,None,,,,,,,eqdcwr,001,0,fr,2022-05-24_15h35.25.988,3-AFC_adaptive_staircase_mess,2022.1.1,None,
,,,,,10,0,10,0,22,0,22,0,,,,,,,,,,,,,,,,up,125,-12.5,0.00017138389327322524,1,5,1,2.5,1051.1543813665087,1051.3809040002525,1050.1431026002392,1050.4559349999763,1051.137714699842,1051.4612918999046,1052.1372325001284,1052.4815703001805,up,1,8.287944799754769,1050.1731130001135,None,1052.6829475001432,None,,,,,,,eqdcwr,001,0,fr,2022-05-24_15h35.25.988,3-AFC_adaptive_staircase_mess,2022.1.1,None,
,,,,,10,0,10,0,23,0,23,0,,,,,,,,,,,,,,,,right,125,-12.5,0.00017138389327322524,1,5,1,2.5,1062.0108232666428,1062.2264680000953,1059.9954395000823,1060.3227284001186,1060.9785576998256,1061.3078532000072,1061.9941565999761,1062.3117498001084,up,0,3.125422100070864,1060.0235931002535,None,1062.5376495001838,None,,,,,,,eqdcwr,001,0,fr,2022-05-24_15h35.25.988,3-AFC_adaptive_staircase_mess,2022.1.1,None,
,,,,,10,0,10,0,24,0,24,0,,,,,,,,,,,,,,,,up,125,-10.0,0.0002285440948074376,1,5,1,2.5,1065.7179927668224,1065.9426938998513,1064.6611242000945,1064.975279700011,1065.6628916999325,1065.9951126999222,1066.7028310000896,1067.0151116000488,up,1,2.983913699630648,1064.71790339984,None,1067.2153618000448,None,,,,,,,eqdcwr,001,0,fr,2022-05-24_15h35.25.988,3-AFC_adaptive_staircase_mess,2022.1.1,None,
,,,,,10,0,10,0,25,0,25,0,,,,,,,,,,,,,,,,left,125,-10.0,0.0002285440948074376,1,5,1,2.5,1069.249770866769,None,1069.2331042001024,1069.5540825999342,1070.2254666001536,1070.5408511999995,1071.2017494998872,1071.5248521999456,up,0,3.204460599925369,1069.2642578999512,None,1071.7810141998343,None,,,,,,,eqdcwr,001,0,fr,2022-05-24_15h35.25.988,3-AFC_adaptive_staircase_mess,2022.1.1,None,
,,,,,10,0,10,0,26,0,26,0,,,,,,,,,,,,,,,,left,125,-7.5,0.0003047684486200847,1,5,1,2.5,1074.0592095666254,None,1074.002928600181,1074.3230266999453,1074.993351300247,1075.304983300157,1075.9981824001297,1076.3379302001558,up,0,2.877798399887979,1074.07071739994,None,1076.5597465001047,None,,,,,,,eqdcwr,001,0,fr,2022-05-24_15h35.25.988,3-AFC_adaptive_staircase_mess,2022.1.1,None,
,,,,,10,0,10,0,27,0,27,0,,,,,,,,,,,,,,,,right,125,-5.0,0.00040641525808204974,1,5,1,2.5,1080.477568066741,None,1078.4392880001105,1078.755239199847,1079.44349540025,1079.763501800131,1080.4609014000744,1080.774055399932,right,1,3.1100212996825576,1078.4958365000784,None,1080.9959240998141,None,,,,,,,eqdcwr,001,0,fr,2022-05-24_15h35.25.988,3-AFC_adaptive_staircase_mess,2022.1.1,None,
,,,,,10,0,10,0,28,0,28,0,,,,,,,,,,,,,,,,left,125,-5.0,0.00040641525808204974,1,5,1,2.5,1083.1677736668537,None,1083.1256101001054,1083.4481084998697,1084.147983000148,1084.4628805001266,1085.131189300213,1085.4454426998273,up,0,2.322305899579078,1083.1793913999572,None,None,None,,,,,,,eqdcwr,001,0,fr,2022-05-24_15h35.25.988,3-AFC_adaptive_staircase_mess,2022.1.1,None,
,,,,,10,0,10,0,29,0,29,0,,,,,,,,,,,,,,,,up,125,-2.5,0.000541963457010602,1,5,1,2.5,1088.1020213668855,1088.324682999868,1087.0653282999992,1087.3794642998837,1088.0547890998423,1088.3796084998176,None,None,up,1,1.7290149996988475,1087.0843613999896,None,None,None,,,,,,,eqdcwr,001,0,fr,2022-05-24_15h35.25.988,3-AFC_adaptive_staircase_mess,2022.1.1,None,
,,,,,10,0,10,0,30,0,30,0,,,,,,,,,,,,,,,,right,125,-2.5,0.000541963457010602,1,5,1,2.5,1092.3743325668077,None,1090.3130900999531,1090.620812300127,1091.3222070001066,1091.6406813999638,1092.330169300083,1092.6568020000122,right,1,2.451333799865097,1090.3695128001273,None,None,None,,,,,,,eqdcwr,001,0,fr,2022-05-24_15h35.25.988,3-AFC_adaptive_staircase_mess,2022.1.1,None,
,,,,,10,0,10,0,31,0,31,0,,,,,,,,,,,,,,,,right,125,-7.5,0.0003047684486200847,-1,6,-1,-5.0,1096.343463266796,1096.5622358000837,1094.305229399819,1094.624699300155,1095.3092771000229,1095.6336089000106,1096.29795739986,1096.6138543002307,right,1,2.6903395000845194,1094.3639277000912,None,1096.8670407999307,None,,,,,,,eqdcwr,001,0,fr,2022-05-24_15h35.25.988,3-AFC_adaptive_staircase_mess,2022.1.1,None,
,,,,,,,,,,,,,,,,,,,,,,,,,,,,,,,,,,,,,,,,,,,,,,,,,,,rctrl,25.07166939973831,1098.1413414999843,None,1098.1413414999843,None,,,,,,,,,
