tTrials.thisRepN,tTrials.thisTrialN,tTrials.thisN,tTrials.thisIndex,blocks.thisRepN,blocks.thisTrialN,blocks.thisN,blocks.thisIndex,trials.thisRepN,trials.thisTrialN,trials.thisN,trials.thisIndex,tStart_text.started,tStart_text.stopped,Prediction,practice_Frequency,practice_Level,practice_Psychopy_Level,practice_isCatchTrial,Practice_trial_detection,practice_Cue_Delays,practice_Cue_Frequencies,practice_Interval,practice_Cue_Intensities,tCue_visual_cue.started,tCue_visual_cue.stopped,tProbe_visual_cue.started,tProbe_visual_cue.stopped,tFeedback.keys,tFeedback.corr,tFeedback.rt,tFeedback.started,tFeedback.stopped,tToo_late.keys,tToo_late.corr,tToo_early.keys,tToo_early.corr,more_instructions.started,more_instructions.stopped,readyy.keys,readyy.rt,readyy.started,readyy.stopped,txt_rhythm.started,txt_rhythm.stopped,sound_1.started,sound_1.stopped,sound_2.started,sound_2.stopped,sound_3.started,sound_3.stopped,sound_4.started,sound_4.stopped,cross.started,cross.stopped,sound_5.started,sound_5.stopped,circle.started,circle.stopped,rhythm_ready.keys,rhythm_ready.rt,rhythm_ready.started,rhythm_ready.stopped,rhytm_ready_txt.started,rhytm_ready_txt.stopped,txt_freq.started,txt_freq.stopped,sound_6.started,sound_6.stopped,sound_7.started,sound_7.stopped,sound_8.started,sound_8.stopped,sound_9.started,sound_9.stopped,cross_2.started,cross_2.stopped,sound_10.started,sound_10.stopped,circle_2.started,circle_2.stopped,freq_ready.keys,freq_ready.rt,freq_ready.started,freq_ready.stopped,freq_ready_txt.started,freq_ready_txt.stopped,txt_freq_2.started,txt_freq_2.stopped,sound_11.started,sound_11.stopped,sound_12.started,sound_12.stopped,sound_13.started,sound_13.stopped,sound_14.started,sound_14.stopped,cross_3.started,cross_3.stopped,sound_15.started,sound_15.stopped,circle_3.started,circle_3.stopped,freq_ready_2.keys,freq_ready_2.rt,freq_ready_2.started,freq_ready_2.stopped,freq_ready_txt_2.started,freq_ready_txt_2.stopped,txt_freq_3.started,txt_freq_3.stopped,sound_16.started,sound_16.stopped,sound_17.started,sound_17.stopped,sound_18.started,sound_18.stopped,sound_19.started,sound_19.stopped,cross_4.started,cross_4.stopped,sound_20.started,sound_20.stopped,circle_4.started,circle_4.stopped,freq_ready_txt_3.started,freq_ready_txt_3.stopped,tStart_text_2.started,tStart_text_2.stopped,this_trial_is.started,this_trial_is.stopped,Frequency,Level,Psychopy_Level,Real trial detection,Cue Delays,Cue Frequencies,Interval,Cue Intensities,Catch trial,cue_visual_cue.started,cue_visual_cue.stopped,probe_visual_cue.started,probe_visual_cue.stopped,feedback.keys,feedback.corr,feedback.rt,feedback.started,feedback.stopped,answer_too_late.keys,answer_too_late.corr,answer_too_early.keys,answer_too_early.corr,answer_too_early.rt,Catch trial answer,Audiogram_frequency,Audiogram_time,Audiogram_none,Audiogram_both,goodbye_text.started,goodbye_text.stopped,key_resp.keys,key_resp.rt,key_resp.started,key_resp.stopped,participant,session,Language (english or french),Skip training? (1 for yes),Resume previous experiment,date,expName,psychopyVersion,frameRate,
0,0,0,0,,,,,,,,,14.725238699931651,None,both,1000,30,0.0013930605843148849,False,1,"[0.5414797086393066, 0.5414797086393066, 0.5414797086393066, 0.5414797086393066]","[629.9605249474365, 707.1067811865474, 793.7005259840997, 890.8987181403393]",Tone,"[30, 30, 30, 30]",42.11923599988222,44.66809819987975,44.66809819987975,45.89169849990867,['space'],1,[0.6389146000146866],44.66809819987975,46.427393599879,None,1,None,1,,,,,,,,,,,,,,,,,,,,,,,,,,,,,,,,,,,,,,,,,,,,,,,,,,,,,,,,,,,,,,,,,,,,,,,,,,,,,,,,,,,,,,,,,,,,,,,,,,,,,,,,,,,,,,,,,,,,,,,,,,,,,,,,,wxbjqe,001,fr,0,0,2022-05-16_17h20.40.211,Cluster,2022.1.1,34.75919009068691,
1,0,1,0,,,,,,,,,,,time,2500,30,0.002716251657462167,False,1,"[0.6973513313876529, 0.6973513313876529, 0.6973513313876529, 0.6973513313876529]","[3552.6811779855743, 4880.930956951027, 900.4435823565775, 206.3840713316907]",None,"[30, 30, 30, 30]",59.18921409989707,62.19953690003604,62.19953690003604,63.40911759994924,['space'],1,[0.8851896999403834],62.19953690003604,64.10956609994173,None,1,None,1,,,,,,,,,,,,,,,,,,,,,,,,,,,,,,,,,,,,,,,,,,,,,,,,,,,,,,,,,,,,,,,,,,,,,,,,,,,,,,,,,,,,,,,,,,,,,,,,,,,,,,,,,,,,,,,,,,,,,,,,,,,,,,,,,wxbjqe,001,fr,0,0,2022-05-16_17h20.40.211,Cluster,2022.1.1,34.75919009068691,
2,0,2,0,,,,,,,,,,,both,6000,30,0.003664122665694519,True,0,"[0.7295998163064026, 0.7295998163064026, 0.7295998163064026, 0.7295998163064026]","[1190.5507889761495, 1783.8106725040816, 2672.696154421018, 4004.5195625101032]",Perfect_5th,"[30, 30, 30, 30]",73.23587849992327,76.35865339986049,76.35865339986049,77.572299499996,['space'],0,[0.5645490998867899],76.35865339986049,78.30522920005023,None,1,None,1,,,,,,,,,,,,,,,,,,,,,,,,,,,,,,,,,,,,,,,,,,,,,,,,,,,,,,,,,,,,,,,,,,,,,,,,,,,,,,,,,,,,,,,,,,,,,,,,,,,,,,,,,,,,,,,,,,,,,,,,,,,,,,,,,wxbjqe,001,fr,0,0,2022-05-16_17h20.40.211,Cluster,2022.1.1,34.75919009068691,
3,0,3,0,,,,,,,,,,,time,440,30,0.0023562289915021436,False,1,"[0.46538275894290815, 0.46538275894290815, 0.46538275894290815, 0.46538275894290815]","[306.79167598150934, 622.1103807752667, 1501.17000560865, 936.647758488344]",None,"[30, 30, 30, 30]",83.84834129991941,86.1663350998424,86.1663350998424,87.39893210004084,['space'],1,[0.7258148000109941],86.1663350998424,87.83298319997266,None,1,None,1,,,,,,,,,,,,,,,,,,,,,,,,,,,,,,,,,,,,,,,,,,,,,,,,,,,,,,,,,,,,,,,,,,,,,,,,,,,,,,,,,,,,,,,,,,,,,,,,,,,,,,,,,,,,,,,,,,,,,,,,,,,,,,,,,wxbjqe,001,fr,0,0,2022-05-16_17h20.40.211,Cluster,2022.1.1,34.75919009068691,
4,0,4,0,,,,,,,,,,,frequency,250,30,0.005296268625886445,True,0,"[0.6547171361291309, 0.7365856580346236, 0.4001886330573008, 0.4246119878031244]","[1259.9210498948732, 840.8964152537146, 561.2310241546866, 374.5767692191704]",Perfect_5th,"[30, 30, 30, 30]",91.11809780006297,93.83990779984742,93.83990779984742,95.06095179985277,['space'],0,[0.7715424001216888],93.83990779984742,95.47024569986388,None,1,None,1,,,,,,,,,,,,,,,,,,,,,,,,,,,,,,,,,,,,,,,,,,,,,,,,,,,,,,,,,,,,,,,,,,,,,,,,,,,,,,,,,,,,,,,,,,,,,,,,,,,,,,,,,,,,,,,,,,,,,,,,,,,,,,,,,wxbjqe,001,fr,0,0,2022-05-16_17h20.40.211,Cluster,2022.1.1,34.75919009068691,
,,,,,,,,,,,,,,,,,,,,,,,,,,,,,,,,,,,,,98.34683230007067,None,n,40.93697310006246,98.34683230007067,None,,,,,,,,,,,,,,,,,,,,,,,,,,,,,,,,,,,,,,,,,,,,,,,,,,,,,,,,,,,,,,,,,,,,,,,,,,,,,,,,,,,,,,,,,,,,,,,,,,,,,,,,,,,,,,,,,,,,,,,,,,,wxbjqe,001,fr,0,0,2022-05-16_17h20.40.211,Cluster,2022.1.1,34.75919009068691,
,,,,,,,,,,,,,,,,,,,,,,,,,,,,,,,,,,,,,,,,,,,139.33453870005906,140.35877100005746,140.8113397098379,141.03385080001317,141.31362811003345,141.52970479987562,141.78644451003055,None,142.29588310995604,None,140.719880099874,142.5235798000358,142.81600790999363,143.0363087998703,142.5235798000358,143.35753859998658,n,3.994143599877134,143.51386970002204,None,,,,,,,,,,,,,,,,,,,,,,,,,,,,,,,,,,,,,,,,,,,,,,,,,,,,,,,,,,,,,,,,,,,,,,,,,,,,,,,,,,,,,,,,,,,,,,,,,,,,,,,wxbjqe,001,fr,0,0,2022-05-16_17h20.40.211,Cluster,2022.1.1,34.75919009068691,
,,,,,,,,,,,,,,,,,,,,,,,,,,,,,,,,,,,,,,,,,,,,,,,,,,,,,,,,,,,,,,,143.51386970002204,None,147.57272169995122,148.59552209987305,149.02160141004714,None,149.32631170998792,149.54538100003265,150.0381892099278,None,150.4297231099801,None,148.92740699998103,150.7318223998882,151.0355114100268,None,150.7318223998882,151.56254049995914,n,5.019944600062445,151.7350971000269,None,,,,,,,,,,,,,,,,,,,,,,,,,,,,,,,,,,,,,,,,,,,,,,,,,,,,,,,,,,,,,,,,,,,,,,,,,,,,,,,,,wxbjqe,001,fr,0,0,2022-05-16_17h20.40.211,Cluster,2022.1.1,34.75919009068691,
,,,,,,,,,,,,,,,,,,,,,,,,,,,,,,,,,,,,,,,,,,,,,,,,,,,,,,,,,,,,,,,,,,,,,,,,,,,,,,,,,,,,,151.7350971000269,None,156.816440399969,157.83852969994769,158.26483870989176,158.48912819987163,158.76560120999346,None,159.26642190983983,None,159.76547000992576,159.98189989989623,158.17145969998091,159.98189989989623,160.2708362100413,None,159.98189989989623,160.78750430000946,n,3.332735200179741,160.9985745998565,None,,,,,,,,,,,,,,,,,,,,,,,,,,,,,,,,,,,,,,,,,,,,,,,,,,,,,,,,,,,wxbjqe,001,fr,0,0,2022-05-16_17h20.40.211,Cluster,2022.1.1,34.75919009068691,
,,,,0,0,0,0,0,0,0,0,,,both,,,,,,,,,,,,,,,,,,,,,,,,,,,,,,,,,,,,,,,,,,,,,,,,,,,,,,,,,,,,,,,,,,,,,,,,,,,,,,,,,,,,,,,,,,,,,160.9985745998565,None,164.3804388998542,165.4144396998454,165.83974020991008,None,166.1255171100376,None,166.83950000994372,None,167.24731590987648,167.4612067998387,165.74644949985668,167.52169559989125,167.83684881001244,168.06230430002324,167.52169559989125,168.34640449984,168.52403219998814,None,169.58733749995008,None,188.35984959988855,None,4990.893155550573,8.0,0.0003821067860516561,1,"[0.5968777234015672, 0.5968777234015672, 0.5968777234015672, 0.5968777234015672]","[7922.5490453818675, 7058.188788934674, 6288.131344454415, 5602.0881542725265]",Tone,"[22.874503533923686, 22.802176100514853, 21.0, 18.0]",False,189.3528744999785,192.17749859998003,192.17749859998003,193.4023263999261,['space'],1,[0.24974950007162988],3.4386439896188676,4.457708589499816,None,1,None,1,,,,,,,,,,,,,wxbjqe,001,fr,0,0,2022-05-16_17h20.40.211,Cluster,2022.1.1,34.75919009068691,
,,,,0,0,0,0,1,0,1,0,,,none,,,,,,,,,,,,,,,,,,,,,,,,,,,,,,,,,,,,,,,,,,,,,,,,,,,,,,,,,,,,,,,,,,,,,,,,,,,,,,,,,,,,,,,,,,,,,,,,,,,,,,,,,,,,,,,,,,,193.839662599843,None,1758.785940483636,3.7612694337334522,9.856023406227888e-05,1,"[0.7740610094353874, 0.7478039563693686, 0.4766205896805528, 0.5057143455710783]","[220.22619063378153, 325.2082804835172, 161.11265000607057, 833.3450857624948]",None,"[8.716273812593965, 7.660359555198436, 9.96367654631023, 10.0]",False,194.85798470000736,197.8813236998394,197.8813236998394,199.09990679984912,['space'],1,[0.1080587999895215],3.541809989605099,4.56057418952696,None,1,None,1,,,,,,,,,,,,,wxbjqe,001,fr,0,0,2022-05-16_17h20.40.211,Cluster,2022.1.1,34.75919009068691,
,,,,0,0,0,0,2,0,2,0,,,none,,,,,,,,,,,,,,,,,,,,,,,,,,,,,,,,,,,,,,,,,,,,,,,,,,,,,,,,,,,,,,,,,,,,,,,,,,,,,,,,,,,,,,,,,,,,,,,,,,,,,,,,,,,,,,,,,,,199.44667820003815,None,353.5533905932738,1.0,9.942466977099573e-05,0,"[0.6891350190273695, 0.6135493221913546, 0.5872909961684115, 0.6471500420017746]","[722.923890668835, 4469.476241000205, 4293.28373211242, 192.83720285771324]",None,"[10.327016674808721, 11.0, 9.572242878055171, 9.645744284578136]",False,200.96362120006233,203.88671089988202,203.88671089988202,205.08981609996408,None,0,,3.594211479416117,4.612123479368165,None,1,['space'],0,[0.556626999983564],,,,,,,,,,,,wxbjqe,001,fr,0,0,2022-05-16_17h20.40.211,Cluster,2022.1.1,34.75919009068691,
,,,,0,0,0,0,3,0,3,0,,,both,,,,,,,,,,,,,,,,,,,,,,,,,,,,,,,,,,,,,,,,,,,,,,,,,,,,,,,,,,,,,,,,,,,,,,,,,,,,,,,,,,,,,,,,,,,,,,,,,,,,,,,,,,,,,,,,,,,205.60378009988926,None,,,,,"[0.7267035668302297, 0.7267035668302297, 0.7267035668302297, 0.7267035668302297]","[4725.695206326663, 3750.786770902011, 2977.001432919129, 2362.8476031633313]",Major_3rd,"[12.0, 7.076096516753575, 7.0, 9.0]",True,206.60455140005797,209.82756090001203,209.82756090001203,211.05635269987397,['space'],0,[0.02277499996125698],3.9449130897410214,4.962440489791334,None,1,None,1,,0,,,,,,,,,,,wxbjqe,001,fr,0,0,2022-05-16_17h20.40.211,Cluster,2022.1.1,34.75919009068691,
,,,,0,0,0,0,4,0,4,0,,,frequency,,,,,,,,,,,,,,,,,,,,,,,,,,,,,,,,,,,,,,,,,,,,,,,,,,,,,,,,,,,,,,,,,,,,,,,,,,,,,,,,,,,,,,,,,,,,,,,,,,,,,,,,,,,,,,,,,,,211.59083199989982,None,5975.611532876786,14.0,0.000585231769364196,1,"[0.5237755702274761, 0.6175324755535874, 0.6652350203337841, 0.7718415290814093]","[2371.4230083604793, 2987.8057664383937, 3764.399378133017, 4742.846016720958]",Major_3rd,"[9.0, 7.0, 7.076096516753575, 13.0]",False,212.58588729985058,215.427584100049,215.427584100049,216.63808499998413,['space'],1,[0.22724459995515645],3.6239402894861996,4.654702289495617,None,1,None,1,,,,,,,,,,,,,wxbjqe,001,fr,0,0,2022-05-16_17h20.40.211,Cluster,2022.1.1,34.75919009068691,
,,,,0,0,0,0,5,0,5,0,,,time,,,,,,,,,,,,,,,,,,,,,,,,,,,,,,,,,,,,,,,,,,,,,,,,,,,,,,,,,,,,,,,,,,,,,,,,,,,,,,,,,,,,,,,,,,,,,,,,,,,,,,,,,,,,,,,,,,,217.263572699856,None,1007.6772922096925,2.7172119853790937,6.0671523207424857e-05,1,"[0.5060878487410809, 0.5060878487410809, 0.5060878487410809, 0.5060878487410809]","[151.15042986534897, 1101.1992238667672, 152.1775027820227, 252.71629836239822]",None,"[9.822047904124807, 8.370891759669666, 9.822047904124807, 7.867026163814435]",False,218.25916179991327,220.80125440005213,220.80125440005213,222.01922370004468,['space'],1,[0.3772418999578804],3.0657038893550634,4.092628289479762,None,1,None,1,,,,,,,,,,,,,wxbjqe,001,fr,0,0,2022-05-16_17h20.40.211,Cluster,2022.1.1,34.75919009068691,
,,,,0,0,0,0,6,0,6,0,,,none,,,,,,,,,,,,,,,,,,,,,,,,,,,,,,,,,,,,,,,,,,,,,,,,,,,,,,,,,,,,,,,,,,,,,,,,,,,,,,,,,,,,,,,,,,,,,,,,,,,,,,,,,,,,,,,,,,,222.37691290001385,None,7660.771478494073,17.0,0.001212401068859158,1,"[0.46522592808238844, 0.5545379569310689, 0.7506365332106562, 0.6751652422073732]","[839.8497947150369, 182.23374536893016, 126.50448228142021, 1643.1611857383557]",None,"[10.0, 9.907445772281816, 9.0, 9.485507020788583]",False,223.37722769984975,226.17285489989445,226.17285489989445,227.37913269991986,['space'],1,[0.219921899959445],3.495440689381212,4.509660389274359,None,1,None,1,,,,,,,,,,,,,wxbjqe,001,fr,0,0,2022-05-16_17h20.40.211,Cluster,2022.1.1,34.75919009068691,
,,,,0,0,0,0,7,0,7,0,,,frequency,,,,,,,,,,,,,,,,,,,,,,,,,,,,,,,,,,,,,,,,,,,,,,,,,,,,,,,,,,,,,,,,,,,,,,,,,,,,,,,,,,,,,,,,,,,,,,,,,,,,,,,,,,,,,,,,,,,227.91881439997815,None,,,,,"[0.43821669274817476, 0.6537354931003978, 0.7595654661233278, 0.448126204552191]","[1162.493163036155, 1035.663668795819, 922.671434954716, 822.0067986658639]",Tone,"[8.212626858769866, 8.717211985379095, 9.204935392988055, 10.154520051482688]",True,228.90858919988386,231.78981400001794,231.78981400001794,233.03358589997515,None,1,,3.3561914896126837,4.359263889491558,None,1,None,1,,0,,,,,,,,,,,wxbjqe,001,fr,0,0,2022-05-16_17h20.40.211,Cluster,2022.1.1,34.75919009068691,
,,,,0,0,0,0,8,0,8,0,,,none,,,,,,,,,,,,,,,,,,,,,,,,,,,,,,,,,,,,,,,,,,,,,,,,,,,,,,,,,,,,,,,,,,,,,,,,,,,,,,,,,,,,,,,,,,,,,,,,,,,,,,,,,,,,,,,,,,,233.291826199973,None,189.4645708137998,3.0,0.00042914588322824827,1,"[0.6922837050123094, 0.6392462435320736, 0.46678279263836914, 0.4192016995532336]","[827.7758014746008, 301.157243896307, 421.28170795915844, 1321.0732349732468]",None,"[10.0, 7.618500119928713, 7.37917840152137, 8.456175848159125]",False,234.32544699986465,237.14485759986565,237.14485759986565,238.3725947998464,['space'],1,[0.4244858000893146],3.2358348895795643,4.249275089474395,None,1,['space'],0,[-3.70161520014517],,,,,,,,,,,,wxbjqe,001,fr,0,0,2022-05-16_17h20.40.211,Cluster,2022.1.1,34.75919009068691,
,,,,0,0,0,0,9,0,9,0,,,none,,,,,,,,,,,,,,,,,,,,,,,,,,,,,,,,,,,,,,,,,,,,,,,,,,,,,,,,,,,,,,,,,,,,,,,,,,,,,,,,,,,,,,,,,,,,,,,,,,,,,,,,,,,,,,,,,,,238.6134540999774,None,141.69467319354092,3.543286576825257,0.000863265776236262,1,"[0.6155548288095385, 0.4034525066351115, 0.7454758285402662, 0.6762403959109916]","[1335.892298769522, 258.6099935833416, 1974.6581825836847, 188.36284306041023]",None,"[8.456175848159125, 7.867026163814435, 9.911413350473453, 9.645744284578136]",False,239.61167580005713,242.40261079999618,242.40261079999618,243.61034330003895,['space'],1,[0.08416630001738667],3.491889489814639,4.509877089876682,None,1,None,1,,,,,,,,,,,,,wxbjqe,001,fr,0,0,2022-05-16_17h20.40.211,Cluster,2022.1.1,34.75919009068691,
,,,,0,0,0,0,10,0,10,0,,,frequency,,,,,,,,,,,,,,,,,,,,,,,,,,,,,,,,,,,,,,,,,,,,,,,,,,,,,,,,,,,,,,,,,,,,,,,,,,,,,,,,,,,,,,,,,,,,,,,,,,,,,,,,,,,,,,,,,,,244.14955019997433,None,353.5533905932738,2.0,0.0001115563142959358,1,"[0.42636850122965175, 0.4959754602116238, 0.6977924359018439, 0.4274884108516316]","[222.72467953508485, 250.00000000000003, 280.6155120773433, 314.9802624737183]",Tone,"[8.716273812593965, 7.867026163814435, 7.59071669085906, 7.618500119928713]",False,245.16172689991072,247.820583099965,247.820583099965,249.0487090998795,['space'],1,[0.2966728999745101],3.0729468897916377,4.08313858974725,None,1,None,1,,,,,,,,,,,,,wxbjqe,001,fr,0,0,2022-05-16_17h20.40.211,Cluster,2022.1.1,34.75919009068691,
,,,,0,0,0,0,11,0,11,0,,,time,,,,,,,,,,,,,,,,,,,,,,,,,,,,,,,,,,,,,,,,,,,,,,,,,,,,,,,,,,,,,,,,,,,,,,,,,,,,,,,,,,,,,,,,,,,,,,,,,,,,,,,,,,,,,,,,,,,249.29719930002466,None,,,,,"[0.48727551477902215, 0.48727551477902215, 0.48727551477902215, 0.48727551477902215]","[713.3024679319468, 453.68700481120726, 4085.261478062075, 2731.222447407009]",None,"[10.327016674808721, 7.433177645562939, 8.074548775468193, 8.0]",True,250.281782399863,252.76833239989355,252.76833239989355,253.98325579985976,['space'],0,[0.49562199995853007],2.995294489664957,4.008376189740375,None,1,None,1,,0,,,,,,,,,,,wxbjqe,001,fr,0,0,2022-05-16_17h20.40.211,Cluster,2022.1.1,34.75919009068691,
,,,,0,0,0,0,12,0,12,0,,,none,,,,,,,,,,,,,,,,,,,,,,,,,,,,,,,,,,,,,,,,,,,,,,,,,,,,,,,,,,,,,,,,,,,,,,,,,,,,,,,,,,,,,,,,,,,,,,,,,,,,,,,,,,,,,,,,,,,254.31339889997616,None,2828.42712474619,0.0,6.548596627134577e-05,1,"[0.4874067929168417, 0.5917663547403467, 0.7899478056656385, 0.4517513385527166]","[2233.3405979383783, 285.11540201533063, 381.99900850441514, 2360.3537741340883]",None,"[9.328888324295757, 7.59071669085906, 7.572849574758852, 9.0]",False,255.3271663999185,258.2319902998861,258.2319902998861,259.435398099944,['space'],1,[0.2432124000042677],3.330369089730084,4.339358389610425,None,1,None,1,,,,,,,,,,,,,wxbjqe,001,fr,0,0,2022-05-16_17h20.40.211,Cluster,2022.1.1,34.75919009068691,
,,,,0,0,0,0,13,0,13,0,,,both,,,,,,,,,,,,,,,,,,,,,,,,,,,,,,,,,,,,,,,,,,,,,,,,,,,,,,,,,,,,,,,,,,,,,,,,,,,,,,,,,,,,,,,,,,,,,,,,,,,,,,,,,,,,,,,,,,,259.7071284998674,None,353.5533905932738,2.0,0.0001115563142959358,0,"[0.659155268790182, 0.659155268790182, 0.659155268790182, 0.659155268790182]","[222.72467953508485, 250.00000000000003, 280.6155120773433, 314.9802624737183]",Tone,"[8.716273812593965, 7.867026163814435, 7.59071669085906, 7.618500119928713]",False,260.77546939998865,263.7821353999898,263.7821353999898,264.99225439992733,None,0,,3.6574227097444236,4.6848890096880496,None,1,['space'],0,[0.48503539990633726],,,,,,,,,,,,wxbjqe,001,fr,0,0,2022-05-16_17h20.40.211,Cluster,2022.1.1,34.75919009068691,
,,,,0,0,0,0,14,0,14,0,,,none,,,,,,,,,,,,,,,,,,,,,,,,,,,,,,,,,,,,,,,,,,,,,,,,,,,,,,,,,,,,,,,,,,,,,,,,,,,,,,,,,,,,,,,,,,,,,,,,,,,,,,,,,,,,,,,,,,,265.5036383999977,None,295.1668677832541,1.5907166908590604,0.0001436763014140758,1,"[0.5466589739097698, 0.47210832345158305, 0.7387661464799639, 0.7560430345212285]","[1880.6229962518098, 6161.948894302826, 1726.5879370370371, 7543.042699972802]",None,"[9.918086234917741, 21.0, 9.761269433733453, 23.136494232287795]",False,266.4936976998579,269.2765128000174,269.2765128000174,270.51101849996485,['space'],1,[0.007382799871265888],3.542331289499998,4.554207589477301,None,1,None,1,,,,,,,,,,,,,wxbjqe,001,fr,0,0,2022-05-16_17h20.40.211,Cluster,2022.1.1,34.75919009068691,
,,,,0,0,0,0,15,0,15,0,,,none,,,,,,,,,,,,,,,,,,,,,,,,,,,,,,,,,,,,,,,,,,,,,,,,,,,,,,,,,,,,,,,,,,,,,,,,,,,,,,,,,,,,,,,,,,,,,,,,,,,,,,,,,,,,,,,,,,,271.07647139998153,None,,,,,"[0.6024486325070453, 0.48654436922975064, 0.45637581115477244, 0.6403132681130351]","[905.5103816313899, 874.4320533491464, 1119.9380426573712, 766.2179015940708]",None,"[9.204935392988055, 9.72102126158546, 8.212626858769866, 10.380278878836705]",True,272.09905399987474,274.6841607999522,274.6841607999522,275.9019164000638,['space'],0,[0.08719330001622438],3.2234509894624352,4.247271289350465,None,1,None,1,,0,,,,,,,,,,,wxbjqe,001,fr,0,0,2022-05-16_17h20.40.211,Cluster,2022.1.1,34.75919009068691,
,,,,0,0,0,0,16,0,16,0,,,frequency,,,,,,,,,,,,,,,,,,,,,,,,,,,,,,,,,,,,,,,,,,,,,,,,,,,,,,,,,,,,,,,,,,,,,,,,,,,,,,,,,,,,,,,,,,,,,,,,,,,,,,,,,,,,,,,,,,,276.3736574999057,None,1127.6812959977203,2.212626858769866,6.372305906608381e-05,1,"[0.6333595263272064, 0.6600022988196024, 0.779830839545592, 0.5876904815291618]","[447.52061888791104, 563.8406479988603, 710.3947012001296, 895.041237775822]",Major_3rd,"[7.37917840152137, 8.769302855033663, 10.327016674808721, 9.72102126158546]",False,277.37024619989097,280.4770750000607,280.4770750000607,281.6890757998917,"['space', 'space']",1,"[0.16421650000847876, 0.22803300013765693]",3.6929070896003395,4.707072689663619,None,1,None,1,,,,,,,,,,,,,wxbjqe,001,fr,0,0,2022-05-16_17h20.40.211,Cluster,2022.1.1,34.75919009068691,
,,,,0,0,0,0,17,0,17,0,,,time,,,,,,,,,,,,,,,,,,,,,,,,,,,,,,,,,,,,,,,,,,,,,,,,,,,,,,,,,,,,,,,,,,,,,,,,,,,,,,,,,,,,,,,,,,,,,,,,,,,,,,,,,,,,,,,,,,,282.11363369994797,None,353.5533905932738,2.0,0.0001115563142959358,1,"[0.5884030600955709, 0.5884030600955709, 0.5884030600955709, 0.5884030600955709]","[484.3342782697968, 374.05042537240513, 580.0422774948004, 2750.686087995021]",None,"[7.685628092737151, 7.572849574758852, 8.769302855033663, 7.437925777140254]",False,283.1504692998715,285.94712159992196,285.94712159992196,287.161472100066,['space'],1,[0.07255739998072386],3.360498189460486,4.379626189591363,None,1,None,1,,,,,,,,,,,,,wxbjqe,001,fr,0,0,2022-05-16_17h20.40.211,Cluster,2022.1.1,34.75919009068691,
,,,,0,0,0,0,18,0,18,0,,,frequency,,,,,,,,,,,,,,,,,,,,,,,,,,,,,,,,,,,,,,,,,,,,,,,,,,,,,,,,,,,,,,,,,,,,,,,,,,,,,,,,,,,,,,,,,,,,,,,,,,,,,,,,,,,,,,,,,,,287.57676009996794,None,189.4645708137998,2.0,0.0003824766710234111,1,"[0.4217895389155723, 0.40976147158054294, 0.7282291798970509, 0.40237708126871435]","[300.7562590205293, 267.9433656340734, 238.71040097760422, 212.666790237714]",Tone,"[7.618500119928713, 7.654204264418274, 8.0, 9.0]",False,288.59461709996685,291.17685739998706,291.17685739998706,292.4054952999577,['space'],1,[0.2666864001657814],2.997401689644903,4.00586868962273,None,1,None,1,,,,,,,,,,,,,wxbjqe,001,fr,0,0,2022-05-16_17h20.40.211,Cluster,2022.1.1,34.75919009068691,
,,,,0,0,0,0,19,0,19,0,,,frequency,,,,,,,,,,,,,,,,,,,,,,,,,,,,,,,,,,,,,,,,,,,,,,,,,,,,,,,,,,,,,,,,,,,,,,,,,,,,,,,,,,,,,,,,,,,,,,,,,,,,,,,,,,,,,,,,,,,292.6399928999599,None,,,,,"[0.6637705614309801, 0.6245919693921487, 0.5571287440478014, 0.5837847187281744]","[319.32907277248074, 402.32942062946023, 506.9033060430655, 638.6581455449613]",Major_3rd,"[7.660359555198436, 7.4560788134613265, 7.685628092737151, 9.985472887324471]",True,293.6491680999752,296.52368370001204,296.52368370001204,297.73915329994634,['space'],0,[0.2827371000312269],3.4647408896125853,4.500060189515352,None,1,None,1,,0,,,,,,,,,,,wxbjqe,001,fr,0,0,2022-05-16_17h20.40.211,Cluster,2022.1.1,34.75919009068691,
,,,,1,0,1,0,0,0,0,0,,,both,,,,,,,,,,,,,,,,,,,,,,,,,,,,,,,,,,,,,,,,,,,,,,,,,,,,,,,,,,,,,,,,,,,,,,,,,,,,,,,,,,,,,,,,,,,,,,,,,,,,,,,,,,,,,,,,,,,312.16285279998556,None,1094.2058551303048,2.370891759669666,6.305517118696541e-05,0,"[0.7249677124693688, 0.7249677124693688, 0.7249677124693688, 0.7249677124693688]","[5514.451959187565, 3680.455124514795, 2456.4090908433423, 1639.4563763016367]",Perfect_5th,"[18.0, 7.0, 8.769482273595965, 9.485507020788583]",False,313.1748386998661,316.3790619999636,316.3790619999636,317.6074522000272,None,0,,3.944570889696479,4.967773189768195,None,1,['space'],0,[0.4880868000909686],,,,,,,,,,,,wxbjqe,001,fr,0,0,2022-05-16_17h20.40.211,Cluster,2022.1.1,34.75919009068691,
,,,,1,0,1,0,1,0,1,0,,,frequency,,,,,,,,,,,,,,,,,,,,,,,,,,,,,,,,,,,,,,,,,,,,,,,,,,,,,,,,,,,,,,,,,,,,,,,,,,,,,,,,,,,,,,,,,,,,,,,,,,,,,,,,,,,,,,,,,,,318.17636330006644,None,5927.0036859981365,14.0,0.0005942154436223406,1,"[0.6350137756970052, 0.5092370458320797, 0.4762995805682784, 0.5614197822574141]","[2352.13297154321, 2963.5018429990687, 3733.7783533967777, 4704.265943086419]",Major_3rd,"[9.0, 7.0, 7.076096516753575, 12.0]",False,319.17466699983925,321.8133717998862,321.8133717998862,323.022874499904,['space'],1,[0.33426770009100437],3.210110989632085,4.211501089623198,None,1,None,1,,,,,,,,,,,,,wxbjqe,001,fr,0,0,2022-05-16_17h20.40.211,Cluster,2022.1.1,34.75919009068691,
,,,,1,0,1,0,2,0,2,0,,,time,,,,,,,,,,,,,,,,,,,,,,,,,,,,,,,,,,,,,,,,,,,,,,,,,,,,,,,,,,,,,,,,,,,,,,,,,,,,,,,,,,,,,,,,,,,,,,,,,,,,,,,,,,,,,,,,,,,323.4223384000361,None,2759.261109815047,1.4379257771402547,8.23480064122452e-05,0,"[0.5469409410796574, 0.5469409410796574, 0.5469409410796574, 0.5469409410796574]","[5817.70551138938, 2170.852729772741, 1591.207198558182, 1111.6043412380743]",None,"[19.0, 9.71510733464561, 9.485507020788583, 8.212626858769866]",False,324.4302449999377,327.1061315999832,327.1061315999832,328.30909450002946,None,0,,3.214139089686796,4.241481989622116,None,1,None,1,,,,,,,,,,,,,wxbjqe,001,fr,0,0,2022-05-16_17h20.40.211,Cluster,2022.1.1,34.75919009068691,
,,,,1,0,1,0,3,0,3,0,,,frequency,,,,,,,,,,,,,,,,,,,,,,,,,,,,,,,,,,,,,,,,,,,,,,,,,,,,,,,,,,,,,,,,,,,,,,,,,,,,,,,,,,,,,,,,,,,,,,,,,,,,,,,,,,,,,,,,,,,328.7032029000111,None,,,,,"[0.4030917280418109, 0.5133636390891506, 0.5619244968261609, 0.4277688570667515]","[1082.6415712469282, 1622.1295279201624, 2430.44815129341, 3641.5576650647636]",Perfect_5th,"[8.370891759669666, 9.485507020788583, 8.769482273595965, 7.0]",True,329.7026038998738,332.21820580004714,332.21820580004714,333.4471302998718,['space'],0,[0.5711737999226898],2.955342889530584,3.9688013896811754,None,1,None,1,,0,,,,,,,,,,,wxbjqe,001,fr,0,0,2022-05-16_17h20.40.211,Cluster,2022.1.1,34.75919009068691,
,,,,1,0,1,0,4,0,4,0,,,frequency,,,,,,,,,,,,,,,,,,,,,,,,,,,,,,,,,,,,,,,,,,,,,,,,,,,,,,,,,,,,,,,,,,,,,,,,,,,,,,,,,,,,,,,,,,,,,,,,,,,,,,,,,,,,,,,,,,,333.6975108999759,None,574.3491774985172,0.0,5.984619860562044e-05,1,"[0.5778017273776135, 0.7186967160838149, 0.47098053191528866, 0.4157563081670484]","[911.7224885582166, 812.2523963562353, 723.6346187201888, 644.6851542197893]",Tone,"[9.204935392988055, 10.154520051482688, 10.327016674808721, 9.985472887324471]",False,334.71105689997785,337.5152221999597,337.5152221999597,338.73745259991847,['space'],1,[0.3671232000924647],3.2145704897120595,4.25715528964065,None,1,None,1,,,,,,,,,,,,,wxbjqe,001,fr,0,0,2022-05-16_17h20.40.211,Cluster,2022.1.1,34.75919009068691,
,,,,1,0,1,0,5,0,5,0,,,frequency,,,,,,,,,,,,,,,,,,,,,,,,,,,,,,,,,,,,,,,,,,,,,,,,,,,,,,,,,,,,,,,,,,,,,,,,,,,,,,,,,,,,,,,,,,,,,,,,,,,,,,,,,,,,,,,,,,,339.00894790003076,None,718.3045929686989,4.32701667480872,7.145793646457329e-05,1,"[0.45081868392280067, 0.6787662603569901, 0.7614692366162332, 0.4469820527494184]","[452.50353845871615, 507.9180486456097, 570.1187332560509, 639.936641110132]",Tone,"[7.433177645562939, 7.685628092737151, 8.769302855033663, 9.985472887324471]",False,340.0061945999041,342.9228153999429,342.9228153999429,344.12867189990357,['space'],1,[0.42429549992084503],3.387447989778593,4.39471198967658,None,1,None,1,,,,,,,,,,,,,wxbjqe,001,fr,0,0,2022-05-16_17h20.40.211,Cluster,2022.1.1,34.75919009068691,
,,,,1,0,1,0,6,0,6,0,,,time,,,,,,,,,,,,,,,,,,,,,,,,,,,,,,,,,,,,,,,,,,,,,,,,,,,,,,,,,,,,,,,,,,,,,,,,,,,,,,,,,,,,,,,,,,,,,,,,,,,,,,,,,,,,,,,,,,,344.4400056998711,None,203.0630990890589,2.0,0.00032661690408859664,0,"[0.7661375083684401, 0.7661375083684401, 0.7661375083684401, 0.7661375083684401]","[3965.347625967305, 4536.027168091559, 190.96796096898674, 233.2048561480506]",None,"[8.0, 11.0, 9.645744284578136, 8.23933879716737]",False,345.46371140005067,348.79112880001776,348.79112880001776,349.99737529992126,None,0,,4.0992314897011966,5.113280489575118,None,1,None,1,,,,,,,,,,,,,wxbjqe,001,fr,0,0,2022-05-16_17h20.40.211,Cluster,2022.1.1,34.75919009068691,
,,,,1,0,1,0,7,0,7,0,,,frequency,,,,,,,,,,,,,,,,,,,,,,,,,,,,,,,,,,,,,,,,,,,,,,,,,,,,,,,,,,,,,,,,,,,,,,,,,,,,,,,,,,,,,,,,,,,,,,,,,,,,,,,,,,,,,,,,,,,350.6238702000119,None,,,,,"[0.48952388939273905, 0.6726737083948906, 0.5385726244845438, 0.489311845428817]","[328.9981497409516, 414.5116942350904, 522.2520089943777, 657.9962994819031]",Major_3rd,"[7.660359555198436, 7.4560788134613265, 8.0, 9.985472887324471]",True,351.6370575998444,354.3673425000161,354.3673425000161,355.5848929998465,['space'],0,[0.41891789995133877],3.219161989632994,4.221626689657569,None,1,None,1,,0,,,,,,,,,,,wxbjqe,001,fr,0,0,2022-05-16_17h20.40.211,Cluster,2022.1.1,34.75919009068691,
,,,,1,0,1,0,8,0,8,0,,,none,,,,,,,,,,,,,,,,,,,,,,,,,,,,,,,,,,,,,,,,,,,,,,,,,,,,,,,,,,,,,,,,,,,,,,,,,,,,,,,,,,,,,,,,,,,,,,,,,,,,,,,,,,,,,,,,,,,355.8877975998912,None,615.5722066724584,1.0,5.99330541482996e-05,1,"[0.4832380257898765, 0.6026613411833814, 0.6673473830836218, 0.7198830158494577]","[299.8637125662171, 3802.0541431353927, 3225.3715652341007, 242.6027044354653]",None,"[7.618500119928713, 7.076096516753575, 6.547565865480125, 8.0]",False,356.91834850003943,359.7054502000101,359.7054502000101,360.9385863998905,['space'],1,[0.07708359998650849],3.4946883898228407,4.506363789783791,None,1,None,1,,,,,,,,,,,,,wxbjqe,001,fr,0,0,2022-05-16_17h20.40.211,Cluster,2022.1.1,34.75919009068691,
,,,,1,0,1,0,9,0,9,0,,,none,,,,,,,,,,,,,,,,,,,,,,,,,,,,,,,,,,,,,,,,,,,,,,,,,,,,,,,,,,,,,,,,,,,,,,,,,,,,,,,,,,,,,,,,,,,,,,,,,,,,,,,,,,,,,,,,,,,361.46723269997165,None,5548.373790063635,12.0,0.0005275877320814296,1,"[0.7713716153954412, 0.758690547338294, 0.5658504081293865, 0.6580228330931074]","[207.06680465179622, 764.096092885748, 846.8666042229389, 628.5258573982737]",None,"[9.0, 10.380278878836705, 10.0, 9.42921453756885]",False,362.45954259997234,365.5884581999853,365.5884581999853,366.81167660001665,['space'],1,[0.28581320005469024],3.7936270895879716,4.8264790896791965,None,1,None,1,,,,,,,,,,,,,wxbjqe,001,fr,0,0,2022-05-16_17h20.40.211,Cluster,2022.1.1,34.75919009068691,
,,,,1,0,1,0,10,0,10,0,,,none,,,,,,,,,,,,,,,,,,,,,,,,,,,,,,,,,,,,,,,,,,,,,,,,,,,,,,,,,,,,,,,,,,,,,,,,,,,,,,,,,,,,,,,,,,,,,,,,,,,,,,,,,,,,,,,,,,,367.32415549992584,None,1319.5079107728945,-3.0,3.7367906570294796e-05,1,"[0.5304716029243086, 0.7396151137098504, 0.6220072154121972, 0.5131563912526109]","[6725.436767907134, 2358.3043641383583, 4511.902461355045, 6660.148015813694]",None,"[22.0, 9.0, 11.0, 22.0]",False,369.0393803999759,371.9698913998436,371.9698913998436,373.17005710001104,['space'],1,[0.4326804999727756],3.4430501395836473,4.453626939561218,None,1,None,1,,,,,,,,,,,,,wxbjqe,001,fr,0,0,2022-05-16_17h20.40.211,Cluster,2022.1.1,34.75919009068691,
,,,,1,0,1,0,11,0,11,0,,,both,,,,,,,,,,,,,,,,,,,,,,,,,,,,,,,,,,,,,,,,,,,,,,,,,,,,,,,,,,,,,,,,,,,,,,,,,,,,,,,,,,,,,,,,,,,,,,,,,,,,,,,,,,,,,,,,,,,373.5273954998702,None,,,,,"[0.6848409540014715, 0.6848409540014715, 0.6848409540014715, 0.6848409540014715]","[240.4300133359402, 214.1987906834538, 190.82942804709984, 170.00969283061536]",Tone,"[8.0, 8.716273812593965, 9.645744284578136, 9.96367654631023]",True,374.537741899956,377.6299363998696,377.6299363998696,378.8478134998586,['space'],0,[0.319272099994123],3.794020789908245,4.819284789729863,None,1,None,1,,0,,,,,,,,,,,wxbjqe,001,fr,0,0,2022-05-16_17h20.40.211,Cluster,2022.1.1,34.75919009068691,
,,,,1,0,1,0,12,0,12,0,,,frequency,,,,,,,,,,,,,,,,,,,,,,,,,,,,,,,,,,,,,,,,,,,,,,,,,,,,,,,,,,,,,,,,,,,,,,,,,,,,,,,,,,,,,,,,,,,,,,,,,,,,,,,,,,,,,,,,,,,379.38306539994664,None,2828.42712474619,0.0,6.548596627134577e-05,1,"[0.7491283282678589, 0.5298437867651147, 0.5748843328650266, 0.7629194656412993]","[4489.848193237493, 4000.000000000001, 3563.594872561358, 3174.8021039363994]",Tone,"[11.0, 8.074548775468193, 6.582063189614965, 6.547565865480125]",False,380.40011979988776,383.2945119999349,383.2945119999349,384.5074263999704,['space'],1,[0.06592379999347031],3.6263837898150086,4.654931289609522,None,1,None,1,,,,,,,,,,,,,wxbjqe,001,fr,0,0,2022-05-16_17h20.40.211,Cluster,2022.1.1,34.75919009068691,
,,,,1,0,1,0,13,0,13,0,,,frequency,,,,,,,,,,,,,,,,,,,,,,,,,,,,,,,,,,,,,,,,,,,,,,,,,,,,,,,,,,,,,,,,,,,,,,,,,,,,,,,,,,,,,,,,,,,,,,,,,,,,,,,,,,,,,,,,,,,385.10252349986695,None,1339.665177524942,2.456175848159125,6.936979152878684e-05,1,"[0.6487529954093281, 0.4246124213180766, 0.40518771023694233, 0.5735925254008848]","[2126.5859120882583, 1894.5726630947333, 1687.8723569748267, 1503.7233192133863]",Tone,"[9.71510733464561, 9.918086234917741, 9.761269433733453, 9.13803236350089]",False,386.0992725000251,388.5965935999993,388.5965935999993,389.80345580005087,['space'],1,[0.2935369999613613],3.105196689721197,4.127402889775112,None,1,None,1,,,,,,,,,,,,,wxbjqe,001,fr,0,0,2022-05-16_17h20.40.211,Cluster,2022.1.1,34.75919009068691,
,,,,1,0,1,0,14,0,14,0,,,none,,,,,,,,,,,,,,,,,,,,,,,,,,,,,,,,,,,,,,,,,,,,,,,,,,,,,,,,,,,,,,,,,,,,,,,,,,,,,,,,,,,,,,,,,,,,,,,,,,,,,,,,,,,,,,,,,,,390.26168420002796,None,426.18058037356536,1.3791784015213704,8.816024617798256e-05,1,"[0.6382270308559193, 0.7101370962323199, 0.551115745468403, 0.5789347740309735]","[153.189780855843, 4752.457228567635, 368.3118152388312, 472.9074467455537]",None,"[9.822047904124807, 13.0, 7.572849574758852, 7.433177645562939]",False,391.283926300006,394.21409019990824,394.21409019990824,395.4299913998693,['space'],1,[0.3242562001105398],3.5101523897610605,4.536558489548042,None,1,None,1,,,,,,,,,,,,,wxbjqe,001,fr,0,0,2022-05-16_17h20.40.211,Cluster,2022.1.1,34.75919009068691,
,,,,1,0,1,0,15,0,15,0,,,none,,,,,,,,,,,,,,,,,,,,,,,,,,,,,,,,,,,,,,,,,,,,,,,,,,,,,,,,,,,,,,,,,,,,,,,,,,,,,,,,,,,,,,,,,,,,,,,,,,,,,,,,,,,,,,,,,,,395.85672040004283,None,203.0630990890589,-3.0,0.00018367018267475058,1,"[0.4139922506875053, 0.6906676388602058, 0.6820003988640752, 0.7054977531286468]","[6547.480003481784, 3037.4753440936374, 5621.657118549245, 180.8450776080428]",None,"[22.0, 6.872527731548502, 18.0, 9.907445772281816]",False,397.7434986999724,400.5567968999967,400.5567968999967,401.77960260002874,['space'],1,[0.4910039999522269],3.544818009249866,4.574304809328169,None,1,None,1,,,,,,,,,,,,,wxbjqe,001,fr,0,0,2022-05-16_17h20.40.211,Cluster,2022.1.1,34.75919009068691,
,,,,1,0,1,0,16,0,16,0,,,both,,,,,,,,,,,,,,,,,,,,,,,,,,,,,,,,,,,,,,,,,,,,,,,,,,,,,,,,,,,,,,,,,,,,,,,,,,,,,,,,,,,,,,,,,,,,,,,,,,,,,,,,,,,,,,,,,,,402.34845059993677,None,,,,,"[0.7048068549374563, 0.7048068549374563, 0.7048068549374563, 0.7048068549374563]","[334.24829070645353, 297.78137373097894, 265.29304414299844, 236.34923295854574]",Tone,"[7.660359555198436, 7.618500119928713, 7.654204264418274, 8.23933879716737]",True,403.36772449989803,406.5033189000096,406.5033189000096,407.71136169997044,None,1,,3.863845889689401,4.877669689711183,None,1,None,1,,0,,,,,,,,,,,wxbjqe,001,fr,0,0,2022-05-16_17h20.40.211,Cluster,2022.1.1,34.75919009068691,
,,,,1,0,1,0,17,0,17,0,,,none,,,,,,,,,,,,,,,,,,,,,,,,,,,,,,,,,,,,,,,,,,,,,,,,,,,,,,,,,,,,,,,,,,,,,,,,,,,,,,,,,,,,,,,,,,,,,,,,,,,,,,,,,,,,,,,,,,,408.27640979993157,None,3222.419393202426,0.5475658654801253,7.486429600925592e-05,1,"[0.7276888369923015, 0.7506375792936015, 0.5014944238194782, 0.6707249942787126]","[3522.797342088823, 7772.835489417345, 984.801642541728, 276.01408741901696]",None,"[6.582063189614965, 23.0, 8.717211985379095, 7.654204264418274]",False,409.27299229986966,412.29050859995186,412.29050859995186,413.5257900999859,['space'],1,[0.42867429996840656],3.7000224897637963,4.7022911896929145,None,1,None,1,,,,,,,,,,,,,wxbjqe,001,fr,0,0,2022-05-16_17h20.40.211,Cluster,2022.1.1,34.75919009068691,
,,,,1,0,1,0,18,0,18,0,,,both,,,,,,,,,,,,,,,,,,,,,,,,,,,,,,,,,,,,,,,,,,,,,,,,,,,,,,,,,,,,,,,,,,,,,,,,,,,,,,,,,,,,,,,,,,,,,,,,,,,,,,,,,,,,,,,,,,,414.0113683999516,None,189.4645708137998,4.0,0.0004815096005698101,1,"[0.42169947433132615, 0.42169947433132615, 0.42169947433132615, 0.42169947433132615]","[477.4208019552084, 378.9291416275996, 300.7562590205292, 238.7104009776042]",Major_3rd,"[7.433177645562939, 7.572849574758852, 7.618500119928713, 8.0]",False,415.03945249994285,417.31753779994324,417.31753779994324,418.53291269997135,['space'],1,[0.23052830016240478],2.7196417895611376,3.736364789539948,None,1,None,1,,,,,,,,,,,,,wxbjqe,001,fr,0,0,2022-05-16_17h20.40.211,Cluster,2022.1.1,34.75919009068691,
,,,,1,0,1,0,19,0,19,0,,,both,,,,,,,,,,,,,,,,,,,,,,,,,,,,,,,,,,,,,,,,,,,,,,,,,,,,,,,,,,,,,,,,,,,,,,,,,,,,,,,,,,,,,,,,,,,,,,,,,,,,,,,,,,,,,,,,,,,418.82130889990367,None,193.4923725598244,3.645744284578136,0.0004399463101547886,1,"[0.5274473563653624, 0.5274473563653624, 0.5274473563653624, 0.5274473563653624]","[487.5702263644479, 386.98474511964884, 307.14999574928805, 243.7851131822239]",Major_3rd,"[7.685628092737151, 7.572849574758852, 7.618500119928713, 8.0]",False,419.81258550006896,422.4335264998954,422.4335264998954,423.6440180998761,['space'],1,[0.2638147999532521],3.1585823895875365,4.16866878955625,None,1,None,1,,,,,,,,,,,,,wxbjqe,001,fr,0,0,2022-05-16_17h20.40.211,Cluster,2022.1.1,34.75919009068691,
,,,,2,0,2,0,0,0,0,0,,,none,,,,,,,,,,,,,,,,,,,,,,,,,,,,,,,,,,,,,,,,,,,,,,,,,,,,,,,,,,,,,,,,,,,,,,,,,,,,,,,,,,,,,,,,,,,,,,,,,,,,,,,,,,,,,,,,,,,426.43874050001614,None,870.5505632961246,-5.0,2.270354786719523e-05,1,"[0.6551019961116586, 0.7370152285794451, 0.5151784973996684, 0.5802430229535475]","[1143.471443241365, 1556.4068887912495, 1913.426592833618, 7088.551845597201]",None,"[8.212626858769866, 9.13803236350089, 9.918086234917741, 22.802176100514853]",False,427.42355969990604,430.3751983998809,430.3751983998809,431.61028139991686,['space'],1,[0.5428073001094162],3.500608889851719,4.514044689713046,None,1,None,1,,,,,,,,,,,,,wxbjqe,001,fr,0,0,2022-05-16_17h20.40.211,Cluster,2022.1.1,34.75919009068691,
,,,,2,0,2,0,1,0,1,0,,,both,,,,,,,,,,,,,,,,,,,,,,,,,,,,,,,,,,,,,,,,,,,,,,,,,,,,,,,,,,,,,,,,,,,,,,,,,,,,,,,,,,,,,,,,,,,,,,,,,,,,,,,,,,,,,,,,,,,431.9933788999915,None,,,,,"[0.5807912317111342, 0.5807912317111342, 0.5807912317111342, 0.5807912317111342]","[135.80978042210558, 203.484755115509, 304.88264862608565, 456.80783005337076]",Perfect_5th,"[9.20953567365234, 9.223996358287932, 7.618500119928713, 7.433177645562939]",True,432.99560999986716,435.758989199996,435.758989199996,436.9806947999168,['space'],0,[0.42295939987525344],3.3612974898424,4.393329689977691,None,1,None,1,,0,,,,,,,,,,,wxbjqe,001,fr,0,0,2022-05-16_17h20.40.211,Cluster,2022.1.1,34.75919009068691,
,,,,2,0,2,0,2,0,2,0,,,time,,,,,,,,,,,,,,,,,,,,,,,,,,,,,,,,,,,,,,,,,,,,,,,,,,,,,,,,,,,,,,,,,,,,,,,,,,,,,,,,,,,,,,,,,,,,,,,,,,,,,,,,,,,,,,,,,,,437.42392039997503,None,4537.540095924202,5.0,0.00021504040562936636,1,"[0.6791810898308137, 0.6791810898308137, 0.6791810898308137, 0.6791810898308137]","[412.94316090582856, 1085.8080684014724, 1648.6122291459874, 222.87192605594004]",None,"[7.4560788134613265, 8.370891759669666, 9.485507020788583, 8.716273812593965]",False,438.4182793998625,441.4738274998963,441.4738274998963,442.6871412000619,['space'],1,[0.36742780008353293],3.7462141897995025,4.773129389621317,None,1,None,1,,,,,,,,,,,,,wxbjqe,001,fr,0,0,2022-05-16_17h20.40.211,Cluster,2022.1.1,34.75919009068691,
,,,,2,0,2,0,3,0,3,0,,,frequency,,,,,,,,,,,,,,,,,,,,,,,,,,,,,,,,,,,,,,,,,,,,,,,,,,,,,,,,,,,,,,,,,,,,,,,,,,,,,,,,,,,,,,,,,,,,,,,,,,,,,,,,,,,,,,,,,,,443.22620579996146,None,287.17458874925893,-3.0,9.068759088766197e-05,0,"[0.44087084542725735, 0.6456434341974071, 0.48136700588950476, 0.4373723316060254]","[1447.2692374403791, 965.9363289248462, 644.68515421979, 430.2757186221653]",Perfect_5th,"[9.0, 9.0, 9.985472887324471, 7.37917840152137]",False,444.23655829997733,446.82628499995917,446.82628499995917,448.05887349997647,None,0,,3.0183314895257354,4.03105638967827,None,1,None,1,,,,,,,,,,,,,wxbjqe,001,fr,0,0,2022-05-16_17h20.40.211,Cluster,2022.1.1,34.75919009068691,
,,,,2,0,2,0,4,0,4,0,,,both,,,,,,,,,,,,,,,,,,,,,,,,,,,,,,,,,,,,,,,,,,,,,,,,,,,,,,,,,,,,,,,,,,,,,,,,,,,,,,,,,,,,,,,,,,,,,,,,,,,,,,,,,,,,,,,,,,,448.3106537000276,None,2639.015821545789,1.0,8.668328211348657e-05,1,"[0.7537095860208589, 0.7537095860208589, 0.7537095860208589, 0.7537095860208589]","[523.6470614103135, 784.584097896751, 1175.547906283609, 1761.3317471922974]",Perfect_5th,"[8.0, 10.380278878836705, 8.212626858769866, 9.761269433733453]",False,449.32709429995157,452.62278179987334,452.62278179987334,453.8320790999569,['space'],1,[0.1175883999094367],4.032830189680681,5.048067589523271,None,1,None,1,,,,,,,,,,,,,wxbjqe,001,fr,0,0,2022-05-16_17h20.40.211,Cluster,2022.1.1,34.75919009068691,
,,,,2,0,2,0,5,0,5,0,,,frequency,,,,,,,,,,,,,,,,,,,,,,,,,,,,,,,,,,,,,,,,,,,,,,,,,,,,,,,,,,,,,,,,,,,,,,,,,,,,,,,,,,,,,,,,,,,,,,,,,,,,,,,,,,,,,,,,,,,454.4157733998727,None,,,,,"[0.6673940044717726, 0.7543648645359415, 0.5069068851217844, 0.7277919889797654]","[230.65130734423263, 345.58648608472225, 517.7946777736842, 775.8154300773919]",Perfect_5th,"[8.23933879716737, 7.652219733616056, 8.0, 10.380278878836705]",True,455.419716599863,458.36222320003435,458.36222320003435,459.57030249992386,None,1,,3.6922246899921447,4.717736889841035,None,1,None,1,,0,,,,,,,,,,,wxbjqe,001,fr,0,0,2022-05-16_17h20.40.211,Cluster,2022.1.1,34.75919009068691,
,,,,2,0,2,0,6,0,6,0,,,time,,,,,,,,,,,,,,,,,,,,,,,,,,,,,,,,,,,,,,,,,,,,,,,,,,,,,,,,,,,,,,,,,,,,,,,,,,,,,,,,,,,,,,,,,,,,,,,,,,,,,,,,,,,,,,,,,,,460.16722119995393,None,574.3491774985172,0.0,5.984619860562044e-05,0,"[0.728701191276428, 0.728701191276428, 0.728701191276428, 0.728701191276428]","[358.45663429958523, 352.7339689930149, 5613.391669560407, 454.986281091324]",None,"[7.652219733616056, 7.652219733616056, 18.0, 7.433177645562939]",False,461.1725266999565,464.3841307000257,464.3841307000257,465.6106829000637,None,0,,3.9318482896778733,4.95784078980796,None,1,None,1,,,,,,,,,,,,,wxbjqe,001,fr,0,0,2022-05-16_17h20.40.211,Cluster,2022.1.1,34.75919009068691,
,,,,2,0,2,0,7,0,7,0,,,time,,,,,,,,,,,,,,,,,,,,,,,,,,,,,,,,,,,,,,,,,,,,,,,,,,,,,,,,,,,,,,,,,,,,,,,,,,,,,,,,,,,,,,,,,,,,,,,,,,,,,,,,,,,,,,,,,,,466.1706685000099,None,4149.375051455348,3.0,0.00013308657397048516,1,"[0.7039038766187159, 0.7039038766187159, 0.7039038766187159, 0.7039038766187159]","[285.674207635183, 5660.082479264809, 6396.353408755264, 5156.792202065067]",None,"[7.59071669085906, 18.360263733267555, 21.854201360753667, 15.0]",False,467.16839189990424,470.29924419987947,470.29924419987947,471.51523080002517,['space'],1,[0.08246610010974109],3.857650689780712,4.8698808897752315,None,1,None,1,,,,,,,,,,,,,wxbjqe,001,fr,0,0,2022-05-16_17h20.40.211,Cluster,2022.1.1,34.75919009068691,
,,,,2,0,2,0,8,0,8,0,,,frequency,,,,,,,,,,,,,,,,,,,,,,,,,,,,,,,,,,,,,,,,,,,,,,,,,,,,,,,,,,,,,,,,,,,,,,,,,,,,,,,,,,,,,,,,,,,,,,,,,,,,,,,,,,,,,,,,,,,472.078042200068,None,3662.0608242229096,1.0,8.752639511388378e-05,1,"[0.606176681381474, 0.6169188733081592, 0.583580961027937, 0.4758304524843017]","[5813.159204742979, 5178.936083851234, 4613.907518433813, 4110.524293790758]",Tone,"[19.0, 15.0, 11.505687850120704, 9.0]",False,473.0900834999047,475.92417149990797,475.92417149990797,477.15676010004245,['space'],1,[0.6100241998210549],3.312389589380473,4.326434489572421,None,1,None,1,,,,,,,,,,,,,wxbjqe,001,fr,0,0,2022-05-16_17h20.40.211,Cluster,2022.1.1,34.75919009068691,
,,,,2,0,2,0,9,0,9,0,,,time,,,,,,,,,,,,,,,,,,,,,,,,,,,,,,,,,,,,,,,,,,,,,,,,,,,,,,,,,,,,,,,,,,,,,,,,,,,,,,,,,,,,,,,,,,,,,,,,,,,,,,,,,,,,,,,,,,,477.4533625000622,None,164.93848884661182,7.0,0.0008801206631839937,1,"[0.717861833318417, 0.717861833318417, 0.717861833318417, 0.717861833318417]","[232.68412275022098, 349.68549958332875, 181.32377024575743, 7752.4996783893685]",None,"[8.23933879716737, 7.652219733616056, 9.907445772281816, 23.0]",False,478.48654609988444,481.66251509985887,481.66251509985887,482.8704307000153,['space'],1,[0.008453699992969632],3.911702589597553,4.931763289729133,None,1,None,1,,,,,,,,,,,,,wxbjqe,001,fr,0,0,2022-05-16_17h20.40.211,Cluster,2022.1.1,34.75919009068691,
,,,,2,0,2,0,10,0,10,0,,,frequency,,,,,,,,,,,,,,,,,,,,,,,,,,,,,,,,,,,,,,,,,,,,,,,,,,,,,,,,,,,,,,,,,,,,,,,,,,,,,,,,,,,,,,,,,,,,,,,,,,,,,,,,,,,,,,,,,,,483.45921040000394,None,2143.5469250725882,-3.0,5.521540081768751e-05,0,"[0.6908479772915543, 0.6347772513986867, 0.4520725560586172, 0.6305428093943243]","[425.3335804754283, 637.2803136596317, 954.8416039104175, 1430.6459324352597]",Perfect_5th,"[7.37917840152137, 9.42921453756885, 9.0, 8.770267240523891]",False,484.46728320000693,487.2703180999961,487.2703180999961,488.50205160002224,None,0,,3.4244544894900173,4.460311589529738,None,1,None,1,,,,,,,,,,,,,wxbjqe,001,fr,0,0,2022-05-16_17h20.40.211,Cluster,2022.1.1,34.75919009068691,
,,,,2,0,2,0,11,0,11,0,,,none,,,,,,,,,,,,,,,,,,,,,,,,,,,,,,,,,,,,,,,,,,,,,,,,,,,,,,,,,,,,,,,,,,,,,,,,,,,,,,,,,,,,,,,,,,,,,,,,,,,,,,,,,,,,,,,,,,,488.98161059990525,None,5557.632519906186,12.0,0.0005262284830745323,1,"[0.7864797675844161, 0.7714712718710259, 0.5219994065773393, 0.7514269759872487]","[6478.604395077004, 206.451116073605, 415.19903172318675, 4012.494440899126]",None,"[21.854201360753667, 9.0, 7.4560788134613265, 8.074548775468193]",False,489.98676240001805,493.08844699990004,493.08844699990004,494.3120905000251,['space'],1,[0.29676379985176027],3.8632907897699624,4.894136589718983,None,1,None,1,,,,,,,,,,,,,wxbjqe,001,fr,0,0,2022-05-16_17h20.40.211,Cluster,2022.1.1,34.75919009068691,
,,,,2,0,2,0,12,0,12,0,,,none,,,,,,,,,,,,,,,,,,,,,,,,,,,,,,,,,,,,,,,,,,,,,,,,,,,,,,,,,,,,,,,,,,,,,,,,,,,,,,,,,,,,,,,,,,,,,,,,,,,,,,,,,,,,,,,,,,,494.92168259993196,None,,,,,"[0.6523054465932074, 0.5355304741011958, 0.7504520574159743, 0.7958259807216191]","[553.7653125515155, 799.7955874943972, 1222.0449575197815, 793.6006981571728]",None,"[8.154885445641483, 10.154520051482688, 8.251987933046767, 10.154520051482688]",True,495.9132818998769,498.88680580002256,498.88680580002256,500.0864353000652,None,1,,3.7709842894691974,4.782046089414507,None,1,None,1,,0,,,,,,,,,,,wxbjqe,001,fr,0,0,2022-05-16_17h20.40.211,Cluster,2022.1.1,34.75919009068691,
,,,,2,0,2,0,13,0,13,0,,,time,,,,,,,,,,,,,,,,,,,,,,,,,,,,,,,,,,,,,,,,,,,,,,,,,,,,,,,,,,,,,,,,,,,,,,,,,,,,,,,,,,,,,,,,,,,,,,,,,,,,,,,,,,,,,,,,,,,500.73102930001915,None,932.5250289597916,3.204935392988056,6.093775830113022e-05,1,"[0.5216942407691848, 0.5216942407691848, 0.5216942407691848, 0.5216942407691848]","[1550.013039585651, 1268.2054180075431, 591.9676187766925, 873.3403627559352]",None,"[9.13803236350089, 8.251987933046767, 9.0, 9.72102126158546]",False,501.72856399999,504.3269348000176,504.3269348000176,505.532732399879,['space'],1,[0.5707805999554694],3.1203142895828933,4.138238889630884,None,1,None,1,,,,,,,,,,,,,wxbjqe,001,fr,0,0,2022-05-16_17h20.40.211,Cluster,2022.1.1,34.75919009068691,
,,,,2,0,2,0,14,0,14,0,,,frequency,,,,,,,,,,,,,,,,,,,,,,,,,,,,,,,,,,,,,,,,,,,,,,,,,,,,,,,,,,,,,,,,,,,,,,,,,,,,,,,,,,,,,,,,,,,,,,,,,,,,,,,,,,,,,,,,,,,505.90779879991896,None,2622.4535840830727,2.11134830558945,9.982752874466375e-05,1,"[0.5857317552727049, 0.5212764299425662, 0.5155236948154257, 0.5509947363289092]","[4162.885578111245, 3708.7094253042137, 3304.0844729585183, 2943.6046215861425]",Tone,"[9.0, 7.0, 6.547565865480125, 7.0]",False,506.911911000032,509.5579472000245,509.5579472000245,510.77466009999625,['space'],1,[0.4517041000071913],3.199438489507884,4.202498089522123,None,1,None,1,,,,,,,,,,,,,wxbjqe,001,fr,0,0,2022-05-16_17h20.40.211,Cluster,2022.1.1,34.75919009068691,
,,,,2,0,2,0,15,0,15,0,,,both,,,,,,,,,,,,,,,,,,,,,,,,,,,,,,,,,,,,,,,,,,,,,,,,,,,,,,,,,,,,,,,,,,,,,,,,,,,,,,,,,,,,,,,,,,,,,,,,,,,,,,,,,,,,,,,,,,,511.1515819998458,None,480.7751819445697,1.4331776455629386,8.541999091740693e-05,1,"[0.794014431626007, 0.794014431626007, 0.794014431626007, 0.794014431626007]","[2422.955087996004, 1617.1285081605643, 1079.3037910036264, 720.3488574942229]",Perfect_5th,"[9.0, 9.485507020788583, 8.370891759669666, 10.327016674808721]",False,512.157445400022,515.552668399876,515.552668399876,516.7608795999549,['space'],1,[0.22758950013667345],4.220016689505428,5.231807689415291,None,1,None,1,,,,,,,,,,,,,wxbjqe,001,fr,0,0,2022-05-16_17h20.40.211,Cluster,2022.1.1,34.75919009068691,
,,,,2,0,2,0,16,0,16,0,,,frequency,,,,,,,,,,,,,,,,,,,,,,,,,,,,,,,,,,,,,,,,,,,,,,,,,,,,,,,,,,,,,,,,,,,,,,,,,,,,,,,,,,,,,,,,,,,,,,,,,,,,,,,,,,,,,,,,,,,517.426838299958,None,,,,,"[0.6758157802178668, 0.7441275873012835, 0.5405059690870072, 0.42532699791745565]","[3262.1250992619043, 2177.2072958915846, 1453.1115346729289, 969.8355945178037]",Perfect_5th,"[6.547565865480125, 9.71510733464561, 9.0, 9.0]",True,518.421045599971,521.4115279000252,521.4115279000252,522.6128610998858,None,1,,3.4284333896357566,4.435543689643964,None,1,None,1,,0,,,,,,,,,,,wxbjqe,001,fr,0,0,2022-05-16_17h20.40.211,Cluster,2022.1.1,34.75919009068691,
,,,,2,0,2,0,17,0,17,0,,,none,,,,,,,,,,,,,,,,,,,,,,,,,,,,,,,,,,,,,,,,,,,,,,,,,,,,,,,,,,,,,,,,,,,,,,,,,,,,,,,,,,,,,,,,,,,,,,,,,,,,,,,,,,,,,,,,,,,522.8857670999132,None,2143.5469250725882,-3.0,5.521540081768751e-05,0,"[0.73011723906709, 0.474334312093478, 0.6471737145011011, 0.650984507907856]","[140.8724256960815, 279.88958782692777, 805.4389546533981, 260.63318786054646]",None,"[9.543286576825256, 7.59071669085906, 10.154520051482688, 7.654204264418274]",False,523.9570438999217,526.8251610998996,526.8251610998996,528.0434045000002,None,0,,3.507609109627083,4.522726709488779,None,1,None,1,,,,,,,,,,,,,wxbjqe,001,fr,0,0,2022-05-16_17h20.40.211,Cluster,2022.1.1,34.75919009068691,
,,,,2,0,2,0,18,0,18,0,,,both,,,,,,,,,,,,,,,,,,,,,,,,,,,,,,,,,,,,,,,,,,,,,,,,,,,,,,,,,,,,,,,,,,,,,,,,,,,,,,,,,,,,,,,,,,,,,,,,,,,,,,,,,,,,,,,,,,,528.5346333000343,None,757.8582832551998,-2.0,3.199889122806967e-05,0,"[0.4508378621896001, 0.4508378621896001, 0.4508378621896001, 0.4508378621896001]","[3819.3664156416708, 2549.1212546385273, 1701.3343219017133, 1135.5044290708786]",Perfect_5th,"[7.076096516753575, 8.769482273595965, 9.761269433733453, 8.212626858769866]",False,529.5422652000561,531.9118955000304,531.9118955000304,533.1198455998674,None,0,,2.816724389558658,3.8377160895615816,None,1,None,1,,,,,,,,,,,,,wxbjqe,001,fr,0,0,2022-05-16_17h20.40.211,Cluster,2022.1.1,34.75919009068691,
,,,,2,0,2,0,19,0,19,0,,,none,,,,,,,,,,,,,,,,,,,,,,,,,,,,,,,,,,,,,,,,,,,,,,,,,,,,,,,,,,,,,,,,,,,,,,,,,,,,,,,,,,,,,,,,,,,,,,,,,,,,,,,,,,,,,,,,,,,533.4280882999301,None,1869.968947536104,3.918086234917742,0.00010823771016544963,0,"[0.7619072117164133, 0.7178435595990137, 0.5787983628770832, 0.48063783146217276]","[3990.1596588547945, 578.7621742030128, 129.8047026005573, 4377.835446380133]",None,"[8.074548775468193, 8.769302855033663, 9.0, 10.0]",False,534.4210923998617,537.5023206998594,537.5023206998594,538.7280403999612,None,0,,3.566525489790365,4.585958389798179,None,1,None,1,,,,,,,,,,,,,wxbjqe,001,fr,0,0,2022-05-16_17h20.40.211,Cluster,2022.1.1,34.75919009068691,
,,,,3,0,3,0,0,0,0,0,,,none,,,,,,,,,,,,,,,,,,,,,,,,,,,,,,,,,,,,,,,,,,,,,,,,,,,,,,,,,,,,,,,,,,,,,,,,,,,,,,,,,,,,,,,,,,,,,,,,,,,,,,,,,,,,,,,,,,,540.0911464998499,None,176.7766952966369,-6.0,0.0001754260451641794,0,"[0.600624998614998, 0.7558563742079911, 0.5792248591027838, 0.7697630511943387]","[493.3576845404008, 557.5694651464012, 5051.711755895322, 3195.027811129269]",None,"[7.685628092737151, 8.769302855033663, 15.0, 6.547565865480125]",False,541.1130613000132,544.0644818998408,544.0644818998408,545.2656801999547,None,0,,3.7157648897264153,4.725412889616564,None,1,None,1,,,,,,,,,,,,,wxbjqe,001,fr,0,0,2022-05-16_17h20.40.211,Cluster,2022.1.1,34.75919009068691,
,,,,3,0,3,0,1,0,1,0,,,both,,,,,,,,,,,,,,,,,,,,,,,,,,,,,,,,,,,,,,,,,,,,,,,,,,,,,,,,,,,,,,,,,,,,,,,,,,,,,,,,,,,,,,,,,,,,,,,,,,,,,,,,,,,,,,,,,,,545.8909860998392,None,,,,,"[0.4646478221484802, 0.4646478221484802, 0.4646478221484802, 0.4646478221484802]","[1032.6711990426356, 1301.084181293995, 1639.2633476975416, 2065.342398085271]",Major_3rd,"[8.717211985379095, 8.456175848159125, 9.485507020788583, 9.911413350473453]",True,546.9021137000527,549.3276666998863,549.3276666998863,550.5339839998633,None,1,,2.897846889682114,3.9064856895711273,None,1,None,1,,0,,,,,,,,,,,wxbjqe,001,fr,0,0,2022-05-16_17h20.40.211,Cluster,2022.1.1,34.75919009068691,
,,,,3,0,3,0,2,0,2,0,,,time,,,,,,,,,,,,,,,,,,,,,,,,,,,,,,,,,,,,,,,,,,,,,,,,,,,,,,,,,,,,,,,,,,,,,,,,,,,,,,,,,,,,,,,,,,,,,,,,,,,,,,,,,,,,,,,,,,,550.8427464000415,None,1319.5079107728945,-4.0,3.3304181786869376e-05,0,"[0.7706975239597604, 0.7706975239597604, 0.7706975239597604, 0.7706975239597604]","[1942.0065254241097, 385.04528232228813, 408.5806035239085, 1726.6474641565042]",None,"[9.911413350473453, 7.572849574758852, 7.4560788134613265, 9.761269433733453]",False,551.8682412998751,555.2135302999523,555.2135302999523,556.4169864000287,None,0,,4.104742089752108,5.130692789563909,None,1,None,1,,,,,,,,,,,,,wxbjqe,001,fr,0,0,2022-05-16_17h20.40.211,Cluster,2022.1.1,34.75919009068691,
,,,,3,0,3,0,3,0,3,0,,,both,,,,,,,,,,,,,,,,,,,,,,,,,,,,,,,,,,,,,,,,,,,,,,,,,,,,,,,,,,,,,,,,,,,,,,,,,,,,,,,,,,,,,,,,,,,,,,,,,,,,,,,,,,,,,,,,,,,557.047190999845,None,5154.944925293891,9.0,0.0004143932021304856,1,"[0.4906155293041927, 0.4906155293041927, 0.4906155293041927, 0.4906155293041927]","[1022.8706246562067, 1532.5742956516663, 2296.266913014187, 3440.512966166928]",Perfect_5th,"[8.717211985379095, 9.13803236350089, 9.328888324295757, 6.582063189614965]",False,558.0638400998432,560.5571975999046,560.5571975999046,561.7818110999651,['space'],1,[0.31029559997841716],2.998545189620927,4.021507789613679,None,1,None,1,,,,,,,,,,,,,wxbjqe,001,fr,0,0,2022-05-16_17h20.40.211,Cluster,2022.1.1,34.75919009068691,
,,,,3,0,3,0,4,0,4,0,,,frequency,,,,,,,,,,,,,,,,,,,,,,,,,,,,,,,,,,,,,,,,,,,,,,,,,,,,,,,,,,,,,,,,,,,,,,,,,,,,,,,,,,,,,,,,,,,,,,,,,,,,,,,,,,,,,,,,,,,562.1219313999172,None,812.2523963562351,-4.0,2.4428340265159555e-05,0,"[0.6942391032784185, 0.48627078357163395, 0.7627319752062109, 0.4510297694975301]","[511.68694599838705, 574.3491774985171, 644.6851542197892, 723.6346187201887]",Tone,"[7.685628092737151, 8.769302855033663, 9.985472887324471, 10.327016674808721]",False,563.1349845000077,566.114656599937,566.114656599937,567.3246510999743,None,0,,3.427325189812109,4.4300672898534685,None,1,None,1,,,,,,,,,,,,,wxbjqe,001,fr,0,0,2022-05-16_17h20.40.211,Cluster,2022.1.1,34.75919009068691,
,,,,3,0,3,0,5,0,5,0,,,frequency,,,,,,,,,,,,,,,,,,,,,,,,,,,,,,,,,,,,,,,,,,,,,,,,,,,,,,,,,,,,,,,,,,,,,,,,,,,,,,,,,,,,,,,,,,,,,,,,,,,,,,,,,,,,,,,,,,,567.6059946999885,None,1539.1191179640489,3.1380323635008915,7.406499083488257e-05,1,"[0.6850986495135709, 0.6728446723985341, 0.599023794739117, 0.40619896345508816]","[610.7998267401248, 769.5595589820246, 969.5842875092679, 1221.5996534802493]",Major_3rd,"[9.42921453756885, 10.380278878836705, 9.0, 8.251987933046767]",False,568.6112947000656,571.6080811999273,571.6080811999273,572.8155264998786,['space'],1,[0.2533654000144452],3.3867938895709813,4.39310168963857,None,1,None,1,,,,,,,,,,,,,wxbjqe,001,fr,0,0,2022-05-16_17h20.40.211,Cluster,2022.1.1,34.75919009068691,
,,,,3,0,3,0,6,0,6,0,,,none,,,,,,,,,,,,,,,,,,,,,,,,,,,,,,,,,,,,,,,,,,,,,,,,,,,,,,,,,,,,,,,,,,,,,,,,,,,,,,,,,,,,,,,,,,,,,,,,,,,,,,,,,,,,,,,,,,,573.0396771000233,None,,,,,"[0.43585973997387073, 0.7848594431209973, 0.502067178134598, 0.4910591084029563]","[3457.9431366711756, 129.3944764481443, 2868.8060599372366, 654.1392267661327]",None,"[6.582063189614965, 9.0, 7.437925777140254, 9.985472887324471]",True,574.0530123000499,576.8058662998956,576.8058662998956,578.0188748000655,None,1,,3.2376080898102373,4.260026289848611,None,1,None,1,,0,,,,,,,,,,,wxbjqe,001,fr,0,0,2022-05-16_17h20.40.211,Cluster,2022.1.1,34.75919009068691,
,,,,3,0,3,0,7,0,7,0,,,frequency,,,,,,,,,,,,,,,,,,,,,,,,,,,,,,,,,,,,,,,,,,,,,,,,,,,,,,,,,,,,,,,,,,,,,,,,,,,,,,,,,,,,,,,,,,,,,,,,,,,,,,,,,,,,,,,,,,,578.3565309999976,None,435.2752816480623,-3.0,5.2920307191259255e-05,0,"[0.5837081991023375, 0.7296110787894041, 0.7905336192548689, 0.4293088956205977]","[274.2062449236566, 307.7861033362292, 345.4782199919442, 387.78619045843385]",Tone,"[7.654204264418274, 7.618500119928713, 7.652219733616056, 7.572849574758852]",False,579.3840191999916,582.5229784999974,582.5229784999974,583.7278622000013,None,0,,3.5659992897417396,4.574978689663112,None,1,None,1,,,,,,,,,,,,,wxbjqe,001,fr,0,0,2022-05-16_17h20.40.211,Cluster,2022.1.1,34.75919009068691,
,,,,3,0,3,0,8,0,8,0,,,none,,,,,,,,,,,,,,,,,,,,,,,,,,,,,,,,,,,,,,,,,,,,,,,,,,,,,,,,,,,,,,,,,,,,,,,,,,,,,,,,,,,,,,,,,,,,,,,,,,,,,,,,,,,,,,,,,,,584.0028218000662,None,499.4926968696602,1.6856280927371508,8.677786300603358e-05,1,"[0.5209178511160516, 0.7399165160343785, 0.5675883085475226, 0.583142037447921]","[320.8619219490872, 296.11557784250306, 369.91674384857026, 2473.7201133373505]",None,"[7.660359555198436, 7.59071669085906, 7.572849574758852, 8.769482273595965]",False,584.9994127000682,587.8618884999305,587.8618884999305,589.0986053999513,['space'],1,[0.2487443001009524],3.466293789446354,4.46914408961311,None,1,None,1,,,,,,,,,,,,,wxbjqe,001,fr,0,0,2022-05-16_17h20.40.211,Cluster,2022.1.1,34.75919009068691,
,,,,3,0,3,0,9,0,9,0,,,both,,,,,,,,,,,,,,,,,,,,,,,,,,,,,,,,,,,,,,,,,,,,,,,,,,,,,,,,,,,,,,,,,,,,,,,,,,,,,,,,,,,,,,,,,,,,,,,,,,,,,,,,,,,,,,,,,,,589.5058531998657,None,1414.213562373095,2.0,6.349055446025293e-05,1,"[0.6588639413448405, 0.6588639413448405, 0.6588639413448405, 0.6588639413448405]","[561.2310241546867, 707.1067811865478, 890.8987181403395, 1122.4620483093731]",Major_3rd,"[8.769302855033663, 10.327016674808721, 9.72102126158546, 8.212626858769866]",False,590.5351112999488,593.5425084999297,593.5425084999297,594.7694214000367,['space'],1,[0.3298650998622179],3.6603455897420645,4.66779538965784,None,1,None,1,,,,,,,,,,,,,wxbjqe,001,fr,0,0,2022-05-16_17h20.40.211,Cluster,2022.1.1,34.75919009068691,
,,,,3,0,3,0,10,0,10,0,,,none,,,,,,,,,,,,,,,,,,,,,,,,,,,,,,,,,,,,,,,,,,,,,,,,,,,,,,,,,,,,,,,,,,,,,,,,,,,,,,,,,,,,,,,,,,,,,,,,,,,,,,,,,,,,,,,,,,,595.2493302999064,None,,,,,"[0.6762075409391468, 0.7141034074824647, 0.6620324589679694, 0.6770845499203626]","[507.7741510947086, 3021.947879022326, 3921.9476504259146, 1095.7378788154847]",None,"[7.685628092737151, 6.872527731548502, 8.0, 8.370891759669666]",True,596.2634793999605,599.3471148000099,599.3471148000099,600.5703628999181,None,1,,3.784366689622402,4.81334838969633,None,1,None,1,,0,,,,,,,,,,,wxbjqe,001,fr,0,0,2022-05-16_17h20.40.211,Cluster,2022.1.1,34.75919009068691,
,,,,3,0,3,0,11,0,11,0,,,time,,,,,,,,,,,,,,,,,,,,,,,,,,,,,,,,,,,,,,,,,,,,,,,,,,,,,,,,,,,,,,,,,,,,,,,,,,,,,,,,,,,,,,,,,,,,,,,,,,,,,,,,,,,,,,,,,,,601.1122679999098,None,297.0475908769198,1.5907166908590604,0.0001412834025918928,1,"[0.6872784515708363, 0.6872784515708363, 0.6872784515708363, 0.6872784515708363]","[747.6952785983002, 1179.783411423802, 1037.7550314192445, 219.4318525598233]",None,"[10.380278878836705, 8.212626858769866, 8.370891759669666, 8.716273812593965]",False,602.1292890999466,605.2243709999602,605.2243709999602,606.4462544999551,['space'],1,[0.5448096999898553],3.8006599897053093,4.817763689672574,None,1,None,1,,,,,,,,,,,,,wxbjqe,001,fr,0,0,2022-05-16_17h20.40.211,Cluster,2022.1.1,34.75919009068691,
,,,,3,0,3,0,12,0,12,0,,,both,,,,,,,,,,,,,,,,,,,,,,,,,,,,,,,,,,,,,,,,,,,,,,,,,,,,,,,,,,,,,,,,,,,,,,,,,,,,,,,,,,,,,,,,,,,,,,,,,,,,,,,,,,,,,,,,,,,606.9853085998911,None,772.0668001134976,4.380278878836704,6.563379837611251e-05,1,"[0.7837215279094599, 0.7837215279094599, 0.7837215279094599, 0.7837215279094599]","[306.39491267247206, 386.0334000567489, 486.3716066939866, 612.7898253449439]",Major_3rd,"[7.618500119928713, 7.572849574758852, 7.685628092737151, 9.42921453756885]",False,608.0009059000295,611.3883155998774,611.3883155998774,612.6016746000387,['space'],1,[0.26622089999727905],4.17024558968842,5.195269389543682,None,1,None,1,,,,,,,,,,,,,wxbjqe,001,fr,0,0,2022-05-16_17h20.40.211,Cluster,2022.1.1,34.75919009068691,
,,,,3,0,3,0,13,0,13,0,,,time,,,,,,,,,,,,,,,,,,,,,,,,,,,,,,,,,,,,,,,,,,,,,,,,,,,,,,,,,,,,,,,,,,,,,,,,,,,,,,,,,,,,,,,,,,,,,,,,,,,,,,,,,,,,,,,,,,,613.2347983999643,None,435.2752816480623,0.0,7.47519207806232e-05,1,"[0.7015866548063225, 0.7015866548063225, 0.7015866548063225, 0.7015866548063225]","[2883.9221120254274, 415.92439654260227, 1023.4532801286058, 209.64898446797145]",None,"[7.437925777140254, 7.4560788134613265, 8.717211985379095, 9.0]",False,614.2619999998715,617.4010691998992,617.4010691998992,618.6299389998894,['space'],1,[0.2440157001838088],3.8261240895371884,4.8327782896813005,None,1,None,1,,,,,,,,,,,,,wxbjqe,001,fr,0,0,2022-05-16_17h20.40.211,Cluster,2022.1.1,34.75919009068691,
,,,,3,0,3,0,14,0,14,0,,,frequency,,,,,,,,,,,,,,,,,,,,,,,,,,,,,,,,,,,,,,,,,,,,,,,,,,,,,,,,,,,,,,,,,,,,,,,,,,,,,,,,,,,,,,,,,,,,,,,,,,,,,,,,,,,,,,,,,,,619.1423815998714,None,914.3808521522022,3.204935392988056,6.0191934361207634e-05,1,"[0.5664292620508523, 0.6400669640650104, 0.5990584779380772, 0.641154448750058]","[4608.190732989486, 3075.5983230056945, 2052.715608483262, 1370.0233017401752]",Perfect_5th,"[11.505687850120704, 6.872527731548502, 9.911413350473453, 8.770267240523891]",False,620.1410930999555,622.9616210998502,622.9616210998502,624.1647950999904,['space'],1,[0.4688524999655783],3.4974789896514267,4.500818589702249,None,1,None,1,,,,,,,,,,,,,wxbjqe,001,fr,0,0,2022-05-16_17h20.40.211,Cluster,2022.1.1,34.75919009068691,
,,,,3,0,3,0,15,0,15,0,,,both,,,,,,,,,,,,,,,,,,,,,,,,,,,,,,,,,,,,,,,,,,,,,,,,,,,,,,,,,,,,,,,,,,,,,,,,,,,,,,,,,,,,,,,,,,,,,,,,,,,,,,,,,,,,,,,,,,,624.6830291999504,None,267.9433656340732,3.0,0.00020972419135141431,1,"[0.6508132190327148, 0.6508132190327148, 0.6508132190327148, 0.6508132190327148]","[1350.3499461681895, 901.2504626108299, 601.5125180410581, 401.46144093168806]",Perfect_5th,"[8.456175848159125, 9.72102126158546, 9.0, 7.4560788134613265]",False,625.77444129996,628.7383635998704,628.7383635998704,629.9592526999768,['space'],1,[0.2606985999736935],3.619778909953311,4.6395715097896755,None,1,None,1,,,,,,,,,,,,,wxbjqe,001,fr,0,0,2022-05-16_17h20.40.211,Cluster,2022.1.1,34.75919009068691,
,,,,3,0,3,0,16,0,16,0,,,none,,,,,,,,,,,,,,,,,,,,,,,,,,,,,,,,,,,,,,,,,,,,,,,,,,,,,,,,,,,,,,,,,,,,,,,,,,,,,,,,,,,,,,,,,,,,,,,,,,,,,,,,,,,,,,,,,,,630.4647796999197,None,1148.6983549970344,-8.0,2.001367081501412e-05,0,"[0.5435040340371828, 0.6124334090441916, 0.5350493852840702, 0.5950740488429161]","[326.69779744462056, 2453.150098725979, 507.6642788993946, 516.7408787325014]",None,"[7.660359555198436, 8.769482273595965, 7.685628092737151, 8.0]",False,631.4975884999149,634.2217164000031,634.2217164000031,635.4308803998865,None,0,,3.3102673897519708,4.3352328897453845,None,1,None,1,,,,,,,,,,,,,wxbjqe,001,fr,0,0,2022-05-16_17h20.40.211,Cluster,2022.1.1,34.75919009068691,
,,,,3,0,3,0,17,0,17,0,,,time,,,,,,,,,,,,,,,,,,,,,,,,,,,,,,,,,,,,,,,,,,,,,,,,,,,,,,,,,,,,,,,,,,,,,,,,,,,,,,,,,,,,,,,,,,,,,,,,,,,,,,,,,,,,,,,,,,,635.8877751000691,None,,,,,"[0.6826192313549879, 0.6826192313549879, 0.6826192313549879, 0.6826192313549879]","[1534.3104153675167, 5864.350167244081, 149.31327680400108, 819.9138887063779]",None,"[9.13803236350089, 19.0, 9.822047904124807, 10.154520051482688]",True,636.889570799889,639.9654534000438,639.9654534000438,641.1838807999156,None,1,,3.7782582896761596,4.801151189720258,None,1,None,1,,0,,,,,,,,,,,wxbjqe,001,fr,0,0,2022-05-16_17h20.40.211,Cluster,2022.1.1,34.75919009068691,
,,,,3,0,3,0,18,0,18,0,,,both,,,,,,,,,,,,,,,,,,,,,,,,,,,,,,,,,,,,,,,,,,,,,,,,,,,,,,,,,,,,,,,,,,,,,,,,,,,,,,,,,,,,,,,,,,,,,,,,,,,,,,,,,,,,,,,,,,,641.7264992999844,None,6578.1588366738715,16.0,0.0008734950449807847,0,"[0.4056610594628438, 0.4056610594628438, 0.4056610594628438, 0.4056610594628438]","[2610.544064337503, 3289.079418336936, 4143.980393938691, 5221.0881286750055]",Major_3rd,"[8.11134830558945, 6.547565865480125, 9.0, 16.0]",False,642.7383822998963,644.9850810000207,644.9850810000207,646.2046449000482,None,0,,2.668677589856088,3.68069518962875,None,1,None,1,,,,,,,,,,,,,wxbjqe,001,fr,0,0,2022-05-16_17h20.40.211,Cluster,2022.1.1,34.75919009068691,
,,,,3,0,3,0,19,0,19,0,,,frequency,,,,,,,,,,,,,,,,,,,,,,,,,,,,,,,,,,,,,,,,,,,,,,,,,,,,,,,,,,,,,,,,,,,,,,,,,,,,,,,,,,,,,,,,,,,,,,,,,,,,,,,,,,,,,,,,,,,646.4579497000668,None,164.93848884661182,0.0,0.0003931354593573141,1,"[0.5968346553984145, 0.6124651017711107, 0.6432456160191993, 0.7677196674220435]","[415.6189480713941, 329.8769776932237, 261.82353070515677, 207.809474035697]",Major_3rd,"[7.4560788134613265, 7.660359555198436, 7.654204264418274, 9.0]",False,647.4989287999924,650.3881534999236,650.3881534999236,651.5921918000095,['space'],1,[0.3507065000012517],3.64241238986142,4.663653189782053,None,1,None,1,,,,,,,,,,,,,wxbjqe,001,fr,0,0,2022-05-16_17h20.40.211,Cluster,2022.1.1,34.75919009068691,
,,,,4,0,4,0,0,0,0,0,,,none,,,,,,,,,,,,,,,,,,,,,,,,,,,,,,,,,,,,,,,,,,,,,,,,,,,,,,,,,,,,,,,,,,,,,,,,,,,,,,,,,,,,,,,,,,,,,,,,,,,,,,,,,,,,,,,,,,,723.8926067999564,None,128.14233955666577,3.0,0.0009813522868265452,1,"[0.7932382833291709, 0.5959374483878948, 0.742238494615417, 0.5338051641100989]","[3931.8670073604426, 478.8409267597772, 2610.1543447719673, 378.32582385916805]",None,"[8.0, 7.433177645562939, 8.11134830558945, 7.572849574758852]",False,724.8636447999161,728.0301121000666,728.0301121000666,729.2316069998778,['space'],1,[0.5838974001817405],3.700458189472556,4.702959189424291,None,1,None,1,,,,,,,,,,,,,wxbjqe,001,fr,0,0,2022-05-16_17h20.40.211,Cluster,2022.1.1,34.75919009068691,
,,,,4,0,4,0,1,0,1,0,,,both,,,,,,,,,,,,,,,,,,,,,,,,,,,,,,,,,,,,,,,,,,,,,,,,,,,,,,,,,,,,,,,,,,,,,,,,,,,,,,,,,,,,,,,,,,,,,,,,,,,,,,,,,,,,,,,,,,,729.6061986000277,None,176.7766952966369,-2.0,0.0002780315447610839,1,"[0.5661195697837297, 0.5661195697837297, 0.5661195697837297, 0.5661195697837297]","[890.8987181403394, 594.6035575013606, 396.8502629920499, 264.86577358982385]",Perfect_5th,"[9.72102126158546, 9.0, 7.4560788134613265, 7.654204264418274]",False,730.6274389999453,733.3446432000492,733.3446432000492,734.5752848000266,['space'],1,[0.3202261000405997],3.2808427894487977,4.305952589493245,None,1,None,1,,,,,,,,,,,,,wxbjqe,001,fr,0,0,2022-05-16_17h20.40.211,Cluster,2022.1.1,34.75919009068691,
,,,,4,0,4,0,2,0,2,0,,,frequency,,,,,,,,,,,,,,,,,,,,,,,,,,,,,,,,,,,,,,,,,,,,,,,,,,,,,,,,,,,,,,,,,,,,,,,,,,,,,,,,,,,,,,,,,,,,,,,,,,,,,,,,,,,,,,,,,,,734.9797624999192,None,,,,,"[0.41427316731900904, 0.5738257533471061, 0.5428417527728354, 0.6079411018049216]","[290.15359694000324, 325.68640074560824, 365.5706244874227, 410.33915196388915]",Tone,"[7.59071669085906, 7.660359555198436, 7.652219733616056, 7.4560788134613265]",True,735.9995979999658,738.5486289998516,738.5486289998516,739.7842289998662,None,1,,3.175159489735961,4.1948324895929545,None,1,None,1,,0,,,,,,,,,,,wxbjqe,001,fr,0,0,2022-05-16_17h20.40.211,Cluster,2022.1.1,34.75919009068691,
,,,,4,0,4,0,3,0,3,0,,,both,,,,,,,,,,,,,,,,,,,,,,,,,,,,,,,,,,,,,,,,,,,,,,,,,,,,,,,,,,,,,,,,,,,,,,,,,,,,,,,,,,,,,,,,,,,,,,,,,,,,,,,,,,,,,,,,,,,740.2396122000646,None,199.21770055467772,3.223996358287932,0.00038887181860500566,1,"[0.7729688336226773, 0.7729688336226773, 0.7729688336226773, 0.7729688336226773]","[125.49928722024599, 140.86818699460363, 158.11919371559057, 177.48279405502834]",Tone,"[8.900529052947052, 9.543286576825256, 9.822047904124807, 9.907445772281816]",False,741.2418871999253,744.576094100019,744.576094100019,745.7899894998409,['space'],1,[0.21577539993450046],4.121238789753988,5.134178489679471,None,1,None,1,,,,,,,,,,,,,wxbjqe,001,fr,0,0,2022-05-16_17h20.40.211,Cluster,2022.1.1,34.75919009068691,
,,,,4,0,4,0,4,0,4,0,,,none,,,,,,,,,,,,,,,,,,,,,,,,,,,,,,,,,,,,,,,,,,,,,,,,,,,,,,,,,,,,,,,,,,,,,,,,,,,,,,,,,,,,,,,,,,,,,,,,,,,,,,,,,,,,,,,,,,,746.4184425000567,None,4000.0,-2.0,6.667607160816621e-05,0,"[0.5495473511147843, 0.5382785076364215, 0.528866879163912, 0.7385295927222144]","[702.6672304021562, 1141.784204181453, 2692.864578999929, 4326.500954112799]",None,"[10.327016674808721, 8.212626858769866, 8.0, 10.0]",False,747.4313531999942,750.0690782000311,750.0690782000311,751.2830202998593,None,0,,3.381162389414385,4.3888038895092905,None,1,None,1,,,,,,,,,,,,,wxbjqe,001,fr,0,0,2022-05-16_17h20.40.211,Cluster,2022.1.1,34.75919009068691,
,,,,4,0,4,0,5,0,5,0,,,none,,,,,,,,,,,,,,,,,,,,,,,,,,,,,,,,,,,,,,,,,,,,,,,,,,,,,,,,,,,,,,,,,,,,,,,,,,,,,,,,,,,,,,,,,,,,,,,,,,,,,,,,,,,,,,,,,,,751.877719799988,None,606.7678651636817,3.429214537568849,8.13117073704335e-05,1,"[0.6725808279945735, 0.780764579905942, 0.45407168467062203, 0.4626834083792338]","[7993.508008296979, 366.14821249840975, 1047.946535051818, 277.8640860448798]",None,"[22.874503533923686, 7.652219733616056, 8.370891759669666, 7.59071669085906]",False,752.8880419000052,755.8257770000491,755.8257770000491,757.03571560001,['space'],1,[0.5268263001926243],3.419859789777547,4.43589818966575,None,1,None,1,,,,,,,,,,,,,wxbjqe,001,fr,0,0,2022-05-16_17h20.40.211,Cluster,2022.1.1,34.75919009068691,
,,,,4,0,4,0,6,0,6,0,,,time,,,,,,,,,,,,,,,,,,,,,,,,,,,,,,,,,,,,,,,,,,,,,,,,,,,,,,,,,,,,,,,,,,,,,,,,,,,,,,,,,,,,,,,,,,,,,,,,,,,,,,,,,,,,,,,,,,,757.3682854999788,None,6129.017681007697,14.338897332561363,0.0006355163261139432,1,"[0.6308678710759549, 0.6308678710759549, 0.6308678710759549, 0.6308678710759549]","[150.8761403135801, 7895.2682095345945, 522.6751058555737, 3123.4329046338894]",None,"[9.822047904124807, 22.874503533923686, 8.0, 6.872527731548502]",False,758.3885756998789,761.3056087999139,761.3056087999139,762.5102448000107,['space'],1,[0.4527304000221193],3.5535429895389825,4.561996889533475,None,1,None,1,,,,,,,,,,,,,wxbjqe,001,fr,0,0,2022-05-16_17h20.40.211,Cluster,2022.1.1,34.75919009068691,
,,,,4,0,4,0,7,0,7,0,,,both,,,,,,,,,,,,,,,,,,,,,,,,,,,,,,,,,,,,,,,,,,,,,,,,,,,,,,,,,,,,,,,,,,,,,,,,,,,,,,,,,,,,,,,,,,,,,,,,,,,,,,,,,,,,,,,,,,,762.9987474000081,None,2000.0,-3.0,5.296268625886443e-05,0,"[0.754227807796527, 0.754227807796527, 0.754227807796527, 0.754227807796527]","[3174.8021039364003, 2828.427124746191, 2519.842099789747, 2244.9240966187463]",Tone,"[6.547565865480125, 7.437925777140254, 8.769482273595965, 9.328888324295757]",False,764.0125360998791,767.307967599947,767.307967599947,768.5129426999483,None,0,,4.026441089808941,5.061567489756271,None,1,None,1,,,,,,,,,,,,,wxbjqe,001,fr,0,0,2022-05-16_17h20.40.211,Cluster,2022.1.1,34.75919009068691,
,,,,4,0,4,0,8,0,8,0,,,frequency,,,,,,,,,,,,,,,,,,,,,,,,,,,,,,,,,,,,,,,,,,,,,,,,,,,,,,,,,,,,,,,,,,,,,,,,,,,,,,,,,,,,,,,,,,,,,,,,,,,,,,,,,,,,,,,,,,,769.1317783999257,None,6137.337218705925,14.338897332561363,0.0006375595611613952,1,"[0.6969562460067971, 0.5729015206596301, 0.44340280790460496, 0.49115173991857364]","[1217.8019446571714, 1824.6412719140246, 2733.8729304700523, 4096.181159004871]",Perfect_5th,"[8.251987933046767, 9.918086234917741, 8.0, 9.0]",False,770.1313159998972,772.8842098000459,772.8842098000459,774.0881380999926,['space'],1,[0.401338699972257],3.2302992895711213,4.247864389559254,None,1,None,1,,,,,,,,,,,,,wxbjqe,001,fr,0,0,2022-05-16_17h20.40.211,Cluster,2022.1.1,34.75919009068691,
,,,,4,0,4,0,9,0,9,0,,,frequency,,,,,,,,,,,,,,,,,,,,,,,,,,,,,,,,,,,,,,,,,,,,,,,,,,,,,,,,,,,,,,,,,,,,,,,,,,,,,,,,,,,,,,,,,,,,,,,,,,,,,,,,,,,,,,,,,,,774.4176065998618,None,,,,,"[0.44324568850333, 0.5316396937341394, 0.4539029555438095, 0.6490470886996651]","[492.49763607494754, 390.8956327986116, 310.2540693571455, 246.24881803747374]",Major_3rd,"[7.685628092737151, 7.572849574758852, 7.618500119928713, 8.0]",True,775.4177343999036,777.889661999885,777.889661999885,779.1090642998461,None,1,,3.114140989491716,4.132287389598787,None,1,None,1,,0,,,,,,,,,,,wxbjqe,001,fr,0,0,2022-05-16_17h20.40.211,Cluster,2022.1.1,34.75919009068691,
,,,,4,0,4,0,10,0,10,0,,,frequency,,,,,,,,,,,,,,,,,,,,,,,,,,,,,,,,,,,,,,,,,,,,,,,,,,,,,,,,,,,,,,,,,,,,,,,,,,,,,,,,,,,,,,,,,,,,,,,,,,,,,,,,,,,,,,,,,,,779.5843410999514,None,233.2582478842019,-2.0,0.000159090436875498,1,"[0.5322822981246125, 0.5085054257317637, 0.6022389076417773, 0.6617434482036006]","[146.94348828545108, 164.9384888466118, 185.13719403582056, 207.80947403569698]",Tone,"[9.543286576825256, 9.96367654631023, 9.645744284578136, 9.0]",False,780.5899656999391,783.2651088000275,783.2651088000275,784.4983206000179,['space'],1,[0.3753299000672996],3.336559389717877,4.3589084898121655,None,1,None,1,,,,,,,,,,,,,wxbjqe,001,fr,0,0,2022-05-16_17h20.40.211,Cluster,2022.1.1,34.75919009068691,
,,,,4,0,4,0,11,0,11,0,,,both,,,,,,,,,,,,,,,,,,,,,,,,,,,,,,,,,,,,,,,,,,,,,,,,,,,,,,,,,,,,,,,,,,,,,,,,,,,,,,,,,,,,,,,,,,,,,,,,,,,,,,,,,,,,,,,,,,,784.9959384999238,None,253.14162150662804,1.8670261638144354,0.0002035185447669374,1,"[0.7992836039135904, 0.7992836039135904, 0.7992836039135904, 0.7992836039135904]","[159.46922877036067, 178.99815716789504, 200.91863813827857, 225.52354610822186]",Tone,"[9.96367654631023, 9.907445772281816, 9.223996358287932, 8.23933879716737]",False,786.0158224999905,789.4403816000558,789.4403816000558,790.6718780999072,['space'],1,[0.47890499979257584],4.2258030897937715,5.261479989858344,None,1,None,1,,,,,,,,,,,,,wxbjqe,001,fr,0,0,2022-05-16_17h20.40.211,Cluster,2022.1.1,34.75919009068691,
,,,,4,0,4,0,12,0,12,0,,,none,,,,,,,,,,,,,,,,,,,,,,,,,,,,,,,,,,,,,,,,,,,,,,,,,,,,,,,,,,,,,,,,,,,,,,,,,,,,,,,,,,,,,,,,,,,,,,,,,,,,,,,,,,,,,,,,,,,791.3234226999339,None,615.5722066724584,-5.0,3.0037681611419803e-05,0,"[0.728110163353217, 0.6942955143614373, 0.5333152471634369, 0.7759011283466737]","[1488.8783753263392, 3554.3451634095295, 345.59868998406296, 4813.301887775759]",None,"[9.0, 6.582063189614965, 7.652219733616056, 13.0]",False,792.339722600067,795.3154994999059,795.3154994999059,796.5493616999593,None,0,,3.7517360895872116,4.764404289424419,None,1,None,1,,,,,,,,,,,,,wxbjqe,001,fr,0,0,2022-05-16_17h20.40.211,Cluster,2022.1.1,34.75919009068691,
,,,,4,0,4,0,13,0,13,0,,,none,,,,,,,,,,,,,,,,,,,,,,,,,,,,,,,,,,,,,,,,,,,,,,,,,,,,,,,,,,,,,,,,,,,,,,,,,,,,,,,,,,,,,,,,,,,,,,,,,,,,,,,,,,,,,,,,,,,797.156808400061,None,,,,,"[0.7137505344410481, 0.46276131099786955, 0.4191671378728136, 0.43084423929149596]","[1433.2947355656386, 742.0101810911771, 1566.1852572820344, 1163.0283496288516]",None,"[8.770267240523891, 10.380278878836705, 9.13803236350089, 8.212626858769866]",True,798.1511281998828,800.7850007000379,800.7850007000379,802.0076279998757,None,1,,3.0780236897990108,4.100334589835256,None,1,None,1,,0,,,,,,,,,,,wxbjqe,001,fr,0,0,2022-05-16_17h20.40.211,Cluster,2022.1.1,34.75919009068691,
,,,,4,0,4,0,14,0,14,0,,,time,,,,,,,,,,,,,,,,,,,,,,,,,,,,,,,,,,,,,,,,,,,,,,,,,,,,,,,,,,,,,,,,,,,,,,,,,,,,,,,,,,,,,,,,,,,,,,,,,,,,,,,,,,,,,,,,,,,802.294405200053,None,707.1067811865476,1.0,4.982092697845807e-05,1,"[0.5319471146652714, 0.5319471146652714, 0.5319471146652714, 0.5319471146652714]","[131.19720973376772, 1235.029185254597, 891.1186409091436, 465.26346838473086]",None,"[9.20953567365234, 8.251987933046767, 9.72102126158546, 7.433177645562939]",False,803.3060395999346,805.9415080000181,805.9415080000181,807.159996900009,['space'],1,[0.5240614998620003],3.1393815896008164,4.146464089397341,None,1,None,1,,,,,,,,,,,,,wxbjqe,001,fr,0,0,2022-05-16_17h20.40.211,Cluster,2022.1.1,34.75919009068691,
,,,,4,0,4,0,15,0,15,0,,,both,,,,,,,,,,,,,,,,,,,,,,,,,,,,,,,,,,,,,,,,,,,,,,,,,,,,,,,,,,,,,,,,,,,,,,,,,,,,,,,,,,,,,,,,,,,,,,,,,,,,,,,,,,,,,,,,,,,807.5060304000508,None,3482.202253184498,-4.0,4.722761521385692e-05,0,"[0.7558807559211775, 0.7558807559211775, 0.7558807559211775, 0.7558807559211775]","[1381.9128799677774, 1741.1011265922498, 2193.6499593892536, 2763.825759935554]",Major_3rd,"[8.770267240523891, 9.761269433733453, 9.71510733464561, 7.437925777140254]",False,808.5862106999848,811.8839871999808,811.8839871999808,813.0905603999272,None,0,,4.059762219665572,5.072825819719583,None,1,None,1,,,,,,,,,,,,,wxbjqe,001,fr,0,0,2022-05-16_17h20.40.211,Cluster,2022.1.1,34.75919009068691,
,,,,4,0,4,0,16,0,16,0,,,both,,,,,,,,,,,,,,,,,,,,,,,,,,,,,,,,,,,,,,,,,,,,,,,,,,,,,,,,,,,,,,,,,,,,,,,,,,,,,,,,,,,,,,,,,,,,,,,,,,,,,,,,,,,,,,,,,,,813.6855945999268,None,5944.758522205193,14.0,0.0005909340050227435,1,"[0.46693722764351764, 0.46693722764351764, 0.46693722764351764, 0.46693722764351764]","[3744.963199334131, 4203.579063567811, 4718.357965922722, 5296.1777470864645]",Tone,"[7.076096516753575, 9.0, 12.0, 16.09185360822503]",False,814.6966234999709,817.1405934998766,817.1405934998766,818.3511598999612,['space'],1,[0.37350849993526936],2.9015416896436363,3.910225889645517,None,1,None,1,,,,,,,,,,,,,wxbjqe,001,fr,0,0,2022-05-16_17h20.40.211,Cluster,2022.1.1,34.75919009068691,
,,,,4,0,4,0,17,0,17,0,,,none,,,,,,,,,,,,,,,,,,,,,,,,,,,,,,,,,,,,,,,,,,,,,,,,,,,,,,,,,,,,,,,,,,,,,,,,,,,,,,,,,,,,,,,,,,,,,,,,,,,,,,,,,,,,,,,,,,,818.6517546998803,None,,,,,"[0.7402920147632531, 0.7884708572012726, 0.4952215953249727, 0.671024430778814]","[404.3432072819937, 5667.409848377251, 6944.96656409119, 3936.97230294558]",None,"[7.4560788134613265, 18.360263733267555, 22.802176100514853, 8.0]",True,819.6683236998506,822.7202800000086,822.7202800000086,823.9473838999402,None,1,,3.720773489680141,4.724696289515123,None,1,None,1,,0,,,,,,,,,,,wxbjqe,001,fr,0,0,2022-05-16_17h20.40.211,Cluster,2022.1.1,34.75919009068691,
,,,,4,0,4,0,18,0,18,0,,,time,,,,,,,,,,,,,,,,,,,,,,,,,,,,,,,,,,,,,,,,,,,,,,,,,,,,,,,,,,,,,,,,,,,,,,,,,,,,,,,,,,,,,,,,,,,,,,,,,,,,,,,,,,,,,,,,,,,824.4390751998872,None,185.7832916127806,3.645744284578136,0.00048266590124978234,1,"[0.4150682871187344, 0.4150682871187344, 0.4150682871187344, 0.4150682871187344]","[155.5287742071163, 5719.890750380043, 5350.699103810049, 3639.934570695092]",None,"[9.822047904124807, 18.360263733267555, 16.09185360822503, 7.0]",False,825.4297747998498,827.7136092998553,827.7136092998553,828.9146926000249,['space'],1,[0.5334968001116067],2.6868221894837916,3.7037176894955337,None,1,None,1,,,,,,,,,,,,,wxbjqe,001,fr,0,0,2022-05-16_17h20.40.211,Cluster,2022.1.1,34.75919009068691,
,,,,4,0,4,0,19,0,19,0,,,frequency,,,,,,,,,,,,,,,,,,,,,,,,,,,,,,,,,,,,,,,,,,,,,,,,,,,,,,,,,,,,,,,,,,,,,,,,,,,,,,,,,,,,,,,,,,,,,,,,,,,,,,,,,,,,,,,,,,,829.1770283998922,None,200.15662663555335,3.223996358287932,0.00038429742177196037,1,"[0.7736336928548779, 0.5684162258260281, 0.7629442282952741, 0.48996666631203234]","[126.09077358704124, 141.5321079934237, 158.86441983984176, 178.31928209690898]",Tone,"[8.900529052947052, 9.543286576825256, 9.822047904124807, 9.907445772281816]",False,830.194286899874,833.3343129998539,833.3343129998539,834.5631379999686,['space'],1,[0.31321500008925796],3.6310258894227445,4.641881689429283,None,1,None,1,,,,,,,,,,,,,wxbjqe,001,fr,0,0,2022-05-16_17h20.40.211,Cluster,2022.1.1,34.75919009068691,
,,,,5,0,5,0,0,0,0,0,,,none,,,,,,,,,,,,,,,,,,,,,,,,,,,,,,,,,,,,,,,,,,,,,,,,,,,,,,,,,,,,,,,,,,,,,,,,,,,,,,,,,,,,,,,,,,,,,,,,,,,,,,,,,,,,,,,,,,,837.1823704000562,None,216.0963498179353,2.7162738125939643,0.00031978333021077634,1,"[0.4338647566190375, 0.5188334046233567, 0.7786441931557339, 0.4134369373058708]","[4150.832109305618, 256.3197418843227, 3004.529703026923, 811.239280709616]",None,"[9.0, 7.867026163814435, 7.0, 10.154520051482688]",False,838.1779495000374,840.9355837998446,840.9355837998446,842.1371358998585,['space'],1,[0.3421601001173258],3.1862656897865236,4.201260889880359,None,1,None,1,,,,,,,,,,,,,wxbjqe,001,fr,0,0,2022-05-16_17h20.40.211,Cluster,2022.1.1,34.75919009068691,
,,,,5,0,5,0,1,0,1,0,,,frequency,,,,,,,,,,,,,,,,,,,,,,,,,,,,,,,,,,,,,,,,,,,,,,,,,,,,,,,,,,,,,,,,,,,,,,,,,,,,,,,,,,,,,,,,,,,,,,,,,,,,,,,,,,,,,,,,,,,842.4225454998668,None,,,,,"[0.69670706442796, 0.5387079855115284, 0.5843906295123774, 0.5895884087148282]","[2930.5139521389956, 2610.7911234530106, 2325.9504652164633, 2072.186287919273]",Tone,"[7.0, 8.11134830558945, 9.328888324295757, 9.71510733464561]",True,843.4388412998524,846.2982758998405,846.2982758998405,847.509159399895,None,1,,3.46035658987239,4.463161589810625,None,1,None,1,,0,,,,,,,,,,,wxbjqe,001,fr,0,0,2022-05-16_17h20.40.211,Cluster,2022.1.1,34.75919009068691,
,,,,5,0,5,0,2,0,2,0,,,time,,,,,,,,,,,,,,,,,,,,,,,,,,,,,,,,,,,,,,,,,,,,,,,,,,,,,,,,,,,,,,,,,,,,,,,,,,,,,,,,,,,,,,,,,,,,,,,,,,,,,,,,,,,,,,,,,,,847.9365478998516,None,307.7861033362292,-3.0,7.522887020865065e-05,0,"[0.6052983365751868, 0.6052983365751868, 0.6052983365751868, 0.6052983365751868]","[593.5283732767567, 2351.169104790523, 3656.023967532021, 948.1644592212906]",None,"[9.0, 9.0, 7.0, 9.0]",False,848.9418210999575,851.7719739000313,851.7719739000313,853.0002319000196,None,0,,3.4599008897785097,4.468178589595482,None,1,None,1,,,,,,,,,,,,,wxbjqe,001,fr,0,0,2022-05-16_17h20.40.211,Cluster,2022.1.1,34.75919009068691,
,,,,5,0,5,0,3,0,3,0,,,time,,,,,,,,,,,,,,,,,,,,,,,,,,,,,,,,,,,,,,,,,,,,,,,,,,,,,,,,,,,,,,,,,,,,,,,,,,,,,,,,,,,,,,,,,,,,,,,,,,,,,,,,,,,,,,,,,,,853.4505865999963,None,518.7936892203826,2.0,8.625259990501722e-05,1,"[0.5899739501888539, 0.5899739501888539, 0.5899739501888539, 0.5899739501888539]","[1076.52979947551, 134.94182746847022, 139.24628921650336, 249.64866162494812]",None,"[8.370891759669666, 9.20953567365234, 9.543286576825256, 7.867026163814435]",False,854.4461234000046,857.2318837000057,857.2318837000057,858.4648837000132,['space'],1,[0.28264889982528985],3.393707489594817,4.412716789636761,None,1,None,1,,,,,,,,,,,,,wxbjqe,001,fr,0,0,2022-05-16_17h20.40.211,Cluster,2022.1.1,34.75919009068691,
,,,,5,0,5,0,4,0,4,0,,,both,,,,,,,,,,,,,,,,,,,,,,,,,,,,,,,,,,,,,,,,,,,,,,,,,,,,,,,,,,,,,,,,,,,,,,,,,,,,,,,,,,,,,,,,,,,,,,,,,,,,,,,,,,,,,,,,,,,858.9059001998976,None,176.7766952966369,-6.0,0.0001754260451641794,0,"[0.6905067279841979, 0.6905067279841979, 0.6905067279841979, 0.6905067279841979]","[280.61551207734334, 250.00000000000006, 222.72467953508487, 198.42513149602496]",Tone,"[7.59071669085906, 7.867026163814435, 8.716273812593965, 9.223996358287932]",False,859.9330281000584,863.0200614999048,863.0200614999048,864.2362021999434,None,0,,3.7953500896692276,4.800134289544076,None,1,None,1,,,,,,,,,,,,,wxbjqe,001,fr,0,0,2022-05-16_17h20.40.211,Cluster,2022.1.1,34.75919009068691,
,,,,5,0,5,0,5,0,5,0,,,time,,,,,,,,,,,,,,,,,,,,,,,,,,,,,,,,,,,,,,,,,,,,,,,,,,,,,,,,,,,,,,,,,,,,,,,,,,,,,,,,,,,,,,,,,,,,,,,,,,,,,,,,,,,,,,,,,,,864.7887617000379,None,,,,,"[0.42935731004432237, 0.42935731004432237, 0.42935731004432237, 0.42935731004432237]","[2419.539264640475, 486.0214948247524, 4343.77182419922, 916.6454770240804]",None,"[9.0, 7.685628092737151, 10.0, 9.204935392988055]",True,865.7903559000697,868.1132722999901,868.1132722999901,869.3426997999195,None,1,,2.769790689693764,3.7745391896460205,None,1,None,1,,0,,,,,,,,,,,wxbjqe,001,fr,0,0,2022-05-16_17h20.40.211,Cluster,2022.1.1,34.75919009068691,
,,,,5,0,5,0,6,0,6,0,,,frequency,,,,,,,,,,,,,,,,,,,,,,,,,,,,,,,,,,,,,,,,,,,,,,,,,,,,,,,,,,,,,,,,,,,,,,,,,,,,,,,,,,,,,,,,,,,,,,,,,,,,,,,,,,,,,,,,,,,869.6009504999965,None,1319.5079107728945,-4.0,3.3304181786869376e-05,0,"[0.6531515889347108, 0.6072793929410596, 0.4425209351490573, 0.7104463676107468]","[3324.9515845711526, 2639.0158215457895, 2094.588245641254, 1662.475792285576]",Major_3rd,"[6.547565865480125, 8.11134830558945, 9.71510733464561, 9.485507020788583]",False,870.6084135998972,873.3289123000577,873.3289123000577,874.5320893998723,None,0,,3.4605179894715548,4.485915089491755,None,1,None,1,,,,,,,,,,,,,wxbjqe,001,fr,0,0,2022-05-16_17h20.40.211,Cluster,2022.1.1,34.75919009068691,
,,,,5,0,5,0,7,0,7,0,,,both,,,,,,,,,,,,,,,,,,,,,,,,,,,,,,,,,,,,,,,,,,,,,,,,,,,,,,,,,,,,,,,,,,,,,,,,,,,,,,,,,,,,,,,,,,,,,,,,,,,,,,,,,,,,,,,,,,,875.1437957000453,None,672.3968088864376,4.0,7.519804540684294e-05,0,"[0.44425632907195634, 0.44425632907195634, 0.44425632907195634, 0.44425632907195634]","[3388.6675735926515, 2261.6642648825696, 1509.4797987587135, 1007.456897223847]",Perfect_5th,"[6.582063189614965, 9.328888324295757, 9.13803236350089, 8.717211985379095]",False,876.1365771999117,878.5007573999465,878.5007573999465,879.7171062000562,None,0,,2.8085813894867897,3.8474331896286458,None,1,None,1,,,,,,,,,,,,,wxbjqe,001,fr,0,0,2022-05-16_17h20.40.211,Cluster,2022.1.1,34.75919009068691,
,,,,5,0,5,0,8,0,8,0,,,frequency,,,,,,,,,,,,,,,,,,,,,,,,,,,,,,,,,,,,,,,,,,,,,,,,,,,,,,,,,,,,,,,,,,,,,,,,,,,,,,,,,,,,,,,,,,,,,,,,,,,,,,,,,,,,,,,,,,,880.0277704000473,None,3094.334796452797,0.8725277315485014,7.048805818040706e-05,1,"[0.6626182524678659, 0.46600108396832085, 0.7154078230653249, 0.7591033094500734]","[613.9937888788718, 919.9512390355407, 1378.3694518284221, 2065.220704225157]",Perfect_5th,"[9.42921453756885, 9.204935392988055, 8.770267240523891, 9.911413350473453]",False,881.0399191000033,883.9023869000375,883.9023869000375,885.1101814999711,['space'],1,[0.3204016999807209],3.650827989447862,4.675887789577246,None,1,None,1,,,,,,,,,,,,,wxbjqe,001,fr,0,0,2022-05-16_17h20.40.211,Cluster,2022.1.1,34.75919009068691,
,,,,5,0,5,0,9,0,9,0,,,time,,,,,,,,,,,,,,,,,,,,,,,,,,,,,,,,,,,,,,,,,,,,,,,,,,,,,,,,,,,,,,,,,,,,,,,,,,,,,,,,,,,,,,,,,,,,,,,,,,,,,,,,,,,,,,,,,,,885.7579943998717,None,,,,,"[0.4441761332370146, 0.4441761332370146, 0.4441761332370146, 0.4441761332370146]","[516.502509839439, 345.6586901201867, 989.9772789242145, 3160.7287650030808]",None,"[8.0, 7.652219733616056, 8.717211985379095, 6.547565865480125]",True,886.7793488998432,889.1293122000061,889.1293122000061,890.3653108999133,None,1,,2.805377389770001,3.8330713897012174,None,1,None,1,,0,,,,,,,,,,,wxbjqe,001,fr,0,0,2022-05-16_17h20.40.211,Cluster,2022.1.1,34.75919009068691,
,,,,5,0,5,0,10,0,10,0,,,time,,,,,,,,,,,,,,,,,,,,,,,,,,,,,,,,,,,,,,,,,,,,,,,,,,,,,,,,,,,,,,,,,,,,,,,,,,,,,,,,,,,,,,,,,,,,,,,,,,,,,,,,,,,,,,,,,,,890.6450501000509,None,2143.5469250725882,3.0,0.00011016920845743376,1,"[0.5703815623444283, 0.5703815623444283, 0.5703815623444283, 0.5703815623444283]","[535.53868323446, 591.4876686972871, 2262.3540186498494, 212.69045080343915]",None,"[8.154885445641483, 9.0, 9.328888324295757, 9.0]",False,891.6637524999678,894.3869533999823,894.3869533999823,895.5870894999243,['space'],1,[0.3480240998324007],3.294109189650044,4.29545668954961,None,1,None,1,,,,,,,,,,,,,wxbjqe,001,fr,0,0,2022-05-16_17h20.40.211,Cluster,2022.1.1,34.75919009068691,
,,,,5,0,5,0,11,0,11,0,,,time,,,,,,,,,,,,,,,,,,,,,,,,,,,,,,,,,,,,,,,,,,,,,,,,,,,,,,,,,,,,,,,,,,,,,,,,,,,,,,,,,,,,,,,,,,,,,,,,,,,,,,,,,,,,,,,,,,,896.0097938999534,None,697.131139634062,4.32701667480872,7.451360304050558e-05,1,"[0.7722545808620161, 0.7722545808620161, 0.7722545808620161, 0.7722545808620161]","[182.52957129426744, 1714.1308910446032, 480.2947160363339, 795.531545822265]",None,"[9.907445772281816, 9.761269433733453, 7.433177645562939, 10.154520051482688]",False,897.023741699988,900.3765978000592,900.3765978000592,901.5759072999936,['space'],1,[0.4361352000851184],4.12564038974233,5.140660889679566,None,1,None,1,,,,,,,,,,,,,wxbjqe,001,fr,0,0,2022-05-16_17h20.40.211,Cluster,2022.1.1,34.75919009068691,
,,,,5,0,5,0,12,0,12,0,,,both,,,,,,,,,,,,,,,,,,,,,,,,,,,,,,,,,,,,,,,,,,,,,,,,,,,,,,,,,,,,,,,,,,,,,,,,,,,,,,,,,,,,,,,,,,,,,,,,,,,,,,,,,,,,,,,,,,,902.2058492000215,None,1148.6983549970344,0.0,5.027206816493324e-05,1,"[0.7789389301722385, 0.7789389301722385, 0.7789389301722385, 0.7789389301722385]","[2894.5384748807546, 2297.3967099940687, 1823.4449771164327, 1447.2692374403773]",Major_3rd,"[7.437925777140254, 9.328888324295757, 9.918086234917741, 9.0]",False,903.2400753998663,906.5912468999159,906.5912468999159,907.8180664000101,['space'],1,[0.5400310000404716],4.1341266895178705,5.167148889740929,None,1,None,1,,,,,,,,,,,,,wxbjqe,001,fr,0,0,2022-05-16_17h20.40.211,Cluster,2022.1.1,34.75919009068691,
,,,,5,0,5,0,13,0,13,0,,,both,,,,,,,,,,,,,,,,,,,,,,,,,,,,,,,,,,,,,,,,,,,,,,,,,,,,,,,,,,,,,,,,,,,,,,,,,,,,,,,,,,,,,,,,,,,,,,,,,,,,,,,,,,,,,,,,,,,908.4569989000447,None,,,,,"[0.7394582671956965, 0.7394582671956965, 0.7394582671956965, 0.7394582671956965]","[169.19417209573618, 253.50482541733268, 379.8280739451772, 569.0990911884985]",Perfect_5th,"[9.96367654631023, 7.867026163814435, 7.572849574758852, 8.769302855033663]",True,909.4681142000481,912.72067589988,912.72067589988,913.9374094000086,None,1,,4.001233289716765,5.019521389855072,None,1,None,1,,0,,,,,,,,,,,wxbjqe,001,fr,0,0,2022-05-16_17h20.40.211,Cluster,2022.1.1,34.75919009068691,
,,,,5,0,5,0,14,0,14,0,,,frequency,,,,,,,,,,,,,,,,,,,,,,,,,,,,,,,,,,,,,,,,,,,,,,,,,,,,,,,,,,,,,,,,,,,,,,,,,,,,,,,,,,,,,,,,,,,,,,,,,,,,,,,,,,,,,,,,,,,914.5207531999331,None,125.0,2.0,0.000909850429304992,1,"[0.5331839188316212, 0.5752797568229916, 0.5207738371349282, 0.44655223897065494]","[629.9605249474366, 420.4482076268573, 280.6155120773433, 187.2883846095852]",Perfect_5th,"[9.42921453756885, 7.4560788134613265, 7.59071669085906, 9.645744284578136]",False,915.5473843000364,918.2124169999734,918.2124169999734,919.4501145000104,['space'],1,[0.5032787001691759],3.1024969895370305,4.122783289523795,None,1,None,1,,,,,,,,,,,,,wxbjqe,001,fr,0,0,2022-05-16_17h20.40.211,Cluster,2022.1.1,34.75919009068691,
,,,,5,0,5,0,15,0,15,0,,,frequency,,,,,,,,,,,,,,,,,,,,,,,,,,,,,,,,,,,,,,,,,,,,,,,,,,,,,,,,,,,,,,,,,,,,,,,,,,,,,,,,,,,,,,,,,,,,,,,,,,,,,,,,,,,,,,,,,,,919.722743100021,None,4561.56787840287,5.505687850120704,0.0002310477468651426,1,"[0.578438339219437, 0.7199966050977618, 0.7020995094788591, 0.48210695706246803]","[905.1297061001329, 1356.16224414114, 2031.9474877896319, 3044.4813007969997]",Perfect_5th,"[9.204935392988055, 8.456175848159125, 9.911413350473453, 6.872527731548502]",False,920.7218181998469,923.7412399000023,923.7412399000023,924.9638995998539,['space'],1,[0.4815724999643862],3.519117289688438,4.544000489637256,None,1,None,1,,,,,,,,,,,,,wxbjqe,001,fr,0,0,2022-05-16_17h20.40.211,Cluster,2022.1.1,34.75919009068691,
,,,,5,0,5,0,16,0,16,0,,,none,,,,,,,,,,,,,,,,,,,,,,,,,,,,,,,,,,,,,,,,,,,,,,,,,,,,,,,,,,,,,,,,,,,,,,,,,,,,,,,,,,,,,,,,,,,,,,,,,,,,,,,,,,,,,,,,,,,925.306111099897,None,8000.0,12.0,0.000722719885372964,0,"[0.5202861775843673, 0.777508166435553, 0.6301599258599617, 0.6713618931437485]","[252.0995782576309, 875.3012856697788, 771.7490904006416, 130.22748600531125]",None,"[7.867026163814435, 9.72102126158546, 10.380278878836705, 9.0]",False,926.3331089999992,929.2816657000221,929.2816657000221,930.4939478999004,None,0,,3.612041989574209,4.629903789609671,None,1,None,1,,,,,,,,,,,,,wxbjqe,001,fr,0,0,2022-05-16_17h20.40.211,Cluster,2022.1.1,34.75919009068691,
,,,,5,0,5,0,17,0,17,0,,,both,,,,,,,,,,,,,,,,,,,,,,,,,,,,,,,,,,,,,,,,,,,,,,,,,,,,,,,,,,,,,,,,,,,,,,,,,,,,,,,,,,,,,,,,,,,,,,,,,,,,,,,,,,,,,,,,,,,931.0108798998408,None,,,,,"[0.6051094193417728, 0.6051094193417728, 0.6051094193417728, 0.6051094193417728]","[810.3646320093076, 643.1868346646988, 510.4977289794196, 405.1823160046537]",Major_3rd,"[10.154520051482688, 9.985472887324471, 7.685628092737151, 7.4560788134613265]",True,932.0016298999544,934.8336094999686,934.8336094999686,936.0546754000243,None,1,,3.447206889744848,4.458541889674962,None,1,None,1,,0,,,,,,,,,,,wxbjqe,001,fr,0,0,2022-05-16_17h20.40.211,Cluster,2022.1.1,34.75919009068691,
