frequencies,training_trials.thisRepN,training_trials.thisTrialN,training_trials.thisN,training_trials.thisIndex,frequencies.thisRepN,frequencies.thisTrialN,frequencies.thisN,frequencies.thisIndex,trials.thisRepN,trials.thisTrialN,trials.thisN,trials.thisIndex,tFrequency,tLevel,tCorrect,Tprobe.started,Tprobe.stopped,tTriangle_cue.started,tTriangle_cue.stopped,Tfeedback.keys,Tfeedback.corr,Tfeedback.rt,Tfeedback.started,Tfeedback.stopped,reversals_nTrials.routineEndVal,track_dir.routineEndVal,step_up.routineEndVal,Correct,Frequency,Level,Psychopy_Level,Direction,Reversals,Track_dir,Step,probe.started,probe.stopped,cross_cue.started,cross_cue.stopped,circle_cue.started,circle_cue.stopped,triangle_cue.started,triangle_cue.stopped,feedback.keys,feedback.corr,feedback.rt,feedback.started,feedback.stopped,memo.started,memo.stopped,key_resp.keys,key_resp.rt,key_resp.started,key_resp.stopped,text.started,text.stopped,participant,session,skip_training,language (english or french),date,expName,psychopyVersion,frameRate,
850,0,0,0,2,,,,,,,,,850,30,left,49.01226725000024,49.235424200000125,None,None,left,1,1.564387099999749,48.53915050000023,None,,,,,,,,,,,,,,,,,,,,,,,,,,,,,,,,,cwzopc,001,0,english,2022-07-20_11h00.46.762,3-AFC_adaptive_staircase_mess,2022.1.1,33.801289654421886,
450,0,1,1,1,,,,,,,,,450,30,up,55.96183295000001,None,None,None,up,1,1.8614925000001676,54.50652570000011,None,,,,,,,,,,,,,,,,,,,,,,,,,,,,,,,,,cwzopc,001,0,english,2022-07-20_11h00.46.762,3-AFC_adaptive_staircase_mess,2022.1.1,33.801289654421886,
5000,0,2,2,4,,,,,,,,,5000,30,up,61.92877555000005,None,None,None,up,1,2.1199166999995214,60.46313190000001,None,,,,,,,,,,,,,,,,,,,,,,,,,,,,,,,,,cwzopc,001,0,english,2022-07-20_11h00.46.762,3-AFC_adaptive_staircase_mess,2022.1.1,33.801289654421886,
200,0,3,3,0,,,,,,,,,200,30,left,65.74292165000006,None,None,None,left,1,1.0713259999997717,65.30326229999991,None,,,,,,,,,,,,,,,,,,,,,,,,,,,,,,,,,cwzopc,001,0,english,2022-07-20_11h00.46.762,3-AFC_adaptive_staircase_mess,2022.1.1,33.801289654421886,
1300,0,4,4,3,,,,,,,,,1300,30,up,70.34031885000022,None,None,None,up,1,2.0165562999995927,68.88629250000031,None,,,,,,,,,,,,,,,,,,,,,,,,,,,,,,,,,cwzopc,001,0,english,2022-07-20_11h00.46.762,3-AFC_adaptive_staircase_mess,2022.1.1,33.801289654421886,
,,,,,0,0,0,0,0,0,0,0,,,,,,,,,,,,,[],[],10,left,1000,30,0.0013930605843148849,0,0,-1,10,85.20694405000003,None,85.17727190000005,85.50343240000029,None,None,None,None,left,1,0.581172400000014,85.20966150000004,None,None,None,,,,,,,cwzopc,001,0,english,2022-07-20_11h00.46.762,3-AFC_adaptive_staircase_mess,2022.1.1,33.801289654421886,
,,,,,0,0,0,0,1,0,1,0,,,,,,,,,,,,,,,,up,1000,30,0.0013930605843148849,0,0,-1,10,88.3546504500001,None,87.30718700000034,87.62881379999999,88.29258670000036,88.61771110000018,None,None,up,1,1.450350999999955,87.34036090000018,None,None,None,,,,,,,cwzopc,001,0,english,2022-07-20_11h00.46.762,3-AFC_adaptive_staircase_mess,2022.1.1,33.801289654421886,
,,,,,0,0,0,0,2,0,2,0,,,,,,,,,,,,,,,,left,1000,10,0.00013930605843148847,-1,0,-1,-10,90.34068944999999,None,90.28098080000018,90.60518339999999,91.29382060000034,91.6160903,92.28072920000022,92.60420569999997,right,0,11.424426200000198,90.34307949999993,None,92.83029089999991,None,,,,,,,cwzopc,001,0,english,2022-07-20_11h00.46.762,3-AFC_adaptive_staircase_mess,2022.1.1,33.801289654421886,
,,,,,0,0,0,0,3,0,3,0,,,,,,,,,,,,,,,,right,1000,15,0.000247725095402395,1,1,1,5,105.31860945000025,None,103.25145950000024,103.57296980000001,104.27204100000017,104.59324860000015,105.25719900000013,105.58074710000028,right,1,2.659735499999897,103.31493159999991,None,105.80513530000007,None,,,,,,,cwzopc,001,0,english,2022-07-20_11h00.46.762,3-AFC_adaptive_staircase_mess,2022.1.1,33.801289654421886,
,,,,,0,0,0,0,4,0,4,0,,,,,,,,,,,,,,,,right,1000,15,0.000247725095402395,1,1,1,5,109.51252514999996,None,107.45504250000022,107.77878520000013,108.47186950000014,108.79076710000027,109.45032119999996,109.77565840000034,right,1,2.559610299999804,107.5190149,None,110.00401140000031,None,,,,,,,cwzopc,001,0,english,2022-07-20_11h00.46.762,3-AFC_adaptive_staircase_mess,2022.1.1,33.801289654421886,
,,,,,0,0,0,0,5,0,5,0,,,,,,,,,,,,,,,,up,1000,5,7.833755350540742e-05,-1,2,-1,-5.0,112.63920044999995,None,111.58892370000012,111.91248070000029,112.57711310000013,112.90065069999991,113.59341230000018,113.91803840000011,up,1,2.392534699999942,111.6548057,None,None,None,,,,,,,cwzopc,001,0,english,2022-07-20_11h00.46.762,3-AFC_adaptive_staircase_mess,2022.1.1,33.801289654421886,
,,,,,0,0,0,0,6,0,6,0,,,,,,,,,,,,,,,,left,1000,5,7.833755350540742e-05,-1,2,-1,-5.0,115.62021455000021,None,115.55801060000022,115.8839210000001,None,None,None,None,left,1,0.8090087000000494,115.62329530000034,None,None,None,,,,,,,cwzopc,001,0,english,2022-07-20_11h00.46.762,3-AFC_adaptive_staircase_mess,2022.1.1,33.801289654421886,
,,,,,0,0,0,0,7,0,7,0,,,,,,,,,,,,,,,,right,1000,0.0,4.405244365040069e-05,-1,2,-1,-5.0,119.96166185000001,None,117.93159289999994,118.25526230000014,118.91648149999992,119.23628170000029,119.93198970000003,120.2573497000003,right,1,5.067418899999666,117.99527149999994,None,120.47739200000024,None,,,,,,,cwzopc,001,0,english,2022-07-20_11h00.46.762,3-AFC_adaptive_staircase_mess,2022.1.1,33.801289654421886,
,,,,,0,0,0,0,8,0,8,0,,,,,,,,,,,,,,,,right,1000,0.0,4.405244365040069e-05,-1,2,-1,-5.0,126.60357015000008,None,124.56155209999997,124.88377020000007,125.55628280000019,125.87836560000005,126.5738980000001,126.89938819999998,right,1,3.4588361000000987,124.62752660000024,None,127.11837770000011,None,,,,,,,cwzopc,001,0,english,2022-07-20_11h00.46.762,3-AFC_adaptive_staircase_mess,2022.1.1,33.801289654421886,
,,,,,0,0,0,0,9,0,9,0,,,,,,,,,,,,,,,,up,1000,-5.0,2.4772509540239506e-05,-1,2,-1,-5.0,130.64450075000022,130.85458900000003,129.5991038000002,129.9170922000003,130.61482860000024,130.9183981000001,131.61342289999993,131.93571139999995,up,1,3.007742899999812,129.6627555,None,132.1565297000002,None,,,,,,,cwzopc,001,0,english,2022-07-20_11h00.46.762,3-AFC_adaptive_staircase_mess,2022.1.1,33.801289654421886,
,,,,,0,0,0,0,10,0,10,0,,,,,,,,,,,,,,,,left,1000,-5.0,2.4772509540239506e-05,-1,2,-1,-5.0,134.22832385,None,134.16651570000022,134.49071709999998,135.15890519999994,135.48267080000005,136.1832546999999,136.5052727000002,right,0,3.9420780000000377,134.2322509999999,None,136.7276224000002,None,,,,,,,cwzopc,001,0,english,2022-07-20_11h00.46.762,3-AFC_adaptive_staircase_mess,2022.1.1,33.801289654421886,
,,,,,0,0,0,0,11,0,11,0,,,,,,,,,,,,,,,,up,1000,-2.5,3.303467240037979e-05,1,3,1,2.5,140.71591205000013,None,139.66941220000035,139.99095370000032,140.68623990000015,141.01139920000014,141.67493140000033,141.9984373000002,right,0,5.442908499999703,139.73215120000032,None,142.22200950000024,None,,,,,,,cwzopc,001,0,english,2022-07-20_11h00.46.762,3-AFC_adaptive_staircase_mess,2022.1.1,33.801289654421886,
,,,,,0,0,0,0,12,0,12,0,,,,,,,,,,,,,,,,up,1000,0.0,4.405244365040069e-05,1,3,1,2.5,147.7239993500003,None,146.6821871000002,147.0023401000003,147.69432720000032,148.02128110000012,148.6891042000002,149.01074850000032,right,0,3.62065659999962,146.74643800000013,None,149.23451260000002,None,,,,,,,cwzopc,001,0,english,2022-07-20_11h00.46.762,3-AFC_adaptive_staircase_mess,2022.1.1,33.801289654421886,
,,,,,0,0,0,0,13,0,13,0,,,,,,,,,,,,,,,,up,1000,2.5,5.874487774697646e-05,1,3,1,2.5,152.89482505000032,None,151.84945760000028,152.16870700000027,152.86515290000034,153.1923297000003,None,None,up,1,1.7818684999997458,151.91344350000008,None,None,None,,,,,,,cwzopc,001,0,english,2022-07-20_11h00.46.762,3-AFC_adaptive_staircase_mess,2022.1.1,33.801289654421886,
,,,,,0,0,0,0,14,0,14,0,,,,,,,,,,,,,,,,right,1000,2.5,5.874487774697646e-05,1,3,1,2.5,157.24829224999993,None,155.18537340000012,155.50669349999998,156.1716561000003,156.49286419999999,157.18631630000027,157.51228880000008,right,1,2.5674214999999094,155.24736500000017,None,157.7339138000002,None,,,,,,,cwzopc,001,0,english,2022-07-20_11h00.46.762,3-AFC_adaptive_staircase_mess,2022.1.1,33.801289654421886,
,,,,,0,0,0,0,15,0,15,0,,,,,,,,,,,,,,,,up,1000,-2.5,3.303467240037979e-05,-1,4,-1,-5.0,160.3801178499999,160.6064212000001,159.3121089000001,159.63397020000002,160.31302520000008,160.64047040000014,161.32334059999994,161.63513779999994,left,0,3.6624251999996886,159.3762595000003,None,161.8642232000002,None,,,,,,,cwzopc,001,0,english,2022-07-20_11h00.46.762,3-AFC_adaptive_staircase_mess,2022.1.1,33.801289654421886,
,,,,,0,0,0,0,16,0,16,0,,,,,,,,,,,,,,,,right,1000,0.0,4.405244365040069e-05,1,5,1,2.5,166.57178585000028,None,164.53653480000003,164.85867580000013,165.5236606000003,165.84961310000017,166.5421137000003,166.86793579999994,right,1,3.894287500000246,164.60077249999995,None,167.09100000000035,None,,,,,,,cwzopc,001,0,english,2022-07-20_11h00.46.762,3-AFC_adaptive_staircase_mess,2022.1.1,33.801289654421886,
,,,,,0,0,0,0,17,0,17,0,,,,,,,,,,,,,,,,right,1000,0.0,4.405244365040069e-05,1,5,1,2.5,172.06626425000022,None,170.01218730000028,170.33385399999997,170.99305649999997,171.3118843000002,172.0025998000001,172.32998850000013,right,1,2.7855255999998008,170.0446151000001,None,172.55262570000014,None,,,,,,,cwzopc,001,0,english,2022-07-20_11h00.46.762,3-AFC_adaptive_staircase_mess,2022.1.1,33.801289654421886,
,,,,,0,0,0,0,18,0,18,0,,,,,,,,,,,,,,,,left,1000,-5.0,2.4772509540239506e-05,-1,6,-1,-5.0,174.39556515000012,None,174.3335936000003,174.65907070000003,175.3509282,175.67584490000036,176.33839650000027,176.65696460000026,right,0,3.2198358999999073,174.38721280000027,None,176.8793109000003,None,,,,,,,cwzopc,001,0,english,2022-07-20_11h00.46.762,3-AFC_adaptive_staircase_mess,2022.1.1,33.801289654421886,
,,,,,1,0,1,0,0,0,0,0,,,,,,,,,,,,,[],[],10,up,1500,30,0.001527460556607757,0,0,-1,10,182.0655111500001,None,181.02335399999993,181.3452924000003,182.03583900000012,182.35734600000023,None,None,up,1,1.5273989000002075,181.08699539999998,None,None,None,right,1.8691326999996818,178.68112840000003,None,178.68112840000003,None,cwzopc,001,0,english,2022-07-20_11h00.46.762,3-AFC_adaptive_staircase_mess,2022.1.1,33.801289654421886,
,,,,,1,0,1,0,1,0,1,0,,,,,,,,,,,,,,,,left,1500,30,0.001527460556607757,0,0,-1,10,184.1862008500003,None,184.12441050000007,184.44895889999998,None,None,None,None,left,1,0.5375057999999626,184.18922520000024,None,None,None,,,,,,,cwzopc,001,0,english,2022-07-20_11h00.46.762,3-AFC_adaptive_staircase_mess,2022.1.1,33.801289654421886,
,,,,,1,0,1,0,2,0,2,0,,,,,,,,,,,,,,,,up,1500,10,0.0001527460556607757,-1,0,-1,-10,187.25321575000007,None,186.1969207000002,186.52962350000007,187.22354360000008,187.5501787000003,188.21357380000018,188.5390156000003,right,0,3.8870387000001756,186.27209570000014,None,188.76192990000027,None,,,,,,,cwzopc,001,0,english,2022-07-20_11h00.46.762,3-AFC_adaptive_staircase_mess,2022.1.1,33.801289654421886,
,,,,,1,0,1,0,3,0,3,0,,,,,,,,,,,,,,,,up,1500,15,0.00027162516574621667,1,1,1,5,192.6961690500003,None,191.65679690000024,191.9768696000001,192.6664969000003,192.9938043000002,None,None,up,1,1.4961075000001074,191.7184858999999,None,None,None,,,,,,,cwzopc,001,0,english,2022-07-20_11h00.46.762,3-AFC_adaptive_staircase_mess,2022.1.1,33.801289654421886,
,,,,,1,0,1,0,4,0,4,0,,,,,,,,,,,,,,,,right,1500,15,0.00027162516574621667,1,1,1,5,196.7804825500003,None,194.72240490000013,195.03519129999995,195.72862320000013,196.04200070000024,196.71883130000015,197.04060010000012,right,1,2.427667399999791,194.75481100000025,None,None,None,,,,,,,cwzopc,001,0,english,2022-07-20_11h00.46.762,3-AFC_adaptive_staircase_mess,2022.1.1,33.801289654421886,
,,,,,1,0,1,0,5,0,5,0,,,,,,,,,,,,,,,,up,1500,5,8.589541935787943e-05,-1,2,-1,-5.0,199.72505474999988,None,198.67517480000015,198.9974844000003,199.6953825999999,200.0205745000003,200.6793901000001,201.00295170000027,right,0,6.531708200000139,198.73948880000034,None,201.22855049999998,None,,,,,,,cwzopc,001,0,english,2022-07-20_11h00.46.762,3-AFC_adaptive_staircase_mess,2022.1.1,33.801289654421886,
,,,,,1,0,1,0,6,0,6,0,,,,,,,,,,,,,,,,up,1500,7.5,0.00011454338263838867,1,3,1,2.5,207.80699005000005,None,206.76101289999997,207.08234549999997,207.77731790000007,208.10291910000024,208.7694706000002,209.0864991000003,right,0,3.2542599999997037,206.82479160000003,None,209.31131800000003,None,,,,,,,cwzopc,001,0,english,2022-07-20_11h00.46.762,3-AFC_adaptive_staircase_mess,2022.1.1,33.801289654421886,
,,,,,1,0,1,0,7,0,7,0,,,,,,,,,,,,,,,,up,1500,10.0,0.0001527460556607757,1,3,1,2.5,212.60891115000013,None,211.5621458999999,211.88231540000015,212.57923900000014,212.90549379999993,213.56414339999992,213.88745310000013,up,1,2.380184499999814,211.62688750000007,None,None,None,,,,,,,cwzopc,001,0,english,2022-07-20_11h00.46.762,3-AFC_adaptive_staircase_mess,2022.1.1,33.801289654421886,
,,,,,1,0,1,0,8,0,8,0,,,,,,,,,,,,,,,,left,1500,10.0,0.0001527460556607757,1,3,1,2.5,215.55281865000015,None,215.49139689999993,215.81625789999998,216.47969980000016,216.80892280000035,217.50301979999995,217.8238024000002,right,0,3.0999087999998665,215.55499009999994,None,218.04862189999994,None,,,,,,,cwzopc,001,0,english,2022-07-20_11h00.46.762,3-AFC_adaptive_staircase_mess,2022.1.1,33.801289654421886,
,,,,,1,0,1,0,9,0,9,0,,,,,,,,,,,,,,,,left,1500,12.5,0.0002036901389020564,1,3,1,2.5,220.20480425000014,None,220.14252699999997,220.46444930000007,221.14255660000026,None,None,None,left,1,1.064011599999958,220.20749569999998,None,None,None,,,,,,,cwzopc,001,0,english,2022-07-20_11h00.46.762,3-AFC_adaptive_staircase_mess,2022.1.1,33.801289654421886,
,,,,,1,0,1,0,10,0,10,0,,,,,,,,,,,,,,,,left,1500,12.5,0.0002036901389020564,1,3,1,2.5,222.79457865000003,None,222.76490650000005,223.09110050000027,None,None,None,None,left,1,0.7767061999998077,222.79911680000032,None,None,None,,,,,,,cwzopc,001,0,english,2022-07-20_11h00.46.762,3-AFC_adaptive_staircase_mess,2022.1.1,33.801289654421886,
,,,,,1,0,1,0,11,0,11,0,,,,,,,,,,,,,,,,left,1500,7.5,0.00011454338263838867,-1,4,-1,-5.0,225.1304907499999,225.35673429999997,225.06507880000026,225.39053190000004,226.0869591999999,226.40454260000024,227.06176830000004,227.37407759999996,right,0,3.4146559999999226,225.1357240000002,None,227.61823840000034,None,,,,,,,cwzopc,001,0,english,2022-07-20_11h00.46.762,3-AFC_adaptive_staircase_mess,2022.1.1,33.801289654421886,
,,,,,1,0,1,0,12,0,12,0,,,,,,,,,,,,,,,,left,1500,10.0,0.0001527460556607757,1,5,1,2.5,230.09527745000022,230.31602340000018,230.06560530000024,230.38236039999992,231.0587803000003,231.37324880000006,232.06696730000021,232.38461610000013,up,0,2.892222899999979,230.0988609000001,None,232.63204110000015,None,,,,,,,cwzopc,001,0,english,2022-07-20_11h00.46.762,3-AFC_adaptive_staircase_mess,2022.1.1,33.801289654421886,
,,,,,1,0,1,0,13,0,13,0,,,,,,,,,,,,,,,,up,1500,12.5,0.0002036901389020564,1,5,1,2.5,235.51717625,None,234.47285929999998,234.78783890000022,235.48750410000002,235.82016680000015,236.48612840000033,236.80105820000017,up,1,2.417671700000028,234.5093225999999,None,None,None,,,,,,,cwzopc,001,0,english,2022-07-20_11h00.46.762,3-AFC_adaptive_staircase_mess,2022.1.1,33.801289654421886,
,,,,,1,0,1,0,14,0,14,0,,,,,,,,,,,,,,,,right,1500,12.5,0.0002036901389020564,1,5,1,2.5,240.46858905000008,None,238.4383743000003,238.75537269999995,239.4340118,239.75310560000025,240.4389169000001,240.75978620000024,right,1,2.6923251000002892,238.4741984000002,None,241.0045543000001,None,,,,,,,cwzopc,001,0,english,2022-07-20_11h00.46.762,3-AFC_adaptive_staircase_mess,2022.1.1,33.801289654421886,
,,,,,1,0,1,0,15,0,15,0,,,,,,,,,,,,,,,,up,1500,7.5,0.00011454338263838867,-1,6,-1,-5.0,243.73688355000021,243.9609749000001,242.67978799999992,242.99035550000008,243.67204880000008,243.9956972,244.6872831999999,245.00922059999994,right,0,3.054284099999677,242.74550350000027,None,245.23350329999994,None,,,,,,,cwzopc,001,0,english,2022-07-20_11h00.46.762,3-AFC_adaptive_staircase_mess,2022.1.1,33.801289654421886,
,,,,,2,0,2,0,0,0,0,0,,,,,,,,,,,,,[],[],10,left,2000,30,0.0023657562948074026,0,0,-1,10,248.19056055000019,None,248.12753169999996,248.45427969999992,None,None,None,None,left,1,0.7734663999999611,248.1936979000002,None,None,None,up,0.7975956999998743,246.88082179999992,None,246.88082179999992,None,cwzopc,001,0,english,2022-07-20_11h00.46.762,3-AFC_adaptive_staircase_mess,2022.1.1,33.801289654421886,
,,,,,2,0,2,0,1,0,1,0,,,,,,,,,,,,,,,,right,2000,30,0.0023657562948074026,0,0,-1,10,252.53868005000012,None,250.47048620000032,250.79726290000008,251.48940440000024,251.81575909999992,252.47704999999996,252.79865280000013,right,1,2.672255999999834,250.53458219999993,None,253.0211148000003,None,,,,,,,cwzopc,001,0,english,2022-07-20_11h00.46.762,3-AFC_adaptive_staircase_mess,2022.1.1,33.801289654421886,
,,,,,2,0,2,0,2,0,2,0,,,,,,,,,,,,,,,,right,2000,10,0.00023657562948074026,-1,0,-1,-10,256.77033214999994,None,254.70845940000027,255.031297,255.72691920000034,256.04968529999996,256.70826020000004,257.0331446,right,1,2.3552371999999195,254.77256530000022,None,None,None,,,,,,,cwzopc,001,0,english,2022-07-20_11h00.46.762,3-AFC_adaptive_staircase_mess,2022.1.1,33.801289654421886,
,,,,,2,0,2,0,3,0,3,0,,,,,,,,,,,,,,,,up,2000,10,0.00023657562948074026,-1,0,-1,-10,259.65396465000015,None,258.6094998000003,258.9341093000003,259.62429250000014,259.94963750000034,None,None,up,1,1.8613303999995878,258.67316530000016,None,None,None,,,,,,,cwzopc,001,0,english,2022-07-20_11h00.46.762,3-AFC_adaptive_staircase_mess,2022.1.1,33.801289654421886,
,,,,,2,0,2,0,4,0,4,0,,,,,,,,,,,,,,,,up,2000,0,7.481178280472168e-05,-1,0,-1,-10,263.0594196500002,None,262.0208523000001,262.33952249999993,263.0297475000002,263.3560199000003,None,None,up,1,1.6500315999996928,262.0845753000003,None,None,None,,,,,,,cwzopc,001,0,english,2022-07-20_11h00.46.762,3-AFC_adaptive_staircase_mess,2022.1.1,33.801289654421886,
,,,,,2,0,2,0,5,0,5,0,,,,,,,,,,,,,,,,right,2000,0,7.481178280472168e-05,-1,0,-1,-10,267.30086325000013,None,265.24262610000005,265.56314790000033,266.2520247000002,266.5743708,267.2387669,267.5657341000001,right,1,2.3794872999997096,265.3067073000002,None,None,None,,,,,,,cwzopc,001,0,english,2022-07-20_11h00.46.762,3-AFC_adaptive_staircase_mess,2022.1.1,33.801289654421886,
,,,,,2,0,2,0,6,0,6,0,,,,,,,,,,,,,,,,left,2000,-10,2.3657562948074015e-05,-1,0,-1,-10,269.2335791500001,None,269.1719969999999,269.49800559999994,270.16550970000026,270.48444870000003,271.1806051000003,271.50101440000026,right,0,3.3082941000002393,269.2356024999999,None,271.7194958,None,,,,,,,cwzopc,001,0,english,2022-07-20_11h00.46.762,3-AFC_adaptive_staircase_mess,2022.1.1,33.801289654421886,
,,,,,2,0,2,0,7,0,7,0,,,,,,,,,,,,,,,,up,2000,-5,4.206975708225974e-05,1,1,1,5,275.0960165500002,None,274.04844570000023,274.36925710000014,275.03646800000024,275.35701990000007,276.05294860000004,276.37478090000013,right,0,5.286315299999842,274.1119370000001,None,276.5927351,None,,,,,,,cwzopc,001,0,english,2022-07-20_11h00.46.762,3-AFC_adaptive_staircase_mess,2022.1.1,33.801289654421886,
,,,,,2,0,2,0,8,0,8,0,,,,,,,,,,,,,,,,left,2000,0,7.481178280472168e-05,1,1,1,5,280.94402434999995,None,280.91435219999994,281.2454230000003,281.91168689999995,None,None,None,left,1,1.0825835999994524,280.9485775000003,None,None,None,,,,,,,cwzopc,001,0,english,2022-07-20_11h00.46.762,3-AFC_adaptive_staircase_mess,2022.1.1,33.801289654421886,
,,,,,2,0,2,0,9,0,9,0,,,,,,,,,,,,,,,,right,2000,0,7.481178280472168e-05,1,1,1,5,285.5560684500002,None,283.52251560000013,283.84896660000004,284.513602,284.83221219999996,285.5263963000002,285.85207930000024,right,1,2.4644553999996788,283.5904112000003,None,286.07460230000015,None,,,,,,,cwzopc,001,0,english,2022-07-20_11h00.46.762,3-AFC_adaptive_staircase_mess,2022.1.1,33.801289654421886,
,,,,,2,0,2,0,10,0,10,0,,,,,,,,,,,,,,,,up,2000,-10,2.3657562948074015e-05,-1,2,-1,-5.0,288.58243834999996,None,287.5359790000002,287.8590581000003,288.55276619999995,288.8798339,289.5385745000003,289.86369760000025,right,0,2.628468200000043,287.6025889000002,None,290.10075940000024,None,,,,,,,cwzopc,001,0,english,2022-07-20_11h00.46.762,3-AFC_adaptive_staircase_mess,2022.1.1,33.801289654421886,
,,,,,2,0,2,0,11,0,11,0,,,,,,,,,,,,,,,,right,2000,-7.5,3.154786722400965e-05,1,3,1,2.5,293.77216475000034,None,291.7112725000002,292.03240619999997,292.729703,293.0487714000001,293.7095865000001,294.03659480000033,right,1,2.92956920000006,291.77366840000013,None,294.2587871999999,None,,,,,,,cwzopc,001,0,english,2022-07-20_11h00.46.762,3-AFC_adaptive_staircase_mess,2022.1.1,33.801289654421886,
,,,,,2,0,2,0,12,0,12,0,,,,,,,,,,,,,,,,right,2000,-7.5,3.154786722400965e-05,1,3,1,2.5,298.2392838500001,None,296.17641300000014,296.5017649000001,297.19898420000027,297.5196237,298.17787380000027,298.50380300000006,right,1,2.6779592999996567,296.24191900000005,None,298.72524060000023,None,,,,,,,cwzopc,001,0,english,2022-07-20_11h00.46.762,3-AFC_adaptive_staircase_mess,2022.1.1,33.801289654421886,
,,,,,2,0,2,0,13,0,13,0,,,,,,,,,,,,,,,,right,2000,-12.5,1.7740669461678767e-05,-1,4,-1,-5.0,302.4533788499999,None,300.39715030000025,300.71636780000017,301.4065075000003,301.72923470000023,302.3908477,302.7188721000002,right,1,6.299052899999879,300.45956130000013,None,302.9424134000001,None,,,,,,,cwzopc,001,0,english,2022-07-20_11h00.46.762,3-AFC_adaptive_staircase_mess,2022.1.1,33.801289654421886,
,,,,,2,0,2,0,14,0,14,0,,,,,,,,,,,,,,,,left,2000,-12.5,1.7740669461678767e-05,-1,4,-1,-5.0,308.32130444999996,None,308.25865539999995,308.5852073000001,309.2816253000001,309.6040226,310.2599269000002,310.5843840000002,right,0,3.643235800000184,308.3239397000002,None,310.8072569000001,None,,,,,,,cwzopc,001,0,english,2022-07-20_11h00.46.762,3-AFC_adaptive_staircase_mess,2022.1.1,33.801289654421886,
,,,,,2,0,2,0,15,0,15,0,,,,,,,,,,,,,,,,right,2000,-10.0,2.3657562948074015e-05,1,5,1,2.5,315.5218574500001,None,313.4629011000002,313.78626140000006,314.4774182000001,314.79849430000013,315.4602815000003,315.7852028000002,right,1,3.6479254000000765,313.5268148,None,316.00646400000005,None,,,,,,,cwzopc,001,0,english,2022-07-20_11h00.46.762,3-AFC_adaptive_staircase_mess,2022.1.1,33.801289654421886,
,,,,,2,0,2,0,16,0,16,0,,,,,,,,,,,,,,,,left,2000,-10.0,2.3657562948074015e-05,1,5,1,2.5,318.72013204999996,None,318.6581150000002,318.98568030000024,319.64513430000034,319.9657239000003,320.6566957,320.9754720000001,up,0,2.4607661000000007,318.7221109000002,None,321.2240900500002,None,,,,,,,cwzopc,001,0,english,2022-07-20_11h00.46.762,3-AFC_adaptive_staircase_mess,2022.1.1,33.801289654421886,
,,,,,2,0,2,0,17,0,17,0,,,,,,,,,,,,,,,,up,2000,-7.5,3.154786722400965e-05,1,5,1,2.5,323.72269255000003,None,322.67459469999994,322.9985614000002,323.66083240000034,323.97989529999995,324.67456280000033,324.9980722,right,0,3.0435222999999496,322.73892590000014,None,325.21600620000027,None,,,,,,,cwzopc,001,0,english,2022-07-20_11h00.46.762,3-AFC_adaptive_staircase_mess,2022.1.1,33.801289654421886,
,,,,,2,0,2,0,18,0,18,0,,,,,,,,,,,,,,,,up,2000,-5.0,4.206975708225974e-05,1,5,1,2.5,328.32042994999995,None,327.2713106000001,327.5934711,328.2581808,328.5794811999999,329.2722377,329.5941087000001,up,1,2.3347975000001497,327.3363709,None,None,None,,,,,,,cwzopc,001,0,english,2022-07-20_11h00.46.762,3-AFC_adaptive_staircase_mess,2022.1.1,33.801289654421886,
,,,,,2,0,2,0,19,0,19,0,,,,,,,,,,,,,,,,up,2000,-5.0,4.206975708225974e-05,1,5,1,2.5,332.20089685000005,None,331.16375050000033,331.48000070000035,332.17122470000004,332.49830969999994,333.1615259,333.4807065,up,1,2.6358634999996866,331.2277919000003,None,333.7045413000001,None,,,,,,,cwzopc,001,0,english,2022-07-20_11h00.46.762,3-AFC_adaptive_staircase_mess,2022.1.1,33.801289654421886,
,,,,,2,0,2,0,20,0,20,0,,,,,,,,,,,,,,,,up,2000,-10.0,2.3657562948074015e-05,-1,6,-1,-5.0,336.3975855499999,None,335.3516625000002,335.67500910000035,336.3679133999999,336.69401340000013,337.3514556,337.67373180000004,right,0,2.7363642999998774,335.4150572000003,None,337.8953088000003,None,,,,,,,cwzopc,001,0,english,2022-07-20_11h00.46.762,3-AFC_adaptive_staircase_mess,2022.1.1,33.801289654421886,
,,,,,3,0,3,0,0,0,0,0,,,,,,,,,,,,,[],[],10,left,3000,30,0.001733684252262658,0,0,-1,10,371.02022665000015,None,370.9598636999999,371.2842344999999,371.9527307000003,None,None,None,left,1,0.9531498999999712,371.02274990000024,None,None,None,right,31.275363599999764,339.2275506000001,None,339.2275506000001,None,cwzopc,001,0,english,2022-07-20_11h00.46.762,3-AFC_adaptive_staircase_mess,2022.1.1,33.801289654421886,
,,,,,3,0,3,0,1,0,1,0,,,,,,,,,,,,,,,,right,3000,30,0.001733684252262658,0,0,-1,10,375.50230405000013,None,373.4694929000002,373.78789570000026,374.4835455000002,374.81006160000015,375.4726319000001,375.7930282000002,right,1,2.496741799999654,373.5015635,None,376.0161270000003,None,,,,,,,cwzopc,001,0,english,2022-07-20_11h00.46.762,3-AFC_adaptive_staircase_mess,2022.1.1,33.801289654421886,
,,,,,3,0,3,0,2,0,2,0,,,,,,,,,,,,,,,,up,3000,10,0.00017336842522626576,-1,0,-1,-10,378.54359115,None,377.4915110000002,377.8160994,378.4809117,378.80815759999996,None,None,up,1,1.4054910999998356,377.5552720999999,None,None,None,,,,,,,cwzopc,001,0,english,2022-07-20_11h00.46.762,3-AFC_adaptive_staircase_mess,2022.1.1,33.801289654421886,
,,,,,3,0,3,0,3,0,3,0,,,,,,,,,,,,,,,,left,3000,10,0.00017336842522626576,-1,0,-1,-10,380.4976632500003,None,380.43809580000016,380.7621343999999,None,None,None,None,left,1,0.48185160000002725,380.5008788,None,None,None,,,,,,,cwzopc,001,0,english,2022-07-20_11h00.46.762,3-AFC_adaptive_staircase_mess,2022.1.1,33.801289654421886,
,,,,,3,0,3,0,4,0,4,0,,,,,,,,,,,,,,,,up,3000,0,5.482390980715923e-05,-1,0,-1,-10,383.50365445,None,382.45600250000007,382.7786433000001,383.4739823,383.8003607999999,384.4625973000002,384.78895230000035,up,1,2.3338057999999364,382.5205312000003,None,None,None,,,,,,,cwzopc,001,0,english,2022-07-20_11h00.46.762,3-AFC_adaptive_staircase_mess,2022.1.1,33.801289654421886,
,,,,,3,0,3,0,5,0,5,0,,,,,,,,,,,,,,,,left,3000,0,5.482390980715923e-05,-1,0,-1,-10,386.4255682500003,None,386.36391600000024,386.68851140000015,None,None,None,None,left,1,0.7707878000001074,386.4281651000001,None,None,None,,,,,,,cwzopc,001,0,english,2022-07-20_11h00.46.762,3-AFC_adaptive_staircase_mess,2022.1.1,33.801289654421886,
,,,,,3,0,3,0,6,0,6,0,,,,,,,,,,,,,,,,up,3000,-10,1.7336842522626584e-05,-1,0,-1,-10,389.7712728500002,None,388.7095767999999,389.03305880000016,389.7097306999999,390.03316270000005,390.69581659999994,391.0196629000002,right,0,3.2490929000000506,388.7745140000002,None,391.2715181000003,None,,,,,,,cwzopc,001,0,english,2022-07-20_11h00.46.762,3-AFC_adaptive_staircase_mess,2022.1.1,33.801289654421886,
,,,,,3,0,3,0,7,0,7,0,,,,,,,,,,,,,,,,left,3000,-5,3.082975009307411e-05,1,1,1,5,393.58107925000024,None,393.5212896000003,393.84435110000004,394.5370842000002,394.8631465000003,395.5275684000003,395.8495588999999,left,1,2.321348399999806,393.5825401000002,None,None,None,,,,,,,cwzopc,001,0,english,2022-07-20_11h00.46.762,3-AFC_adaptive_staircase_mess,2022.1.1,33.801289654421886,
,,,,,3,0,3,0,8,0,8,0,,,,,,,,,,,,,,,,left,3000,-5,3.082975009307411e-05,1,1,1,5,397.4441962500001,None,397.3826107,397.70776330000035,398.4006564000001,398.72026080000023,399.3805795000003,399.7037497000001,right,0,2.9986197999996875,397.4474422000003,None,399.9263011000003,None,,,,,,,cwzopc,001,0,english,2022-07-20_11h00.46.762,3-AFC_adaptive_staircase_mess,2022.1.1,33.801289654421886,
,,,,,3,0,3,0,9,0,9,0,,,,,,,,,,,,,,,,up,3000,0,5.482390980715923e-05,1,1,1,5,402.98199675000035,None,401.93179610000016,402.25032899999997,402.9202743999999,403.24740180000026,403.9451630000003,404.2667070000002,up,1,2.7649191999998948,401.9942648000001,None,404.49032560000023,None,,,,,,,cwzopc,001,0,english,2022-07-20_11h00.46.762,3-AFC_adaptive_staircase_mess,2022.1.1,33.801289654421886,
,,,,,3,0,3,0,10,0,10,0,,,,,,,,,,,,,,,,up,3000,0,5.482390980715923e-05,1,1,1,5,407.28404495000007,None,406.22991660000025,406.5511399000002,407.22099879999996,407.5475540000002,408.2391219000001,None,up,1,1.9373580000001311,406.2936345000003,None,None,None,,,,,,,cwzopc,001,0,english,2022-07-20_11h00.46.762,3-AFC_adaptive_staircase_mess,2022.1.1,33.801289654421886,
,,,,,3,0,3,0,11,0,11,0,,,,,,,,,,,,,,,,left,3000,-10,1.7336842522626584e-05,-1,2,-1,-5.0,409.78589694999994,410.0007217000002,409.72422430000006,410.03217240000004,410.7271717000003,411.0586490999999,411.7216318999999,412.0444464000002,left,1,2.4667561999999634,409.7884299000002,None,412.26455890000034,None,,,,,,,cwzopc,001,0,english,2022-07-20_11h00.46.762,3-AFC_adaptive_staircase_mess,2022.1.1,33.801289654421886,
,,,,,3,0,3,0,12,0,12,0,,,,,,,,,,,,,,,,right,3000,-10,1.7336842522626584e-05,-1,2,-1,-5.0,415.79999495000004,None,413.735858,414.0594285000002,414.7242067000002,415.04638160000013,415.73830580000003,416.0642648000003,up,0,2.9668456999997943,413.80027050000035,None,416.28848670000025,None,,,,,,,cwzopc,001,0,english,2022-07-20_11h00.46.762,3-AFC_adaptive_staircase_mess,2022.1.1,33.801289654421886,
,,,,,3,0,3,0,13,0,13,0,,,,,,,,,,,,,,,,up,3000,-7.5,2.3119051069963017e-05,1,3,1,2.5,419.2896279500002,None,418.24232710000024,418.56243010000026,419.25995580000017,419.5846750999999,420.2443906000003,420.5697392000002,right,0,3.563563300000169,418.3067524000003,None,420.79258600000003,None,,,,,,,cwzopc,001,0,english,2022-07-20_11h00.46.762,3-AFC_adaptive_staircase_mess,2022.1.1,33.801289654421886,
,,,,,3,0,3,0,14,0,14,0,,,,,,,,,,,,,,,,up,3000,-5.0,3.082975009307411e-05,1,3,1,2.5,424.39474095000025,None,423.35220630000003,423.67200490000005,424.36506880000024,424.69365689999995,425.35622230000035,425.6777284,up,1,2.6176359999999477,423.41369620000023,None,425.9008758,None,,,,,,,cwzopc,001,0,english,2022-07-20_11h00.46.762,3-AFC_adaptive_staircase_mess,2022.1.1,33.801289654421886,
,,,,,3,0,3,0,15,0,15,0,,,,,,,,,,,,,,,,up,3000,-5.0,3.082975009307411e-05,1,3,1,2.5,428.57188185000007,None,427.5177281000001,427.83957180000016,428.5092810000001,428.83595319999995,429.53125420000015,429.8527125999999,up,1,3.384304599999723,427.5821584,None,430.0767284000003,None,,,,,,,cwzopc,001,0,english,2022-07-20_11h00.46.762,3-AFC_adaptive_staircase_mess,2022.1.1,33.801289654421886,
,,,,,3,0,3,0,16,0,16,0,,,,,,,,,,,,,,,,up,3000,-10.0,1.7336842522626584e-05,-1,4,-1,-5.0,433.50506995000035,None,432.4626161000001,432.78197980000004,433.47539780000034,433.8009010999999,434.4633278000001,434.78575649999993,right,0,3.5226872999996885,432.5240156,None,435.00880180000013,None,,,,,,,cwzopc,001,0,english,2022-07-20_11h00.46.762,3-AFC_adaptive_staircase_mess,2022.1.1,33.801289654421886,
,,,,,3,0,3,0,17,0,17,0,,,,,,,,,,,,,,,,up,3000,-7.5,2.3119051069963017e-05,1,5,1,2.5,438.59714785000017,None,437.55243910000036,437.87521800000013,438.56747570000016,438.8951873000001,439.55541760000006,439.87999790000003,up,1,2.58238319999964,437.6169939000001,None,440.09970079999994,None,,,,,,,cwzopc,001,0,english,2022-07-20_11h00.46.762,3-AFC_adaptive_staircase_mess,2022.1.1,33.801289654421886,
,,,,,3,0,3,0,18,0,18,0,,,,,,,,,,,,,,,,up,3000,-7.5,2.3119051069963017e-05,1,5,1,2.5,442.71359335,None,441.66731990000017,441.9911639000002,442.6839212,443.00969840000016,443.66820000000007,443.99071440000034,right,0,5.24259660000007,441.7329526000003,None,444.21291450000035,None,,,,,,,cwzopc,001,0,english,2022-07-20_11h00.46.762,3-AFC_adaptive_staircase_mess,2022.1.1,33.801289654421886,
,,,,,3,0,3,0,19,0,19,0,,,,,,,,,,,,,,,,up,3000,-5.0,3.082975009307411e-05,1,5,1,2.5,449.5242525499999,None,448.4815461000003,448.8036520999999,449.46273440000004,449.7891303000001,450.4783322000003,450.79812459999994,right,0,2.5973236999998335,448.5139194000003,None,451.02161079999996,None,,,,,,,cwzopc,001,0,english,2022-07-20_11h00.46.762,3-AFC_adaptive_staircase_mess,2022.1.1,33.801289654421886,
,,,,,3,0,3,0,20,0,20,0,,,,,,,,,,,,,,,,left,3000,-2.5,4.1112132497353565e-05,1,5,1,2.5,452.6585988500002,None,452.5973385000002,452.9219819,453.6069447,453.9376781000001,454.6012323,454.92482659999996,left,1,2.9127889000001232,452.6624446999999,None,455.1479595999999,None,,,,,,,cwzopc,001,0,english,2022-07-20_11h00.46.762,3-AFC_adaptive_staircase_mess,2022.1.1,33.801289654421886,
,,,,,3,0,3,0,21,0,21,0,,,,,,,,,,,,,,,,left,3000,-2.5,4.1112132497353565e-05,1,5,1,2.5,457.1228008500003,None,457.06103759999996,457.38812899999994,458.0550102000002,458.3757066000003,459.0708552000001,459.3958829000003,up,0,6.762349399999948,457.1257688999999,None,459.61891270000024,None,,,,,,,cwzopc,001,0,english,2022-07-20_11h00.46.762,3-AFC_adaptive_staircase_mess,2022.1.1,33.801289654421886,
,,,,,3,0,3,0,22,0,22,0,,,,,,,,,,,,,,,,right,3000,0.0,5.482390980715923e-05,1,5,1,2.5,467.43867365000017,None,465.3755229000003,465.69422570000006,466.3631997000002,466.68213790000027,467.37663410000005,467.70187970000006,right,1,2.495980099999997,465.43923080000013,None,467.9271133000002,None,,,,,,,cwzopc,001,0,english,2022-07-20_11h00.46.762,3-AFC_adaptive_staircase_mess,2022.1.1,33.801289654421886,
,,,,,3,0,3,0,23,0,23,0,,,,,,,,,,,,,,,,left,3000,0.0,5.482390980715923e-05,1,5,1,2.5,469.5022846500002,None,469.44083530000034,469.76592630000005,None,None,None,None,left,1,0.8541365999999471,469.5045378,None,None,None,,,,,,,cwzopc,001,0,english,2022-07-20_11h00.46.762,3-AFC_adaptive_staircase_mess,2022.1.1,33.801289654421886,
,,,,,3,0,3,0,24,0,24,0,,,,,,,,,,,,,,,,right,3000,-5.0,3.082975009307411e-05,-1,6,-1,-5.0,473.88859485000023,None,471.84722850000026,472.1677373000002,472.8348016,473.15906110000014,473.8589227000002,474.18048980000003,right,1,4.712833300000057,471.91127670000014,None,474.4034428,None,,,,,,,cwzopc,001,0,english,2022-07-20_11h00.46.762,3-AFC_adaptive_staircase_mess,2022.1.1,33.801289654421886,
,,,,,4,0,4,0,0,0,0,0,,,,,,,,,,,,,[],[],10,left,4000,30,0.0026544222211549416,0,0,-1,10,479.7149285500001,None,479.65367349999997,479.9792468999999,None,None,None,None,left,1,0.593641199999638,479.7169116,None,None,None,right,1.4938038999998753,477.6973535000002,None,477.6973535000002,None,cwzopc,001,0,english,2022-07-20_11h00.46.762,3-AFC_adaptive_staircase_mess,2022.1.1,33.801289654421886,
,,,,,4,0,4,0,1,0,1,0,,,,,,,,,,,,,,,,right,4000,30,0.0026544222211549416,0,0,-1,10,483.85696695000036,None,481.794676,482.095965,482.78684220000014,483.09551690000035,483.79550130000007,484.1216922000003,right,1,2.618206199999804,481.8691428000002,None,484.34592079999993,None,,,,,,,cwzopc,001,0,english,2022-07-20_11h00.46.762,3-AFC_adaptive_staircase_mess,2022.1.1,33.801289654421886,
,,,,,4,0,4,0,2,0,2,0,,,,,,,,,,,,,,,,right,4000,10,0.00026544222211549425,-1,0,-1,-10,488.0532501500003,None,485.9948379000002,486.31677790000003,486.98245769999994,487.3031811999999,487.99168320000035,488.3178441,right,1,2.4048314000001483,486.0581725000002,None,None,None,,,,,,,cwzopc,001,0,english,2022-07-20_11h00.46.762,3-AFC_adaptive_staircase_mess,2022.1.1,33.801289654421886,
,,,,,4,0,4,0,3,0,3,0,,,,,,,,,,,,,,,,up,4000,10,0.00026544222211549425,-1,0,-1,-10,490.98821714999997,None,489.94347259999995,490.2623787000002,490.95854499999996,491.2840658,491.94554640000024,492.2648170000002,up,1,2.80817130000014,490.00711070000034,None,492.48803610000004,None,,,,,,,cwzopc,001,0,english,2022-07-20_11h00.46.762,3-AFC_adaptive_staircase_mess,2022.1.1,33.801289654421886,
,,,,,4,0,4,0,4,0,4,0,,,,,,,,,,,,,,,,right,4000,0,8.394020090612804e-05,-1,0,-1,-10,496.35717515,None,494.30931150000015,494.6265935000001,495.31519690000005,495.6327240999999,496.327503,496.6548749000003,right,1,2.6279844999999113,494.37133470000026,None,496.87442660000033,None,,,,,,,cwzopc,001,0,english,2022-07-20_11h00.46.762,3-AFC_adaptive_staircase_mess,2022.1.1,33.801289654421886,
,,,,,4,0,4,0,5,0,5,0,,,,,,,,,,,,,,,,left,4000,0,8.394020090612804e-05,-1,0,-1,-10,498.53743675,None,498.47561970000015,498.8014393000003,None,None,None,None,left,1,0.8903451999999561,498.54040269999996,None,None,None,,,,,,,cwzopc,001,0,english,2022-07-20_11h00.46.762,3-AFC_adaptive_staircase_mess,2022.1.1,33.801289654421886,
,,,,,4,0,4,0,6,0,6,0,,,,,,,,,,,,,,,,left,4000,-10,2.6544222211549425e-05,-1,0,-1,-10,500.97066405,None,500.9088769,501.23367080000025,501.9223559000002,502.2444254000002,502.90790760000027,503.2303581000001,right,0,17.93073860000004,500.97284930000023,None,503.44959270000027,None,,,,,,,cwzopc,001,0,english,2022-07-20_11h00.46.762,3-AFC_adaptive_staircase_mess,2022.1.1,33.801289654421886,
,,,,,4,0,4,0,7,0,7,0,,,,,,,,,,,,,,,,up,4000,-5,4.720304381429618e-05,1,1,1,5,521.4571549500002,None,520.4151855,520.7373895999999,521.4274828000002,521.7536641000002,None,None,up,1,1.70145279999997,520.4815854000003,None,None,None,,,,,,,cwzopc,001,0,english,2022-07-20_11h00.46.762,3-AFC_adaptive_staircase_mess,2022.1.1,33.801289654421886,
,,,,,4,0,4,0,8,0,8,0,,,,,,,,,,,,,,,,right,4000,-5,4.720304381429618e-05,1,1,1,5,525.7196467499999,None,523.6649321,523.9863577000001,524.6774577000001,525.0003558000003,525.6586482000002,525.9836680000003,right,1,2.374077199999647,523.7289766000004,None,None,None,,,,,,,cwzopc,001,0,english,2022-07-20_11h00.46.762,3-AFC_adaptive_staircase_mess,2022.1.1,33.801289654421886,
,,,,,4,0,4,0,9,0,9,0,,,,,,,,,,,,,,,,right,4000,-15,1.4926913094589802e-05,-1,2,-1,-5.0,529.6470004500003,None,527.5916218000002,527.9099228,528.6038329000003,528.9261925999999,529.5853491000003,529.9077072,up,0,2.5443253000003097,527.6556979000002,None,530.1665013000002,None,,,,,,,cwzopc,001,0,english,2022-07-20_11h00.46.762,3-AFC_adaptive_staircase_mess,2022.1.1,33.801289654421886,
,,,,,4,0,4,0,10,0,10,0,,,,,,,,,,,,,,,,up,4000,-12.5,1.9905358527674868e-05,1,3,1,2.5,532.7104582500002,None,531.6726149000001,531.9926556,532.6807861000002,533.0064703000003,533.6672518,533.9880314000002,up,1,2.654439299999922,531.7361669000002,None,534.2415345,None,,,,,,,cwzopc,001,0,english,2022-07-20_11h00.46.762,3-AFC_adaptive_staircase_mess,2022.1.1,33.801289654421886,
,,,,,4,0,4,0,11,0,11,0,,,,,,,,,,,,,,,,right,4000,-12.5,1.9905358527674868e-05,1,3,1,2.5,537.94497285,None,535.8855479000003,536.2095485,536.8734875,537.1931101,537.8832230000003,538.2090158999999,right,1,3.2110544000001937,535.9481734999999,None,538.4341598000001,None,,,,,,,cwzopc,001,0,english,2022-07-20_11h00.46.762,3-AFC_adaptive_staircase_mess,2022.1.1,33.801289654421886,
,,,,,4,0,4,0,12,0,12,0,,,,,,,,,,,,,,,,left,4000,-17.5,1.11936056928417e-05,-1,4,-1,-5.0,540.7012069500003,None,540.6393107000004,540.9684496,541.6591747000002,541.9817338000003,542.6480494000002,542.9705981000002,right,0,3.0636058999998568,540.7027821000001,None,543.1897808000003,None,,,,,,,cwzopc,001,0,english,2022-07-20_11h00.46.762,3-AFC_adaptive_staircase_mess,2022.1.1,33.801289654421886,
,,,,,4,0,4,0,13,0,13,0,,,,,,,,,,,,,,,,right,4000,-15.0,1.4926913094589802e-05,1,5,1,2.5,547.31656145,None,545.2591071000002,545.5802123000003,546.2741679999999,546.5909390000002,547.2548668,547.5802290000001,right,1,3.052867399999741,545.3229163000001,None,547.8337984,None,,,,,,,cwzopc,001,0,english,2022-07-20_11h00.46.762,3-AFC_adaptive_staircase_mess,2022.1.1,33.801289654421886,
,,,,,4,0,4,0,14,0,14,0,,,,,,,,,,,,,,,,right,4000,-15.0,1.4926913094589802e-05,1,5,1,2.5,551.91062505,None,549.8545444000001,550.1738110000001,550.8640639,551.1862521000003,551.8479241,552.1736865000003,right,1,4.689373799999885,549.9181894000003,None,552.3964183000003,None,,,,,,,cwzopc,001,0,english,2022-07-20_11h00.46.762,3-AFC_adaptive_staircase_mess,2022.1.1,33.801289654421886,
,,,,,4,0,4,0,15,0,15,0,,,,,,,,,,,,,,,,up,4000,-20.0,8.394020090612804e-06,-1,6,-1,-5.0,557.1840116500003,None,556.1088725,556.4291923000001,557.1215642000002,557.4493434000001,558.1124179000003,558.4325856,right,0,3.4340698999999404,556.1726834000001,None,558.6833968999999,None,,,,,,,cwzopc,001,0,english,2022-07-20_11h00.46.762,3-AFC_adaptive_staircase_mess,2022.1.1,33.801289654421886,
,,,,,5,0,5,0,0,0,0,0,,,,,,,,,,,,,[],[],10,right,6000,30,0.003664122665694519,0,0,-1,10,564.7638305500001,564.9805728000001,562.7105184000002,563.0306645000001,563.7199187000001,564.0406361,564.7341584000001,565.0443331000001,right,1,2.4403815999999097,562.7743826000001,None,565.26252515,None,right,1.526602400000229,560.6803380000001,None,560.6803380000001,None,cwzopc,001,0,english,2022-07-20_11h00.46.762,3-AFC_adaptive_staircase_mess,2022.1.1,33.801289654421886,
,,,,,5,0,5,0,1,0,1,0,,,,,,,,,,,,,,,,up,6000,30,0.003664122665694519,0,0,-1,10,567.7521589500003,None,566.7058217000003,567.0272370000002,567.6904938000002,568.014776,None,None,up,1,1.493982799999685,566.7687793,None,None,None,,,,,,,cwzopc,001,0,english,2022-07-20_11h00.46.762,3-AFC_adaptive_staircase_mess,2022.1.1,33.801289654421886,
,,,,,5,0,5,0,2,0,2,0,,,,,,,,,,,,,,,,up,6000,10,0.00036641226656945183,-1,0,-1,-10,570.79089205,None,569.7492451000003,570.0695902000002,570.7612199,571.0827557000002,None,None,up,1,1.5621179999998276,569.8131783000003,None,None,None,,,,,,,cwzopc,001,0,english,2022-07-20_11h00.46.762,3-AFC_adaptive_staircase_mess,2022.1.1,33.801289654421886,
,,,,,5,0,5,0,3,0,3,0,,,,,,,,,,,,,,,,left,6000,10,0.00036641226656945183,-1,0,-1,-10,572.9279979500003,None,572.8683875000002,573.1898063000003,None,None,None,None,left,1,0.6207469000000856,572.9307696000001,None,None,None,,,,,,,cwzopc,001,0,english,2022-07-20_11h00.46.762,3-AFC_adaptive_staircase_mess,2022.1.1,33.801289654421886,
,,,,,5,0,5,0,4,0,4,0,,,,,,,,,,,,,,,,right,6000,0,0.00011586973249842387,-1,0,-1,-10,577.10219935,None,575.0423526,575.3638575,576.0282493,576.3478657,577.0398127000003,577.3584007,right,1,2.4842663999997967,575.0748785000001,None,577.5815771000002,None,,,,,,,cwzopc,001,0,english,2022-07-20_11h00.46.762,3-AFC_adaptive_staircase_mess,2022.1.1,33.801289654421886,
,,,,,5,0,5,0,5,0,5,0,,,,,,,,,,,,,,,,up,6000,0,0.00011586973249842387,-1,0,-1,-10,580.1127513500002,None,579.0591985000001,579.3809482000001,580.0499691,580.3698337999999,581.0662861999999,None,right,0,1.9889459000000898,579.1225102000003,None,None,None,,,,,,,cwzopc,001,0,english,2022-07-20_11h00.46.762,3-AFC_adaptive_staircase_mess,2022.1.1,33.801289654421886,
,,,,,5,0,5,0,6,0,6,0,,,,,,,,,,,,,,,,left,6000,5,0.000206048759548665,1,1,1,5,582.63737065,None,582.6076985,582.9286943000002,None,None,None,None,left,1,0.7755843999998433,582.6396404000002,None,None,None,,,,,,,cwzopc,001,0,english,2022-07-20_11h00.46.762,3-AFC_adaptive_staircase_mess,2022.1.1,33.801289654421886,
,,,,,5,0,5,0,7,0,7,0,,,,,,,,,,,,,,,,right,6000,5,0.000206048759548665,1,1,1,5,586.96085155,587.1705160000001,584.9053532000003,585.2272687,585.9202623000001,586.2400400000001,586.8988583,587.2033418999999,right,1,2.4457383999997546,584.9694066000002,None,587.45431815,None,,,,,,,cwzopc,001,0,english,2022-07-20_11h00.46.762,3-AFC_adaptive_staircase_mess,2022.1.1,33.801289654421886,
,,,,,5,0,5,0,8,0,8,0,,,,,,,,,,,,,,,,left,6000,-5,6.515833892261494e-05,-1,2,-1,-5.0,588.9598548499999,None,588.8985346,589.2249049000002,589.8894156000001,590.1914710000001,590.9148760000003,591.2353349,up,0,2.7652267999997093,588.9621777000002,None,591.4578789000002,None,,,,,,,cwzopc,001,0,english,2022-07-20_11h00.46.762,3-AFC_adaptive_staircase_mess,2022.1.1,33.801289654421886,
,,,,,5,0,5,0,9,0,9,0,,,,,,,,,,,,,,,,right,6000,-2.5,8.689004143746872e-05,1,3,1,2.5,595.2457945500001,None,593.2093981000003,593.5292432000001,594.1956141999999,594.5170772000001,595.2161224000001,595.5411176000002,right,1,2.388757099999566,593.2738245,None,None,None,,,,,,,cwzopc,001,0,english,2022-07-20_11h00.46.762,3-AFC_adaptive_staircase_mess,2022.1.1,33.801289654421886,
,,,,,5,0,5,0,10,0,10,0,,,,,,,,,,,,,,,,left,6000,-2.5,8.689004143746872e-05,1,3,1,2.5,597.2072532500002,None,597.1456822,597.4721690000001,598.1379072,598.4601192,599.1542005000001,599.477594,left,1,2.541102300000148,597.2102963000002,None,599.7006237999999,None,,,,,,,cwzopc,001,0,english,2022-07-20_11h00.46.762,3-AFC_adaptive_staircase_mess,2022.1.1,33.801289654421886,
,,,,,5,0,5,0,11,0,11,0,,,,,,,,,,,,,,,,right,6000,-7.5,4.886186104779051e-05,-1,4,-1,-5.0,603.2782983500002,None,601.2383092,601.5589897,602.2282518000002,602.5496619,603.2486262000002,603.5737856000001,right,1,4.281734199999846,601.3019375000003,None,603.7962505,None,,,,,,,cwzopc,001,0,english,2022-07-20_11h00.46.762,3-AFC_adaptive_staircase_mess,2022.1.1,33.801289654421886,
,,,,,5,0,5,0,12,0,12,0,,,,,,,,,,,,,,,,left,6000,-7.5,4.886186104779051e-05,-1,4,-1,-5.0,607.12829875,None,607.0664133,607.3892972000003,608.0508446000003,608.3731351000001,609.0663253000002,609.3880302000002,left,1,2.309004599999753,607.1309463000002,None,None,None,,,,,,,cwzopc,001,0,english,2022-07-20_11h00.46.762,3-AFC_adaptive_staircase_mess,2022.1.1,33.801289654421886,
,,,,,5,0,5,0,13,0,13,0,,,,,,,,,,,,,,,,up,6000,-12.5,2.7477043692881217e-05,-1,4,-1,-5.0,611.9814022500001,None,610.9322585,611.2523351,611.9185511000001,612.2446188000004,612.933196,613.2544998000003,right,0,3.2527674999996634,610.9942151,None,613.4783133000001,None,,,,,,,cwzopc,001,0,english,2022-07-20_11h00.46.762,3-AFC_adaptive_staircase_mess,2022.1.1,33.801289654421886,
,,,,,5,0,5,0,14,0,14,0,,,,,,,,,,,,,,,,right,6000,-10.0,3.664122665694518e-05,1,5,1,2.5,617.7888752499999,None,615.7398957,616.0587783999999,616.7482785000002,617.066793,617.7272194000002,618.0528873000003,right,1,15.17988460000015,615.8034943000002,None,618.3031850000002,None,,,,,,,cwzopc,001,0,english,2022-07-20_11h00.46.762,3-AFC_adaptive_staircase_mess,2022.1.1,33.801289654421886,
,,,,,5,0,5,0,15,0,15,0,,,,,,,,,,,,,,,,right,6000,-10.0,3.664122665694518e-05,1,5,1,2.5,634.5468975499999,None,632.4882266,632.8092332000001,633.5036296000003,633.8230215000003,634.4850528000002,634.8102607000001,right,1,3.440117399999963,632.5515892000003,None,635.0372265999999,None,,,,,,,cwzopc,001,0,english,2022-07-20_11h00.46.762,3-AFC_adaptive_staircase_mess,2022.1.1,33.801289654421886,
,,,,,5,0,5,0,16,0,16,0,,,,,,,,,,,,,,,,left,6000,-15.0,2.0604875954866497e-05,-1,6,-1,-5.0,637.5570717500001,None,637.4954104000003,637.8201439,638.510421,638.8347137000001,639.4920572999999,639.8181893000001,right,0,3.167798199999652,637.5597123000002,None,640.0476853,None,,,,,,,cwzopc,001,0,english,2022-07-20_11h00.46.762,3-AFC_adaptive_staircase_mess,2022.1.1,33.801289654421886,
,,,,,6,0,6,0,0,0,0,0,,,,,,,,,,,,,[],[],10,left,8000,30,0.005740768107484416,0,0,1,10,662.0114806500002,None,661.9494116999999,None,None,None,None,None,right,0,-0.4944692999997642,662.0142397,None,None,None,right,19.66959799999995,641.8250671999999,None,641.8250671999999,None,cwzopc,001,0,english,2022-07-20_11h00.46.762,3-AFC_adaptive_staircase_mess,2022.1.1,33.801289654421886,
,,,,,6,0,6,0,1,0,1,0,,,,,,,,,,,,,,,,up,8000,40,0.018153902738505076,1,0,1,10,None,None,663.5007350000001,None,None,None,None,None,left,0,-0.33275910000020303,663.5652638000001,None,None,None,,,,,,,cwzopc,001,0,english,2022-07-20_11h00.46.762,3-AFC_adaptive_staircase_mess,2022.1.1,33.801289654421886,
,,,,,6,0,6,0,2,0,2,0,,,,,,,,,,,,,,,,left,8000,50,0.05740768107484415,1,0,1,10,665.0730895500002,None,665.0434174000002,665.3687897,None,None,None,None,left,1,0.8269046999998864,665.0756713000001,None,None,None,,,,,,,cwzopc,001,0,english,2022-07-20_11h00.46.762,3-AFC_adaptive_staircase_mess,2022.1.1,33.801289654421886,
,,,,,6,0,6,0,3,0,3,0,,,,,,,,,,,,,,,,right,8000,50,0.05740768107484415,1,0,1,10,669.42469765,None,667.3769901999999,667.6990872000001,668.3687807000001,668.6979828000003,669.3950255,669.7226760000003,right,1,2.4056354999997893,667.4408758,None,None,None,,,,,,,cwzopc,001,0,english,2022-07-20_11h00.46.762,3-AFC_adaptive_staircase_mess,2022.1.1,33.801289654421886,
,,,,,6,0,6,0,4,0,4,0,,,,,,,,,,,,,,,,up,8000,30,0.005740768107484416,-1,1,-1,-10,672.3670043500002,672.582457,671.3337067000002,671.6532356000002,672.3373322000002,672.6506119000001,None,None,up,1,1.3929385000001275,671.3661388,None,None,None,,,,,,,cwzopc,001,0,english,2022-07-20_11h00.46.762,3-AFC_adaptive_staircase_mess,2022.1.1,33.801289654421886,
,,,,,6,0,6,0,5,0,5,0,,,,,,,,,,,,,,,,up,8000,30,0.005740768107484416,-1,1,-1,-10,675.3106121500001,675.5209152000002,674.2655481000002,674.5857989000001,675.2483767000003,675.5525864000001,None,None,up,1,1.3435120999997707,674.2961439999999,None,None,None,,,,,,,cwzopc,001,0,english,2022-07-20_11h00.46.762,3-AFC_adaptive_staircase_mess,2022.1.1,33.801289654421886,
,,,,,6,0,6,0,6,0,6,0,,,,,,,,,,,,,,,,left,8000,20,0.0018153902738505074,-1,1,-1,-10,677.1840701500001,None,677.1225089,677.4473206000002,None,None,None,None,left,1,0.4599843000000874,677.1871775,None,None,None,,,,,,,cwzopc,001,0,english,2022-07-20_11h00.46.762,3-AFC_adaptive_staircase_mess,2022.1.1,33.801289654421886,
,,,,,6,0,6,0,7,0,7,0,,,,,,,,,,,,,,,,right,8000,20,0.0018153902738505074,-1,1,-1,-10,681.18956975,681.4100422000001,679.1464960000003,679.4645673,680.1563234,680.4689643000002,681.1598976,681.4787931000001,right,1,2.2684540999998717,679.2103856000003,None,None,None,,,,,,,cwzopc,001,0,english,2022-07-20_11h00.46.762,3-AFC_adaptive_staircase_mess,2022.1.1,33.801289654421886,
,,,,,6,0,6,0,8,0,8,0,,,,,,,,,,,,,,,,right,8000,10,0.0005740768107484417,-1,1,-1,-10,685.0061807500002,None,682.9699509000002,683.2965644000001,683.962837,684.2855303000001,684.9765086000002,685.3013143000003,right,1,2.3569759999995767,683.0416140000002,None,None,None,,,,,,,cwzopc,001,0,english,2022-07-20_11h00.46.762,3-AFC_adaptive_staircase_mess,2022.1.1,33.801289654421886,
,,,,,6,0,6,0,9,0,9,0,,,,,,,,,,,,,,,,right,8000,10,0.0005740768107484417,-1,1,-1,-10,688.9434369500001,None,686.9075032000001,687.2290280000002,687.8954765000003,688.2182445000003,688.9137648000001,689.2388970000002,right,1,2.347024600000168,686.9714123000003,None,None,None,,,,,,,cwzopc,001,0,english,2022-07-20_11h00.46.762,3-AFC_adaptive_staircase_mess,2022.1.1,33.801289654421886,
,,,,,6,0,6,0,10,0,10,0,,,,,,,,,,,,,,,,right,8000,0,0.0001815390273850507,-1,1,-1,-10,692.8656804500002,None,690.8082577,691.1295636,691.8225047000001,692.1414107999999,692.8038554,693.12988,right,1,2.3191233000002285,690.8722333000001,None,None,None,,,,,,,cwzopc,001,0,english,2022-07-20_11h00.46.762,3-AFC_adaptive_staircase_mess,2022.1.1,33.801289654421886,
,,,,,6,0,6,0,11,0,11,0,,,,,,,,,,,,,,,,up,8000,0,0.0001815390273850507,-1,1,-1,-10,695.7211682500002,None,694.6696572000001,694.9970933,695.6587844000001,695.9830293,None,None,up,1,1.448572299999796,694.7343836,None,None,None,,,,,,,cwzopc,001,0,english,2022-07-20_11h00.46.762,3-AFC_adaptive_staircase_mess,2022.1.1,33.801289654421886,
,,,,,6,0,6,0,12,0,12,0,,,,,,,,,,,,,,,,right,8000,-10,5.740768107484415e-05,-1,1,-1,-10,699.7434394500002,None,697.6788329000001,698.0047432000001,698.6695609000003,698.9903670000003,699.6814052,700.0076027,right,1,2.294692899999518,697.7437749000001,None,None,None,,,,,,,cwzopc,001,0,english,2022-07-20_11h00.46.762,3-AFC_adaptive_staircase_mess,2022.1.1,33.801289654421886,
,,,,,6,0,6,0,13,0,13,0,,,,,,,,,,,,,,,,right,8000,-10,5.740768107484415e-05,-1,1,-1,-10,703.5543947500001,None,701.517413,701.8414056000001,702.5076417,702.8348351,703.5247226000001,703.8511145000002,right,1,2.3058740000001308,701.5814513,None,None,None,,,,,,,cwzopc,001,0,english,2022-07-20_11h00.46.762,3-AFC_adaptive_staircase_mess,2022.1.1,33.801289654421886,
,,,,,6,0,6,0,14,0,14,0,,,,,,,,,,,,,,,,up,8000,-20,1.815390273850507e-05,-1,1,-1,-10,706.4344469500003,None,705.3902373000001,705.7126524,706.4047748000003,706.7271333000003,707.3896950000003,707.7152282000002,right,0,3.0013678000000255,705.4541450000002,None,707.9381358,None,,,,,,,cwzopc,001,0,english,2022-07-20_11h00.46.762,3-AFC_adaptive_staircase_mess,2022.1.1,33.801289654421886,
,,,,,6,0,6,0,15,0,15,0,,,,,,,,,,,,,,,,up,8000,-15,3.228271145173278e-05,1,2,1,2.5,711.0300738500001,None,709.9802351000003,710.3018041,710.9669733999999,711.2930663000002,711.9878025000003,712.3120669,up,1,2.546523099999831,710.0123515,None,712.5280901000001,None,,,,,,,cwzopc,001,0,english,2022-07-20_11h00.46.762,3-AFC_adaptive_staircase_mess,2022.1.1,33.801289654421886,
,,,,,6,0,6,0,16,0,16,0,,,,,,,,,,,,,,,,left,8000,-15,3.228271145173278e-05,1,2,1,2.5,714.1010786500002,None,714.0387527000003,714.3645088000003,715.0347615000001,715.3583068000003,716.0505075000001,None,left,1,1.9925782999998773,714.1031656,None,None,None,,,,,,,cwzopc,001,0,english,2022-07-20_11h00.46.762,3-AFC_adaptive_staircase_mess,2022.1.1,33.801289654421886,
,,,,,6,0,6,0,17,0,17,0,,,,,,,,,,,,,,,,left,8000,-20.0,1.815390273850507e-05,-1,3,-1,-5.0,717.6541293500001,None,717.5913201000003,717.9164354,718.5818181,718.9045931,719.6006459,719.9275862,left,1,2.42216580000013,717.6568913000001,None,None,None,,,,,,,cwzopc,001,0,english,2022-07-20_11h00.46.762,3-AFC_adaptive_staircase_mess,2022.1.1,33.801289654421886,
,,,,,6,0,6,0,18,0,18,0,,,,,,,,,,,,,,,,up,8000,-20.0,1.815390273850507e-05,-1,3,-1,-5.0,722.6087242500004,None,721.5670057000002,721.8889698000003,722.5790521000004,722.9038608000001,723.5746232000001,723.8976234000002,right,0,3.311944399999902,721.6318228,None,724.1170870999999,None,,,,,,,cwzopc,001,0,english,2022-07-20_11h00.46.762,3-AFC_adaptive_staircase_mess,2022.1.1,33.801289654421886,
,,,,,6,0,6,0,19,0,19,0,,,,,,,,,,,,,,,,left,8000,-17.5,2.420861837920497e-05,1,4,1,2.5,726.4882445500003,None,726.4270349000003,726.7495073,727.4424216000002,727.7677582000001,728.4310444000002,728.7517504000002,right,0,8.933184499999697,726.4904339,None,728.9720979000003,None,,,,,,,cwzopc,001,0,english,2022-07-20_11h00.46.762,3-AFC_adaptive_staircase_mess,2022.1.1,33.801289654421886,
,,,,,6,0,6,0,20,0,20,0,,,,,,,,,,,,,,,,right,8000,-15.0,3.228271145173278e-05,1,4,1,2.5,738.9703033500001,None,736.9109171,737.2331707000003,737.9258516,738.2483388999999,738.9087395000001,739.2293774,right,1,4.144292299999506,736.9750802000003,None,739.4507100999999,None,,,,,,,cwzopc,001,0,english,2022-07-20_11h00.46.762,3-AFC_adaptive_staircase_mess,2022.1.1,33.801289654421886,
,,,,,6,0,6,0,21,0,21,0,,,,,,,,,,,,,,,,left,8000,-15.0,3.228271145173278e-05,1,4,1,2.5,742.6906077500004,None,742.6293242000002,742.9503666,743.6150026,743.9395439,744.6357469,744.9576432000003,right,0,3.1865014999998493,742.6928969999999,None,745.1830888,None,,,,,,,cwzopc,001,0,english,2022-07-20_11h00.46.762,3-AFC_adaptive_staircase_mess,2022.1.1,33.801289654421886,
,,,,,6,0,6,0,22,0,22,0,,,,,,,,,,,,,,,,left,8000,-12.5,4.304968760923004e-05,1,4,1,2.5,747.4190616500001,None,747.3588407000002,747.6829269,748.3498148000003,748.6721241,None,None,left,1,1.745795399999679,747.4214071000001,None,None,None,,,,,,,cwzopc,001,0,english,2022-07-20_11h00.46.762,3-AFC_adaptive_staircase_mess,2022.1.1,33.801289654421886,
,,,,,6,0,6,0,23,0,23,0,,,,,,,,,,,,,,,,up,8000,-12.5,4.304968760923004e-05,1,4,1,2.5,751.6948071500002,None,750.6482075000004,750.9692736000002,751.6651350000002,751.9937031,None,None,up,1,1.4484912000002623,750.7118525999999,None,None,None,,,,,,,cwzopc,001,0,english,2022-07-20_11h00.46.762,3-AFC_adaptive_staircase_mess,2022.1.1,33.801289654421886,
,,,,,6,0,6,0,24,0,24,0,,,,,,,,,,,,,,,,left,8000,-17.5,2.420861837920497e-05,-1,5,-1,-5.0,753.7249122500003,None,753.6625615000003,753.9888949000001,754.6541977000002,754.9760575,755.672321,755.9918173000001,right,0,3.407257700000173,753.7279533999999,None,756.2143452,None,,,,,,,cwzopc,001,0,english,2022-07-20_11h00.46.762,3-AFC_adaptive_staircase_mess,2022.1.1,33.801289654421886,
,,,,,6,0,6,0,25,0,25,0,,,,,,,,,,,,,,,,right,8000,-15.0,3.228271145173278e-05,1,6,1,2.5,760.68531765,None,758.6285239000003,758.9479782000003,759.6398393,759.9623368000002,760.6241101999999,760.9484059000001,right,1,2.9467389999999796,758.6924772000002,None,761.1703947000001,None,,,,,,,cwzopc,001,0,english,2022-07-20_11h00.46.762,3-AFC_adaptive_staircase_mess,2022.1.1,33.801289654421886,
,,,,,7,0,7,0,0,0,0,0,,,,,,,,,,,,,[],[],10,left,750,30,0.0012851978913844323,0,0,-1,10,771.5651035500001,None,771.5023854000001,771.8293745999999,None,None,None,None,left,1,0.807750599999963,771.5676403000002,None,None,None,up,8.295031799999833,762.7441630000003,None,762.7441630000003,None,cwzopc,001,0,english,2022-07-20_11h00.46.762,3-AFC_adaptive_staircase_mess,2022.1.1,33.801289654421886,
,,,,,7,0,7,0,1,0,1,0,,,,,,,,,,,,,,,,left,750,30,0.0012851978913844323,0,0,-1,10,773.94142905,None,773.8799928000003,774.2056827000001,None,None,None,None,left,1,0.4558892999998534,773.9435011,None,None,None,,,,,,,cwzopc,001,0,english,2022-07-20_11h00.46.762,3-AFC_adaptive_staircase_mess,2022.1.1,33.801289654421886,
,,,,,7,0,7,0,2,0,2,0,,,,,,,,,,,,,,,,left,750,10,0.00012851978913844324,-1,0,-1,-10,775.94840885,None,775.8890641000003,776.2130989000002,None,None,None,None,left,1,0.5528520999996545,775.9510343000002,None,None,None,,,,,,,cwzopc,001,0,english,2022-07-20_11h00.46.762,3-AFC_adaptive_staircase_mess,2022.1.1,33.801289654421886,
,,,,,7,0,7,0,3,0,3,0,,,,,,,,,,,,,,,,left,750,10,0.00012851978913844324,-1,0,-1,-10,778.06809455,None,778.0060001000002,778.3325457000001,None,None,None,None,left,1,0.4405695000000378,778.0708312000002,None,None,None,,,,,,,cwzopc,001,0,english,2022-07-20_11h00.46.762,3-AFC_adaptive_staircase_mess,2022.1.1,33.801289654421886,
,,,,,7,0,7,0,4,0,4,0,,,,,,,,,,,,,,,,right,750,0,4.064152580820497e-05,-1,0,-1,-10,None,None,779.9904685000001,780.3113883000001,None,None,None,None,left,0,0.8575344999999288,780.0541904000002,None,None,None,,,,,,,cwzopc,001,0,english,2022-07-20_11h00.46.762,3-AFC_adaptive_staircase_mess,2022.1.1,33.801289654421886,
,,,,,7,0,7,0,5,0,5,0,,,,,,,,,,,,,,,,right,750,5,7.22719885372964e-05,1,1,1,5,784.4475689500001,None,782.3851846000002,782.7070255000003,783.3997108000003,783.7231980000001,784.3861459,784.7124963000001,right,1,4.077249699999811,782.4497274,None,784.9352196,None,,,,,,,cwzopc,001,0,english,2022-07-20_11h00.46.762,3-AFC_adaptive_staircase_mess,2022.1.1,33.801289654421886,
,,,,,7,0,7,0,6,0,6,0,,,,,,,,,,,,,,,,left,750,5,7.22719885372964e-05,1,1,1,5,788.05702665,None,788.0273545,788.3525202000001,None,None,None,None,left,1,0.6432478000001538,788.0592562000002,None,None,None,,,,,,,cwzopc,001,0,english,2022-07-20_11h00.46.762,3-AFC_adaptive_staircase_mess,2022.1.1,33.801289654421886,
,,,,,7,0,7,0,7,0,7,0,,,,,,,,,,,,,,,,up,750,-5,2.285440948074376e-05,-1,2,-1,-5.0,791.22368285,None,790.1812694,790.5001643999999,791.1940107,791.5186469,792.1768211000003,792.5005853000002,left,0,2.4756271999999626,790.2444350000001,None,792.7233180000003,None,,,,,,,cwzopc,001,0,english,2022-07-20_11h00.46.762,3-AFC_adaptive_staircase_mess,2022.1.1,33.801289654421886,
,,,,,7,0,7,0,8,0,8,0,,,,,,,,,,,,,,,,up,750,-2.5,3.0476844862008466e-05,1,3,1,2.5,795.2390490500003,None,794.1976568,794.5189367000003,795.2093769000003,795.5344328000001,796.1949714000002,796.5165338000002,right,0,3.545169800000167,794.262659,None,796.7406046000001,None,,,,,,,cwzopc,001,0,english,2022-07-20_11h00.46.762,3-AFC_adaptive_staircase_mess,2022.1.1,33.801289654421886,
,,,,,7,0,7,0,9,0,9,0,,,,,,,,,,,,,,,,right,750,0.0,4.064152580820497e-05,1,3,1,2.5,801.3284748500001,None,799.2698648,799.5904988000002,800.2822120999999,800.6013475,801.2667514,801.5936178000002,right,1,16.002125999999862,799.3330977,None,801.8191093,None,,,,,,,cwzopc,001,0,english,2022-07-20_11h00.46.762,3-AFC_adaptive_staircase_mess,2022.1.1,33.801289654421886,
,,,,,7,0,7,0,10,0,10,0,,,,,,,,,,,,,,,,up,750,0.0,4.064152580820497e-05,1,3,1,2.5,817.8640045500002,None,816.8139838000002,817.1380145000003,817.8343324000002,818.1606312000004,818.8214151000002,None,up,1,2.2324351999995997,816.8788901000003,None,None,None,,,,,,,cwzopc,001,0,english,2022-07-20_11h00.46.762,3-AFC_adaptive_staircase_mess,2022.1.1,33.801289654421886,
,,,,,7,0,7,0,11,0,11,0,,,,,,,,,,,,,,,,up,750,-5.0,2.285440948074376e-05,-1,4,-1,-5.0,821.6521241500001,None,820.596998,820.9259704000001,821.5899666,821.9166571999999,822.606636,822.9285265000003,up,1,6.01855949999981,820.6287790000001,None,823.1533913000003,None,,,,,,,cwzopc,001,0,english,2022-07-20_11h00.46.762,3-AFC_adaptive_staircase_mess,2022.1.1,33.801289654421886,
,,,,,7,0,7,0,12,0,12,0,,,,,,,,,,,,,,,,right,750,-5.0,2.285440948074376e-05,-1,4,-1,-5.0,830.2057921500001,None,828.1491719,828.4690135999999,829.1576412,829.4791943,830.1431540000003,830.4694629999999,up,0,8.169893700000102,828.2129638000001,None,830.6930267000002,None,,,,,,,cwzopc,001,0,english,2022-07-20_11h00.46.762,3-AFC_adaptive_staircase_mess,2022.1.1,33.801289654421886,
,,,,,7,0,7,0,13,0,13,0,,,,,,,,,,,,,,,,left,750,-2.5,3.0476844862008466e-05,1,5,1,2.5,837.9121827499999,None,837.8502321000001,838.1757554999999,838.8676366,839.1852320000003,839.8510086000001,840.1741228000001,right,0,7.243933899999774,837.9148490000002,None,840.4262941000002,None,,,,,,,cwzopc,001,0,english,2022-07-20_11h00.46.762,3-AFC_adaptive_staircase_mess,2022.1.1,33.801289654421886,
,,,,,7,0,7,0,14,0,14,0,,,,,,,,,,,,,,,,right,750,0.0,4.064152580820497e-05,1,5,1,2.5,848.69936595,None,846.6473768000001,846.9668577000002,847.6584943000003,847.9780755000002,848.6696938,848.9934763000001,right,1,2.703788700000132,846.7109389000002,None,849.2153459000001,None,,,,,,,cwzopc,001,0,english,2022-07-20_11h00.46.762,3-AFC_adaptive_staircase_mess,2022.1.1,33.801289654421886,
,,,,,7,0,7,0,15,0,15,0,,,,,,,,,,,,,,,,right,750,0.0,4.064152580820497e-05,1,5,1,2.5,852.94781535,None,850.8919270000001,851.2128583000003,851.9022904000003,852.2244543000002,852.8864759000003,853.2110876000002,right,1,2.69122679999964,850.9556087000001,None,853.4644847,None,,,,,,,cwzopc,001,0,english,2022-07-20_11h00.46.762,3-AFC_adaptive_staircase_mess,2022.1.1,33.801289654421886,
,,,,,7,0,7,0,16,0,16,0,,,,,,,,,,,,,,,,left,750,-5.0,2.285440948074376e-05,-1,6,-1,-5.0,855.1989722500003,None,855.1376949,855.4629766000003,856.1558133000003,856.4767273000002,857.1376801000001,857.4602969000002,right,0,7.765778999999839,855.2015278000003,None,857.6821445,None,,,,,,,cwzopc,001,0,english,2022-07-20_11h00.46.762,3-AFC_adaptive_staircase_mess,2022.1.1,33.801289654421886,
,,,,,8,0,8,0,0,0,0,0,,,,,,,,,,,,,[],[],10,right,500,30,0.002259279721874612,0,0,-1,10,880.37333615,None,878.3166627,878.6345662000003,879.3275073,879.6526426,880.3117329000002,880.6371965000003,right,1,2.6263825000000907,878.3804248000001,None,880.8616274999999,None,right,13.81689809999989,864.0544064000001,None,864.0544064000001,None,cwzopc,001,0,english,2022-07-20_11h00.46.762,3-AFC_adaptive_staircase_mess,2022.1.1,33.801289654421886,
,,,,,8,0,8,0,1,0,1,0,,,,,,,,,,,,,,,,up,500,30,0.002259279721874612,0,0,-1,10,883.5525331499999,None,882.5046843,882.8306950000001,883.5228609999999,883.8493063000001,None,None,up,1,1.5157414000000244,882.5713135000001,None,None,None,,,,,,,cwzopc,001,0,english,2022-07-20_11h00.46.762,3-AFC_adaptive_staircase_mess,2022.1.1,33.801289654421886,
,,,,,8,0,8,0,2,0,2,0,,,,,,,,,,,,,,,,up,500,10,0.0002259279721874612,-1,0,-1,-10,886.6133918500001,None,885.5716494000003,885.8904339000001,886.5837197000001,886.9089650999999,None,None,up,1,1.4441572000000633,885.6346494,None,None,None,,,,,,,cwzopc,001,0,english,2022-07-20_11h00.46.762,3-AFC_adaptive_staircase_mess,2022.1.1,33.801289654421886,
,,,,,8,0,8,0,3,0,3,0,,,,,,,,,,,,,,,,up,500,10,0.0002259279721874612,-1,0,-1,-10,889.6096735500001,None,888.5665491,888.8880985000001,889.5800014000001,889.9096926000002,890.5668271,890.8867453000003,up,1,3.032511699999759,888.6305695000001,None,891.1076848000002,None,,,,,,,cwzopc,001,0,english,2022-07-20_11h00.46.762,3-AFC_adaptive_staircase_mess,2022.1.1,33.801289654421886,
,,,,,8,0,8,0,4,0,4,0,,,,,,,,,,,,,,,,up,500,0,7.144469792555515e-05,-1,0,-1,-10,894.19216745,None,893.1420879000002,893.4631821000003,894.1624953,894.4895424000001,895.1675788000002,895.4841719000001,up,1,2.649162400000023,893.2063441,None,895.6962226,None,,,,,,,cwzopc,001,0,english,2022-07-20_11h00.46.762,3-AFC_adaptive_staircase_mess,2022.1.1,33.801289654421886,
,,,,,8,0,8,0,5,0,5,0,,,,,,,,,,,,,,,,right,500,0,7.144469792555515e-05,-1,0,-1,-10,899.4064000500003,None,897.3780157000001,897.6917695000002,898.3778995000002,898.6820579,899.3767279000003,899.7027048,right,1,2.7059628000001794,897.4132518000001,None,899.9235764,None,,,,,,,cwzopc,001,0,english,2022-07-20_11h00.46.762,3-AFC_adaptive_staircase_mess,2022.1.1,33.801289654421886,
,,,,,8,0,8,0,6,0,6,0,,,,,,,,,,,,,,,,right,500,-10,2.259279721874613e-05,-1,0,-1,-10,903.66502865,None,901.6031310000003,901.9213017000002,902.6152073000003,902.9408911,903.6022424000003,903.9280516000003,right,1,3.4213740000000143,901.6665034000002,None,904.1508058,None,,,,,,,cwzopc,001,0,english,2022-07-20_11h00.46.762,3-AFC_adaptive_staircase_mess,2022.1.1,33.801289654421886,
,,,,,8,0,8,0,7,0,7,0,,,,,,,,,,,,,,,,up,500,-10,2.259279721874613e-05,-1,0,-1,-10,907.6129706500002,None,906.5609750000003,906.8837014999999,907.5512450000001,907.8770924,908.5752594,908.8962357,right,0,2.286559000000125,906.6244861,None,None,None,,,,,,,cwzopc,001,0,english,2022-07-20_11h00.46.762,3-AFC_adaptive_staircase_mess,2022.1.1,33.801289654421886,
,,,,,8,0,8,0,8,0,8,0,,,,,,,,,,,,,,,,right,500,-5,4.017630610928089e-05,1,1,1,5,912.45199405,None,910.3923672000001,910.7140336000002,911.4078131000001,911.7270785000001,912.3904149,912.7181267999999,right,1,3.191089599999941,910.4560824,None,912.9461973000002,None,,,,,,,cwzopc,001,0,english,2022-07-20_11h00.46.762,3-AFC_adaptive_staircase_mess,2022.1.1,33.801289654421886,
,,,,,8,0,8,0,9,0,9,0,,,,,,,,,,,,,,,,left,500,-5,4.017630610928089e-05,1,1,1,5,915.2016385500002,None,915.1396998,915.4647993000003,916.1552942000003,916.4790204000001,917.146221,917.4651206000003,right,0,2.3661772999998902,915.2082472000002,None,None,None,,,,,,,cwzopc,001,0,english,2022-07-20_11h00.46.762,3-AFC_adaptive_staircase_mess,2022.1.1,33.801289654421886,
,,,,,8,0,8,0,10,0,10,0,,,,,,,,,,,,,,,,up,500,0,7.144469792555515e-05,1,1,1,5,920.1124991500002,None,919.0684627,919.3889346999999,920.0828270000002,920.403624,921.0622296000001,921.3834809,up,1,2.707596100000046,919.1323176000001,None,921.6059319000001,None,,,,,,,cwzopc,001,0,english,2022-07-20_11h00.46.762,3-AFC_adaptive_staircase_mess,2022.1.1,33.801289654421886,
,,,,,8,0,8,0,11,0,11,0,,,,,,,,,,,,,,,,up,500,0,7.144469792555515e-05,1,1,1,5,924.3607387500002,None,923.3120644999999,923.6369581000004,924.3310666000002,924.6581444000003,925.322498,925.6404691000002,up,1,2.6403276000000915,923.3751525000002,None,925.8641950000001,None,,,,,,,cwzopc,001,0,english,2022-07-20_11h00.46.762,3-AFC_adaptive_staircase_mess,2022.1.1,33.801289654421886,
,,,,,8,0,8,0,12,0,12,0,,,,,,,,,,,,,,,,right,500,-10,2.259279721874613e-05,-1,2,-1,-5.0,929.57548285,None,927.5099061999999,927.8299612000001,928.5003484000003,928.8230170000002,929.5136539,929.8398071000001,right,1,5.289593399999831,927.5734150000003,None,930.0646937000001,None,,,,,,,cwzopc,001,0,english,2022-07-20_11h00.46.762,3-AFC_adaptive_staircase_mess,2022.1.1,33.801289654421886,
,,,,,8,0,8,0,13,0,13,0,,,,,,,,,,,,,,,,right,500,-10,2.259279721874613e-05,-1,2,-1,-5.0,936.40471335,None,934.338174,934.6580665000001,935.3535908000003,935.6786394999999,936.3428045999999,936.6698894000001,right,1,3.555896699999721,934.4020987000004,None,936.8903375,None,,,,,,,cwzopc,001,0,english,2022-07-20_11h00.46.762,3-AFC_adaptive_staircase_mess,2022.1.1,33.801289654421886,
,,,,,8,0,8,0,14,0,14,0,,,,,,,,,,,,,,,,up,500,-15.0,1.2704863527746532e-05,-1,2,-1,-5.0,940.5031090500003,None,939.4587824,939.7795860000001,940.4734369000003,940.7988891,941.4657673000002,941.7861384000003,right,0,3.1960533999999825,939.5230956,None,942.0089527,None,,,,,,,cwzopc,001,0,english,2022-07-20_11h00.46.762,3-AFC_adaptive_staircase_mess,2022.1.1,33.801289654421886,
,,,,,8,0,8,0,15,0,15,0,,,,,,,,,,,,,,,,right,500,-12.5,1.6942207806960138e-05,1,3,1,2.5,946.24425115,None,944.1969744000003,944.5236681000001,945.1921081,945.5191273,946.214579,946.5393630000003,right,1,2.50423789999968,944.2622635000002,None,946.7619841999999,None,,,,,,,cwzopc,001,0,english,2022-07-20_11h00.46.762,3-AFC_adaptive_staircase_mess,2022.1.1,33.801289654421886,
,,,,,8,0,8,0,16,0,16,0,,,,,,,,,,,,,,,,left,500,-12.5,1.6942207806960138e-05,1,3,1,2.5,948.3339897500001,None,948.2720992,948.598868,949.2892922999999,949.6253154999999,950.2909927000001,950.6130106,right,0,4.839620400000058,948.3351931000002,None,950.8359073000001,None,,,,,,,cwzopc,001,0,english,2022-07-20_11h00.46.762,3-AFC_adaptive_staircase_mess,2022.1.1,33.801289654421886,
,,,,,8,0,8,0,17,0,17,0,,,,,,,,,,,,,,,,right,500,-10.0,2.259279721874613e-05,1,3,1,2.5,956.7101172500003,None,954.6710381000003,954.9914631000001,955.6914543000003,956.0179461000002,956.6804451000003,957.0059068,right,1,2.830995299999813,954.7351965000003,None,957.2286021,None,,,,,,,cwzopc,001,0,english,2022-07-20_11h00.46.762,3-AFC_adaptive_staircase_mess,2022.1.1,33.801289654421886,
,,,,,8,0,8,0,18,0,18,0,,,,,,,,,,,,,,,,left,500,-10.0,2.259279721874613e-05,1,3,1,2.5,959.1088693500002,None,959.0469839000002,959.3723267,960.0342541,960.3556315000001,961.0447063000001,961.3653506999999,right,0,2.8315793000001577,959.1114449000002,None,961.5863132,None,,,,,,,cwzopc,001,0,english,2022-07-20_11h00.46.762,3-AFC_adaptive_staircase_mess,2022.1.1,33.801289654421886,
,,,,,8,0,8,0,19,0,19,0,,,,,,,,,,,,,,,,left,500,-7.5,3.0127979303717903e-05,1,3,1,2.5,963.4898361500001,None,963.4284496,963.7489787,964.4411501,964.7666014000001,965.4303513,965.7501777000002,right,0,3.418340299999727,963.491982,None,966.0053600000001,None,,,,,,,cwzopc,001,0,english,2022-07-20_11h00.46.762,3-AFC_adaptive_staircase_mess,2022.1.1,33.801289654421886,
,,,,,8,0,8,0,20,0,20,0,,,,,,,,,,,,,,,,up,500,-5.0,4.017630610928089e-05,1,3,1,2.5,969.4303499500003,None,968.3870252000002,968.7100947000004,969.4006778000003,969.7203859000001,970.3797320000003,970.7037095999999,right,0,5.81088869999985,968.4524615,None,970.9568490000001,None,,,,,,,cwzopc,001,0,english,2022-07-20_11h00.46.762,3-AFC_adaptive_staircase_mess,2022.1.1,33.801289654421886,
,,,,,8,0,8,0,21,0,21,0,,,,,,,,,,,,,,,,right,500,-2.5,5.357596526188033e-05,1,3,1,2.5,977.8146147500003,None,975.7565628000002,976.0787717000003,976.7687107000002,977.0897454000001,977.7518785000002,978.0784733,right,1,18.970556399999623,975.8208386000001,None,978.2990288000001,None,,,,,,,cwzopc,001,0,english,2022-07-20_11h00.46.762,3-AFC_adaptive_staircase_mess,2022.1.1,33.801289654421886,
,,,,,8,0,8,0,22,0,22,0,,,,,,,,,,,,,,,,right,500,-2.5,5.357596526188033e-05,1,3,1,2.5,998.3456005500003,None,996.2920790000003,996.6096829000003,997.3010236,997.6219233000002,998.2838334000003,998.6097325000001,left,0,2.6932074000001194,996.3540455000002,None,998.8360053000001,None,,,,,,,cwzopc,001,0,english,2022-07-20_11h00.46.762,3-AFC_adaptive_staircase_mess,2022.1.1,33.801289654421886,
,,,,,8,0,8,0,23,0,23,0,,,,,,,,,,,,,,,,up,500,0.0,7.144469792555515e-05,1,3,1,2.5,1001.6015761499999,None,1000.5568817000003,1000.8786632000001,1001.5719039999999,1001.8987304000002,1002.5629805000003,1002.8862423,up,1,2.3532821999997395,1000.6220840999999,None,None,None,,,,,,,cwzopc,001,0,english,2022-07-20_11h00.46.762,3-AFC_adaptive_staircase_mess,2022.1.1,33.801289654421886,
,,,,,8,0,8,0,24,0,24,0,,,,,,,,,,,,,,,,left,500,0.0,7.144469792555515e-05,1,3,1,2.5,1004.52151595,None,1004.4596133,1004.7848592,1005.4512674000002,1005.7750134000003,1006.4640539000002,1006.7862954000002,left,1,2.369491399999788,1004.5256141,None,None,None,,,,,,,cwzopc,001,0,english,2022-07-20_11h00.46.762,3-AFC_adaptive_staircase_mess,2022.1.1,33.801289654421886,
,,,,,8,0,8,0,25,0,25,0,,,,,,,,,,,,,,,,right,500,-5.0,4.017630610928089e-05,-1,4,-1,-5.0,1010.4540374500003,None,1008.3890168000003,1008.710094,1009.3998472000003,1009.7211783000002,1010.3924794,1010.7177755000002,right,1,2.897577000000183,1008.4531194000001,None,1010.9417728000003,None,,,,,,,cwzopc,001,0,english,2022-07-20_11h00.46.762,3-AFC_adaptive_staircase_mess,2022.1.1,33.801289654421886,
,,,,,8,0,8,0,26,0,26,0,,,,,,,,,,,,,,,,left,500,-5.0,4.017630610928089e-05,-1,4,-1,-5.0,1012.8630465500001,None,1012.8333744000001,1013.1596414,1013.8234557000001,1014.1443380000001,1014.8375564000003,1015.1594172,right,0,3.013196699999753,1012.866109,None,1015.3852142999999,None,,,,,,,cwzopc,001,0,english,2022-07-20_11h00.46.762,3-AFC_adaptive_staircase_mess,2022.1.1,33.801289654421886,
,,,,,8,0,8,0,27,0,27,0,,,,,,,,,,,,,,,,right,500,-2.5,5.357596526188033e-05,1,5,1,2.5,1019.4167178500003,None,1017.3809801000002,1017.7012192000002,1018.3662079000001,1018.6919336999999,1019.3870457000003,1019.7101906000003,up,0,2.729149799999959,1017.4462054999999,None,1019.9336081000001,None,,,,,,,cwzopc,001,0,english,2022-07-20_11h00.46.762,3-AFC_adaptive_staircase_mess,2022.1.1,33.801289654421886,
,,,,,8,0,8,0,28,0,28,0,,,,,,,,,,,,,,,,left,500,0.0,7.144469792555515e-05,1,5,1,2.5,1021.7481523500002,None,1021.6867358,1022.0107824000002,1022.7038463000004,1023.0286327000003,1023.6905329000001,1024.0093439000002,right,0,16.977084399999967,1021.7503421000001,None,1024.2337583000003,None,,,,,,,cwzopc,001,0,english,2022-07-20_11h00.46.762,3-AFC_adaptive_staircase_mess,2022.1.1,33.801289654421886,
,,,,,8,0,8,0,29,0,29,0,,,,,,,,,,,,,,,,right,500,2.5,9.527303589816237e-05,1,5,1,2.5,1042.26499565,None,1040.2035552000002,1040.5250595000002,1041.2158359,1041.5410309000004,1042.2030757000002,1042.5280531000003,right,1,2.787698999999975,1040.2673175,None,1042.7524670000003,None,,,,,,,cwzopc,001,0,english,2022-07-20_11h00.46.762,3-AFC_adaptive_staircase_mess,2022.1.1,33.801289654421886,
,,,,,8,0,8,0,30,0,30,0,,,,,,,,,,,,,,,,up,500,2.5,9.527303589816237e-05,1,5,1,2.5,1045.6143481499998,None,1044.5570567,1044.8777910000003,1045.5510915,1045.8780883,1046.5737813,1046.8949814000002,up,1,2.3946320000000014,1044.6204263,None,None,None,,,,,,,cwzopc,001,0,english,2022-07-20_11h00.46.762,3-AFC_adaptive_staircase_mess,2022.1.1,33.801289654421886,
,,,,,8,0,8,0,31,0,31,0,,,,,,,,,,,,,,,,right,500,-2.5,5.357596526188033e-05,-1,6,-1,-5.0,1050.56968555,None,1048.5116230000003,1048.8317421000002,1049.4915427,1049.8135258000002,1050.5076299000002,1050.833373,right,1,3.0232139999998253,1048.5446474,None,1051.0580319,None,,,,,,,cwzopc,001,0,english,2022-07-20_11h00.46.762,3-AFC_adaptive_staircase_mess,2022.1.1,33.801289654421886,
,,,,,9,0,9,0,0,0,0,0,,,,,,,,,,,,,[],[],10,left,250,30,0.005296268625886445,0,0,-1,10,1054.33495155,None,1054.2734548000003,1054.5955763000002,1055.2947305000002,None,None,None,left,1,0.983008400000017,1054.3369554,None,None,None,right,1.1582613999999012,1052.657365,None,1052.657365,None,cwzopc,001,0,english,2022-07-20_11h00.46.762,3-AFC_adaptive_staircase_mess,2022.1.1,33.801289654421886,
,,,,,9,0,9,0,1,0,1,0,,,,,,,,,,,,,,,,right,250,30,0.005296268625886445,0,0,-1,10,1058.8600545499999,None,1056.8022972000003,1057.1326973,1057.8192857,1058.1376413000003,1058.8303824,1059.1576086,right,1,2.307001599999694,1056.8765571000004,None,None,None,,,,,,,cwzopc,001,0,english,2022-07-20_11h00.46.762,3-AFC_adaptive_staircase_mess,2022.1.1,33.801289654421886,
,,,,,9,0,9,0,2,0,2,0,,,,,,,,,,,,,,,,left,250,10,0.0005296268625886444,-1,0,-1,-10,1060.7364607499999,None,1060.67445,1061.0009475000002,None,None,None,None,left,1,0.7662492999997994,1060.7363925,None,None,None,,,,,,,cwzopc,001,0,english,2022-07-20_11h00.46.762,3-AFC_adaptive_staircase_mess,2022.1.1,33.801289654421886,
,,,,,9,0,9,0,3,0,3,0,,,,,,,,,,,,,,,,left,250,10,0.0005296268625886444,-1,0,-1,-10,1063.03144965,None,1063.0017775000001,1063.3272249000001,None,None,None,None,left,1,0.7489169999998921,1063.0338202000003,None,None,None,,,,,,,cwzopc,001,0,english,2022-07-20_11h00.46.762,3-AFC_adaptive_staircase_mess,2022.1.1,33.801289654421886,
,,,,,9,0,9,0,4,0,4,0,,,,,,,,,,,,,,,,up,250,0,0.0001674827195789138,-1,0,-1,-10,1066.3154443500002,None,1065.2734452,1065.596732,1066.2857722000003,1066.6055506000002,1067.2659593000003,1067.5882355000003,right,0,5.325037099999918,1065.3379049,None,1067.8438498,None,,,,,,,cwzopc,001,0,english,2022-07-20_11h00.46.762,3-AFC_adaptive_staircase_mess,2022.1.1,33.801289654421886,
,,,,,9,0,9,0,5,0,5,0,,,,,,,,,,,,,,,,left,250,5,0.0002978310717645052,1,1,1,5,1072.2028318500002,None,1072.1411565000003,1072.4669078000002,None,None,None,None,left,1,0.7772488999999041,1072.2054931000002,None,None,None,,,,,,,cwzopc,001,0,english,2022-07-20_11h00.46.762,3-AFC_adaptive_staircase_mess,2022.1.1,33.801289654421886,
,,,,,9,0,9,0,6,0,6,0,,,,,,,,,,,,,,,,left,250,5,0.0002978310717645052,1,1,1,5,1074.54230675,None,1074.4806946000003,1074.8060421,1075.4665299500002,None,None,None,left,1,0.8784006000000772,1074.5454751000002,None,None,None,,,,,,,cwzopc,001,0,english,2022-07-20_11h00.46.762,3-AFC_adaptive_staircase_mess,2022.1.1,33.801289654421886,
,,,,,9,0,9,0,7,0,7,0,,,,,,,,,,,,,,,,up,250,-5,9.418245447449e-05,-1,2,-1,-5.0,1077.9560703500001,None,1076.9129461000002,1077.2343604000002,1077.9263982000002,1078.2497802000003,1078.911212,1079.2318974,right,0,3.2060394000000088,1076.9773299000003,None,1079.484445,None,,,,,,,cwzopc,001,0,english,2022-07-20_11h00.46.762,3-AFC_adaptive_staircase_mess,2022.1.1,33.801289654421886,
,,,,,9,0,9,0,8,0,8,0,,,,,,,,,,,,,,,,right,250,-2.5,0.00012559432157547898,1,3,1,2.5,1083.7171841499999,None,1081.6634169000004,1081.9821992000002,1082.6734022,1082.9927208,1083.655185,1083.9805794000004,right,1,13.447238600000219,1081.7283006000002,None,1084.2016772000002,None,,,,,,,cwzopc,001,0,english,2022-07-20_11h00.46.762,3-AFC_adaptive_staircase_mess,2022.1.1,33.801289654421886,
,,,,,9,0,9,0,9,0,9,0,,,,,,,,,,,,,,,,up,250,-2.5,0.00012559432157547898,1,3,1,2.5,1097.71106315,None,1096.6699742,1096.991904,1097.681391,1098.0061609,1098.6645557000002,1098.9872569,right,0,7.433625199999824,1096.7333745,None,1099.2116382,None,,,,,,,cwzopc,001,0,english,2022-07-20_11h00.46.762,3-AFC_adaptive_staircase_mess,2022.1.1,33.801289654421886,
,,,,,9,0,9,0,10,0,10,0,,,,,,,,,,,,,,,,up,250,0.0,0.0001674827195789138,1,3,1,2.5,1106.6892601499999,None,1105.6468557000003,1105.9685290000002,1106.659588,1106.9823556000001,1107.6455277,1107.9687904000002,right,0,5.143485500000224,1105.7113487000001,None,1108.1865461000002,None,,,,,,,cwzopc,001,0,english,2022-07-20_11h00.46.762,3-AFC_adaptive_staircase_mess,2022.1.1,33.801289654421886,
,,,,,9,0,9,0,11,0,11,0,,,,,,,,,,,,,,,,up,250,2.5,0.0002233417960754815,1,3,1,2.5,1113.3675242499999,None,1112.3244730000001,1112.6464754000003,1113.3378521,1113.6559192,1114.3133943000003,1114.6332562000002,right,0,7.194185999999718,1112.3897975,None,1114.8865162000002,None,,,,,,,cwzopc,001,0,english,2022-07-20_11h00.46.762,3-AFC_adaptive_staircase_mess,2022.1.1,33.801289654421886,
,,,,,9,0,9,0,12,0,12,0,,,,,,,,,,,,,,,,up,250,5.0,0.0002978310717645052,1,3,1,2.5,1122.16041735,None,1121.1070750000003,1121.4134155000002,1122.0982002,1122.4168855000003,1123.0974424,1123.4184552000002,up,1,2.222873299999719,1121.1760272000001,None,None,None,,,,,,,cwzopc,001,0,english,2022-07-20_11h00.46.762,3-AFC_adaptive_staircase_mess,2022.1.1,33.801289654421886,
,,,,,9,0,9,0,13,0,13,0,,,,,,,,,,,,,,,,left,250,5.0,0.0002978310717645052,1,3,1,2.5,1124.94540555,None,1124.9157334000001,1125.2469111,1125.9105243,1126.2330298000002,None,None,left,1,1.6427257000000282,1124.9571877000003,None,None,None,,,,,,,cwzopc,001,0,english,2022-07-20_11h00.46.762,3-AFC_adaptive_staircase_mess,2022.1.1,33.801289654421886,
,,,,,9,0,9,0,14,0,14,0,,,,,,,,,,,,,,,,up,250,0.0,0.0001674827195789138,-1,4,-1,-5.0,1129.1450748500001,None,1128.0846065,1128.4070993,1129.0831984000001,1129.4072888,None,None,up,1,1.5942285999999513,1128.1491778,None,None,None,,,,,,,cwzopc,001,0,english,2022-07-20_11h00.46.762,3-AFC_adaptive_staircase_mess,2022.1.1,33.801289654421886,
,,,,,9,0,9,0,15,0,15,0,,,,,,,,,,,,,,,,up,250,0.0,0.0001674827195789138,-1,4,-1,-5.0,1132.2784616499998,None,1131.2373312,1131.5572649,1132.2487895,1132.5770891000002,None,None,up,1,1.5383825999997498,1131.3005965000002,None,None,None,,,,,,,cwzopc,001,0,english,2022-07-20_11h00.46.762,3-AFC_adaptive_staircase_mess,2022.1.1,33.801289654421886,
,,,,,9,0,9,0,16,0,16,0,,,,,,,,,,,,,,,,left,250,-5.0,9.418245447449e-05,-1,4,-1,-5.0,1134.39214545,None,1134.3303796,1134.6542683000002,1135.3449864,1135.6697170000002,1136.3300526000003,1136.6480881000002,right,0,3.8517163000001347,1134.3945471000002,None,1136.8710263000003,None,,,,,,,cwzopc,001,0,english,2022-07-20_11h00.46.762,3-AFC_adaptive_staircase_mess,2022.1.1,33.801289654421886,
,,,,,9,0,9,0,17,0,17,0,,,,,,,,,,,,,,,,up,250,-2.5,0.00012559432157547898,1,5,1,2.5,1140.77380155,None,1139.7269895,1140.0507940000002,1140.7441294,1141.0695398000003,1141.7271221,1142.0477294000002,right,0,6.808132300000125,1139.7915422,None,1142.2659346,None,,,,,,,cwzopc,001,0,english,2022-07-20_11h00.46.762,3-AFC_adaptive_staircase_mess,2022.1.1,33.801289654421886,
,,,,,9,0,9,0,18,0,18,0,,,,,,,,,,,,,,,,up,250,0.0,0.0001674827195789138,1,5,1,2.5,1149.1492547500002,None,1148.1002302000002,1148.419931,1149.0875816000002,1149.4138813,1150.1066336000004,1150.4289374,up,1,2.5251797000000806,1148.1620958000003,None,1150.6522636,None,,,,,,,cwzopc,001,0,english,2022-07-20_11h00.46.762,3-AFC_adaptive_staircase_mess,2022.1.1,33.801289654421886,
,,,,,9,0,9,0,19,0,19,0,,,,,,,,,,,,,,,,left,250,0.0,0.0001674827195789138,1,5,1,2.5,1152.2607132500002,None,1152.1985684,1152.5237047,1153.2155007000001,1153.5339071000003,1154.1948893000003,1154.5162683000003,right,0,3.0475344999999834,1152.2632161000001,None,1154.7362828,None,,,,,,,cwzopc,001,0,english,2022-07-20_11h00.46.762,3-AFC_adaptive_staircase_mess,2022.1.1,33.801289654421886,
,,,,,9,0,9,0,20,0,20,0,,,,,,,,,,,,,,,,up,250,2.5,0.0002233417960754815,1,5,1,2.5,1157.82689595,None,1156.7854116000003,1157.1044677,1157.7972238000002,1158.1227124000002,None,None,up,1,1.5992325999995955,1156.8474354,None,None,None,,,,,,,cwzopc,001,0,english,2022-07-20_11h00.46.762,3-AFC_adaptive_staircase_mess,2022.1.1,33.801289654421886,
,,,,,9,0,9,0,21,0,21,0,,,,,,,,,,,,,,,,right,250,2.5,0.0002233417960754815,1,5,1,2.5,1161.99656645,None,1159.9365838000003,1160.2580603000001,1160.9492835,1161.2706338000003,1161.9342494000002,1162.2609820000002,right,1,2.510330300000078,1160.0002910000003,None,1162.4821003000002,None,,,,,,,cwzopc,001,0,english,2022-07-20_11h00.46.762,3-AFC_adaptive_staircase_mess,2022.1.1,33.801289654421886,
,,,,,9,0,9,0,22,0,22,0,,,,,,,,,,,,,,,,right,250,-2.5,0.00012559432157547898,-1,6,-1,-5.0,1166.05789005,None,1163.9919897,1164.3093929000001,1165.0003923,1165.3215601000002,1165.9953291000002,1166.3204198000003,right,1,20.44250030000012,1164.0528564,None,1166.5424018000003,None,,,,,,,cwzopc,001,0,english,2022-07-20_11h00.46.762,3-AFC_adaptive_staircase_mess,2022.1.1,33.801289654421886,
,,,,,10,0,10,0,0,0,0,0,,,,,,,,,,,,,[],[],10,up,125,30,0.02285440948074376,0,0,-1,10,1192.6958074499998,None,1191.6484993,1191.9696139000002,1192.6661353,1192.9907111000002,1193.6511203,None,up,1,2.207535199999711,1191.7118419000003,None,None,None,right,5.620221199999833,1185.5870339000003,None,1185.5870339000003,None,cwzopc,001,0,english,2022-07-20_11h00.46.762,3-AFC_adaptive_staircase_mess,2022.1.1,33.801289654421886,
,,,,,10,0,10,0,1,0,1,0,,,,,,,,,,,,,,,,left,125,30,0.02285440948074376,0,0,-1,10,1195.47869635,None,1195.4176051,1195.7423360000003,None,None,None,None,left,1,0.5108294999999998,1195.4812689,None,None,None,,,,,,,cwzopc,001,0,english,2022-07-20_11h00.46.762,3-AFC_adaptive_staircase_mess,2022.1.1,33.801289654421886,
,,,,,10,0,10,0,2,0,2,0,,,,,,,,,,,,,,,,right,125,10,0.002285440948074376,-1,0,-1,-10,1199.5340641500002,None,1197.4674523000003,1197.7876903000001,1198.4819658000001,1198.8111409000003,1199.4721483000003,1199.7982340000003,right,1,2.404206599999725,1197.5305795,None,None,None,,,,,,,cwzopc,001,0,english,2022-07-20_11h00.46.762,3-AFC_adaptive_staircase_mess,2022.1.1,33.801289654421886,
,,,,,10,0,10,0,3,0,3,0,,,,,,,,,,,,,,,,left,125,10,0.002285440948074376,-1,0,-1,-10,1201.4867648499999,None,1201.4251062000003,1201.7489264,None,None,None,None,left,1,0.6065564999998969,1201.4888372,None,None,None,,,,,,,cwzopc,001,0,english,2022-07-20_11h00.46.762,3-AFC_adaptive_staircase_mess,2022.1.1,33.801289654421886,
,,,,,10,0,10,0,4,0,4,0,,,,,,,,,,,,,,,,right,125,0,0.000722719885372964,-1,0,-1,-10,1205.6664211500001,None,1203.6046991000003,1203.9255489000002,1204.6177962000002,1204.9385375000002,1205.6030219,1205.9302114000002,right,1,2.5205520999998043,1203.6700394,None,1206.1539089000003,None,,,,,,,cwzopc,001,0,english,2022-07-20_11h00.46.762,3-AFC_adaptive_staircase_mess,2022.1.1,33.801289654421886,
,,,,,10,0,10,0,5,0,5,0,,,,,,,,,,,,,,,,right,125,0,0.000722719885372964,-1,0,-1,-10,1209.75176035,None,1207.6906136000002,1208.0099707,1208.7021353,1209.0238167000002,1209.6894485000003,1210.0160795000002,right,1,2.7176743999998507,1207.7541928,None,1210.2412576000002,None,,,,,,,cwzopc,001,0,english,2022-07-20_11h00.46.762,3-AFC_adaptive_staircase_mess,2022.1.1,33.801289654421886,
,,,,,10,0,10,0,6,0,6,0,,,,,,,,,,,,,,,,right,125,-10,0.0002285440948074376,-1,0,-1,-10,1214.0078753500002,None,1211.9479409,1212.2674493,1212.9590648000003,1213.2809412000001,1213.9459716000001,1214.2737934000002,right,1,3.9318420999998125,1212.0113158,None,1214.4965928000001,None,,,,,,,cwzopc,001,0,english,2022-07-20_11h00.46.762,3-AFC_adaptive_staircase_mess,2022.1.1,33.801289654421886,
,,,,,10,0,10,0,7,0,7,0,,,,,,,,,,,,,,,,up,125,-10,0.0002285440948074376,-1,0,-1,-10,1218.4831949499999,None,1217.4364448000001,1217.7573177,1218.4535228,1218.7806577000001,1219.4483837000002,1219.7674805000001,left,0,2.409893799999736,1217.5004842000003,None,None,None,,,,,,,cwzopc,001,0,english,2022-07-20_11h00.46.762,3-AFC_adaptive_staircase_mess,2022.1.1,33.801289654421886,
,,,,,10,0,10,0,8,0,8,0,,,,,,,,,,,,,,,,right,125,-5,0.00040641525808204974,1,1,1,5,1223.44494825,None,1221.4106957,1221.7337025000002,1222.4013963000002,1222.7234973,1223.4152761,1223.7384501000001,right,1,3.9882786999996824,1221.4432023,None,1223.9603110000003,None,,,,,,,cwzopc,001,0,english,2022-07-20_11h00.46.762,3-AFC_adaptive_staircase_mess,2022.1.1,33.801289654421886,
,,,,,10,0,10,0,9,0,9,0,,,,,,,,,,,,,,,,left,125,-5,0.00040641525808204974,1,1,1,5,1226.9753296499998,None,1226.9154646000002,1227.2408154,1227.9164448000001,1228.2385846000002,1228.9030813,1229.2239364000002,left,1,2.452628300000015,1226.9790978,None,1229.4711863500002,None,,,,,,,cwzopc,001,0,english,2022-07-20_11h00.46.762,3-AFC_adaptive_staircase_mess,2022.1.1,33.801289654421886,
,,,,,10,0,10,0,10,0,10,0,,,,,,,,,,,,,,,,right,125,-15,0.00012851978913844324,-1,2,-1,-5.0,1232.97256755,None,1230.9102664000002,1231.2311218,1231.8946233000001,1232.2143989,1232.911176,1233.2375541000001,right,1,2.593588400000044,1230.9745877,None,1233.4582879,None,,,,,,,cwzopc,001,0,english,2022-07-20_11h00.46.762,3-AFC_adaptive_staircase_mess,2022.1.1,33.801289654421886,
,,,,,10,0,10,0,11,0,11,0,,,,,,,,,,,,,,,,left,125,-15,0.00012851978913844324,-1,2,-1,-5.0,1235.13308555,None,1235.0718795000003,1235.3978759000001,1236.088126,1236.4126467,1237.0708675,1237.3939331000001,right,0,2.608520399999634,1235.1351982,None,1237.6191104,None,,,,,,,cwzopc,001,0,english,2022-07-20_11h00.46.762,3-AFC_adaptive_staircase_mess,2022.1.1,33.801289654421886,
,,,,,10,0,10,0,12,0,12,0,,,,,,,,,,,,,,,,up,125,-12.5,0.00017138389327322524,1,3,1,2.5,1240.2693418499998,None,1239.2245538000002,1239.5485594000002,1240.2396697,1240.5665728,1241.2272254,1241.5479205000001,right,0,10.429037199999584,1239.2903799,None,1241.7716886000003,None,,,,,,,cwzopc,001,0,english,2022-07-20_11h00.46.762,3-AFC_adaptive_staircase_mess,2022.1.1,33.801289654421886,
,,,,,10,0,10,0,13,0,13,0,,,,,,,,,,,,,,,,left,125,-10.0,0.0002285440948074376,1,3,1,2.5,1251.2682157499999,1251.4893749000003,1251.2385436,1251.5585131000003,1252.2426044000003,1252.5582905,1253.2299985,1253.5430465,right,0,2.733676199999991,1251.2734996,None,1253.7724323000002,None,,,,,,,cwzopc,001,0,english,2022-07-20_11h00.46.762,3-AFC_adaptive_staircase_mess,2022.1.1,33.801289654421886,
,,,,,10,0,10,0,14,0,14,0,,,,,,,,,,,,,,,,up,125,-7.5,0.0003047684486200847,1,3,1,2.5,1256.5431743499998,None,1255.4961956000002,1255.8200295000001,1256.5135022,1256.8408714000002,1257.4970076,1257.8202422,right,0,2.6933423000000403,1255.5612620000002,None,1258.0410776000003,None,,,,,,,cwzopc,001,0,english,2022-07-20_11h00.46.762,3-AFC_adaptive_staircase_mess,2022.1.1,33.801289654421886,
,,,,,10,0,10,0,15,0,15,0,,,,,,,,,,,,,,,,up,125,-5.0,0.00040641525808204974,1,3,1,2.5,1260.8023808500002,None,1259.7567872,1260.0766738000002,1260.7404390000002,1261.0672116,1261.7621586,1262.0822349,right,0,2.9695161999998163,1259.789429,None,1262.3056930000002,None,,,,,,,cwzopc,001,0,english,2022-07-20_11h00.46.762,3-AFC_adaptive_staircase_mess,2022.1.1,33.801289654421886,
,,,,,10,0,10,0,16,0,16,0,,,,,,,,,,,,,,,,right,125,-2.5,0.000541963457010602,1,3,1,2.5,1266.3099039499998,None,1264.2593942000003,1264.5770585,1265.273349,1265.5816767000001,1266.2480610000002,1266.5741098000003,right,1,3.1496352999997725,1264.3211298,None,1266.7965952,None,,,,,,,cwzopc,001,0,english,2022-07-20_11h00.46.762,3-AFC_adaptive_staircase_mess,2022.1.1,33.801289654421886,
,,,,,10,0,10,0,17,0,17,0,,,,,,,,,,,,,,,,up,125,-2.5,0.000541963457010602,1,3,1,2.5,1269.99271155,None,1268.9474554000003,1269.2721614000002,1269.9332001000002,1270.2570848,1270.9539496000002,1271.2756823,right,0,12.660780799999884,1268.9793042000001,None,1271.4977322,None,,,,,,,cwzopc,001,0,english,2022-07-20_11h00.46.762,3-AFC_adaptive_staircase_mess,2022.1.1,33.801289654421886,
,,,,,10,0,10,0,18,0,18,0,,,,,,,,,,,,,,,,up,125,0.0,0.000722719885372964,1,3,1,2.5,1284.1962142500001,None,1283.1494120000002,1283.4896584000003,1284.1665421000002,1284.5032230000002,1285.1783036000002,1285.5200301,up,1,2.5568332000002556,1283.2265248000003,None,1285.7123237,None,,,,,,,cwzopc,001,0,english,2022-07-20_11h00.46.762,3-AFC_adaptive_staircase_mess,2022.1.1,33.801289654421886,
,,,,,10,0,10,0,19,0,19,0,,,,,,,,,,,,,,,,right,125,0.0,0.000722719885372964,1,3,1,2.5,1289.3489090500002,None,1287.3003972000001,1287.6373434000002,1288.3110193000002,1288.6493027000001,1289.3192369000003,1289.6609792,right,1,2.5575510999997277,1287.3380863000002,None,1289.845581,None,,,,,,,cwzopc,001,0,english,2022-07-20_11h00.46.762,3-AFC_adaptive_staircase_mess,2022.1.1,33.801289654421886,
,,,,,10,0,10,0,20,0,20,0,,,,,,,,,,,,,,,,right,125,-5.0,0.00040641525808204974,-1,4,-1,-5.0,1293.4499377500001,None,1291.4073271000002,1291.7447603,1292.4105253000002,1292.7462041000003,1293.4202656000002,1293.7629965,up,0,3.8025455000001784,1291.4443053,None,1293.953911,None,,,,,,,cwzopc,001,0,english,2022-07-20_11h00.46.762,3-AFC_adaptive_staircase_mess,2022.1.1,33.801289654421886,
,,,,,10,0,10,0,21,0,21,0,,,,,,,,,,,,,,,,up,125,-2.5,0.000541963457010602,1,5,1,2.5,1297.79374705,None,1296.7502341,1297.0919559,1297.7640749000002,1298.0734621000001,1298.7501266,1299.0871758000003,left,0,3.5447063000001435,1296.7901399000002,None,1299.3148004,None,,,,,,,cwzopc,001,0,english,2022-07-20_11h00.46.762,3-AFC_adaptive_staircase_mess,2022.1.1,33.801289654421886,
,,,,,10,0,10,0,22,0,22,0,,,,,,,,,,,,,,,,up,125,0.0,0.000722719885372964,1,5,1,2.5,1302.90711035,None,1301.8486452000002,1302.1597673,1302.8774382000001,1303.2207000000003,1303.8492915000002,None,up,1,1.9783370999998624,1301.9239928000002,None,None,None,,,,,,,cwzopc,001,0,english,2022-07-20_11h00.46.762,3-AFC_adaptive_staircase_mess,2022.1.1,33.801289654421886,
,,,,,10,0,10,0,23,0,23,0,,,,,,,,,,,,,,,,right,125,0.0,0.000722719885372964,1,5,1,2.5,1307.4710705500001,None,1305.4066518,1305.7192515000002,1306.4236772,1306.7694444000003,1307.4049199,1307.7470844,right,1,6.530778000000282,1305.4848331000003,None,1307.9826396000003,None,,,,,,,cwzopc,001,0,english,2022-07-20_11h00.46.762,3-AFC_adaptive_staircase_mess,2022.1.1,33.801289654421886,
,,,,,10,0,10,0,24,0,24,0,,,,,,,,,,,,,,,,right,125,-5.0,0.00040641525808204974,-1,6,-1,-5.0,1315.55848685,None,1313.4994944,1313.8051314,1314.5129294000003,1314.8592063,1315.5288147,1315.8341301,right,1,2.640305100000205,1313.5753898000003,None,1316.0675728,None,,,,,,,cwzopc,001,0,english,2022-07-20_11h00.46.762,3-AFC_adaptive_staircase_mess,2022.1.1,33.801289654421886,
,,,,,,,,,,,,,,,,,,,,,,,,,,,,,,,,,,,,,,,,,,,,,,,,,,,right,3.424938199999815,1317.3103371000002,None,1317.3103371000002,None,,,,,,,,,
