frequencies,training_trials.thisRepN,training_trials.thisTrialN,training_trials.thisN,training_trials.thisIndex,frequencies.thisRepN,frequencies.thisTrialN,frequencies.thisN,frequencies.thisIndex,trials.thisRepN,trials.thisTrialN,trials.thisN,trials.thisIndex,tFrequency,tLevel,tCorrect,Tprobe.started,Tprobe.stopped,tTriangle_cue.started,tTriangle_cue.stopped,Tfeedback.keys,Tfeedback.corr,Tfeedback.rt,Tfeedback.started,Tfeedback.stopped,reversals_nTrials.routineEndVal,track_dir.routineEndVal,step_up.routineEndVal,Correct,Frequency,Level,Psychopy_Level,Direction,Reversals,Track_dir,Step,probe.started,probe.stopped,cross_cue.started,cross_cue.stopped,circle_cue.started,circle_cue.stopped,triangle_cue.started,triangle_cue.stopped,feedback.keys,feedback.corr,feedback.rt,feedback.started,feedback.stopped,memo.started,memo.stopped,key_resp.keys,key_resp.rt,key_resp.started,key_resp.stopped,text.started,text.stopped,participant,session,skip_training,language (english or french),date,expName,psychopyVersion,frameRate,
5000,0,0,0,4,,,,,,,,,5000,30,right,77.0558753499965,None,76.9880514999968,77.28676350000023,right,1,2.829556600001524,74.57366949999414,None,,,,,,,,,,,,,,,,,,,,,,,,,,,,,,,,,quicsb,001,0,fr,2022-07-21_15h45.36.707,3-AFC_adaptive_staircase_mess,2022.1.1,30.73114306389485,
850,0,1,1,2,,,,,,,,,850,30,right,84.4578946499998,None,84.42283619999944,84.72299939999357,right,1,2.792173699999694,82.01983739998832,None,,,,,,,,,,,,,,,,,,,,,,,,,,,,,,,,,quicsb,001,0,fr,2022-07-21_15h45.36.707,3-AFC_adaptive_staircase_mess,2022.1.1,30.73114306389485,
200,0,2,2,0,,,,,,,,,200,30,right,90.05926805000054,90.27179559999786,90.02420960000018,90.33359239999845,right,1,2.8536634000047343,87.62286479999602,None,,,,,,,,,,,,,,,,,,,,,,,,,,,,,,,,,quicsb,001,0,fr,2022-07-21_15h45.36.707,3-AFC_adaptive_staircase_mess,2022.1.1,30.73114306389485,
1300,0,3,3,3,,,,,,,,,1300,30,up,94.253137349998,94.46371649998764,None,None,up,1,1.8316160000103991,92.7955559999973,None,,,,,,,,,,,,,,,,,,,,,,,,,,,,,,,,,quicsb,001,0,fr,2022-07-21_15h45.36.707,3-AFC_adaptive_staircase_mess,2022.1.1,30.73114306389485,
450,0,4,4,1,,,,,,,,,450,30,right,99.17612594999373,99.39659639999445,99.1116187999869,99.42394989999593,right,1,3.055772200008505,96.7310002999875,None,,,,,,,,,,,,,,,,,,,,,,,,,,,,,,,,,quicsb,001,0,fr,2022-07-21_15h45.36.707,3-AFC_adaptive_staircase_mess,2022.1.1,30.73114306389485,
,,,,,0,0,0,0,0,0,0,0,,,,,,,,,,,,,[],[],10,left,1000,30,0.0013930605843148849,0,0,-1,10,107.53583484998963,107.75566439999966,107.47150249998958,107.78769369999645,None,None,None,None,left,1,0.4494977000140352,107.53029999999853,None,None,None,,,,,,,quicsb,001,0,fr,2022-07-21_15h45.36.707,3-AFC_adaptive_staircase_mess,2022.1.1,30.73114306389485,
,,,,,0,0,0,0,1,0,1,0,,,,,,,,,,,,,,,,up,1000,30,0.0013930605843148849,0,0,-1,10,110.49648934998841,110.7072807999939,109.44018049999431,109.74207899998873,110.43141689999902,110.73732659999223,None,None,up,1,1.3889462999941316,109.5023596999963,None,None,None,,,,,,,quicsb,001,0,fr,2022-07-21_15h45.36.707,3-AFC_adaptive_staircase_mess,2022.1.1,30.73114306389485,
,,,,,0,0,0,0,2,0,2,0,,,,,,,,,,,,,,,,left,1000,10,0.00013930605843148847,-1,0,-1,-10,112.43885594999593,112.6526073999994,112.40379749999556,112.71508039999753,None,None,None,None,left,1,0.45815679999941494,112.4329846999899,None,None,None,,,,,,,quicsb,001,0,fr,2022-07-21_15h45.36.707,3-AFC_adaptive_staircase_mess,2022.1.1,30.73114306389485,
,,,,,0,0,0,0,3,0,3,0,,,,,,,,,,,,,,,,up,1000,10,0.00013930605843148847,-1,0,-1,-10,115.42609534999356,None,114.38145439999062,114.67969999999332,115.3910368999932,115.70198899999377,None,None,up,1,1.3473143000010168,114.43989009999495,None,None,None,,,,,,,quicsb,001,0,fr,2022-07-21_15h45.36.707,3-AFC_adaptive_staircase_mess,2022.1.1,30.73114306389485,
,,,,,0,0,0,0,4,0,4,0,,,,,,,,,,,,,,,,right,1000,0,4.405244365040069e-05,-1,0,-1,-10,119.31568114999682,119.5348926000006,117.26089249999495,117.55931229999987,118.23932649999915,118.56320459999552,119.25107119999302,119.56359429999429,right,1,2.575720300010289,117.29197979999299,None,119.80517680000048,None,,,,,,,quicsb,001,0,fr,2022-07-21_15h45.36.707,3-AFC_adaptive_staircase_mess,2022.1.1,30.73114306389485,
,,,,,0,0,0,0,5,0,5,0,,,,,,,,,,,,,,,,up,1000,0,4.405244365040069e-05,-1,0,-1,-10,122.39395734999853,122.61160419999214,121.3438010999962,121.64335289999144,122.32921689999057,122.63948789999995,None,None,up,1,1.4388213000056567,121.37326259999827,None,None,None,,,,,,,quicsb,001,0,fr,2022-07-21_15h45.36.707,3-AFC_adaptive_staircase_mess,2022.1.1,30.73114306389485,
,,,,,0,0,0,0,6,0,6,0,,,,,,,,,,,,,,,,right,1000,-10,1.3930605843148848e-05,-1,0,-1,-10,126.31505924999074,None,124.25764250000066,124.55931509999209,125.26622889999999,125.56807189999381,126.28000079999038,126.57995399998617,left,0,11.383313199999975,124.31674819999898,None,126.82062109999242,None,,,,,,,quicsb,001,0,fr,2022-07-21_15h45.36.707,3-AFC_adaptive_staircase_mess,2022.1.1,30.73114306389485,
,,,,,0,0,0,0,7,0,7,0,,,,,,,,,,,,,,,,up,1000,-5,2.4772509540239506e-05,1,1,1,5,138.2374632499879,138.4528033999959,137.17736909999803,137.47529909999867,138.17316819999542,138.48515989999578,139.1583338999917,139.45680529999663,left,0,11.987570000012056,137.2073723999929,None,139.73637409998628,None,,,,,,,quicsb,001,0,fr,2022-07-21_15h45.36.707,3-AFC_adaptive_staircase_mess,2022.1.1,30.73114306389485,
,,,,,0,0,0,0,8,0,8,0,,,,,,,,,,,,,,,,up,1000,0,4.405244365040069e-05,1,1,1,5,151.71992744999005,None,150.6805764999881,150.96678789998987,151.6848689999897,151.993842699987,None,None,up,1,1.5977933000103803,150.70146709999244,None,None,None,,,,,,,quicsb,001,0,fr,2022-07-21_15h45.36.707,3-AFC_adaptive_staircase_mess,2022.1.1,30.73114306389485,
,,,,,0,0,0,0,9,0,9,0,,,,,,,,,,,,,,,,left,1000,0,4.405244365040069e-05,1,1,1,5,153.82525924999499,154.03907349999645,153.76064209999458,154.05569139998988,154.77209699999366,None,None,None,left,1,1.0489421000092989,153.81912369999918,None,None,None,,,,,,,quicsb,001,0,fr,2022-07-21_15h45.36.707,3-AFC_adaptive_staircase_mess,2022.1.1,30.73114306389485,
,,,,,0,0,0,0,10,0,10,0,,,,,,,,,,,,,,,,left,1000,-10,1.3930605843148848e-05,-1,2,-1,-5.0,156.3882756499981,None,156.35321719999774,156.66272290000052,157.34180769999512,157.6444300999865,158.3305970999936,158.6360549999954,left,1,4.520901900003082,156.3861853999988,None,158.90014019999944,None,,,,,,,quicsb,001,0,fr,2022-07-21_15h45.36.707,3-AFC_adaptive_staircase_mess,2022.1.1,30.73114306389485,
,,,,,0,0,0,0,11,0,11,0,,,,,,,,,,,,,,,,left,1000,-10,1.3930605843148848e-05,-1,2,-1,-5.0,162.42592494999116,162.64523489998828,162.3908664999908,162.70055369999318,163.38334269999177,163.69333519999054,164.38454139999521,164.68096529999457,left,1,3.5598838000005344,162.41083359999175,None,164.92076809999708,None,,,,,,,quicsb,001,0,fr,2022-07-21_15h45.36.707,3-AFC_adaptive_staircase_mess,2022.1.1,30.73114306389485,
,,,,,0,0,0,0,12,0,12,0,,,,,,,,,,,,,,,,left,1000,-15.0,7.833755350540743e-06,-1,2,-1,-5.0,167.50040974999428,167.71982859999116,167.46535129999393,167.77368179999758,168.45139539999946,168.75764199999685,169.4659818999935,169.76630669999577,left,1,3.13765040000726,167.49807759998657,None,170.00029299999005,None,,,,,,,quicsb,001,0,fr,2022-07-21_15h45.36.707,3-AFC_adaptive_staircase_mess,2022.1.1,30.73114306389485,
,,,,,0,0,0,0,13,0,13,0,,,,,,,,,,,,,,,,left,1000,-15.0,7.833755350540743e-06,-1,2,-1,-5.0,172.1335818499967,172.35081779999018,172.09852339999634,172.41087159999006,173.08677349999198,173.38995199999772,174.09572499999194,174.3949958999874,left,1,2.908575200010091,172.12695829999575,None,174.62625589998788,None,,,,,,,quicsb,001,0,fr,2022-07-21_15h45.36.707,3-AFC_adaptive_staircase_mess,2022.1.1,30.73114306389485,
,,,,,0,0,0,0,14,0,14,0,,,,,,,,,,,,,,,,right,1000,-20.0,4.405244365040069e-06,-1,2,-1,-5.0,178.55004614999342,178.7749899999908,176.50563169999805,176.7943668999942,177.48719059998984,177.8091601999913,178.48489939999126,178.80289549998997,left,0,2.9489514000015333,176.52671989999362,None,179.0397238999867,None,,,,,,,quicsb,001,0,fr,2022-07-21_15h45.36.707,3-AFC_adaptive_staircase_mess,2022.1.1,30.73114306389485,
,,,,,0,0,0,0,15,0,15,0,,,,,,,,,,,,,,,,right,1000,-17.5,5.874487774697645e-06,1,3,1,2.5,182.98580864999093,183.2019328999886,180.94516689999728,181.24429049999162,181.92205049999757,182.24655659998825,182.92243159998907,183.22990579999168,up,0,4.545241400002851,180.97803319999366,None,183.49267849999887,None,,,,,,,quicsb,001,0,fr,2022-07-21_15h45.36.707,3-AFC_adaptive_staircase_mess,2022.1.1,30.73114306389485,
,,,,,0,0,0,0,16,0,16,0,,,,,,,,,,,,,,,,up,1000,-15.0,7.833755350540743e-06,1,3,1,2.5,188.0615781499975,None,187.01693659999,187.31724979999126,188.02651969999715,188.32998289998795,189.0319610000006,189.34199659999285,left,0,2.822162800002843,187.03715039999224,None,189.57848299999023,None,,,,,,,quicsb,001,0,fr,2022-07-21_15h45.36.707,3-AFC_adaptive_staircase_mess,2022.1.1,30.73114306389485,
,,,,,0,0,0,0,17,0,17,0,,,,,,,,,,,,,,,,up,1000,-12.5,1.0446480654270193e-05,1,3,1,2.5,192.36025124999577,192.57782829999633,191.30755489999137,191.61320319998777,192.29575549998845,192.60542609999538,193.30753109999932,193.6247330999904,left,0,3.066104899990023,191.37799229999655,None,193.85921669998788,None,,,,,,,quicsb,001,0,fr,2022-07-21_15h45.36.707,3-AFC_adaptive_staircase_mess,2022.1.1,30.73114306389485,
,,,,,0,0,0,0,18,0,18,0,,,,,,,,,,,,,,,,up,1000,-10.0,1.3930605843148848e-05,1,3,1,2.5,196.9971766499977,197.20788149999862,195.9288591999939,196.2275670999952,196.9282896999939,197.23881299998902,197.94156289999955,198.23958319998928,right,0,2.808677399996668,195.99381259999063,None,198.47630409999692,None,,,,,,,quicsb,001,0,fr,2022-07-21_15h45.36.707,3-AFC_adaptive_staircase_mess,2022.1.1,30.73114306389485,
,,,,,0,0,0,0,19,0,19,0,,,,,,,,,,,,,,,,right,1000,-7.5,1.8576761454858622e-05,1,3,1,2.5,202.34345754998793,202.55598039999313,200.2991575999913,200.59498469998653,201.29985149999266,201.59947889999603,202.30839909998758,202.61048969998956,left,0,3.021380300007877,200.35851299999922,None,202.84995949998847,None,,,,,,,quicsb,001,0,fr,2022-07-21_15h45.36.707,3-AFC_adaptive_staircase_mess,2022.1.1,30.73114306389485,
,,,,,0,0,0,0,20,0,20,0,,,,,,,,,,,,,,,,left,1000,-5.0,2.4772509540239506e-05,1,3,1,2.5,204.92719474999757,205.13649589999113,204.86435259999416,205.16370549998828,205.86646609999298,206.1630448999931,206.87368959999003,207.19158339999558,left,1,2.8974827000056393,204.9232503999956,None,207.42791889999353,None,,,,,,,quicsb,001,0,fr,2022-07-21_15h45.36.707,3-AFC_adaptive_staircase_mess,2022.1.1,30.73114306389485,
,,,,,0,0,0,0,21,0,21,0,,,,,,,,,,,,,,,,left,1000,-5.0,2.4772509540239506e-05,1,3,1,2.5,209.36295544999592,209.58720829999947,209.29609789999085,209.61882349998632,210.29790029999276,210.5917899999913,211.2964413999871,211.59242239999003,left,1,2.5347620000102324,209.35644369998772,None,211.85940370000026,None,,,,,,,quicsb,001,0,fr,2022-07-21_15h45.36.707,3-AFC_adaptive_staircase_mess,2022.1.1,30.73114306389485,
,,,,,0,0,0,0,22,0,22,0,,,,,,,,,,,,,,,,up,1000,-10.0,1.3930605843148848e-05,-1,4,-1,-5.0,214.40151884999358,214.6268248999986,213.3492702999938,213.64667129999725,214.3372296999878,214.65723349999462,215.34475119999843,215.64531669999997,left,0,2.743894100000034,213.37880379999115,None,215.87947329999588,None,,,,,,,quicsb,001,0,fr,2022-07-21_15h45.36.707,3-AFC_adaptive_staircase_mess,2022.1.1,30.73114306389485,
,,,,,0,0,0,0,23,0,23,0,,,,,,,,,,,,,,,,left,1000,-7.5,1.8576761454858622e-05,1,5,1,2.5,217.6634762499918,217.87511009999434,217.62841779999144,217.9311558999907,218.6045451999962,218.91584879999573,219.61774069999228,219.91999309998937,left,1,2.809844900009921,217.65829759999178,None,220.1586532999936,None,,,,,,,quicsb,001,0,fr,2022-07-21_15h45.36.707,3-AFC_adaptive_staircase_mess,2022.1.1,30.73114306389485,
,,,,,0,0,0,0,24,0,24,0,,,,,,,,,,,,,,,,up,1000,-7.5,1.8576761454858622e-05,1,5,1,2.5,222.99852914999354,None,221.9611700999958,222.26748349999252,222.9634706999932,223.26630429999204,223.9616638999869,224.26131379998697,left,0,2.5504148000036366,221.9894607999886,None,224.5018984999915,None,,,,,,,quicsb,001,0,fr,2022-07-21_15h45.36.707,3-AFC_adaptive_staircase_mess,2022.1.1,30.73114306389485,
,,,,,0,0,0,0,25,0,25,0,,,,,,,,,,,,,,,,left,1000,-5.0,2.4772509540239506e-05,1,5,1,2.5,226.101645549995,None,226.03365040000062,226.33682829998725,227.03801949998888,227.36233150000044,228.0428130999935,228.33811539999442,left,1,2.8449542000016663,226.10296979999111,None,228.5748573999881,None,,,,,,,quicsb,001,0,fr,2022-07-21_15h45.36.707,3-AFC_adaptive_staircase_mess,2022.1.1,30.73114306389485,
,,,,,0,0,0,0,26,0,26,0,,,,,,,,,,,,,,,,left,1000,-5.0,2.4772509540239506e-05,1,5,1,2.5,230.47291634998982,230.68213249999098,230.43785789998947,230.740255599987,231.41196869999112,231.7284132999921,232.42884219999542,232.72365949999948,left,1,2.8811789999890607,230.4669617999898,None,232.98715889999585,None,,,,,,,quicsb,001,0,fr,2022-07-21_15h45.36.707,3-AFC_adaptive_staircase_mess,2022.1.1,30.73114306389485,
,,,,,0,0,0,0,27,0,27,0,,,,,,,,,,,,,,,,right,1000,-10.0,1.3930605843148848e-05,-1,6,-1,-5.0,236.90571304998883,237.11780819999694,234.835053399991,235.1338672999991,235.83702639999683,236.13641229999484,236.83805179999035,237.14897689998907,left,0,2.858922599989455,234.89679129999422,None,237.38637469999958,None,,,,,,,quicsb,001,0,fr,2022-07-21_15h45.36.707,3-AFC_adaptive_staircase_mess,2022.1.1,30.73114306389485,
,,,,,1,0,1,0,0,0,0,0,,,,,,,,,,,,,[],[],10,right,1500,30,0.001527460556607757,0,0,-1,10,245.46646734999666,245.68334229999164,243.41017119999742,243.70924769999692,244.39719909999985,244.69553599999927,245.3986569999979,245.71099289999984,right,1,2.3387930000026245,243.44135079999978,None,None,None,space,4.118429900001502,238.83025339999585,None,238.83025339999585,None,quicsb,001,0,fr,2022-07-21_15h45.36.707,3-AFC_adaptive_staircase_mess,2022.1.1,30.73114306389485,
,,,,,1,0,1,0,1,0,1,0,,,,,,,,,,,,,,,,left,1500,30,0.001527460556607757,0,0,-1,10,247.30799214999132,247.52883329999167,247.24307929999486,247.55912249999528,None,None,None,None,left,1,0.47856650000903755,247.30126069999824,None,None,None,,,,,,,quicsb,001,0,fr,2022-07-21_15h45.36.707,3-AFC_adaptive_staircase_mess,2022.1.1,30.73114306389485,
,,,,,1,0,1,0,2,0,2,0,,,,,,,,,,,,,,,,left,1500,10,0.0001527460556607757,-1,0,-1,-10,249.28539814999675,249.50033329999133,249.2503396999964,249.559179399992,None,None,None,None,left,1,0.4329269000154454,249.28232859999116,None,None,None,,,,,,,quicsb,001,0,fr,2022-07-21_15h45.36.707,3-AFC_adaptive_staircase_mess,2022.1.1,30.73114306389485,
,,,,,1,0,1,0,3,0,3,0,,,,,,,,,,,,,,,,left,1500,10,0.0001527460556607757,-1,0,-1,-10,251.24383734999282,251.46409769999445,251.18087989999913,251.4952814999997,None,None,None,None,left,1,0.35794250000617467,251.23772979999194,None,None,None,,,,,,,quicsb,001,0,fr,2022-07-21_15h45.36.707,3-AFC_adaptive_staircase_mess,2022.1.1,30.73114306389485,
,,,,,1,0,1,0,4,0,4,0,,,,,,,,,,,,,,,,left,1500,0,4.830254394949071e-05,-1,0,-1,-10,253.11136864999133,253.3236932999862,253.07631019999098,253.38027419999707,None,None,None,None,left,1,0.4319818999938434,253.10746179999842,None,None,None,,,,,,,quicsb,001,0,fr,2022-07-21_15h45.36.707,3-AFC_adaptive_staircase_mess,2022.1.1,30.73114306389485,
,,,,,1,0,1,0,5,0,5,0,,,,,,,,,,,,,,,,left,1500,0,4.830254394949071e-05,-1,0,-1,-10,255.07967974999627,255.303322199994,255.01696589999483,255.33353659999557,256.01489709998714,256.3115451999911,257.02902209998865,257.34460430000036,left,1,3.8712055000069086,255.07630619998963,None,257.58081539999694,None,,,,,,,quicsb,001,0,fr,2022-07-21_15h45.36.707,3-AFC_adaptive_staircase_mess,2022.1.1,30.73114306389485,
,,,,,1,0,1,0,6,0,6,0,,,,,,,,,,,,,,,,up,1500,-10,1.527460556607758e-05,-1,0,-1,-10,261.49387244999815,261.70928809999896,260.4330740000005,260.7314900999918,261.428654599993,261.7409607999871,262.42484759999206,262.7308774999983,left,0,3.2531912999984343,260.46223999999347,None,262.99882649999927,None,,,,,,,quicsb,001,0,fr,2022-07-21_15h45.36.707,3-AFC_adaptive_staircase_mess,2022.1.1,30.73114306389485,
,,,,,1,0,1,0,7,0,7,0,,,,,,,,,,,,,,,,right,1500,-5,2.716251657462168e-05,1,1,1,5,267.24119134999927,267.456400199997,265.18298369999684,265.4994446999917,266.2044535999885,266.50213929999154,267.2061328999989,267.5118294999993,left,0,2.9311318999971263,265.2399590999994,None,267.7459896999935,None,,,,,,,quicsb,001,0,fr,2022-07-21_15h45.36.707,3-AFC_adaptive_staircase_mess,2022.1.1,30.73114306389485,
,,,,,1,0,1,0,8,0,8,0,,,,,,,,,,,,,,,,left,1500,0,4.830254394949071e-05,1,1,1,5,269.68540784999203,None,269.621306999994,269.94821439999214,270.62077999999747,270.9250644999993,271.6342380999995,271.92904249999265,left,1,2.8828699000005145,269.68062429998827,None,272.19417679999606,None,,,,,,,quicsb,001,0,fr,2022-07-21_15h45.36.707,3-AFC_adaptive_staircase_mess,2022.1.1,30.73114306389485,
,,,,,1,0,1,0,9,0,9,0,,,,,,,,,,,,,,,,right,1500,0,4.830254394949071e-05,1,1,1,5,276.0901732499944,None,274.024978299989,274.32023189999745,275.0419316999905,275.3427236999996,276.02689749999263,276.3380426999938,left,0,2.9189098999922862,274.0843937999889,None,276.5807839999907,None,,,,,,,quicsb,001,0,fr,2022-07-21_15h45.36.707,3-AFC_adaptive_staircase_mess,2022.1.1,30.73114306389485,
,,,,,1,0,1,0,10,0,10,0,,,,,,,,,,,,,,,,right,1500,5,8.589541935787943e-05,1,1,1,5,280.5224077499908,280.7397531999886,278.47873419999087,278.78111029999855,279.4852933999937,279.7820398999902,280.48734929999046,280.7940998999984,left,0,3.4256389000074705,278.5377326999878,None,281.04506879999826,None,,,,,,,quicsb,001,0,fr,2022-07-21_15h45.36.707,3-AFC_adaptive_staircase_mess,2022.1.1,30.73114306389485,
,,,,,1,0,1,0,11,0,11,0,,,,,,,,,,,,,,,,left,1500,10,0.0001527460556607757,1,1,1,5,283.50418064999684,283.7196433999925,283.4397245,283.746547799994,None,None,None,None,left,1,0.5531540000083623,283.4985728999891,None,None,None,,,,,,,quicsb,001,0,fr,2022-07-21_15h45.36.707,3-AFC_adaptive_staircase_mess,2022.1.1,30.73114306389485,
,,,,,1,0,1,0,12,0,12,0,,,,,,,,,,,,,,,,right,1500,10,0.0001527460556607757,1,1,1,5,287.5915394499927,None,285.5140514999948,285.82024939999974,286.5283777000004,286.8428009999916,287.5272194999998,287.8478829999949,right,1,2.3680844999908004,285.571332099993,None,None,None,,,,,,,quicsb,001,0,fr,2022-07-21_15h45.36.707,3-AFC_adaptive_staircase_mess,2022.1.1,30.73114306389485,
,,,,,1,0,1,0,13,0,13,0,,,,,,,,,,,,,,,,up,1500,0,4.830254394949071e-05,-1,2,-1,-5.0,290.4841583499976,290.70699089999835,289.41543999999703,289.7148671999894,290.4213002999895,290.73784349999914,291.4137209999899,291.72138319999794,left,0,3.4971959999966202,289.4740821999876,None,291.9709948999953,None,,,,,,,quicsb,001,0,fr,2022-07-21_15h45.36.707,3-AFC_adaptive_staircase_mess,2022.1.1,30.73114306389485,
,,,,,1,0,1,0,14,0,14,0,,,,,,,,,,,,,,,,up,1500,2.5,6.441247758465671e-05,1,3,1,2.5,295.49366494998975,295.71092709999357,294.45873629998823,294.7635986999958,295.4586064999894,295.77214139999705,296.4541339999996,296.76389299999573,left,0,3.0928426000027684,294.4868049999932,None,297.00991539999086,None,,,,,,,quicsb,001,0,fr,2022-07-21_15h45.36.707,3-AFC_adaptive_staircase_mess,2022.1.1,30.73114306389485,
,,,,,1,0,1,0,15,0,15,0,,,,,,,,,,,,,,,,right,1500,5.0,8.589541935787943e-05,1,3,1,2.5,301.10054064999275,301.31614749999426,299.0637796999945,299.36952909998945,300.04511099999945,300.35163009999087,301.0654821999924,301.3759766000003,right,1,2.3995530000102008,299.0916751999903,None,None,None,,,,,,,quicsb,001,0,fr,2022-07-21_15h45.36.707,3-AFC_adaptive_staircase_mess,2022.1.1,30.73114306389485,
,,,,,1,0,1,0,16,0,16,0,,,,,,,,,,,,,,,,right,1500,5.0,8.589541935787943e-05,1,3,1,2.5,304.9857135499944,None,302.92777899999055,303.23583649999637,303.9433374999935,304.27131019999797,304.95065509999404,305.25014910000027,right,1,2.4010392999916803,302.9861923999997,None,None,None,,,,,,,quicsb,001,0,fr,2022-07-21_15h45.36.707,3-AFC_adaptive_staircase_mess,2022.1.1,30.73114306389485,
,,,,,1,0,1,0,17,0,17,0,,,,,,,,,,,,,,,,up,1500,0.0,4.830254394949071e-05,-1,4,-1,-5.0,307.889861049992,None,306.82908779999707,307.14226169999165,307.8276154999912,308.15528949999134,308.8302304999961,309.1456501999928,left,0,3.259401400006027,306.8886235999962,None,309.3855530000001,None,,,,,,,quicsb,001,0,fr,2022-07-21_15h45.36.707,3-AFC_adaptive_staircase_mess,2022.1.1,30.73114306389485,
,,,,,1,0,1,0,18,0,18,0,,,,,,,,,,,,,,,,left,1500,2.5,6.441247758465671e-05,1,5,1,2.5,311.67228334999817,311.8975856999896,311.6090874999936,311.9292104999913,312.6109550999972,312.9150263999909,313.61473759998626,313.9157787000004,left,1,2.9893756000092253,311.66906559999916,None,314.15698399998655,None,,,,,,,quicsb,001,0,fr,2022-07-21_15h45.36.707,3-AFC_adaptive_staircase_mess,2022.1.1,30.73114306389485,
,,,,,1,0,1,0,19,0,19,0,,,,,,,,,,,,,,,,up,1500,2.5,6.441247758465671e-05,1,5,1,2.5,317.2191066499974,317.4328783999954,316.14236329999403,316.44642889998795,317.15088669999386,317.46581689998857,None,None,up,1,1.6258312000136357,316.2017898999911,None,None,None,,,,,,,quicsb,001,0,fr,2022-07-21_15h45.36.707,3-AFC_adaptive_staircase_mess,2022.1.1,30.73114306389485,
,,,,,1,0,1,0,20,0,20,0,,,,,,,,,,,,,,,,left,1500,-2.5,3.622179800374953e-05,-1,6,-1,-5.0,319.3886214499973,319.5985750999971,319.3212375000003,319.63089819999004,320.3180274999904,320.62309119998827,321.33028099998774,321.64248319999024,left,1,3.0567316000087885,319.38649149998673,None,321.88518789999944,None,,,,,,,quicsb,001,0,fr,2022-07-21_15h45.36.707,3-AFC_adaptive_staircase_mess,2022.1.1,30.73114306389485,
,,,,,2,0,2,0,0,0,0,0,,,,,,,,,,,,,[],[],10,right,2000,30,0.0023657562948074026,0,0,1,10,327.440288349989,327.6513819999964,325.3951445999992,325.7134182999871,326.402986599991,326.70997279998846,327.4052298999886,327.71223349998763,up,0,2.4056678999913856,325.4611839999998,None,None,None,space,1.40217329999723,323.5292394999997,None,323.5292394999997,None,quicsb,001,0,fr,2022-07-21_15h45.36.707,3-AFC_adaptive_staircase_mess,2022.1.1,30.73114306389485,
,,,,,2,0,2,0,1,0,1,0,,,,,,,,,,,,,,,,left,2000,40,0.007481178280472167,1,0,1,10,329.377553549991,None,329.34249509999063,None,None,None,None,None,right,0,-1.4629138999880524,329.37762400000065,None,None,None,,,,,,,quicsb,001,0,fr,2022-07-21_15h45.36.707,3-AFC_adaptive_staircase_mess,2022.1.1,30.73114306389485,
,,,,,2,0,2,0,2,0,2,0,,,,,,,,,,,,,,,,right,2000,50,0.02365756294807403,1,0,1,10,332.8919313499966,None,330.8470527999889,331.14332730000024,331.85450049999054,332.1769523999974,332.82906959998945,333.15830329999153,right,1,2.3564914999878965,330.8783512999944,None,None,None,,,,,,,quicsb,001,0,fr,2022-07-21_15h45.36.707,3-AFC_adaptive_staircase_mess,2022.1.1,30.73114306389485,
,,,,,2,0,2,0,3,0,3,0,,,,,,,,,,,,,,,,up,2000,50,0.02365756294807403,1,0,1,10,335.75253474999334,None,334.71578549999685,335.01287149998825,335.717476299993,336.0176500999951,None,None,up,1,1.7393374999955995,334.75167299999157,None,None,None,,,,,,,quicsb,001,0,fr,2022-07-21_15h45.36.707,3-AFC_adaptive_staircase_mess,2022.1.1,30.73114306389485,
,,,,,2,0,2,0,4,0,4,0,,,,,,,,,,,,,,,,right,2000,30,0.0023657562948074026,-1,1,-1,-10,339.9935207499977,None,337.95400979999977,338.2772621999902,338.9494632999995,339.2558308000007,339.95846229999734,340.2576488999912,right,1,2.3073597000038717,337.9844713999919,None,None,None,,,,,,,quicsb,001,0,fr,2022-07-21_15h45.36.707,3-AFC_adaptive_staircase_mess,2022.1.1,30.73114306389485,
,,,,,2,0,2,0,5,0,5,0,,,,,,,,,,,,,,,,right,2000,30,0.0023657562948074026,-1,1,-1,-10,343.82868914999125,344.0370788,341.80454749999626,342.1191647999949,342.78816469998856,343.0898496999871,343.7936306999909,344.0979478999943,right,1,2.2636841000057757,341.8358084999927,None,None,None,,,,,,,quicsb,001,0,fr,2022-07-21_15h45.36.707,3-AFC_adaptive_staircase_mess,2022.1.1,30.73114306389485,
,,,,,2,0,2,0,6,0,6,0,,,,,,,,,,,,,,,,right,2000,20,0.0007481178280472167,-1,1,-1,-10,347.63284904999017,347.8443019999977,345.58645219999016,345.88864629999443,346.5939728999947,346.89786469998944,347.5977905999898,347.90479389998654,right,1,2.2417476999980863,345.6578068999952,None,None,None,,,,,,,quicsb,001,0,fr,2022-07-21_15h45.36.707,3-AFC_adaptive_staircase_mess,2022.1.1,30.73114306389485,
,,,,,2,0,2,0,7,0,7,0,,,,,,,,,,,,,,,,right,2000,20,0.0007481178280472167,-1,1,-1,-10,351.43359544998674,351.64396759998635,349.36607319999894,349.66190559999086,350.36715989999357,350.6627177999908,351.3625594999903,351.6723220999993,right,1,2.2624149000039324,349.42937739999616,None,None,None,,,,,,,quicsb,001,0,fr,2022-07-21_15h45.36.707,3-AFC_adaptive_staircase_mess,2022.1.1,30.73114306389485,
,,,,,2,0,2,0,8,0,8,0,,,,,,,,,,,,,,,,right,2000,10,0.00023657562948074026,-1,1,-1,-10,355.2073570499953,None,353.1386271999945,353.43764009998995,354.15411089999543,354.4762112999888,355.1389782999904,355.4388265999878,right,1,2.2548858000081964,353.20483949998743,None,None,None,,,,,,,quicsb,001,0,fr,2022-07-21_15h45.36.707,3-AFC_adaptive_staircase_mess,2022.1.1,30.73114306389485,
,,,,,2,0,2,0,9,0,9,0,,,,,,,,,,,,,,,,left,2000,10,0.00023657562948074026,-1,1,-1,-10,357.0066676499875,None,356.9356700999924,357.24138909998874,357.9351025999931,358.23701689999143,358.93745079998916,359.23634949998814,left,1,3.2121180999965873,357.0083186999982,None,359.504528999998,None,,,,,,,quicsb,001,0,fr,2022-07-21_15h45.36.707,3-AFC_adaptive_staircase_mess,2022.1.1,30.73114306389485,
,,,,,2,0,2,0,10,0,10,0,,,,,,,,,,,,,,,,right,2000,0,7.481178280472168e-05,-1,1,-1,-10,363.7158286499936,None,361.67910259999917,361.97694589999446,362.6778711999941,362.9747920999944,363.6807701999933,363.982305499987,left,0,3.3966186000034213,361.71094529998663,None,364.21542169999157,None,,,,,,,quicsb,001,0,fr,2022-07-21_15h45.36.707,3-AFC_adaptive_staircase_mess,2022.1.1,30.73114306389485,
,,,,,2,0,2,0,11,0,11,0,,,,,,,,,,,,,,,,right,2000,5,0.0001330362529899405,1,2,1,2.5,368.62251764998945,368.8344141999987,366.5848085999896,366.89450289998786,367.591520499991,367.8995670000004,368.5874591999891,368.89694849999796,right,1,2.2971424000133993,366.6500906000001,None,None,None,,,,,,,quicsb,001,0,fr,2022-07-21_15h45.36.707,3-AFC_adaptive_staircase_mess,2022.1.1,30.73114306389485,
,,,,,2,0,2,0,12,0,12,0,,,,,,,,,,,,,,,,up,2000,5,0.0001330362529899405,1,2,1,2.5,371.4877073499985,None,370.417263299998,370.71623809999437,371.4161851999961,371.722775199989,None,None,up,1,1.6176999000017531,370.48959639998793,None,None,None,,,,,,,quicsb,001,0,fr,2022-07-21_15h45.36.707,3-AFC_adaptive_staircase_mess,2022.1.1,30.73114306389485,
,,,,,2,0,2,0,13,0,13,0,,,,,,,,,,,,,,,,up,2000,0.0,7.481178280472168e-05,-1,3,-1,-5.0,374.62363764999026,374.83941409998806,373.589058499987,373.8886643000005,374.5885791999899,374.90584009999293,375.59371829999145,375.92062499999884,left,0,3.330889999997453,373.6245695999969,None,376.124926199991,None,,,,,,,quicsb,001,0,fr,2022-07-21_15h45.36.707,3-AFC_adaptive_staircase_mess,2022.1.1,30.73114306389485,
,,,,,2,0,2,0,14,0,14,0,,,,,,,,,,,,,,,,right,2000,2.5,9.976311574844399e-05,1,4,1,2.5,380.50066344999067,380.70765669998946,378.4617364999867,378.7608825999923,379.4601280999923,379.75869629999215,380.4656049999903,380.7724353999947,right,1,2.37445149999985,378.4927384999901,None,None,None,,,,,,,quicsb,001,0,fr,2022-07-21_15h45.36.707,3-AFC_adaptive_staircase_mess,2022.1.1,30.73114306389485,
,,,,,2,0,2,0,15,0,15,0,,,,,,,,,,,,,,,,up,2000,2.5,9.976311574844399e-05,1,4,1,2.5,383.3911051499919,383.6011249999865,382.34890959999757,382.6679492999974,383.3221401999908,383.63113299998804,None,None,left,0,1.5280208000040147,382.38000089999696,None,None,None,,,,,,,quicsb,001,0,fr,2022-07-21_15h45.36.707,3-AFC_adaptive_staircase_mess,2022.1.1,30.73114306389485,
,,,,,2,0,2,0,16,0,16,0,,,,,,,,,,,,,,,,left,2000,5.0,0.0001330362529899405,1,4,1,2.5,385.46173654999,None,385.3910765999899,None,None,None,None,None,up,0,-1.5287304999947082,385.4604782999959,None,None,None,,,,,,,quicsb,001,0,fr,2022-07-21_15h45.36.707,3-AFC_adaptive_staircase_mess,2022.1.1,30.73114306389485,
,,,,,2,0,2,0,17,0,17,0,,,,,,,,,,,,,,,,left,2000,7.5,0.00017740669461678777,1,4,1,2.5,386.9921309499943,387.20644699998957,386.924093499998,387.2383155999996,None,None,None,None,left,1,0.5943218000029447,386.9925790999987,None,None,None,,,,,,,quicsb,001,0,fr,2022-07-21_15h45.36.707,3-AFC_adaptive_staircase_mess,2022.1.1,30.73114306389485,
,,,,,2,0,2,0,18,0,18,0,,,,,,,,,,,,,,,,left,2000,7.5,0.00017740669461678777,1,4,1,2.5,389.09425574999767,389.3058238999947,389.0591972999973,389.3715000999946,None,None,None,None,left,1,0.4135027000011178,389.09503459998814,None,None,None,,,,,,,quicsb,001,0,fr,2022-07-21_15h45.36.707,3-AFC_adaptive_staircase_mess,2022.1.1,30.73114306389485,
,,,,,2,0,2,0,19,0,19,0,,,,,,,,,,,,,,,,up,2000,2.5,9.976311574844399e-05,-1,5,-1,-5.0,392.0344642499869,392.24340069999744,391.00012559999595,391.3266520999896,391.99940579998656,392.3044516999944,None,None,up,1,1.466522900009295,391.0324605999922,None,None,None,,,,,,,quicsb,001,0,fr,2022-07-21_15h45.36.707,3-AFC_adaptive_staircase_mess,2022.1.1,30.73114306389485,
,,,,,2,0,2,0,20,0,20,0,,,,,,,,,,,,,,,,right,2000,2.5,9.976311574844399e-05,-1,5,-1,-5.0,396.016692649998,396.2299532999896,393.97720789999585,394.27911909999966,394.97834879999573,395.28096919998643,395.98163419999764,396.29447199999413,right,1,2.4187386999983573,394.0080924999929,None,None,None,,,,,,,quicsb,001,0,fr,2022-07-21_15h45.36.707,3-AFC_adaptive_staircase_mess,2022.1.1,30.73114306389485,
,,,,,2,0,2,0,21,0,21,0,,,,,,,,,,,,,,,,left,2000,-2.5,5.610092271509818e-05,-1,5,-1,-5.0,397.97009534998796,398.18296209999244,397.90276709999307,398.2117770999903,398.90083539999614,399.2158930000005,399.9016242999933,400.21513579999737,left,1,3.3132144000119297,397.9700596999901,None,400.47909169999184,None,,,,,,,quicsb,001,0,fr,2022-07-21_15h45.36.707,3-AFC_adaptive_staircase_mess,2022.1.1,30.73114306389485,
,,,,,2,0,2,0,22,0,22,0,,,,,,,,,,,,,,,,up,2000,-2.5,5.610092271509818e-05,-1,5,-1,-5.0,403.8011015499971,404.0044549999875,402.74324139999226,403.0394333999866,403.76604309999675,404.0655826000002,404.7658528999891,405.08709709999675,left,0,3.018491900002118,402.7770260999969,None,405.2864523999888,None,,,,,,,quicsb,001,0,fr,2022-07-21_15h45.36.707,3-AFC_adaptive_staircase_mess,2022.1.1,30.73114306389485,
,,,,,2,0,2,0,23,0,23,0,,,,,,,,,,,,,,,,left,2000,0.0,7.481178280472168e-05,1,6,1,2.5,407.3223215499922,407.53653199999826,407.2523470999877,407.56849949999014,408.255717299995,408.5569061999995,409.2523297000007,409.5751459999883,left,1,2.364296200001263,407.3195323999971,None,None,None,,,,,,,quicsb,001,0,fr,2022-07-21_15h45.36.707,3-AFC_adaptive_staircase_mess,2022.1.1,30.73114306389485,
,,,,,3,0,3,0,0,0,0,0,,,,,,,,,,,,,[],[],10,up,3000,30,0.001733684252262658,0,0,-1,10,413.16404074999735,413.3766273999936,412.1100047999935,412.4292546999932,413.09892409999156,413.4090334999928,None,None,up,1,1.429671200006851,412.1440170999995,None,None,None,left,0.8670391000050586,410.777119099992,None,410.777119099992,None,quicsb,001,0,fr,2022-07-21_15h45.36.707,3-AFC_adaptive_staircase_mess,2022.1.1,30.73114306389485,
,,,,,3,0,3,0,1,0,1,0,,,,,,,,,,,,,,,,right,3000,30,0.001733684252262658,0,0,-1,10,417.109349249996,None,415.063868799989,415.3616212999914,416.0600851999916,416.38053349999245,417.07429079999565,417.40087819998735,right,1,2.2723937000118895,415.13028679999115,None,None,None,,,,,,,quicsb,001,0,fr,2022-07-21_15h45.36.707,3-AFC_adaptive_staircase_mess,2022.1.1,30.73114306389485,
,,,,,3,0,3,0,2,0,2,0,,,,,,,,,,,,,,,,right,3000,10,0.00017336842522626576,-1,0,-1,-10,420.9416524500004,None,418.8831210999924,419.2032833999983,419.89968459999363,420.2172835999954,420.8755344999954,421.2022505999921,right,1,2.3537962999980664,418.91430659999605,None,None,None,,,,,,,quicsb,001,0,fr,2022-07-21_15h45.36.707,3-AFC_adaptive_staircase_mess,2022.1.1,30.73114306389485,
,,,,,3,0,3,0,3,0,3,0,,,,,,,,,,,,,,,,up,3000,10,0.00017336842522626576,-1,0,-1,-10,423.7763043499901,423.9813387999893,422.7230997000006,423.0483736999886,423.70949959999416,424.0118808999978,None,None,up,1,1.3442834000015864,422.79463509999914,None,None,None,,,,,,,quicsb,001,0,fr,2022-07-21_15h45.36.707,3-AFC_adaptive_staircase_mess,2022.1.1,30.73114306389485,
,,,,,3,0,3,0,4,0,4,0,,,,,,,,,,,,,,,,left,3000,0,5.482390980715923e-05,-1,0,-1,-10,425.65539264999387,None,425.58867779999855,425.90982309999526,426.5935945999954,426.8917366999958,427.6090627999947,427.9074152999965,right,0,3.2310241000086535,425.6517894999997,None,428.17147619999014,None,,,,,,,quicsb,001,0,fr,2022-07-21_15h45.36.707,3-AFC_adaptive_staircase_mess,2022.1.1,30.73114306389485,
,,,,,3,0,3,0,5,0,5,0,,,,,,,,,,,,,,,,up,3000,5,9.749222998790222e-05,1,1,1,5,None,None,430.32863579998957,None,None,None,None,None,left,0,-1.4298679000057746,430.4029160999926,None,None,None,,,,,,,quicsb,001,0,fr,2022-07-21_15h45.36.707,3-AFC_adaptive_staircase_mess,2022.1.1,30.73114306389485,
,,,,,3,0,3,0,6,0,6,0,,,,,,,,,,,,,,,,right,3000,10,0.00017336842522626576,1,1,1,5,433.90441424999443,434.11445969999477,431.8627764999983,432.19994769999175,432.8719650999992,433.16948639998736,433.8693557999941,434.18005640000047,right,1,2.3898060000065016,431.9173263999983,None,None,None,,,,,,,quicsb,001,0,fr,2022-07-21_15h45.36.707,3-AFC_adaptive_staircase_mess,2022.1.1,30.73114306389485,
,,,,,3,0,3,0,7,0,7,0,,,,,,,,,,,,,,,,right,3000,10,0.00017336842522626576,1,1,1,5,437.8147384499927,None,435.7563276999863,436.0691657999996,436.77232119999826,437.0758991999901,437.77967999999237,438.07783859998744,right,1,2.309935700002825,435.821185599998,None,None,None,,,,,,,quicsb,001,0,fr,2022-07-21_15h45.36.707,3-AFC_adaptive_staircase_mess,2022.1.1,30.73114306389485,
,,,,,3,0,3,0,8,0,8,0,,,,,,,,,,,,,,,,right,3000,0,5.482390980715923e-05,-1,2,-1,-5.0,441.64363784999586,441.8568520999979,439.6070359999867,439.9060114999884,440.6057831999933,440.9074957999983,441.6085793999955,441.92385969999305,left,0,3.1370873999985633,439.6745235999988,None,442.14668599999277,None,,,,,,,quicsb,001,0,fr,2022-07-21_15h45.36.707,3-AFC_adaptive_staircase_mess,2022.1.1,30.73114306389485,
,,,,,3,0,3,0,9,0,9,0,,,,,,,,,,,,,,,,left,3000,2.5,7.310885872283589e-05,1,3,1,2.5,444.32045144999864,None,444.2853929999983,444.58516309999686,445.2813210999884,445.58470939999097,446.28203219998977,446.5818620999926,left,1,3.1165733999951044,444.318952799993,None,446.8207465999876,None,,,,,,,quicsb,001,0,fr,2022-07-21_15h45.36.707,3-AFC_adaptive_staircase_mess,2022.1.1,30.73114306389485,
,,,,,3,0,3,0,10,0,10,0,,,,,,,,,,,,,,,,left,3000,2.5,7.310885872283589e-05,1,3,1,2.5,448.9877512499981,449.19755169999553,448.95269279999775,449.2598181999929,449.9374072999926,450.23679029999766,450.9212535999977,451.2516992999881,left,1,3.0876512999966508,448.9884774999955,None,451.4917718999932,None,,,,,,,quicsb,001,0,fr,2022-07-21_15h45.36.707,3-AFC_adaptive_staircase_mess,2022.1.1,30.73114306389485,
,,,,,3,0,3,0,11,0,11,0,,,,,,,,,,,,,,,,left,3000,-2.5,4.1112132497353565e-05,-1,4,-1,-5.0,453.59354454999556,453.8081026,453.5584860999952,453.86991179999313,454.55960519998916,454.8557110999973,455.56395079998765,455.8620140999992,left,1,2.8326904000132345,453.5943308999995,None,456.0941804999893,None,,,,,,,quicsb,001,0,fr,2022-07-21_15h45.36.707,3-AFC_adaptive_staircase_mess,2022.1.1,30.73114306389485,
,,,,,3,0,3,0,12,0,12,0,,,,,,,,,,,,,,,,up,3000,-2.5,4.1112132497353565e-05,-1,4,-1,-5.0,458.9369633499911,459.1665890999866,457.8931894999987,458.1947228999925,458.90190489999077,459.199008999989,459.8947571999888,460.19406439999875,left,0,3.1476613999984693,457.9596331999928,None,460.46364509999694,None,,,,,,,quicsb,001,0,fr,2022-07-21_15h45.36.707,3-AFC_adaptive_staircase_mess,2022.1.1,30.73114306389485,
,,,,,3,0,3,0,13,0,13,0,,,,,,,,,,,,,,,,left,3000,0.0,5.482390980715923e-05,1,5,1,2.5,462.60121064998674,462.8080084999965,462.5661521999864,462.8718902999972,463.5651254999975,463.86728709998715,464.5663169999898,464.8711659999972,left,1,3.073945399999502,462.60200599998643,None,465.10321829999157,None,,,,,,,quicsb,001,0,fr,2022-07-21_15h45.36.707,3-AFC_adaptive_staircase_mess,2022.1.1,30.73114306389485,
,,,,,3,0,3,0,14,0,14,0,,,,,,,,,,,,,,,,left,3000,0.0,5.482390980715923e-05,1,5,1,2.5,467.210164649997,None,467.13985519998823,467.4416123999981,468.14141529999324,468.43988429999445,469.141292699991,469.4427689000004,left,1,2.723163699993165,467.20827499999723,None,469.71054719999665,None,,,,,,,quicsb,001,0,fr,2022-07-21_15h45.36.707,3-AFC_adaptive_staircase_mess,2022.1.1,30.73114306389485,
,,,,,3,0,3,0,15,0,15,0,,,,,,,,,,,,,,,,left,3000,-5.0,3.082975009307411e-05,-1,6,-1,-5.0,471.47742474999103,471.69145639998897,471.408339799993,471.71030219999375,472.4092149999924,472.74132189998636,473.41225109998777,473.7144172999979,right,0,2.418591200010269,471.47283369999786,None,473.94964845000067,None,,,,,,,quicsb,001,0,fr,2022-07-21_15h45.36.707,3-AFC_adaptive_staircase_mess,2022.1.1,30.73114306389485,
,,,,,4,0,4,0,0,0,0,0,,,,,,,,,,,,,[],[],10,right,4000,30,0.0026544222211549416,0,0,-1,10,478.6524425499985,478.86157609999646,476.5782107999985,476.8792870999896,477.5831862999912,477.88611009999295,478.58383169998706,478.8905218,right,1,2.3225556000106735,476.6485365999979,None,None,None,left,1.1573112000041874,474.98181439998734,None,474.98181439998734,None,quicsb,001,0,fr,2022-07-21_15h45.36.707,3-AFC_adaptive_staircase_mess,2022.1.1,30.73114306389485,
,,,,,4,0,4,0,1,0,1,0,,,,,,,,,,,,,,,,right,4000,30,0.0026544222211549416,0,0,-1,10,482.4923582499934,None,480.456133899992,480.78781409999647,481.44985749998887,481.7513164999982,482.45729979999305,482.7601369999902,right,1,2.2098602000041865,480.5216589999909,None,None,None,,,,,,,quicsb,001,0,fr,2022-07-21_15h45.36.707,3-AFC_adaptive_staircase_mess,2022.1.1,30.73114306389485,
,,,,,4,0,4,0,2,0,2,0,,,,,,,,,,,,,,,,up,4000,10,0.00026544222211549425,-1,0,-1,-10,485.26190964998676,None,484.2233467999904,484.52511059999233,485.2268511999864,485.52897629998915,None,None,up,1,1.4408089999924414,484.2588235000003,None,None,None,,,,,,,quicsb,001,0,fr,2022-07-21_15h45.36.707,3-AFC_adaptive_staircase_mess,2022.1.1,30.73114306389485,
,,,,,4,0,4,0,3,0,3,0,,,,,,,,,,,,,,,,left,4000,10,0.00026544222211549425,-1,0,-1,-10,487.2302120499982,487.44145749999734,487.19515359999787,487.5014496999938,None,None,None,None,left,1,0.3928366000036476,487.2265239999979,None,None,None,,,,,,,quicsb,001,0,fr,2022-07-21_15h45.36.707,3-AFC_adaptive_staircase_mess,2022.1.1,30.73114306389485,
,,,,,4,0,4,0,4,0,4,0,,,,,,,,,,,,,,,,up,4000,0,8.394020090612804e-05,-1,0,-1,-10,490.13119044999183,None,489.09783759999846,489.3974151000002,490.0961319999915,490.3970394999924,None,None,up,1,1.5050398000021232,489.13094009998895,None,None,None,,,,,,,quicsb,001,0,fr,2022-07-21_15h45.36.707,3-AFC_adaptive_staircase_mess,2022.1.1,30.73114306389485,
,,,,,4,0,4,0,5,0,5,0,,,,,,,,,,,,,,,,up,4000,0,8.394020090612804e-05,-1,0,-1,-10,493.2048022499977,493.4132060999982,492.1344109999918,492.46525529999053,493.13272709999,493.44398949999595,None,None,up,1,1.389491599999019,492.1987087999878,None,None,None,,,,,,,quicsb,001,0,fr,2022-07-21_15h45.36.707,3-AFC_adaptive_staircase_mess,2022.1.1,30.73114306389485,
,,,,,4,0,4,0,6,0,6,0,,,,,,,,,,,,,,,,right,4000,-10,2.6544222211549425e-05,-1,0,-1,-10,497.1152233499917,None,495.0663806999946,495.3683416999993,496.06958149999264,496.3668747999909,497.08016489999136,497.37926159999915,left,0,3.2297461000125622,495.1016290999978,None,497.60343259999354,None,,,,,,,quicsb,001,0,fr,2022-07-21_15h45.36.707,3-AFC_adaptive_staircase_mess,2022.1.1,30.73114306389485,
,,,,,4,0,4,0,7,0,7,0,,,,,,,,,,,,,,,,up,4000,-5,4.720304381429618e-05,1,1,1,5,500.84370204998703,501.05884459998924,499.80184249999,500.10511239999323,500.8086435999867,501.1224766999949,501.80763809999917,502.1092527999863,left,0,3.7594188999937614,499.8758289999969,None,502.38092809999944,None,,,,,,,quicsb,001,0,fr,2022-07-21_15h45.36.707,3-AFC_adaptive_staircase_mess,2022.1.1,30.73114306389485,
,,,,,4,0,4,0,8,0,8,0,,,,,,,,,,,,,,,,left,4000,0,8.394020090612804e-05,1,1,1,5,505.18890524999296,505.39686339999025,505.1210563999921,505.424818399988,None,None,None,None,left,1,0.6558468000002904,505.1878100999893,None,None,None,,,,,,,quicsb,001,0,fr,2022-07-21_15h45.36.707,3-AFC_adaptive_staircase_mess,2022.1.1,30.73114306389485,
,,,,,4,0,4,0,9,0,9,0,,,,,,,,,,,,,,,,right,4000,0,8.394020090612804e-05,1,1,1,5,509.354995149991,None,507.3106603999913,507.61281889998645,508.31889129999036,508.64580879999266,509.31993669999065,509.62462159999995,right,1,2.3928610000002664,507.37809389999893,None,None,None,,,,,,,quicsb,001,0,fr,2022-07-21_15h45.36.707,3-AFC_adaptive_staircase_mess,2022.1.1,30.73114306389485,
,,,,,4,0,4,0,10,0,10,0,,,,,,,,,,,,,,,,left,4000,-10,2.6544222211549425e-05,-1,2,-1,-5.0,511.31493974999756,511.5295333999966,511.2483680999867,511.56018369999947,512.250875999991,512.5642536999949,513.2548574999964,513.5878398999921,right,0,14.791622200005804,511.3156392999954,None,513.821378099994,None,,,,,,,quicsb,001,0,fr,2022-07-21_15h45.36.707,3-AFC_adaptive_staircase_mess,2022.1.1,30.73114306389485,
,,,,,4,0,4,0,11,0,11,0,,,,,,,,,,,,,,,,left,4000,-7.5,3.53972892192069e-05,1,3,1,2.5,527.6389750499977,None,527.56791659999,527.868742199993,528.5681177999941,528.8685947999911,529.5731471999898,529.899105199991,left,1,3.0949181000032695,527.6363652,None,530.1083262999891,None,,,,,,,quicsb,001,0,fr,2022-07-21_15h45.36.707,3-AFC_adaptive_staircase_mess,2022.1.1,30.73114306389485,
,,,,,4,0,4,0,12,0,12,0,,,,,,,,,,,,,,,,right,4000,-7.5,3.53972892192069e-05,1,3,1,2.5,534.2777871499886,None,532.2062848999922,532.5066189999925,533.2066797000007,533.5050000999909,534.2064933999936,534.50943369999,right,1,2.505878300013137,532.2737773999979,None,534.7465964000003,None,,,,,,,quicsb,001,0,fr,2022-07-21_15h45.36.707,3-AFC_adaptive_staircase_mess,2022.1.1,30.73114306389485,
,,,,,4,0,4,0,13,0,13,0,,,,,,,,,,,,,,,,left,4000,-12.5,1.9905358527674868e-05,-1,4,-1,-5.0,536.3159690499917,536.5281511999929,536.2482788999914,536.5570099999895,537.2462121999997,537.5468793999898,538.2518822999991,538.5501996999956,left,1,3.2407391000015195,536.3146947999921,None,538.8179297999886,None,,,,,,,quicsb,001,0,fr,2022-07-21_15h45.36.707,3-AFC_adaptive_staircase_mess,2022.1.1,30.73114306389485,
,,,,,4,0,4,0,14,0,14,0,,,,,,,,,,,,,,,,right,4000,-12.5,1.9905358527674868e-05,-1,4,-1,-5.0,543.0550806499989,543.2635206999985,541.0120481999911,541.3157907999994,542.0187683999975,542.3159758999973,543.0200221999985,543.3237697000004,left,0,2.9467576000024565,541.0805553999962,None,543.5533222999948,None,,,,,,,quicsb,001,0,fr,2022-07-21_15h45.36.707,3-AFC_adaptive_staircase_mess,2022.1.1,30.73114306389485,
,,,,,4,0,4,0,15,0,15,0,,,,,,,,,,,,,,,,left,4000,-10.0,2.6544222211549425e-05,1,5,1,2.5,545.5536041499902,None,545.4827628999919,545.7902495999879,546.486564699997,546.7944862000004,547.4905037999997,547.8276402999909,left,1,3.0171107000060147,545.5537864999933,None,548.0253008,None,,,,,,,quicsb,001,0,fr,2022-07-21_15h45.36.707,3-AFC_adaptive_staircase_mess,2022.1.1,30.73114306389485,
,,,,,4,0,4,0,16,0,16,0,,,,,,,,,,,,,,,,left,4000,-10.0,2.6544222211549425e-05,1,5,1,2.5,550.0943875499972,550.3049237999949,550.0284193999978,550.3370591999992,551.0572841999965,551.3586180999991,552.0585326999862,552.3661480999872,left,1,2.8808614000008674,550.0903513999947,None,552.5928432999935,None,,,,,,,quicsb,001,0,fr,2022-07-21_15h45.36.707,3-AFC_adaptive_staircase_mess,2022.1.1,30.73114306389485,
,,,,,4,0,4,0,17,0,17,0,,,,,,,,,,,,,,,,up,4000,-15.0,1.4926913094589802e-05,-1,6,-1,-5.0,555.4974672499986,555.7086201999919,554.428892099997,554.7296277999994,555.426450599989,555.7378037999879,556.4340296999871,556.7327385999961,left,0,2.883370900002774,554.4958731999941,None,557.0004477999901,None,,,,,,,quicsb,001,0,fr,2022-07-21_15h45.36.707,3-AFC_adaptive_staircase_mess,2022.1.1,30.73114306389485,
,,,,,5,0,5,0,0,0,0,0,,,,,,,,,,,,,[],[],10,left,6000,30,0.003664122665694519,0,0,-1,10,561.0419373499928,561.249591499989,561.0068788999924,561.3102136999951,None,None,None,None,left,1,0.5698209999973187,561.0417880999885,None,None,None,space,2.051030200003879,558.4724612999998,None,558.4724612999998,None,quicsb,001,0,fr,2022-07-21_15h45.36.707,3-AFC_adaptive_staircase_mess,2022.1.1,30.73114306389485,
,,,,,5,0,5,0,1,0,1,0,,,,,,,,,,,,,,,,left,6000,30,0.003664122665694519,0,0,-1,10,563.1777249499894,None,563.1067114999896,563.4085296999983,None,None,None,None,left,1,0.5088206000073114,563.1743067999923,None,None,None,,,,,,,quicsb,001,0,fr,2022-07-21_15h45.36.707,3-AFC_adaptive_staircase_mess,2022.1.1,30.73114306389485,
,,,,,5,0,5,0,2,0,2,0,,,,,,,,,,,,,,,,right,6000,10,0.00036641226656945183,-1,0,-1,-10,567.2447055499972,None,565.176072199989,565.4762588999874,566.1779313999868,566.4737955999881,567.1782791000005,567.5137499999983,right,1,2.357141100001172,565.2381125999964,None,None,None,,,,,,,quicsb,001,0,fr,2022-07-21_15h45.36.707,3-AFC_adaptive_staircase_mess,2022.1.1,30.73114306389485,
,,,,,5,0,5,0,3,0,3,0,,,,,,,,,,,,,,,,left,6000,10,0.00036641226656945183,-1,0,-1,-10,569.1168446499971,None,569.0486176999984,569.3820515999978,None,None,None,None,left,1,0.43132109999714885,569.1155843999877,None,None,None,,,,,,,quicsb,001,0,fr,2022-07-21_15h45.36.707,3-AFC_adaptive_staircase_mess,2022.1.1,30.73114306389485,
,,,,,5,0,5,0,4,0,4,0,,,,,,,,,,,,,,,,right,6000,0,0.00011586973249842387,-1,0,-1,-10,573.1214125500003,None,571.0512610000005,571.3511258999933,572.0468021999986,572.3450502999913,573.0516556999937,573.3538936999976,right,1,2.3151692999963416,571.120281999989,None,None,None,,,,,,,quicsb,001,0,fr,2022-07-21_15h45.36.707,3-AFC_adaptive_staircase_mess,2022.1.1,30.73114306389485,
,,,,,5,0,5,0,5,0,5,0,,,,,,,,,,,,,,,,left,6000,0,0.00011586973249842387,-1,0,-1,-10,574.9872327499936,None,574.9211997999955,575.2543548999965,None,None,None,None,left,1,0.36418760000378825,574.9832948999974,None,None,None,,,,,,,quicsb,001,0,fr,2022-07-21_15h45.36.707,3-AFC_adaptive_staircase_mess,2022.1.1,30.73114306389485,
,,,,,5,0,5,0,6,0,6,0,,,,,,,,,,,,,,,,up,6000,-10,3.664122665694518e-05,-1,0,-1,-10,577.8561932499899,578.0703954999917,576.8205435999989,577.1212710999971,577.8211347999895,578.1305020999862,578.8228409999865,579.1245485999971,left,0,3.4645274999929825,576.8517577999883,None,579.3561837999878,None,,,,,,,quicsb,001,0,fr,2022-07-21_15h45.36.707,3-AFC_adaptive_staircase_mess,2022.1.1,30.73114306389485,
,,,,,5,0,5,0,7,0,7,0,,,,,,,,,,,,,,,,up,6000,-5,6.515833892261494e-05,1,1,1,5,582.8664858500008,None,581.7964558999956,582.0932573999889,582.7939384999918,583.1337510999874,None,None,left,0,1.5648187000042526,581.8623652999959,None,None,None,,,,,,,quicsb,001,0,fr,2022-07-21_15h45.36.707,3-AFC_adaptive_staircase_mess,2022.1.1,30.73114306389485,
,,,,,5,0,5,0,8,0,8,0,,,,,,,,,,,,,,,,left,6000,0,0.00011586973249842387,1,1,1,5,584.9971979499999,None,584.9314754999941,None,None,None,None,None,up,0,-1.5252039000042714,584.9921101999935,None,None,None,,,,,,,quicsb,001,0,fr,2022-07-21_15h45.36.707,3-AFC_adaptive_staircase_mess,2022.1.1,30.73114306389485,
,,,,,5,0,5,0,9,0,9,0,,,,,,,,,,,,,,,,left,6000,5,0.000206048759548665,1,1,1,5,586.533350749992,586.7466839999979,586.4670079999923,586.7746492000006,None,None,None,None,left,1,0.4104263000044739,586.5288669000001,None,None,None,,,,,,,quicsb,001,0,fr,2022-07-21_15h45.36.707,3-AFC_adaptive_staircase_mess,2022.1.1,30.73114306389485,
,,,,,5,0,5,0,10,0,10,0,,,,,,,,,,,,,,,,up,6000,5,0.000206048759548665,1,1,1,5,589.4661028500007,589.6791730999976,588.4315846999962,588.7281775999872,589.4310444000002,589.7405928999942,None,None,up,1,1.3719683999952395,588.4628461999964,None,None,None,,,,,,,quicsb,001,0,fr,2022-07-21_15h45.36.707,3-AFC_adaptive_staircase_mess,2022.1.1,30.73114306389485,
,,,,,5,0,5,0,11,0,11,0,,,,,,,,,,,,,,,,up,6000,-5,6.515833892261494e-05,-1,2,-1,-5.0,592.3718694499869,592.5879457999981,591.3400985999906,591.6394398999983,592.3368109999865,592.653736399996,None,None,up,1,1.3676529000076698,591.3720213999914,None,None,None,,,,,,,quicsb,001,0,fr,2022-07-21_15h45.36.707,3-AFC_adaptive_staircase_mess,2022.1.1,30.73114306389485,
,,,,,5,0,5,0,12,0,12,0,,,,,,,,,,,,,,,,up,6000,-5,6.515833892261494e-05,-1,2,-1,-5.0,595.2824166499952,595.5012384000001,594.2068999999901,594.5085086999898,595.2113145999901,595.5343161999917,None,None,up,1,1.3157569999893894,594.2721427999932,None,None,None,,,,,,,quicsb,001,0,fr,2022-07-21_15h45.36.707,3-AFC_adaptive_staircase_mess,2022.1.1,30.73114306389485,
,,,,,5,0,5,0,13,0,13,0,,,,,,,,,,,,,,,,left,6000,-10.0,3.664122665694518e-05,-1,2,-1,-5.0,597.1299940499914,597.341551999998,597.0611115999927,597.3693662999867,598.0777967999893,598.4076827999961,599.0769016999984,599.379748899999,left,1,3.1805857000144897,597.1281415999983,None,599.6177573999885,None,,,,,,,quicsb,001,0,fr,2022-07-21_15h45.36.707,3-AFC_adaptive_staircase_mess,2022.1.1,30.73114306389485,
,,,,,5,0,5,0,14,0,14,0,,,,,,,,,,,,,,,,left,6000,-10.0,3.664122665694518e-05,-1,2,-1,-5.0,601.8166863499966,None,601.7816278999962,602.0816742999887,602.7840262999962,603.1143102999922,603.7845424999978,604.082929199998,left,1,3.1873143000120763,601.8163617999962,None,604.3181734999962,None,,,,,,,quicsb,001,0,fr,2022-07-21_15h45.36.707,3-AFC_adaptive_staircase_mess,2022.1.1,30.73114306389485,
,,,,,5,0,5,0,15,0,15,0,,,,,,,,,,,,,,,,left,6000,-15.0,2.0604875954866497e-05,-1,2,-1,-5.0,606.5221272499941,606.7341812999948,606.4519342999993,606.7623879999883,607.4486383999902,607.7502850999881,608.4558781999949,608.7857879999938,left,1,2.8694612000108464,606.5184219999937,None,609.0210317999881,None,,,,,,,quicsb,001,0,fr,2022-07-21_15h45.36.707,3-AFC_adaptive_staircase_mess,2022.1.1,30.73114306389485,
,,,,,5,0,5,0,16,0,16,0,,,,,,,,,,,,,,,,right,6000,-15.0,2.0604875954866497e-05,-1,2,-1,-5.0,612.9135450499919,613.1290936000005,610.8841441999975,611.1977022999927,611.883449099987,612.194998299994,612.8784865999914,613.1979679999931,left,0,2.5550528000021586,610.919970899995,None,613.4348558999918,None,,,,,,,quicsb,001,0,fr,2022-07-21_15h45.36.707,3-AFC_adaptive_staircase_mess,2022.1.1,30.73114306389485,
,,,,,5,0,5,0,17,0,17,0,,,,,,,,,,,,,,,,up,6000,-12.5,2.7477043692881217e-05,1,3,1,2.5,616.0281191499992,616.2454806999885,614.9932515999972,615.295987599995,615.9930606999988,616.3076162999932,616.9692117999948,617.2686809999868,left,0,3.038348299989593,615.029708099988,None,617.5384917999909,None,,,,,,,quicsb,001,0,fr,2022-07-21_15h45.36.707,3-AFC_adaptive_staircase_mess,2022.1.1,30.73114306389485,
,,,,,5,0,5,0,18,0,18,0,,,,,,,,,,,,,,,,up,6000,-10.0,3.664122665694518e-05,1,3,1,2.5,620.6041477499996,None,619.5471687999961,619.8640470999962,620.5690892999992,620.8697260999907,621.5650666999863,621.8658691999881,left,0,2.781120200001169,619.6066015999968,None,622.1043552999909,None,,,,,,,quicsb,001,0,fr,2022-07-21_15h45.36.707,3-AFC_adaptive_staircase_mess,2022.1.1,30.73114306389485,
,,,,,5,0,5,0,19,0,19,0,,,,,,,,,,,,,,,,right,6000,-7.5,4.886186104779051e-05,1,3,1,2.5,625.9376356499881,626.1537451999902,623.8683536999888,624.1733317999897,624.8687930999877,625.1690881999966,625.8695429999934,626.1841478999995,left,0,2.4472893999918597,623.9398201999866,None,626.436199549996,None,,,,,,,quicsb,001,0,fr,2022-07-21_15h45.36.707,3-AFC_adaptive_staircase_mess,2022.1.1,30.73114306389485,
,,,,,5,0,5,0,20,0,20,0,,,,,,,,,,,,,,,,up,6000,-5.0,6.515833892261494e-05,1,3,1,2.5,628.9105915499997,629.1223502999928,627.8682201999909,628.172545399997,628.8755330999993,629.1847613999998,None,None,left,0,1.5352123000047868,627.9405466999888,None,None,None,,,,,,,quicsb,001,0,fr,2022-07-21_15h45.36.707,3-AFC_adaptive_staircase_mess,2022.1.1,30.73114306389485,
,,,,,5,0,5,0,21,0,21,0,,,,,,,,,,,,,,,,left,6000,-2.5,8.689004143746872e-05,1,3,1,2.5,631.013256649999,631.2257215999998,630.941404799989,631.2614360999869,None,None,None,None,left,1,0.6760662000015145,631.01572879999,None,None,None,,,,,,,quicsb,001,0,fr,2022-07-21_15h45.36.707,3-AFC_adaptive_staircase_mess,2022.1.1,30.73114306389485,
,,,,,5,0,5,0,22,0,22,0,,,,,,,,,,,,,,,,right,6000,-2.5,8.689004143746872e-05,1,3,1,2.5,635.2170130499901,None,633.1786594000005,633.4794860999973,634.1809372999996,634.4783178999933,635.1819545999897,635.4871051999944,right,1,2.4093391000060365,633.2426317999925,None,635.714970749995,None,,,,,,,quicsb,001,0,fr,2022-07-21_15h45.36.707,3-AFC_adaptive_staircase_mess,2022.1.1,30.73114306389485,
,,,,,5,0,5,0,23,0,23,0,,,,,,,,,,,,,,,,right,6000,-7.5,4.886186104779051e-05,-1,4,-1,-5.0,639.183353949996,639.3970834999927,637.1474363999878,637.4512092999939,638.1508189999877,638.4494739999936,639.1482954999956,639.4580405999877,right,1,2.4240392000065185,637.2194650999882,None,639.6847092499986,None,,,,,,,quicsb,001,0,fr,2022-07-21_15h45.36.707,3-AFC_adaptive_staircase_mess,2022.1.1,30.73114306389485,
,,,,,5,0,5,0,24,0,24,0,,,,,,,,,,,,,,,,left,6000,-7.5,4.886186104779051e-05,-1,4,-1,-5.0,641.1846082500008,641.399811299998,641.1180496999878,641.4303549999895,None,None,None,None,left,1,0.5933340000046883,641.1854606999987,None,None,None,,,,,,,quicsb,001,0,fr,2022-07-21_15h45.36.707,3-AFC_adaptive_staircase_mess,2022.1.1,30.73114306389485,
,,,,,5,0,5,0,25,0,25,0,,,,,,,,,,,,,,,,up,6000,-12.5,2.7477043692881217e-05,-1,4,-1,-5.0,644.2871877499886,644.4945198999922,643.2210862999927,643.5272812999901,644.2194286999875,644.5228505999985,645.2381096999889,645.5632688999904,left,0,3.2378330000065034,643.294364299989,None,645.7955086000002,None,,,,,,,quicsb,001,0,fr,2022-07-21_15h45.36.707,3-AFC_adaptive_staircase_mess,2022.1.1,30.73114306389485,
,,,,,5,0,5,0,26,0,26,0,,,,,,,,,,,,,,,,up,6000,-10.0,3.664122665694518e-05,1,5,1,2.5,649.0332741499908,649.2470394999982,647.9945970999979,648.2928149999934,648.9982156999904,649.3065272999957,649.9928528999881,650.2946688999946,left,0,3.189125500008231,648.0306221999926,None,650.5680449999927,None,,,,,,,quicsb,001,0,fr,2022-07-21_15h45.36.707,3-AFC_adaptive_staircase_mess,2022.1.1,30.73114306389485,
,,,,,5,0,5,0,27,0,27,0,,,,,,,,,,,,,,,,up,6000,-7.5,4.886186104779051e-05,1,5,1,2.5,653.7669389499963,653.9791998999863,652.7021791000006,653.0331122999924,653.6999858999916,654.0072051999887,None,None,up,1,1.5348446999996668,652.7652381999942,None,None,None,,,,,,,quicsb,001,0,fr,2022-07-21_15h45.36.707,3-AFC_adaptive_staircase_mess,2022.1.1,30.73114306389485,
,,,,,5,0,5,0,28,0,28,0,,,,,,,,,,,,,,,,up,6000,-7.5,4.886186104779051e-05,1,5,1,2.5,656.8436913499929,657.0553833999875,655.7734251999937,656.0724184999999,656.7743731999944,657.0839932999952,657.7754622999928,658.0755754999991,left,0,2.9880730000149924,655.8398768999905,None,658.3432278999971,None,,,,,,,quicsb,001,0,fr,2022-07-21_15h45.36.707,3-AFC_adaptive_staircase_mess,2022.1.1,30.73114306389485,
,,,,,5,0,5,0,29,0,29,0,,,,,,,,,,,,,,,,right,6000,-5.0,6.515833892261494e-05,1,5,1,2.5,662.3789970499959,662.5920896999887,660.3087375999894,660.6117866999994,661.3070552999998,661.6194004999998,662.3065324999916,662.6231498999987,right,1,2.402948100003414,660.376818299992,None,None,None,,,,,,,quicsb,001,0,fr,2022-07-21_15h45.36.707,3-AFC_adaptive_staircase_mess,2022.1.1,30.73114306389485,
,,,,,5,0,5,0,30,0,30,0,,,,,,,,,,,,,,,,up,6000,-5.0,6.515833892261494e-05,1,5,1,2.5,665.3152168499976,665.5253802999941,664.2415017999883,664.5472096999874,665.2438095999969,665.5537358000001,None,None,up,1,1.6433520999999018,664.3122469999944,None,None,None,,,,,,,quicsb,001,0,fr,2022-07-21_15h45.36.707,3-AFC_adaptive_staircase_mess,2022.1.1,30.73114306389485,
,,,,,5,0,5,0,31,0,31,0,,,,,,,,,,,,,,,,left,6000,-10.0,3.664122665694518e-05,-1,6,-1,-5.0,667.4876613499976,None,667.4526028999971,667.751992599995,668.4528333999915,668.7501281999866,669.4546110999945,669.7542764999962,left,1,3.231441600000835,667.4843540000002,None,669.9903888999979,None,,,,,,,quicsb,001,0,fr,2022-07-21_15h45.36.707,3-AFC_adaptive_staircase_mess,2022.1.1,30.73114306389485,
,,,,,6,0,6,0,0,0,0,0,,,,,,,,,,,,,[],[],10,up,8000,30,0.005740768107484416,0,0,-1,10,674.0918780499953,None,673.0240366999933,673.3212287999922,674.020353999993,674.3513413999899,None,None,up,1,1.4169162000034703,673.0909250999975,None,None,None,left,0.7790287999960128,671.7850573999895,None,671.7850573999895,None,quicsb,001,0,fr,2022-07-21_15h45.36.707,3-AFC_adaptive_staircase_mess,2022.1.1,30.73114306389485,
,,,,,6,0,6,0,1,0,1,0,,,,,,,,,,,,,,,,right,8000,30,0.005740768107484416,0,0,-1,10,678.026633949997,None,675.9872219999961,676.2898621999921,676.9955447999964,677.2938684999972,677.9915754999965,678.2963189999864,right,1,2.2872692000091774,676.060155299987,None,None,None,,,,,,,quicsb,001,0,fr,2022-07-21_15h45.36.707,3-AFC_adaptive_staircase_mess,2022.1.1,30.73114306389485,
,,,,,6,0,6,0,2,0,2,0,,,,,,,,,,,,,,,,right,8000,10,0.0005740768107484417,-1,0,-1,-10,681.8790727499902,None,679.8095147999993,680.130236099998,680.8347550999897,681.1367868999951,681.8102214999963,682.1162681999995,right,1,2.306351600011112,679.8727465999982,None,None,None,,,,,,,quicsb,001,0,fr,2022-07-21_15h45.36.707,3-AFC_adaptive_staircase_mess,2022.1.1,30.73114306389485,
,,,,,6,0,6,0,3,0,3,0,,,,,,,,,,,,,,,,up,8000,10,0.0005740768107484417,-1,0,-1,-10,684.7378744499904,None,683.6682741999975,684.0024591999972,684.6654271000007,684.9698546999862,None,None,left,0,1.339813900005538,683.7357207999885,None,None,None,,,,,,,quicsb,001,0,fr,2022-07-21_15h45.36.707,3-AFC_adaptive_staircase_mess,2022.1.1,30.73114306389485,
,,,,,6,0,6,0,4,0,4,0,,,,,,,,,,,,,,,,left,8000,15,0.001020868972334765,1,1,1,5,686.6363578499906,None,686.5664782999957,None,None,None,None,None,up,0,-1.5047520999942208,686.6359658999863,None,None,None,,,,,,,quicsb,001,0,fr,2022-07-21_15h45.36.707,3-AFC_adaptive_staircase_mess,2022.1.1,30.73114306389485,
,,,,,6,0,6,0,5,0,5,0,,,,,,,,,,,,,,,,right,8000,20,0.0018153902738505074,1,1,1,5,690.1453588499892,None,688.0937660999916,688.3926169999904,689.0950970999984,689.3954986999888,690.1103003999888,690.4067875999899,right,1,2.381392199997208,688.1591397999873,None,None,None,,,,,,,quicsb,001,0,fr,2022-07-21_15h45.36.707,3-AFC_adaptive_staircase_mess,2022.1.1,30.73114306389485,
,,,,,6,0,6,0,6,0,6,0,,,,,,,,,,,,,,,,up,8000,20,0.0018153902738505074,1,1,1,5,693.1035635499895,693.3276578999939,692.0332493999886,692.3683022999903,693.0307016999868,693.3562176999985,None,None,up,1,1.41816739999922,692.0971609999979,None,None,None,,,,,,,quicsb,001,0,fr,2022-07-21_15h45.36.707,3-AFC_adaptive_staircase_mess,2022.1.1,30.73114306389485,
,,,,,6,0,6,0,7,0,7,0,,,,,,,,,,,,,,,,right,8000,10,0.0005740768107484417,-1,2,-1,-5.0,697.0337355499971,697.2496212999977,694.9773067999922,695.2823716999992,695.9823977999913,696.3166514999903,696.9986770999967,697.31307009999,right,1,2.3312994000007166,695.0485424999933,None,None,None,,,,,,,quicsb,001,0,fr,2022-07-21_15h45.36.707,3-AFC_adaptive_staircase_mess,2022.1.1,30.73114306389485,
,,,,,6,0,6,0,8,0,8,0,,,,,,,,,,,,,,,,up,8000,10,0.0005740768107484417,-1,2,-1,-5.0,699.925243449997,None,698.8915918999992,699.2124448999966,699.8901849999966,700.1865644999925,None,None,up,1,1.4025772000022698,698.9132582999882,None,None,None,,,,,,,quicsb,001,0,fr,2022-07-21_15h45.36.707,3-AFC_adaptive_staircase_mess,2022.1.1,30.73114306389485,
,,,,,6,0,6,0,9,0,9,0,,,,,,,,,,,,,,,,left,8000,5.0,0.00032282711451732784,-1,2,-1,-5.0,701.8558680499875,702.0685735000006,701.7853087999974,702.0968743999983,None,None,None,None,left,1,0.4239450999884866,701.8518346999917,None,None,None,,,,,,,quicsb,001,0,fr,2022-07-21_15h45.36.707,3-AFC_adaptive_staircase_mess,2022.1.1,30.73114306389485,
,,,,,6,0,6,0,10,0,10,0,,,,,,,,,,,,,,,,right,8000,5.0,0.00032282711451732784,-1,2,-1,-5.0,705.8152428499918,None,703.7421207999869,704.0647395999986,704.7475450999918,705.0744228999974,705.7480911999883,706.068108099993,right,1,2.295527900001616,703.8122970999975,None,None,None,,,,,,,quicsb,001,0,fr,2022-07-21_15h45.36.707,3-AFC_adaptive_staircase_mess,2022.1.1,30.73114306389485,
,,,,,6,0,6,0,11,0,11,0,,,,,,,,,,,,,,,,up,8000,0.0,0.0001815390273850507,-1,2,-1,-5.0,708.6617286499998,None,707.590759499988,707.8953308999917,708.5933263999905,708.8956379999872,None,None,up,1,1.5407654000009643,707.6554469999974,None,None,None,,,,,,,quicsb,001,0,fr,2022-07-21_15h45.36.707,3-AFC_adaptive_staircase_mess,2022.1.1,30.73114306389485,
,,,,,6,0,6,0,12,0,12,0,,,,,,,,,,,,,,,,up,8000,0.0,0.0001815390273850507,-1,2,-1,-5.0,711.7635355499981,None,710.6963174999983,710.9932954999967,711.6959549999883,711.9958416999871,None,None,up,1,1.5319120999920415,710.7591224999924,None,None,None,,,,,,,quicsb,001,0,fr,2022-07-21_15h45.36.707,3-AFC_adaptive_staircase_mess,2022.1.1,30.73114306389485,
,,,,,6,0,6,0,13,0,13,0,,,,,,,,,,,,,,,,up,8000,-5.0,0.00010208689723347648,-1,2,-1,-5.0,714.8163906500006,None,713.7683437999949,714.099457999997,714.7491499999887,715.0777929999895,None,None,up,1,1.3632533999916632,713.7999896999972,None,None,None,,,,,,,quicsb,001,0,fr,2022-07-21_15h45.36.707,3-AFC_adaptive_staircase_mess,2022.1.1,30.73114306389485,
,,,,,6,0,6,0,14,0,14,0,,,,,,,,,,,,,,,,up,8000,-5.0,0.00010208689723347648,-1,2,-1,-5.0,717.6996271499986,717.9060481999913,716.6485626999929,716.9669221999939,717.6319667999924,717.9364790999971,718.6375673999864,718.9622418999934,left,0,3.440771300010965,716.683320799988,None,719.1866720999969,None,,,,,,,quicsb,001,0,fr,2022-07-21_15h45.36.707,3-AFC_adaptive_staircase_mess,2022.1.1,30.73114306389485,
,,,,,6,0,6,0,15,0,15,0,,,,,,,,,,,,,,,,right,8000,-2.5,0.00013613506540389563,1,3,1,2.5,723.6648052499979,None,721.6091495000001,721.9080388000002,722.6252494999935,722.9275253999949,723.6297467999975,723.9300843999954,right,1,2.3545179000066128,721.673464099993,None,None,None,,,,,,,quicsb,001,0,fr,2022-07-21_15h45.36.707,3-AFC_adaptive_staircase_mess,2022.1.1,30.73114306389485,
,,,,,6,0,6,0,16,0,16,0,,,,,,,,,,,,,,,,up,8000,-2.5,0.00013613506540389563,1,3,1,2.5,726.5689438500006,726.7818659999903,725.5127987999876,725.8224647999887,726.5338854000001,726.8496092999994,727.5231855999882,727.843214499997,left,0,3.4187891999899875,725.5774958999973,None,728.065986799993,None,,,,,,,quicsb,001,0,fr,2022-07-21_15h45.36.707,3-AFC_adaptive_staircase_mess,2022.1.1,30.73114306389485,
,,,,,6,0,6,0,17,0,17,0,,,,,,,,,,,,,,,,right,8000,0.0,0.0001815390273850507,1,3,1,2.5,732.5356869499985,732.7502046999871,730.464685599989,730.76491849999,731.4695558999956,731.8008430999907,732.4650092999946,732.7795755999978,right,1,2.3213384999980917,730.5309658999904,None,None,None,,,,,,,quicsb,001,0,fr,2022-07-21_15h45.36.707,3-AFC_adaptive_staircase_mess,2022.1.1,30.73114306389485,
,,,,,6,0,6,0,18,0,18,0,,,,,,,,,,,,,,,,left,8000,0.0,0.0001815390273850507,1,3,1,2.5,734.3741557499918,None,734.3390972999914,734.6427591999964,None,None,None,None,left,1,0.5287173999968218,734.3710098999873,None,None,None,,,,,,,quicsb,001,0,fr,2022-07-21_15h45.36.707,3-AFC_adaptive_staircase_mess,2022.1.1,30.73114306389485,
,,,,,6,0,6,0,19,0,19,0,,,,,,,,,,,,,,,,left,8000,-5.0,0.00010208689723347648,-1,4,-1,-5.0,736.4411337499944,None,736.3699677999975,736.6746736999921,737.3577220000006,737.6747888999962,738.3698007999919,738.6570610999916,left,1,3.1439669000101276,736.4432898999949,None,738.9376217999961,None,,,,,,,quicsb,001,0,fr,2022-07-21_15h45.36.707,3-AFC_adaptive_staircase_mess,2022.1.1,30.73114306389485,
,,,,,6,0,6,0,20,0,20,0,,,,,,,,,,,,,,,,up,8000,-5.0,0.00010208689723347648,-1,4,-1,-5.0,742.1158757499973,742.3225998999987,741.0470137999946,741.3728607999947,742.0453120999882,742.3519411999878,743.0630202999891,743.3758357999905,left,0,2.9181224999920232,741.1175844999962,None,743.6146372999938,None,,,,,,,quicsb,001,0,fr,2022-07-21_15h45.36.707,3-AFC_adaptive_staircase_mess,2022.1.1,30.73114306389485,
,,,,,6,0,6,0,21,0,21,0,,,,,,,,,,,,,,,,left,8000,-2.5,0.00013613506540389563,1,5,1,2.5,745.580992349994,745.7965977999993,745.4985591000004,745.8308037999959,None,None,None,None,left,1,0.6227682000026107,745.5812848999922,None,None,None,,,,,,,quicsb,001,0,fr,2022-07-21_15h45.36.707,3-AFC_adaptive_staircase_mess,2022.1.1,30.73114306389485,
,,,,,6,0,6,0,22,0,22,0,,,,,,,,,,,,,,,,right,8000,-2.5,0.00013613506540389563,1,5,1,2.5,749.7544296499866,None,747.6820631999872,747.9886102999881,748.6864651999931,748.9824907999864,749.6866332999925,749.9879567999888,right,1,2.4929899999988265,747.7510043999937,None,750.2551990999928,None,,,,,,,quicsb,001,0,fr,2022-07-21_15h45.36.707,3-AFC_adaptive_staircase_mess,2022.1.1,30.73114306389485,
,,,,,6,0,6,0,23,0,23,0,,,,,,,,,,,,,,,,right,8000,-7.5,7.655437308410152e-05,-1,6,-1,-5.0,753.7609912499931,None,751.7058454999933,752.0197748999926,752.717621799995,753.0213523999992,753.7259327999927,754.0268604999874,left,0,3.4143428999959724,751.7726126999914,None,754.2587698999996,None,,,,,,,quicsb,001,0,fr,2022-07-21_15h45.36.707,3-AFC_adaptive_staircase_mess,2022.1.1,30.73114306389485,
,,,,,7,0,7,0,0,0,0,0,,,,,,,,,,,,,[],[],10,up,750,30,0.0012851978913844323,0,0,-1,10,758.6299882499909,758.845081099993,757.5627814999898,757.8585875999997,758.5633204999904,758.8730975999933,None,None,up,1,1.6848215000063647,757.6237477999966,None,None,None,left,0.8544808000006014,756.2607506999921,None,756.2607506999921,None,quicsb,001,0,fr,2022-07-21_15h45.36.707,3-AFC_adaptive_staircase_mess,2022.1.1,30.73114306389485,
,,,,,7,0,7,0,1,0,1,0,,,,,,,,,,,,,,,,left,750,30,0.0012851978913844323,0,0,-1,10,760.8638631499955,761.0792124,760.7827668999962,761.1087253000005,None,None,None,None,left,1,0.4256254999927478,760.8656084999966,None,None,None,,,,,,,quicsb,001,0,fr,2022-07-21_15h45.36.707,3-AFC_adaptive_staircase_mess,2022.1.1,30.73114306389485,
,,,,,7,0,7,0,2,0,2,0,,,,,,,,,,,,,,,,up,750,10,0.00012851978913844324,-1,0,-1,-10,763.8070441499906,764.0156602999923,762.7677429999894,763.0717783,763.7719856999902,764.0797468999954,None,None,up,1,1.7076992000074824,762.8319465999957,None,None,None,,,,,,,quicsb,001,0,fr,2022-07-21_15h45.36.707,3-AFC_adaptive_staircase_mess,2022.1.1,30.73114306389485,
,,,,,7,0,7,0,3,0,3,0,,,,,,,,,,,,,,,,up,750,10,0.00012851978913844324,-1,0,-1,-10,767.0731534499967,None,766.0336461999977,766.3371059999918,767.0380949999962,767.3348710999999,None,None,up,1,1.4167591000004904,766.1063668999996,None,None,None,,,,,,,quicsb,001,0,fr,2022-07-21_15h45.36.707,3-AFC_adaptive_staircase_mess,2022.1.1,30.73114306389485,
,,,,,7,0,7,0,4,0,4,0,,,,,,,,,,,,,,,,right,750,0,4.064152580820497e-05,-1,0,-1,-10,771.0728736499907,771.2845110999915,769.0038691999944,769.3059921999957,770.0086812999944,770.3098095999885,771.0058002999867,771.3169275999971,left,0,3.203342699998757,769.0731276000006,None,771.5750234999869,None,,,,,,,quicsb,001,0,fr,2022-07-21_15h45.36.707,3-AFC_adaptive_staircase_mess,2022.1.1,30.73114306389485,
,,,,,7,0,7,0,5,0,5,0,,,,,,,,,,,,,,,,up,750,5,7.22719885372964e-05,1,1,1,5,774.7826365499961,None,773.7454940999887,774.0751084999938,774.7475780999957,775.0489892999904,775.7489357999875,776.0499950999947,left,0,3.082820300012827,773.7764207,None,776.2860515999928,None,,,,,,,quicsb,001,0,fr,2022-07-21_15h45.36.707,3-AFC_adaptive_staircase_mess,2022.1.1,30.73114306389485,
,,,,,7,0,7,0,6,0,6,0,,,,,,,,,,,,,,,,up,750,10,0.00012851978913844324,1,1,1,5,779.3878416499967,None,778.3143653999869,778.6162190999894,779.3209748999943,779.6566151000006,None,None,up,1,1.4100410000100965,778.3858642999985,None,None,None,,,,,,,quicsb,001,0,fr,2022-07-21_15h45.36.707,3-AFC_adaptive_staircase_mess,2022.1.1,30.73114306389485,
,,,,,7,0,7,0,7,0,7,0,,,,,,,,,,,,,,,,right,750,10,0.00012851978913844324,1,1,1,5,783.3257342499885,783.5339706999948,781.2851239999873,781.5901678999944,782.2863021999947,782.5879857999971,783.2906757999881,783.5978909999976,right,1,2.3719297000061488,781.3195611999981,None,None,None,,,,,,,quicsb,001,0,fr,2022-07-21_15h45.36.707,3-AFC_adaptive_staircase_mess,2022.1.1,30.73114306389485,
,,,,,7,0,7,0,8,0,8,0,,,,,,,,,,,,,,,,right,750,0,4.064152580820497e-05,-1,2,-1,-5.0,787.2248286499992,None,785.1546399999934,785.4592394999927,786.1576548999874,786.4587389999942,787.1540389999864,787.4608867999923,left,0,3.025567399992724,785.2268765999906,None,787.6939066999912,None,,,,,,,quicsb,001,0,fr,2022-07-21_15h45.36.707,3-AFC_adaptive_staircase_mess,2022.1.1,30.73114306389485,
,,,,,7,0,7,0,9,0,9,0,,,,,,,,,,,,,,,,left,750,2.5,5.419634570106019e-05,1,3,1,2.5,789.7647807499918,789.9728485999949,789.7297222999914,790.0454788999923,790.7106841999921,791.0222161999991,791.7316871999938,792.061610299992,left,1,3.025827500008745,789.7625592999975,None,792.2757243999949,None,,,,,,,quicsb,001,0,fr,2022-07-21_15h45.36.707,3-AFC_adaptive_staircase_mess,2022.1.1,30.73114306389485,
,,,,,7,0,7,0,10,0,10,0,,,,,,,,,,,,,,,,up,750,2.5,5.419634570106019e-05,1,3,1,2.5,795.36640224999,795.5779999999941,794.2921648999909,794.6073368999932,795.2996141999902,795.6068947999884,796.3035837999923,796.6025647999923,left,0,2.78259670000989,794.365186799987,None,796.838851499997,None,,,,,,,quicsb,001,0,fr,2022-07-21_15h45.36.707,3-AFC_adaptive_staircase_mess,2022.1.1,30.73114306389485,
,,,,,7,0,7,0,11,0,11,0,,,,,,,,,,,,,,,,right,750,5.0,7.22719885372964e-05,1,3,1,2.5,800.6773683499953,800.8841397999931,798.6346434999869,798.9344196999882,799.6372789999878,799.9388722999865,800.6423098999949,800.9441372000001,left,0,2.450075200002175,798.7051940999954,None,801.1706936999981,None,,,,,,,quicsb,001,0,fr,2022-07-21_15h45.36.707,3-AFC_adaptive_staircase_mess,2022.1.1,30.73114306389485,
,,,,,7,0,7,0,12,0,12,0,,,,,,,,,,,,,,,,up,750,7.5,9.637624565954684e-05,1,3,1,2.5,803.6792917499872,803.8939582999883,802.6417583999864,802.9712819999986,803.6442332999868,803.9563605000003,804.6419075999875,None,up,1,2.0516811000125017,802.704081799995,None,None,None,,,,,,,quicsb,001,0,fr,2022-07-21_15h45.36.707,3-AFC_adaptive_staircase_mess,2022.1.1,30.73114306389485,
,,,,,7,0,7,0,13,0,13,0,,,,,,,,,,,,,,,,up,750,7.5,9.637624565954684e-05,1,3,1,2.5,807.3186763500009,None,806.24774169999,806.5754458999872,807.2486971999897,807.5501545999869,None,None,up,1,1.5705936000013025,806.3133456999931,None,None,None,,,,,,,quicsb,001,0,fr,2022-07-21_15h45.36.707,3-AFC_adaptive_staircase_mess,2022.1.1,30.73114306389485,
,,,,,7,0,7,0,14,0,14,0,,,,,,,,,,,,,,,,up,750,2.5,5.419634570106019e-05,-1,4,-1,-5.0,810.420806649988,810.6321981999936,809.3780169999955,809.6690837999922,810.3857481999876,810.6889752999996,811.3857561999903,811.6853171999974,left,0,2.986492099997122,809.4497468999907,None,811.9230026999867,None,,,,,,,quicsb,001,0,fr,2022-07-21_15h45.36.707,3-AFC_adaptive_staircase_mess,2022.1.1,30.73114306389485,
,,,,,7,0,7,0,15,0,15,0,,,,,,,,,,,,,,,,left,750,5.0,7.22719885372964e-05,1,5,1,2.5,813.9890735499969,814.1989804999903,813.9178761999938,814.2305465999962,814.9183518499951,None,None,None,left,1,0.8786091999936616,813.9893050999963,None,None,None,,,,,,,quicsb,001,0,fr,2022-07-21_15h45.36.707,3-AFC_adaptive_staircase_mess,2022.1.1,30.73114306389485,
,,,,,7,0,7,0,16,0,16,0,,,,,,,,,,,,,,,,right,750,5.0,7.22719885372964e-05,1,5,1,2.5,818.4293663499877,818.6435696999979,816.3596101999865,816.6852707999933,817.3597465999919,817.6606978999916,818.3568120999989,818.6715479999984,left,0,3.1811199999938253,816.3905582000007,None,818.904965099995,None,,,,,,,quicsb,001,0,fr,2022-07-21_15h45.36.707,3-AFC_adaptive_staircase_mess,2022.1.1,30.73114306389485,
,,,,,7,0,7,0,17,0,17,0,,,,,,,,,,,,,,,,up,750,7.5,9.637624565954684e-05,1,5,1,2.5,822.1348939499906,None,821.0676182999887,821.3787214999902,822.0632634999929,822.3683309999906,None,None,up,1,1.64673419999599,821.1323636999878,None,None,None,,,,,,,quicsb,001,0,fr,2022-07-21_15h45.36.707,3-AFC_adaptive_staircase_mess,2022.1.1,30.73114306389485,
,,,,,7,0,7,0,18,0,18,0,,,,,,,,,,,,,,,,right,750,7.5,9.637624565954684e-05,1,5,1,2.5,826.2971492499958,826.5119019999984,824.261296599987,824.5633034999919,825.2641898999864,825.5685173999955,826.2620907999953,826.5729652999871,left,0,4.104106800004956,824.3317282999924,None,826.8039314999914,None,,,,,,,quicsb,001,0,fr,2022-07-21_15h45.36.707,3-AFC_adaptive_staircase_mess,2022.1.1,30.73114306389485,
,,,,,7,0,7,0,19,0,19,0,,,,,,,,,,,,,,,,right,750,10.0,0.00012851978913844324,1,5,1,2.5,831.9443061499944,None,829.9080658999883,830.2354688999912,830.9077491999924,831.205415599994,831.909247699994,832.208398399991,right,1,2.3760594000050332,829.9403817999992,None,None,None,,,,,,,quicsb,001,0,fr,2022-07-21_15h45.36.707,3-AFC_adaptive_staircase_mess,2022.1.1,30.73114306389485,
,,,,,7,0,7,0,20,0,20,0,,,,,,,,,,,,,,,,up,750,10.0,0.00012851978913844324,1,5,1,2.5,834.8481535499916,None,833.8079709999874,834.1072495999979,834.8130950999912,835.1141732999968,None,None,left,0,1.4315219999989495,833.8447878999868,None,None,None,,,,,,,quicsb,001,0,fr,2022-07-21_15h45.36.707,3-AFC_adaptive_staircase_mess,2022.1.1,30.73114306389485,
,,,,,7,0,7,0,21,0,21,0,,,,,,,,,,,,,,,,left,750,12.5,0.00017138389327322524,1,5,1,2.5,836.7823341499927,None,836.7472756999923,837.0447608999966,None,None,None,None,left,1,0.5187652000022354,836.7808697999862,None,None,None,,,,,,,quicsb,001,0,fr,2022-07-21_15h45.36.707,3-AFC_adaptive_staircase_mess,2022.1.1,30.73114306389485,
,,,,,7,0,7,0,22,0,22,0,,,,,,,,,,,,,,,,right,750,12.5,0.00017138389327322524,1,5,1,2.5,840.8166311499983,841.0285939999885,838.7816099999909,839.1124634000007,839.7832611999911,840.1180080999911,840.7815726999979,841.0887461999955,right,1,2.366177500007325,838.8131037999992,None,None,None,,,,,,,quicsb,001,0,fr,2022-07-21_15h45.36.707,3-AFC_adaptive_staircase_mess,2022.1.1,30.73114306389485,
,,,,,7,0,7,0,23,0,23,0,,,,,,,,,,,,,,,,left,750,7.5,9.637624565954684e-05,-1,6,-1,-5.0,842.7142046499969,842.9294171999936,842.6448831999878,842.9629968999943,None,None,None,None,left,1,0.49733980000019073,842.7144348000002,None,None,None,,,,,,,quicsb,001,0,fr,2022-07-21_15h45.36.707,3-AFC_adaptive_staircase_mess,2022.1.1,30.73114306389485,
,,,,,8,0,8,0,0,0,0,0,,,,,,,,,,,,,[],[],10,up,500,30,0.002259279721874612,0,0,-1,10,846.7927892499895,847.0049094999995,845.7189127999882,846.0238156999985,846.7255711999896,847.032667499996,None,None,up,1,1.404670600008103,845.7918101999967,None,None,None,left,0.9870041999965906,844.2882325999963,None,844.2882325999963,None,quicsb,001,0,fr,2022-07-21_15h45.36.707,3-AFC_adaptive_staircase_mess,2022.1.1,30.73114306389485,
,,,,,8,0,8,0,1,0,1,0,,,,,,,,,,,,,,,,left,500,30,0.002259279721874612,0,0,-1,10,848.722972449995,None,848.6879139999946,848.9934326999937,None,None,None,None,left,1,0.44026709999889135,848.7239534999972,None,None,None,,,,,,,quicsb,001,0,fr,2022-07-21_15h45.36.707,3-AFC_adaptive_staircase_mess,2022.1.1,30.73114306389485,
,,,,,8,0,8,0,2,0,2,0,,,,,,,,,,,,,,,,left,500,10,0.0002259279721874612,-1,0,-1,-10,850.7190028499929,850.9284056999895,850.6489942999906,850.9588468999864,None,None,None,None,left,1,0.33490050000546034,850.7167031999998,None,None,None,,,,,,,quicsb,001,0,fr,2022-07-21_15h45.36.707,3-AFC_adaptive_staircase_mess,2022.1.1,30.73114306389485,
,,,,,8,0,8,0,3,0,3,0,,,,,,,,,,,,,,,,up,500,10,0.0002259279721874612,-1,0,-1,-10,853.5968112500007,853.8050043999974,852.5276295999938,852.829267699999,853.5258175999916,853.8378066999867,None,None,up,1,1.4563196000090102,852.595103899992,None,None,None,,,,,,,quicsb,001,0,fr,2022-07-21_15h45.36.707,3-AFC_adaptive_staircase_mess,2022.1.1,30.73114306389485,
,,,,,8,0,8,0,4,0,4,0,,,,,,,,,,,,,,,,left,500,0,7.144469792555515e-05,-1,0,-1,-10,855.5955552499975,855.8136512999918,855.52850819999,855.832047399992,856.5345570999925,856.8354699999909,857.529549999992,857.8293651999993,left,1,3.1825448000017786,855.5970474999922,None,858.1038726999977,None,,,,,,,quicsb,001,0,fr,2022-07-21_15h45.36.707,3-AFC_adaptive_staircase_mess,2022.1.1,30.73114306389485,
,,,,,8,0,8,0,5,0,5,0,,,,,,,,,,,,,,,,left,500,0,7.144469792555515e-05,-1,0,-1,-10,860.3142633499986,860.5204670999956,860.2471898999938,860.5509033999988,861.2739709999878,861.5712931999878,862.2718147999985,862.5713298999908,left,1,3.074188700004015,860.3133245999925,None,862.8053989999898,None,,,,,,,quicsb,001,0,fr,2022-07-21_15h45.36.707,3-AFC_adaptive_staircase_mess,2022.1.1,30.73114306389485,
,,,,,8,0,8,0,6,0,6,0,,,,,,,,,,,,,,,,left,500,-10,2.259279721874613e-05,-1,0,-1,-10,864.9427927499958,None,864.8716626999958,865.1823476999998,865.875352899995,866.177621099996,866.8738991999999,867.1786718999938,left,1,2.8992788000032306,864.9444539999968,None,867.4136669999862,None,,,,,,,quicsb,001,0,fr,2022-07-21_15h45.36.707,3-AFC_adaptive_staircase_mess,2022.1.1,30.73114306389485,
,,,,,8,0,8,0,7,0,7,0,,,,,,,,,,,,,,,,right,500,-10,2.259279721874613e-05,-1,0,-1,-10,871.3838302499964,None,869.3158478999976,869.6128786999907,870.3159032999974,870.613648899991,871.3134617999895,871.6205649999902,left,0,2.911499299996649,869.3480364999996,None,871.8854501999886,None,,,,,,,quicsb,001,0,fr,2022-07-21_15h45.36.707,3-AFC_adaptive_staircase_mess,2022.1.1,30.73114306389485,
,,,,,8,0,8,0,8,0,8,0,,,,,,,,,,,,,,,,left,500,-5,4.017630610928089e-05,1,1,1,5,873.7896393500007,None,873.7201550999889,874.0201913999917,874.7221431999933,875.0190448999929,875.72151019999,876.0555991000001,left,1,2.7928380999946967,873.786612099997,None,876.2903424999968,None,,,,,,,quicsb,001,0,fr,2022-07-21_15h45.36.707,3-AFC_adaptive_staircase_mess,2022.1.1,30.73114306389485,
,,,,,8,0,8,0,9,0,9,0,,,,,,,,,,,,,,,,up,500,-5,4.017630610928089e-05,1,1,1,5,879.1206236499886,879.3336426999886,878.0560444999865,878.3545855999982,879.0538687999942,879.3611065000005,880.0565929999866,880.3541051999928,left,0,2.8638887999986764,878.1237391999894,None,880.592382399991,None,,,,,,,quicsb,001,0,fr,2022-07-21_15h45.36.707,3-AFC_adaptive_staircase_mess,2022.1.1,30.73114306389485,
,,,,,8,0,8,0,10,0,10,0,,,,,,,,,,,,,,,,right,500,0,7.144469792555515e-05,1,1,1,5,884.496624249997,None,882.4549879999977,882.7630535999924,883.4617377999966,883.7584191999922,884.4615657999966,884.7642779999878,right,1,2.6686717999982648,882.5265170999919,None,884.9989385999943,None,,,,,,,quicsb,001,0,fr,2022-07-21_15h45.36.707,3-AFC_adaptive_staircase_mess,2022.1.1,30.73114306389485,
,,,,,8,0,8,0,11,0,11,0,,,,,,,,,,,,,,,,left,500,0,7.144469792555515e-05,1,1,1,5,886.7332708499919,886.9442244999955,886.6624531999987,886.9786678999953,None,None,None,None,left,1,0.6137776999967173,886.7338330999919,None,None,None,,,,,,,quicsb,001,0,fr,2022-07-21_15h45.36.707,3-AFC_adaptive_staircase_mess,2022.1.1,30.73114306389485,
,,,,,8,0,8,0,12,0,12,0,,,,,,,,,,,,,,,,left,500,-10,2.259279721874613e-05,-1,2,-1,-5.0,888.9039426499978,889.1177667999873,888.8332824999961,889.1472367999959,889.833175599997,890.134828299997,890.8312729999889,891.1364732999937,left,1,3.0449239000008674,888.9022587999934,None,891.4074362999963,None,,,,,,,quicsb,001,0,fr,2022-07-21_15h45.36.707,3-AFC_adaptive_staircase_mess,2022.1.1,30.73114306389485,
,,,,,8,0,8,0,13,0,13,0,,,,,,,,,,,,,,,,left,500,-10,2.259279721874613e-05,-1,2,-1,-5.0,893.4708696499904,893.6735468999977,893.4007543999905,893.7080466999905,894.4079243999877,894.7436987999972,895.4039583999984,895.7047512999998,left,1,3.0923900000052527,893.4705801999953,None,895.977164099997,None,,,,,,,quicsb,001,0,fr,2022-07-21_15h45.36.707,3-AFC_adaptive_staircase_mess,2022.1.1,30.73114306389485,
,,,,,8,0,8,0,14,0,14,0,,,,,,,,,,,,,,,,right,500,-15.0,1.2704863527746532e-05,-1,2,-1,-5.0,900.0801425499988,None,898.0455435999902,898.3715690999961,899.0470289999939,899.3779175999953,900.0450840999983,900.3458372999885,left,0,2.960099400006584,898.0760105999943,None,900.5803574999882,None,,,,,,,quicsb,001,0,fr,2022-07-21_15h45.36.707,3-AFC_adaptive_staircase_mess,2022.1.1,30.73114306389485,
,,,,,8,0,8,0,15,0,15,0,,,,,,,,,,,,,,,,left,500,-12.5,1.6942207806960138e-05,1,3,1,2.5,902.5804196499987,902.7992715999862,902.5128812999901,902.8281455999968,903.5178901999898,903.8462467999925,904.5181803999876,904.8208192999882,left,1,2.888464500007103,902.5792404999956,None,905.0851983999892,None,,,,,,,quicsb,001,0,fr,2022-07-21_15h45.36.707,3-AFC_adaptive_staircase_mess,2022.1.1,30.73114306389485,
,,,,,8,0,8,0,16,0,16,0,,,,,,,,,,,,,,,,left,500,-12.5,1.6942207806960138e-05,1,3,1,2.5,907.0223782499991,907.229254299993,906.9516813999944,907.2576902999863,907.9507094,908.2837285999994,908.9568817999971,909.2523269999947,left,1,2.4561107000045013,907.0188588999881,None,909.5188244499907,None,,,,,,,quicsb,001,0,fr,2022-07-21_15h45.36.707,3-AFC_adaptive_staircase_mess,2022.1.1,30.73114306389485,
,,,,,8,0,8,0,17,0,17,0,,,,,,,,,,,,,,,,up,500,-17.5,9.52730358981624e-06,-1,4,-1,-5.0,912.0218908499985,912.2443878999911,910.9573543999868,911.258093899989,911.9574679999932,912.2755429999961,912.9610706999956,913.2880969999969,left,0,2.810908200000995,911.0243473999872,None,913.4948242999963,None,,,,,,,quicsb,001,0,fr,2022-07-21_15h45.36.707,3-AFC_adaptive_staircase_mess,2022.1.1,30.73114306389485,
,,,,,8,0,8,0,18,0,18,0,,,,,,,,,,,,,,,,up,500,-15.0,1.2704863527746532e-05,1,5,1,2.5,916.373262049997,916.598949399995,915.3239730999921,915.6338794999901,916.3382035999966,916.6656554999936,917.330775999988,917.6513751999883,left,0,2.3297394000110216,915.3939746999968,None,None,None,,,,,,,quicsb,001,0,fr,2022-07-21_15h45.36.707,3-AFC_adaptive_staircase_mess,2022.1.1,30.73114306389485,
,,,,,8,0,8,0,19,0,19,0,,,,,,,,,,,,,,,,left,500,-12.5,1.6942207806960138e-05,1,5,1,2.5,919.280908249991,919.5038003999944,919.2458497999905,919.5689283999964,920.2197172999877,920.5388090999913,921.2312626999919,921.5430972999893,left,1,2.6466763999924297,919.2844754999969,None,921.7851626999909,None,,,,,,,quicsb,001,0,fr,2022-07-21_15h45.36.707,3-AFC_adaptive_staircase_mess,2022.1.1,30.73114306389485,
,,,,,8,0,8,0,20,0,20,0,,,,,,,,,,,,,,,,up,500,-12.5,1.6942207806960138e-05,1,5,1,2.5,924.4899448499957,None,923.4314111999993,923.740595899988,924.4230507999891,924.7496335999895,925.4382521999942,925.7736714999919,left,0,2.410306399993715,923.4666340999975,None,None,None,,,,,,,quicsb,001,0,fr,2022-07-21_15h45.36.707,3-AFC_adaptive_staircase_mess,2022.1.1,30.73114306389485,
,,,,,8,0,8,0,21,0,21,0,,,,,,,,,,,,,,,,right,500,-10.0,2.259279721874613e-05,1,5,1,2.5,929.4471375499882,None,927.3885328999895,927.7054715999984,928.3722866999888,928.6761618999881,929.3758727999957,929.6766060999944,left,0,2.789034700006596,927.4065926999901,None,929.9429728999967,None,,,,,,,quicsb,001,0,fr,2022-07-21_15h45.36.707,3-AFC_adaptive_staircase_mess,2022.1.1,30.73114306389485,
,,,,,8,0,8,0,22,0,22,0,,,,,,,,,,,,,,,,left,500,-7.5,3.0127979303717903e-05,1,5,1,2.5,931.7162763499975,None,931.6812178999971,931.9797452999919,932.683013899994,932.9799867999973,933.6847895999963,933.9820792999963,left,1,3.072284000008949,931.7149566999869,None,934.2189481999958,None,,,,,,,quicsb,001,0,fr,2022-07-21_15h45.36.707,3-AFC_adaptive_staircase_mess,2022.1.1,30.73114306389485,
,,,,,8,0,8,0,23,0,23,0,,,,,,,,,,,,,,,,up,500,-7.5,3.0127979303717903e-05,1,5,1,2.5,937.3207413499943,None,936.2860411999864,936.6148183999903,937.2856828999938,937.5873322999978,938.2852337999939,938.6160698999884,left,0,2.943134100001771,936.3164867999876,None,938.8178782999894,None,,,,,,,quicsb,001,0,fr,2022-07-21_15h45.36.707,3-AFC_adaptive_staircase_mess,2022.1.1,30.73114306389485,
,,,,,8,0,8,0,24,0,24,0,,,,,,,,,,,,,,,,up,500,-5.0,4.017630610928089e-05,1,5,1,2.5,941.7876631499996,941.9928685999912,940.7078221999982,941.0265092999907,941.7193870999909,942.027743499988,942.7228993999888,943.0546605999989,left,0,3.0243375999998534,940.7707911999896,None,943.2579012999922,None,,,,,,,quicsb,001,0,fr,2022-07-21_15h45.36.707,3-AFC_adaptive_staircase_mess,2022.1.1,30.73114306389485,
,,,,,8,0,8,0,25,0,25,0,,,,,,,,,,,,,,,,up,500,-2.5,5.357596526188033e-05,1,5,1,2.5,946.2988080499956,946.5123897999874,945.2546745,945.5569965999894,946.2637495999952,946.5776107999991,947.2527730000002,947.5495716000005,left,0,2.5885987000074238,945.3272788999893,None,947.8205226999999,None,,,,,,,quicsb,001,0,fr,2022-07-21_15h45.36.707,3-AFC_adaptive_staircase_mess,2022.1.1,30.73114306389485,
,,,,,8,0,8,0,26,0,26,0,,,,,,,,,,,,,,,,right,500,0.0,7.144469792555515e-05,1,5,1,2.5,951.4356645499968,951.6485774999892,949.3821422999899,949.7032871999982,950.3962667999876,950.6984322999924,951.4006060999964,951.7146084999986,left,0,2.4217976000072667,949.4468697999982,None,None,None,,,,,,,quicsb,001,0,fr,2022-07-21_15h45.36.707,3-AFC_adaptive_staircase_mess,2022.1.1,30.73114306389485,
,,,,,8,0,8,0,27,0,27,0,,,,,,,,,,,,,,,,left,500,2.5,9.527303589816237e-05,1,5,1,2.5,953.4067064500007,None,953.336833399997,953.6362195999973,None,None,None,None,left,1,0.6233369999972638,953.4045253999939,None,None,None,,,,,,,quicsb,001,0,fr,2022-07-21_15h45.36.707,3-AFC_adaptive_staircase_mess,2022.1.1,30.73114306389485,
,,,,,8,0,8,0,28,0,28,0,,,,,,,,,,,,,,,,right,500,2.5,9.527303589816237e-05,1,5,1,2.5,957.5374846499938,957.7376468999864,955.5024411999912,955.8001210999937,956.5010722999868,956.8055287999887,957.5024261999934,957.8055878999876,right,1,2.4143658999964828,955.53375219999,None,None,None,,,,,,,quicsb,001,0,fr,2022-07-21_15h45.36.707,3-AFC_adaptive_staircase_mess,2022.1.1,30.73114306389485,
,,,,,8,0,8,0,29,0,29,0,,,,,,,,,,,,,,,,left,500,-2.5,5.357596526188033e-05,-1,6,-1,-5.0,959.4722793499998,959.6847567999939,959.4372208999994,959.7455292999948,None,None,None,None,left,1,0.5492000999947777,959.4698755999998,None,None,None,,,,,,,quicsb,001,0,fr,2022-07-21_15h45.36.707,3-AFC_adaptive_staircase_mess,2022.1.1,30.73114306389485,
,,,,,9,0,9,0,0,0,0,0,,,,,,,,,,,,,[],[],10,left,250,30,0.005296268625886445,0,0,-1,10,963.5862765499944,None,963.5173240999866,963.8174771999911,None,None,None,None,left,1,0.49968609999632463,963.5837332999945,None,None,None,left,1.974889000004623,961.1086397999898,None,961.1086397999898,None,quicsb,001,0,fr,2022-07-21_15h45.36.707,3-AFC_adaptive_staircase_mess,2022.1.1,30.73114306389485,
,,,,,9,0,9,0,1,0,1,0,,,,,,,,,,,,,,,,up,250,30,0.005296268625886445,0,0,-1,10,966.6485049499927,966.8605327999976,965.5733099999925,965.8699295999977,966.5777397999918,966.8924454999942,None,None,up,1,1.3664463999884902,965.6370757999975,None,None,None,,,,,,,quicsb,001,0,fr,2022-07-21_15h45.36.707,3-AFC_adaptive_staircase_mess,2022.1.1,30.73114306389485,
,,,,,9,0,9,0,2,0,2,0,,,,,,,,,,,,,,,,up,250,10,0.0005296268625886444,-1,0,-1,-10,969.55184915,969.7655253999983,968.4771732999943,968.7751480999868,969.4853913999978,969.7964944999985,None,None,up,1,1.5766633000021102,968.539074699991,None,None,None,,,,,,,quicsb,001,0,fr,2022-07-21_15h45.36.707,3-AFC_adaptive_staircase_mess,2022.1.1,30.73114306389485,
,,,,,9,0,9,0,3,0,3,0,,,,,,,,,,,,,,,,left,250,10,0.0005296268625886444,-1,0,-1,-10,971.6554877499905,971.8699261999864,971.5844569999899,971.8975890999864,None,None,None,None,left,1,0.4108064000029117,971.6561810999992,None,None,None,,,,,,,quicsb,001,0,fr,2022-07-21_15h45.36.707,3-AFC_adaptive_staircase_mess,2022.1.1,30.73114306389485,
,,,,,9,0,9,0,4,0,4,0,,,,,,,,,,,,,,,,right,250,0,0.0001674827195789138,-1,0,-1,-10,975.617435749987,975.8345165999926,973.5459296999907,973.8604365999927,974.5521726000006,974.8530286999885,975.5460415999987,975.863551699993,right,1,2.387926499999594,973.6157467999874,None,None,None,,,,,,,quicsb,001,0,fr,2022-07-21_15h45.36.707,3-AFC_adaptive_staircase_mess,2022.1.1,30.73114306389485,
,,,,,9,0,9,0,5,0,5,0,,,,,,,,,,,,,,,,left,250,0,0.0001674827195789138,-1,0,-1,-10,977.5611286499945,977.7749386999931,977.4903628999891,977.8058198999934,None,None,None,None,left,1,0.4077339000068605,977.5637021000002,None,None,None,,,,,,,quicsb,001,0,fr,2022-07-21_15h45.36.707,3-AFC_adaptive_staircase_mess,2022.1.1,30.73114306389485,
,,,,,9,0,9,0,6,0,6,0,,,,,,,,,,,,,,,,up,250,-10,5.296268625886443e-05,-1,0,-1,-10,980.5319174499921,980.7482820000005,979.4594097999943,979.7644070999959,980.4642116999894,980.7797113999986,981.4642002999899,981.7650061999884,left,0,3.19975090000662,979.5323115999927,None,982.0327867999877,None,,,,,,,quicsb,001,0,fr,2022-07-21_15h45.36.707,3-AFC_adaptive_staircase_mess,2022.1.1,30.73114306389485,
,,,,,9,0,9,0,7,0,7,0,,,,,,,,,,,,,,,,left,250,-5,9.418245447449e-05,1,1,1,5,984.2375693499955,None,984.2025108999951,984.4974659,985.2039984999865,985.5003383999865,986.2051517999935,986.5328310999903,left,1,2.975064600002952,984.2379474999907,None,986.7374119999877,None,,,,,,,quicsb,001,0,fr,2022-07-21_15h45.36.707,3-AFC_adaptive_staircase_mess,2022.1.1,30.73114306389485,
,,,,,9,0,9,0,8,0,8,0,,,,,,,,,,,,,,,,left,250,-5,9.418245447449e-05,1,1,1,5,988.7597474499955,988.9734372999956,988.6921296999935,989.0047279999999,989.6942207999964,989.9954160999914,990.6942601999908,990.9965686999931,left,1,2.899126399992383,988.7601144999935,None,991.2666010999965,None,,,,,,,quicsb,001,0,fr,2022-07-21_15h45.36.707,3-AFC_adaptive_staircase_mess,2022.1.1,30.73114306389485,
,,,,,9,0,9,0,9,0,9,0,,,,,,,,,,,,,,,,up,250,-15,2.9783107176450517e-05,-1,2,-1,-5.0,994.2147199499916,994.4259157999913,993.1447745999903,993.4464053999982,994.1419702999992,994.4564099999989,995.1441990999883,995.4481594999961,left,0,2.4425103000103263,993.1772785999929,None,995.68084964999,None,,,,,,,quicsb,001,0,fr,2022-07-21_15h45.36.707,3-AFC_adaptive_staircase_mess,2022.1.1,30.73114306389485,
,,,,,9,0,9,0,10,0,10,0,,,,,,,,,,,,,,,,right,250,-12.5,3.971641173621407e-05,1,3,1,2.5,999.1511084499973,999.3592349999963,997.1089674999967,997.4137885999953,998.1152497999865,998.4519074999989,999.1160499999969,999.4193161999865,left,0,3.1240794000041205,997.1766868999985,None,999.6696837999916,None,,,,,,,quicsb,001,0,fr,2022-07-21_15h45.36.707,3-AFC_adaptive_staircase_mess,2022.1.1,30.73114306389485,
,,,,,9,0,9,0,11,0,11,0,,,,,,,,,,,,,,,,up,250,-10.0,5.296268625886443e-05,1,3,1,2.5,1002.8555030499876,None,1001.7714653999865,1002.1010782999947,1002.7849953999976,1003.0888917999982,1003.786835699997,1004.0859640999988,left,0,3.0330397999932757,1001.8353993999917,None,1004.3547441999981,None,,,,,,,quicsb,001,0,fr,2022-07-21_15h45.36.707,3-AFC_adaptive_staircase_mess,2022.1.1,30.73114306389485,
,,,,,9,0,9,0,12,0,12,0,,,,,,,,,,,,,,,,left,250,-7.5,7.06268772311377e-05,1,3,1,2.5,1006.3983400499885,1006.6082723999862,1006.3316507999989,1006.6373424999911,1007.3566828999901,1007.6599174999865,1008.3580098999955,1008.6625392999995,left,1,8.535131299999193,1006.3964706999977,None,1008.8939470999903,None,,,,,,,quicsb,001,0,fr,2022-07-21_15h45.36.707,3-AFC_adaptive_staircase_mess,2022.1.1,30.73114306389485,
,,,,,9,0,9,0,13,0,13,0,,,,,,,,,,,,,,,,right,250,-7.5,7.06268772311377e-05,1,3,1,2.5,1018.4406520499936,None,1016.3829604999919,1016.7018917999958,1017.401958699993,1017.7352688999963,1018.3743037999957,1018.7004214999906,left,0,5.4511639999982435,1016.4494177999877,None,1018.9244673999929,None,,,,,,,quicsb,001,0,fr,2022-07-21_15h45.36.707,3-AFC_adaptive_staircase_mess,2022.1.1,30.73114306389485,
,,,,,9,0,9,0,14,0,14,0,,,,,,,,,,,,,,,,up,250,-5.0,9.418245447449e-05,1,3,1,2.5,1024.3919582499977,1024.6027584999974,1023.3620209999935,1023.6876144999987,1024.3568997999973,1024.667507399994,1025.3579308999906,1025.6927228999994,left,0,7.041781300009461,1023.3936989999929,None,1025.9266451000003,None,,,,,,,quicsb,001,0,fr,2022-07-21_15h45.36.707,3-AFC_adaptive_staircase_mess,2022.1.1,30.73114306389485,
,,,,,9,0,9,0,15,0,15,0,,,,,,,,,,,,,,,,left,250,-2.5,0.00012559432157547898,1,3,1,2.5,1032.0021993500006,None,1031.9303056999925,1032.2312466000003,1032.9195840999892,1033.2181880999997,1033.9332511999964,1034.233303599991,left,1,3.6357604999939213,1031.9992925999977,None,1034.474738799996,None,,,,,,,quicsb,001,0,fr,2022-07-21_15h45.36.707,3-AFC_adaptive_staircase_mess,2022.1.1,30.73114306389485,
,,,,,9,0,9,0,16,0,16,0,,,,,,,,,,,,,,,,left,250,-2.5,0.00012559432157547898,1,3,1,2.5,1037.1500414499926,None,1037.0814293999865,1037.4158383999893,1038.105913899999,1038.4068143999903,1039.1066188999976,1039.3919393999968,left,1,3.3369404999975814,1037.1469279999874,None,1039.6422441999894,None,,,,,,,quicsb,001,0,fr,2022-07-21_15h45.36.707,3-AFC_adaptive_staircase_mess,2022.1.1,30.73114306389485,
,,,,,9,0,9,0,17,0,17,0,,,,,,,,,,,,,,,,left,250,-7.5,7.06268772311377e-05,-1,4,-1,-5.0,1042.0085677499912,1042.2169776999945,1041.9735092999908,1042.2809874999948,1042.9457502999867,1043.2292267999874,1043.945426899998,1044.2461063999945,left,1,3.4430597000027774,1042.0079804999987,None,1044.4845923999965,None,,,,,,,quicsb,001,0,fr,2022-07-21_15h45.36.707,3-AFC_adaptive_staircase_mess,2022.1.1,30.73114306389485,
,,,,,9,0,9,0,18,0,18,0,,,,,,,,,,,,,,,,up,250,-7.5,7.06268772311377e-05,-1,4,-1,-5.0,1047.9557058499952,None,1046.9159651999944,1047.2131994999945,1047.9206473999948,1048.2183569999906,1048.9160284999962,1049.2209302999981,left,0,3.397906799989869,1046.982061799994,None,1049.487076099991,None,,,,,,,quicsb,001,0,fr,2022-07-21_15h45.36.707,3-AFC_adaptive_staircase_mess,2022.1.1,30.73114306389485,
,,,,,9,0,9,0,19,0,19,0,,,,,,,,,,,,,,,,right,250,-5.0,9.418245447449e-05,1,5,1,2.5,1053.920344049987,1054.1397268999863,1051.8558888999978,1052.1519096999982,1052.859344899989,1053.1921240999945,1053.8546203000005,1054.1672121999873,right,1,3.2144187999947462,1051.9244323999883,None,1054.4219511999981,None,,,,,,,quicsb,001,0,fr,2022-07-21_15h45.36.707,3-AFC_adaptive_staircase_mess,2022.1.1,30.73114306389485,
,,,,,9,0,9,0,20,0,20,0,,,,,,,,,,,,,,,,right,250,-5.0,9.418245447449e-05,1,5,1,2.5,None,None,1056.6342225999979,None,None,None,None,None,left,0,-1.433495799996308,1056.6692748999922,None,None,None,,,,,,,quicsb,001,0,fr,2022-07-21_15h45.36.707,3-AFC_adaptive_staircase_mess,2022.1.1,30.73114306389485,
,,,,,9,0,9,0,21,0,21,0,,,,,,,,,,,,,,,,up,250,-2.5,0.00012559432157547898,1,5,1,2.5,1059.1966965499917,1059.4098781999928,1058.1577700999915,1058.4601454999938,1059.1616380999913,1059.4746199999936,1060.114176499992,1060.4311084999936,left,0,3.5849683999986155,1058.19507419999,None,1060.7032085999963,None,,,,,,,quicsb,001,0,fr,2022-07-21_15h45.36.707,3-AFC_adaptive_staircase_mess,2022.1.1,30.73114306389485,
,,,,,9,0,9,0,22,0,22,0,,,,,,,,,,,,,,,,up,250,0.0,0.0001674827195789138,1,5,1,2.5,1064.33563384999,1064.5515798999986,1063.2504606000002,1063.5628952999978,1064.2683095999964,1064.581195199993,1065.2694732999953,1065.5696117999905,left,0,3.547918000011123,1063.3367183999944,None,1065.8060516999976,None,,,,,,,quicsb,001,0,fr,2022-07-21_15h45.36.707,3-AFC_adaptive_staircase_mess,2022.1.1,30.73114306389485,
,,,,,9,0,9,0,23,0,23,0,,,,,,,,,,,,,,,,right,250,2.5,0.0002233417960754815,1,5,1,2.5,1070.413290249987,None,1068.3735027999937,1068.6748586999893,1069.3725208999967,1069.6802685999864,1070.3782317999867,1070.6777055999992,left,0,3.018791299997247,1068.4403250999894,None,1070.9393286999984,None,,,,,,,quicsb,001,0,fr,2022-07-21_15h45.36.707,3-AFC_adaptive_staircase_mess,2022.1.1,30.73114306389485,
,,,,,9,0,9,0,24,0,24,0,,,,,,,,,,,,,,,,right,250,5.0,0.0002978310717645052,1,5,1,2.5,1075.0116940499895,None,1072.9391957999906,1073.2427624999982,1073.9446672999911,1074.243422399988,1074.9409914999997,1075.2464297999977,left,0,3.0970512999920174,1073.0104150999978,None,1075.516240099998,None,,,,,,,quicsb,001,0,fr,2022-07-21_15h45.36.707,3-AFC_adaptive_staircase_mess,2022.1.1,30.73114306389485,
,,,,,9,0,9,0,25,0,25,0,,,,,,,,,,,,,,,,left,250,7.5,0.0003971641173621407,1,5,1,2.5,1077.6520799499879,None,1077.584839999996,1077.9188739999954,None,None,None,None,left,1,0.5146489000035217,1077.6491127999907,None,None,None,,,,,,,quicsb,001,0,fr,2022-07-21_15h45.36.707,3-AFC_adaptive_staircase_mess,2022.1.1,30.73114306389485,
,,,,,9,0,9,0,26,0,26,0,,,,,,,,,,,,,,,,left,250,7.5,0.0003971641173621407,1,5,1,2.5,1079.7582556499867,None,1079.6786342999985,1079.9922574999946,None,None,None,None,left,1,0.42300610001257155,1079.765195199987,None,None,None,,,,,,,quicsb,001,0,fr,2022-07-21_15h45.36.707,3-AFC_adaptive_staircase_mess,2022.1.1,30.73114306389485,
,,,,,9,0,9,0,27,0,27,0,,,,,,,,,,,,,,,,left,250,2.5,0.0002233417960754815,-1,6,-1,-5.0,1081.722857249991,None,1081.6877987999906,1081.988919299998,None,None,None,None,left,1,0.3761938000097871,1081.7231702999998,None,None,None,,,,,,,quicsb,001,0,fr,2022-07-21_15h45.36.707,3-AFC_adaptive_staircase_mess,2022.1.1,30.73114306389485,
,,,,,10,0,10,0,0,0,0,0,,,,,,,,,,,,,[],[],10,up,125,30,0.02285440948074376,0,0,-1,10,1086.229241049997,1086.4368949999916,1085.1882729999925,1085.4930999999924,1086.1941825999966,1086.4964575999911,None,None,up,1,1.5434170000080485,1085.2597721999919,None,None,None,left,1.5516007999976864,1083.1879381999897,None,1083.1879381999897,None,quicsb,001,0,fr,2022-07-21_15h45.36.707,3-AFC_adaptive_staircase_mess,2022.1.1,30.73114306389485,
,,,,,10,0,10,0,1,0,1,0,,,,,,,,,,,,,,,,up,125,30,0.02285440948074376,0,0,-1,10,1089.3285248499917,1089.5396739999996,1088.292368999988,1088.5938231999899,1089.2934663999913,1089.5998399999953,None,None,up,1,1.3730330999969738,1088.3279142999963,None,None,None,,,,,,,quicsb,001,0,fr,2022-07-21_15h45.36.707,3-AFC_adaptive_staircase_mess,2022.1.1,30.73114306389485,
,,,,,10,0,10,0,2,0,2,0,,,,,,,,,,,,,,,,left,125,10,0.002285440948074376,-1,0,-1,-10,1091.2666855499876,1091.475010899987,1091.1959119999956,1091.506996199998,None,None,None,None,left,1,0.660436700010905,1091.2633052999881,None,None,None,,,,,,,quicsb,001,0,fr,2022-07-21_15h45.36.707,3-AFC_adaptive_staircase_mess,2022.1.1,30.73114306389485,
,,,,,10,0,10,0,3,0,3,0,,,,,,,,,,,,,,,,left,125,10,0.002285440948074376,-1,0,-1,-10,1093.4374358499947,1093.6690601999871,1093.4023773999943,1093.7035209999885,None,None,None,None,left,1,0.39777090000279713,1093.4378390999918,None,None,None,,,,,,,quicsb,001,0,fr,2022-07-21_15h45.36.707,3-AFC_adaptive_staircase_mess,2022.1.1,30.73114306389485,
,,,,,10,0,10,0,4,0,4,0,,,,,,,,,,,,,,,,right,125,0,0.000722719885372964,-1,0,-1,-10,1097.3733852499893,1097.580579699992,1095.304933099993,1095.6347771999863,1096.2993745999993,1096.5976990999916,1097.3030236999912,1097.6129522999981,left,0,3.7122895999928005,1095.3722806000005,None,1097.8694128999923,None,,,,,,,quicsb,001,0,fr,2022-07-21_15h45.36.707,3-AFC_adaptive_staircase_mess,2022.1.1,30.73114306389485,
,,,,,10,0,10,0,5,0,5,0,,,,,,,,,,,,,,,,left,125,5,0.0012851978913844323,1,1,1,5,1100.6053051499941,1100.8122975999868,1100.5352862,1100.8443450999912,1101.5434718999895,1101.869499499997,1102.5385834999906,1102.8419664999965,left,1,3.0763472000107868,1100.6076407999935,None,1103.0791833999974,None,,,,,,,quicsb,001,0,fr,2022-07-21_15h45.36.707,3-AFC_adaptive_staircase_mess,2022.1.1,30.73114306389485,
,,,,,10,0,10,0,6,0,6,0,,,,,,,,,,,,,,,,right,125,5,0.0012851978913844323,1,1,1,5,1107.2168158499874,1107.4456483999966,1105.1430967999913,1105.4465689999925,1106.1457738999889,1106.4464781999995,1107.1427260999917,1107.4772623999888,right,1,2.3816263000044273,1105.2142616999918,None,None,None,,,,,,,quicsb,001,0,fr,2022-07-21_15h45.36.707,3-AFC_adaptive_staircase_mess,2022.1.1,30.73114306389485,
,,,,,10,0,10,0,7,0,7,0,,,,,,,,,,,,,,,,right,125,-5,0.00040641525808204974,-1,2,-1,-5.0,1111.1237777499948,None,1109.0569095999963,1109.3841261999914,1110.0864845999895,1110.4166826,1111.0525370999967,1111.3919660999964,right,1,2.530243100001826,1109.1213805000007,None,1111.6178540999972,None,,,,,,,quicsb,001,0,fr,2022-07-21_15h45.36.707,3-AFC_adaptive_staircase_mess,2022.1.1,30.73114306389485,
,,,,,10,0,10,0,8,0,8,0,,,,,,,,,,,,,,,,right,125,-5,0.00040641525808204974,-1,2,-1,-5.0,1115.1556611499866,1115.364242999989,1113.107468599992,1113.4258865999873,1114.1163546999887,1114.4237087999936,1115.1206026999862,1115.4228401,right,1,2.4561046000017086,1113.1720896999905,None,1115.6562048999913,None,,,,,,,quicsb,001,0,fr,2022-07-21_15h45.36.707,3-AFC_adaptive_staircase_mess,2022.1.1,30.73114306389485,
,,,,,10,0,10,0,9,0,9,0,,,,,,,,,,,,,,,,right,125,-10.0,0.0002285440948074376,-1,2,-1,-5.0,1119.1924936499884,None,1117.12420559999,1117.4193887000001,1118.1249574999965,1118.422457099994,1119.1218293999991,1119.4259168999997,left,0,3.1012266000034288,1117.1594865999941,None,1119.661661799997,None,,,,,,,quicsb,001,0,fr,2022-07-21_15h45.36.707,3-AFC_adaptive_staircase_mess,2022.1.1,30.73114306389485,
