practice.thisRepN,practice.thisTrialN,practice.thisN,practice.thisIndex,trials.thisRepN,trials.thisTrialN,trials.thisN,trials.thisIndex,blank_txt.started,blank_txt.stopped,practice_frequency,practice_level,psychopy_volume,tProbe.started,tProbe.stopped,tFeedback.keys,tFeedback.corr,tFeedback.rt,tFeedback.started,tFeedback.stopped,tToo_early.keys,tToo_early.corr,tToo_early.started,tToo_early.stopped,tToo_late.keys,tToo_late.corr,tToo_late.started,tToo_late.stopped,you_done_goofed.started,you_done_goofed.stopped,Init_phase,Frequency,Level,Psychopy_Volume,Catch trial,probe.started,probe.stopped,feedback.keys,feedback.corr,feedback.rt,feedback.started,feedback.stopped,too_late.keys,too_late.corr,too_late.started,too_late.stopped,too_late.rt,Audiogram,participant,session,Language (english or french),Tone duration (ms),date,expName,psychopyVersion,frameRate,
0,0,0,0,,,,,32.65166820000002,None,567,40,0.006099267302654233,1.0072208666667848,None,['space'],1,[0.42813520000004246],34.68767390000005,35.69498090000002,None,1,33.67684870000005,34.70932330000005,None,1,35.69498090000002,None,36.74748980000004,None,,,,,,,,,,,,,,,,,,,cwzopc,001,english,200,2022-07-20_10h32.49.698,Bayesian,2022.1.1,None,
1,0,1,0,,,,,,,234,40,0.019882976039061955,1.0252369666666254,None,['space'],1,[0.46938380000005964],40.62306739999997,41.63475919999996,None,1,39.61345510000001,40.62306739999997,None,1,41.63475919999996,None,42.68033820000005,None,,,,,,,,,,,,,,,,,,,cwzopc,001,english,200,2022-07-20_10h32.49.698,Bayesian,2022.1.1,None,
2,0,2,0,,,,,,,2345,40,0.008245949202640053,1.0233832666666558,None,['space'],1,[0.39694070000007287],45.071100200000046,46.08756770000002,None,1,44.05186119999996,45.071100200000046,None,1,46.08756770000002,None,47.12060900000006,None,,,,,,,,,,,,,,,,,,,cwzopc,001,english,200,2022-07-20_10h32.49.698,Bayesian,2022.1.1,None,
,,,,0,0,0,0,50.27175599999998,None,,,,,,,,,,,,,,,,,,,,,"{'x': [], 'y': [], 'is_init_phase': True, 'is_exam_finished': False, 'threshold_uncertainty_db': 6}",1000,60,0.0440524436504007,False,0.010568800000100964,None,['space'],1,[0.34402810000005957],51.35575419999998,52.3627113,None,1,52.3627113,None,,,cwzopc,001,english,200,2022-07-20_10h32.49.698,Bayesian,2022.1.1,None,
,,,,1,0,1,0,,,,,,,,,,,,,,,,,,,,,,,"{'x': [[1000, 60]], 'y': [[1]], 'audiogram': {}, 'is_init_phase': True, 'is_exam_finished': False, 'threshold_uncertainty_db': 6}",1000,40,0.004405244365040069,False,0.01262033333330237,None,['space'],1,[0.4223172000000659],54.8306867,55.84097770000005,None,1,55.84097770000005,54.8306867,,,cwzopc,001,english,200,2022-07-20_10h32.49.698,Bayesian,2022.1.1,None,
,,,,2,0,2,0,,,,,,,,,,,,,,,,,,,,,,,"{'x': [[1000, 60], [1000, 40]], 'y': [[1], [1]], 'audiogram': {}, 'is_init_phase': True, 'is_exam_finished': False, 'threshold_uncertainty_db': 6}",1000,20,0.0004405244365040069,False,0.001405300000101306,0.19839340000009997,['space'],1,[0.3425461000000496],58.66147609999996,59.663480100000015,None,1,59.663480100000015,58.66147609999996,,,cwzopc,001,english,200,2022-07-20_10h32.49.698,Bayesian,2022.1.1,None,
,,,,3,0,3,0,,,,,,,,,,,,,,,,,,,,,,,"{'x': [[1000, 60], [1000, 40], [1000, 20]], 'y': [[1], [1], [1]], 'audiogram': {}, 'is_init_phase': True, 'is_exam_finished': False, 'threshold_uncertainty_db': 6}",1000,0,4.405244365040069e-05,False,0.008562500000039108,None,None,0,,62.570402400000035,63.57328810000001,None,1,63.57328810000001,62.570402400000035,,,cwzopc,001,english,200,2022-07-20_10h32.49.698,Bayesian,2022.1.1,None,
,,,,4,0,4,0,,,,,,,,,,,,,,,,,,,,,,,"{'x': [[1000, 60], [1000, 40], [1000, 20], [1000, 0]], 'y': [[1], [1], [1], [-1]], 'audiogram': {}, 'is_init_phase': True, 'is_exam_finished': False, 'threshold_uncertainty_db': 6}",,,,True,0.015362833333256276,None,None,0,,65.8277167,66.84071159999996,None,1,66.84071159999996,65.8277167,,,cwzopc,001,english,200,2022-07-20_10h32.49.698,Bayesian,2022.1.1,None,
,,,,5,0,5,0,,,,,,,,,,,,,,,,,,,,,,,"{'x': [[1000, 60], [1000, 40], [1000, 20], [1000, 0]], 'y': [[1], [1], [1], [-1]], 'audiogram': {}, 'is_init_phase': True, 'is_exam_finished': False, 'threshold_uncertainty_db': 6}",1500,10,0.0001527460556607757,False,0.013428266666778654,None,None,0,,69.4422836,70.4418124,None,1,70.4418124,69.4422836,,,cwzopc,001,english,200,2022-07-20_10h32.49.698,Bayesian,2022.1.1,None,
,,,,6,0,6,0,,,,,,,,,,,,,,,,,,,,,,,"{'x': [[1000, 60], [1000, 40], [1000, 20], [1000, 0], [1500, 10]], 'y': [[1], [1], [1], [-1], [-1]], 'audiogram': {}, 'is_init_phase': True, 'is_exam_finished': False, 'threshold_uncertainty_db': 6}",1500,30,0.001527460556607757,False,0.013970566666557716,None,['space'],1,[0.5578567999999677],73.25444140000002,74.28636740000002,None,1,74.28636740000002,73.25444140000002,,,cwzopc,001,english,200,2022-07-20_10h32.49.698,Bayesian,2022.1.1,None,
,,,,7,0,7,0,,,,,,,,,,,,,,,,,,,,,,,"{'x': [[1000, 60], [1000, 40], [1000, 20], [1000, 0], [1500, 10], [1500, 30]], 'y': [[1], [1], [1], [-1], [-1], [1]], 'audiogram': {}, 'is_init_phase': True, 'is_exam_finished': False, 'threshold_uncertainty_db': 6}",2000,10,0.00023657562948074026,False,0.014351366666573995,None,['space'],1,[0.8383188000000246],75.76603169999998,76.76168770000004,None,1,76.76168770000004,75.76603169999998,,,cwzopc,001,english,200,2022-07-20_10h32.49.698,Bayesian,2022.1.1,None,
,,,,8,0,8,0,,,,,,,,,,,,,,,,,,,,,,,"{'x': [[1000, 60], [1000, 40], [1000, 20], [1000, 0], [1500, 10], [1500, 30], [2000, 10]], 'y': [[1], [1], [1], [-1], [-1], [1], [1]], 'audiogram': {}, 'is_init_phase': True, 'is_exam_finished': False, 'threshold_uncertainty_db': 6}",2000,-10,2.3657562948074015e-05,False,0.011438500000053864,None,None,0,,79.47839039999997,80.48970329999997,None,1,80.48970329999997,79.47839039999997,,,cwzopc,001,english,200,2022-07-20_10h32.49.698,Bayesian,2022.1.1,None,
,,,,9,0,9,0,,,,,,,,,,,,,,,,,,,,,,,"{'x': [[1000, 60], [1000, 40], [1000, 20], [1000, 0], [1500, 10], [1500, 30], [2000, 10], [2000, -10]], 'y': [[1], [1], [1], [-1], [-1], [1], [1], [-1]], 'audiogram': {}, 'is_init_phase': True, 'is_exam_finished': False, 'threshold_uncertainty_db': 6}",3000,10,0.00017336842522626576,False,0.009620900000072652,0.20324200000004566,['space'],1,[0.49808100000007016],81.89067490000002,82.90198640000006,None,1,82.90198640000006,81.89067490000002,,,cwzopc,001,english,200,2022-07-20_10h32.49.698,Bayesian,2022.1.1,None,
,,,,10,0,10,0,,,,,,,,,,,,,,,,,,,,,,,"{'x': [[1000, 60], [1000, 40], [1000, 20], [1000, 0], [1500, 10], [1500, 30], [2000, 10], [2000, -10], [3000, 10]], 'y': [[1], [1], [1], [-1], [-1], [1], [1], [-1], [1]], 'audiogram': {}, 'is_init_phase': True, 'is_exam_finished': False, 'threshold_uncertainty_db': 6}",3000,-10,1.7336842522626584e-05,False,0.009681266666575539,None,None,0,,85.21098029999996,86.24325320000003,['space'],0,86.24325320000003,85.21098029999996,[0.32171070000003965],,cwzopc,001,english,200,2022-07-20_10h32.49.698,Bayesian,2022.1.1,None,
,,,,11,0,11,0,,,,,,,,,,,,,,,,,,,,,,,"{'x': [[1000, 60], [1000, 40], [1000, 20], [1000, 0], [1500, 10], [1500, 30], [2000, 10], [2000, -10], [3000, 10], [3000, -10]], 'y': [[1], [1], [1], [-1], [-1], [1], [1], [-1], [1], [-1]], 'audiogram': {}, 'is_init_phase': True, 'is_exam_finished': False, 'threshold_uncertainty_db': 6}",4000,10,0.00026544222211549425,False,0.004128800000103183,0.1928351000000248,['space'],1,[0.5684428000000707],89.19643670000005,90.21253250000007,None,1,90.21253250000007,89.19643670000005,,,cwzopc,001,english,200,2022-07-20_10h32.49.698,Bayesian,2022.1.1,None,
,,,,12,0,12,0,,,,,,,,,,,,,,,,,,,,,,,"{'x': [[1000, 60], [1000, 40], [1000, 20], [1000, 0], [1500, 10], [1500, 30], [2000, 10], [2000, -10], [3000, 10], [3000, -10], [4000, 10]], 'y': [[1], [1], [1], [-1], [-1], [1], [1], [-1], [1], [-1], [1]], 'audiogram': {}, 'is_init_phase': True, 'is_exam_finished': False, 'threshold_uncertainty_db': 6}",,,,True,0.01337373333319647,None,None,0,,92.96210180000003,93.98469690000002,None,1,93.98469690000002,92.96210180000003,,,cwzopc,001,english,200,2022-07-20_10h32.49.698,Bayesian,2022.1.1,None,
,,,,13,0,13,0,,,,,,,,,,,,,,,,,,,,,,,"{'x': [[1000, 60], [1000, 40], [1000, 20], [1000, 0], [1500, 10], [1500, 30], [2000, 10], [2000, -10], [3000, 10], [3000, -10], [4000, 10]], 'y': [[1], [1], [1], [-1], [-1], [1], [1], [-1], [1], [-1], [1]], 'audiogram': {}, 'is_init_phase': True, 'is_exam_finished': False, 'threshold_uncertainty_db': 6}",4000,-10,2.6544222211549425e-05,False,0.008842800000024909,None,None,0,,96.80014549999999,97.7982154,None,1,97.7982154,96.80014549999999,,,cwzopc,001,english,200,2022-07-20_10h32.49.698,Bayesian,2022.1.1,None,
,,,,14,0,14,0,,,,,,,,,,,,,,,,,,,,,,,"{'x': [[1000, 60], [1000, 40], [1000, 20], [1000, 0], [1500, 10], [1500, 30], [2000, 10], [2000, -10], [3000, 10], [3000, -10], [4000, 10], [4000, -10]], 'y': [[1], [1], [1], [-1], [-1], [1], [1], [-1], [1], [-1], [1], [-1]], 'audiogram': {}, 'is_init_phase': True, 'is_exam_finished': False, 'threshold_uncertainty_db': 6}",6000,10,0.00036641226656945183,False,0.008998299999916526,None,['space'],1,[0.5033855000000358],99.06845150000004,100.09052329999997,None,1,100.09052329999997,99.06845150000004,,,cwzopc,001,english,200,2022-07-20_10h32.49.698,Bayesian,2022.1.1,None,
,,,,15,0,15,0,,,,,,,,,,,,,,,,,,,,,,,"{'x': [[1000, 60], [1000, 40], [1000, 20], [1000, 0], [1500, 10], [1500, 30], [2000, 10], [2000, -10], [3000, 10], [3000, -10], [4000, 10], [4000, -10], [6000, 10]], 'y': [[1], [1], [1], [-1], [-1], [1], [1], [-1], [1], [-1], [1], [-1], [1]], 'audiogram': {}, 'is_init_phase': True, 'is_exam_finished': False, 'threshold_uncertainty_db': 6}",6000,-10,3.664122665694518e-05,False,0.008318700000017998,0.20314760000007936,None,0,,102.97328430000005,103.97167400000001,None,1,103.97167400000001,102.97328430000005,,,cwzopc,001,english,200,2022-07-20_10h32.49.698,Bayesian,2022.1.1,None,
,,,,16,0,16,0,,,,,,,,,,,,,,,,,,,,,,,"{'x': [[1000, 60], [1000, 40], [1000, 20], [1000, 0], [1500, 10], [1500, 30], [2000, 10], [2000, -10], [3000, 10], [3000, -10], [4000, 10], [4000, -10], [6000, 10], [6000, -10]], 'y': [[1], [1], [1], [-1], [-1], [1], [1], [-1], [1], [-1], [1], [-1], [1], [-1]], 'audiogram': {}, 'is_init_phase': True, 'is_exam_finished': False, 'threshold_uncertainty_db': 6}",8000,10,0.0005740768107484417,False,0.0019020999999384003,None,['space'],1,[0.48144870000010087],105.37080620000006,106.37426370000003,None,1,106.37426370000003,105.37080620000006,,,cwzopc,001,english,200,2022-07-20_10h32.49.698,Bayesian,2022.1.1,None,
,,,,17,0,17,0,,,,,,,,,,,,,,,,,,,,,,,"{'x': [[1000, 60], [1000, 40], [1000, 20], [1000, 0], [1500, 10], [1500, 30], [2000, 10], [2000, -10], [3000, 10], [3000, -10], [4000, 10], [4000, -10], [6000, 10], [6000, -10], [8000, 10]], 'y': [[1], [1], [1], [-1], [-1], [1], [1], [-1], [1], [-1], [1], [-1], [1], [-1], [1]], 'audiogram': {}, 'is_init_phase': True, 'is_exam_finished': False, 'threshold_uncertainty_db': 6}",,,,True,0.01142953333328478,None,None,0,,108.00794289999999,109.01630569999998,None,1,109.01630569999998,108.00794289999999,,,cwzopc,001,english,200,2022-07-20_10h32.49.698,Bayesian,2022.1.1,None,
,,,,18,0,18,0,,,,,,,,,,,,,,,,,,,,,,,"{'x': [[1000, 60], [1000, 40], [1000, 20], [1000, 0], [1500, 10], [1500, 30], [2000, 10], [2000, -10], [3000, 10], [3000, -10], [4000, 10], [4000, -10], [6000, 10], [6000, -10], [8000, 10]], 'y': [[1], [1], [1], [-1], [-1], [1], [1], [-1], [1], [-1], [1], [-1], [1], [-1], [1]], 'audiogram': {}, 'is_init_phase': True, 'is_exam_finished': False, 'threshold_uncertainty_db': 6}",8000,-10,5.740768107484415e-05,False,0.002765899999985777,None,['space'],1,[0.5561652000000095],110.21551239999997,111.21949730000006,None,1,111.21949730000006,110.21551239999997,,,cwzopc,001,english,200,2022-07-20_10h32.49.698,Bayesian,2022.1.1,None,
,,,,19,0,19,0,,,,,,,,,,,,,,,,,,,,,,,"{'x': [[1000, 60], [1000, 40], [1000, 20], [1000, 0], [1500, 10], [1500, 30], [2000, 10], [2000, -10], [3000, 10], [3000, -10], [4000, 10], [4000, -10], [6000, 10], [6000, -10], [8000, 10], [8000, -10]], 'y': [[1], [1], [1], [-1], [-1], [1], [1], [-1], [1], [-1], [1], [-1], [1], [-1], [1], [1]], 'audiogram': {}, 'is_init_phase': True, 'is_exam_finished': False, 'threshold_uncertainty_db': 6}",750,10,0.00012851978913844324,False,0.007688399999892681,None,['space'],1,[0.6106197000000293],113.45717190000005,114.47561729999995,None,1,114.47561729999995,113.45717190000005,,,cwzopc,001,english,200,2022-07-20_10h32.49.698,Bayesian,2022.1.1,None,
,,,,20,0,20,0,,,,,,,,,,,,,,,,,,,,,,,"{'x': [[1000, 60], [1000, 40], [1000, 20], [1000, 0], [1500, 10], [1500, 30], [2000, 10], [2000, -10], [3000, 10], [3000, -10], [4000, 10], [4000, -10], [6000, 10], [6000, -10], [8000, 10], [8000, -10], [750, 10]], 'y': [[1], [1], [1], [-1], [-1], [1], [1], [-1], [1], [-1], [1], [-1], [1], [-1], [1], [1], [1]], 'audiogram': {}, 'is_init_phase': True, 'is_exam_finished': False, 'threshold_uncertainty_db': 6}",750,-10,1.2851978913844322e-05,False,0.008347600000092825,None,None,0,,117.34335499999997,118.37547840000002,None,1,118.37547840000002,117.34335499999997,,,cwzopc,001,english,200,2022-07-20_10h32.49.698,Bayesian,2022.1.1,None,
,,,,21,0,21,0,,,,,,,,,,,,,,,,,,,,,,,"{'x': [[1000, 60], [1000, 40], [1000, 20], [1000, 0], [1500, 10], [1500, 30], [2000, 10], [2000, -10], [3000, 10], [3000, -10], [4000, 10], [4000, -10], [6000, 10], [6000, -10], [8000, 10], [8000, -10], [750, 10], [750, -10]], 'y': [[1], [1], [1], [-1], [-1], [1], [1], [-1], [1], [-1], [1], [-1], [1], [-1], [1], [1], [1], [-1]], 'audiogram': {}, 'is_init_phase': True, 'is_exam_finished': False, 'threshold_uncertainty_db': 6}",,,,True,0.012065633333236292,None,None,0,,119.452087,120.47851509999998,None,1,120.47851509999998,119.452087,,,cwzopc,001,english,200,2022-07-20_10h32.49.698,Bayesian,2022.1.1,None,
,,,,22,0,22,0,,,,,,,,,,,,,,,,,,,,,,,"{'x': [[1000, 60], [1000, 40], [1000, 20], [1000, 0], [1500, 10], [1500, 30], [2000, 10], [2000, -10], [3000, 10], [3000, -10], [4000, 10], [4000, -10], [6000, 10], [6000, -10], [8000, 10], [8000, -10], [750, 10], [750, -10]], 'y': [[1], [1], [1], [-1], [-1], [1], [1], [-1], [1], [-1], [1], [-1], [1], [-1], [1], [1], [1], [-1]], 'audiogram': {}, 'is_init_phase': True, 'is_exam_finished': False, 'threshold_uncertainty_db': 6}",500,10,0.0002259279721874612,False,0.008694800000057512,None,['space'],1,[0.5595627999999806],122.32454389999998,123.32356900000002,None,1,123.32356900000002,122.32454389999998,,,cwzopc,001,english,200,2022-07-20_10h32.49.698,Bayesian,2022.1.1,None,
,,,,23,0,23,0,,,,,,,,,,,,,,,,,,,,,,,"{'x': [[1000, 60], [1000, 40], [1000, 20], [1000, 0], [1500, 10], [1500, 30], [2000, 10], [2000, -10], [3000, 10], [3000, -10], [4000, 10], [4000, -10], [6000, 10], [6000, -10], [8000, 10], [8000, -10], [750, 10], [750, -10], [500, 10]], 'y': [[1], [1], [1], [-1], [-1], [1], [1], [-1], [1], [-1], [1], [-1], [1], [-1], [1], [1], [1], [-1], [1]], 'audiogram': {}, 'is_init_phase': True, 'is_exam_finished': False, 'threshold_uncertainty_db': 6}",500,-10,2.259279721874613e-05,False,0.012642900000059853,None,None,0,,125.79159249999998,126.80516599999999,None,1,126.80516599999999,125.79159249999998,,,cwzopc,001,english,200,2022-07-20_10h32.49.698,Bayesian,2022.1.1,None,
,,,,24,0,24,0,,,,,,,,,,,,,,,,,,,,,,,"{'x': [[1000, 60], [1000, 40], [1000, 20], [1000, 0], [1500, 10], [1500, 30], [2000, 10], [2000, -10], [3000, 10], [3000, -10], [4000, 10], [4000, -10], [6000, 10], [6000, -10], [8000, 10], [8000, -10], [750, 10], [750, -10], [500, 10], [500, -10]], 'y': [[1], [1], [1], [-1], [-1], [1], [1], [-1], [1], [-1], [1], [-1], [1], [-1], [1], [1], [1], [-1], [1], [-1]], 'audiogram': {}, 'is_init_phase': True, 'is_exam_finished': False, 'threshold_uncertainty_db': 6}",250,10,0.0005296268625886444,False,0.010692600000083985,None,['space'],1,[0.6973656999999776],129.76381090000007,130.775577,None,1,130.775577,129.76381090000007,,,cwzopc,001,english,200,2022-07-20_10h32.49.698,Bayesian,2022.1.1,None,
,,,,25,0,25,0,,,,,,,,,,,,,,,,,,,,,,,"{'x': [[1000, 60], [1000, 40], [1000, 20], [1000, 0], [1500, 10], [1500, 30], [2000, 10], [2000, -10], [3000, 10], [3000, -10], [4000, 10], [4000, -10], [6000, 10], [6000, -10], [8000, 10], [8000, -10], [750, 10], [750, -10], [500, 10], [500, -10], [250, 10]], 'y': [[1], [1], [1], [-1], [-1], [1], [1], [-1], [1], [-1], [1], [-1], [1], [-1], [1], [1], [1], [-1], [1], [-1], [1]], 'audiogram': {}, 'is_init_phase': True, 'is_exam_finished': False, 'threshold_uncertainty_db': 6}",,,,True,0.008484933333420486,None,None,0,,132.00077420000002,133.02325270000006,None,1,133.02325270000006,132.00077420000002,,,cwzopc,001,english,200,2022-07-20_10h32.49.698,Bayesian,2022.1.1,None,
,,,,26,0,26,0,,,,,,,,,,,,,,,,,,,,,,,"{'x': [[1000, 60], [1000, 40], [1000, 20], [1000, 0], [1500, 10], [1500, 30], [2000, 10], [2000, -10], [3000, 10], [3000, -10], [4000, 10], [4000, -10], [6000, 10], [6000, -10], [8000, 10], [8000, -10], [750, 10], [750, -10], [500, 10], [500, -10], [250, 10]], 'y': [[1], [1], [1], [-1], [-1], [1], [1], [-1], [1], [-1], [1], [-1], [1], [-1], [1], [1], [1], [-1], [1], [-1], [1]], 'audiogram': {}, 'is_init_phase': True, 'is_exam_finished': False, 'threshold_uncertainty_db': 6}",250,-10,5.296268625886443e-05,False,0.005371800000148141,None,None,0,,134.73944760000006,135.7693848,None,1,135.7693848,134.73944760000006,,,cwzopc,001,english,200,2022-07-20_10h32.49.698,Bayesian,2022.1.1,None,
,,,,27,0,27,0,,,,,,,,,,,,,,,,,,,,,,,"{'x': [[1000, 60], [1000, 40], [1000, 20], [1000, 0], [1500, 10], [1500, 30], [2000, 10], [2000, -10], [3000, 10], [3000, -10], [4000, 10], [4000, -10], [6000, 10], [6000, -10], [8000, 10], [8000, -10], [750, 10], [750, -10], [500, 10], [500, -10], [250, 10], [250, -10]], 'y': [[1], [1], [1], [-1], [-1], [1], [1], [-1], [1], [-1], [1], [-1], [1], [-1], [1], [1], [1], [-1], [1], [-1], [1], [-1]], 'audiogram': {}, 'is_init_phase': True, 'is_exam_finished': False, 'threshold_uncertainty_db': 6}",125,10,0.002285440948074376,False,0.009282700000198929,None,['space'],1,[0.6134410000000798],137.29553380000004,138.30452349999996,None,1,138.30452349999996,137.29553380000004,,,cwzopc,001,english,200,2022-07-20_10h32.49.698,Bayesian,2022.1.1,None,
,,,,28,0,28,0,,,,,,,,,,,,,,,,,,,,,,,"{'x': [[1000, 60], [1000, 40], [1000, 20], [1000, 0], [1500, 10], [1500, 30], [2000, 10], [2000, -10], [3000, 10], [3000, -10], [4000, 10], [4000, -10], [6000, 10], [6000, -10], [8000, 10], [8000, -10], [750, 10], [750, -10], [500, 10], [500, -10], [250, 10], [250, -10], [125, 10]], 'y': [[1], [1], [1], [-1], [-1], [1], [1], [-1], [1], [-1], [1], [-1], [1], [-1], [1], [1], [1], [-1], [1], [-1], [1], [-1], [1]], 'audiogram': {}, 'is_init_phase': True, 'is_exam_finished': False, 'threshold_uncertainty_db': 6}",125,-10,0.0002285440948074376,False,0.002274800000009236,0.19120410000004995,None,0,,140.5266686,141.5199973,None,1,141.5199973,140.5266686,,,cwzopc,001,english,200,2022-07-20_10h32.49.698,Bayesian,2022.1.1,None,
,,,,29,0,29,0,,,,,,,,,,,,,,,,,,,,,,,"{'x': [[1000, 60], [1000, 40], [1000, 20], [1000, 0], [1500, 10], [1500, 30], [2000, 10], [2000, -10], [3000, 10], [3000, -10], [4000, 10], [4000, -10], [6000, 10], [6000, -10], [8000, 10], [8000, -10], [750, 10], [750, -10], [500, 10], [500, -10], [250, 10], [250, -10], [125, 10], [125, -10]], 'y': [[1], [1], [1], [-1], [-1], [1], [1], [-1], [1], [-1], [1], [-1], [1], [-1], [1], [1], [1], [-1], [1], [-1], [1], [-1], [1], [-1]], 'audiogram': {}, 'is_init_phase': True, 'is_exam_finished': False, 'threshold_uncertainty_db': 6}",,,,True,0.009540033333450992,0.21036453333340432,None,0,,143.04818090000003,144.05606439999997,None,1,144.05606439999997,143.04818090000003,,,cwzopc,001,english,200,2022-07-20_10h32.49.698,Bayesian,2022.1.1,None,
,,,,30,0,30,0,,,,,,,,,,,,,,,,,,,,,,,"{'x': [[1000, 60], [1000, 40], [1000, 20], [1000, 0], [1500, 10], [1500, 30], [2000, 10], [2000, -10], [3000, 10], [3000, -10], [4000, 10], [4000, -10], [6000, 10], [6000, -10], [8000, 10], [8000, -10], [750, 10], [750, -10], [500, 10], [500, -10], [250, 10], [250, -10], [125, 10], [125, -10]], 'y': [[1], [1], [1], [-1], [-1], [1], [1], [-1], [1], [-1], [1], [-1], [1], [-1], [1], [1], [1], [-1], [1], [-1], [1], [-1], [1], [-1]], 'audiogram': {}, 'is_init_phase': True, 'is_exam_finished': False, 'threshold_uncertainty_db': 6}",353.5533905932738,0.0,8.861233020703779e-05,False,0.010458133333372643,None,None,0,,146.87869020000005,147.9151362,None,1,147.9151362,146.87869020000005,,,cwzopc,001,english,200,2022-07-20_10h32.49.698,Bayesian,2022.1.1,None,
,,,,31,0,31,0,,,,,,,,,,,,,,,,,,,,,,,,176.7766952966369,0.0,0.0003500209769801159,False,0.004840400000034606,None,None,0,,151.5236139,152.55295560000002,['space'],0,152.55295560000002,151.5236139,[0.09998219999999947],,cwzopc,001,english,200,2022-07-20_10h32.49.698,Bayesian,2022.1.1,None,
,,,,32,0,32,0,,,,,,,,,,,,,,,,,,,,,,,,8000.0,-9.0,6.441247758465671e-05,False,0.009010899999907451,None,['space'],1,[0.6084475000001248],156.5079859,157.5020161,None,1,157.5020161,156.5079859,,,cwzopc,001,english,200,2022-07-20_10h32.49.698,Bayesian,2022.1.1,None,
,,,,33,0,33,0,,,,,,,,,,,,,,,,,,,,,,,,,,,True,0.013274333333470167,None,None,0,,159.22408919999998,160.25206079999998,None,1,160.25206079999998,159.22408919999998,,,cwzopc,001,english,200,2022-07-20_10h32.49.698,Bayesian,2022.1.1,None,
,,,,34,0,34,0,,,,,,,,,,,,,,,,,,,,,,,,615.5722066724584,1.0,5.99330541482996e-05,False,0.002068099999974038,0.19557239999994636,['space'],1,[-1.1912859000000253],163.40360910000004,164.42418540000006,None,1,164.42418540000006,163.40360910000004,,,cwzopc,001,english,200,2022-07-20_10h32.49.698,Bayesian,2022.1.1,None,
,,,,35,0,35,0,,,,,,,,,,,,,,,,,,,,,,,,125.0,2.0,0.000909850429304992,False,0.008890666666729885,None,None,0,,168.19622479999998,169.21643059999997,None,1,169.21643059999997,168.19622479999998,,,cwzopc,001,english,200,2022-07-20_10h32.49.698,Bayesian,2022.1.1,None,
,,,,36,0,36,0,,,,,,,,,,,,,,,,,,,,,,,,2828.42712474619,0.0,6.548596627134577e-05,False,0.0008405000000948348,None,None,0,,173.2153985,174.2410539,None,1,174.2410539,173.2153985,,,cwzopc,001,english,200,2022-07-20_10h32.49.698,Bayesian,2022.1.1,None,
,,,,37,0,37,0,,,,,,,,,,,,,,,,,,,,,,,,1071.7734625362941,9.0,0.0001326176592729934,False,0.01363960000003317,None,['space'],1,[0.6143641000001026],176.87751749999995,177.88892520000002,None,1,177.88892520000002,176.87751749999995,,,cwzopc,001,english,200,2022-07-20_10h32.49.698,Bayesian,2022.1.1,None,
,,,,38,0,38,0,,,,,,,,,,,,,,,,,,,,,,,,,,,True,0.013234433333309426,None,None,0,,180.14878929999998,181.17628790000003,None,1,181.17628790000003,180.14878929999998,,,cwzopc,001,english,200,2022-07-20_10h32.49.698,Bayesian,2022.1.1,None,
,,,,39,0,39,0,,,,,,,,,,,,,,,,,,,,,,,,4594.793419988137,1.0,0.0001401013622855946,False,0.012133699999935743,None,['space'],1,[0.6056460999999445],185.5499992,186.57950039999992,None,1,186.57950039999992,185.5499992,,,cwzopc,001,english,200,2022-07-20_10h32.49.698,Bayesian,2022.1.1,None,
,,,,40,0,40,0,,,,,,,,,,,,,,,,,,,,,,,,233.2582478842019,4.0,0.0003174271533696166,False,0.00611879999996745,None,None,0,,188.94645300000002,189.96320859999992,None,1,189.96320859999992,188.94645300000002,,,cwzopc,001,english,200,2022-07-20_10h32.49.698,Bayesian,2022.1.1,None,
,,,,41,0,41,0,,,,,,,,,,,,,,,,,,,,,,,,406.12619817811805,3.0,0.0001076937612164121,False,0.016163866666829563,None,None,0,,193.5345566000001,194.53441380000004,None,1,194.53441380000004,193.5345566000001,,,cwzopc,001,english,200,2022-07-20_10h32.49.698,Bayesian,2022.1.1,None,
,,,,42,0,42,0,,,,,,,,,,,,,,,,,,,,,,,,,,,True,0.014415633333328515,None,None,0,,196.99849659999995,198.00671080000006,None,1,198.00671080000006,196.99849659999995,,,cwzopc,001,english,200,2022-07-20_10h32.49.698,Bayesian,2022.1.1,None,
,,,,43,0,43,0,,,,,,,,,,,,,,,,,,,,,,,,164.93848884661182,7.0,0.0008801206631839937,False,0.0028448000000480533,0.19025710000005347,['space'],1,[0.7552875000000085],200.2251288,201.24136109999995,None,1,201.24136109999995,200.2251288,,,cwzopc,001,english,200,2022-07-20_10h32.49.698,Bayesian,2022.1.1,None,
,,,,44,0,44,0,,,,,,,,,,,,,,,,,,,,,,,,353.5533905932738,8.0,0.0002225841099115047,False,0.012523066666744853,None,['space'],1,[0.7770795000000135],204.94788199999994,205.94683370000007,None,1,205.94683370000007,204.94788199999994,,,cwzopc,001,english,200,2022-07-20_10h32.49.698,Bayesian,2022.1.1,None,
,,,,45,0,45,0,,,,,,,,,,,,,,,,,,,,,,,,1515.7165665103996,10.0,0.00015694472252028552,False,0.00041423333345846913,0.1890699333334851,None,0,,209.13099119999993,210.1403170000001,None,1,210.1403170000001,209.13099119999993,,,cwzopc,001,english,200,2022-07-20_10h32.49.698,Bayesian,2022.1.1,None,
,,,,46,0,46,0,,,,,,,,,,,,,,,,,,,,,,,,757.8582832551998,-2.0,3.199889122806967e-05,False,0.01493866666669419,None,None,0,,212.63113199999998,213.64839920000009,None,1,213.64839920000009,212.63113199999998,,,cwzopc,001,english,200,2022-07-20_10h32.49.698,Bayesian,2022.1.1,None,
,,,,47,0,47,0,,,,,,,,,,,,,,,,,,,,,,,,,,,True,0.013995033333230822,None,None,0,,216.2524249999999,217.25984210000001,None,1,217.25984210000001,216.2524249999999,,,cwzopc,001,english,200,2022-07-20_10h32.49.698,Bayesian,2022.1.1,None,
,,,,48,0,48,0,,,,,,,,,,,,,,,,,,,,,,,,3732.1319661472303,0.0,7.923801780976663e-05,False,0.003231299999924886,None,None,0,,219.99466239999992,221.00745099999995,['space'],0,221.00745099999995,219.99466239999992,[-0.0032665999998471307],,cwzopc,001,english,200,2022-07-20_10h32.49.698,Bayesian,2022.1.1,None,
,,,,49,0,49,0,,,,,,,,,,,,,,,,,,,,,,,,2462.2888266898335,5.0,0.0001512594960919176,False,0.016523633333463295,None,['space'],1,[0.7669247000002315],225.25414969999997,226.27987239999993,None,1,226.27987239999993,225.25414969999997,,,cwzopc,001,english,200,2022-07-20_10h32.49.698,Bayesian,2022.1.1,None,
,,,,50,0,50,0,,,,,,,,,,,,,,,,,,,,,,,,535.8867312681471,1.0,7.388082491012497e-05,False,0.009035466666546199,None,None,0,,229.88578899999993,230.895851,None,1,230.895851,229.88578899999993,,,cwzopc,001,english,200,2022-07-20_10h32.49.698,Bayesian,2022.1.1,None,
,,,,51,0,51,0,,,,,,,,,,,,,,,,,,,,,,,,,,,True,0.01255813333318656,None,None,0,,232.30253470000002,233.31585610000002,None,1,233.31585610000002,232.30253470000002,,,cwzopc,001,english,200,2022-07-20_10h32.49.698,Bayesian,2022.1.1,None,
,,,,52,0,52,0,,,,,,,,,,,,,,,,,,,,,,,,125.0,5.0,0.0012851978913844323,False,0.002525933333345165,None,['space'],1,[0.6553755999999566],236.79626159999998,237.81099889999996,None,1,237.81099889999996,236.79626159999998,,,cwzopc,001,english,200,2022-07-20_10h32.49.698,Bayesian,2022.1.1,None,
,,,,53,0,53,0,,,,,,,,,,,,,,,,,,,,,,,,5656.85424949238,-6.0,6.441443068498752e-05,False,0.013479866666557427,None,None,0,,241.1395433,242.1505669999999,None,1,242.1505669999999,241.1395433,,,cwzopc,001,english,200,2022-07-20_10h32.49.698,Bayesian,2022.1.1,None,
,,,,54,0,54,0,,,,,,,,,,,,,,,,,,,,,,,,933.0329915368076,4.0,6.680184963918049e-05,False,0.0011451000000306522,0.19396280000000843,None,0,,244.50702980000005,245.52056199999993,['space'],0,245.52056199999993,244.50702980000005,[0.06706079999992198],,cwzopc,001,english,200,2022-07-20_10h32.49.698,Bayesian,2022.1.1,None,
,,,,55,0,55,0,,,,,,,,,,,,,,,,,,,,,,,,287.17458874925893,6.0,0.0002555923582352803,False,0.009011866666696733,None,None,0,,248.5874397,249.5934115,['space'],0,249.5934115,248.5874397,[0.1464840000002141],,cwzopc,001,english,200,2022-07-20_10h32.49.698,Bayesian,2022.1.1,None,
,,,,56,0,56,0,,,,,,,,,,,,,,,,,,,,,,,,,,,True,0.012492233332977776,None,None,0,,250.95620430000008,251.96237900000006,None,1,251.96237900000006,250.95620430000008,,,cwzopc,001,english,200,2022-07-20_10h32.49.698,Bayesian,2022.1.1,None,
,,,,57,0,57,0,,,,,,,,,,,,,,,,,,,,,,,,189.4645708137998,5.0,0.0005402626577628941,False,0.009071599999970203,None,None,0,,255.92023790000007,256.9346385000001,None,1,256.9346385000001,255.92023790000007,,,cwzopc,001,english,200,2022-07-20_10h32.49.698,Bayesian,2022.1.1,None,
,,,,58,0,58,0,,,,,,,,,,,,,,,,,,,,,,,,2000.0,6.0,0.00014926913094589803,False,0.004746500000010201,None,['space'],1,[0.5224940000001652],260.8826822000001,261.9020531000001,None,1,261.9020531000001,260.8826822000001,,,cwzopc,001,english,200,2022-07-20_10h32.49.698,Bayesian,2022.1.1,None,
,,,,59,0,59,0,,,,,,,,,,,,,,,,,,,,,,,,3482.202253184498,3.0,0.0001057294605034332,False,0.012966133333293328,0.21112593333327823,['space'],1,[0.5955232000000024],264.9926138000001,266.01072410000006,None,1,266.01072410000006,264.9926138000001,,,cwzopc,001,english,200,2022-07-20_10h32.49.698,Bayesian,2022.1.1,None,
,,,,60,0,60,0,,,,,,,,,,,,,,,,,,,,,,,,,,,True,0.013340033333179235,None,None,0,,268.3402314,269.3478941000001,None,1,269.3478941000001,268.3402314,,,cwzopc,001,english,200,2022-07-20_10h32.49.698,Bayesian,2022.1.1,None,
,,,,61,0,61,0,,,,,,,,,,,,,,,,,,,,,,,,8000.0,-12.0,4.560054196779548e-05,False,0.013685866666492075,None,['space'],1,[0.6332403000000113],273.65221539999993,274.67489969999997,None,1,274.67489969999997,273.65221539999993,,,cwzopc,001,english,200,2022-07-20_10h32.49.698,Bayesian,2022.1.1,None,
,,,,62,0,62,0,,,,,,,,,,,,,,,,,,,,,,,,757.8582832551998,2.0,5.071482487367129e-05,False,0.012711399999943751,0.2080447999999251,None,0,,278.20759539999995,279.2357202999999,None,1,279.2357202999999,278.20759539999995,,,cwzopc,001,english,200,2022-07-20_10h32.49.698,Bayesian,2022.1.1,None,
,,,,63,0,63,0,,,,,,,,,,,,,,,,,,,,,,,,1231.1444133449168,11.0,0.00019060770296529212,False,0.013433833333237999,None,['space'],1,[0.7853736000000708],283.0342223,284.05171270000005,None,1,284.05171270000005,283.0342223,,,cwzopc,001,english,200,2022-07-20_10h32.49.698,Bayesian,2022.1.1,None,
,,,,64,0,64,0,,,,,,,,,,,,,,,,,,,,,,,,,,,True,0.006043833333251314,None,None,0,,285.17892830000005,286.1871377,None,1,286.1871377,285.17892830000005,,,cwzopc,001,english,200,2022-07-20_10h32.49.698,Bayesian,2022.1.1,None,
,,,,65,0,65,0,,,,,,,,,,,,,,,,,,,,,,,,8000.0,-14.0,3.622179800374953e-05,False,0.008074300000316725,None,None,0,,289.6636665000001,290.6806131999999,None,1,290.6806131999999,289.6636665000001,,,cwzopc,001,english,200,2022-07-20_10h32.49.698,Bayesian,2022.1.1,None,
,,,,66,0,66,0,,,,,,,,,,,,,,,,,,,,,,,,466.5164957684038,4.0,0.00011594380644503983,False,0.00042069999994964746,0.1866244000000279,['space'],1,[0.7641288000000941],294.90509670000006,295.9085421,None,1,295.9085421,294.90509670000006,,,cwzopc,001,english,200,2022-07-20_10h32.49.698,Bayesian,2022.1.1,None,
,,,,67,0,67,0,,,,,,,,,,,,,,,,,,,,,,,,466.5164957684038,4.0,0.00011594380644503983,False,None,None,None,0,,None,None,None,1,None,None,,"{'estimation': [[125.0, 3.1029586155057256], [133.9716828170366, 3.4521587041926782], [143.5872943746293, 3.9264843406413945], [144.82595361303188, 4.0], [153.89305166811442, 4.518628407903087], [161.69678004794588, 5.0], [164.93848884661162, 5.1951091177104205], [176.77669529663666, 5.89549327517948], [178.6823764517129, 5.999999999999999], [189.46457081379947, 6.566600393381808], [199.68468558545808, 7.0], [203.0630990890585, 7.140492597983388], [217.6376408240306, 7.565784481606322], [233.25824788420132, 7.818573845899522], [249.99999999999937, 7.899582780124295], [267.94336563407256, 7.823623790394164], [287.1745887492579, 7.618319380339361], [307.78610333622805, 7.308224635178409], [324.3707746380005, 7.0], [329.87697769322244, 6.900648495033222], [353.55339059327247, 6.413360172591144], [371.5227172628296, 6.0], [378.929141627598, 5.833242802693403], [406.12619817811606, 5.179917103400358], [413.3089931356393, 5.0], [435.2752816480601, 4.466518661113333], [455.28625490937395, 4.0], [466.5164957684015, 3.745531665775763], [499.9999999999975, 3.0940458950170058], [506.29358758002024, 3.0], [535.8867312681438, 2.5826949646160355], [574.3491774985143, 2.2873881381570387], [615.5722066724546, 2.2414783890691052], [659.7539553864432, 2.446569919492394], [707.1067811865431, 2.86680171705992], [718.1774379790401, 3.0], [757.8582832551941, 3.457909470134443], [799.4836387321586, 4.0], [812.2523963562301, 4.161245385309872], [870.550563296117, 4.945713403216955], [874.2984255280991, 5.0], [933.0329915368008, 5.810490103672865], [946.022779908424, 6.0], [999.9999999999926, 6.7537326557169965], [1017.0692327191096, 7.0], [1071.773462536285, 7.7578574181035425], [1089.7084081055539, 8.0], [1148.698354997026, 8.764429412170614], [1169.5639296970037, 9.0], [1231.1444133449063, 9.663953319519575], [1276.135984349637, 10.0], [1319.5079107728832, 10.310816631830267], [1414.2135623730828, 10.545527686064085], [1515.7165665103846, 10.272489372004689], [1551.6709524063633, 10.0], [1624.5047927124563, 9.461311896220947], [1666.9590007973384, 9.0], [1741.1011265922318, 8.20069527069938], [1757.4673179756012, 8.0], [1837.267554713529, 7.0], [1866.065983073597, 6.653614237667399], [1920.367932940076, 6.0], [1999.9999999999802, 5.053922163742934], [2005.309935432318, 5.0], [2103.0391208534606, 4.0], [2143.5469250725646, 3.6037710771639317], [2224.5135707567024, 3.0], [2297.396709994046, 2.474073316090154], [2401.289132867345, 2.0], [2462.2888266898062, 1.7297810020444646], [2639.01582154576, 1.357996047207937], [2828.427124746159, 1.262032003682652], [3031.4331330207615, 1.3176841785985536], [3249.0095854249043, 1.4017923300165425], [3482.2022531844555, 1.4168497282784926], [3732.1319661471844, 1.2974970514784936], [3998.5373279232067, 1.0], [3999.9999999999504, 0.9983837657049773], [4287.093850145118, 0.4937651097128235], [4489.357097662364, 0.0], [4594.793419988076, -0.2529735132497361], [4835.675031711316, -1.0], [4924.577653379607, -1.269696621102622], [5120.349157988223, -2.0], [5278.031643091506, -2.575861461421648], [5379.199153522296, -3.0], [5615.397437296793, -4.0], [5656.854249492303, -4.166464244181022], [5843.016662307264, -5.0], [6062.866266041508, -5.963762795495114], [6071.16439746573, -6.0], [6296.352780420839, -7.0], [6498.019170849792, -7.844205341031272], [6537.201902927207, -8.0], [6789.040688616209, -9.0], [6964.4045063688845, -9.630994879265149], [7082.164936279247, -10.0], [7418.772592699375, -11.0], [7464.2639322943505, -11.123307360784905], [7929.553206351821, -12.0], [7999.999999999872, -12.128593140672722]], 'plus_line': [[125.0, 0.20853726087737068], [133.9716828170366, 0.6297915191744465], [141.16486452457409, 1.0], [143.5872943746293, 1.1109061216383296], [153.89305166811442, 1.6704494147874251], [158.9385447333755, 2.0], [164.93848884661162, 2.3548933099471645], [175.143858222575, 3.0], [176.77669529663666, 3.095095146765415], [189.46457081379947, 3.7717555556639937], [194.45801065057245, 4.0], [203.0630990890585, 4.350443251699198], [217.6376408240306, 4.780146280120538], [229.78697508004757, 5.0], [233.25824788420132, 5.054303571377303], [249.99999999999937, 5.139213009197575], [267.94336563407256, 5.071690909171241], [274.6987063117537, 5.0], [287.1745887492579, 4.854383394097951], [307.78610333622805, 4.525656315566641], [329.87697769322244, 4.127073979314968], [335.8378396764303, 4.0], [353.55339059327247, 3.6059884897289014], [378.929141627598, 3.0199910721492498], [379.7017260666699, 3.0], [406.12619817811606, 2.308341624963168], [418.1515928339344, 2.0], [435.2752816480596, 1.553642282210511], [459.11868334217303, 1.0], [466.5164957684015, 0.8243536333263326], [499.9999999999975, 0.1826060009150846], [513.6563078913234, 0.0], [535.8867312681438, -0.3076846800949299], [574.3491774985143, -0.5694703773843661], [615.5722066724546, -0.5835632983498787], [659.7539553864432, -0.35579938206314077], [695.6711088242125, 0.0], [707.1067811865431, 0.10024213648087998], [757.8582832551951, 0.6897439307290891], [780.110994761189, 1.0], [812.2523963562301, 1.4100814424760704], [853.8398556613589, 2.0], [870.5505632961181, 2.2223058627149306], [925.0894298544304, 3.0], [933.0329915368008, 3.107844317684937], [995.3872742987877, 4.0], [999.9999999999926, 4.063462125166216], [1066.2124988187886, 5.0], [1071.773462536285, 5.076004533839043], [1141.134322025921, 6.0], [1148.6983549970246, 6.097043985965995], [1228.653614230374, 7.0], [1231.1444133449063, 7.026682940509506], [1319.5079107728832, 7.679601363087368], [1414.2135623730828, 7.950375998431195], [1515.7165665103846, 7.642947854270096], [1597.8544802385265, 7.0], [1624.5047927124563, 6.787250638813068], [1690.7817521021248, 6.0], [1741.1011265922318, 5.441364975007758], [1773.8677631227577, 5.0], [1850.9035439873169, 4.0], [1866.065983073597, 3.817675042670863], [1927.5204006088738, 3.0], [1999.9999999999802, 2.145392923050509], [2013.526079233281, 2.0], [2106.281914202727, 1.0], [2143.5469250725646, 0.6369231993635466], [2226.7475153927785, 0.0], [2297.396709994046, -0.511682159171868], [2408.9236605541555, -1.0], [2462.2888266898062, -1.236331978392153], [2639.01582154576, -1.5757216016876234], [2828.427124746159, -1.6152683979627225], [3031.4331330207656, -1.4993859011504367], [3249.0095854249043, -1.3604885316158466], [3482.202253184451, -1.3144469602073188], [3732.1319661471844, -1.4381749223926321], [3999.999999999946, -1.7530346115400812], [4133.666394409109, -2.0], [4287.093850145118, -2.299098825995835], [4571.047606859279, -3.0], [4594.793419988076, -3.0598169776749558], [4890.145727899929, -4.0], [4924.577653379601, -4.1050384883918545], [5151.962584109508, -5.0], [5278.0316430915, -5.449888459798971], [5400.95993788051, -6.0], [5646.3106863158055, -7.0], [5656.854249492303, -7.040020567502938], [5856.617773887315, -8.0], [6062.866266041508, -8.837729829679088], [6099.453593732463, -9.0], [6319.641798477989, -10.0], [6498.019170849792, -10.670505837600883], [6582.663554572943, -11.0], [6852.772326036953, -12.0], [6964.404506368902, -12.353486180556125], [7182.301323222628, -13.0], [7464.2639322943505, -13.735785659598779], [7599.096629726223, -14.0], [7999.999999999872, -14.773174190807328]], 'minus_line': [[125.0, 5.940735971559299], [126.96052266823173, 6.0], [133.9716828170366, 6.222725665417936], [143.5872943746293, 6.7192835125804615], [148.2175151753834, 7.0], [153.89305166811442, 7.360358054165144], [164.25095475403893, 8.0], [164.93848884661162, 8.044473716584484], [176.77669529663666, 8.770972682436817], [181.04987406473757, 9.0], [189.46457081379947, 9.46297597627149], [202.3681083759208, 10.0], [203.0630990890585, 10.030804567315052], [217.6376408240306, 10.484267118712669], [233.25824788420132, 10.7236505959306], [249.99999999999937, 10.781318204104469], [267.94336563407256, 10.689666773094416], [287.1745887492579, 10.476911782502857], [307.78610333622805, 10.152832026780173], [315.5911431334905, 10.0], [329.87697769322244, 9.757847972835018], [353.55339059327247, 9.292857166491522], [366.47758494235586, 9.0], [378.929141627598, 8.74519843534238], [406.12619817811606, 8.127871349479369], [411.3462195331897, 8.0], [435.2752816480601, 7.463349446058842], [455.0647761233628, 7.000000000000001], [466.5164957684015, 6.751650227508172], [499.9999999999975, 6.0780789420627865], [504.7430947277154, 6.0], [535.8867312681438, 5.551979668819051], [574.3491774985143, 5.218555584928987], [615.5722066724546, 5.147834337596152], [659.7539553864432, 5.35389034260211], [707.1067811865431, 5.764235138572407], [728.0613417259924, 6.0], [757.8582832551941, 6.347249435501535], [812.0385218343124, 7.0], [812.2523963562301, 7.0026524108630435], [870.5505632961181, 7.766987261850486], [887.7419102829613, 8.0], [933.0329915368008, 8.597492809422842], [962.1045496288887, 9.0], [999.9999999999914, 9.506021575253536], [1035.4939888048043, 10.0], [1071.773462536285, 10.483375991688835], [1111.2919389707818, 11.0], [1148.698354997026, 11.469643948141782], [1198.1199354344258, 12.0], [1231.1444133449063, 12.348853307213911], [1319.5079107728832, 12.954630778955078], [1338.6454077898843, 13.0], [1414.2135623730828, 13.197489913282435], [1482.8734830119988, 13.0], [1515.7165665103846, 12.919655083934096], [1624.5047927124563, 12.147474263135795], [1638.61951014174, 12.0], [1733.1087679406135, 11.0], [1741.1011265922318, 10.917615117646957], [1819.599047944357, 10.0], [1866.065983073597, 9.432105107442787], [1904.4590302971367, 9.0], [1986.793328675545, 8.0], [1999.9999999999802, 7.847382255278938], [2086.9766118063158, 7.0], [2143.5469250725646, 6.433694215349783], [2202.596025701485, 6.0], [2297.396709994046, 5.311037882229748], [2363.390691207252, 5.0], [2462.2888266898062, 4.568142172856923], [2639.01582154576, 4.1776476851206805], [2828.427124746159, 4.048778598077532], [3031.4331330207615, 4.074607430594923], [3249.0095854249043, 4.131342959575929], [3482.2022531844555, 4.128726510684687], [3732.1319661471844, 4.006643232789572], [3738.2531510261715, 4.0], [3999.9999999999504, 3.7593695301449506], [4287.093850145118, 3.3132768686298286], [4421.688071917086, 3.0], [4594.793419988081, 2.623390323484392], [4807.004200436387, 2.0], [4924.577653379601, 1.6602498062964557], [5113.389511530362, 1.0], [5278.031643091506, 0.406071945524042], [5381.597450132362, 0.0], [5617.894878487311, -1.0], [5656.854249492303, -1.1598792227681627], [5855.056619399331, -2.0], [6062.866266041508, -2.9801848978328254], [6067.54048877957, -3.0], [6298.091160301431, -4.0], [6498.019170849792, -4.949115233045525], [6510.744292716838, -5.0], [6755.792494930361, -6.0], [6964.404506368894, -6.893571242404871], [6996.487629523586, -7.0], [7296.762121627125, -8.0], [7464.2639322943505, -8.536946648055153], [7695.085442967089, -9.0], [7999.999999999882, -9.5790794032362]]}",cwzopc,001,english,200,2022-07-20_10h32.49.698,Bayesian,2022.1.1,None,
