frequencies,training_trials.thisRepN,training_trials.thisTrialN,training_trials.thisN,training_trials.thisIndex,frequencies.thisRepN,frequencies.thisTrialN,frequencies.thisN,frequencies.thisIndex,trials.thisRepN,trials.thisTrialN,trials.thisN,trials.thisIndex,tFrequency,tLevel,tCorrect,Tprobe.started,Tprobe.stopped,tTriangle_cue.started,tTriangle_cue.stopped,Tfeedback.keys,Tfeedback.corr,Tfeedback.rt,Tfeedback.started,Tfeedback.stopped,reversals_nTrials.routineEndVal,track_dir.routineEndVal,step_up.routineEndVal,Correct,Frequency,Level,Psychopy_Level,Direction,Reversals,Track_dir,Step,probe.started,probe.stopped,cross_cue.started,cross_cue.stopped,circle_cue.started,circle_cue.stopped,triangle_cue.started,triangle_cue.stopped,feedback.keys,feedback.corr,feedback.rt,feedback.started,feedback.stopped,memo.started,memo.stopped,participant,session,skip_training,language (english or french),date,expName,psychopyVersion,frameRate,
200,0,0,0,0,,,,,,,,,200,30,left,79.29824526666586,None,81.23627809999743,None,right,0,2.612615600010031,78.80104479999864,None,,,,,,,,,,,,,,,,,,,,,,,,,,,ttuwra,001,0,fr,2022-04-26_11h15.12.032,3-AFC_adaptive_staircase_mess,2022.1.1,None,
850,0,1,1,2,,,,,,,,,850,30,up,92.09642046667092,None,93.06013549999625,None,right,0,2.4901331000146456,90.6349831999978,None,,,,,,,,,,,,,,,,,,,,,,,,,,,ttuwra,001,0,fr,2022-04-26_11h15.12.032,3-AFC_adaptive_staircase_mess,2022.1.1,None,
450,0,2,2,1,,,,,,,,,450,30,up,95.64666616666752,None,96.61674450000282,96.93009870000242,up,1,26.671949600000517,94.18162089999532,None,,,,,,,,,,,,,,,,,,,,,,,,,,,ttuwra,001,0,fr,2022-04-26_11h15.12.032,3-AFC_adaptive_staircase_mess,2022.1.1,None,
1300,0,3,3,3,,,,,,,,,1300,30,left,122.38028426666666,None,None,None,left,1,1.0081468999997014,121.90960330000962,None,,,,,,,,,,,,,,,,,,,,,,,,,,,ttuwra,001,0,fr,2022-04-26_11h15.12.032,3-AFC_adaptive_staircase_mess,2022.1.1,None,
5000,0,4,4,4,,,,,,,,,5000,30,left,126.5741885666687,None,None,None,left,1,1.1861863000085577,126.09984799999802,None,,,,,,,,,,,,,,,,,,,,,,,,,,,ttuwra,001,0,fr,2022-04-26_11h15.12.032,3-AFC_adaptive_staircase_mess,2022.1.1,None,
,,,,,0,0,0,0,0,0,0,0,,,,,,,,,,,,,[],[],5,left,1000,50,0.013930605843148852,0,0,-1,5,137.96415326667582,None,137.9190682000044,138.24517360000755,None,None,None,None,left,1,0.6375993999972707,137.97558379999828,None,None,None,ttuwra,001,0,fr,2022-04-26_11h15.12.032,3-AFC_adaptive_staircase_mess,2022.1.1,None,
,,,,,0,0,0,0,1,0,1,0,,,,,,,,,,,,,,,,left,1000,40,0.004405244365040069,-1,0,-1,-10,140.17276426667038,None,140.1306528999994,140.47102140000788,None,None,None,None,left,1,0.6059165000042412,140.18452599999728,None,None,None,ttuwra,001,0,fr,2022-04-26_11h15.12.032,3-AFC_adaptive_staircase_mess,2022.1.1,None,
,,,,,0,0,0,0,2,0,2,0,,,,,,,,,,,,,,,,right,1000,30,0.0013930605843148849,-1,0,-1,-10,None,None,142.28398880000168,142.60279390000505,None,None,None,None,left,0,0.6176023000007262,142.33144039999752,None,None,None,ttuwra,001,0,fr,2022-04-26_11h15.12.032,3-AFC_adaptive_staircase_mess,2022.1.1,None,
,,,,,0,0,0,0,3,0,3,0,,,,,,,,,,,,,,,,left,1000,35,0.002477250954023951,1,1,1,5,144.50932656666944,144.73578380000254,144.46324310000637,144.78960040000675,None,None,None,None,left,1,0.4145226999971783,144.52012200000172,None,None,None,ttuwra,001,0,fr,2022-04-26_11h15.12.032,3-AFC_adaptive_staircase_mess,2022.1.1,None,
,,,,,0,0,0,0,4,0,4,0,,,,,,,,,,,,,,,,left,1000,25,0.0007833755350540744,-1,2,-1,-10,146.48704536667017,None,146.44200490000367,146.77004540000053,None,None,None,None,left,1,0.5458889000001363,146.49955750000663,None,None,None,ttuwra,001,0,fr,2022-04-26_11h15.12.032,3-AFC_adaptive_staircase_mess,2022.1.1,None,
,,,,,0,0,0,0,5,0,5,0,,,,,,,,,,,,,,,,up,1000,15,0.000247725095402395,-1,2,-1,-10,None,None,148.5298710000061,148.84912149999582,None,None,None,None,left,0,0.4280323999992106,148.58565970000927,None,None,None,ttuwra,001,0,fr,2022-04-26_11h15.12.032,3-AFC_adaptive_staircase_mess,2022.1.1,None,
,,,,,0,0,0,0,6,0,6,0,,,,,,,,,,,,,,,,right,1000,20,0.0004405244365040069,1,3,1,2.5,None,None,150.52734390000114,150.8418110000057,None,None,None,None,left,0,0.3803516000043601,150.5859563999984,None,None,None,ttuwra,001,0,fr,2022-04-26_11h15.12.032,3-AFC_adaptive_staircase_mess,2022.1.1,None,
,,,,,0,0,0,0,7,0,7,0,,,,,,,,,,,,,,,,left,1000,22.5,0.0005874487774697646,1,3,1,2.5,152.50688266667228,None,152.46164649999992,152.79687629999535,None,None,None,None,left,1,0.36123290001705755,152.5091403999977,None,None,None,ttuwra,001,0,fr,2022-04-26_11h15.12.032,3-AFC_adaptive_staircase_mess,2022.1.1,None,
,,,,,0,0,0,0,8,0,8,0,,,,,,,,,,,,,,,,up,1000,17.5,0.00033034672400379786,-1,4,-1,-5.0,None,None,154.36855240000295,154.6887035999971,None,None,None,None,left,0,0.7169191000139108,154.42509459999565,None,None,None,ttuwra,001,0,fr,2022-04-26_11h15.12.032,3-AFC_adaptive_staircase_mess,2022.1.1,None,
,,,,,0,0,0,0,9,0,9,0,,,,,,,,,,,,,,,,left,1000,20.0,0.0004405244365040069,1,5,1,2.5,156.68421046667598,None,156.63638940000965,156.96451140000136,None,None,None,None,left,1,0.5552719999977853,156.69858229999954,None,None,None,ttuwra,001,0,fr,2022-04-26_11h15.12.032,3-AFC_adaptive_staircase_mess,2022.1.1,None,
,,,,,0,0,0,0,10,0,10,0,,,,,,,,,,,,,,,,right,1000,15.0,0.000247725095402395,-1,6,-1,-5.0,None,None,158.77213979999942,159.08495600000606,159.78992569999536,None,None,None,left,0,1.1440792000066722,158.82885689999966,None,None,None,ttuwra,001,0,fr,2022-04-26_11h15.12.032,3-AFC_adaptive_staircase_mess,2022.1.1,None,
,,,,,0,0,0,0,11,0,11,0,,,,,,,,,,,,,,,,left,1000,17.5,0.00033034672400379786,1,7,1,2.5,161.519842066675,None,161.47525750000204,161.78806210000766,None,None,None,None,left,1,0.6170232000004034,161.53241759999946,None,None,None,ttuwra,001,0,fr,2022-04-26_11h15.12.032,3-AFC_adaptive_staircase_mess,2022.1.1,None,
,,,,,0,0,0,0,12,0,12,0,,,,,,,,,,,,,,,,right,1000,12.5,0.0001857676145485862,-1,8,-1,-5.0,None,None,163.643233099996,163.95694170000206,None,None,None,None,left,0,0.5461996000085492,163.6998093000002,None,None,None,ttuwra,001,0,fr,2022-04-26_11h15.12.032,3-AFC_adaptive_staircase_mess,2022.1.1,None,
,,,,,1,0,1,0,0,0,0,0,,,,,,,,,,,,,[],[],5,left,1500,50,0.01527460556607757,0,0,-1,5,165.7916375666721,None,165.77497090000543,166.10399479999614,None,None,None,None,left,1,0.5863510000053793,165.80320840000059,None,None,None,ttuwra,001,0,fr,2022-04-26_11h15.12.032,3-AFC_adaptive_staircase_mess,2022.1.1,None,
,,,,,1,0,1,0,1,0,1,0,,,,,,,,,,,,,,,,up,1500,40,0.004830254394949068,-1,0,-1,-10,None,None,167.90939929999877,168.2268977000058,None,None,None,None,left,0,0.6906002000032458,167.93868340000336,None,None,None,ttuwra,001,0,fr,2022-04-26_11h15.12.032,3-AFC_adaptive_staircase_mess,2022.1.1,None,
,,,,,1,0,1,0,2,0,2,0,,,,,,,,,,,,,,,,up,1500,45,0.008589541935787943,1,1,1,5,None,None,170.14340390000143,170.46294680000574,None,None,None,None,left,0,0.5376097000116715,170.20396600000095,None,None,None,ttuwra,001,0,fr,2022-04-26_11h15.12.032,3-AFC_adaptive_staircase_mess,2022.1.1,None,
,,,,,1,0,1,0,3,0,3,0,,,,,,,,,,,,,,,,up,1500,50,0.01527460556607757,1,1,1,5,None,None,172.22620210000605,172.54396510000515,None,None,None,None,left,0,0.5701831000042148,172.2828251000028,None,None,None,ttuwra,001,0,fr,2022-04-26_11h15.12.032,3-AFC_adaptive_staircase_mess,2022.1.1,None,
,,,,,1,0,1,0,4,0,4,0,,,,,,,,,,,,,,,,right,1500,55,0.027162516574621667,1,1,1,5,None,None,174.35138170000573,174.66763060000085,None,None,None,None,left,0,0.5232154000113951,174.40979780000634,None,None,None,ttuwra,001,0,fr,2022-04-26_11h15.12.032,3-AFC_adaptive_staircase_mess,2022.1.1,None,
,,,,,1,0,1,0,5,0,5,0,,,,,,,,,,,,,,,,left,1500,60,0.048302543949490684,1,1,1,5,176.46876966666994,None,176.42422230000375,176.74968010000885,None,None,None,None,left,1,0.5165798000089126,176.4810662999953,None,None,None,ttuwra,001,0,fr,2022-04-26_11h15.12.032,3-AFC_adaptive_staircase_mess,2022.1.1,None,
,,,,,1,0,1,0,6,0,6,0,,,,,,,,,,,,,,,,left,1500,50,0.01527460556607757,-1,2,-1,-10,178.5549578666726,None,178.50984860000608,178.85351970000193,None,None,None,None,left,1,0.36371010000584647,178.56967620000069,None,None,None,ttuwra,001,0,fr,2022-04-26_11h15.12.032,3-AFC_adaptive_staircase_mess,2022.1.1,None,
,,,,,1,0,1,0,7,0,7,0,,,,,,,,,,,,,,,,right,1500,40,0.004830254394949068,-1,2,-1,-10,None,None,180.41809040000953,180.73895430000266,None,None,None,None,left,0,0.6163836000050651,180.47762540000258,None,None,None,ttuwra,001,0,fr,2022-04-26_11h15.12.032,3-AFC_adaptive_staircase_mess,2022.1.1,None,
,,,,,1,0,1,0,8,0,8,0,,,,,,,,,,,,,,,,up,1500,45,0.008589541935787943,1,3,1,2.5,None,None,182.6231828000018,182.94287820000318,None,None,None,None,left,0,0.47192419999919366,182.65347340000153,None,None,None,ttuwra,001,0,fr,2022-04-26_11h15.12.032,3-AFC_adaptive_staircase_mess,2022.1.1,None,
,,,,,1,0,1,0,9,0,9,0,,,,,,,,,,,,,,,,up,1500,47.5,0.01145433826383887,1,3,1,2.5,None,None,184.63323130000208,184.94205959999817,None,None,None,None,left,0,0.5488191000040388,184.68901869999536,None,None,None,ttuwra,001,0,fr,2022-04-26_11h15.12.032,3-AFC_adaptive_staircase_mess,2022.1.1,None,
,,,,,1,0,1,0,10,0,10,0,,,,,,,,,,,,,,,,left,1500,50.0,0.01527460556607757,1,3,1,2.5,186.77977086666604,None,186.73503300000448,187.06064450000122,None,None,None,None,left,1,0.6062284000072395,186.7913935999968,None,None,None,ttuwra,001,0,fr,2022-04-26_11h15.12.032,3-AFC_adaptive_staircase_mess,2022.1.1,None,
,,,,,1,0,1,0,11,0,11,0,,,,,,,,,,,,,,,,right,1500,45.0,0.008589541935787943,-1,4,-1,-5.0,None,None,188.90162459999556,189.22384230000898,None,None,None,None,left,0,0.5011008000001311,188.96068079999532,None,None,None,ttuwra,001,0,fr,2022-04-26_11h15.12.032,3-AFC_adaptive_staircase_mess,2022.1.1,None,
,,,,,1,0,1,0,12,0,12,0,,,,,,,,,,,,,,,,up,1500,47.5,0.01145433826383887,1,5,1,2.5,None,None,190.995327800003,191.31984280000324,None,None,None,None,left,0,0.5323181999992812,191.02476050000405,None,None,None,ttuwra,001,0,fr,2022-04-26_11h15.12.032,3-AFC_adaptive_staircase_mess,2022.1.1,None,
,,,,,1,0,1,0,13,0,13,0,,,,,,,,,,,,,,,,up,1500,50.0,0.01527460556607757,1,5,1,2.5,None,None,193.06973230000585,193.38830869999947,None,None,None,None,left,0,0.4405808000010438,193.1165902000066,None,None,None,ttuwra,001,0,fr,2022-04-26_11h15.12.032,3-AFC_adaptive_staircase_mess,2022.1.1,None,
,,,,,1,0,1,0,14,0,14,0,,,,,,,,,,,,,,,,up,1500,52.5,0.02036901389020564,1,5,1,2.5,None,None,195.0813932000019,195.3988687000092,None,None,None,None,left,0,0.5592482000065502,195.11083510000026,None,None,None,ttuwra,001,0,fr,2022-04-26_11h15.12.032,3-AFC_adaptive_staircase_mess,2022.1.1,None,
,,,,,1,0,1,0,15,0,15,0,,,,,,,,,,,,,,,,left,1500,55.0,0.027162516574621667,1,5,1,2.5,197.22170806666352,None,197.1780507000076,197.50549920000776,None,None,None,None,left,1,0.41646169999148697,197.23723990000144,None,None,None,ttuwra,001,0,fr,2022-04-26_11h15.12.032,3-AFC_adaptive_staircase_mess,2022.1.1,None,
,,,,,1,0,1,0,16,0,16,0,,,,,,,,,,,,,,,,up,1500,50.0,0.01527460556607757,-1,6,-1,-5.0,200.19368286666966,None,199.15323690000514,199.45499779999955,200.17701620000298,200.50503630000458,None,None,left,0,1.3892918000055943,199.20787490000657,None,None,None,ttuwra,001,0,fr,2022-04-26_11h15.12.032,3-AFC_adaptive_staircase_mess,2022.1.1,None,
,,,,,1,0,1,0,17,0,17,0,,,,,,,,,,,,,,,,left,1500,52.5,0.02036901389020564,1,7,1,2.5,202.1834855666714,None,202.1244646999985,202.43504910000775,None,None,None,None,left,1,0.4825338999944506,202.195229799996,None,None,None,ttuwra,001,0,fr,2022-04-26_11h15.12.032,3-AFC_adaptive_staircase_mess,2022.1.1,None,
,,,,,1,0,1,0,18,0,18,0,,,,,,,,,,,,,,,,up,1500,47.5,0.01145433826383887,-1,8,-1,-5.0,205.2400018666706,205.46202960000664,204.19249339999806,204.50922629999695,205.1935727999953,205.51697969999805,None,None,up,1,1.5792774000001373,204.25007960000949,None,None,None,ttuwra,001,0,fr,2022-04-26_11h15.12.032,3-AFC_adaptive_staircase_mess,2022.1.1,None,
,,,,,2,0,2,0,0,0,0,0,,,,,,,,,,,,,[],[],5,left,2000,50,0.02365756294807403,0,0,-1,5,207.3632041666754,207.59180770000967,207.31485419999808,207.6509892000031,None,None,None,None,left,1,0.46979830000782385,207.3756745999999,None,None,None,ttuwra,001,0,fr,2022-04-26_11h15.12.032,3-AFC_adaptive_staircase_mess,2022.1.1,None,
,,,,,2,0,2,0,1,0,1,0,,,,,,,,,,,,,,,,right,2000,40,0.007481178280472167,-1,0,-1,-10,None,None,209.3292461999954,209.64953910000622,None,None,None,None,left,0,0.7163980999903288,209.38446480000857,None,None,None,ttuwra,001,0,fr,2022-04-26_11h15.12.032,3-AFC_adaptive_staircase_mess,2022.1.1,None,
,,,,,2,0,2,0,2,0,2,0,,,,,,,,,,,,,,,,right,2000,45,0.01330362529899405,1,1,1,5,None,None,211.58710849999625,211.91921829999774,212.60197440000775,212.91917670000112,None,None,up,0,1.5850689000071725,211.6518422000081,None,None,None,ttuwra,001,0,fr,2022-04-26_11h15.12.032,3-AFC_adaptive_staircase_mess,2022.1.1,None,
,,,,,2,0,2,0,3,0,3,0,,,,,,,,,,,,,,,,up,2000,50,0.02365756294807403,1,1,1,5,None,None,214.76108759999624,215.07716780000192,None,None,None,None,left,0,0.5628128999960609,214.81876950000878,None,None,None,ttuwra,001,0,fr,2022-04-26_11h15.12.032,3-AFC_adaptive_staircase_mess,2022.1.1,None,
,,,,,2,0,2,0,4,0,4,0,,,,,,,,,,,,,,,,left,2000,55,0.042069757082259754,1,1,1,5,216.91236626667185,217.13427170000796,216.86848289999762,217.19323450000957,None,None,None,None,left,1,0.5205276000051526,216.92452120000962,None,None,None,ttuwra,001,0,fr,2022-04-26_11h15.12.032,3-AFC_adaptive_staircase_mess,2022.1.1,None,
,,,,,2,0,2,0,5,0,5,0,,,,,,,,,,,,,,,,up,2000,45,0.01330362529899405,-1,2,-1,-10,220.00893856666906,None,218.95976060000248,219.28069110000797,219.96153760000016,220.2995349999983,None,None,up,1,1.594691899997997,219.01873100000375,None,None,None,ttuwra,001,0,fr,2022-04-26_11h15.12.032,3-AFC_adaptive_staircase_mess,2022.1.1,None,
,,,,,2,0,2,0,6,0,6,0,,,,,,,,,,,,,,,,up,2000,35,0.004206975708225976,-1,2,-1,-10,None,None,222.07927820000623,222.41270929999882,None,None,None,None,left,0,0.623256400009268,222.15004490000138,None,None,None,ttuwra,001,0,fr,2022-04-26_11h15.12.032,3-AFC_adaptive_staircase_mess,2022.1.1,None,
,,,,,2,0,2,0,7,0,7,0,,,,,,,,,,,,,,,,up,2000,40,0.007481178280472167,1,3,1,2.5,225.32138366667303,None,224.26577420000103,224.58673999999883,225.27713770000264,None,None,None,left,0,1.0881691999966279,224.32546910000383,None,None,None,ttuwra,001,0,fr,2022-04-26_11h15.12.032,3-AFC_adaptive_staircase_mess,2022.1.1,None,
,,,,,2,0,2,0,8,0,8,0,,,,,,,,,,,,,,,,right,2000,42.5,0.009976311574844398,1,3,1,2.5,None,None,226.93251400000008,None,None,None,None,None,up,0,-1.1604604999884032,226.98950350000814,None,None,None,ttuwra,001,0,fr,2022-04-26_11h15.12.032,3-AFC_adaptive_staircase_mess,2022.1.1,None,
,,,,,2,0,2,0,9,0,9,0,,,,,,,,,,,,,,,,right,2000,45.0,0.01330362529899405,1,3,1,2.5,None,None,228.48097499999858,228.797270199997,None,None,None,None,left,0,0.508170400004019,228.53706560000137,None,None,None,ttuwra,001,0,fr,2022-04-26_11h15.12.032,3-AFC_adaptive_staircase_mess,2022.1.1,None,
,,,,,2,0,2,0,10,0,10,0,,,,,,,,,,,,,,,,up,2000,47.5,0.017740669461678776,1,3,1,2.5,231.590206366662,231.81804500000726,230.5372292999964,230.8592548000015,231.54512049999903,231.87726010000915,None,None,up,1,1.4873197999986587,230.59813790000044,None,None,None,ttuwra,001,0,fr,2022-04-26_11h15.12.032,3-AFC_adaptive_staircase_mess,2022.1.1,None,
,,,,,2,0,2,0,11,0,11,0,,,,,,,,,,,,,,,,up,2000,42.5,0.009976311574844398,-1,4,-1,-5.0,234.63126096666772,None,233.583572500007,233.9001847000036,234.58581340000092,234.91285370000696,None,None,up,1,1.4211512000038056,233.64015340000333,None,None,None,ttuwra,001,0,fr,2022-04-26_11h15.12.032,3-AFC_adaptive_staircase_mess,2022.1.1,None,
,,,,,2,0,2,0,12,0,12,0,,,,,,,,,,,,,,,,left,2000,37.5,0.005610092271509817,-1,4,-1,-5.0,236.61314466667343,None,236.566925799998,236.8891636000044,None,None,None,None,left,1,0.8198343999974895,236.62522660000832,None,None,None,ttuwra,001,0,fr,2022-04-26_11h15.12.032,3-AFC_adaptive_staircase_mess,2022.1.1,None,
,,,,,2,0,2,0,13,0,13,0,,,,,,,,,,,,,,,,up,2000,32.5,0.0031547867224009664,-1,4,-1,-5.0,None,None,238.96205960000225,239.2889673000027,None,None,None,None,left,0,0.5346131999976933,239.0228122999979,None,None,None,ttuwra,001,0,fr,2022-04-26_11h15.12.032,3-AFC_adaptive_staircase_mess,2022.1.1,None,
,,,,,2,0,2,0,14,0,14,0,,,,,,,,,,,,,,,,right,2000,35.0,0.004206975708225976,1,5,1,2.5,None,None,241.0814476000087,241.40853670000797,242.09356920000573,242.41735760000302,None,None,up,0,1.4711189000081504,241.14221659999748,None,None,None,ttuwra,001,0,fr,2022-04-26_11h15.12.032,3-AFC_adaptive_staircase_mess,2022.1.1,None,
,,,,,2,0,2,0,15,0,15,0,,,,,,,,,,,,,,,,up,2000,37.5,0.005610092271509817,1,5,1,2.5,None,None,244.10210410000582,244.41716270000325,None,None,None,None,left,0,0.5187136000022292,244.15851370000746,None,None,None,ttuwra,001,0,fr,2022-04-26_11h15.12.032,3-AFC_adaptive_staircase_mess,2022.1.1,None,
,,,,,2,0,2,0,16,0,16,0,,,,,,,,,,,,,,,,left,2000,40.0,0.007481178280472167,1,5,1,2.5,246.23537526667158,None,246.1858585000009,246.52532880000945,None,None,None,None,left,1,0.685442600006354,246.24779960000888,None,None,None,ttuwra,001,0,fr,2022-04-26_11h15.12.032,3-AFC_adaptive_staircase_mess,2022.1.1,None,
,,,,,2,0,2,0,17,0,17,0,,,,,,,,,,,,,,,,left,2000,35.0,0.004206975708225976,-1,6,-1,-5.0,248.48118196666863,None,248.43614910000178,248.7631287999975,None,None,None,None,left,1,0.5695797999942442,248.49265040000319,None,None,None,ttuwra,001,0,fr,2022-04-26_11h15.12.032,3-AFC_adaptive_staircase_mess,2022.1.1,None,
,,,,,2,0,2,0,18,0,18,0,,,,,,,,,,,,,,,,left,2000,30.0,0.0023657562948074026,-1,6,-1,-5.0,250.6063831666727,None,250.5579718000081,250.89346269999805,None,None,None,None,left,1,0.522480000014184,250.61922649999906,None,None,None,ttuwra,001,0,fr,2022-04-26_11h15.12.032,3-AFC_adaptive_staircase_mess,2022.1.1,None,
,,,,,2,0,2,0,19,0,19,0,,,,,,,,,,,,,,,,up,2000,25.0,0.0013303625298994048,-1,6,-1,-5.0,253.6838449666723,None,252.65774380000948,252.97727139999915,253.66717830000562,253.9948304999998,None,None,up,1,1.4968928000016604,252.71583539999847,None,None,None,ttuwra,001,0,fr,2022-04-26_11h15.12.032,3-AFC_adaptive_staircase_mess,2022.1.1,None,
,,,,,2,0,2,0,20,0,20,0,,,,,,,,,,,,,,,,left,2000,20.0,0.0007481178280472167,-1,6,-1,-5.0,255.7722558666758,None,255.72672140000213,256.04625090000627,256.73226079999586,257.05816500000947,257.71511630000896,258.0324499999988,right,0,7.2123569999967,255.78582469999674,None,258.2947067000059,None,ttuwra,001,0,fr,2022-04-26_11h15.12.032,3-AFC_adaptive_staircase_mess,2022.1.1,None,
,,,,,2,0,2,0,21,0,21,0,,,,,,,,,,,,,,,,right,2000,22.5,0.00099763115748444,1,7,1,2.5,266.52764226666864,None,264.5011145000026,264.83736679999856,265.51300180000544,265.8408393999998,266.510975600002,266.83747729999595,right,1,3.174004300002707,264.5587457000074,None,267.04375009999785,None,ttuwra,001,0,fr,2022-04-26_11h15.12.032,3-AFC_adaptive_staircase_mess,2022.1.1,None,
,,,,,2,0,2,0,22,0,22,0,,,,,,,,,,,,,,,,up,2000,17.5,0.0005610092271509818,-1,8,-1,-5.0,270.3015998666708,None,269.2595410000067,269.5953187999985,270.25258759999997,270.58671650000906,271.25904590000573,271.5788615000056,up,1,3.45492610000656,269.31836259999545,None,271.8135365000053,None,ttuwra,001,0,fr,2022-04-26_11h15.12.032,3-AFC_adaptive_staircase_mess,2022.1.1,None,
,,,,,3,0,3,0,0,0,0,0,,,,,,,,,,,,,[],[],5,right,3000,50,0.017336842522626576,0,0,-1,5,276.3263624666763,None,274.28075030000764,274.60658550000517,275.2889559000032,275.6170884000021,276.28079669999715,276.60584650000965,right,1,2.8991913000063505,274.33790630000294,None,276.8323856000061,None,ttuwra,001,0,fr,2022-04-26_11h15.12.032,3-AFC_adaptive_staircase_mess,2022.1.1,None,
,,,,,3,0,3,0,1,0,1,0,,,,,,,,,,,,,,,,up,3000,40,0.005482390980715924,-1,0,-1,-10,279.7758806666718,None,278.75170900000376,279.0895775999961,279.75921400000516,280.0871615000069,280.75620340000023,281.082619000008,up,1,2.962824800008093,278.8191192000086,None,281.32082269999955,None,ttuwra,001,0,fr,2022-04-26_11h15.12.032,3-AFC_adaptive_staircase_mess,2022.1.1,None,
,,,,,3,0,3,0,2,0,2,0,,,,,,,,,,,,,,,,right,3000,30,0.001733684252262658,-1,0,-1,-10,285.3416779666625,None,283.2955879000074,283.62230909999926,284.2851934000064,284.60379910000484,285.29398260000744,285.6316033000039,right,1,2.904139900012524,283.3580385999958,None,285.83893949999765,None,ttuwra,001,0,fr,2022-04-26_11h15.12.032,3-AFC_adaptive_staircase_mess,2022.1.1,None,
,,,,,3,0,3,0,3,0,3,0,,,,,,,,,,,,,,,,right,3000,20,0.0005482390980715922,-1,0,-1,-10,289.78304896667055,None,287.7453228000086,288.07151890000387,288.7422155000095,289.06476880000264,289.7663823000039,290.0960866999958,right,1,3.020512000002782,287.80108530000143,None,290.30209820000164,None,ttuwra,001,0,fr,2022-04-26_11h15.12.032,3-AFC_adaptive_staircase_mess,2022.1.1,None,
,,,,,3,0,3,0,4,0,4,0,,,,,,,,,,,,,,,,left,3000,10,0.00017336842522626576,-1,0,-1,-10,292.3558897666701,None,292.3108620999992,292.641577900009,293.31276760000037,293.6418063000019,294.3354393000045,294.6677598999959,up,0,3.7482746000023326,292.36918710000464,None,294.8687129000027,None,ttuwra,001,0,fr,2022-04-26_11h15.12.032,3-AFC_adaptive_staircase_mess,2022.1.1,None,
,,,,,3,0,3,0,5,0,5,0,,,,,,,,,,,,,,,,up,3000,15,0.00030829750093074097,1,1,1,5,298.6543965666681,None,297.6178970000037,297.9352207000047,298.63772990000143,298.9800716000027,299.6391092999984,299.97191429999657,right,0,3.6267099999968195,297.6742723000061,None,300.1770963000017,None,ttuwra,001,0,fr,2022-04-26_11h15.12.032,3-AFC_adaptive_staircase_mess,2022.1.1,None,
,,,,,3,0,3,0,6,0,6,0,,,,,,,,,,,,,,,,left,3000,20,0.0005482390980715922,1,1,1,5,302.8607478666711,None,302.81272940000053,303.1495821999997,303.8216340000072,304.14638710000145,304.8225558999984,305.1456896000018,left,1,2.6967232000024524,302.8764419000072,None,305.38147259999823,None,ttuwra,001,0,fr,2022-04-26_11h15.12.032,3-AFC_adaptive_staircase_mess,2022.1.1,None,
,,,,,3,0,3,0,7,0,7,0,,,,,,,,,,,,,,,,up,3000,10,0.00017336842522626576,-1,2,-1,-10,308.11536346667367,None,307.06546450000315,307.3937303999992,308.0692035999964,308.40000589999545,309.0761288000067,309.40796569999657,left,0,3.955763999998453,307.12162030000763,None,309.6431287000014,None,ttuwra,001,0,fr,2022-04-26_11h15.12.032,3-AFC_adaptive_staircase_mess,2022.1.1,None,
,,,,,3,0,3,0,8,0,8,0,,,,,,,,,,,,,,,,right,3000,15,0.00030829750093074097,1,3,1,2.5,314.6320445666681,None,312.5908227000036,312.9142756000074,313.58537349999824,313.90490750000754,314.5871967999992,314.9243465000036,up,0,5.145256799994968,312.6201817999972,None,315.1306603999983,None,ttuwra,001,0,fr,2022-04-26_11h15.12.032,3-AFC_adaptive_staircase_mess,2022.1.1,None,
,,,,,3,0,3,0,9,0,9,0,,,,,,,,,,,,,,,,left,3000,17.5,0.00041112132497353536,1,3,1,2.5,319.3119472666624,319.5388455000066,319.2658664000046,319.5975091,320.2698328999977,320.59797410000465,321.25911050000286,321.5764419000043,left,1,3.337270600008196,319.3243189000059,None,321.80958990000363,None,ttuwra,001,0,fr,2022-04-26_11h15.12.032,3-AFC_adaptive_staircase_mess,2022.1.1,None,
,,,,,3,0,3,0,10,0,10,0,,,,,,,,,,,,,,,,up,3000,12.5,0.00023119051069963006,-1,4,-1,-5.0,325.2168237666667,None,324.1761683000077,324.50257820000115,325.1704216000071,325.51339890000236,326.15680240000074,326.4765153000044,left,0,3.162237800002913,324.23392470000545,None,326.7368986000074,None,ttuwra,001,0,fr,2022-04-26_11h15.12.032,3-AFC_adaptive_staircase_mess,2022.1.1,None,
,,,,,3,0,3,0,11,0,11,0,,,,,,,,,,,,,,,,left,3000,15.0,0.00030829750093074097,1,5,1,2.5,328.9691168666652,None,328.920984700002,329.2499955000094,329.92044090000854,330.2405054999981,330.9202468000003,331.24626590000116,up,0,3.613957199995639,328.9825883000012,None,331.48452729999553,None,ttuwra,001,0,fr,2022-04-26_11h15.12.032,3-AFC_adaptive_staircase_mess,2022.1.1,None,
,,,,,3,0,3,0,12,0,12,0,,,,,,,,,,,,,,,,up,3000,17.5,0.00041112132497353536,1,5,1,2.5,335.1399865666647,None,334.12595750000037,334.4463490000053,335.10624000000826,335.4289434999955,336.12480000000505,336.4446588999999,up,1,4.204938900016714,334.15303070000664,None,336.6771871999954,None,ttuwra,001,0,fr,2022-04-26_11h15.12.032,3-AFC_adaptive_staircase_mess,2022.1.1,None,
,,,,,3,0,3,0,13,0,13,0,,,,,,,,,,,,,,,,left,3000,12.5,0.00023119051069963006,-1,6,-1,-5.0,339.9235120666747,None,339.87862719999976,340.20750269999553,340.899344400008,341.22807369999646,341.8843448999978,342.204716799999,right,0,5.29398790000414,339.9266001000069,None,342.43146950000664,None,ttuwra,001,0,fr,2022-04-26_11h15.12.032,3-AFC_adaptive_staircase_mess,2022.1.1,None,
,,,,,3,0,3,0,14,0,14,0,,,,,,,,,,,,,,,,right,3000,15.0,0.00030829750093074097,1,7,1,2.5,348.75842676667185,None,346.7482741999993,347.06849190000503,347.7323705000017,348.0573557000025,348.7053270000033,349.0342412000027,right,1,3.865137600005255,346.7796770999994,None,349.2646938999969,None,ttuwra,001,0,fr,2022-04-26_11h15.12.032,3-AFC_adaptive_staircase_mess,2022.1.1,None,
,,,,,3,0,3,0,15,0,15,0,,,,,,,,,,,,,,,,right,3000,10.0,0.00017336842522626576,-1,8,-1,-5.0,354.1960911666722,None,352.13375789999554,352.4577874999959,353.1449195000023,353.4632519000006,354.1471173000027,354.47659289999865,left,0,3.3940927000076044,352.1955968999973,None,354.70757009999943,None,ttuwra,001,0,fr,2022-04-26_11h15.12.032,3-AFC_adaptive_staircase_mess,2022.1.1,None,
,,,,,4,0,4,0,0,0,0,0,,,,,,,,,,,,,[],[],5,up,4000,50,0.02654422221154942,0,0,-1,5,358.14505726666926,None,357.07875860000786,357.40752690000227,358.1011099000025,358.43586080000387,359.10254279999936,359.41286579999723,up,1,3.1610905999987153,357.1472053000034,None,359.64693570000236,None,ttuwra,001,0,fr,2022-04-26_11h15.12.032,3-AFC_adaptive_staircase_mess,2022.1.1,None,
,,,,,4,0,4,0,1,0,1,0,,,,,,,,,,,,,,,,up,4000,40,0.008394020090612802,-1,0,-1,-10,362.8682284666759,None,361.82139290000487,362.14521210000385,362.83083089999855,363.1558856000047,363.81079420000606,364.13024310000765,up,1,3.2155715999979293,361.87788230000297,None,364.39062180000474,None,ttuwra,001,0,fr,2022-04-26_11h15.12.032,3-AFC_adaptive_staircase_mess,2022.1.1,None,
,,,,,4,0,4,0,2,0,2,0,,,,,,,,,,,,,,,,up,4000,30,0.0026544222211549416,-1,0,-1,-10,367.66119486667253,367.88667770000757,366.6140718000097,366.91967730000033,367.6185678000038,367.9403730000049,368.6218229000078,368.9422193000064,up,1,3.1270143000147073,366.67059829999926,None,369.15915150000365,None,ttuwra,001,0,fr,2022-04-26_11h15.12.032,3-AFC_adaptive_staircase_mess,2022.1.1,None,
,,,,,4,0,4,0,3,0,3,0,,,,,,,,,,,,,,,,up,4000,20,0.0008394020090612801,-1,0,-1,-10,372.35010016666297,None,371.2787554999959,371.5896944999986,372.2905946999963,372.6161681000085,373.2995593000087,373.61282900000515,up,1,3.1110272999940207,371.32633239999996,None,373.845610400007,None,ttuwra,001,0,fr,2022-04-26_11h15.12.032,3-AFC_adaptive_staircase_mess,2022.1.1,None,
,,,,,4,0,4,0,4,0,4,0,,,,,,,,,,,,,,,,right,4000,10,0.00026544222211549425,-1,0,-1,-10,378.0057142666667,None,375.9654090999975,376.28818010000396,376.97037910000654,377.28120549999585,377.9595702000079,378.286597600003,right,1,3.271906800000579,376.02912639999704,None,378.5208098000003,None,ttuwra,001,0,fr,2022-04-26_11h15.12.032,3-AFC_adaptive_staircase_mess,2022.1.1,None,
,,,,,4,0,4,0,5,0,5,0,,,,,,,,,,,,,,,,up,4000,0,8.394020090612804e-05,-1,0,-1,-10,381.83116586666824,None,380.8155977999995,381.13246900000377,381.8144992000016,382.1519704000093,382.80387370000244,383.13450739999826,up,1,3.4095249000092736,380.83581330000015,None,383.3593467000028,None,ttuwra,001,0,fr,2022-04-26_11h15.12.032,3-AFC_adaptive_staircase_mess,2022.1.1,None,
,,,,,4,0,4,0,6,0,6,0,,,,,,,,,,,,,,,,right,4000,-10,2.6544222211549425e-05,-1,0,-1,-10,387.82105226666704,None,385.77064200000314,386.0997919000074,386.7798136000056,387.0951572000049,387.77494000000297,388.0967518999969,up,0,3.267922600003658,385.8404146999965,None,388.3227055000025,None,ttuwra,001,0,fr,2022-04-26_11h15.12.032,3-AFC_adaptive_staircase_mess,2022.1.1,None,
,,,,,4,0,4,0,7,0,7,0,,,,,,,,,,,,,,,,up,4000,-5,4.720304381429618e-05,1,1,1,5,391.643150966662,None,390.5951683000021,390.91472280000744,391.59827519999817,391.92950749999727,392.6133906000032,392.9293159000081,right,0,3.7940799000061816,390.6425095000013,None,393.1476188000088,None,ttuwra,001,0,fr,2022-04-26_11h15.12.032,3-AFC_adaptive_staircase_mess,2022.1.1,None,
,,,,,4,0,4,0,8,0,8,0,,,,,,,,,,,,,,,,left,4000,0,8.394020090612804e-05,1,1,1,5,395.9793201666655,None,395.96265349999885,396.2978019000002,396.94259380000585,397.26587180000206,397.94724960000894,398.26453179999953,right,0,5.28820719999203,395.9815706000081,None,398.5208181000053,None,ttuwra,001,0,fr,2022-04-26_11h15.12.032,3-AFC_adaptive_staircase_mess,2022.1.1,None,
,,,,,4,0,4,0,9,0,9,0,,,,,,,,,,,,,,,,up,4000,5,0.00014926913094589803,1,1,1,5,403.82877646666407,None,402.78184340000735,403.1263631000038,403.78318600000057,404.1143305000005,404.79332240000076,405.1074279000022,right,0,3.3270129000011366,402.83826180000324,None,405.32802630000515,None,ttuwra,001,0,fr,2022-04-26_11h15.12.032,3-AFC_adaptive_staircase_mess,2022.1.1,None,
,,,,,4,0,4,0,10,0,10,0,,,,,,,,,,,,,,,,up,4000,10,0.00026544222211549425,1,1,1,5,408.7058373666698,None,407.6620980000007,407.9791738000058,408.6605816000083,408.98570600000676,409.6872962000052,410.01230850000866,up,1,3.2450928000034764,407.71974200000113,None,410.2406726000045,None,ttuwra,001,0,fr,2022-04-26_11h15.12.032,3-AFC_adaptive_staircase_mess,2022.1.1,None,
,,,,,4,0,4,0,11,0,11,0,,,,,,,,,,,,,,,,right,4000,0,8.394020090612804e-05,-1,2,-1,-10,414.5442349666739,414.76597360000596,412.50716900000407,412.8195476999972,413.504451300003,413.8165042000037,414.4982774000091,414.820781900009,left,0,4.141865000012331,412.5352117000002,None,415.0375720000011,None,ttuwra,001,0,fr,2022-04-26_11h15.12.032,3-AFC_adaptive_staircase_mess,2022.1.1,None,
,,,,,4,0,4,0,12,0,12,0,,,,,,,,,,,,,,,,up,4000,5,0.00014926913094589803,1,3,1,2.5,419.21281446666785,None,418.1634567000001,418.47113360000367,419.1673418999999,419.49295990000246,420.17560820000654,420.48716940000304,up,1,4.008464000013191,418.21981660000165,None,420.7400634000078,None,ttuwra,001,0,fr,2022-04-26_11h15.12.032,3-AFC_adaptive_staircase_mess,2022.1.1,None,
,,,,,4,0,4,0,13,0,13,0,,,,,,,,,,,,,,,,right,4000,0.0,8.394020090612804e-05,-1,4,-1,-5.0,425.79351706666444,426.0163128999993,423.75766830000794,424.068202399998,424.7471709000092,425.0639056000073,425.74819510000816,426.0711280999967,up,0,3.9954966000077548,423.78539970000566,None,426.2963000000018,None,ttuwra,001,0,fr,2022-04-26_11h15.12.032,3-AFC_adaptive_staircase_mess,2022.1.1,None,
,,,,,4,0,4,0,14,0,14,0,,,,,,,,,,,,,,,,up,4000,2.5,0.000111936056928417,1,5,1,2.5,430.36906396666404,None,429.3231012000033,429.63953470000706,430.32069639999827,430.6438787000079,431.3277611000085,431.640267099996,right,0,4.733452100001159,429.35132489999523,None,431.8707248999999,None,ttuwra,001,0,fr,2022-04-26_11h15.12.032,3-AFC_adaptive_staircase_mess,2022.1.1,None,
,,,,,4,0,4,0,15,0,15,0,,,,,,,,,,,,,,,,right,4000,5.0,0.00014926913094589803,1,5,1,2.5,437.6447697666629,437.8621168999962,435.6024737999978,435.9176460000017,436.62149810000847,436.9402262000076,437.6281030999962,437.9440615000058,left,0,3.4995863999938592,435.65759850000904,None,438.17294190000393,None,ttuwra,001,0,fr,2022-04-26_11h15.12.032,3-AFC_adaptive_staircase_mess,2022.1.1,None,
,,,,,4,0,4,0,16,0,16,0,,,,,,,,,,,,,,,,up,4000,7.5,0.00019905358527674868,1,5,1,2.5,441.7135374666725,None,440.6587077000004,440.97630700000445,441.67799569999625,441.99922520000837,442.66504940000596,442.9904239000025,left,0,3.801119399999152,440.71528260000923,None,443.21985960000893,None,ttuwra,001,0,fr,2022-04-26_11h15.12.032,3-AFC_adaptive_staircase_mess,2022.1.1,None,
,,,,,4,0,4,0,17,0,17,0,,,,,,,,,,,,,,,,right,4000,10.0,0.00026544222211549425,1,5,1,2.5,448.086639566671,None,446.0367322000093,446.3521869999968,447.0610031999968,447.3795916999952,448.0510394000012,448.369646200008,left,0,3.4308442000037758,446.0939548000024,None,448.5971545000066,None,ttuwra,001,0,fr,2022-04-26_11h15.12.032,3-AFC_adaptive_staircase_mess,2022.1.1,None,
,,,,,4,0,4,0,18,0,18,0,,,,,,,,,,,,,,,,up,4000,12.5,0.000353972892192069,1,5,1,2.5,452.09305246666577,452.3104735000088,451.0810646000027,451.39568190000136,452.0763857999991,452.3930856000079,453.0728245000064,453.3888453999971,left,0,6.543824399996083,451.1089534000057,None,453.6175099999964,None,ttuwra,001,0,fr,2022-04-26_11h15.12.032,3-AFC_adaptive_staircase_mess,2022.1.1,None,
,,,,,4,0,4,0,19,0,19,0,,,,,,,,,,,,,,,,up,4000,15.0,0.0004720304381429618,1,5,1,2.5,460.1828384666626,None,459.13471910000953,459.4525599000044,460.13884260000486,460.4679458000028,461.14303120000113,461.4587743000011,up,1,4.391363999995519,459.18243139999686,None,461.68750129999535,None,ttuwra,001,0,fr,2022-04-26_11h15.12.032,3-AFC_adaptive_staircase_mess,2022.1.1,None,
,,,,,4,0,4,0,20,0,20,0,,,,,,,,,,,,,,,,left,4000,10.0,0.00026544222211549425,-1,6,-1,-5.0,465.11811876667,None,465.10145210000337,465.4238800000021,466.1036201000097,466.42351049999706,467.10355909999635,467.4232392999984,left,1,3.4842004000092857,465.12866650000797,None,467.6503242000035,None,ttuwra,001,0,fr,2022-04-26_11h15.12.032,3-AFC_adaptive_staircase_mess,2022.1.1,None,
,,,,,4,0,4,0,21,0,21,0,,,,,,,,,,,,,,,,right,4000,5.0,0.00014926913094589803,-1,6,-1,-5.0,472.17612936666796,None,470.133436300006,470.4492348000058,471.1633073999983,471.4791942000011,472.13049959999626,472.45168959999864,right,1,4.8039811000053305,470.1936311000027,None,472.70321020000847,None,ttuwra,001,0,fr,2022-04-26_11h15.12.032,3-AFC_adaptive_staircase_mess,2022.1.1,None,
,,,,,4,0,4,0,22,0,22,0,,,,,,,,,,,,,,,,up,4000,0.0,8.394020090612804e-05,-1,6,-1,-5.0,477.5369325666727,None,476.49049170000944,476.81101689999923,477.49230060000264,477.8180693000031,478.50402350000513,478.8172313999967,up,1,3.5543747000047006,476.54722510000283,None,479.05517079999845,None,ttuwra,001,0,fr,2022-04-26_11h15.12.032,3-AFC_adaptive_staircase_mess,2022.1.1,None,
,,,,,4,0,4,0,23,0,23,0,,,,,,,,,,,,,,,,left,4000,-5.0,4.720304381429618e-05,-1,6,-1,-5.0,481.6660111666754,None,481.64934450000874,481.9709817999974,482.62534400000004,482.9445519000001,483.6261499999964,483.9435250000097,up,0,3.57620820000011,481.6765116000024,None,484.18962869999814,None,ttuwra,001,0,fr,2022-04-26_11h15.12.032,3-AFC_adaptive_staircase_mess,2022.1.1,None,
,,,,,4,0,4,0,24,0,24,0,,,,,,,,,,,,,,,,left,4000,-2.5,6.294627058970837e-05,1,7,1,2.5,486.80107706666263,None,486.7554577999981,None,None,None,None,None,right,0,-1.2067114999954356,486.81268410000484,None,None,None,ttuwra,001,0,fr,2022-04-26_11h15.12.032,3-AFC_adaptive_staircase_mess,2022.1.1,None,
,,,,,4,0,4,0,25,0,25,0,,,,,,,,,,,,,,,,left,4000,0.0,8.394020090612804e-05,1,7,1,2.5,488.3588984666751,488.5772324999998,488.31373059999896,488.6313269999955,489.3492220000044,489.66750260000117,490.32140129999607,490.63737540000875,left,1,4.962170300001162,488.3713360999973,None,490.89513820000866,None,ttuwra,001,0,fr,2022-04-26_11h15.12.032,3-AFC_adaptive_staircase_mess,2022.1.1,None,
,,,,,4,0,4,0,26,0,26,0,,,,,,,,,,,,,,,,right,4000,-5.0,4.720304381429618e-05,-1,8,-1,-5.0,496.8643274666722,None,494.8152332000027,495.13366849999875,495.8114392999996,496.13390460000664,496.81753970000136,497.1449663000094,up,0,5.228790199995274,494.87224720000813,None,497.37112320000597,None,ttuwra,001,0,fr,2022-04-26_11h15.12.032,3-AFC_adaptive_staircase_mess,2022.1.1,None,
,,,,,5,0,5,0,0,0,0,0,,,,,,,,,,,,,[],[],5,up,6000,50,0.03664122665694519,0,0,-1,5,502.62715756666535,None,501.584156900004,501.9002390999958,502.6104908999987,502.940254000001,503.5968477999995,503.918533700009,up,1,3.2287770000111777,501.6402393000026,None,504.14613510000345,None,ttuwra,001,0,fr,2022-04-26_11h15.12.032,3-AFC_adaptive_staircase_mess,2022.1.1,None,
,,,,,5,0,5,0,1,0,1,0,,,,,,,,,,,,,,,,right,6000,40,0.01158697324984239,-1,0,-1,-10,508.4021295666646,None,506.3568995999958,506.6774976000015,507.3585153000022,507.6640971000015,508.3571975000086,508.68494780000765,right,1,3.0807218000118155,506.41291620000266,None,508.91521289999946,None,ttuwra,001,0,fr,2022-04-26_11h15.12.032,3-AFC_adaptive_staircase_mess,2022.1.1,None,
,,,,,5,0,5,0,2,0,2,0,,,,,,,,,,,,,,,,left,6000,30,0.003664122665694519,-1,0,-1,-10,511.04579806667266,None,510.9997766000015,511.3224776999996,512.0061450000067,512.3198016000097,513.0036073000083,513.3273356999998,left,1,2.8042488000064623,511.0567657000065,None,513.5566668999963,None,ttuwra,001,0,fr,2022-04-26_11h15.12.032,3-AFC_adaptive_staircase_mess,2022.1.1,None,
,,,,,5,0,5,0,3,0,3,0,,,,,,,,,,,,,,,,up,6000,20,0.0011586973249842392,-1,0,-1,-10,516.4115940666709,None,515.3633754000039,515.6849915000057,516.3675799000048,516.6934841000038,517.3779860000068,517.6929625000048,up,1,2.9822769000165863,515.4220446999971,None,517.9249007000035,None,ttuwra,001,0,fr,2022-04-26_11h15.12.032,3-AFC_adaptive_staircase_mess,2022.1.1,None,
,,,,,5,0,5,0,4,0,4,0,,,,,,,,,,,,,,,,up,6000,10,0.00036641226656945183,-1,0,-1,-10,520.9559067666744,521.182169599997,519.9088401000045,520.2269245000061,520.9095909000025,521.2358246000076,521.9184405999986,522.2379021000088,right,0,3.9932186999940313,519.9637573000073,None,522.4715104000061,None,ttuwra,001,0,fr,2022-04-26_11h15.12.032,3-AFC_adaptive_staircase_mess,2022.1.1,None,
,,,,,5,0,5,0,5,0,5,0,,,,,,,,,,,,,,,,right,6000,15,0.0006515833892261495,1,1,1,5,527.4931170666716,None,525.4438931000041,525.7631858000095,526.4564045000006,526.7934010000026,527.4477634000068,527.7733627999987,right,1,3.7539861000113888,525.5000223000097,None,528.0020933000051,None,ttuwra,001,0,fr,2022-04-26_11h15.12.032,3-AFC_adaptive_staircase_mess,2022.1.1,None,
,,,,,5,0,5,0,6,0,6,0,,,,,,,,,,,,,,,,left,6000,5,0.000206048759548665,-1,2,-1,-10,530.8090438666734,None,530.7646584000031,531.0934619000036,531.7762427999987,532.0935241999978,532.7736210000003,533.0988766000082,up,0,3.1996805000089807,530.8210151999956,None,533.3284622000065,None,ttuwra,001,0,fr,2022-04-26_11h15.12.032,3-AFC_adaptive_staircase_mess,2022.1.1,None,
,,,,,5,0,5,0,7,0,7,0,,,,,,,,,,,,,,,,right,6000,10,0.00036641226656945183,1,3,1,2.5,537.581973366676,None,535.543955000001,535.8702232000069,536.5553248000069,536.8761128000042,537.5653067000094,537.8944531000016,up,0,3.3583082999975886,535.6064143999974,None,538.0951891000004,None,ttuwra,001,0,fr,2022-04-26_11h15.12.032,3-AFC_adaptive_staircase_mess,2022.1.1,None,
,,,,,5,0,5,0,8,0,8,0,,,,,,,,,,,,,,,,left,6000,12.5,0.0004886186104779051,1,3,1,2.5,540.5229069666714,540.7489658999984,540.4771983999963,540.8039741999964,541.4886194999999,541.8132485000096,542.4710746000055,542.8157331999973,up,0,4.827983900016989,540.5364560000016,None,543.0200696999964,None,ttuwra,001,0,fr,2022-04-26_11h15.12.032,3-AFC_adaptive_staircase_mess,2022.1.1,None,
,,,,,5,0,5,0,9,0,9,0,,,,,,,,,,,,,,,,right,6000,15.0,0.0006515833892261495,1,3,1,2.5,548.9298672666666,None,546.8709727999958,547.1931787000067,547.8853421000094,548.2014556000067,548.8840881000069,549.2108148999978,right,1,3.2866754999995464,546.9269951000024,None,549.4367835000012,None,ttuwra,001,0,fr,2022-04-26_11h15.12.032,3-AFC_adaptive_staircase_mess,2022.1.1,None,
,,,,,5,0,5,0,10,0,10,0,,,,,,,,,,,,,,,,right,6000,10.0,0.00036641226656945183,-1,4,-1,-5.0,553.8079681666752,None,551.7628258000041,552.0940292000014,552.7564417999965,553.0730728000053,553.7590913000022,554.0995289999992,left,0,3.123693000001367,551.8252315999998,None,554.3000422000041,None,ttuwra,001,0,fr,2022-04-26_11h15.12.032,3-AFC_adaptive_staircase_mess,2022.1.1,None,
,,,,,5,0,5,0,11,0,11,0,,,,,,,,,,,,,,,,right,6000,12.5,0.0004886186104779051,1,5,1,2.5,558.4815585666695,None,556.4374332000007,556.7608465000085,557.452360299998,557.7775627000083,558.4328419000085,558.7692266000086,left,0,3.5888578000158304,556.4953728999972,None,559.0018993999984,None,ttuwra,001,0,fr,2022-04-26_11h15.12.032,3-AFC_adaptive_staircase_mess,2022.1.1,None,
,,,,,5,0,5,0,12,0,12,0,,,,,,,,,,,,,,,,up,6000,15.0,0.0006515833892261495,1,5,1,2.5,562.633722866671,None,561.6036451999971,561.9293547999987,562.5893780000042,562.9146438000025,563.6045005000051,563.9300537999952,left,0,3.889967800001614,561.6663372000039,None,564.1647290999972,None,ttuwra,001,0,fr,2022-04-26_11h15.12.032,3-AFC_adaptive_staircase_mess,2022.1.1,None,
,,,,,5,0,5,0,13,0,13,0,,,,,,,,,,,,,,,,up,6000,17.5,0.0008689004143746875,1,5,1,2.5,568.1185788666664,None,567.0791210000025,567.4062177000014,568.0725824999972,568.4146110000001,569.083427000005,569.4099674000026,up,1,3.3755939999973634,567.1415739000076,None,569.6133421999984,None,ttuwra,001,0,fr,2022-04-26_11h15.12.032,3-AFC_adaptive_staircase_mess,2022.1.1,None,
,,,,,5,0,5,0,14,0,14,0,,,,,,,,,,,,,,,,right,6000,12.5,0.0004886186104779051,-1,6,-1,-5.0,574.0992919666644,None,572.0468496999965,572.3724202000012,573.0406572000065,573.3647562999977,574.0542427000037,574.3852422000055,up,0,3.8147864999918966,572.1096027000021,None,574.5962234000035,None,ttuwra,001,0,fr,2022-04-26_11h15.12.032,3-AFC_adaptive_staircase_mess,2022.1.1,None,
,,,,,5,0,5,0,15,0,15,0,,,,,,,,,,,,,,,,up,6000,15.0,0.0006515833892261495,1,7,1,2.5,578.4963917666648,None,577.4564505000017,577.7817727000074,578.4509108000057,578.7913048000046,579.4375438999996,579.7607414000086,up,1,3.0792542999988655,577.5176348000095,None,579.9900544999982,None,ttuwra,001,0,fr,2022-04-26_11h15.12.032,3-AFC_adaptive_staircase_mess,2022.1.1,None,
,,,,,5,0,5,0,16,0,16,0,,,,,,,,,,,,,,,,left,6000,10.0,0.00036641226656945183,-1,8,-1,-5.0,582.1297373666641,582.3485164000012,582.1130706999975,582.430314600002,583.1234445000009,583.4553507000091,584.0944336999964,584.4216669000016,up,0,3.335503800000879,582.1405487000011,None,584.6583831000025,None,ttuwra,001,0,fr,2022-04-26_11h15.12.032,3-AFC_adaptive_staircase_mess,2022.1.1,None,
,,,,,6,0,6,0,0,0,0,0,,,,,,,,,,,,,[],[],5,right,8000,50,0.05740768107484415,0,0,-1,5,589.0435211666666,None,586.99957,587.3249017000053,587.9949101999955,588.3224274999957,588.9951002000016,589.3408602999989,right,1,3.296056300008786,587.0609155999991,None,589.5556932000036,None,ttuwra,001,0,fr,2022-04-26_11h15.12.032,3-AFC_adaptive_staircase_mess,2022.1.1,None,
,,,,,6,0,6,0,1,0,1,0,,,,,,,,,,,,,,,,left,8000,40,0.018153902738505076,-1,0,-1,-10,591.8960011666679,None,591.8500271000084,592.174795400002,592.8679403999995,593.1969835000054,593.8684215999965,594.1970777999959,left,1,2.9135132000083104,591.9074218000023,None,594.4008402000036,None,ttuwra,001,0,fr,2022-04-26_11h15.12.032,3-AFC_adaptive_staircase_mess,2022.1.1,None,
,,,,,6,0,6,0,2,0,2,0,,,,,,,,,,,,,,,,right,8000,30,0.005740768107484416,-1,0,-1,-10,598.3748041666734,None,596.3257224999979,596.6589057999954,597.336180600003,597.6542989000009,598.3306947999954,598.655924000006,right,1,3.7342888999992283,596.3827596000046,None,598.8920757000014,None,ttuwra,001,0,fr,2022-04-26_11h15.12.032,3-AFC_adaptive_staircase_mess,2022.1.1,None,
,,,,,6,0,6,0,3,0,3,0,,,,,,,,,,,,,,,,right,8000,20,0.0018153902738505074,-1,0,-1,-10,603.6951576666654,None,601.6483189999999,601.9755251000024,602.6458471000078,602.9760460999969,603.6473845,603.9825090000086,right,1,3.2400722000020323,601.7090407000069,None,604.1911589000083,None,ttuwra,001,0,fr,2022-04-26_11h15.12.032,3-AFC_adaptive_staircase_mess,2022.1.1,None,
,,,,,6,0,6,0,4,0,4,0,,,,,,,,,,,,,,,,left,8000,10,0.0005740768107484417,-1,0,-1,-10,606.5304081666729,None,606.4824206000048,606.8227346000058,607.470734100003,607.7957201999961,608.4700094,608.8124296000024,left,1,2.948409900011029,606.5450624000077,None,609.0443383000093,None,ttuwra,001,0,fr,2022-04-26_11h15.12.032,3-AFC_adaptive_staircase_mess,2022.1.1,None,
,,,,,6,0,6,0,5,0,5,0,,,,,,,,,,,,,,,,right,8000,0,0.0001815390273850507,-1,0,-1,-10,613.0742743666672,None,611.0352647999971,611.3647559999954,612.0307503000076,612.3525589000055,613.0275778000068,613.3594733000064,left,0,3.36132070000167,611.0918107000034,None,613.5676473000058,None,ttuwra,001,0,fr,2022-04-26_11h15.12.032,3-AFC_adaptive_staircase_mess,2022.1.1,None,
,,,,,6,0,6,0,6,0,6,0,,,,,,,,,,,,,,,,up,8000,5,0.00032282711451732784,1,1,1,5,616.9830830666654,None,615.9479793000064,616.2634715000022,616.9664163999987,617.2974348999996,617.9648556000029,618.2892055999982,left,0,3.042549100005999,616.0021947000059,None,618.5184070999967,None,ttuwra,001,0,fr,2022-04-26_11h15.12.032,3-AFC_adaptive_staircase_mess,2022.1.1,None,
,,,,,6,0,6,0,7,0,7,0,,,,,,,,,,,,,,,,left,8000,10,0.0005740768107484417,1,1,1,5,620.5866244666724,None,620.5416408000019,620.8676981000026,621.5357870000007,621.8599626000068,622.531613900006,622.8478142999957,left,1,2.926993400003994,620.598642099998,None,623.0835303000058,None,ttuwra,001,0,fr,2022-04-26_11h15.12.032,3-AFC_adaptive_staircase_mess,2022.1.1,None,
,,,,,6,0,6,0,8,0,8,0,,,,,,,,,,,,,,,,up,8000,0,0.0001815390273850507,-1,2,-1,-10,626.0719654666648,None,625.0301012999989,625.3428896999976,626.025195299997,626.3508701999963,627.021736499999,627.3467921999982,left,0,3.160259700001916,625.0849939000036,None,627.5830873000086,None,ttuwra,001,0,fr,2022-04-26_11h15.12.032,3-AFC_adaptive_staircase_mess,2022.1.1,None,
,,,,,6,0,6,0,9,0,9,0,,,,,,,,,,,,,,,,left,8000,5,0.00032282711451732784,1,3,1,2.5,629.8188657666653,None,629.7710395000031,630.1076249000034,630.7763410000043,631.0963723000023,631.7636391999986,632.0826861000096,right,0,3.45116060001601,629.8342398000095,None,632.3133348999982,None,ttuwra,001,0,fr,2022-04-26_11h15.12.032,3-AFC_adaptive_staircase_mess,2022.1.1,None,
,,,,,6,0,6,0,10,0,10,0,,,,,,,,,,,,,,,,right,8000,7.5,0.00043049687609230037,1,3,1,2.5,636.825145066676,None,634.7829659999989,635.1037361000053,635.7878496000048,636.1112193000008,636.7774556000077,637.1125338999991,right,1,3.066203000009409,634.8427327999962,None,637.3413280999957,None,ttuwra,001,0,fr,2022-04-26_11h15.12.032,3-AFC_adaptive_staircase_mess,2022.1.1,None,
,,,,,6,0,6,0,11,0,11,0,,,,,,,,,,,,,,,,up,8000,2.5,0.00024208618379204972,-1,4,-1,-5.0,640.4412645666637,None,639.4102648999979,639.730982100009,640.424597899997,640.7525393999967,641.4097965999972,641.7291173999984,up,1,3.9769091000052867,639.4681105000054,None,641.9604346999986,None,ttuwra,001,0,fr,2022-04-26_11h15.12.032,3-AFC_adaptive_staircase_mess,2022.1.1,None,
,,,,,6,0,6,0,12,0,12,0,,,,,,,,,,,,,,,,up,8000,-2.5,0.00013613506540389563,-1,4,-1,-5.0,645.9847816666627,None,644.9581307000044,645.2656306999997,645.9480038000038,646.2730183999956,646.958123999997,647.2806784999993,left,0,4.444063900009496,645.0171138000005,None,647.5066563,None,ttuwra,001,0,fr,2022-04-26_11h15.12.032,3-AFC_adaptive_staircase_mess,2022.1.1,None,
,,,,,6,0,6,0,13,0,13,0,,,,,,,,,,,,,,,,right,8000,0.0,0.0001815390273850507,1,5,1,2.5,653.005522666663,653.2309437000076,650.9521778000053,651.2657574000041,651.9550932999991,652.2781249999971,652.9614838999987,653.293321899997,right,1,3.4272370999970008,651.0085164000047,None,653.5231299000006,None,ttuwra,001,0,fr,2022-04-26_11h15.12.032,3-AFC_adaptive_staircase_mess,2022.1.1,None,
,,,,,6,0,6,0,14,0,14,0,,,,,,,,,,,,,,,,right,8000,-5.0,0.00010208689723347648,-1,6,-1,-5.0,657.9848491666673,None,655.9446072999999,656.2653176000022,656.948818600009,657.2727638000069,657.9681825000007,658.3004682000028,right,1,3.966845699993428,656.0055933999975,None,658.5039571000088,None,ttuwra,001,0,fr,2022-04-26_11h15.12.032,3-AFC_adaptive_staircase_mess,2022.1.1,None,
,,,,,6,0,6,0,15,0,15,0,,,,,,,,,,,,,,,,right,8000,-10.0,5.740768107484415e-05,-1,6,-1,-5.0,663.533226366668,None,661.4769190000079,661.780860800005,662.4763002999971,662.7840973999992,663.4887697000086,663.8088764999993,right,1,3.909805500006769,661.5356476000015,None,664.0357079000096,None,ttuwra,001,0,fr,2022-04-26_11h15.12.032,3-AFC_adaptive_staircase_mess,2022.1.1,None,
,,,,,6,0,6,0,16,0,16,0,,,,,,,,,,,,,,,,right,8000,-15.0,3.228271145173278e-05,-1,6,-1,-5.0,668.9905248666657,None,666.9435888000007,667.2527069000062,667.9480736999976,668.2576135999989,668.9452908999956,669.2726525000035,up,0,3.1438666000030935,667.0049316000077,None,669.503257999997,None,ttuwra,001,0,fr,2022-04-26_11h15.12.032,3-AFC_adaptive_staircase_mess,2022.1.1,None,
,,,,,6,0,6,0,17,0,17,0,,,,,,,,,,,,,,,,left,8000,-12.5,4.304968760923004e-05,1,7,1,2.5,671.6974926666628,671.9229287000053,671.6514992000011,671.9769215999986,672.6645534999989,672.979039400001,673.6552051000035,673.9726532000059,right,0,4.392344799998682,671.7082983,None,674.1999761000043,None,ttuwra,001,0,fr,2022-04-26_11h15.12.032,3-AFC_adaptive_staircase_mess,2022.1.1,None,
,,,,,6,0,6,0,18,0,18,0,,,,,,,,,,,,,,,,left,8000,-10.0,5.740768107484415e-05,1,7,1,2.5,677.6273004666621,None,677.6106337999954,677.9341205000092,678.5950583000085,678.9001677000051,679.5982540999976,679.9119310000096,up,0,3.86456659999385,677.6297136000067,None,680.1678629000089,None,ttuwra,001,0,fr,2022-04-26_11h15.12.032,3-AFC_adaptive_staircase_mess,2022.1.1,None,
,,,,,6,0,6,0,19,0,19,0,,,,,,,,,,,,,,,,right,8000,-7.5,7.655437308410152e-05,1,7,1,2.5,685.0521080666697,685.2729409000021,683.0206948999985,683.3413946000073,683.999435699996,684.317037700006,685.0063701000036,685.3265752000007,up,0,3.963560000003781,683.0492568000045,None,685.5536730000022,None,ttuwra,001,0,fr,2022-04-26_11h15.12.032,3-AFC_adaptive_staircase_mess,2022.1.1,None,
,,,,,6,0,6,0,20,0,20,0,,,,,,,,,,,,,,,,left,8000,-5.0,0.00010208689723347648,1,7,1,2.5,688.5753024666667,None,688.5300162000058,688.857631699997,689.5413351000025,689.8428664999956,690.5356307000038,690.8458037000091,right,0,3.4965839000069536,688.5878345999954,None,691.1136818000086,None,ttuwra,001,0,fr,2022-04-26_11h15.12.032,3-AFC_adaptive_staircase_mess,2022.1.1,None,
,,,,,6,0,6,0,21,0,21,0,,,,,,,,,,,,,,,,up,8000,-2.5,0.00013613506540389563,1,7,1,2.5,694.6465695666741,None,693.6131061000051,693.915740299999,694.6299029000074,694.9611108999961,695.6146767000027,695.9282452000043,left,0,3.4096159000037005,693.6672678000032,None,696.1844038999989,None,ttuwra,001,0,fr,2022-04-26_11h15.12.032,3-AFC_adaptive_staircase_mess,2022.1.1,None,
,,,,,6,0,6,0,22,0,22,0,,,,,,,,,,,,,,,,right,8000,0.0,0.0001815390273850507,1,7,1,2.5,700.6303235666749,None,698.5765305999957,698.9187897000083,699.5863968000049,699.9037666000077,700.5850463000097,700.9061275999993,left,0,3.9315584000141826,698.6324053999997,None,701.1365480999957,None,ttuwra,001,0,fr,2022-04-26_11h15.12.032,3-AFC_adaptive_staircase_mess,2022.1.1,None,
,,,,,6,0,6,0,23,0,23,0,,,,,,,,,,,,,,,,left,8000,2.5,0.00024208618379204972,1,7,1,2.5,704.1080891666682,None,704.0914225000015,704.4094149000011,705.0934596000006,705.4084700999956,706.0791310000059,706.4293046999956,right,0,3.8367761000117753,704.1199911000003,None,706.630558600009,None,ttuwra,001,0,fr,2022-04-26_11h15.12.032,3-AFC_adaptive_staircase_mess,2022.1.1,None,
,,,,,6,0,6,0,24,0,24,0,,,,,,,,,,,,,,,,left,8000,5.0,0.00032282711451732784,1,7,1,2.5,709.5050025666753,None,709.4591110000038,709.7818657000025,710.466114099996,710.7853216000076,711.472817700007,711.790966600005,left,1,3.8164307000115514,709.5169135000033,None,712.022529599999,None,ttuwra,001,0,fr,2022-04-26_11h15.12.032,3-AFC_adaptive_staircase_mess,2022.1.1,None,
,,,,,6,0,6,0,25,0,25,0,,,,,,,,,,,,,,,,right,8000,0.0,0.0001815390273850507,-1,8,-1,-5.0,716.8683460666691,None,714.8310467999981,715.1485031000047,715.8517659000063,716.1691954999988,716.8516794000025,717.1844435999956,left,0,3.5172039000026416,714.887512900008,None,717.3856367999979,None,ttuwra,001,0,fr,2022-04-26_11h15.12.032,3-AFC_adaptive_staircase_mess,2022.1.1,None,
,,,,,7,0,7,0,0,0,0,0,,,,,,,,,,,,,[],[],5,right,750,50,0.012851978913844325,0,0,-1,5,721.9447578666625,None,719.9329525000066,720.2443469999998,720.9007922000019,721.2156501999998,721.9280911999958,722.2568941000063,right,1,3.191720200004056,719.9652139999962,None,722.4635984000051,None,ttuwra,001,0,fr,2022-04-26_11h15.12.032,3-AFC_adaptive_staircase_mess,2022.1.1,None,
,,,,,7,0,7,0,1,0,1,0,,,,,,,,,,,,,,,,up,750,40,0.004064152580820497,-1,0,-1,-10,725.682313366666,None,724.6441384000063,724.9649924999976,725.6656466999993,725.9949317999999,726.6657504000032,727.0030320000078,up,1,2.902676199999405,724.7023080000072,None,727.1991948000068,None,ttuwra,001,0,fr,2022-04-26_11h15.12.032,3-AFC_adaptive_staircase_mess,2022.1.1,None,
,,,,,7,0,7,0,2,0,2,0,,,,,,,,,,,,,,,,left,750,30,0.0012851978913844323,-1,0,-1,-10,729.1748517666749,None,729.1158556000009,729.451161200006,730.1349618999957,730.4535826000065,731.1379482000048,731.4884921000048,left,1,2.9155166999989888,729.1858939000085,None,731.6899010000052,None,ttuwra,001,0,fr,2022-04-26_11h15.12.032,3-AFC_adaptive_staircase_mess,2022.1.1,None,
,,,,,7,0,7,0,3,0,3,0,,,,,,,,,,,,,,,,left,750,20,0.00040641525808204974,-1,0,-1,-10,733.6407419666687,None,733.624075300002,733.9506891000055,734.6033275000082,734.9257187000039,735.603520500008,735.9154569999955,left,1,2.8967126999923494,733.6531227000087,None,736.170797800005,None,ttuwra,001,0,fr,2022-04-26_11h15.12.032,3-AFC_adaptive_staircase_mess,2022.1.1,None,
,,,,,7,0,7,0,4,0,4,0,,,,,,,,,,,,,,,,up,750,10,0.00012851978913844324,-1,0,-1,-10,739.1072102666697,739.3325908999977,738.0665757999959,738.3820283999958,739.0620546999999,739.3860868000047,740.0635016000015,740.379944100001,left,0,3.1108622000028845,738.094540200007,None,740.6082210000022,None,ttuwra,001,0,fr,2022-04-26_11h15.12.032,3-AFC_adaptive_staircase_mess,2022.1.1,None,
,,,,,7,0,7,0,5,0,5,0,,,,,,,,,,,,,,,,left,750,15,0.0002285440948074376,1,1,1,5,742.7290775666663,742.959537600007,742.683929699997,743.0183049000043,743.7056016999995,744.0261644999991,744.6968380000035,745.0145112000027,left,1,3.256519100003061,742.7316157000023,None,745.247996200007,None,ttuwra,001,0,fr,2022-04-26_11h15.12.032,3-AFC_adaptive_staircase_mess,2022.1.1,None,
,,,,,7,0,7,0,6,0,6,0,,,,,,,,,,,,,,,,right,750,5,7.22719885372964e-05,-1,2,-1,-10,749.5410333666698,749.7629775999958,747.4942207999993,747.8138972000015,748.501059000002,748.8177092999977,749.4963504000043,749.8218305000046,up,0,3.157139900009497,747.5511723999953,None,750.0527166999964,None,ttuwra,001,0,fr,2022-04-26_11h15.12.032,3-AFC_adaptive_staircase_mess,2022.1.1,None,
,,,,,7,0,7,0,7,0,7,0,,,,,,,,,,,,,,,,left,750,10,0.00012851978913844324,1,3,1,2.5,752.2644443666688,None,752.2477777000022,752.5650441000034,753.247441200001,753.5715293999965,754.2308353999979,754.5781878999987,right,0,3.392945300001884,752.2758172000031,None,754.778950699998,None,ttuwra,001,0,fr,2022-04-26_11h15.12.032,3-AFC_adaptive_staircase_mess,2022.1.1,None,
,,,,,7,0,7,0,8,0,8,0,,,,,,,,,,,,,,,,right,750,12.5,0.00017138389327322524,1,3,1,2.5,759.2316388666698,None,757.1645159000036,757.4788183000055,758.1829253000033,758.4964420000033,759.183572599999,759.5010326000047,left,0,3.680875799997011,757.2199184000056,None,759.7362653000018,None,ttuwra,001,0,fr,2022-04-26_11h15.12.032,3-AFC_adaptive_staircase_mess,2022.1.1,None,
,,,,,7,0,7,0,9,0,9,0,,,,,,,,,,,,,,,,left,750,15.0,0.0002285440948074376,1,3,1,2.5,762.4489512666662,762.6748040000093,762.4037614999979,762.7340713000012,763.4210093000002,763.7376758000028,764.4123739000061,764.730257999996,left,1,4.418124100004206,762.4510019000008,None,764.9581870999973,None,ttuwra,001,0,fr,2022-04-26_11h15.12.032,3-AFC_adaptive_staircase_mess,2022.1.1,None,
,,,,,7,0,7,0,10,0,10,0,,,,,,,,,,,,,,,,left,750,10.0,0.00012851978913844324,-1,4,-1,-5.0,768.4274480666684,768.6518256999989,768.3835473000072,768.7107117999985,769.3996221999987,769.7146470000007,770.4007600000041,770.7257630999957,left,1,3.0217998000007356,768.4391131000011,None,770.9565295000066,None,ttuwra,001,0,fr,2022-04-26_11h15.12.032,3-AFC_adaptive_staircase_mess,2022.1.1,None,
,,,,,7,0,7,0,11,0,11,0,,,,,,,,,,,,,,,,up,750,5.0,7.22719885372964e-05,-1,4,-1,-5.0,773.9949799666686,774.2213010999985,772.9776739000081,773.2953226999962,773.9783133000019,774.3126083000097,774.9665428000008,775.2822928000096,up,1,3.524031599998125,773.0081539999956,None,775.5099674000085,None,ttuwra,001,0,fr,2022-04-26_11h15.12.032,3-AFC_adaptive_staircase_mess,2022.1.1,None,
,,,,,7,0,7,0,12,0,12,0,,,,,,,,,,,,,,,,right,750,0.0,4.064152580820497e-05,-1,4,-1,-5.0,780.0884974666735,None,778.0565446999972,778.3815869999962,779.0682422999962,779.3870421000029,780.0718308000069,780.3954080999974,left,0,4.593754600005923,778.1150445000094,None,780.5964516999957,None,ttuwra,001,0,fr,2022-04-26_11h15.12.032,3-AFC_adaptive_staircase_mess,2022.1.1,None,
,,,,,7,0,7,0,13,0,13,0,,,,,,,,,,,,,,,,left,750,2.5,5.419634570106019e-05,1,5,1,2.5,784.2475115666641,None,784.2032519000059,784.5266343999974,785.2110701000056,785.5312553999975,786.2168897000083,786.5328639000072,right,0,3.777917700004764,784.2589623999957,None,786.7591845999996,None,ttuwra,001,0,fr,2022-04-26_11h15.12.032,3-AFC_adaptive_staircase_mess,2022.1.1,None,
,,,,,7,0,7,0,14,0,14,0,,,,,,,,,,,,,,,,right,750,5.0,7.22719885372964e-05,1,5,1,2.5,791.5806422666685,None,789.5359619000083,789.8564442000061,790.5379601000022,790.8581124000048,791.5355173999997,791.8683777999977,right,1,3.4981495999963954,789.5948248000059,None,792.0978995000041,None,ttuwra,001,0,fr,2022-04-26_11h15.12.032,3-AFC_adaptive_staircase_mess,2022.1.1,None,
,,,,,7,0,7,0,15,0,15,0,,,,,,,,,,,,,,,,right,750,0.0,4.064152580820497e-05,-1,6,-1,-5.0,796.6273717666666,None,794.5714599000057,794.8953162999969,795.5776203999994,795.8991226000071,796.5840621000098,796.9102748000005,up,0,3.6616943000117317,794.630645600002,None,797.1377227000048,None,ttuwra,001,0,fr,2022-04-26_11h15.12.032,3-AFC_adaptive_staircase_mess,2022.1.1,None,
,,,,,7,0,7,0,16,0,16,0,,,,,,,,,,,,,,,,right,750,2.5,5.419634570106019e-05,1,7,1,2.5,801.8359329666748,None,799.7903556000092,800.1075448000047,800.7942513000016,801.107050999999,801.7933596000075,802.1134254000062,left,0,2.976737899996806,799.8443430000043,None,802.3427631000086,None,ttuwra,001,0,fr,2022-04-26_11h15.12.032,3-AFC_adaptive_staircase_mess,2022.1.1,None,
,,,,,7,0,7,0,17,0,17,0,,,,,,,,,,,,,,,,up,750,5.0,7.22719885372964e-05,1,7,1,2.5,805.3761087666683,None,804.3323231999966,804.645242700004,805.3319134000049,805.6545236999955,806.3392667000007,806.6623067000037,left,0,3.361121699999785,804.3871513000049,None,806.8917413000017,None,ttuwra,001,0,fr,2022-04-26_11h15.12.032,3-AFC_adaptive_staircase_mess,2022.1.1,None,
,,,,,7,0,7,0,18,0,18,0,,,,,,,,,,,,,,,,up,750,7.5,9.637624565954684e-05,1,7,1,2.5,810.3208363666674,None,809.2745899000001,809.593718700009,810.2761303000007,810.6038687999971,811.2839026000001,811.6045692000043,up,1,3.1368812000000617,809.3311297000037,None,811.8319164999994,None,ttuwra,001,0,fr,2022-04-26_11h15.12.032,3-AFC_adaptive_staircase_mess,2022.1.1,None,
,,,,,7,0,7,0,19,0,19,0,,,,,,,,,,,,,,,,left,750,2.5,5.419634570106019e-05,-1,8,-1,-5.0,814.0105861666709,814.2409489999991,813.9649639999989,814.2964124999999,814.9846391000028,815.3084544000012,815.9710386000079,816.289964800002,left,1,3.199541700014379,814.0219059000083,None,816.5248774000065,None,ttuwra,001,0,fr,2022-04-26_11h15.12.032,3-AFC_adaptive_staircase_mess,2022.1.1,None,
,,,,,8,0,8,0,0,0,0,0,,,,,,,,,,,,,[],[],5,right,500,50,0.02259279721874612,0,0,-1,5,820.7859313666743,None,818.7296053000027,819.0466446000064,819.7315068000025,820.0565713999968,820.7404799000069,821.0693903000065,right,1,3.4884470000106376,818.7875690000074,None,821.2977053000068,None,ttuwra,001,0,fr,2022-04-26_11h15.12.032,3-AFC_adaptive_staircase_mess,2022.1.1,None,
,,,,,8,0,8,0,1,0,1,0,,,,,,,,,,,,,,,,left,500,40,0.007144469792555516,-1,0,-1,-10,823.8388537666654,None,823.792913199999,824.1153961999953,824.8083194000064,825.1303698999982,825.7866945999995,826.1006799000024,left,1,2.8580001999944216,823.850732699997,None,826.3352111999993,None,ttuwra,001,0,fr,2022-04-26_11h15.12.032,3-AFC_adaptive_staircase_mess,2022.1.1,None,
,,,,,8,0,8,0,2,0,2,0,,,,,,,,,,,,,,,,right,500,30,0.002259279721874612,-1,0,-1,-10,830.2653719666744,None,828.2328488000057,828.5558426000061,829.2409628000023,829.561686400004,830.2194168999995,830.5454824000044,right,1,3.4911361999984365,828.2897841000085,None,830.7775120000006,None,ttuwra,001,0,fr,2022-04-26_11h15.12.032,3-AFC_adaptive_staircase_mess,2022.1.1,None,
,,,,,8,0,8,0,3,0,3,0,,,,,,,,,,,,,,,,left,500,20,0.0007144469792555515,-1,0,-1,-10,833.345064266676,None,833.2999505000043,833.6283457999962,834.2906083999987,834.6104961000092,835.3023893000063,835.6252289999975,left,1,2.950281300014467,833.3592044999968,None,835.8549484999967,None,ttuwra,001,0,fr,2022-04-26_11h15.12.032,3-AFC_adaptive_staircase_mess,2022.1.1,None,
,,,,,8,0,8,0,4,0,4,0,,,,,,,,,,,,,,,,up,500,10,0.0002259279721874612,-1,0,-1,-10,838.8560652666677,None,837.7991226000013,838.1209244000056,838.8104771000071,839.1486541000049,839.8114330999961,840.1334753999981,left,0,2.8685504000022775,837.8563509000087,None,840.359486900008,None,ttuwra,001,0,fr,2022-04-26_11h15.12.032,3-AFC_adaptive_staircase_mess,2022.1.1,None,
,,,,,8,0,8,0,5,0,5,0,,,,,,,,,,,,,,,,left,500,15,0.0004017630610928086,1,1,1,5,842.2732674666661,None,842.2280483000068,842.5551876999962,843.2429177000013,843.5716754000023,844.2289764000016,844.5503110999998,right,0,3.032721900002798,842.2846156000014,None,844.7832632000063,None,ttuwra,001,0,fr,2022-04-26_11h15.12.032,3-AFC_adaptive_staircase_mess,2022.1.1,None,
,,,,,8,0,8,0,6,0,6,0,,,,,,,,,,,,,,,,left,500,20,0.0007144469792555515,1,1,1,5,846.8533478666689,None,846.8092669000034,847.1267558999971,847.8119674000045,848.1348346000013,848.819854100002,849.1448129000055,left,1,5.236662199997227,846.8641696999985,None,849.3755210999952,None,ttuwra,001,0,fr,2022-04-26_11h15.12.032,3-AFC_adaptive_staircase_mess,2022.1.1,None,
,,,,,8,0,8,0,7,0,7,0,,,,,,,,,,,,,,,,up,500,10,0.0002259279721874612,-1,2,-1,-10,854.6557897666682,None,853.6281711000047,853.9525990999973,854.6391231000016,854.9638516999985,855.6298884999997,855.9571957000007,right,0,4.061066500013112,853.6872953999991,None,856.1856733000022,None,ttuwra,001,0,fr,2022-04-26_11h15.12.032,3-AFC_adaptive_staircase_mess,2022.1.1,None,
,,,,,8,0,8,0,8,0,8,0,,,,,,,,,,,,,,,,right,500,15,0.0004017630610928086,1,3,1,2.5,861.2959353666704,None,859.2689335000032,859.600829300005,860.2653308000008,860.5928147000086,861.2513860000035,861.579361600001,left,0,2.9282660000026226,859.3326549000049,None,861.8275302999973,None,ttuwra,001,0,fr,2022-04-26_11h15.12.032,3-AFC_adaptive_staircase_mess,2022.1.1,None,
,,,,,8,0,8,0,9,0,9,0,,,,,,,,,,,,,,,,up,500,17.5,0.0005357596526188033,1,3,1,2.5,864.8111798666689,None,863.7758536000038,864.1040083999978,864.7643722000066,865.0855689000018,865.7750424999977,866.1038704000093,up,1,3.494680800009519,863.8379580000037,None,866.3339813000057,None,ttuwra,001,0,fr,2022-04-26_11h15.12.032,3-AFC_adaptive_staircase_mess,2022.1.1,None,
,,,,,8,0,8,0,10,0,10,0,,,,,,,,,,,,,,,,left,500,12.5,0.0003012797930371789,-1,4,-1,-5.0,868.8701541666708,None,868.8249859000061,869.1540786999976,869.8329470000026,870.1504797000089,870.8160963999981,871.1446937000001,up,0,3.666003100006492,868.8817121000029,None,871.3792008000019,None,ttuwra,001,0,fr,2022-04-26_11h15.12.032,3-AFC_adaptive_staircase_mess,2022.1.1,None,
,,,,,8,0,8,0,11,0,11,0,,,,,,,,,,,,,,,,up,500,15.0,0.0004017630610928086,1,5,1,2.5,875.0825152666696,None,874.0395848000044,874.3593458999967,875.0385250999971,875.3577311999979,876.0487274000043,876.3806699999986,up,1,3.011283200001344,874.0971256000048,None,876.6149814000091,None,ttuwra,001,0,fr,2022-04-26_11h15.12.032,3-AFC_adaptive_staircase_mess,2022.1.1,None,
,,,,,8,0,8,0,12,0,12,0,,,,,,,,,,,,,,,,left,500,10.0,0.0002259279721874612,-1,6,-1,-5.0,878.6660820666623,878.8969806000096,878.6179418999964,878.9577378999966,879.6137711000047,879.9308346000034,880.6083374000009,880.9265883000044,left,1,2.974228999999468,878.6782949000044,None,881.1629850000027,None,ttuwra,001,0,fr,2022-04-26_11h15.12.032,3-AFC_adaptive_staircase_mess,2022.1.1,None,
,,,,,8,0,8,0,13,0,13,0,,,,,,,,,,,,,,,,left,500,5.0,0.00012704863527746526,-1,6,-1,-5.0,883.199429266668,None,883.1507876999967,883.4792478000018,884.1479334000032,884.464295400001,885.1612205999991,885.488463200003,left,1,3.7880411999940407,883.2092664000083,None,885.7237102000072,None,ttuwra,001,0,fr,2022-04-26_11h15.12.032,3-AFC_adaptive_staircase_mess,2022.1.1,None,
,,,,,8,0,8,0,14,0,14,0,,,,,,,,,,,,,,,,right,500,0.0,7.144469792555515e-05,-1,6,-1,-5.0,890.5524275666723,None,888.5106481999974,888.8344571000052,889.5112001000089,889.8421551000065,890.5070713000023,890.8375667000073,up,0,3.4521720000047935,888.5675305000041,None,891.0710496999964,None,ttuwra,001,0,fr,2022-04-26_11h15.12.032,3-AFC_adaptive_staircase_mess,2022.1.1,None,
,,,,,8,0,8,0,15,0,15,0,,,,,,,,,,,,,,,,up,500,2.5,9.527303589816237e-05,1,7,1,2.5,894.5818766666673,None,893.5347658999963,893.8639664000075,894.5330460999976,894.8758965000015,895.529246799997,895.8477022000006,left,0,5.12657659999968,893.5986827000015,None,896.0793207999959,None,ttuwra,001,0,fr,2022-04-26_11h15.12.032,3-AFC_adaptive_staircase_mess,2022.1.1,None,
,,,,,8,0,8,0,16,0,16,0,,,,,,,,,,,,,,,,up,500,5.0,0.00012704863527746526,1,7,1,2.5,901.2629981666726,None,900.2399547000095,900.5705798999988,901.2463315000059,901.578565200005,902.2482550999994,902.5734662000032,up,1,3.7023155000060797,900.302325800003,None,902.8074829999969,None,ttuwra,001,0,fr,2022-04-26_11h15.12.032,3-AFC_adaptive_staircase_mess,2022.1.1,None,
,,,,,8,0,8,0,17,0,17,0,,,,,,,,,,,,,,,,up,500,0.0,7.144469792555515e-05,-1,8,-1,-5.0,906.5733155666715,None,905.5273888000083,905.8501978999993,906.5289191000047,906.8574575000093,907.5327703000075,907.8518725000031,left,0,3.573153400007868,905.5830158000026,None,908.0867536000005,None,ttuwra,001,0,fr,2022-04-26_11h15.12.032,3-AFC_adaptive_staircase_mess,2022.1.1,None,
,,,,,9,0,9,0,0,0,0,0,,,,,,,,,,,,,[],[],5,right,250,50,0.05296268625886444,0,0,-1,5,912.7119784666759,None,910.6668645000027,910.9906514000031,911.6572446000064,911.9924830999953,912.6673335000087,912.993991299998,right,1,3.312917999995989,910.7228935000021,None,913.2264435999969,None,ttuwra,001,0,fr,2022-04-26_11h15.12.032,3-AFC_adaptive_staircase_mess,2022.1.1,None,
,,,,,9,0,9,0,1,0,1,0,,,,,,,,,,,,,,,,right,250,40,0.016748271957891383,-1,0,-1,-10,917.5925582666716,None,915.5644055000012,915.8835202000046,916.5580601999973,916.878765100002,917.5459817000083,917.8678463999968,right,1,2.8619638999953168,915.6225585000066,None,918.103116600003,None,ttuwra,001,0,fr,2022-04-26_11h15.12.032,3-AFC_adaptive_staircase_mess,2022.1.1,None,
,,,,,9,0,9,0,2,0,2,0,,,,,,,,,,,,,,,,up,250,30,0.005296268625886445,-1,0,-1,-10,921.0182534666712,None,919.9910638000001,920.3081449000019,921.0015868000046,921.3327398999973,922.0000415999966,922.3361216000048,up,1,3.055921999999555,920.0520615999994,None,922.5468237000023,None,ttuwra,001,0,fr,2022-04-26_11h15.12.032,3-AFC_adaptive_staircase_mess,2022.1.1,None,
,,,,,9,0,9,0,3,0,3,0,,,,,,,,,,,,,,,,up,250,20,0.0016748271957891384,-1,0,-1,-10,925.6592423666627,None,924.6267659000005,924.9507876999996,925.6425756999961,925.9733256000036,926.6396848000004,926.9688067000097,right,0,2.9797972999949707,924.6892279000022,None,927.1752182000055,None,ttuwra,001,0,fr,2022-04-26_11h15.12.032,3-AFC_adaptive_staircase_mess,2022.1.1,None,
,,,,,9,0,9,0,4,0,4,0,,,,,,,,,,,,,,,,up,250,25,0.0029783107176450524,1,1,1,5,930.2271036666682,None,929.1840189000068,929.5119512000092,930.1843786999962,930.5114540000068,931.1927466000052,931.5121235999977,up,1,2.8924186999938684,929.2404123000015,None,931.7475702000083,None,ttuwra,001,0,fr,2022-04-26_11h15.12.032,3-AFC_adaptive_staircase_mess,2022.1.1,None,
,,,,,9,0,9,0,5,0,5,0,,,,,,,,,,,,,,,,up,250,15,0.0009418245447449003,-1,2,-1,-10,934.6634364666718,None,933.6325442000089,933.9535491999995,934.6467698000051,934.9761130999977,935.6372093999962,935.9605508000095,up,1,3.3853183000028366,933.6910829999979,None,936.1909658000077,None,ttuwra,001,0,fr,2022-04-26_11h15.12.032,3-AFC_adaptive_staircase_mess,2022.1.1,None,
,,,,,9,0,9,0,6,0,6,0,,,,,,,,,,,,,,,,right,250,5,0.0002978310717645052,-1,2,-1,-10,940.6312826666729,None,938.5878957999957,938.9046696000005,939.6009023000079,939.9259296999953,940.5854944000021,940.9178249999968,right,1,3.010334699996747,938.6423431000003,None,941.1494716000016,None,ttuwra,001,0,fr,2022-04-26_11h15.12.032,3-AFC_adaptive_staircase_mess,2022.1.1,None,
,,,,,9,0,9,0,7,0,7,0,,,,,,,,,,,,,,,,left,250,-5,9.418245447449e-05,-1,2,-1,-10,943.2018420666757,None,943.155282599997,943.4870204000035,944.1725417999987,944.4935920999997,945.1533934000036,945.5039637000009,up,0,3.0311295999999857,943.2138855000085,None,945.7054979000095,None,ttuwra,001,0,fr,2022-04-26_11h15.12.032,3-AFC_adaptive_staircase_mess,2022.1.1,None,
,,,,,9,0,9,0,8,0,8,0,,,,,,,,,,,,,,,,left,250,0,0.0001674827195789138,1,3,1,2.5,947.7870906666687,None,947.7704240000021,948.0944212000031,948.7532088000007,949.070676400006,949.7601131999982,950.1053979999997,up,0,2.944353400002001,947.7960097000032,None,950.3044682000036,None,ttuwra,001,0,fr,2022-04-26_11h15.12.032,3-AFC_adaptive_staircase_mess,2022.1.1,None,
,,,,,9,0,9,0,9,0,9,0,,,,,,,,,,,,,,,,right,250,2.5,0.0002233417960754815,1,3,1,2.5,954.3214744666659,None,952.2713469000009,952.5897183000052,953.2713864999969,953.5956154000014,954.2730661000096,954.6043039000069,right,1,2.988521400009631,952.3282403000048,None,954.8335095000075,None,ttuwra,001,0,fr,2022-04-26_11h15.12.032,3-AFC_adaptive_staircase_mess,2022.1.1,None,
,,,,,9,0,9,0,10,0,10,0,,,,,,,,,,,,,,,,left,250,-2.5,0.00012559432157547898,-1,4,-1,-5.0,956.8588175666703,957.0858137000032,956.8421509000036,957.1695974000031,957.8118171000096,958.1370931999991,958.8424090000044,959.1642750000028,right,0,2.89054260001285,956.8735439000011,None,959.3606567999959,None,ttuwra,001,0,fr,2022-04-26_11h15.12.032,3-AFC_adaptive_staircase_mess,2022.1.1,None,
,,,,,9,0,9,0,11,0,11,0,,,,,,,,,,,,,,,,right,250,0.0,0.0001674827195789138,1,5,1,2.5,963.3140645666756,None,961.2785672000027,961.6198285999999,962.2755901000055,962.583867399997,963.297397900009,963.633064900001,up,0,3.1669464000151493,961.3331164999981,None,963.8439063999976,None,ttuwra,001,0,fr,2022-04-26_11h15.12.032,3-AFC_adaptive_staircase_mess,2022.1.1,None,
,,,,,9,0,9,0,12,0,12,0,,,,,,,,,,,,,,,,up,250,2.5,0.0002233417960754815,1,5,1,2.5,967.0768607666726,None,966.0220919999992,966.3520997000014,967.0197310000076,967.350970200001,968.0325148999982,968.3519654999982,up,1,2.855063800001517,966.0769603000081,None,968.5797751000064,None,ttuwra,001,0,fr,2022-04-26_11h15.12.032,3-AFC_adaptive_staircase_mess,2022.1.1,None,
,,,,,9,0,9,0,13,0,13,0,,,,,,,,,,,,,,,,right,250,-2.5,0.00012559432157547898,-1,6,-1,-5.0,972.513324366668,None,970.4895160000015,970.8023122000013,971.4647312000016,971.7807702999999,972.4588815000025,972.791602199999,right,1,3.404720600010478,970.5187633000023,None,973.0249289000058,None,ttuwra,001,0,fr,2022-04-26_11h15.12.032,3-AFC_adaptive_staircase_mess,2022.1.1,None,
,,,,,9,0,9,0,14,0,14,0,,,,,,,,,,,,,,,,up,250,-7.5,7.06268772311377e-05,-1,6,-1,-5.0,976.4933156666705,None,975.4502168000035,975.7648617000086,976.4491661000066,976.7797038999997,977.465750000003,977.7838740000007,right,0,2.929562799996347,975.506735700008,None,978.0141527000087,None,ttuwra,001,0,fr,2022-04-26_11h15.12.032,3-AFC_adaptive_staircase_mess,2022.1.1,None,
,,,,,9,0,9,0,15,0,15,0,,,,,,,,,,,,,,,,left,250,-5.0,9.418245447449e-05,1,7,1,2.5,979.9821073666719,None,979.9338505000051,980.2561452000082,980.934124899999,981.2471869000001,981.951510800005,982.268756999998,up,0,2.9704965999990236,979.9938035000087,None,982.4988797999977,None,ttuwra,001,0,fr,2022-04-26_11h15.12.032,3-AFC_adaptive_staircase_mess,2022.1.1,None,
,,,,,9,0,9,0,16,0,16,0,,,,,,,,,,,,,,,,left,250,-2.5,0.00012559432157547898,1,7,1,2.5,984.5113837666761,None,984.4947171000094,984.817088900003,985.5060766999959,985.8263510999968,986.4736410000041,986.7972691000032,up,0,2.920184500006144,984.5234182999993,None,987.0259528000024,None,ttuwra,001,0,fr,2022-04-26_11h15.12.032,3-AFC_adaptive_staircase_mess,2022.1.1,None,
,,,,,9,0,9,0,17,0,17,0,,,,,,,,,,,,,,,,up,250,0.0,0.0001674827195789138,1,7,1,2.5,989.978100566663,990.2020383000054,988.9332129999966,989.2401807999995,989.9336642999988,990.2577071999985,990.9391708000039,991.257168600001,right,0,2.9195017000165535,988.9895638000016,None,991.4790143999999,None,ttuwra,001,0,fr,2022-04-26_11h15.12.032,3-AFC_adaptive_staircase_mess,2022.1.1,None,
,,,,,9,0,9,0,18,0,18,0,,,,,,,,,,,,,,,,up,250,2.5,0.0002233417960754815,1,7,1,2.5,994.47171656667,None,993.4045885000087,993.7244654999959,994.4134975000052,994.7472318000073,995.4077953000087,995.7150089000061,right,0,2.768610000013723,993.4604237000021,None,995.9842340000032,None,ttuwra,001,0,fr,2022-04-26_11h15.12.032,3-AFC_adaptive_staircase_mess,2022.1.1,None,
,,,,,9,0,9,0,19,0,19,0,,,,,,,,,,,,,,,,right,250,5.0,0.0002978310717645052,1,7,1,2.5,999.7528918666687,None,997.7304756000085,998.0513471000013,998.7113144000032,999.0310410000093,999.7079696000001,1000.0419890000048,right,1,2.9910776000033366,997.7492811999982,None,1000.2668277000048,None,ttuwra,001,0,fr,2022-04-26_11h15.12.032,3-AFC_adaptive_staircase_mess,2022.1.1,None,
,,,,,9,0,9,0,20,0,20,0,,,,,,,,,,,,,,,,left,250,0.0,0.0001674827195789138,-1,8,-1,-5.0,1002.3130735666675,None,1002.2549338999961,1002.5887664000038,1003.274666199999,1003.606852500001,1004.2923238000076,1004.6127972999966,up,0,2.9433642999938456,1002.3242498000036,None,1004.8386336999974,None,ttuwra,001,0,fr,2022-04-26_11h15.12.032,3-AFC_adaptive_staircase_mess,2022.1.1,None,
,,,,,10,0,10,0,0,0,0,0,,,,,,,,,,,,,[],[],5,right,125,50,0.2285440948074376,0,0,-1,5,1008.8287686666629,None,1006.7783382000052,1007.0937521000014,1007.7802497000084,1008.0967418000073,1008.7841680999991,1009.1181191000069,right,1,3.3703415999916615,1006.8258818000031,None,1009.3446045000019,None,ttuwra,001,0,fr,2022-04-26_11h15.12.032,3-AFC_adaptive_staircase_mess,2022.1.1,None,
,,,,,10,0,10,0,1,0,1,0,,,,,,,,,,,,,,,,right,125,40,0.07227198853729641,-1,0,-1,-10,1013.7517294666652,None,1011.7125621000014,1012.0281714000012,1012.7141447000031,1013.0295855000004,1013.7152792999987,1014.0500392999966,right,1,3.0638410999963526,1011.773062799999,None,1014.2746766000055,None,ttuwra,001,0,fr,2022-04-26_11h15.12.032,3-AFC_adaptive_staircase_mess,2022.1.1,None,
,,,,,10,0,10,0,2,0,2,0,,,,,,,,,,,,,,,,left,125,30,0.02285440948074376,-1,0,-1,-10,1016.3716543666708,None,1016.3272543000057,1016.6538557000022,1017.3394453000074,1017.6646383000043,1018.3477459999995,1018.6669466000021,left,1,3.1556959000154166,1016.3838607000071,None,1018.8929945999989,None,ttuwra,001,0,fr,2022-04-26_11h15.12.032,3-AFC_adaptive_staircase_mess,2022.1.1,None,
,,,,,10,0,10,0,3,0,3,0,,,,,,,,,,,,,,,,up,125,20,0.00722719885372964,-1,0,-1,-10,1022.0846701666635,None,1021.0428985000035,1021.3591500000039,1022.0680034999968,1022.3900080000021,1023.0795250000083,1023.4001250000001,right,0,3.2398806999990484,1021.1004193999979,None,1023.5975165999989,None,ttuwra,001,0,fr,2022-04-26_11h15.12.032,3-AFC_adaptive_staircase_mess,2022.1.1,None,
,,,,,10,0,10,0,4,0,4,0,,,,,,,,,,,,,,,,up,125,25,0.012851978913844325,1,1,1,5,1026.882897666674,None,1025.831580500002,1026.1558589000051,1026.8384160999994,1027.168793600009,1027.8560947000078,1028.1707223999983,up,1,3.197522000002209,1025.8793297000084,None,1028.3983673000039,None,ttuwra,001,0,fr,2022-04-26_11h15.12.032,3-AFC_adaptive_staircase_mess,2022.1.1,None,
,,,,,10,0,10,0,5,0,5,0,,,,,,,,,,,,,,,,right,125,15,0.004064152580820497,-1,2,-1,-10,1032.6384659666694,1032.8548684999987,1030.5985953000054,1030.9155038000026,1031.5741361999972,1031.8873164999968,1032.5935962000076,1032.9094308000058,right,1,3.194611900005839,1030.6174692000059,None,1033.1350129000057,None,ttuwra,001,0,fr,2022-04-26_11h15.12.032,3-AFC_adaptive_staircase_mess,2022.1.1,None,
,,,,,10,0,10,0,6,0,6,0,,,,,,,,,,,,,,,,left,125,5,0.0012851978913844323,-1,2,-1,-10,1035.358652266663,None,1035.3144610000018,1035.6407218999957,1036.3238678000052,1036.639048099998,1037.3276328000065,1037.6461844000005,right,0,3.0012757000076817,1035.3704126000084,None,1037.8762090999953,None,ttuwra,001,0,fr,2022-04-26_11h15.12.032,3-AFC_adaptive_staircase_mess,2022.1.1,None,
,,,,,10,0,10,0,7,0,7,0,,,,,,,,,,,,,,,,left,125,10,0.002285440948074376,1,3,1,2.5,1039.9302141666742,None,1039.8860681000078,1040.2134537000093,1040.8974397999991,1041.2124439000036,1041.8883170000045,1042.2077610999986,left,1,3.4533387000119546,1039.942572400003,None,1042.435354500005,None,ttuwra,001,0,fr,2022-04-26_11h15.12.032,3-AFC_adaptive_staircase_mess,2022.1.1,None,
,,,,,10,0,10,0,8,0,8,0,,,,,,,,,,,,,,,,up,125,5.0,0.0012851978913844323,-1,4,-1,-5.0,1045.937186366664,None,1044.8910258999967,1045.2111842000013,1045.8931069999962,1046.2216712000081,1046.9096116,1047.2222483000078,up,1,2.9626208000117913,1044.9469696000015,None,1047.4509015000076,None,ttuwra,001,0,fr,2022-04-26_11h15.12.032,3-AFC_adaptive_staircase_mess,2022.1.1,None,
,,,,,10,0,10,0,9,0,9,0,,,,,,,,,,,,,,,,left,125,0.0,0.000722719885372964,-1,4,-1,-5.0,1049.4354687666676,None,1049.3900491000095,1049.7253767000075,1050.390376700001,1050.709372600002,1051.408098400003,1051.7497552999994,up,0,2.9705673000134993,1049.4495700999978,None,1051.9500283000089,None,ttuwra,001,0,fr,2022-04-26_11h15.12.032,3-AFC_adaptive_staircase_mess,2022.1.1,None,
,,,,,10,0,10,0,10,0,10,0,,,,,,,,,,,,,,,,right,125,2.5,0.0009637624565954683,1,5,1,2.5,1055.9929326666645,1056.2134210000077,1053.9297801000066,1054.2818029000045,1054.948086000004,1055.2814921999961,1055.946136700004,1056.2673252999957,right,1,2.9425588000158314,1053.9889618000016,None,1056.4944186000066,None,ttuwra,001,0,fr,2022-04-26_11h15.12.032,3-AFC_adaptive_staircase_mess,2022.1.1,None,
,,,,,10,0,10,0,11,0,11,0,,,,,,,,,,,,,,,,up,125,-2.5,0.000541963457010602,-1,6,-1,-5.0,1059.497421266675,None,1058.4440455000004,1058.7629893999983,1059.4516098000022,1059.7630812999996,1060.4464904000051,1060.7627289000084,right,0,2.6387214999995194,1058.5012973999983,None,1061.019990300003,None,ttuwra,001,0,fr,2022-04-26_11h15.12.032,3-AFC_adaptive_staircase_mess,2022.1.1,None,
,,,,,10,0,10,0,12,0,12,0,,,,,,,,,,,,,,,,right,125,0.0,0.000722719885372964,1,7,1,2.5,1064.700214066663,None,1062.6480229000008,1062.966533400002,1063.6533684000024,1063.9663272000034,1064.6546571000072,1064.9778106000012,left,0,3.0441466000047512,1062.7042430000001,None,1065.211726499998,None,ttuwra,001,0,fr,2022-04-26_11h15.12.032,3-AFC_adaptive_staircase_mess,2022.1.1,None,
,,,,,10,0,10,0,13,0,13,0,,,,,,,,,,,,,,,,up,125,2.5,0.0009637624565954683,1,7,1,2.5,1068.3063469666706,None,1067.2529290000093,1067.570408200001,1068.2593009999982,1068.581724500007,1069.2606904999993,1069.5810847999965,up,1,3.2551296000019647,1067.3093087000016,None,1069.8117604,None,ttuwra,001,0,fr,2022-04-26_11h15.12.032,3-AFC_adaptive_staircase_mess,2022.1.1,None,
,,,,,10,0,10,0,14,0,14,0,,,,,,,,,,,,,,,,up,125,-2.5,0.000541963457010602,-1,8,-1,-5.0,1073.1123543666656,None,1072.0585323999985,1072.3779615999956,1073.0643715000042,1073.3883749000088,1074.062494800004,1074.3927743000095,up,1,2.589938400007668,1072.1187572000053,None,1074.6236617999966,None,ttuwra,001,0,fr,2022-04-26_11h15.12.032,3-AFC_adaptive_staircase_mess,2022.1.1,None,
