practice.thisRepN,practice.thisTrialN,practice.thisN,practice.thisIndex,trials.thisRepN,trials.thisTrialN,trials.thisN,trials.thisIndex,blank_txt.started,blank_txt.stopped,practice_frequency,practice_level,psychopy_volume,tProbe.started,tProbe.stopped,tFeedback.keys,tFeedback.corr,tFeedback.rt,tFeedback.started,tFeedback.stopped,tToo_early.keys,tToo_early.corr,tToo_early.started,tToo_early.stopped,tToo_late.keys,tToo_late.corr,tToo_late.started,tToo_late.stopped,you_done_goofed.started,you_done_goofed.stopped,Init_phase,Frequency,Level,Psychopy_Volume,Catch trial,probe.started,probe.stopped,feedback.keys,feedback.corr,feedback.rt,feedback.started,feedback.stopped,too_late.keys,too_late.corr,too_late.started,too_late.stopped,too_late.rt,Audiogram,participant,session,Language (english or french),Tone duration (ms),date,expName,psychopyVersion,frameRate,
0,0,0,0,,,,,27.503175499965437,None,567,40,0.006099267302654233,1.0033989667426795,None,['space'],1,[0.6279781999764964],29.517940300051123,30.52166580001358,None,1,28.52208939997945,29.533848499995656,None,1,30.52166580001358,None,31.560117000015453,None,,,,,,,,,,,,,,,,,,,ddmfvc,001,fr,200,2022-05-05_10h25.45.460,Bayesian,2022.1.1,None,
1,0,1,0,,,,,,,234,40,0.019882976039061955,1.0024075666442513,None,['space'],1,[0.39438850001897663],35.543708199984394,36.54514569998719,None,1,34.560465799993835,35.572497399989516,None,1,36.54514569998719,None,37.5967515000375,None,,,,,,,,,,,,,,,,,,,ddmfvc,001,fr,200,2022-05-05_10h25.45.460,Bayesian,2022.1.1,None,
2,0,2,0,,,,,,,2345,40,0.008245949202640053,1.0177962665911764,None,['space'],1,[0.430448199971579],39.731782800052315,40.74475780001376,None,1,38.72903289995156,39.74868209997658,None,1,40.74475780001376,None,41.779458399978466,None,,,,,,,,,,,,,,,,,,,ddmfvc,001,fr,200,2022-05-05_10h25.45.460,Bayesian,2022.1.1,None,
,,,,0,0,0,0,52.377874700003304,None,,,,,,,,,,,,,,,,,,,,,"{'x': [], 'y': [], 'is_init_phase': True, 'is_exam_finished': False, 'threshold_uncertainty_db': 6}",1000,60,0.0440524436504007,False,0.007950100000016391,0.20368999999482185,['space'],1,[0.3956645999569446],53.46270499995444,54.48188239999581,None,1,54.48188239999581,None,,,ddmfvc,001,fr,200,2022-05-05_10h25.45.460,Bayesian,2022.1.1,None,
,,,,1,0,1,0,,,,,,,,,,,,,,,,,,,,,,,"{'x': [[1000, 60]], 'y': [[1]], 'audiogram': {}, 'is_init_phase': True, 'is_exam_finished': False, 'threshold_uncertainty_db': 6}",1000,40,0.004405244365040069,False,0.01024046668317169,None,['space'],1,[0.4177629000041634],56.559920600033365,57.56883809994906,None,1,57.56883809994906,56.559920600033365,,,ddmfvc,001,fr,200,2022-05-05_10h25.45.460,Bayesian,2022.1.1,None,
,,,,2,0,2,0,,,,,,,,,,,,,,,,,,,,,,,"{'x': [[1000, 60], [1000, 40]], 'y': [[1], [1]], 'audiogram': {}, 'is_init_phase': True, 'is_exam_finished': False, 'threshold_uncertainty_db': 6}",1000,20,0.0004405244365040069,False,0.009375099907629192,None,['space'],1,[0.43104179995134473],60.27503180003259,61.30081960000098,None,1,61.30081960000098,60.27503180003259,,,ddmfvc,001,fr,200,2022-05-05_10h25.45.460,Bayesian,2022.1.1,None,
,,,,3,0,3,0,,,,,,,,,,,,,,,,,,,,,,,"{'x': [[1000, 60], [1000, 40], [1000, 20]], 'y': [[1], [1], [1]], 'audiogram': {}, 'is_init_phase': True, 'is_exam_finished': False, 'threshold_uncertainty_db': 6}",1000,0,4.405244365040069e-05,False,0.00737100001424551,None,['space'],1,[0.4742485999595374],62.90275190002285,63.90695940004662,None,1,63.90695940004662,62.90275190002285,,,ddmfvc,001,fr,200,2022-05-05_10h25.45.460,Bayesian,2022.1.1,None,
,,,,4,0,4,0,,,,,,,,,,,,,,,,,,,,,,,"{'x': [[1000, 60], [1000, 40], [1000, 20], [1000, 0]], 'y': [[1], [1], [1], [1]], 'audiogram': {}, 'is_init_phase': True, 'is_exam_finished': False, 'threshold_uncertainty_db': 6}",,,,True,0.014700333354994655,None,None,0,,66.64324630005285,67.63617820001673,None,1,67.63617820001673,66.64324630005285,,,ddmfvc,001,fr,200,2022-05-05_10h25.45.460,Bayesian,2022.1.1,None,
,,,,5,0,5,0,,,,,,,,,,,,,,,,,,,,,,,"{'x': [[1000, 60], [1000, 40], [1000, 20], [1000, 0]], 'y': [[1], [1], [1], [1]], 'audiogram': {}, 'is_init_phase': True, 'is_exam_finished': False, 'threshold_uncertainty_db': 6}",1000,-20,4.405244365040069e-06,False,0.0054194999393075705,0.19517540000379086,None,0,,70.03091940004379,71.04889580002055,None,1,71.04889580002055,70.03091940004379,,,ddmfvc,001,fr,200,2022-05-05_10h25.45.460,Bayesian,2022.1.1,None,
,,,,6,0,6,0,,,,,,,,,,,,,,,,,,,,,,,"{'x': [[1000, 60], [1000, 40], [1000, 20], [1000, 0], [1000, -20]], 'y': [[1], [1], [1], [1], [-1]], 'audiogram': {}, 'is_init_phase': True, 'is_exam_finished': False, 'threshold_uncertainty_db': 6}",1500,-10,1.527460556607758e-05,False,0.015539700048975646,None,None,0,,73.47275349998381,74.48605579999276,None,1,74.48605579999276,73.47275349998381,,,ddmfvc,001,fr,200,2022-05-05_10h25.45.460,Bayesian,2022.1.1,None,
,,,,7,0,7,0,,,,,,,,,,,,,,,,,,,,,,,"{'x': [[1000, 60], [1000, 40], [1000, 20], [1000, 0], [1000, -20], [1500, -10]], 'y': [[1], [1], [1], [1], [-1], [-1]], 'audiogram': {}, 'is_init_phase': True, 'is_exam_finished': False, 'threshold_uncertainty_db': 6}",1500,10,0.0001527460556607757,False,0.008894799975678325,None,['space'],1,[0.6184596000239253],76.21548210002948,77.23733649996575,None,1,77.23733649996575,76.21548210002948,,,ddmfvc,001,fr,200,2022-05-05_10h25.45.460,Bayesian,2022.1.1,None,
,,,,8,0,8,0,,,,,,,,,,,,,,,,,,,,,,,"{'x': [[1000, 60], [1000, 40], [1000, 20], [1000, 0], [1000, -20], [1500, -10], [1500, 10]], 'y': [[1], [1], [1], [1], [-1], [-1], [1]], 'audiogram': {}, 'is_init_phase': True, 'is_exam_finished': False, 'threshold_uncertainty_db': 6}",2000,-10,2.3657562948074015e-05,False,0.008197799907065928,0.1993003999814391,None,0,,79.61737630004063,80.6321203999687,None,1,80.6321203999687,79.61737630004063,,,ddmfvc,001,fr,200,2022-05-05_10h25.45.460,Bayesian,2022.1.1,None,
,,,,9,0,9,0,,,,,,,,,,,,,,,,,,,,,,,"{'x': [[1000, 60], [1000, 40], [1000, 20], [1000, 0], [1000, -20], [1500, -10], [1500, 10], [2000, -10]], 'y': [[1], [1], [1], [1], [-1], [-1], [1], [-1]], 'audiogram': {}, 'is_init_phase': True, 'is_exam_finished': False, 'threshold_uncertainty_db': 6}",,,,True,0.014534833375364542,None,None,0,,82.88268919999246,83.91175410000142,None,1,83.91175410000142,82.88268919999246,,,ddmfvc,001,fr,200,2022-05-05_10h25.45.460,Bayesian,2022.1.1,None,
,,,,10,0,10,0,,,,,,,,,,,,,,,,,,,,,,,"{'x': [[1000, 60], [1000, 40], [1000, 20], [1000, 0], [1000, -20], [1500, -10], [1500, 10], [2000, -10]], 'y': [[1], [1], [1], [1], [-1], [-1], [1], [-1]], 'audiogram': {}, 'is_init_phase': True, 'is_exam_finished': False, 'threshold_uncertainty_db': 6}",2000,10,0.00023657562948074026,False,0.01300196663942188,None,['space'],1,[0.46765120001509786],85.43769589997828,86.45995659998152,None,1,86.45995659998152,85.43769589997828,,,ddmfvc,001,fr,200,2022-05-05_10h25.45.460,Bayesian,2022.1.1,None,
,,,,11,0,11,0,,,,,,,,,,,,,,,,,,,,,,,"{'x': [[1000, 60], [1000, 40], [1000, 20], [1000, 0], [1000, -20], [1500, -10], [1500, 10], [2000, -10], [2000, 10]], 'y': [[1], [1], [1], [1], [-1], [-1], [1], [-1], [1]], 'audiogram': {}, 'is_init_phase': True, 'is_exam_finished': False, 'threshold_uncertainty_db': 6}",3000,-10,1.7336842522626584e-05,False,0.005927166668698192,None,None,0,,88.61732479999773,89.63098759995773,None,1,89.63098759995773,88.61732479999773,,,ddmfvc,001,fr,200,2022-05-05_10h25.45.460,Bayesian,2022.1.1,None,
,,,,12,0,12,0,,,,,,,,,,,,,,,,,,,,,,,"{'x': [[1000, 60], [1000, 40], [1000, 20], [1000, 0], [1000, -20], [1500, -10], [1500, 10], [2000, -10], [2000, 10], [3000, -10]], 'y': [[1], [1], [1], [1], [-1], [-1], [1], [-1], [1], [-1]], 'audiogram': {}, 'is_init_phase': True, 'is_exam_finished': False, 'threshold_uncertainty_db': 6}",3000,10,0.00017336842522626576,False,0.007974999956786633,None,['space'],1,[0.5788913998985663],92.27049360005185,93.27857490000315,None,1,93.27857490000315,92.27049360005185,,,ddmfvc,001,fr,200,2022-05-05_10h25.45.460,Bayesian,2022.1.1,None,
,,,,13,0,13,0,,,,,,,,,,,,,,,,,,,,,,,"{'x': [[1000, 60], [1000, 40], [1000, 20], [1000, 0], [1000, -20], [1500, -10], [1500, 10], [2000, -10], [2000, 10], [3000, -10], [3000, 10]], 'y': [[1], [1], [1], [1], [-1], [-1], [1], [-1], [1], [-1], [1]], 'audiogram': {}, 'is_init_phase': True, 'is_exam_finished': False, 'threshold_uncertainty_db': 6}",4000,-10,2.6544222211549425e-05,False,0.009326100000180304,None,None,0,,94.75483750004787,95.7728779000463,None,1,95.7728779000463,94.75483750004787,,,ddmfvc,001,fr,200,2022-05-05_10h25.45.460,Bayesian,2022.1.1,None,
,,,,14,0,14,0,,,,,,,,,,,,,,,,,,,,,,,"{'x': [[1000, 60], [1000, 40], [1000, 20], [1000, 0], [1000, -20], [1500, -10], [1500, 10], [2000, -10], [2000, 10], [3000, -10], [3000, 10], [4000, -10]], 'y': [[1], [1], [1], [1], [-1], [-1], [1], [-1], [1], [-1], [1], [-1]], 'audiogram': {}, 'is_init_phase': True, 'is_exam_finished': False, 'threshold_uncertainty_db': 6}",,,,True,0.01319583342410624,None,None,0,,98.07710880006198,99.08695330005139,None,1,99.08695330005139,98.07710880006198,,,ddmfvc,001,fr,200,2022-05-05_10h25.45.460,Bayesian,2022.1.1,None,
,,,,15,0,15,0,,,,,,,,,,,,,,,,,,,,,,,"{'x': [[1000, 60], [1000, 40], [1000, 20], [1000, 0], [1000, -20], [1500, -10], [1500, 10], [2000, -10], [2000, 10], [3000, -10], [3000, 10], [4000, -10]], 'y': [[1], [1], [1], [1], [-1], [-1], [1], [-1], [1], [-1], [1], [-1]], 'audiogram': {}, 'is_init_phase': True, 'is_exam_finished': False, 'threshold_uncertainty_db': 6}",4000,10,0.00026544222211549425,False,0.01216529996600002,None,['space'],1,[0.49692760000471026],100.41723260004073,101.42751199996565,None,1,101.42751199996565,100.41723260004073,,,ddmfvc,001,fr,200,2022-05-05_10h25.45.460,Bayesian,2022.1.1,None,
,,,,16,0,16,0,,,,,,,,,,,,,,,,,,,,,,,"{'x': [[1000, 60], [1000, 40], [1000, 20], [1000, 0], [1000, -20], [1500, -10], [1500, 10], [2000, -10], [2000, 10], [3000, -10], [3000, 10], [4000, -10], [4000, 10]], 'y': [[1], [1], [1], [1], [-1], [-1], [1], [-1], [1], [-1], [1], [-1], [1]], 'audiogram': {}, 'is_init_phase': True, 'is_exam_finished': False, 'threshold_uncertainty_db': 6}",6000,-10,3.664122665694518e-05,False,0.011613499955274165,None,None,0,,104.44525099999737,105.46469020005316,None,1,105.46469020005316,104.44525099999737,,,ddmfvc,001,fr,200,2022-05-05_10h25.45.460,Bayesian,2022.1.1,None,
,,,,17,0,17,0,,,,,,,,,,,,,,,,,,,,,,,"{'x': [[1000, 60], [1000, 40], [1000, 20], [1000, 0], [1000, -20], [1500, -10], [1500, 10], [2000, -10], [2000, 10], [3000, -10], [3000, 10], [4000, -10], [4000, 10], [6000, -10]], 'y': [[1], [1], [1], [1], [-1], [-1], [1], [-1], [1], [-1], [1], [-1], [1], [-1]], 'audiogram': {}, 'is_init_phase': True, 'is_exam_finished': False, 'threshold_uncertainty_db': 6}",6000,10,0.00036641226656945183,False,0.0051148999482393265,None,['space'],1,[0.5156183000653982],106.60722440003883,107.62843030004296,None,1,107.62843030004296,106.60722440003883,,,ddmfvc,001,fr,200,2022-05-05_10h25.45.460,Bayesian,2022.1.1,None,
,,,,18,0,18,0,,,,,,,,,,,,,,,,,,,,,,,"{'x': [[1000, 60], [1000, 40], [1000, 20], [1000, 0], [1000, -20], [1500, -10], [1500, 10], [2000, -10], [2000, 10], [3000, -10], [3000, 10], [4000, -10], [4000, 10], [6000, -10], [6000, 10]], 'y': [[1], [1], [1], [1], [-1], [-1], [1], [-1], [1], [-1], [1], [-1], [1], [-1], [1]], 'audiogram': {}, 'is_init_phase': True, 'is_exam_finished': False, 'threshold_uncertainty_db': 6}",,,,True,0.01233913330361247,0.20749383338261396,None,0,,109.02214550005738,110.05234229995403,None,1,110.05234229995403,109.02214550005738,,,ddmfvc,001,fr,200,2022-05-05_10h25.45.460,Bayesian,2022.1.1,None,
,,,,19,0,19,0,,,,,,,,,,,,,,,,,,,,,,,"{'x': [[1000, 60], [1000, 40], [1000, 20], [1000, 0], [1000, -20], [1500, -10], [1500, 10], [2000, -10], [2000, 10], [3000, -10], [3000, 10], [4000, -10], [4000, 10], [6000, -10], [6000, 10]], 'y': [[1], [1], [1], [1], [-1], [-1], [1], [-1], [1], [-1], [1], [-1], [1], [-1], [1]], 'audiogram': {}, 'is_init_phase': True, 'is_exam_finished': False, 'threshold_uncertainty_db': 6}",8000,-10,5.740768107484415e-05,False,0.008433799957856536,None,None,0,,112.55739199998789,113.57328789995518,None,1,113.57328789995518,112.55739199998789,,,ddmfvc,001,fr,200,2022-05-05_10h25.45.460,Bayesian,2022.1.1,None,
,,,,20,0,20,0,,,,,,,,,,,,,,,,,,,,,,,"{'x': [[1000, 60], [1000, 40], [1000, 20], [1000, 0], [1000, -20], [1500, -10], [1500, 10], [2000, -10], [2000, 10], [3000, -10], [3000, 10], [4000, -10], [4000, 10], [6000, -10], [6000, 10], [8000, -10]], 'y': [[1], [1], [1], [1], [-1], [-1], [1], [-1], [1], [-1], [1], [-1], [1], [-1], [1], [-1]], 'audiogram': {}, 'is_init_phase': True, 'is_exam_finished': False, 'threshold_uncertainty_db': 6}",8000,0,0.0001815390273850507,False,0.005338900024071336,0.19564720010384917,['space'],1,[0.5380079000024125],115.4636527999537,116.45738989999518,None,1,116.45738989999518,115.4636527999537,,,ddmfvc,001,fr,200,2022-05-05_10h25.45.460,Bayesian,2022.1.1,None,
,,,,21,0,21,0,,,,,,,,,,,,,,,,,,,,,,,"{'x': [[1000, 60], [1000, 40], [1000, 20], [1000, 0], [1000, -20], [1500, -10], [1500, 10], [2000, -10], [2000, 10], [3000, -10], [3000, 10], [4000, -10], [4000, 10], [6000, -10], [6000, 10], [8000, -10], [8000, 0]], 'y': [[1], [1], [1], [1], [-1], [-1], [1], [-1], [1], [-1], [1], [-1], [1], [-1], [1], [-1], [1]], 'audiogram': {}, 'is_init_phase': True, 'is_exam_finished': False, 'threshold_uncertainty_db': 6}",750,-10,1.2851978913844322e-05,False,0.007440799963660538,0.19792700000107288,None,0,,118.27956830000039,119.29260539996903,None,1,119.29260539996903,118.27956830000039,,,ddmfvc,001,fr,200,2022-05-05_10h25.45.460,Bayesian,2022.1.1,None,
,,,,22,0,22,0,,,,,,,,,,,,,,,,,,,,,,,"{'x': [[1000, 60], [1000, 40], [1000, 20], [1000, 0], [1000, -20], [1500, -10], [1500, 10], [2000, -10], [2000, 10], [3000, -10], [3000, 10], [4000, -10], [4000, 10], [6000, -10], [6000, 10], [8000, -10], [8000, 0], [750, -10]], 'y': [[1], [1], [1], [1], [-1], [-1], [1], [-1], [1], [-1], [1], [-1], [1], [-1], [1], [-1], [1], [-1]], 'audiogram': {}, 'is_init_phase': True, 'is_exam_finished': False, 'threshold_uncertainty_db': 6}",,,,True,0.0006759667303413153,0.18648226675577462,None,0,,120.82931739999913,121.82696079998277,None,1,121.82696079998277,120.82931739999913,,,ddmfvc,001,fr,200,2022-05-05_10h25.45.460,Bayesian,2022.1.1,None,
,,,,23,0,23,0,,,,,,,,,,,,,,,,,,,,,,,"{'x': [[1000, 60], [1000, 40], [1000, 20], [1000, 0], [1000, -20], [1500, -10], [1500, 10], [2000, -10], [2000, 10], [3000, -10], [3000, 10], [4000, -10], [4000, 10], [6000, -10], [6000, 10], [8000, -10], [8000, 0], [750, -10]], 'y': [[1], [1], [1], [1], [-1], [-1], [1], [-1], [1], [-1], [1], [-1], [1], [-1], [1], [-1], [1], [-1]], 'audiogram': {}, 'is_init_phase': True, 'is_exam_finished': False, 'threshold_uncertainty_db': 6}",750,10,0.00012851978913844324,False,0.0071081999922171235,None,['space'],1,[0.46422520000487566],123.9538950000424,124.96464470005594,None,1,124.96464470005594,123.9538950000424,,,ddmfvc,001,fr,200,2022-05-05_10h25.45.460,Bayesian,2022.1.1,None,
,,,,24,0,24,0,,,,,,,,,,,,,,,,,,,,,,,"{'x': [[1000, 60], [1000, 40], [1000, 20], [1000, 0], [1000, -20], [1500, -10], [1500, 10], [2000, -10], [2000, 10], [3000, -10], [3000, 10], [4000, -10], [4000, 10], [6000, -10], [6000, 10], [8000, -10], [8000, 0], [750, -10], [750, 10]], 'y': [[1], [1], [1], [1], [-1], [-1], [1], [-1], [1], [-1], [1], [-1], [1], [-1], [1], [-1], [1], [-1], [1]], 'audiogram': {}, 'is_init_phase': True, 'is_exam_finished': False, 'threshold_uncertainty_db': 6}",500,-10,2.259279721874613e-05,False,0.010446199914440513,None,None,0,,127.85543889994733,128.8814247000264,None,1,128.8814247000264,127.85543889994733,,,ddmfvc,001,fr,200,2022-05-05_10h25.45.460,Bayesian,2022.1.1,None,
,,,,25,0,25,0,,,,,,,,,,,,,,,,,,,,,,,"{'x': [[1000, 60], [1000, 40], [1000, 20], [1000, 0], [1000, -20], [1500, -10], [1500, 10], [2000, -10], [2000, 10], [3000, -10], [3000, 10], [4000, -10], [4000, 10], [6000, -10], [6000, 10], [8000, -10], [8000, 0], [750, -10], [750, 10], [500, -10]], 'y': [[1], [1], [1], [1], [-1], [-1], [1], [-1], [1], [-1], [1], [-1], [1], [-1], [1], [-1], [1], [-1], [1], [-1]], 'audiogram': {}, 'is_init_phase': True, 'is_exam_finished': False, 'threshold_uncertainty_db': 6}",500,10,0.0002259279721874612,False,0.01349300006404519,None,['space'],1,[0.4920683999080211],130.16525740001816,131.1951451000059,None,1,131.1951451000059,130.16525740001816,,,ddmfvc,001,fr,200,2022-05-05_10h25.45.460,Bayesian,2022.1.1,None,
,,,,26,0,26,0,,,,,,,,,,,,,,,,,,,,,,,"{'x': [[1000, 60], [1000, 40], [1000, 20], [1000, 0], [1000, -20], [1500, -10], [1500, 10], [2000, -10], [2000, 10], [3000, -10], [3000, 10], [4000, -10], [4000, 10], [6000, -10], [6000, 10], [8000, -10], [8000, 0], [750, -10], [750, 10], [500, -10], [500, 10]], 'y': [[1], [1], [1], [1], [-1], [-1], [1], [-1], [1], [-1], [1], [-1], [1], [-1], [1], [-1], [1], [-1], [1], [-1], [1]], 'audiogram': {}, 'is_init_phase': True, 'is_exam_finished': False, 'threshold_uncertainty_db': 6}",,,,True,0.013059833203442395,None,None,0,,132.9872439999599,133.99533710000105,None,1,133.99533710000105,132.9872439999599,,,ddmfvc,001,fr,200,2022-05-05_10h25.45.460,Bayesian,2022.1.1,None,
,,,,27,0,27,0,,,,,,,,,,,,,,,,,,,,,,,"{'x': [[1000, 60], [1000, 40], [1000, 20], [1000, 0], [1000, -20], [1500, -10], [1500, 10], [2000, -10], [2000, 10], [3000, -10], [3000, 10], [4000, -10], [4000, 10], [6000, -10], [6000, 10], [8000, -10], [8000, 0], [750, -10], [750, 10], [500, -10], [500, 10]], 'y': [[1], [1], [1], [1], [-1], [-1], [1], [-1], [1], [-1], [1], [-1], [1], [-1], [1], [-1], [1], [-1], [1], [-1], [1]], 'audiogram': {}, 'is_init_phase': True, 'is_exam_finished': False, 'threshold_uncertainty_db': 6}",250,-10,5.296268625886443e-05,False,0.013572800089605153,None,None,0,,136.50112969998736,137.52930499997456,None,1,137.52930499997456,136.50112969998736,,,ddmfvc,001,fr,200,2022-05-05_10h25.45.460,Bayesian,2022.1.1,None,
,,,,28,0,28,0,,,,,,,,,,,,,,,,,,,,,,,"{'x': [[1000, 60], [1000, 40], [1000, 20], [1000, 0], [1000, -20], [1500, -10], [1500, 10], [2000, -10], [2000, 10], [3000, -10], [3000, 10], [4000, -10], [4000, 10], [6000, -10], [6000, 10], [8000, -10], [8000, 0], [750, -10], [750, 10], [500, -10], [500, 10], [250, -10]], 'y': [[1], [1], [1], [1], [-1], [-1], [1], [-1], [1], [-1], [1], [-1], [1], [-1], [1], [-1], [1], [-1], [1], [-1], [1], [-1]], 'audiogram': {}, 'is_init_phase': True, 'is_exam_finished': False, 'threshold_uncertainty_db': 6}",250,10,0.0005296268625886444,False,0.0041588000021874905,None,['space'],1,[0.6393652999540791],140.1463602000149,141.15091049997136,None,1,141.15091049997136,140.1463602000149,,,ddmfvc,001,fr,200,2022-05-05_10h25.45.460,Bayesian,2022.1.1,None,
,,,,29,0,29,0,,,,,,,,,,,,,,,,,,,,,,,"{'x': [[1000, 60], [1000, 40], [1000, 20], [1000, 0], [1000, -20], [1500, -10], [1500, 10], [2000, -10], [2000, 10], [3000, -10], [3000, 10], [4000, -10], [4000, 10], [6000, -10], [6000, 10], [8000, -10], [8000, 0], [750, -10], [750, 10], [500, -10], [500, 10], [250, -10], [250, 10]], 'y': [[1], [1], [1], [1], [-1], [-1], [1], [-1], [1], [-1], [1], [-1], [1], [-1], [1], [-1], [1], [-1], [1], [-1], [1], [-1], [1]], 'audiogram': {}, 'is_init_phase': True, 'is_exam_finished': False, 'threshold_uncertainty_db': 6}",125,-10,0.0002285440948074376,False,0.004893100005574524,None,None,0,,143.0138055999996,144.03356260003056,None,1,144.03356260003056,143.0138055999996,,,ddmfvc,001,fr,200,2022-05-05_10h25.45.460,Bayesian,2022.1.1,None,
,,,,30,0,30,0,,,,,,,,,,,,,,,,,,,,,,,"{'x': [[1000, 60], [1000, 40], [1000, 20], [1000, 0], [1000, -20], [1500, -10], [1500, 10], [2000, -10], [2000, 10], [3000, -10], [3000, 10], [4000, -10], [4000, 10], [6000, -10], [6000, 10], [8000, -10], [8000, 0], [750, -10], [750, 10], [500, -10], [500, 10], [250, -10], [250, 10], [125, -10]], 'y': [[1], [1], [1], [1], [-1], [-1], [1], [-1], [1], [-1], [1], [-1], [1], [-1], [1], [-1], [1], [-1], [1], [-1], [1], [-1], [1], [-1]], 'audiogram': {}, 'is_init_phase': True, 'is_exam_finished': False, 'threshold_uncertainty_db': 6}",125,0,0.000722719885372964,False,0.010988399852067232,None,None,0,,146.9883161999751,148.01335230004042,None,1,148.01335230004042,146.9883161999751,,,ddmfvc,001,fr,200,2022-05-05_10h25.45.460,Bayesian,2022.1.1,None,
,,,,31,0,31,0,,,,,,,,,,,,,,,,,,,,,,,"{'x': [[1000, 60], [1000, 40], [1000, 20], [1000, 0], [1000, -20], [1500, -10], [1500, 10], [2000, -10], [2000, 10], [3000, -10], [3000, 10], [4000, -10], [4000, 10], [6000, -10], [6000, 10], [8000, -10], [8000, 0], [750, -10], [750, 10], [500, -10], [500, 10], [250, -10], [250, 10], [125, -10], [125, 0]], 'y': [[1], [1], [1], [1], [-1], [-1], [1], [-1], [1], [-1], [1], [-1], [1], [-1], [1], [-1], [1], [-1], [1], [-1], [1], [-1], [1], [-1], [-1]], 'audiogram': {}, 'is_init_phase': True, 'is_exam_finished': False, 'threshold_uncertainty_db': 6}",125,10,0.002285440948074376,False,0.008700966602191329,None,None,0,,149.5144283999689,150.54959459998645,None,1,150.54959459998645,149.5144283999689,,,ddmfvc,001,fr,200,2022-05-05_10h25.45.460,Bayesian,2022.1.1,None,
,,,,32,0,32,0,,,,,,,,,,,,,,,,,,,,,,,"{'x': [[1000, 60], [1000, 40], [1000, 20], [1000, 0], [1000, -20], [1500, -10], [1500, 10], [2000, -10], [2000, 10], [3000, -10], [3000, 10], [4000, -10], [4000, 10], [6000, -10], [6000, 10], [8000, -10], [8000, 0], [750, -10], [750, 10], [500, -10], [500, 10], [250, -10], [250, 10], [125, -10], [125, 0], [125, 10]], 'y': [[1], [1], [1], [1], [-1], [-1], [1], [-1], [1], [-1], [1], [-1], [1], [-1], [1], [-1], [1], [-1], [1], [-1], [1], [-1], [1], [-1], [-1], [-1]], 'audiogram': {}, 'is_init_phase': True, 'is_exam_finished': False, 'threshold_uncertainty_db': 6}",125,20,0.00722719885372964,False,0.011899399920366704,None,['space'],1,[0.51056810002774],153.65130709996447,154.6869344000006,None,1,154.6869344000006,153.65130709996447,,,ddmfvc,001,fr,200,2022-05-05_10h25.45.460,Bayesian,2022.1.1,None,
,,,,33,0,33,0,,,,,,,,,,,,,,,,,,,,,,,"{'x': [[1000, 60], [1000, 40], [1000, 20], [1000, 0], [1000, -20], [1500, -10], [1500, 10], [2000, -10], [2000, 10], [3000, -10], [3000, 10], [4000, -10], [4000, 10], [6000, -10], [6000, 10], [8000, -10], [8000, 0], [750, -10], [750, 10], [500, -10], [500, 10], [250, -10], [250, 10], [125, -10], [125, 0], [125, 10], [125, 20]], 'y': [[1], [1], [1], [1], [-1], [-1], [1], [-1], [1], [-1], [1], [-1], [1], [-1], [1], [-1], [1], [-1], [1], [-1], [1], [-1], [1], [-1], [-1], [-1], [1]], 'audiogram': {}, 'is_init_phase': True, 'is_exam_finished': False, 'threshold_uncertainty_db': 6}",353.5533905932738,0.0,8.861233020703779e-05,False,0.015958599979057908,None,None,0,,162.56660010002088,163.59633610001765,None,1,163.59633610001765,162.56660010002088,,,ddmfvc,001,fr,200,2022-05-05_10h25.45.460,Bayesian,2022.1.1,None,
,,,,34,0,34,0,,,,,,,,,,,,,,,,,,,,,,,,,,,True,0.015001033316366374,None,None,0,,164.8985533999512,165.90228479995858,None,1,165.90228479995858,164.8985533999512,,,ddmfvc,001,fr,200,2022-05-05_10h25.45.460,Bayesian,2022.1.1,None,
,,,,35,0,35,0,,,,,,,,,,,,,,,,,,,,,,,,189.4645708137998,6.0,0.000606184672180193,False,0.00473316665738821,0.19389666663482785,['space'],1,[0.6319533999776468],169.881741899997,170.8821905000368,None,1,170.8821905000368,169.881741899997,,,ddmfvc,001,fr,200,2022-05-05_10h25.45.460,Bayesian,2022.1.1,None,
,,,,36,0,36,0,,,,,,,,,,,,,,,,,,,,,,,,2462.2888266898335,1.0,9.543828998156852e-05,False,0.016526066698133945,None,None,0,,173.63166109996382,174.6670851999661,None,1,174.6670851999661,173.63166109996382,,,ddmfvc,001,fr,200,2022-05-05_10h25.45.460,Bayesian,2022.1.1,None,
,,,,37,0,37,0,,,,,,,,,,,,,,,,,,,,,,,,4924.577653379667,0.0,0.00014755655663396236,False,0.014175066724419594,None,['space'],1,[0.5163896000012755],178.6548530999571,179.65038859995548,None,1,179.65038859995548,178.6548530999571,,,ddmfvc,001,fr,200,2022-05-05_10h25.45.460,Bayesian,2022.1.1,None,
,,,,38,0,38,0,,,,,,,,,,,,,,,,,,,,,,,,,,,True,0.011376733426004648,None,None,0,,181.75429089996032,182.75422520004213,None,1,182.75422520004213,181.75429089996032,,,ddmfvc,001,fr,200,2022-05-05_10h25.45.460,Bayesian,2022.1.1,None,
,,,,39,0,39,0,,,,,,,,,,,,,,,,,,,,,,,,615.5722066724584,0.0,5.34153907348926e-05,False,0.01503143331501633,None,['space'],1,[0.736639800015837],186.0002618000144,186.99670300004072,None,1,186.99670300004072,186.0002618000144,,,ddmfvc,001,fr,200,2022-05-05_10h25.45.460,Bayesian,2022.1.1,None,
,,,,40,0,40,0,,,,,,,,,,,,,,,,,,,,,,,,1414.213562373095,-1.0,4.494787037834757e-05,False,0.015757433255203068,None,['space'],1,[0.8127989999484271],190.29319130000658,191.2975389000494,None,1,191.2975389000494,190.29319130000658,,,ddmfvc,001,fr,200,2022-05-05_10h25.45.460,Bayesian,2022.1.1,None,
,,,,41,0,41,0,,,,,,,,,,,,,,,,,,,,,,,,125.0,10.0,0.002285440948074376,False,0.01555776665918529,None,['space'],1,[0.13785349996760488],195.39905909996014,196.4095392000163,None,1,196.4095392000163,195.39905909996014,,,ddmfvc,001,fr,200,2022-05-05_10h25.45.460,Bayesian,2022.1.1,None,
,,,,42,0,42,0,,,,,,,,,,,,,,,,,,,,,,,,,,,True,0.012063433299772441,None,None,0,,197.46652040001936,198.47686199995223,None,1,198.47686199995223,197.46652040001936,,,ddmfvc,001,fr,200,2022-05-05_10h25.45.460,Bayesian,2022.1.1,None,
,,,,43,0,43,0,,,,,,,,,,,,,,,,,,,,,,,,250.0,1.0,0.00018791870214422208,False,0.002734166686423123,None,None,0,,202.73989970004186,203.74288799997885,None,1,203.74288799997885,202.73989970004186,,,ddmfvc,001,fr,200,2022-05-05_10h25.45.460,Bayesian,2022.1.1,None,
,,,,44,0,44,0,,,,,,,,,,,,,,,,,,,,,,,,406.12619817811805,3.0,0.0001076937612164121,False,0.007153766811825335,None,None,0,,207.35433410003316,208.3526036000112,None,1,208.3526036000112,207.35433410003316,,,ddmfvc,001,fr,200,2022-05-05_10h25.45.460,Bayesian,2022.1.1,None,
,,,,45,0,45,0,,,,,,,,,,,,,,,,,,,,,,,,3482.202253184498,1.0,8.398389572004273e-05,False,0.0036603333428502083,0.19799793337006122,None,0,,211.1258282000199,212.14443089999259,['space'],0,212.14443089999259,211.1258282000199,[0.06491469999309629],,ddmfvc,001,fr,200,2022-05-05_10h25.45.460,Bayesian,2022.1.1,None,
,,,,46,0,46,0,,,,,,,,,,,,,,,,,,,,,,,,,,,True,0.013961333315819502,None,None,0,,214.44962670002133,215.45879559998866,None,1,215.45879559998866,214.44962670002133,,,ddmfvc,001,fr,200,2022-05-05_10h25.45.460,Bayesian,2022.1.1,None,
,,,,47,0,47,0,,,,,,,,,,,,,,,,,,,,,,,,1000.0,-6.0,2.2078522367665627e-05,False,0.004897900042124093,None,None,0,,218.3214933000272,219.32747210003436,None,1,219.32747210003436,218.3214933000272,,,ddmfvc,001,fr,200,2022-05-05_10h25.45.460,Bayesian,2022.1.1,None,
,,,,48,0,48,0,,,,,,,,,,,,,,,,,,,,,,,,1866.0659830736151,0.0,6.876424606830584e-05,False,0.014550200081430376,None,['space'],1,[0.6535045000491664],223.28338689997327,224.30324170005042,None,1,224.30324170005042,223.28338689997327,,,ddmfvc,001,fr,200,2022-05-05_10h25.45.460,Bayesian,2022.1.1,None,
,,,,49,0,49,0,,,,,,,,,,,,,,,,,,,,,,,,329.87697769322364,7.0,0.00021213884143633376,False,0.0044207333121448755,0.19699353328906,['space'],1,[0.7817943000700325],227.84359730000142,228.86646629997995,None,1,228.86646629997995,227.84359730000142,,,ddmfvc,001,fr,200,2022-05-05_10h25.45.460,Bayesian,2022.1.1,None,
,,,,50,0,50,0,,,,,,,,,,,,,,,,,,,,,,,,125.0,8.0,0.0018153902738505074,False,0.00479623326100409,None,['space'],1,[0.7641200000653043],231.58896299998742,232.59983690001536,None,1,232.59983690001536,231.58896299998742,,,ddmfvc,001,fr,200,2022-05-05_10h25.45.460,Bayesian,2022.1.1,None,
,,,,51,0,51,0,,,,,,,,,,,,,,,,,,,,,,,,8000.0,-4.0,0.00011454338263838867,False,0.0035662667360156775,0.1969895666697994,None,0,,235.55514139996376,236.54956970002968,None,1,236.54956970002968,235.55514139996376,,,ddmfvc,001,fr,200,2022-05-05_10h25.45.460,Bayesian,2022.1.1,None,
,,,,52,0,52,0,,,,,,,,,,,,,,,,,,,,,,,,176.7766952966369,3.0,0.0004944177713899504,False,0.0006903334287926555,None,['space'],1,[0.7881773998960853],240.50956469995435,241.51450769999065,None,1,241.51450769999065,240.50956469995435,,,ddmfvc,001,fr,200,2022-05-05_10h25.45.460,Bayesian,2022.1.1,None,
,,,,53,0,53,0,,,,,,,,,,,,,,,,,,,,,,,,659.7539553864473,-3.0,3.4374622581541374e-05,False,0.005764700006693602,None,None,0,,245.1492312999908,246.15799470001366,None,1,246.15799470001366,245.1492312999908,,,ddmfvc,001,fr,200,2022-05-05_10h25.45.460,Bayesian,2022.1.1,None,
,,,,54,0,54,0,,,,,,,,,,,,,,,,,,,,,,,,5656.85424949238,-4.0,8.109296367558474e-05,False,0.0049374665832147,0.2033045666757971,['space'],1,[0.7593636999372393],249.89786090003327,250.9190100999549,None,1,250.9190100999549,249.89786090003327,,,ddmfvc,001,fr,200,2022-05-05_10h25.45.460,Bayesian,2022.1.1,None,
,,,,55,0,55,0,,,,,,,,,,,,,,,,,,,,,,,,4000.0,0.0,8.394020090612804e-05,False,0.01333793334197253,0.20970973337534815,['space'],1,[0.6897032000124454],254.23907560005318,255.23423900001217,None,1,255.23423900001217,254.23907560005318,,,ddmfvc,001,fr,200,2022-05-05_10h25.45.460,Bayesian,2022.1.1,None,
,,,,56,0,56,0,,,,,,,,,,,,,,,,,,,,,,,,1319.5079107728945,-5.0,2.9682383261324144e-05,False,0.01394340000115335,None,None,0,,258.9368299000198,259.9412266999716,None,1,259.9412266999716,258.9368299000198,,,ddmfvc,001,fr,200,2022-05-05_10h25.45.460,Bayesian,2022.1.1,None,
,,,,57,0,57,0,,,,,,,,,,,,,,,,,,,,,,,,,,,True,0.01555713324341923,None,None,0,,261.0610995000461,262.07443569996394,None,1,262.07443569996394,261.0610995000461,,,ddmfvc,001,fr,200,2022-05-05_10h25.45.460,Bayesian,2022.1.1,None,
,,,,58,0,58,0,,,,,,,,,,,,,,,,,,,,,,,,466.5164957684038,3.0,0.0001033350262649392,False,0.0007495000027120113,0.1867801999906078,['space'],1,[0.7494607999688014],266.2284555999795,267.25473020004574,None,1,267.25473020004574,266.2284555999795,,,ddmfvc,001,fr,200,2022-05-05_10h25.45.460,Bayesian,2022.1.1,None,
,,,,59,0,59,0,,,,,,,,,,,,,,,,,,,,,,,,176.7766952966369,1.0,0.00039272999556449274,False,0.01596073340624571,None,['space'],1,[0.7524124000919983],271.6810752999736,272.6885779000586,None,1,272.6885779000586,271.6810752999736,,,ddmfvc,001,fr,200,2022-05-05_10h25.45.460,Bayesian,2022.1.1,None,
,,,,60,0,60,0,,,,,,,,,,,,,,,,,,,,,,,,2639.015821545789,4.0,0.00012244339047642582,False,0.011195966741070151,None,['space'],1,[0.884079199982807],275.88520020002034,276.89076950005256,None,1,276.89076950005256,275.88520020002034,,,ddmfvc,001,fr,200,2022-05-05_10h25.45.460,Bayesian,2022.1.1,None,
,,,,61,0,61,0,,,,,,,,,,,,,,,,,,,,,,,,870.5505632961246,-2.0,3.206961375855311e-05,False,0.01118330005556345,None,None,0,,280.451557100052,281.4617828000337,None,1,281.4617828000337,280.451557100052,,,ddmfvc,001,fr,200,2022-05-05_10h25.45.460,Bayesian,2022.1.1,None,
,,,,62,0,62,0,,,,,,,,,,,,,,,,,,,,,,,,250.0,2.0,0.00021084825171429112,False,0.008531799889169633,0.2009708998957649,None,0,,284.5138118000468,285.5202212999575,None,1,285.5202212999575,284.5138118000468,,,ddmfvc,001,fr,200,2022-05-05_10h25.45.460,Bayesian,2022.1.1,None,
,,,,63,0,63,0,,,,,,,,,,,,,,,,,,,,,,,,1866.0659830736151,-3.0,4.868135812041065e-05,False,0.014047599979676306,None,['space'],1,[0.925451899995096],289.3478455999866,290.35958419996314,None,1,290.35958419996314,289.3478455999866,,,ddmfvc,001,fr,200,2022-05-05_10h25.45.460,Bayesian,2022.1.1,None,
,,,,64,0,64,0,,,,,,,,,,,,,,,,,,,,,,,,,,,True,0.015064133331179619,None,None,0,,291.5260973999975,292.5393328999635,None,1,292.5393328999635,291.5260973999975,,,ddmfvc,001,fr,200,2022-05-05_10h25.45.460,Bayesian,2022.1.1,None,
,,,,65,0,65,0,,,,,,,,,,,,,,,,,,,,,,,,4924.577653379667,-6.0,7.395346242294152e-05,False,0.013450766680762172,None,['space'],1,[0.5560525000328198],297.10988670005463,298.11217269999906,None,1,298.11217269999906,297.10988670005463,,,ddmfvc,001,fr,200,2022-05-05_10h25.45.460,Bayesian,2022.1.1,None,
,,,,66,0,66,0,,,,,,,,,,,,,,,,,,,,,,,,164.93848884661182,0.0,0.0003931354593573141,False,0.004551866790279746,0.1994071666849777,None,0,,301.8245502000209,302.8392038999591,None,1,302.8392038999591,301.8245502000209,,,ddmfvc,001,fr,200,2022-05-05_10h25.45.460,Bayesian,2022.1.1,None,
,,,,67,0,67,0,,,,,,,,,,,,,,,,,,,,,,,,8000.0,-2.0,0.00014420157515633036,False,0.013726099976338446,None,['space'],1,[0.6168432000558823],306.48848759999964,307.49895489995833,None,1,307.49895489995833,306.48848759999964,,,ddmfvc,001,fr,200,2022-05-05_10h25.45.460,Bayesian,2022.1.1,None,
,,,,68,0,68,0,,,,,,,,,,,,,,,,,,,,,,,,8000.0,-2.0,0.00014420157515633036,False,None,None,None,0,,None,None,None,1,None,None,,"{'estimation': [[125.00000000000007, 7.159175817311704], [126.0468804279514, 7.0], [133.03256218853744, 6.0], [133.97168281703668, 5.876763562060933], [139.40638762729859, 5.0], [143.5872943746293, 4.369950949930364], [146.05398879206257, 4.0], [152.88970149919314, 3.0], [153.89305166811442, 2.8635722881428842], [161.35499256687206, 2.0], [164.93848884661162, 1.6093112597021733], [173.7920911915054, 1.0], [176.77669529663666, 0.8003800261654269], [189.46457081379947, 0.547681486333655], [203.0630990890585, 0.8473163948170634], [205.96205220398977, 1.0], [217.6376408240306, 1.6000805509173097], [223.6381169219199, 2.0], [233.25824788420132, 2.626180643476042], [238.89091509223442, 3.0], [249.99999999999937, 3.7166988678696318], [255.1945756508304, 4.0], [267.94336563407256, 4.674950258245201], [277.1219910360596, 5.0], [287.1745887492579, 5.347902014810314], [307.78610333622805, 5.634060966657366], [329.87697769322244, 5.513616445785994], [353.55339059327247, 5.008027259455614], [353.7899337758184, 5.0], [378.929141627598, 4.194900943411338], [383.95918219429234, 4.0], [406.12619817811606, 3.17166637567039], [410.5601321140831, 3.0], [435.2752816480601, 2.062418333692211], [437.0718350274532, 2.0], [466.33124507222084, 1.0], [466.5164957684015, 0.9937914451767409], [499.9999999999975, 0.08185045864054263], [504.200427052506, 0.0], [535.8867312681438, -0.5924343916572092], [574.3491774985151, -0.9831009162041934], [579.9516769899245, -1.0], [615.5722066724546, -1.1029430092651542], [659.7539553864424, -1.0006946670227197], [659.8897423298519, -1.0], [707.1067811865431, -0.7668637034553498], [757.8582832551941, -0.5071098353491504], [812.2523963562301, -0.31262197611845793], [870.5505632961181, -0.25423556129216396], [933.0329915368008, -0.37594524155333126], [999.9999999999926, -0.6935230489409251], [1042.290362696741, -1.0], [1071.773462536285, -1.2066773876912018], [1148.698354997026, -1.8711079991886872], [1161.931911361452, -2.0], [1231.1444133449063, -2.6454468574411782], [1269.0981064272926, -3.0], [1319.5079107728832, -3.4523455615986154], [1389.3358024093086, -4.0], [1414.2135623730828, -4.189091806756456], [1515.7165665103846, -4.733346217922802], [1624.5047927124563, -4.9745001403273434], [1741.1011265922318, -4.810170592661189], [1866.065983073597, -4.196409692475255], [1890.3173448758293, -4.0], [1999.9999999999802, -3.14537437749431], [2014.72030288146, -3.0], [2117.3368938417566, -2.0], [2143.5469250725646, -1.7590577219832835], [2217.9455156515774, -1.0], [2297.396709994046, -0.2208003351182511], [2321.6147079668826, 0.0], [2431.690967119288, 1.0], [2462.2888266898062, 1.261860214502654], [2571.688704778567, 2.0], [2639.01582154576, 2.439616362994944], [2796.5340461177484, 3.0], [2828.427124746159, 3.1121249977585994], [3031.4331330207615, 3.1368888662534244], [3074.735560798813, 3.0], [3249.0095854249043, 2.469750195397057], [3332.4246584538055, 2.0], [3482.2022531844555, 1.1798954659968628], [3507.794929338779, 1.0], [3647.1723446395144, 0.0], [3732.1319661471844, -0.5718213018736933], [3790.2887973338275, -1.0], [3922.313420814398, -2.0], [3999.9999999999504, -2.5410338097470557], [4068.3696970053325, -3.0], [4214.52953509096, -4.0], [4287.093850145118, -4.456159889370522], [4389.63744206669, -5.0], [4583.171818943722, -6.0], [4594.793419988081, -6.0566828132965], [4877.249060919419, -7.000000000000001], [4924.577653379601, -7.151755525513447], [5278.031643091506, -7.628407965241936], [5656.854249492303, -7.489103578023689], [5949.47643482757, -7.0], [6062.866266041508, -6.814695587730991], [6398.102175765351, -6.0], [6498.019170849792, -5.764782713955373], [6779.341466065779, -5.0], [6964.404506368894, -4.519167831001102], [7164.58776489823, -4.0], [7464.2639322943505, -3.2509121224090887], [7580.469083420222, -3.0], [7999.999999999882, -2.096577934154489]], 'plus_line': [[125.0, 4.262058086932319], [126.90557711599392, 4.0], [133.9716828170366, 3.1139554254065724], [134.68179183628556, 3.0], [140.99368205144555, 2.0], [143.5872943746293, 1.6390113012905085], [147.79967421048593, 1.0], [153.89305166811442, 0.18085585620030153], [155.44846501207843, 0.0], [164.57485860769128, -1.0], [164.9384888466117, -1.0376827910444597], [176.77669529663666, -1.8484825306364894], [183.8517361235875, -2.0], [189.46457081379947, -2.1342586355226776], [195.89950409771822, -2.0], [203.0630990890585, -1.873016620335377], [217.6376408240306, -1.157683255694629], [219.97540313057212, -1.0], [233.25824788420132, -0.1378600223415666], [235.3097723681553, 0.0], [249.99999999999937, 0.9650011208554738], [250.62922397369147, 1.0], [267.94336563407256, 1.9152090041506018], [270.2604504288898, 2.0], [287.1745887492579, 2.558502690462675], [307.78610333622805, 2.8445141573164774], [329.87697769322244, 2.7206865295773692], [353.55339059327247, 2.2380459531651886], [360.95208231859203, 2.0], [378.929141627598, 1.4232159590397289], [389.78935128560977, 1.0], [406.12619817811606, 0.37992229297889224], [415.501604396405, 0.0], [435.2752816480601, -0.7752925089833146], [441.40424558539695, -1.0], [466.5164957684015, -1.8980600592250536], [470.0518758540341, -2.0], [499.9999999999975, -2.8513537583441204], [507.91667136379135, -3.0], [535.8867312681438, -3.531214877499905], [574.3491774985143, -3.8688157957571176], [615.5722066724546, -3.937723685863019], [659.7539553864432, -3.820704412010972], [707.1067811865431, -3.598522096953586], [757.8582832551941, -3.3414262655222915], [812.2523963562301, -3.1219280088960266], [870.5505632961192, -3.0272161193861864], [933.0329915368008, -3.1358434679267764], [999.9999999999939, -3.4656780096804303], [1071.773462536285, -3.9761331072209143], [1074.3909096736438, -4.0], [1148.698354997026, -4.685417555358069], [1181.444326403741, -5.0], [1231.1444133449063, -5.481741888616277], [1287.9154434333573, -6.0], [1319.5079107728832, -6.291374081765747], [1412.126478895607, -7.0], [1414.2135623730828, -7.016523924152447], [1515.7165665103846, -7.602041925260448], [1624.5047927124563, -7.858493301777325], [1741.1011265922318, -7.725128355910248], [1866.065983073597, -7.105054989449619], [1878.787409250329, -7.0], [1999.9999999999802, -6.024433054310749], [2002.4655302022556, -6.0], [2104.1761143766084, -5.0], [2143.5469250725646, -4.613321917808602], [2204.297906107501, -4.0], [2297.0581110736866, -3.0], [2297.396709994046, -2.9966546093686057], [2407.980954992327, -2.0], [2462.2888266898062, -1.5023016404623606], [2536.5598964046253, -1.0], [2639.01582154576, -0.31307692986247104], [2724.946992217163, 0.0], [2828.427124746159, 0.34276068662150216], [3031.4331330207615, 0.3379835194980336], [3138.7524522352187, 0.0], [3249.0095854249043, -0.3577999317792344], [3359.147190074349, -1.0], [3482.2022531844555, -1.6659475551032497], [3527.156848931244, -2.0], [3662.968098997328, -3.0], [3732.1319661471844, -3.442666234270629], [3801.9717120122523, -4.0], [3932.925502671163, -5.0], [3999.9999999999504, -5.438635594905421], [4077.3737669382745, -6.0], [4223.484102311151, -7.0], [4287.093850145118, -7.378361851324037], [4398.100700252569, -8.0], [4594.793419988081, -8.974926349140372], [4602.064514941239, -9.0], [4900.273465589971, -10.0], [4924.577653379601, -10.077526506858314], [5278.031643091506, -10.572243538194044], [5656.854249492303, -10.439480421716638], [5911.245739720976, -10.0], [6062.866266041508, -9.762061682256316], [6369.905731611961, -9.0], [6498.019170849792, -8.694474007652907], [6748.286211782688, -8.0], [6964.4045063688845, -7.4064788073587575], [7120.308361595668, -6.999999999999999], [7464.2639322943505, -6.0932760145970075], [7510.280837799794, -6.0], [7999.999999999882, -5.004466279496137]], 'minus_line': [[125.0, 10.101775522618691], [125.61592822954435, 10.0], [131.7984374712537, 9.0], [133.9716828170366, 8.668882623675401], [138.0632079577153, 8.0], [143.5872943746293, 7.054252721118097], [143.95020658140083, 7.0], [150.5642103704477, 6.0], [153.89305166811442, 5.498200154044859], [158.10363772934411, 5.0], [164.93848884661162, 4.1863060450834375], [167.49936796700473, 4.0], [176.77669529663666, 3.376927502528429], [189.46457081379947, 3.1598703733033884], [203.0630990890584, 3.5462818903859326], [211.1569590826357, 4.0], [217.6376408240306, 4.3758478787080906], [226.55366815166954, 5.0], [233.25824788420132, 5.459358144681794], [241.12289005434164, 6.0], [249.99999999999937, 6.58837593792574], [257.38337818632715, 7.0], [267.94336563407256, 7.578888781094655], [279.7984969678701, 8.0], [287.1745887492579, 8.271132461287257], [307.78610333622805, 8.565566202979749], [329.87697769322244, 8.416541110831037], [346.52117501013566, 8.0], [353.55339059327247, 7.845440916555834], [377.97114907404415, 7.0], [378.929141627598, 6.969205969395611], [404.08115037531826, 6.0], [406.12619817811606, 5.924647246056348], [430.7627992676601, 5.0], [435.2752816480601, 4.834797042009343], [460.4398960019365, 4.0], [466.5164957684015, 3.8027972203275757], [496.52088612074806, 3.0], [499.9999999999981, 2.910377675679576], [535.8867312681438, 2.2515564940622803], [557.9739887826794, 2.0], [574.3491774985143, 1.836236078134178], [615.5722066724546, 1.7173588187906055], [659.7539553864432, 1.8331724896733], [689.9425019213052, 2.0], [707.1067811865431, 2.1065676936450246], [757.8582832551941, 2.4173951600867234], [812.2523963562301, 2.6202030734424215], [870.5505632961181, 2.6594085424962275], [933.0329915368008, 2.5154861563576327], [999.9999999999926, 2.176149832511644], [1023.0934636365633, 2.0], [1071.773462536285, 1.6743664388463497], [1147.6810241967391, 1.0], [1148.698354997026, 0.9916474926889279], [1231.1444133449063, 0.22117734686551005], [1253.3176237560779, 0.0], [1319.5079107728832, -0.606455073180925], [1365.7860946082012, -1.0], [1414.2135623730828, -1.3753507278289823], [1515.7165665103846, -1.959128278748798], [1531.489133580932, -2.0], [1624.5047927124563, -2.2015383829751127], [1741.1011265922318, -2.0485521479760074], [1750.8112494338832, -2.0], [1866.065983073597, -1.4204282577784362], [1919.0626508163584, -1.0], [1999.9999999999802, -0.38567948616301373], [2038.8441877629073, 0.0], [2143.5469250725646, 0.9600993679579415], [2147.4175157967234, 1.0], [2242.17669283677, 2.0], [2297.396709994046, 2.50668718136778], [2349.7307970046077, 3.0], [2462.2888266898062, 3.97050214680053], [2466.4996590196747, 4.0], [2609.31946885746, 5.0], [2639.01582154576, 5.195541353141869], [2828.427124746159, 5.903291475281237], [3031.433133020758, 5.961431911788614], [3249.0095854249043, 5.324791080654542], [3306.9734201578967, 5.0], [3481.6614133558983, 4.0], [3482.2022531844555, 3.997082260378749], [3627.6239524046914, 3.0], [3732.1319661471844, 2.235894890821178], [3766.60147212014, 2.0], [3901.1245913546, 1.0], [3999.9999999999504, 0.24039428328334433], [4038.62843744535, 0.0], [4186.553432682713, -1.0], [4287.093850145118, -1.6921869385996917], [4348.022766361151, -2.0], [4534.06259332733, -3.0], [4594.793419988076, -3.3131623145562603], [4800.16657359462, -4.0], [4924.577653379601, -4.406258775083794], [5278.031643091506, -4.872577135700401], [5656.854249492303, -4.6783966060126705], [6046.835342411584, -4.0], [6062.866266041508, -3.9706052906832974], [6448.990560436902, -3.0], [6498.019170849792, -2.8806556550146656], [6816.652268841389, -2.0], [6964.404506368894, -1.621715112436509], [7199.521280552648, -1.0], [7464.2639322943505, -0.3500311107501146], [7612.600073553001, 0.0], [7999.999999999882, 0.8849195601162769]]}",ddmfvc,001,fr,200,2022-05-05_10h25.45.460,Bayesian,2022.1.1,None,
