frequencies,training_trials.thisRepN,training_trials.thisTrialN,training_trials.thisN,training_trials.thisIndex,frequencies.thisRepN,frequencies.thisTrialN,frequencies.thisN,frequencies.thisIndex,trials.thisRepN,trials.thisTrialN,trials.thisN,trials.thisIndex,tFrequency,tLevel,tCorrect,Tprobe.started,Tprobe.stopped,tTriangle_cue.started,tTriangle_cue.stopped,Tfeedback.keys,Tfeedback.corr,Tfeedback.rt,Tfeedback.started,Tfeedback.stopped,reversals_nTrials.routineEndVal,track_dir.routineEndVal,step_up.routineEndVal,Correct,Frequency,Level,Psychopy_Level,Direction,Reversals,Track_dir,Step,probe.started,probe.stopped,cross_cue.started,cross_cue.stopped,circle_cue.started,circle_cue.stopped,triangle_cue.started,triangle_cue.stopped,feedback.keys,feedback.corr,feedback.rt,feedback.started,feedback.stopped,memo.started,memo.stopped,key_resp.keys,key_resp.rt,key_resp.started,key_resp.stopped,text.started,text.stopped,participant,session,skip_training,language (english or french),date,expName,psychopyVersion,frameRate,
450,0,0,0,1,,,,,,,,,450,30,right,42.2423736898927,42.45879669999704,42.17930279998109,42.47655909997411,right,1,2.9332499001175165,39.742022099904716,None,,,,,,,,,,,,,,,,,,,,,,,,,,,,,,,,,nlhglm,001,0,fr,2022-05-09_15h22.30.358,3-AFC_adaptive_staircase_mess,2022.1.1,35.20443744206413,
850,0,1,1,2,,,,,,,,,850,30,left,47.18028758990113,47.38596550002694,None,None,left,1,1.2332516002934426,46.73940439987928,None,,,,,,,,,,,,,,,,,,,,,,,,,,,,,,,,,nlhglm,001,0,fr,2022-05-09_15h22.30.358,3-AFC_adaptive_staircase_mess,2022.1.1,35.20443744206413,
200,0,2,2,0,,,,,,,,,200,30,left,50.909855689969845,51.12530259997584,None,None,left,1,0.9874730000738055,50.44070839998312,None,,,,,,,,,,,,,,,,,,,,,,,,,,,,,,,,,nlhglm,001,0,fr,2022-05-09_15h22.30.358,3-AFC_adaptive_staircase_mess,2022.1.1,35.20443744206413,
5000,0,3,3,4,,,,,,,,,5000,30,right,55.73316088982392,55.9587858999148,55.66552309994586,55.98902039998211,right,1,2.7622132000979036,53.27369649987668,None,,,,,,,,,,,,,,,,,,,,,,,,,,,,,,,,,nlhglm,001,0,fr,2022-05-09_15h22.30.358,3-AFC_adaptive_staircase_mess,2022.1.1,35.20443744206413,
1300,0,4,4,3,,,,,,,,,1300,30,right,60.430200389935635,None,60.36143499985337,60.66089820000343,right,1,2.8053349000401795,57.96693959995173,None,,,,,,,,,,,,,,,,,,,,,,,,,,,,,,,,,nlhglm,001,0,fr,2022-05-09_15h22.30.358,3-AFC_adaptive_staircase_mess,2022.1.1,35.20443744206413,
,,,,,0,0,0,0,0,0,0,0,,,,,,,,,,,,,[],[],10,up,1000,30,0.0013930605843148849,0,0,-1,10,70.94473319000099,71.15599559992552,69.90784560004249,70.2150294999592,70.91126640001312,71.21867059986107,None,None,up,1,1.3894943001214415,69.94288159999996,None,None,None,,,,,,,nlhglm,001,0,fr,2022-05-09_15h22.30.358,3-AFC_adaptive_staircase_mess,2022.1.1,35.20443744206413,
,,,,,0,0,0,0,1,0,1,0,,,,,,,,,,,,,,,,right,1000,30,0.0013930605843148849,0,0,-1,10,74.86643118981738,75.09014709992334,72.84309159987606,73.14422299992293,73.83524489984848,74.16665109992027,74.8329643998295,75.14738440001383,right,1,2.299428200116381,72.87220009998418,None,None,None,,,,,,,nlhglm,001,0,fr,2022-05-09_15h22.30.358,3-AFC_adaptive_staircase_mess,2022.1.1,35.20443744206413,
,,,,,0,0,0,0,2,0,2,0,,,,,,,,,,,,,,,,up,1000,10,0.00013930605843148847,-1,0,-1,-10,77.66931448981632,77.88179109990597,76.62868819991127,76.93046379997395,77.63584769982845,77.94474059995264,None,None,up,1,1.380515000084415,76.68735549994744,None,None,None,,,,,,,nlhglm,001,0,fr,2022-05-09_15h22.30.358,3-AFC_adaptive_staircase_mess,2022.1.1,35.20443744206413,
,,,,,0,0,0,0,3,0,3,0,,,,,,,,,,,,,,,,up,1000,10,0.00013930605843148847,-1,0,-1,-10,80.6182740899967,None,79.54380139987916,79.84461349993944,80.54917080001906,80.85210209991783,None,None,up,1,1.4013775000348687,79.61068079993129,None,None,None,,,,,,,nlhglm,001,0,fr,2022-05-09_15h22.30.358,3-AFC_adaptive_staircase_mess,2022.1.1,35.20443744206413,
,,,,,0,0,0,0,4,0,4,0,,,,,,,,,,,,,,,,left,1000,0,4.405244365040069e-05,-1,0,-1,-10,82.55198769003619,None,82.48294749995694,82.78625619993545,83.48423999990337,83.7862469998654,84.4888788999524,84.81739769992419,left,1,6.427129400195554,82.55317700002342,None,85.05397489992902,None,,,,,,,nlhglm,001,0,fr,2022-05-09_15h22.30.358,3-AFC_adaptive_staircase_mess,2022.1.1,35.20443744206413,
,,,,,0,0,0,0,5,0,5,0,,,,,,,,,,,,,,,,right,1000,0,4.405244365040069e-05,-1,0,-1,-10,92.51697008998599,92.72728569991887,90.4513055998832,90.75482399994507,91.4531465000473,91.75628009997308,92.45067079993896,92.76124099991284,up,0,5.074723100289702,90.51366989989765,None,93.02039449987933,None,,,,,,,nlhglm,001,0,fr,2022-05-09_15h22.30.358,3-AFC_adaptive_staircase_mess,2022.1.1,35.20443744206413,
,,,,,0,0,0,0,6,0,6,0,,,,,,,,,,,,,,,,up,1000,5,7.833755350540742e-05,1,1,1,5,98.12640338984784,98.33828160003759,97.06359489983879,97.39631760003977,98.06092939991504,98.36985319992527,99.04908929998055,99.36215809988789,up,1,2.9728519001509994,97.09571989998221,None,99.61714640003629,None,,,,,,,nlhglm,001,0,fr,2022-05-09_15h22.30.358,3-AFC_adaptive_staircase_mess,2022.1.1,35.20443744206413,
,,,,,0,0,0,0,7,0,7,0,,,,,,,,,,,,,,,,left,1000,5,7.833755350540742e-05,1,1,1,5,101.60053018981125,101.81584709999152,101.5333012000192,101.84426139993593,None,None,None,None,left,1,0.7383332001045346,101.60238689999096,None,None,None,,,,,,,nlhglm,001,0,fr,2022-05-09_15h22.30.358,3-AFC_adaptive_staircase_mess,2022.1.1,35.20443744206413,
,,,,,0,0,0,0,8,0,8,0,,,,,,,,,,,,,,,,left,1000,-5,2.4772509540239506e-05,-1,2,-1,-5.0,103.90833358990494,None,103.84121929993853,104.17232899996452,104.84175119991414,105.14134739991277,105.84501819987781,106.1720570998732,right,0,4.755295000039041,103.90531309996732,None,106.41323379985988,None,,,,,,,nlhglm,001,0,fr,2022-05-09_15h22.30.358,3-AFC_adaptive_staircase_mess,2022.1.1,35.20443744206413,
,,,,,0,0,0,0,9,0,9,0,,,,,,,,,,,,,,,,left,1000,-2.5,3.303467240037979e-05,1,3,1,2.5,110.21167359000538,110.42074389988557,110.14755350002088,110.4534338999074,111.14777429983951,111.4495842999313,112.15045019984245,112.44951229984872,right,0,6.059936800040305,110.21587860002182,None,112.72011679993011,None,,,,,,,nlhglm,001,0,fr,2022-05-09_15h22.30.358,3-AFC_adaptive_staircase_mess,2022.1.1,35.20443744206413,
,,,,,0,0,0,0,10,0,10,0,,,,,,,,,,,,,,,,left,1000,0.0,4.405244365040069e-05,1,3,1,2.5,117.81977088993881,118.03791259997524,117.75101859983988,118.0547590998467,118.75568069983274,119.08539809985086,119.75440540001728,120.05891779996455,up,0,7.270597300259396,117.82127269986086,None,120.29443109990098,None,,,,,,,nlhglm,001,0,fr,2022-05-09_15h22.30.358,3-AFC_adaptive_staircase_mess,2022.1.1,35.20443744206413,
,,,,,0,0,0,0,11,0,11,0,,,,,,,,,,,,,,,,right,1000,2.5,5.874487774697646e-05,1,3,1,2.5,128.62754209002014,128.83767599985003,126.56555359996855,126.86707989987917,127.55575539986603,127.86402129987255,128.55905369995162,128.86977689992636,right,1,2.843713500071317,126.63171679992229,None,129.12785489996895,None,,,,,,,nlhglm,001,0,fr,2022-05-09_15h22.30.358,3-AFC_adaptive_staircase_mess,2022.1.1,35.20443744206413,
,,,,,0,0,0,0,12,0,12,0,,,,,,,,,,,,,,,,right,1000,2.5,5.874487774697646e-05,1,3,1,2.5,133.04080218996387,None,130.96159459999762,131.26739399996586,131.97227759985253,132.30485169985332,132.97152839996852,133.27351929992437,right,1,2.901684599928558,131.02209750004113,None,133.53992010001093,None,,,,,,,nlhglm,001,0,fr,2022-05-09_15h22.30.358,3-AFC_adaptive_staircase_mess,2022.1.1,35.20443744206413,
,,,,,0,0,0,0,13,0,13,0,,,,,,,,,,,,,,,,left,1000,-2.5,3.303467240037979e-05,-1,4,-1,-5.0,135.47180018981453,135.67758259992115,135.40799209987745,135.7109757999424,136.40100369998254,136.7070482999552,137.40653609996662,137.70794530003332,up,0,6.385317400330678,135.47472429997288,None,137.97064569988288,None,,,,,,,nlhglm,001,0,fr,2022-05-09_15h22.30.358,3-AFC_adaptive_staircase_mess,2022.1.1,35.20443744206413,
,,,,,0,0,0,0,14,0,14,0,,,,,,,,,,,,,,,,right,1000,0.0,4.405244365040069e-05,1,5,1,2.5,145.40722798986826,145.62026429991238,143.33744399994612,143.6445094998926,144.33760049985722,144.64970960002393,145.34006229997613,145.64892629999667,right,1,2.870508600026369,143.40555829997174,None,145.91140730003826,None,,,,,,,nlhglm,001,0,fr,2022-05-09_15h22.30.358,3-AFC_adaptive_staircase_mess,2022.1.1,35.20443744206413,
,,,,,0,0,0,0,15,0,15,0,,,,,,,,,,,,,,,,up,1000,0.0,4.405244365040069e-05,1,5,1,2.5,148.81513878994156,149.0234627998434,147.74644909985363,148.0804357000161,148.74782489985228,149.0574345998466,149.75122840004042,150.04929469991475,up,1,2.2747172000817955,147.80919409985654,None,None,None,,,,,,,nlhglm,001,0,fr,2022-05-09_15h22.30.358,3-AFC_adaptive_staircase_mess,2022.1.1,35.20443744206413,
,,,,,0,0,0,0,16,0,16,0,,,,,,,,,,,,,,,,left,1000,-5.0,2.4772509540239506e-05,-1,6,-1,-5.0,151.6579598899698,151.86549369990826,151.5892729999032,151.8966317998711,152.58541579986922,152.9166292999871,153.58037169999443,153.88479080004618,up,0,2.8573246002197266,151.65852669999003,None,154.15468809986487,None,,,,,,,nlhglm,001,0,fr,2022-05-09_15h22.30.358,3-AFC_adaptive_staircase_mess,2022.1.1,35.20443744206413,
,,,,,1,0,1,0,0,0,0,0,,,,,,,,,,,,,[],[],10,left,1500,30,0.001527460556607757,0,0,-1,10,157.72615378990304,157.9417540000286,157.69268699991517,158.00187379983254,None,None,None,None,left,1,0.532186500262469,157.72868289984763,None,None,None,left,1.6208935000468045,155.5987728999462,None,155.5987728999462,None,nlhglm,001,0,fr,2022-05-09_15h22.30.358,3-AFC_adaptive_staircase_mess,2022.1.1,35.20443744206413,
,,,,,1,0,1,0,1,0,1,0,,,,,,,,,,,,,,,,up,1500,30,0.001527460556607757,0,0,-1,10,160.7937362898374,161.0156465000473,159.7586781999562,160.06064249994233,160.76026949984953,161.0708412998356,None,None,up,1,1.2849459000863135,159.82327529997565,None,None,None,,,,,,,nlhglm,001,0,fr,2022-05-09_15h22.30.358,3-AFC_adaptive_staircase_mess,2022.1.1,35.20443744206413,
,,,,,1,0,1,0,2,0,2,0,,,,,,,,,,,,,,,,up,1500,10,0.0001527460556607757,-1,0,-1,-10,163.66546998999547,163.87497300002724,162.5892095998861,162.90154099999927,163.59618170000613,163.90424189995974,None,None,up,1,1.3524781002197415,162.65258169989102,None,None,None,,,,,,,nlhglm,001,0,fr,2022-05-09_15h22.30.358,3-AFC_adaptive_staircase_mess,2022.1.1,35.20443744206413,
,,,,,1,0,1,0,3,0,3,0,,,,,,,,,,,,,,,,right,1500,10,0.0001527460556607757,-1,0,-1,-10,167.56143558991607,167.77330649993382,165.49260149989277,165.80806860001758,166.5015737998765,166.82653299998492,167.49443829990923,167.80623269989155,right,1,2.319619100075215,165.55727420002222,None,None,None,,,,,,,nlhglm,001,0,fr,2022-05-09_15h22.30.358,3-AFC_adaptive_staircase_mess,2022.1.1,35.20443744206413,
,,,,,1,0,1,0,4,0,4,0,,,,,,,,,,,,,,,,right,1500,0,4.830254394949071e-05,-1,0,-1,-10,171.42266268993262,171.64738409989513,169.37015730002895,169.6983208998572,170.34913389990106,170.6731072999537,171.36154800001532,171.6773712998256,right,1,2.6044660001061857,169.40040959999897,None,171.90165479993448,None,,,,,,,nlhglm,001,0,fr,2022-05-09_15h22.30.358,3-AFC_adaptive_staircase_mess,2022.1.1,35.20443744206413,
,,,,,1,0,1,0,5,0,5,0,,,,,,,,,,,,,,,,left,1500,0,4.830254394949071e-05,-1,0,-1,-10,173.5535616899142,None,173.48917969991453,173.8133371998556,174.5025134999305,174.82498959987424,175.49079129984602,175.80859729996882,left,1,2.7731587002053857,173.55094049987383,None,176.03766539995559,None,,,,,,,nlhglm,001,0,fr,2022-05-09_15h22.30.358,3-AFC_adaptive_staircase_mess,2022.1.1,35.20443744206413,
,,,,,1,0,1,0,6,0,6,0,,,,,,,,,,,,,,,,up,1500,-10,1.527460556607758e-05,-1,0,-1,-10,178.85597878985573,None,177.80757889989763,178.1397082998883,178.79220409994014,179.12287530000322,179.80854690005071,180.1244105999358,left,0,2.9011357000563294,177.83928709989414,None,180.34407009999268,None,,,,,,,nlhglm,001,0,fr,2022-05-09_15h22.30.358,3-AFC_adaptive_staircase_mess,2022.1.1,35.20443744206413,
,,,,,1,0,1,0,7,0,7,0,,,,,,,,,,,,,,,,left,1500,-5,2.716251657462168e-05,1,1,1,5,182.2642619899707,182.49022669997066,182.23079519998282,182.55026499996893,183.21378310001455,183.5262201000005,184.22201679996215,184.5300072999671,left,1,5.231417000293732,182.26079520001076,None,184.7747920998372,None,,,,,,,nlhglm,001,0,fr,2022-05-09_15h22.30.358,3-AFC_adaptive_staircase_mess,2022.1.1,35.20443744206413,
,,,,,1,0,1,0,8,0,8,0,,,,,,,,,,,,,,,,right,1500,-5,2.716251657462168e-05,1,1,1,5,191.01336858992,None,188.95200970000587,189.2665150000248,189.93766990001313,190.2495269998908,190.97990179993212,191.30086799990386,left,0,3.0389765000436455,189.01486029988155,None,191.51468340004794,None,,,,,,,nlhglm,001,0,fr,2022-05-09_15h22.30.358,3-AFC_adaptive_staircase_mess,2022.1.1,35.20443744206413,
,,,,,1,0,1,0,9,0,9,0,,,,,,,,,,,,,,,,right,1500,0,4.830254394949071e-05,1,1,1,5,195.5895642900141,195.82031539990567,193.53635319997557,193.86506969993934,194.54771149996668,194.86694730003364,195.52409789990634,195.8377852998674,up,0,3.0618035001680255,193.56604409986176,None,196.09348559984937,None,,,,,,,nlhglm,001,0,fr,2022-05-09_15h22.30.358,3-AFC_adaptive_staircase_mess,2022.1.1,35.20443744206413,
,,,,,1,0,1,0,10,0,10,0,,,,,,,,,,,,,,,,up,1500,5,8.589541935787943e-05,1,1,1,5,199.14591238985304,None,198.100270899944,198.41246320004575,199.11244559986517,199.43406030000187,None,None,up,1,1.5984905001241714,198.16537289996631,None,None,None,,,,,,,nlhglm,001,0,fr,2022-05-09_15h22.30.358,3-AFC_adaptive_staircase_mess,2022.1.1,35.20443744206413,
,,,,,1,0,1,0,11,0,11,0,,,,,,,,,,,,,,,,right,1500,5,8.589541935787943e-05,1,1,1,5,203.29876548994798,None,201.24390559992753,201.57248659990728,202.23067589988932,202.54784019989893,203.23318840004504,203.54662019992247,right,1,2.480517400195822,201.28358139982447,None,203.80848638981115,None,,,,,,,nlhglm,001,0,fr,2022-05-09_15h22.30.358,3-AFC_adaptive_staircase_mess,2022.1.1,35.20443744206413,
,,,,,1,0,1,0,12,0,12,0,,,,,,,,,,,,,,,,up,1500,-5,2.716251657462168e-05,-1,2,-1,-5.0,206.2771348898532,None,205.23766270000488,205.55641019996256,206.21552319987677,206.52605680003762,207.2309265998192,207.54578159982339,up,1,2.4948662002570927,205.26881889998913,None,207.7974984999746,None,,,,,,,nlhglm,001,0,fr,2022-05-09_15h22.30.358,3-AFC_adaptive_staircase_mess,2022.1.1,35.20443744206413,
,,,,,1,0,1,0,13,0,13,0,,,,,,,,,,,,,,,,up,1500,-5,2.716251657462168e-05,-1,2,-1,-5.0,210.33342138992157,210.5513513998594,209.27144769998267,209.60038079996593,210.25402219989337,210.58655899995938,None,None,up,1,1.5014107001479715,209.3346352998633,None,None,None,,,,,,,nlhglm,001,0,fr,2022-05-09_15h22.30.358,3-AFC_adaptive_staircase_mess,2022.1.1,35.20443744206413,
,,,,,1,0,1,0,14,0,14,0,,,,,,,,,,,,,,,,left,1500,-10.0,1.527460556607758e-05,-1,2,-1,-5.0,212.40371328999754,212.62162299989723,212.33517619990744,212.65228689997457,213.34207829996012,213.66800419986248,214.3440244998783,214.6700066998601,right,0,3.8243962000124156,212.38823749986477,None,214.90706889983267,None,,,,,,,nlhglm,001,0,fr,2022-05-09_15h22.30.358,3-AFC_adaptive_staircase_mess,2022.1.1,35.20443744206413,
,,,,,1,0,1,0,15,0,15,0,,,,,,,,,,,,,,,,right,1500,-7.5,2.036901389020565e-05,1,3,1,2.5,219.74226328998338,219.96158899995498,217.70644949981943,218.04322710004635,218.70912089990452,218.99557369994,219.70879649999551,220.02450930001214,right,1,4.390323600033298,217.74259689985774,None,220.24679129989818,None,,,,,,,nlhglm,001,0,fr,2022-05-09_15h22.30.358,3-AFC_adaptive_staircase_mess,2022.1.1,35.20443744206413,
,,,,,1,0,1,0,16,0,16,0,,,,,,,,,,,,,,,,up,1500,-7.5,2.036901389020565e-05,1,3,1,2.5,224.68398529000115,224.8987634999212,223.61524740001187,223.90076750004664,224.61438459996134,224.93004149990156,225.6222017998807,225.94965409999713,left,0,3.4241054002195597,223.65133839985356,None,226.15299790003337,None,,,,,,,nlhglm,001,0,fr,2022-05-09_15h22.30.358,3-AFC_adaptive_staircase_mess,2022.1.1,35.20443744206413,
,,,,,1,0,1,0,17,0,17,0,,,,,,,,,,,,,,,,up,1500,-5.0,2.716251657462168e-05,1,3,1,2.5,229.586815789924,229.80307239992544,228.55605729995295,228.8897118999157,229.55334899993613,229.8652961999178,230.53301079990342,230.8549548999872,right,0,3.416191200260073,228.58785369992256,None,231.08994029997848,None,,,,,,,nlhglm,001,0,fr,2022-05-09_15h22.30.358,3-AFC_adaptive_staircase_mess,2022.1.1,35.20443744206413,
,,,,,1,0,1,0,18,0,18,0,,,,,,,,,,,,,,,,left,1500,-2.5,3.622179800374953e-05,1,3,1,2.5,233.55887088982854,None,233.49119560001418,233.77812359994277,234.47900990000926,234.79429350001737,235.4814063999802,235.79443929996341,left,1,2.7613547001965344,233.56192599982023,None,236.06408509984612,None,,,,,,,nlhglm,001,0,fr,2022-05-09_15h22.30.358,3-AFC_adaptive_staircase_mess,2022.1.1,35.20443744206413,
,,,,,1,0,1,0,19,0,19,0,,,,,,,,,,,,,,,,left,1500,-2.5,3.622179800374953e-05,1,3,1,2.5,237.863649789826,238.07572639989667,237.78368350001983,238.1036781000439,None,None,None,None,up,0,0.5553513001650572,237.84816499985754,None,None,None,,,,,,,nlhglm,001,0,fr,2022-05-09_15h22.30.358,3-AFC_adaptive_staircase_mess,2022.1.1,35.20443744206413,
,,,,,1,0,1,0,20,0,20,0,,,,,,,,,,,,,,,,left,1500,0.0,4.830254394949071e-05,1,3,1,2.5,239.94129458989482,None,239.90782779990695,None,None,None,None,None,left,1,-1.374812699854374,239.93812549998984,None,None,None,,,,,,,nlhglm,001,0,fr,2022-05-09_15h22.30.358,3-AFC_adaptive_staircase_mess,2022.1.1,35.20443744206413,
,,,,,1,0,1,0,21,0,21,0,,,,,,,,,,,,,,,,right,1500,0.0,4.830254394949071e-05,1,3,1,2.5,None,None,241.39850799995475,241.68508279998787,242.40078300004825,242.70497679989785,243.40246260003187,None,up,0,1.9299033998977393,241.46603619982488,None,None,None,,,,,,,nlhglm,001,0,fr,2022-05-09_15h22.30.358,3-AFC_adaptive_staircase_mess,2022.1.1,35.20443744206413,
,,,,,1,0,1,0,22,0,22,0,,,,,,,,,,,,,,,,up,1500,2.5,6.441247758465671e-05,1,3,1,2.5,245.9393086900236,None,244.87049439991824,245.17354979994707,245.87074509984814,246.17347349994816,None,None,up,1,1.509111000224948,244.94246509997174,None,None,None,,,,,,,nlhglm,001,0,fr,2022-05-09_15h22.30.358,3-AFC_adaptive_staircase_mess,2022.1.1,35.20443744206413,
,,,,,1,0,1,0,23,0,23,0,,,,,,,,,,,,,,,,right,1500,2.5,6.441247758465671e-05,1,3,1,2.5,250.00819698988926,250.2268546000123,247.93968149996363,248.26481630001217,248.95394809986465,249.27557159983553,249.94054899993353,250.26304219989106,right,1,2.3310738999862224,248.00851590000093,None,None,None,,,,,,,nlhglm,001,0,fr,2022-05-09_15h22.30.358,3-AFC_adaptive_staircase_mess,2022.1.1,35.20443744206413,
,,,,,1,0,1,0,24,0,24,0,,,,,,,,,,,,,,,,up,1500,-2.5,3.622179800374953e-05,-1,4,-1,-5.0,252.88060448982287,None,251.798114300007,252.10761919990182,252.81253929995,253.15091029996984,None,None,up,1,1.613821699982509,251.87866499996744,None,None,None,,,,,,,nlhglm,001,0,fr,2022-05-09_15h22.30.358,3-AFC_adaptive_staircase_mess,2022.1.1,35.20443744206413,
,,,,,1,0,1,0,25,0,25,0,,,,,,,,,,,,,,,,right,1500,-2.5,3.622179800374953e-05,-1,4,-1,-5.0,257.0495002899552,None,254.98267059982754,255.280995399924,255.98097949987277,256.2823534999043,256.9827208998613,257.2820105999708,right,1,2.3643293001223356,255.04782089986838,None,None,None,,,,,,,nlhglm,001,0,fr,2022-05-09_15h22.30.358,3-AFC_adaptive_staircase_mess,2022.1.1,35.20443744206413,
,,,,,1,0,1,0,26,0,26,0,,,,,,,,,,,,,,,,up,1500,-7.5,2.036901389020565e-05,-1,4,-1,-5.0,259.9557134899078,None,258.8861732999794,259.1855395999737,259.888060499914,260.2263080999255,260.89009239990264,261.18711119983345,up,1,4.602353099966422,258.95385909988545,None,261.43787499982864,None,,,,,,,nlhglm,001,0,fr,2022-05-09_15h22.30.358,3-AFC_adaptive_staircase_mess,2022.1.1,35.20443744206413,
,,,,,1,0,1,0,27,0,27,0,,,,,,,,,,,,,,,,left,1500,-7.5,2.036901389020565e-05,-1,4,-1,-5.0,265.0905282899039,265.307717199903,265.02339309989475,265.33765809983015,266.0245729999151,266.32208589999937,267.02588209998794,267.3254064999055,up,0,5.777161600301042,265.09029199997894,None,267.5951638999395,None,,,,,,,nlhglm,001,0,fr,2022-05-09_15h22.30.358,3-AFC_adaptive_staircase_mess,2022.1.1,35.20443744206413,
,,,,,1,0,1,0,28,0,28,0,,,,,,,,,,,,,,,,right,1500,-5.0,2.716251657462168e-05,1,5,1,2.5,274.397122289869,274.6204496000428,272.3337979000062,272.63515180000104,273.3323323999066,273.63351429998875,274.3309507998638,274.63820989988744,right,1,2.6299040000885725,272.3981452998705,None,274.9031193999108,None,,,,,,,nlhglm,001,0,fr,2022-05-09_15h22.30.358,3-AFC_adaptive_staircase_mess,2022.1.1,35.20443744206413,
,,,,,1,0,1,0,29,0,29,0,,,,,,,,,,,,,,,,left,1500,-5.0,2.716251657462168e-05,1,5,1,2.5,276.56864058983047,276.7797858999111,276.50192269985564,276.81312979990616,277.50522249983624,277.8466896000318,278.5109478000086,278.8074395000003,up,0,2.970996200107038,276.56848549982533,None,279.05865799984895,None,,,,,,,nlhglm,001,0,fr,2022-05-09_15h22.30.358,3-AFC_adaptive_staircase_mess,2022.1.1,35.20443744206413,
,,,,,1,0,1,0,30,0,30,0,,,,,,,,,,,,,,,,up,1500,-2.5,3.622179800374953e-05,1,5,1,2.5,282.08124918991234,None,281.0090905998368,281.3102563000284,282.01199229992926,282.3201228999533,283.0157702998258,283.31346979993396,up,1,2.812921900069341,281.0786186000332,None,283.5839441998396,None,,,,,,,nlhglm,001,0,fr,2022-05-09_15h22.30.358,3-AFC_adaptive_staircase_mess,2022.1.1,35.20443744206413,
,,,,,1,0,1,0,31,0,31,0,,,,,,,,,,,,,,,,left,1500,-2.5,3.622179800374953e-05,1,5,1,2.5,285.4178392899921,285.6313485999126,285.34837849996984,285.65961609990336,286.35204249992967,286.65384339983575,287.3518590000458,287.65366799989715,left,1,4.379803100135177,285.4161027998198,None,287.9287640999537,None,,,,,,,nlhglm,001,0,fr,2022-05-09_15h22.30.358,3-AFC_adaptive_staircase_mess,2022.1.1,35.20443744206413,
,,,,,1,0,1,0,32,0,32,0,,,,,,,,,,,,,,,,up,1500,-7.5,2.036901389020565e-05,-1,6,-1,-5.0,292.31988308986183,292.5387609999161,291.27021909994073,291.59676590003073,292.28641629987396,292.5996063000057,293.28913889988326,293.59534229990095,left,0,6.813931799959391,291.33356449985877,None,293.8290579000022,None,,,,,,,nlhglm,001,0,fr,2022-05-09_15h22.30.358,3-AFC_adaptive_staircase_mess,2022.1.1,35.20443744206413,
,,,,,2,0,2,0,0,0,0,0,,,,,,,,,,,,,[],[],10,up,2000,30,0.0023657562948074026,0,0,-1,10,302.07325708994176,None,301.0442474000156,301.3476509999018,302.0397902999539,302.3371996998321,None,None,up,1,1.4055785001255572,301.0790128998924,None,None,None,left,1.3843614999204874,299.19581840001047,None,299.19581840001047,None,nlhglm,001,0,fr,2022-05-09_15h22.30.358,3-AFC_adaptive_staircase_mess,2022.1.1,35.20443744206413,
,,,,,2,0,2,0,1,0,1,0,,,,,,,,,,,,,,,,up,2000,30,0.0023657562948074026,0,0,-1,10,305.03448239003774,305.2478987998329,303.9681630998384,304.266813499853,304.9680131999776,305.27677719993517,None,None,up,1,1.3311858002562076,304.0324495998211,None,None,None,,,,,,,nlhglm,001,0,fr,2022-05-09_15h22.30.358,3-AFC_adaptive_staircase_mess,2022.1.1,35.20443744206413,
,,,,,2,0,2,0,2,0,2,0,,,,,,,,,,,,,,,,left,2000,10,0.00023657562948074026,-1,0,-1,-10,306.90625838993583,307.1228397998493,306.8353927000426,307.1512849999126,None,None,None,None,left,1,0.7118332001846284,306.90907459985465,None,None,None,,,,,,,nlhglm,001,0,fr,2022-05-09_15h22.30.358,3-AFC_adaptive_staircase_mess,2022.1.1,35.20443744206413,
,,,,,2,0,2,0,3,0,3,0,,,,,,,,,,,,,,,,right,2000,10,0.00023657562948074026,-1,0,-1,-10,311.1439749900019,311.35656929994,309.0892814998515,309.38648879993707,310.1144602999557,310.41595899988897,311.110508200014,311.4214866999537,right,1,2.3543427002150565,309.1540864999406,None,None,None,,,,,,,nlhglm,001,0,fr,2022-05-09_15h22.30.358,3-AFC_adaptive_staircase_mess,2022.1.1,35.20443744206413,
,,,,,2,0,2,0,4,0,4,0,,,,,,,,,,,,,,,,right,2000,0,7.481178280472168e-05,-1,0,-1,-10,315.048544489895,None,312.98243459989317,313.28059839992784,313.97762569994666,314.2800523999613,314.97793669998646,315.2840378000401,right,1,2.361422900110483,313.05066489987075,None,None,None,,,,,,,nlhglm,001,0,fr,2022-05-09_15h22.30.358,3-AFC_adaptive_staircase_mess,2022.1.1,35.20443744206413,
,,,,,2,0,2,0,5,0,5,0,,,,,,,,,,,,,,,,up,2000,0,7.481178280472168e-05,-1,0,-1,-10,317.9561777898343,318.1678722000215,316.88555769994855,317.21917359996587,317.8882187998388,318.19624019996263,318.88353189988993,319.18781189993024,up,1,2.398488200036809,316.9501383998431,None,None,None,,,,,,,nlhglm,001,0,fr,2022-05-09_15h22.30.358,3-AFC_adaptive_staircase_mess,2022.1.1,35.20443744206413,
,,,,,2,0,2,0,6,0,6,0,,,,,,,,,,,,,,,,left,2000,-10,2.3657562948074015e-05,-1,0,-1,-10,320.88739718997385,321.0994579999242,320.8214883999899,321.1309825000353,321.82081639999524,322.12157069984823,322.82120669982396,323.12227679998614,up,0,3.2438817000947893,320.88743270002306,None,323.39656569994986,None,,,,,,,nlhglm,001,0,fr,2022-05-09_15h22.30.358,3-AFC_adaptive_staircase_mess,2022.1.1,35.20443744206413,
,,,,,2,0,2,0,7,0,7,0,,,,,,,,,,,,,,,,up,2000,-5,4.206975708225974e-05,1,1,1,5,326.6340230900096,326.8624610998668,325.59207919985056,325.8940016999841,326.6005563000217,326.93006719998084,327.61862429999746,327.9263671999797,up,1,4.120755600044504,325.6595933998469,None,328.1604094998911,None,,,,,,,nlhglm,001,0,fr,2022-05-09_15h22.30.358,3-AFC_adaptive_staircase_mess,2022.1.1,35.20443744206413,
,,,,,2,0,2,0,8,0,8,0,,,,,,,,,,,,,,,,right,2000,-5,4.206975708225974e-05,1,1,1,5,333.33946248993743,333.5509232999757,331.3001594999805,331.60134659986943,332.3001220000442,332.599275900051,333.27154939994216,333.58042060001753,left,0,2.831076600123197,331.3321274998598,None,333.83983299997635,None,,,,,,,nlhglm,001,0,fr,2022-05-09_15h22.30.358,3-AFC_adaptive_staircase_mess,2022.1.1,35.20443744206413,
,,,,,2,0,2,0,9,0,9,0,,,,,,,,,,,,,,,,left,2000,0,7.481178280472168e-05,1,1,1,5,335.70454288984183,335.91356009989977,335.638297499856,335.9416581999976,336.6349298998248,336.941283499822,337.64062789990567,337.94147600000724,left,1,3.805442600278184,335.7026747998316,None,338.2051750998944,None,,,,,,,nlhglm,001,0,fr,2022-05-09_15h22.30.358,3-AFC_adaptive_staircase_mess,2022.1.1,35.20443744206413,
,,,,,2,0,2,0,10,0,10,0,,,,,,,,,,,,,,,,up,2000,0,7.481178280472168e-05,1,1,1,5,342.04211169003975,342.2539398998488,340.99419009988196,341.32197259995155,342.0086449000519,342.3162279999815,342.99325429997407,343.3166803000495,up,1,3.215468300273642,341.06065879995003,None,343.5405131999869,None,,,,,,,nlhglm,001,0,fr,2022-05-09_15h22.30.358,3-AFC_adaptive_staircase_mess,2022.1.1,35.20443744206413,
,,,,,2,0,2,0,11,0,11,0,,,,,,,,,,,,,,,,left,2000,-10,2.3657562948074015e-05,-1,2,-1,-5.0,345.8465836899122,None,345.7769418999087,346.08256609993987,346.78040479985066,347.0791450999677,347.7825618998613,348.0819398998283,left,1,4.059592800214887,345.84927159990184,None,348.32006419985555,None,,,,,,,nlhglm,001,0,fr,2022-05-09_15h22.30.358,3-AFC_adaptive_staircase_mess,2022.1.1,35.20443744206413,
,,,,,2,0,2,0,12,0,12,0,,,,,,,,,,,,,,,,up,2000,-10,2.3657562948074015e-05,-1,2,-1,-5.0,352.4542148899054,352.6691466998309,351.38889259984717,351.6883195999544,352.3872138999868,352.69753889995627,353.39047109987587,353.6897891999688,up,1,3.012018400244415,351.4557590999175,None,353.9583173999563,None,,,,,,,nlhglm,001,0,fr,2022-05-09_15h22.30.358,3-AFC_adaptive_staircase_mess,2022.1.1,35.20443744206413,
,,,,,2,0,2,0,13,0,13,0,,,,,,,,,,,,,,,,up,2000,-15.0,1.3303625298994042e-05,-1,2,-1,-5.0,357.02604788995814,None,355.991522999946,356.32313639996573,356.99258109997027,357.2967566999141,357.9955148999579,358.2953353000339,right,0,2.9370860001072288,356.02643679990433,None,358.53024779981934,None,,,,,,,nlhglm,001,0,fr,2022-05-09_15h22.30.358,3-AFC_adaptive_staircase_mess,2022.1.1,35.20443744206413,
,,,,,2,0,2,0,14,0,14,0,,,,,,,,,,,,,,,,left,2000,-12.5,1.7740669461678767e-05,1,3,1,2.5,360.5107944899937,360.72513909987174,360.44561559986323,360.75604530004784,361.44306840002537,361.74113440001383,362.46759509993717,362.78809129982255,right,0,3.0457105000969023,360.5098278999794,None,363.00065129995346,None,,,,,,,nlhglm,001,0,fr,2022-05-09_15h22.30.358,3-AFC_adaptive_staircase_mess,2022.1.1,35.20443744206413,
,,,,,2,0,2,0,15,0,15,0,,,,,,,,,,,,,,,,left,2000,-10.0,2.3657562948074015e-05,1,3,1,2.5,365.08335388998967,365.3016129999887,365.0498871000018,365.3665054999292,366.0599982000422,366.3757774999831,367.0513017999474,367.3744373000227,up,0,2.71227729995735,365.0835348998662,None,367.6036650999449,None,,,,,,,nlhglm,001,0,fr,2022-05-09_15h22.30.358,3-AFC_adaptive_staircase_mess,2022.1.1,35.20443744206413,
,,,,,2,0,2,0,16,0,16,0,,,,,,,,,,,,,,,,up,2000,-7.5,3.154786722400965e-05,1,3,1,2.5,370.3394208898535,370.5523693000432,369.2735696998425,369.571248000022,370.27351289987564,370.5840628000442,371.25883019994944,371.5630582999438,left,0,3.8642684002406895,369.33906609984115,None,371.8175772000104,None,,,,,,,nlhglm,001,0,fr,2022-05-09_15h22.30.358,3-AFC_adaptive_staircase_mess,2022.1.1,35.20443744206413,
,,,,,2,0,2,0,17,0,17,0,,,,,,,,,,,,,,,,right,2000,-5.0,4.206975708225974e-05,1,3,1,2.5,376.7449704898754,376.9635945998598,374.6828922999557,375.0089847999625,375.67994269984774,375.97865419997834,376.6794362999499,376.99243339989334,right,1,2.9525614001322538,374.7486288000364,None,377.25098709994927,None,,,,,,,nlhglm,001,0,fr,2022-05-09_15h22.30.358,3-AFC_adaptive_staircase_mess,2022.1.1,35.20443744206413,
,,,,,2,0,2,0,18,0,18,0,,,,,,,,,,,,,,,,left,2000,-5.0,4.206975708225974e-05,1,3,1,2.5,379.2488643898396,None,379.17907049995847,379.51990029984154,380.18277139985,380.48532149987295,381.1824964999687,381.48720559990034,left,1,4.273252100218087,379.2503120000474,None,381.75416409992613,None,,,,,,,nlhglm,001,0,fr,2022-05-09_15h22.30.358,3-AFC_adaptive_staircase_mess,2022.1.1,35.20443744206413,
,,,,,2,0,2,0,19,0,19,0,,,,,,,,,,,,,,,,left,2000,-10.0,2.3657562948074015e-05,-1,4,-1,-5.0,385.09367168985773,385.3041133999359,385.02672319998965,385.3337270000484,386.0199044998735,386.322865099879,387.0258306998294,387.3228052998893,right,0,4.383129900321364,385.09231940004975,None,387.5903163999319,None,,,,,,,nlhglm,001,0,fr,2022-05-09_15h22.30.358,3-AFC_adaptive_staircase_mess,2022.1.1,35.20443744206413,
,,,,,2,0,2,0,20,0,20,0,,,,,,,,,,,,,,,,right,2000,-7.5,3.154786722400965e-05,1,5,1,2.5,393.0311794899171,393.2468824000098,390.9584389999509,391.2652093998622,391.9623888998758,392.2646464998834,392.9638685998507,393.2758311999496,up,0,2.9870118000544608,391.0323258000426,None,393.50712829991244,None,,,,,,,nlhglm,001,0,fr,2022-05-09_15h22.30.358,3-AFC_adaptive_staircase_mess,2022.1.1,35.20443744206413,
,,,,,2,0,2,0,21,0,21,0,,,,,,,,,,,,,,,,left,2000,-5.0,4.206975708225974e-05,1,5,1,2.5,395.55784938985016,395.76771919988096,395.49176019988954,395.79593080002815,396.51597119984217,396.8404428998474,397.50325799989514,397.8365024998784,right,0,3.805967500200495,395.5575118998531,None,398.0394825998228,None,,,,,,,nlhglm,001,0,fr,2022-05-09_15h22.30.358,3-AFC_adaptive_staircase_mess,2022.1.1,35.20443744206413,
,,,,,2,0,2,0,22,0,22,0,,,,,,,,,,,,,,,,right,2000,-2.5,5.610092271509818e-05,1,5,1,2.5,402.93254438985605,403.14581749984063,400.8656567998696,401.1898990999907,401.89484700001776,402.2155176999513,402.86427739984356,403.17448819987476,right,1,2.6838098000735044,400.93641189998016,None,403.41984719992615,None,,,,,,,nlhglm,001,0,fr,2022-05-09_15h22.30.358,3-AFC_adaptive_staircase_mess,2022.1.1,35.20443744206413,
,,,,,2,0,2,0,23,0,23,0,,,,,,,,,,,,,,,,right,2000,-2.5,5.610092271509818e-05,1,5,1,2.5,407.17960139003117,407.39503380004317,405.1111401999369,405.41326519986615,406.1140723999124,406.41873439983465,407.1091901999898,407.4233474000357,left,0,3.515230300137773,405.1445273999125,None,407.6569032999687,None,,,,,,,nlhglm,001,0,fr,2022-05-09_15h22.30.358,3-AFC_adaptive_staircase_mess,2022.1.1,35.20443744206413,
,,,,,2,0,2,0,24,0,24,0,,,,,,,,,,,,,,,,up,2000,0.0,7.481178280472168e-05,1,5,1,2.5,411.1555617899867,411.38690080004744,410.1034609999042,410.4340001998935,411.1220949999988,411.4607728999108,412.1229132998269,None,up,1,2.011650000233203,410.16786980000325,None,None,None,,,,,,,nlhglm,001,0,fr,2022-05-09_15h22.30.358,3-AFC_adaptive_staircase_mess,2022.1.1,35.20443744206413,
,,,,,2,0,2,0,25,0,25,0,,,,,,,,,,,,,,,,left,2000,0.0,7.481178280472168e-05,1,5,1,2.5,413.7198184899753,413.9282295999583,413.6540043000132,413.95636099996045,414.65155139984563,414.9561349998694,415.6765544998925,415.9902141999919,right,0,3.2135067000053823,413.71742490003817,None,416.23234149999917,None,,,,,,,nlhglm,001,0,fr,2022-05-09_15h22.30.358,3-AFC_adaptive_staircase_mess,2022.1.1,35.20443744206413,
,,,,,2,0,2,0,26,0,26,0,,,,,,,,,,,,,,,,up,2000,2.5,9.976311574844399e-05,1,5,1,2.5,419.5136856898898,None,418.4504300998524,418.7528244999703,419.4474751998205,419.7787550999783,420.4600241999142,420.7581930998713,up,1,2.4169444001745433,418.4837922998704,None,None,None,,,,,,,nlhglm,001,0,fr,2022-05-09_15h22.30.358,3-AFC_adaptive_staircase_mess,2022.1.1,35.20443744206413,
,,,,,2,0,2,0,27,0,27,0,,,,,,,,,,,,,,,,up,2000,2.5,9.976311574844399e-05,1,5,1,2.5,423.4734162898967,423.69014950003475,422.4134571000468,422.7301030999515,423.4060804999899,423.71936700004153,424.40425070002675,424.71096919989213,up,1,3.666478500002995,422.4489759998396,None,424.94671539985575,None,,,,,,,nlhglm,001,0,fr,2022-05-09_15h22.30.358,3-AFC_adaptive_staircase_mess,2022.1.1,35.20443744206413,
,,,,,2,0,2,0,28,0,28,0,,,,,,,,,,,,,,,,right,2000,-2.5,5.610092271509818e-05,-1,6,-1,-5.0,429.67095508996863,429.88687479984947,427.6053075999953,427.9153628000058,428.622612999985,428.93164930003695,429.604228500044,429.9171735998243,right,1,2.64877020008862,427.6744925000239,None,430.14279920002446,None,,,,,,,nlhglm,001,0,fr,2022-05-09_15h22.30.358,3-AFC_adaptive_staircase_mess,2022.1.1,35.20443744206413,
,,,,,3,0,3,0,0,0,0,0,,,,,,,,,,,,,[],[],10,right,3000,30,0.001733684252262658,0,0,-1,10,437.021972689894,None,434.9943619999103,435.31587339984253,435.9839557998348,436.29123619990423,436.98850589990616,437.28902739984915,right,1,2.3679841000121087,435.0283156000078,None,None,None,left,3.1152675999328494,431.40049629984424,None,431.40049629984424,None,nlhglm,001,0,fr,2022-05-09_15h22.30.358,3-AFC_adaptive_staircase_mess,2022.1.1,35.20443744206413,
,,,,,3,0,3,0,1,0,1,0,,,,,,,,,,,,,,,,right,3000,30,0.001733684252262658,0,0,-1,10,440.9367943898542,441.1473760998342,438.8805557000451,439.19174559996463,439.89312699995935,440.2030173998792,440.87004829989746,441.1787356999703,right,1,2.3034743000753224,438.9492760000285,None,None,None,,,,,,,nlhglm,001,0,fr,2022-05-09_15h22.30.358,3-AFC_adaptive_staircase_mess,2022.1.1,35.20443744206413,
,,,,,3,0,3,0,2,0,2,0,,,,,,,,,,,,,,,,right,3000,10,0.00017336842522626576,-1,0,-1,-10,444.80449218989816,445.01846749987453,442.74744549999014,443.050980999833,443.7832504999824,444.10442409990355,444.7710253999103,445.0819555998314,right,1,2.3289094001520425,442.81079360004514,None,None,None,,,,,,,nlhglm,001,0,fr,2022-05-09_15h22.30.358,3-AFC_adaptive_staircase_mess,2022.1.1,35.20443744206413,
,,,,,3,0,3,0,3,0,3,0,,,,,,,,,,,,,,,,left,3000,10,0.00017336842522626576,-1,0,-1,-10,446.6803370899288,None,446.6141331999097,446.9462898999918,447.59724909998477,447.9148561998736,448.61719070002437,448.9197676999029,left,1,2.7144522999878973,446.6810997999273,None,449.18161739991046,None,,,,,,,nlhglm,001,0,fr,2022-05-09_15h22.30.358,3-AFC_adaptive_staircase_mess,2022.1.1,35.20443744206413,
,,,,,3,0,3,0,4,0,4,0,,,,,,,,,,,,,,,,up,3000,0,5.482390980715923e-05,-1,0,-1,-10,451.9481391898589,452.16360390000045,450.9185098998714,451.2467673998326,451.91467239987105,452.2295442998875,452.9196943999268,453.24664129992016,up,1,3.340931400191039,450.95093469996937,None,453.4527883999981,None,,,,,,,nlhglm,001,0,fr,2022-05-09_15h22.30.358,3-AFC_adaptive_staircase_mess,2022.1.1,35.20443744206413,
,,,,,3,0,3,0,5,0,5,0,,,,,,,,,,,,,,,,up,3000,0,5.482390980715923e-05,-1,0,-1,-10,None,None,455.7533744999673,456.05552869988605,None,None,None,None,left,0,0.569035799941048,455.81836699997075,None,None,None,,,,,,,nlhglm,001,0,fr,2022-05-09_15h22.30.358,3-AFC_adaptive_staircase_mess,2022.1.1,35.20443744206413,
,,,,,3,0,3,0,6,0,6,0,,,,,,,,,,,,,,,,up,3000,5,9.749222998790222e-05,1,1,1,5,458.9410966899013,None,457.900390899973,458.2261318999808,458.90762989991345,459.20664480002597,459.89672249997966,460.20167910004966,left,0,2.8507505001034588,457.9688497998286,None,460.4696481998544,None,,,,,,,nlhglm,001,0,fr,2022-05-09_15h22.30.358,3-AFC_adaptive_staircase_mess,2022.1.1,35.20443744206413,
,,,,,3,0,3,0,7,0,7,0,,,,,,,,,,,,,,,,up,3000,10,0.00017336842522626576,1,1,1,5,463.37241948989686,None,462.30543249985203,462.60750989988446,463.304708099924,463.6382857998833,464.31966349994764,None,up,1,2.0617654002271593,462.3735893999692,None,None,None,,,,,,,nlhglm,001,0,fr,2022-05-09_15h22.30.358,3-AFC_adaptive_staircase_mess,2022.1.1,35.20443744206413,
,,,,,3,0,3,0,8,0,8,0,,,,,,,,,,,,,,,,up,3000,10,0.00017336842522626576,1,1,1,5,466.96154708985705,467.1753632000182,465.90935329999775,466.23471300001256,466.89583950000815,467.2053145999089,None,None,right,0,1.6134746000170708,465.94180839997716,None,None,None,,,,,,,nlhglm,001,0,fr,2022-05-09_15h22.30.358,3-AFC_adaptive_staircase_mess,2022.1.1,35.20443744206413,
,,,,,3,0,3,0,9,0,9,0,,,,,,,,,,,,,,,,up,3000,15,0.00030829750093074097,1,1,1,5,470.09547338995617,None,469.0535387999844,469.37516409996897,470.0289558998775,470.3537339998875,None,None,up,1,1.3992264000698924,469.0847509999294,None,None,None,,,,,,,nlhglm,001,0,fr,2022-05-09_15h22.30.358,3-AFC_adaptive_staircase_mess,2022.1.1,35.20443744206413,
,,,,,3,0,3,0,10,0,10,0,,,,,,,,,,,,,,,,up,3000,15,0.00030829750093074097,1,1,1,5,473.0494695898378,None,471.9822729998268,472.3080735998228,472.9819769000169,473.3169763998594,None,None,up,1,1.334167700028047,472.0456151999533,None,None,None,,,,,,,nlhglm,001,0,fr,2022-05-09_15h22.30.358,3-AFC_adaptive_staircase_mess,2022.1.1,35.20443744206413,
,,,,,3,0,3,0,11,0,11,0,,,,,,,,,,,,,,,,up,3000,5,9.749222998790222e-05,-1,2,-1,-5.0,475.9112878899323,None,474.8307665998582,475.149774099933,475.8436308000237,476.17469979985617,None,None,up,1,1.3791853000875562,474.89616060000844,None,None,None,,,,,,,nlhglm,001,0,fr,2022-05-09_15h22.30.358,3-AFC_adaptive_staircase_mess,2022.1.1,35.20443744206413,
,,,,,3,0,3,0,12,0,12,0,,,,,,,,,,,,,,,,up,3000,5,9.749222998790222e-05,-1,2,-1,-5.0,478.8166162898997,479.03360609989613,477.7761158000212,478.0889750998467,478.7831494999118,479.09603179991245,None,None,up,1,1.3803344999905676,477.8071166998707,None,None,None,,,,,,,nlhglm,001,0,fr,2022-05-09_15h22.30.358,3-AFC_adaptive_staircase_mess,2022.1.1,35.20443744206413,
,,,,,3,0,3,0,13,0,13,0,,,,,,,,,,,,,,,,left,3000,0.0,5.482390980715923e-05,-1,2,-1,-5.0,480.72334149002563,480.93887909990735,480.65093540004455,480.96703029982746,481.65610879985616,None,None,None,left,1,1.1023211001884192,480.72562469984405,None,None,None,,,,,,,nlhglm,001,0,fr,2022-05-09_15h22.30.358,3-AFC_adaptive_staircase_mess,2022.1.1,35.20443744206413,
,,,,,3,0,3,0,14,0,14,0,,,,,,,,,,,,,,,,left,3000,0.0,5.482390980715923e-05,-1,2,-1,-5.0,483.3823386899894,None,483.3154511998873,483.6442300998606,484.3220324998256,484.62004989990965,485.31551399989985,485.63674220000394,left,1,3.2789083002135158,483.3804476999212,None,485.8936884999275,None,,,,,,,nlhglm,001,0,fr,2022-05-09_15h22.30.358,3-AFC_adaptive_staircase_mess,2022.1.1,35.20443744206413,
,,,,,3,0,3,0,15,0,15,0,,,,,,,,,,,,,,,,left,3000,-5.0,3.082975009307411e-05,-1,2,-1,-5.0,488.1785318899201,None,488.14506509993225,488.44051690003835,489.1351142998319,489.462808100041,490.1288018999621,None,up,0,2.127721199998632,488.1636852999218,None,None,None,,,,,,,nlhglm,001,0,fr,2022-05-09_15h22.30.358,3-AFC_adaptive_staircase_mess,2022.1.1,35.20443744206413,
,,,,,3,0,3,0,16,0,16,0,,,,,,,,,,,,,,,,left,3000,-2.5,4.1112132497353565e-05,1,3,1,2.5,491.82324488984887,None,491.789778099861,492.1164635999594,492.77680599992163,493.1006912998855,493.7779138998594,494.10051839984953,up,0,3.496009900001809,491.82075369986705,None,494.3359846000094,None,,,,,,,nlhglm,001,0,fr,2022-05-09_15h22.30.358,3-AFC_adaptive_staircase_mess,2022.1.1,35.20443744206413,
,,,,,3,0,3,0,17,0,17,0,,,,,,,,,,,,,,,,right,3000,0.0,5.482390980715923e-05,1,3,1,2.5,498.852821689914,None,496.7981087998487,497.11013289983384,497.80251379986294,498.10219420003705,498.7849822998978,499.1115706998389,left,0,3.3691684999503195,496.85824940004386,None,499.3669400999788,None,,,,,,,nlhglm,001,0,fr,2022-05-09_15h22.30.358,3-AFC_adaptive_staircase_mess,2022.1.1,35.20443744206413,
,,,,,3,0,3,0,18,0,18,0,,,,,,,,,,,,,,,,left,3000,2.5,7.310885872283589e-05,1,3,1,2.5,501.76945089001674,None,501.7044126999099,502.0332751998212,502.6934713998344,502.9916357998736,503.697571599856,504.02830159990117,up,0,2.7979459001217037,501.7669393999968,None,504.2633126999717,None,,,,,,,nlhglm,001,0,fr,2022-05-09_15h22.30.358,3-AFC_adaptive_staircase_mess,2022.1.1,35.20443744206413,
,,,,,3,0,3,0,19,0,19,0,,,,,,,,,,,,,,,,left,3000,5.0,9.749222998790222e-05,1,3,1,2.5,506.09572938981,506.3096310000401,506.03026019991376,506.34574249992147,507.02993139997125,507.31738969986327,508.0511971998494,508.36291010002606,right,0,3.105622500181198,506.0974580999464,None,508.60068059992045,None,,,,,,,nlhglm,001,0,fr,2022-05-09_15h22.30.358,3-AFC_adaptive_staircase_mess,2022.1.1,35.20443744206413,
,,,,,3,0,3,0,20,0,20,0,,,,,,,,,,,,,,,,right,3000,7.5,0.00013000797815826355,1,3,1,2.5,512.7082482898841,None,510.7012970999349,511.0056667998433,511.6754166998435,512.0026576998644,512.6747814998962,512.9755509998649,right,1,2.514109400101006,510.7212447999045,None,513.2086853999645,None,,,,,,,nlhglm,001,0,fr,2022-05-09_15h22.30.358,3-AFC_adaptive_staircase_mess,2022.1.1,35.20443744206413,
,,,,,3,0,3,0,21,0,21,0,,,,,,,,,,,,,,,,right,3000,7.5,0.00013000797815826355,1,3,1,2.5,516.7526117899688,516.9665605998598,514.7038236998487,515.0089209999423,515.7111857999116,516.0063008000143,516.7191449999809,517.0336839999072,right,1,2.4463919999543577,514.7727677999064,None,517.2598403898301,None,,,,,,,nlhglm,001,0,fr,2022-05-09_15h22.30.358,3-AFC_adaptive_staircase_mess,2022.1.1,35.20443744206413,
,,,,,3,0,3,0,22,0,22,0,,,,,,,,,,,,,,,,up,3000,2.5,7.310885872283589e-05,-1,4,-1,-5.0,519.746726789861,519.9548449998256,518.675276099937,518.9610933000222,519.6807664998341,519.9852429998573,520.7126016998664,521.0457424998749,left,0,3.980871600098908,518.7431000999641,None,521.2463076999411,None,,,,,,,nlhglm,001,0,fr,2022-05-09_15h22.30.358,3-AFC_adaptive_staircase_mess,2022.1.1,35.20443744206413,
,,,,,3,0,3,0,23,0,23,0,,,,,,,,,,,,,,,,up,3000,5.0,9.749222998790222e-05,1,5,1,2.5,525.2543656899361,None,524.2177883998957,524.5146532999352,525.2208988999482,525.5187333999202,526.2198993999045,526.5562261999585,up,1,2.7888506001327187,524.2869696998969,None,526.7878966999706,None,,,,,,,nlhglm,001,0,fr,2022-05-09_15h22.30.358,3-AFC_adaptive_staircase_mess,2022.1.1,35.20443744206413,
,,,,,3,0,3,0,24,0,24,0,,,,,,,,,,,,,,,,right,3000,5.0,9.749222998790222e-05,1,5,1,2.5,530.6265931898961,None,528.5530379998963,528.8548800998833,529.5544620999135,529.8605587000493,530.556143600028,530.8612498999573,right,1,2.790941100101918,528.6213950000238,None,531.1238267000299,None,,,,,,,nlhglm,001,0,fr,2022-05-09_15h22.30.358,3-AFC_adaptive_staircase_mess,2022.1.1,35.20443744206413,
,,,,,3,0,3,0,25,0,25,0,,,,,,,,,,,,,,,,left,3000,0.0,5.482390980715923e-05,-1,6,-1,-5.0,532.9630454898579,None,532.8929019998759,533.1936276999768,533.8957195000257,534.1949237999506,534.8955415999517,535.1963066998869,left,1,3.843682900071144,532.9601533999667,None,535.4602478998713,None,,,,,,,nlhglm,001,0,fr,2022-05-09_15h22.30.358,3-AFC_adaptive_staircase_mess,2022.1.1,35.20443744206413,
,,,,,4,0,4,0,0,0,0,0,,,,,,,,,,,,,[],[],10,left,4000,30,0.0026544222211549416,0,0,-1,10,539.9336727898335,540.1399403999094,539.869657299947,540.1696817998309,None,None,None,None,left,1,0.5040136000607163,539.9311028998345,None,None,None,left,1.5622237999923527,537.8655286999419,None,537.8655286999419,None,nlhglm,001,0,fr,2022-05-09_15h22.30.358,3-AFC_adaptive_staircase_mess,2022.1.1,35.20443744206413,
,,,,,4,0,4,0,1,0,1,0,,,,,,,,,,,,,,,,up,4000,30,0.0026544222211549416,0,0,-1,10,543.0041556899669,None,541.9204935999587,542.2312473999336,542.9339079000056,543.2365128998645,None,None,up,1,1.4282493002247065,541.9998714998364,None,None,None,,,,,,,nlhglm,001,0,fr,2022-05-09_15h22.30.358,3-AFC_adaptive_staircase_mess,2022.1.1,35.20443744206413,
,,,,,4,0,4,0,2,0,2,0,,,,,,,,,,,,,,,,up,4000,10,0.00026544222211549425,-1,0,-1,-10,545.9577942899195,None,544.9054453000426,545.2411429998465,545.9243274999317,546.2192051999737,None,None,up,1,1.3236367001663893,544.9678856998216,None,None,None,,,,,,,nlhglm,001,0,fr,2022-05-09_15h22.30.358,3-AFC_adaptive_staircase_mess,2022.1.1,35.20443744206413,
,,,,,4,0,4,0,3,0,3,0,,,,,,,,,,,,,,,,right,4000,10,0.00026544222211549425,-1,0,-1,-10,549.8421426898567,None,547.7756183999591,548.0732531999238,548.7741270998958,549.0757926998194,549.7753720998298,550.0763748998288,right,1,2.3547144001349807,547.8413647999987,None,None,None,,,,,,,nlhglm,001,0,fr,2022-05-09_15h22.30.358,3-AFC_adaptive_staircase_mess,2022.1.1,35.20443744206413,
,,,,,4,0,4,0,4,0,4,0,,,,,,,,,,,,,,,,up,4000,0,8.394020090612804e-05,-1,0,-1,-10,552.7484581900062,None,551.6811541998759,551.9794666999951,552.68018330005,553.0165999999736,None,None,up,1,1.535107099916786,551.7487367000431,None,None,None,,,,,,,nlhglm,001,0,fr,2022-05-09_15h22.30.358,3-AFC_adaptive_staircase_mess,2022.1.1,35.20443744206413,
,,,,,4,0,4,0,5,0,5,0,,,,,,,,,,,,,,,,right,4000,0,8.394020090612804e-05,-1,0,-1,-10,556.8539956900058,557.0701104998589,554.7912020999938,555.1186387999915,555.7840356000233,556.0868630998302,556.7812041998841,557.0995000000112,right,1,2.428685500053689,554.8545209998265,None,557.3329260899918,None,,,,,,,nlhglm,001,0,fr,2022-05-09_15h22.30.358,3-AFC_adaptive_staircase_mess,2022.1.1,35.20443744206413,
,,,,,4,0,4,0,6,0,6,0,,,,,,,,,,,,,,,,right,4000,-10,2.6544222211549425e-05,-1,0,-1,-10,560.8236058900366,None,558.7486105998978,559.0729270000011,559.7499740000349,560.0566195000429,560.7550317000132,561.0924639999866,up,0,3.17269270028919,558.8152167999651,None,561.3191410000436,None,,,,,,,nlhglm,001,0,fr,2022-05-09_15h22.30.358,3-AFC_adaptive_staircase_mess,2022.1.1,35.20443744206413,
,,,,,4,0,4,0,7,0,7,0,,,,,,,,,,,,,,,,left,4000,-5,4.720304381429618e-05,1,1,1,5,563.5377172898734,563.7475515999831,563.4757184998598,563.7783099999651,564.4934006999247,564.8287416000385,565.4907488999888,565.7903382000513,left,1,2.7856606000568718,563.5378107998986,None,566.0285874998663,None,,,,,,,nlhglm,001,0,fr,2022-05-09_15h22.30.358,3-AFC_adaptive_staircase_mess,2022.1.1,35.20443744206413,
,,,,,4,0,4,0,8,0,8,0,,,,,,,,,,,,,,,,up,4000,-5,4.720304381429618e-05,1,1,1,5,568.8678089898312,None,567.7977197999135,568.0986458999105,568.7964325000066,569.1014696999919,569.7970536998473,570.0960103999823,up,1,2.794681299943477,567.8649952998385,None,570.3357889000326,None,,,,,,,nlhglm,001,0,fr,2022-05-09_15h22.30.358,3-AFC_adaptive_staircase_mess,2022.1.1,35.20443744206413,
,,,,,4,0,4,0,9,0,9,0,,,,,,,,,,,,,,,,left,4000,-15,1.4926913094589802e-05,-1,2,-1,-5.0,572.1992722899886,572.4114317998756,572.1305002998561,572.4432552999351,573.1329608999658,573.4332069999073,574.1402200998273,574.4680834000465,right,0,3.6753460001200438,572.2006147999782,None,574.7025849998463,None,,,,,,,nlhglm,001,0,fr,2022-05-09_15h22.30.358,3-AFC_adaptive_staircase_mess,2022.1.1,35.20443744206413,
,,,,,4,0,4,0,10,0,10,0,,,,,,,,,,,,,,,,left,4000,-12.5,1.9905358527674868e-05,1,3,1,2.5,577.4390630900161,577.6527880998328,577.3705289999489,577.6843566000462,578.377359099919,578.6783747000154,579.370867599966,579.6777301998809,right,0,2.6083190001081675,577.442493399838,None,579.9479830998462,None,,,,,,,nlhglm,001,0,fr,2022-05-09_15h22.30.358,3-AFC_adaptive_staircase_mess,2022.1.1,35.20443744206413,
,,,,,4,0,4,0,11,0,11,0,,,,,,,,,,,,,,,,left,4000,-10.0,2.6544222211549425e-05,1,3,1,2.5,581.6144210899947,None,581.5453874999657,581.8824455998838,582.5409119999968,582.8429031998385,583.5444493000396,583.8447642000392,right,0,2.452682100236416,581.6144359998871,None,584.0847153998911,None,,,,,,,nlhglm,001,0,fr,2022-05-09_15h22.30.358,3-AFC_adaptive_staircase_mess,2022.1.1,35.20443744206413,
,,,,,4,0,4,0,12,0,12,0,,,,,,,,,,,,,,,,right,4000,-7.5,3.53972892192069e-05,1,3,1,2.5,587.6209233900299,None,585.5490925998893,585.8841368998401,586.5502285999246,586.8531295999419,587.5499156999867,587.8538120000158,right,1,3.1889655000995845,585.6158831999637,None,588.11772869993,None,,,,,,,nlhglm,001,0,fr,2022-05-09_15h22.30.358,3-AFC_adaptive_staircase_mess,2022.1.1,35.20443744206413,
,,,,,4,0,4,0,13,0,13,0,,,,,,,,,,,,,,,,left,4000,-7.5,3.53972892192069e-05,1,3,1,2.5,590.3533683900023,590.5718821999617,590.2886246000417,590.6016891000327,591.2901924999896,591.5902118999511,592.2852294000331,592.5990408000071,right,0,2.6110119000077248,590.3521451000124,None,592.8592150998302,None,,,,,,,nlhglm,001,0,fr,2022-05-09_15h22.30.358,3-AFC_adaptive_staircase_mess,2022.1.1,35.20443744206413,
,,,,,4,0,4,0,14,0,14,0,,,,,,,,,,,,,,,,left,4000,-5.0,4.720304381429618e-05,1,3,1,2.5,594.5214003898436,594.7335695999209,594.4542046999559,594.7661114998627,595.4567757998593,595.7591907000169,596.4603390998673,None,up,0,2.0568504000548273,594.5229773998726,None,None,None,,,,,,,nlhglm,001,0,fr,2022-05-09_15h22.30.358,3-AFC_adaptive_staircase_mess,2022.1.1,35.20443744206413,
,,,,,4,0,4,0,15,0,15,0,,,,,,,,,,,,,,,,right,4000,-2.5,6.294627058970837e-05,1,3,1,2.5,600.1286019898253,600.3445679999422,598.0679911999032,598.3926287998911,599.0636346000247,599.3912753998302,600.0639761998318,600.3760826999787,right,1,2.477569200331345,598.1017694999464,None,600.6040592999198,None,,,,,,,nlhglm,001,0,fr,2022-05-09_15h22.30.358,3-AFC_adaptive_staircase_mess,2022.1.1,35.20443744206413,
,,,,,4,0,4,0,16,0,16,0,,,,,,,,,,,,,,,,right,4000,-2.5,6.294627058970837e-05,1,3,1,2.5,604.1341263899812,604.3490932998247,602.0701231998391,602.3719806999434,603.0677269999869,603.3680169999134,604.0681517999619,604.3808046998456,right,1,2.4745490001514554,602.1370222000405,None,604.613725299947,None,,,,,,,nlhglm,001,0,fr,2022-05-09_15h22.30.358,3-AFC_adaptive_staircase_mess,2022.1.1,35.20443744206413,
,,,,,4,0,4,0,17,0,17,0,,,,,,,,,,,,,,,,right,4000,-7.5,3.53972892192069e-05,-1,4,-1,-5.0,608.138507889933,608.3471081999596,606.0699850998353,606.3755657998845,607.0710075998213,607.3720376999117,608.0700842998922,608.378237699857,right,1,2.426256400067359,606.1369900999125,None,None,None,,,,,,,nlhglm,001,0,fr,2022-05-09_15h22.30.358,3-AFC_adaptive_staircase_mess,2022.1.1,35.20443744206413,
,,,,,4,0,4,0,18,0,18,0,,,,,,,,,,,,,,,,right,4000,-7.5,3.53972892192069e-05,-1,4,-1,-5.0,612.077149890014,None,610.0411024000496,610.3404772998765,611.0431286999956,611.3417775998823,612.0436831000261,612.3783258998301,right,1,2.470949900103733,610.0763663998805,None,612.6003036898328,None,,,,,,,nlhglm,001,0,fr,2022-05-09_15h22.30.358,3-AFC_adaptive_staircase_mess,2022.1.1,35.20443744206413,
,,,,,4,0,4,0,19,0,19,0,,,,,,,,,,,,,,,,up,4000,-12.5,1.9905358527674868e-05,-1,4,-1,-5.0,615.0823737898609,None,614.0130461000372,614.347137299832,615.0117138000205,615.316109099891,616.0125994998962,616.3136134999804,right,0,3.955058400053531,614.0811184998602,None,616.5851501999423,None,,,,,,,nlhglm,001,0,fr,2022-05-09_15h22.30.358,3-AFC_adaptive_staircase_mess,2022.1.1,35.20443744206413,
,,,,,4,0,4,0,20,0,20,0,,,,,,,,,,,,,,,,right,4000,-10.0,2.6544222211549425e-05,1,5,1,2.5,621.5536732898327,None,619.512582999887,619.8149448998738,620.51705509983,620.8223200000357,621.5202064998448,621.8211358999833,right,1,2.5477060000412166,619.5837134998292,None,622.0566206998192,None,,,,,,,nlhglm,001,0,fr,2022-05-09_15h22.30.358,3-AFC_adaptive_staircase_mess,2022.1.1,35.20443744206413,
,,,,,4,0,4,0,21,0,21,0,,,,,,,,,,,,,,,,left,4000,-10.0,2.6544222211549425e-05,1,5,1,2.5,623.6916113899788,623.90217749984,623.6224692999385,623.930938199861,624.6244717999361,624.9270352998283,625.6240916999523,625.9552281999495,up,0,3.207682700129226,623.691354499897,None,626.1939101000316,None,,,,,,,nlhglm,001,0,fr,2022-05-09_15h22.30.358,3-AFC_adaptive_staircase_mess,2022.1.1,35.20443744206413,
,,,,,4,0,4,0,22,0,22,0,,,,,,,,,,,,,,,,left,4000,-7.5,3.53972892192069e-05,1,5,1,2.5,628.4606426899554,628.6771613999736,628.3948667999357,628.6949569999706,629.396002799971,629.7266206999775,630.3947290000506,630.6955991999712,right,0,3.2209822002332658,628.4624792998657,None,630.962008500006,None,,,,,,,nlhglm,001,0,fr,2022-05-09_15h22.30.358,3-AFC_adaptive_staircase_mess,2022.1.1,35.20443744206413,
,,,,,4,0,4,0,23,0,23,0,,,,,,,,,,,,,,,,right,4000,-5.0,4.720304381429618e-05,1,5,1,2.5,635.2335646898719,635.4487373000011,633.1640838999301,633.4674149998464,634.1667895000428,634.4971951998305,635.1651484998874,635.4807988998946,right,1,2.8534466000273824,633.2305574000347,None,635.736834899988,None,,,,,,,nlhglm,001,0,fr,2022-05-09_15h22.30.358,3-AFC_adaptive_staircase_mess,2022.1.1,35.20443744206413,
,,,,,4,0,4,0,24,0,24,0,,,,,,,,,,,,,,,,right,4000,-5.0,4.720304381429618e-05,1,5,1,2.5,639.6412605898222,None,637.5700195999816,637.8732958999462,638.5734294999857,638.8713789999019,639.5743926998693,639.9096112998668,left,0,2.892289400100708,637.6386505998671,None,640.135775799863,None,,,,,,,nlhglm,001,0,fr,2022-05-09_15h22.30.358,3-AFC_adaptive_staircase_mess,2022.1.1,35.20443744206413,
,,,,,4,0,4,0,25,0,25,0,,,,,,,,,,,,,,,,right,4000,-2.5,6.294627058970837e-05,1,5,1,2.5,644.0750538898865,644.2918068999425,642.0419278999325,642.3400812000036,643.0420674998313,643.3766373998951,644.0415870998986,644.3488926999271,right,1,2.407858500024304,642.076706300024,None,None,None,,,,,,,nlhglm,001,0,fr,2022-05-09_15h22.30.358,3-AFC_adaptive_staircase_mess,2022.1.1,35.20443744206413,
,,,,,4,0,4,0,26,0,26,0,,,,,,,,,,,,,,,,left,4000,-2.5,6.294627058970837e-05,1,5,1,2.5,646.0495159899583,None,645.979793000035,646.3163178998511,646.9809628999792,647.3136372000445,647.9807879000437,648.2831745999865,left,1,2.7687226000707597,646.0502736000344,None,648.5173275999259,None,,,,,,,nlhglm,001,0,fr,2022-05-09_15h22.30.358,3-AFC_adaptive_staircase_mess,2022.1.1,35.20443744206413,
,,,,,4,0,4,0,27,0,27,0,,,,,,,,,,,,,,,,left,4000,-7.5,3.53972892192069e-05,-1,6,-1,-5.0,650.3503627899336,650.5571947998833,650.2807588998694,650.5897702998482,None,None,None,None,left,1,0.7399238999933004,650.3520084000193,None,None,None,,,,,,,nlhglm,001,0,fr,2022-05-09_15h22.30.358,3-AFC_adaptive_staircase_mess,2022.1.1,35.20443744206413,
,,,,,5,0,5,0,0,0,0,0,,,,,,,,,,,,,[],[],10,up,6000,30,0.003664122665694519,0,0,-1,10,654.8242289900081,655.0333274998702,653.7526255999692,654.085724900011,654.7553474998567,655.0622932999395,None,None,up,1,1.3677835001144558,653.8190023999196,None,None,None,left,1.1323773001786321,652.1825476000085,None,652.1825476000085,None,nlhglm,001,0,fr,2022-05-09_15h22.30.358,3-AFC_adaptive_staircase_mess,2022.1.1,35.20443744206413,
,,,,,5,0,5,0,1,0,1,0,,,,,,,,,,,,,,,,right,6000,30,0.003664122665694519,0,0,-1,10,658.7623874900164,None,656.6956768999808,657.0045586000197,657.7093417998403,658.0298267998733,658.6938348999247,658.9925114000216,right,1,2.374573600012809,656.7321748000104,None,None,None,,,,,,,nlhglm,001,0,fr,2022-05-09_15h22.30.358,3-AFC_adaptive_staircase_mess,2022.1.1,35.20443744206413,
,,,,,5,0,5,0,2,0,2,0,,,,,,,,,,,,,,,,up,6000,10,0.00036641226656945183,-1,0,-1,-10,661.6635221898323,661.8792906999588,660.5916414998937,660.8935002998915,661.598263700027,661.906888899859,None,None,up,1,1.549678800161928,660.661816299893,None,None,None,,,,,,,nlhglm,001,0,fr,2022-05-09_15h22.30.358,3-AFC_adaptive_staircase_mess,2022.1.1,35.20443744206413,
,,,,,5,0,5,0,3,0,3,0,,,,,,,,,,,,,,,,right,6000,10,0.00036641226656945183,-1,0,-1,-10,665.7699792898493,665.982297499897,663.6977615000214,663.9973100998905,664.7011861999054,665.032588099828,665.7013767999597,666.0007423998322,right,1,2.5899848002009094,663.765417400049,None,666.2673599999398,None,,,,,,,nlhglm,001,0,fr,2022-05-09_15h22.30.358,3-AFC_adaptive_staircase_mess,2022.1.1,35.20443744206413,
,,,,,5,0,5,0,4,0,4,0,,,,,,,,,,,,,,,,up,6000,0,0.00011586973249842387,-1,0,-1,-10,668.8765031899093,669.0987803000025,667.8383702998981,668.1656897999346,668.8430363999214,669.1649646000005,None,None,up,1,1.553661399986595,667.8738410999067,None,None,None,,,,,,,nlhglm,001,0,fr,2022-05-09_15h22.30.358,3-AFC_adaptive_staircase_mess,2022.1.1,35.20443744206413,
,,,,,5,0,5,0,5,0,5,0,,,,,,,,,,,,,,,,up,6000,0,0.00011586973249842387,-1,0,-1,-10,671.9729132900247,672.184323299909,670.9057551999576,671.2371441998985,671.9076065998524,672.2136778000277,None,None,up,1,1.4790921001695096,670.9727413998917,None,None,None,,,,,,,nlhglm,001,0,fr,2022-05-09_15h22.30.358,3-AFC_adaptive_staircase_mess,2022.1.1,35.20443744206413,
,,,,,5,0,5,0,6,0,6,0,,,,,,,,,,,,,,,,left,6000,-10,3.664122665694518e-05,-1,0,-1,-10,673.9932416899828,674.2093583999667,673.959774899995,674.2726847999729,674.9529642998241,675.2656473999377,675.9408966000192,676.2469214999583,left,1,3.2292298001702875,673.9904439998791,None,676.5183261998463,None,,,,,,,nlhglm,001,0,fr,2022-05-09_15h22.30.358,3-AFC_adaptive_staircase_mess,2022.1.1,35.20443744206413,
,,,,,5,0,5,0,7,0,7,0,,,,,,,,,,,,,,,,up,6000,-10,3.664122665694518e-05,-1,0,-1,-10,679.7817197899567,679.9888609000482,678.7122647999786,679.0102107999846,679.7125853998587,680.0220788000152,680.7191482998896,681.0224376998376,up,1,3.6408139001578093,678.778086300008,None,681.2833442999981,None,,,,,,,nlhglm,001,0,fr,2022-05-09_15h22.30.358,3-AFC_adaptive_staircase_mess,2022.1.1,35.20443744206413,
,,,,,5,0,5,0,8,0,8,0,,,,,,,,,,,,,,,,left,6000,-20,1.1586973249842387e-05,-1,0,-1,-10,683.9675635899184,684.1827700999565,683.9036592999473,684.2165634999983,684.901357299881,685.224667100003,685.9218309000134,686.2243904999923,left,1,5.445047200191766,683.9658804999199,None,686.4527630999219,None,,,,,,,nlhglm,001,0,fr,2022-05-09_15h22.30.358,3-AFC_adaptive_staircase_mess,2022.1.1,35.20443744206413,
,,,,,5,0,5,0,9,0,9,0,,,,,,,,,,,,,,,,up,6000,-20,1.1586973249842387e-05,-1,0,-1,-10,691.9622180898441,None,690.8898932999,691.193105999846,691.8932896999177,692.2281114999205,692.8940938999876,693.1967193000019,right,0,3.6976179000921547,690.9619171000086,None,693.4661838000175,None,,,,,,,nlhglm,001,0,fr,2022-05-09_15h22.30.358,3-AFC_adaptive_staircase_mess,2022.1.1,35.20443744206413,
,,,,,5,0,5,0,10,0,10,0,,,,,,,,,,,,,,,,right,6000,-15,2.0604875954866497e-05,1,1,1,5,698.2016191898147,698.4094410999678,696.1326613998972,696.4663106000517,697.1269379998557,697.4268869999796,698.1331076999195,698.4434456999879,up,0,2.7326913001015782,696.1993392999284,None,698.7037948998623,None,,,,,,,nlhglm,001,0,fr,2022-05-09_15h22.30.358,3-AFC_adaptive_staircase_mess,2022.1.1,35.20443744206413,
,,,,,5,0,5,0,11,0,11,0,,,,,,,,,,,,,,,,up,6000,-10,3.664122665694518e-05,1,1,1,5,701.4405743899988,None,700.3986890998203,700.6989350998774,701.4071076000109,701.7070308998227,702.4023521998897,702.7099890999962,up,1,2.4444667000789195,700.4703667999711,None,702.9668008898152,None,,,,,,,nlhglm,001,0,fr,2022-05-09_15h22.30.358,3-AFC_adaptive_staircase_mess,2022.1.1,35.20443744206413,
,,,,,5,0,5,0,12,0,12,0,,,,,,,,,,,,,,,,right,6000,-10,3.664122665694518e-05,1,1,1,5,706.4454461898422,706.6519784999546,704.4083497999236,704.7100114000496,705.4041887999047,705.7079123000149,706.4119793998543,706.7090392999817,right,1,2.6472287999931723,704.4761099000461,None,706.9479998999741,None,,,,,,,nlhglm,001,0,fr,2022-05-09_15h22.30.358,3-AFC_adaptive_staircase_mess,2022.1.1,35.20443744206413,
,,,,,5,0,5,0,13,0,13,0,,,,,,,,,,,,,,,,left,6000,-20,1.1586973249842387e-05,-1,2,-1,-5.0,708.6765592900338,708.889522299869,708.6080142999999,708.9203921000008,709.612774600042,709.9137257998809,710.6164362998679,710.9172908000182,left,1,3.692293900065124,708.6787803999614,None,711.1529856999405,None,,,,,,,nlhglm,001,0,fr,2022-05-09_15h22.30.358,3-AFC_adaptive_staircase_mess,2022.1.1,35.20443744206413,
,,,,,5,0,5,0,14,0,14,0,,,,,,,,,,,,,,,,left,6000,-20,1.1586973249842387e-05,-1,2,-1,-5.0,713.918346089893,714.1301759998314,713.8470980999991,714.1603953999002,714.8511705999263,715.160654499894,715.8532069998328,716.1853507000487,right,0,3.8112475001253188,713.9202061998658,None,716.424992499873,None,,,,,,,nlhglm,001,0,fr,2022-05-09_15h22.30.358,3-AFC_adaptive_staircase_mess,2022.1.1,35.20443744206413,
,,,,,5,0,5,0,15,0,15,0,,,,,,,,,,,,,,,,right,6000,-17.5,1.5451477162567947e-05,1,3,1,2.5,721.224861789844,721.429924499942,719.1858262999449,719.4899035999551,720.1891701000277,720.4922076000366,721.1913949998561,721.4945351998322,up,0,3.401249300222844,719.258359399857,None,721.7289917999879,None,,,,,,,nlhglm,001,0,fr,2022-05-09_15h22.30.358,3-AFC_adaptive_staircase_mess,2022.1.1,35.20443744206413,
,,,,,5,0,5,0,16,0,16,0,,,,,,,,,,,,,,,,up,6000,-15.0,2.0604875954866497e-05,1,3,1,2.5,725.1594199900283,None,724.1268364998978,724.4290660000406,725.1259532000404,725.4245347999968,726.1333155999891,726.4318051999435,right,0,2.482546400045976,724.1608736999333,None,726.6683010999113,None,,,,,,,nlhglm,001,0,fr,2022-05-09_15h22.30.358,3-AFC_adaptive_staircase_mess,2022.1.1,35.20443744206413,
,,,,,5,0,5,0,17,0,17,0,,,,,,,,,,,,,,,,right,6000,-12.5,2.7477043692881217e-05,1,3,1,2.5,730.1908794898773,730.4163695999887,728.1291648999322,728.4336704998277,729.1361642000265,729.4651613999158,730.1258763000369,730.4353324999101,left,0,2.889161500148475,728.2021389999427,None,730.6700410000049,None,,,,,,,nlhglm,001,0,fr,2022-05-09_15h22.30.358,3-AFC_adaptive_staircase_mess,2022.1.1,35.20443744206413,
,,,,,5,0,5,0,18,0,18,0,,,,,,,,,,,,,,,,right,6000,-10.0,3.664122665694518e-05,1,3,1,2.5,734.6337034899043,734.8503804998472,732.5652383000124,732.8648335998878,733.5608463999815,733.8635501998942,734.5641295998357,734.8801865000278,right,1,2.731477500172332,732.6316813000012,None,735.1397297999356,None,,,,,,,nlhglm,001,0,fr,2022-05-09_15h22.30.358,3-AFC_adaptive_staircase_mess,2022.1.1,35.20443744206413,
,,,,,5,0,5,0,19,0,19,0,,,,,,,,,,,,,,,,left,6000,-10.0,3.664122665694518e-05,1,3,1,2.5,736.9064986900194,737.1191397998482,736.8400297998451,737.1483797999099,737.8444635998458,738.1725406998303,738.8468626998365,739.1792490000371,right,0,2.812146699987352,736.9037025000434,None,739.3775778999552,None,,,,,,,nlhglm,001,0,fr,2022-05-09_15h22.30.358,3-AFC_adaptive_staircase_mess,2022.1.1,35.20443744206413,
,,,,,5,0,5,0,20,0,20,0,,,,,,,,,,,,,,,,up,6000,-7.5,4.886186104779051e-05,1,3,1,2.5,742.2735104899621,742.4837413998321,741.2047665000428,741.5199400000274,742.2045656999107,742.5140523000155,None,None,up,1,1.6787056000903249,741.2689441000111,None,None,None,,,,,,,nlhglm,001,0,fr,2022-05-09_15h22.30.358,3-AFC_adaptive_staircase_mess,2022.1.1,35.20443744206413,
,,,,,5,0,5,0,21,0,21,0,,,,,,,,,,,,,,,,right,6000,-7.5,4.886186104779051e-05,1,3,1,2.5,746.5106036899379,746.7210198999383,744.4585670998786,744.7834795999806,745.450420799898,745.7507493000012,746.4447528000455,746.7511038999073,right,1,2.472386799985543,744.4906272999942,None,747.0094843899133,None,,,,,,,nlhglm,001,0,fr,2022-05-09_15h22.30.358,3-AFC_adaptive_staircase_mess,2022.1.1,35.20443744206413,
,,,,,5,0,5,0,22,0,22,0,,,,,,,,,,,,,,,,up,6000,-12.5,2.7477043692881217e-05,-1,4,-1,-5.0,749.4900299898582,None,748.4554746998474,748.7562012998387,749.4565631998703,749.7874014999252,750.4544342998415,None,up,1,2.1259608000982553,748.4856731998734,None,None,None,,,,,,,nlhglm,001,0,fr,2022-05-09_15h22.30.358,3-AFC_adaptive_staircase_mess,2022.1.1,35.20443744206413,
,,,,,5,0,5,0,23,0,23,0,,,,,,,,,,,,,,,,right,6000,-12.5,2.7477043692881217e-05,-1,4,-1,-5.0,754.1485664899228,754.3615871998481,752.0914892000146,752.4202524998691,753.0792127999011,753.3851962999906,754.0834095999599,754.3915256999899,right,1,2.3580723002087325,752.1575901999604,None,None,None,,,,,,,nlhglm,001,0,fr,2022-05-09_15h22.30.358,3-AFC_adaptive_staircase_mess,2022.1.1,35.20443744206413,
,,,,,5,0,5,0,24,0,24,0,,,,,,,,,,,,,,,,up,6000,-17.5,1.5451477162567947e-05,-1,4,-1,-5.0,757.0307956900215,None,755.9944096999243,756.3007238998543,756.9973289000336,757.3314131998923,757.9868032999802,758.2901782998815,up,1,2.5636395001783967,756.031290799845,None,758.5245153999422,None,,,,,,,nlhglm,001,0,fr,2022-05-09_15h22.30.358,3-AFC_adaptive_staircase_mess,2022.1.1,35.20443744206413,
,,,,,5,0,5,0,25,0,25,0,,,,,,,,,,,,,,,,left,6000,-17.5,1.5451477162567947e-05,-1,4,-1,-5.0,760.1554849898675,760.3697956998367,760.0893776998855,760.4010931998491,761.0821487999056,761.3967414000072,762.0997721999884,762.4031594998669,left,1,3.6878101001493633,760.1550155999139,None,762.6420433998574,None,,,,,,,nlhglm,001,0,fr,2022-05-09_15h22.30.358,3-AFC_adaptive_staircase_mess,2022.1.1,35.20443744206413,
,,,,,5,0,5,0,26,0,26,0,,,,,,,,,,,,,,,,left,6000,-22.5,8.689004143746873e-06,-1,4,-1,-5.0,765.4074944899185,None,765.3366642999463,765.6406679998618,766.361026099883,766.6603693000507,767.3311705999076,767.6605038999114,right,0,2.644158200128004,765.4079416999593,None,767.8939769000281,None,,,,,,,nlhglm,001,0,fr,2022-05-09_15h22.30.358,3-AFC_adaptive_staircase_mess,2022.1.1,35.20443744206413,
,,,,,5,0,5,0,27,0,27,0,,,,,,,,,,,,,,,,up,6000,-20.0,1.1586973249842387e-05,1,5,1,2.5,770.5789347899845,None,769.5408810998779,769.8717236998491,770.5454679999966,770.870882499963,771.5299078000244,771.8562404999975,up,1,2.878025999991223,769.5725940000266,None,772.0756906999741,None,,,,,,,nlhglm,001,0,fr,2022-05-09_15h22.30.358,3-AFC_adaptive_staircase_mess,2022.1.1,35.20443744206413,
,,,,,5,0,5,0,28,0,28,0,,,,,,,,,,,,,,,,left,6000,-20.0,1.1586973249842387e-05,1,5,1,2.5,774.0052572899731,None,773.9384286999702,774.2716581998393,774.9500710999127,775.284304099856,775.9522949999664,776.2806763998233,right,0,4.11159610026516,774.0046305998694,None,776.5207856998313,None,,,,,,,nlhglm,001,0,fr,2022-05-09_15h22.30.358,3-AFC_adaptive_staircase_mess,2022.1.1,35.20443744206413,
,,,,,5,0,5,0,29,0,29,0,,,,,,,,,,,,,,,,left,6000,-17.5,1.5451477162567947e-05,1,5,1,2.5,779.6478126900038,None,779.6143459000159,779.9393798999954,780.6196266999468,780.9198326999322,781.600164399948,781.9238700999413,right,0,4.6462762001901865,779.6449288998265,None,782.1559607998934,None,,,,,,,nlhglm,001,0,fr,2022-05-09_15h22.30.358,3-AFC_adaptive_staircase_mess,2022.1.1,35.20443744206413,
,,,,,5,0,5,0,30,0,30,0,,,,,,,,,,,,,,,,left,6000,-15.0,2.0604875954866497e-05,1,5,1,2.5,785.8196903899079,None,785.7529869000427,786.0789019998629,786.7633157998789,787.0970872999169,787.7744885999709,788.0980849999469,left,1,3.6408263000193983,785.8186176000163,None,788.3299980999436,None,,,,,,,nlhglm,001,0,fr,2022-05-09_15h22.30.358,3-AFC_adaptive_staircase_mess,2022.1.1,35.20443744206413,
,,,,,5,0,5,0,31,0,31,0,,,,,,,,,,,,,,,,left,6000,-15.0,2.0604875954866497e-05,1,5,1,2.5,790.9997609899146,791.2095508000348,790.9662941999268,791.2698083999567,791.9698505999986,792.2996184998192,792.9738157999236,793.2726437000092,up,0,2.5166704000439495,791.0067586000077,None,793.5000636000186,None,,,,,,,nlhglm,001,0,fr,2022-05-09_15h22.30.358,3-AFC_adaptive_staircase_mess,2022.1.1,35.20443744206413,
,,,,,5,0,5,0,32,0,32,0,,,,,,,,,,,,,,,,up,6000,-12.5,2.7477043692881217e-05,1,5,1,2.5,796.049585689907,None,795.0149181999732,795.3167826998979,796.0161188999191,796.3428022998851,797.0080205998383,797.3309994998854,right,0,2.712082700105384,795.0510356999002,None,797.5562483000103,None,,,,,,,nlhglm,001,0,fr,2022-05-09_15h22.30.358,3-AFC_adaptive_staircase_mess,2022.1.1,35.20443744206413,
,,,,,5,0,5,0,33,0,33,0,,,,,,,,,,,,,,,,right,6000,-10.0,3.664122665694518e-05,1,5,1,2.5,801.2949932898628,None,799.2274321999867,799.5536104999483,800.2282703998499,800.5283301000018,801.2242868000176,801.5626806998625,right,1,2.7267246001865715,799.2927983999252,None,801.7956193999853,None,,,,,,,nlhglm,001,0,fr,2022-05-09_15h22.30.358,3-AFC_adaptive_staircase_mess,2022.1.1,35.20443744206413,
,,,,,5,0,5,0,34,0,34,0,,,,,,,,,,,,,,,,right,6000,-10.0,3.664122665694518e-05,1,5,1,2.5,805.5654796898598,None,803.4797455000225,803.7913923999295,804.4934235999826,804.7937347998377,805.4997200998478,805.8354940998834,right,1,3.7206658001523465,803.5467707000207,None,806.0644043998327,None,,,,,,,nlhglm,001,0,fr,2022-05-09_15h22.30.358,3-AFC_adaptive_staircase_mess,2022.1.1,35.20443744206413,
,,,,,5,0,5,0,35,0,35,0,,,,,,,,,,,,,,,,right,6000,-15.0,2.0604875954866497e-05,-1,6,-1,-5.0,810.8050755899167,None,808.7648463998921,809.0663784998469,809.7674517999403,810.0691447998397,810.7716087999288,811.1052157999948,up,0,3.1552917000371963,808.8000276000239,None,811.3066218998283,None,,,,,,,nlhglm,001,0,fr,2022-05-09_15h22.30.358,3-AFC_adaptive_staircase_mess,2022.1.1,35.20443744206413,
,,,,,6,0,6,0,0,0,0,0,,,,,,,,,,,,,[],[],10,right,8000,30,0.005740768107484416,0,0,-1,10,817.1416858899174,817.35445289989,815.0740235999692,815.3728922000155,816.0736483000219,816.3742466999684,817.1082190999296,817.4156520999968,right,1,2.398964600171894,815.1403713000473,None,None,None,left,1.5930574000813067,813.0351279999595,None,813.0351279999595,None,nlhglm,001,0,fr,2022-05-09_15h22.30.358,3-AFC_adaptive_staircase_mess,2022.1.1,35.20443744206413,
,,,,,6,0,6,0,1,0,1,0,,,,,,,,,,,,,,,,up,8000,30,0.005740768107484416,0,0,-1,10,820.0800061899936,None,819.0168915998656,819.3283277000301,820.0139641999267,820.3480517999269,None,None,up,1,1.466084800194949,819.0814455000218,None,None,None,,,,,,,nlhglm,001,0,fr,2022-05-09_15h22.30.358,3-AFC_adaptive_staircase_mess,2022.1.1,35.20443744206413,
,,,,,6,0,6,0,2,0,2,0,,,,,,,,,,,,,,,,up,8000,10,0.0005740768107484417,-1,0,-1,-10,823.1134691898478,823.3287469998468,822.0800393999089,822.416248699883,823.0336945999879,823.3593047000468,None,None,up,1,1.2800036000553519,822.114777199924,None,None,None,,,,,,,nlhglm,001,0,fr,2022-05-09_15h22.30.358,3-AFC_adaptive_staircase_mess,2022.1.1,35.20443744206413,
,,,,,6,0,6,0,3,0,3,0,,,,,,,,,,,,,,,,left,8000,10,0.0005740768107484417,-1,0,-1,-10,824.9521264898358,825.1638857999351,824.8814310999587,825.1951605998911,None,None,None,None,left,1,0.586226100102067,824.953650600044,None,None,None,,,,,,,nlhglm,001,0,fr,2022-05-09_15h22.30.358,3-AFC_adaptive_staircase_mess,2022.1.1,35.20443744206413,
,,,,,6,0,6,0,4,0,4,0,,,,,,,,,,,,,,,,up,8000,0,0.0001815390273850507,-1,0,-1,-10,828.088808489847,828.3024237998761,827.0241284999065,827.3499566998798,828.0180690998677,828.3358203999233,None,None,up,1,1.3627163001801819,827.056225999957,None,None,None,,,,,,,nlhglm,001,0,fr,2022-05-09_15h22.30.358,3-AFC_adaptive_staircase_mess,2022.1.1,35.20443744206413,
,,,,,6,0,6,0,5,0,5,0,,,,,,,,,,,,,,,,left,8000,0,0.0001815390273850507,-1,0,-1,-10,829.953839889844,830.1686950998846,829.8862484998535,830.197590299882,830.8911965999287,None,None,None,left,1,0.9458416001871228,829.9538938999176,None,None,None,,,,,,,nlhglm,001,0,fr,2022-05-09_15h22.30.358,3-AFC_adaptive_staircase_mess,2022.1.1,35.20443744206413,
,,,,,6,0,6,0,6,0,6,0,,,,,,,,,,,,,,,,up,8000,-10,5.740768107484415e-05,-1,0,-1,-10,833.4290864899522,833.6385663000401,832.3989084998611,832.7267889999785,833.3956196999643,833.6979829999618,None,None,up,1,1.3965678000822663,832.4311581999063,None,None,None,,,,,,,nlhglm,001,0,fr,2022-05-09_15h22.30.358,3-AFC_adaptive_staircase_mess,2022.1.1,35.20443744206413,
,,,,,6,0,6,0,7,0,7,0,,,,,,,,,,,,,,,,left,8000,-10,5.740768107484415e-05,-1,0,-1,-10,835.3792802899843,835.6019111999776,835.3458134999964,835.6668244998436,None,None,None,None,left,1,0.5892135000322014,835.3815319999121,None,None,None,,,,,,,nlhglm,001,0,fr,2022-05-09_15h22.30.358,3-AFC_adaptive_staircase_mess,2022.1.1,35.20443744206413,
,,,,,6,0,6,0,8,0,8,0,,,,,,,,,,,,,,,,up,8000,-20,1.815390273850507e-05,-1,0,-1,-10,838.53422708984,None,837.4662068998441,837.7663117998745,838.4673425999936,838.7972555998713,839.4651722998824,839.7656070999801,left,0,3.013043100014329,837.5346112998668,None,840.0361152999103,None,,,,,,,nlhglm,001,0,fr,2022-05-09_15h22.30.358,3-AFC_adaptive_staircase_mess,2022.1.1,35.20443744206413,
,,,,,6,0,6,0,9,0,9,0,,,,,,,,,,,,,,,,left,8000,-15,3.228271145173278e-05,1,1,1,5,842.0711320898263,None,842.0016634999774,842.3056171999779,843.0030467000324,843.338184399996,844.0021853998769,844.3072770000435,left,1,3.518685100134462,842.0686763999984,None,844.5728884998243,None,,,,,,,nlhglm,001,0,fr,2022-05-09_15h22.30.358,3-AFC_adaptive_staircase_mess,2022.1.1,35.20443744206413,
,,,,,6,0,6,0,10,0,10,0,,,,,,,,,,,,,,,,left,8000,-15,3.228271145173278e-05,1,1,1,5,847.1089690899244,None,847.040549099911,847.3782562999986,848.0386175999884,848.3419005998876,849.0400876998901,849.3450241000392,right,0,4.064231200143695,847.1063788998872,None,849.617286699824,None,,,,,,,nlhglm,001,0,fr,2022-05-09_15h22.30.358,3-AFC_adaptive_staircase_mess,2022.1.1,35.20443744206413,
,,,,,6,0,6,0,11,0,11,0,,,,,,,,,,,,,,,,right,8000,-10,5.740768107484415e-05,1,1,1,5,854.718674489879,None,852.6457998999394,852.9503458999097,853.6552601000294,853.9685384999029,854.6518941998947,854.9499683999456,right,1,4.536689600208774,852.714802299859,None,855.2170555999037,None,,,,,,,nlhglm,001,0,fr,2022-05-09_15h22.30.358,3-AFC_adaptive_staircase_mess,2022.1.1,35.20443744206413,
,,,,,6,0,6,0,12,0,12,0,,,,,,,,,,,,,,,,up,8000,-10,5.740768107484415e-05,1,1,1,5,859.78600188985,None,858.7242141000461,859.0514670999255,859.7178457998671,860.0207852998283,None,None,up,1,1.5346907002385706,858.7569118000101,None,None,None,,,,,,,nlhglm,001,0,fr,2022-05-09_15h22.30.358,3-AFC_adaptive_staircase_mess,2022.1.1,35.20443744206413,
,,,,,6,0,6,0,13,0,13,0,,,,,,,,,,,,,,,,up,8000,-20,1.815390273850507e-05,-1,2,-1,-5.0,862.8565014899941,863.0625252998434,861.7871469999664,862.1232868998777,862.7894305998925,863.0947373998351,863.7887257998809,864.0873493999243,right,0,4.768847299972549,861.8577805999666,None,864.3599179999437,None,,,,,,,nlhglm,001,0,fr,2022-05-09_15h22.30.358,3-AFC_adaptive_staircase_mess,2022.1.1,35.20443744206413,
,,,,,6,0,6,0,14,0,14,0,,,,,,,,,,,,,,,,left,8000,-17.5,2.420861837920497e-05,1,3,1,2.5,868.1638522899011,None,868.0962161999196,868.4334925999865,869.0976467998698,869.4309739000164,870.1021282000002,870.3985829998273,left,1,6.526990799931809,868.1642819999252,None,870.6369368999731,None,,,,,,,nlhglm,001,0,fr,2022-05-09_15h22.30.358,3-AFC_adaptive_staircase_mess,2022.1.1,35.20443744206413,
,,,,,6,0,6,0,15,0,15,0,,,,,,,,,,,,,,,,right,8000,-17.5,2.420861837920497e-05,1,3,1,2.5,878.2378110898426,878.4514677999541,876.1674118000083,876.4729946998414,877.1768771000206,877.508766300045,878.1732220000122,878.4788938998245,right,1,3.4925211002118886,876.2386235999875,None,878.7182048000395,None,,,,,,,nlhglm,001,0,fr,2022-05-09_15h22.30.358,3-AFC_adaptive_staircase_mess,2022.1.1,35.20443744206413,
,,,,,6,0,6,0,16,0,16,0,,,,,,,,,,,,,,,,right,8000,-22.5,1.3613506540389564e-05,-1,4,-1,-5.0,883.2821262899088,None,881.2114637000486,881.5101454998367,882.2104723998345,882.5144439998548,883.2125182999298,883.5121452000458,up,0,2.792452200083062,881.2750243998598,None,883.782162199961,None,,,,,,,nlhglm,001,0,fr,2022-05-09_15h22.30.358,3-AFC_adaptive_staircase_mess,2022.1.1,35.20443744206413,
,,,,,6,0,6,0,17,0,17,0,,,,,,,,,,,,,,,,up,8000,-20.0,1.815390273850507e-05,1,5,1,2.5,886.5882163898787,886.8009786000475,885.5455256998539,885.851703699911,886.5547495998908,886.8662252000067,887.5478811999783,887.8513543999288,right,0,3.713216600008309,885.6182192999404,None,888.0895872998517,None,,,,,,,nlhglm,001,0,fr,2022-05-09_15h22.30.358,3-AFC_adaptive_staircase_mess,2022.1.1,35.20443744206413,
,,,,,6,0,6,0,18,0,18,0,,,,,,,,,,,,,,,,right,8000,-17.5,2.420861837920497e-05,1,5,1,2.5,892.8498398900265,893.0673314000014,890.7856668999884,891.0921228998341,891.7912914999761,892.0883402000181,892.7853645000141,893.0942112999037,up,0,2.9378095001447946,890.8569819999393,None,893.3545392998494,None,,,,,,,nlhglm,001,0,fr,2022-05-09_15h22.30.358,3-AFC_adaptive_staircase_mess,2022.1.1,35.20443744206413,
,,,,,6,0,6,0,19,0,19,0,,,,,,,,,,,,,,,,left,8000,-15.0,3.228271145173278e-05,1,5,1,2.5,895.3577488899464,895.5736181999091,895.2913569998927,895.6024305999745,896.2859592000023,896.5897555998527,897.2870964999311,897.5891082000453,left,1,2.7786766001954675,895.3520339999814,None,897.8281036999542,None,,,,,,,nlhglm,001,0,fr,2022-05-09_15h22.30.358,3-AFC_adaptive_staircase_mess,2022.1.1,35.20443744206413,
,,,,,6,0,6,0,20,0,20,0,,,,,,,,,,,,,,,,right,8000,-15.0,3.228271145173278e-05,1,5,1,2.5,901.6513874899829,901.8692242999095,899.5949238999747,899.8961581999902,900.6129311998375,900.9243593998253,901.5890601000283,901.9013048999477,up,0,3.0156037001870573,899.6590952998959,None,902.1653998999391,None,,,,,,,nlhglm,001,0,fr,2022-05-09_15h22.30.358,3-AFC_adaptive_staircase_mess,2022.1.1,35.20443744206413,
,,,,,6,0,6,0,21,0,21,0,,,,,,,,,,,,,,,,up,8000,-12.5,4.304968760923004e-05,1,5,1,2.5,905.2082511900226,905.4194874998648,904.1649805000052,904.4989954999182,905.1747844000347,905.4887760998681,None,None,up,1,1.4341754000633955,904.2328325000126,None,None,None,,,,,,,nlhglm,001,0,fr,2022-05-09_15h22.30.358,3-AFC_adaptive_staircase_mess,2022.1.1,35.20443744206413,
,,,,,6,0,6,0,22,0,22,0,,,,,,,,,,,,,,,,right,8000,-12.5,4.304968760923004e-05,1,5,1,2.5,909.2008806898957,909.414399900008,907.1376302998979,907.4684146998916,908.1357270998415,908.4378567999229,909.1331221999135,909.4455110998824,right,1,2.3833371000364423,907.2039758998435,None,None,None,,,,,,,nlhglm,001,0,fr,2022-05-09_15h22.30.358,3-AFC_adaptive_staircase_mess,2022.1.1,35.20443744206413,
,,,,,6,0,6,0,23,0,23,0,,,,,,,,,,,,,,,,up,8000,-17.5,2.420861837920497e-05,-1,6,-1,-5.0,912.1389283899916,912.3519494000357,911.0690563998651,911.3712351999711,912.0720034998376,912.383396799909,913.0735241000075,913.3706867999863,right,0,2.7703772000968456,911.13746849983,None,913.6137665000279,None,,,,,,,nlhglm,001,0,fr,2022-05-09_15h22.30.358,3-AFC_adaptive_staircase_mess,2022.1.1,35.20443744206413,
,,,,,7,0,7,0,0,0,0,0,,,,,,,,,,,,,[],[],10,up,750,30,0.0012851978913844323,0,0,-1,10,917.7483625899768,None,916.6804787998553,916.9890776998363,917.6805972999427,917.9823306999169,None,None,up,1,1.4487278000451624,916.7460550998803,None,None,None,left,1.2668036001268774,914.9758603998926,None,914.9758603998926,None,nlhglm,001,0,fr,2022-05-09_15h22.30.358,3-AFC_adaptive_staircase_mess,2022.1.1,35.20443744206413,
,,,,,7,0,7,0,1,0,1,0,,,,,,,,,,,,,,,,left,750,30,0.0012851978913844323,0,0,-1,10,919.7509143898496,919.962048499845,919.6816379998345,919.9917029000353,None,None,None,None,left,1,0.4752670000307262,919.7519241999835,None,None,None,,,,,,,nlhglm,001,0,fr,2022-05-09_15h22.30.358,3-AFC_adaptive_staircase_mess,2022.1.1,35.20443744206413,
,,,,,7,0,7,0,2,0,2,0,,,,,,,,,,,,,,,,up,750,10,0.00012851978913844324,-1,0,-1,-10,922.7698484900175,None,921.715177499922,922.0193302000407,922.7088683999609,923.0369167998433,None,None,up,1,1.3725286002736539,921.7820597998798,None,None,None,,,,,,,nlhglm,001,0,fr,2022-05-09_15h22.30.358,3-AFC_adaptive_staircase_mess,2022.1.1,35.20443744206413,
,,,,,7,0,7,0,3,0,3,0,,,,,,,,,,,,,,,,right,750,10,0.00012851978913844324,-1,0,-1,-10,926.6880704899086,926.8978715999983,924.6618862999603,924.9607360998634,925.6525351000018,925.9594375998713,926.6546036999207,926.9609192998614,right,1,2.349260600283742,924.693509799894,None,None,None,,,,,,,nlhglm,001,0,fr,2022-05-09_15h22.30.358,3-AFC_adaptive_staircase_mess,2022.1.1,35.20443744206413,
,,,,,7,0,7,0,4,0,4,0,,,,,,,,,,,,,,,,up,750,0,4.064152580820497e-05,-1,0,-1,-10,929.5940006900346,929.8102191998623,928.5260981000029,928.8591373998206,929.5241558998823,929.8273022999056,930.5273672000039,930.8300365000032,up,1,2.5153657000046223,928.5914702999871,None,931.096302999882,None,,,,,,,nlhglm,001,0,fr,2022-05-09_15h22.30.358,3-AFC_adaptive_staircase_mess,2022.1.1,35.20443744206413,
,,,,,7,0,7,0,5,0,5,0,,,,,,,,,,,,,,,,left,750,0,4.064152580820497e-05,-1,0,-1,-10,932.6626194898272,932.8736025998369,932.5938335999381,932.9043487999588,933.5989822000265,933.8986974,934.5968756000511,934.89909049985,right,0,2.716549300123006,932.6639304000419,None,935.1629428998567,None,,,,,,,nlhglm,001,0,fr,2022-05-09_15h22.30.358,3-AFC_adaptive_staircase_mess,2022.1.1,35.20443744206413,
,,,,,7,0,7,0,6,0,6,0,,,,,,,,,,,,,,,,up,750,5,7.22719885372964e-05,1,1,1,5,937.9024849898415,938.1198915999848,936.8364639000501,937.1717170998454,937.8327821998391,938.1485003998969,938.844960300019,939.1537122000009,up,1,2.9048810000531375,936.9054926999379,None,939.3847197999712,None,,,,,,,nlhglm,001,0,fr,2022-05-09_15h22.30.358,3-AFC_adaptive_staircase_mess,2022.1.1,35.20443744206413,
,,,,,7,0,7,0,7,0,7,0,,,,,,,,,,,,,,,,right,750,5,7.22719885372964e-05,1,1,1,5,943.3438681898406,943.5621411998291,941.3097053999081,941.610471899854,942.3109055999666,942.6126563998405,943.3104013998527,943.6268894998357,right,1,2.562642800156027,941.3442851998843,None,943.8553481998388,None,,,,,,,nlhglm,001,0,fr,2022-05-09_15h22.30.358,3-AFC_adaptive_staircase_mess,2022.1.1,35.20443744206413,
,,,,,7,0,7,0,8,0,8,0,,,,,,,,,,,,,,,,left,750,-5,2.285440948074376e-05,-1,2,-1,-5.0,945.4437922899378,945.6600661999546,945.3761596998665,945.6770211998373,946.3755156998523,946.6818635999225,947.3888836000115,947.7104108999483,up,0,3.166088900063187,945.4452362998854,None,947.9456148999743,None,,,,,,,nlhglm,001,0,fr,2022-05-09_15h22.30.358,3-AFC_adaptive_staircase_mess,2022.1.1,35.20443744206413,
,,,,,7,0,7,0,9,0,9,0,,,,,,,,,,,,,,,,right,750,-2.5,3.0476844862008466e-05,1,3,1,2.5,952.1499311899533,952.3568263999186,950.0932111998554,950.4171541000251,951.1140943998471,951.4209276000038,952.1164643999655,952.4187250998802,up,0,2.6175278001464903,950.1531793000177,None,952.6483539999463,None,,,,,,,nlhglm,001,0,fr,2022-05-09_15h22.30.358,3-AFC_adaptive_staircase_mess,2022.1.1,35.20443744206413,
,,,,,7,0,7,0,10,0,10,0,,,,,,,,,,,,,,,,up,750,0.0,4.064152580820497e-05,1,3,1,2.5,955.3256786899874,None,954.2534534998704,954.5561083999928,955.257783900015,955.5961372000165,956.2517432000022,956.5531229998451,up,1,3.1061999001540244,954.3202670998871,None,956.7978687998839,None,,,,,,,nlhglm,001,0,fr,2022-05-09_15h22.30.358,3-AFC_adaptive_staircase_mess,2022.1.1,35.20443744206413,
,,,,,7,0,7,0,11,0,11,0,,,,,,,,,,,,,,,,left,750,0.0,4.064152580820497e-05,1,3,1,2.5,958.9934462899109,959.2090155000333,958.9274703999981,959.2271749998908,959.9276690999977,960.2275189999491,960.9292989999522,961.2582634999417,up,0,3.908824800280854,958.9899075999856,None,961.4959525999147,None,,,,,,,nlhglm,001,0,fr,2022-05-09_15h22.30.358,3-AFC_adaptive_staircase_mess,2022.1.1,35.20443744206413,
,,,,,7,0,7,0,12,0,12,0,,,,,,,,,,,,,,,,left,750,2.5,5.419634570106019e-05,1,3,1,2.5,964.4651819899445,964.6838100999594,964.4007722998504,964.7133936998434,None,None,None,None,left,1,0.8048690999858081,964.4630793998949,None,None,None,,,,,,,nlhglm,001,0,fr,2022-05-09_15h22.30.358,3-AFC_adaptive_staircase_mess,2022.1.1,35.20443744206413,
,,,,,7,0,7,0,13,0,13,0,,,,,,,,,,,,,,,,up,750,2.5,5.419634570106019e-05,1,3,1,2.5,967.7986864898121,968.0158376998734,966.7386948999483,967.0684923999943,967.7652196998242,968.0722012999468,None,None,up,1,1.5978606001008302,966.806057699956,None,None,None,,,,,,,nlhglm,001,0,fr,2022-05-09_15h22.30.358,3-AFC_adaptive_staircase_mess,2022.1.1,35.20443744206413,
,,,,,7,0,7,0,14,0,14,0,,,,,,,,,,,,,,,,right,750,-2.5,3.0476844862008466e-05,-1,4,-1,-5.0,971.9398724898929,None,969.9032016999554,970.2034987998195,970.9030652998481,971.2031048999634,971.906405699905,972.2090067998506,left,0,3.2033808000851423,969.9677895000204,None,972.4713677999098,None,,,,,,,nlhglm,001,0,fr,2022-05-09_15h22.30.358,3-AFC_adaptive_staircase_mess,2022.1.1,35.20443744206413,
,,,,,7,0,7,0,15,0,15,0,,,,,,,,,,,,,,,,up,750,0.0,4.064152580820497e-05,1,5,1,2.5,975.7116678898456,975.9253366000485,974.6503373999149,974.9560407998506,975.6413415998686,975.9547828999348,976.6449555999134,976.9421965999063,right,0,2.6931537000928074,974.685898500029,None,977.2181124999188,None,,,,,,,nlhglm,001,0,fr,2022-05-09_15h22.30.358,3-AFC_adaptive_staircase_mess,2022.1.1,35.20443744206413,
,,,,,7,0,7,0,16,0,16,0,,,,,,,,,,,,,,,,left,750,2.5,5.419634570106019e-05,1,5,1,2.5,978.9149927898543,None,978.8440405000001,979.15044509992,979.8499854998663,980.1493648998439,980.849994200049,981.146966899978,right,0,3.198947000084445,978.9171706000343,None,981.4150194998365,None,,,,,,,nlhglm,001,0,fr,2022-05-09_15h22.30.358,3-AFC_adaptive_staircase_mess,2022.1.1,35.20443744206413,
,,,,,7,0,7,0,17,0,17,0,,,,,,,,,,,,,,,,up,750,5.0,7.22719885372964e-05,1,5,1,2.5,984.6889634899562,984.9035384999588,983.6203697999008,983.9479882000014,984.617719899863,984.9317288999446,None,None,up,1,1.5986348001752049,983.6532745000441,None,None,None,,,,,,,nlhglm,001,0,fr,2022-05-09_15h22.30.358,3-AFC_adaptive_staircase_mess,2022.1.1,35.20443744206413,
,,,,,7,0,7,0,18,0,18,0,,,,,,,,,,,,,,,,up,750,5.0,7.22719885372964e-05,1,5,1,2.5,987.8262435899815,None,986.7565957000479,987.0878466998693,987.7568459999748,988.0960442998912,988.7598057000432,None,up,1,2.0788716000970453,986.820659799967,None,None,None,,,,,,,nlhglm,001,0,fr,2022-05-09_15h22.30.358,3-AFC_adaptive_staircase_mess,2022.1.1,35.20443744206413,
,,,,,7,0,7,0,19,0,19,0,,,,,,,,,,,,,,,,up,750,0.0,4.064152580820497e-05,-1,6,-1,-5.0,991.4600976899965,None,990.3924761998933,990.6923308998812,991.3901851000264,991.6954325998668,992.3952128000092,992.7254804999102,up,1,3.2562190000899136,990.460351199843,None,992.9331342999358,None,,,,,,,nlhglm,001,0,fr,2022-05-09_15h22.30.358,3-AFC_adaptive_staircase_mess,2022.1.1,35.20443744206413,
,,,,,8,0,8,0,0,0,0,0,,,,,,,,,,,,,[],[],10,left,500,30,0.002259279721874612,0,0,-1,10,996.9358883899404,None,996.8674844000489,997.1676596000325,None,None,None,None,left,1,0.6511466002557427,996.935638600029,None,None,None,left,1.6363932001404464,994.7985167000443,None,994.7985167000443,None,nlhglm,001,0,fr,2022-05-09_15h22.30.358,3-AFC_adaptive_staircase_mess,2022.1.1,35.20443744206413,
,,,,,8,0,8,0,1,0,1,0,,,,,,,,,,,,,,,,right,500,30,0.002259279721874612,0,0,-1,10,1001.1413747899933,1001.3559526000172,999.0672903000377,999.3680070999544,1000.071789899841,1000.3758306000382,1001.0756053999066,1001.3843949998263,right,1,2.339541899971664,999.136492999969,None,None,None,,,,,,,nlhglm,001,0,fr,2022-05-09_15h22.30.358,3-AFC_adaptive_staircase_mess,2022.1.1,35.20443744206413,
,,,,,8,0,8,0,2,0,2,0,,,,,,,,,,,,,,,,right,500,10,0.0002259279721874612,-1,0,-1,-10,1004.9831266900292,None,1002.9299383999314,1003.2335115999449,1003.9602502998896,1004.2598581998609,1004.9496599000413,1005.2475779999513,right,1,2.3672269999515265,1002.9956008999143,None,None,None,,,,,,,nlhglm,001,0,fr,2022-05-09_15h22.30.358,3-AFC_adaptive_staircase_mess,2022.1.1,35.20443744206413,
,,,,,8,0,8,0,3,0,3,0,,,,,,,,,,,,,,,,right,500,10,0.0002259279721874612,-1,0,-1,-10,1008.9156408900162,1009.1241923000198,1006.8396631998476,1007.1421600999311,1007.8468726999126,1008.1483891999815,1008.8464720000047,1009.157035500044,right,1,2.337731100153178,1006.9129276999738,None,None,None,,,,,,,nlhglm,001,0,fr,2022-05-09_15h22.30.358,3-AFC_adaptive_staircase_mess,2022.1.1,35.20443744206413,
,,,,,8,0,8,0,4,0,4,0,,,,,,,,,,,,,,,,left,500,0,7.144469792555515e-05,-1,0,-1,-10,1010.8157622899162,None,1010.7492905999534,1011.0847700999584,1011.7510885000229,1012.0802104000468,1012.7524524999317,1013.0843783998862,left,1,3.524261600105092,1010.8148813999724,None,1013.3184837000445,None,,,,,,,nlhglm,001,0,fr,2022-05-09_15h22.30.358,3-AFC_adaptive_staircase_mess,2022.1.1,35.20443744206413,
,,,,,8,0,8,0,5,0,5,0,,,,,,,,,,,,,,,,right,500,0,7.144469792555515e-05,-1,0,-1,-10,1017.8899957899703,1018.1054858998396,1015.8229099998716,1016.1219994998537,1016.8236312000081,1017.1229909998365,1017.8238593998831,1018.1347835999914,up,0,3.954227500129491,1015.8889766999055,None,1018.368170300033,None,,,,,,,nlhglm,001,0,fr,2022-05-09_15h22.30.358,3-AFC_adaptive_staircase_mess,2022.1.1,35.20443744206413,
,,,,,8,0,8,0,6,0,6,0,,,,,,,,,,,,,,,,up,500,5,0.00012704863527746526,1,1,1,5,1022.3594013898401,1022.5739630998578,1021.3264967999421,1021.6588639998809,1022.3259345998522,1022.6312648998573,1023.3239960998762,1023.657986999955,up,1,2.486497900215909,1021.3572843000293,None,1023.8894306899747,None,,,,,,,nlhglm,001,0,fr,2022-05-09_15h22.30.358,3-AFC_adaptive_staircase_mess,2022.1.1,35.20443744206413,
,,,,,8,0,8,0,7,0,7,0,,,,,,,,,,,,,,,,up,500,5,0.00012704863527746526,1,1,1,5,1026.395061989897,1026.5998527999036,1025.3237621998414,1025.6235179998912,1026.3259590999223,1026.6308356998488,1027.3295773998834,1027.6270736998413,up,1,2.451286300085485,1025.3920609999914,None,1027.8904949898133,None,,,,,,,nlhglm,001,0,fr,2022-05-09_15h22.30.358,3-AFC_adaptive_staircase_mess,2022.1.1,35.20443744206413,
,,,,,8,0,8,0,8,0,8,0,,,,,,,,,,,,,,,,right,500,-5,4.017630610928089e-05,-1,2,-1,-5.0,1031.3992666898994,1031.6195177000482,1029.3335450999439,1029.6369013998192,1030.3353303999174,1030.6640649000183,1031.334150499897,1031.6479990999214,up,0,4.984291800064966,1029.402740899939,None,1031.9067036998458,None,,,,,,,nlhglm,001,0,fr,2022-05-09_15h22.30.358,3-AFC_adaptive_staircase_mess,2022.1.1,35.20443744206413,
,,,,,8,0,8,0,9,0,9,0,,,,,,,,,,,,,,,,left,500,-2.5,5.357596526188033e-05,1,3,1,2.5,1035.9066178899957,None,1035.8731511000078,1036.1749684000388,1036.8631712000351,1037.1949900998734,1037.8711681000423,1038.1995095999446,right,0,3.3958823001012206,1035.9037578999996,None,1038.4140329000074,None,,,,,,,nlhglm,001,0,fr,2022-05-09_15h22.30.358,3-AFC_adaptive_staircase_mess,2022.1.1,35.20443744206413,
,,,,,8,0,8,0,10,0,10,0,,,,,,,,,,,,,,,,up,500,0.0,7.144469792555515e-05,1,3,1,2.5,1041.8354935898678,None,1040.7988509999122,1041.1019152998924,1041.80202679988,1042.1028138999827,1042.8079744998831,1043.1371937999502,left,0,3.506577900145203,1040.8325834998395,None,1043.3392729999032,None,,,,,,,nlhglm,001,0,fr,2022-05-09_15h22.30.358,3-AFC_adaptive_staircase_mess,2022.1.1,35.20443744206413,
,,,,,8,0,8,0,11,0,11,0,,,,,,,,,,,,,,,,up,500,2.5,9.527303589816237e-05,1,3,1,2.5,1046.854644589941,None,1045.8112929000054,1046.1431261999533,1046.8211777999531,1047.1475722999312,1047.8062344999053,1048.1415079999715,right,0,3.1194567000493407,1045.8443420999683,None,1048.3779306998476,None,,,,,,,nlhglm,001,0,fr,2022-05-09_15h22.30.358,3-AFC_adaptive_staircase_mess,2022.1.1,35.20443744206413,
,,,,,8,0,8,0,12,0,12,0,,,,,,,,,,,,,,,,right,500,5.0,0.00012704863527746526,1,3,1,2.5,1052.4895771899028,None,1050.4412279999815,1050.753607899882,1051.4475334999152,1051.745362999849,1052.456110399915,1052.7905537998304,right,1,2.727182799950242,1050.5078957998194,None,1052.9832107999828,None,,,,,,,nlhglm,001,0,fr,2022-05-09_15h22.30.358,3-AFC_adaptive_staircase_mess,2022.1.1,35.20443744206413,
,,,,,8,0,8,0,13,0,13,0,,,,,,,,,,,,,,,,left,500,5.0,0.00012704863527746526,1,3,1,2.5,1054.779600890004,None,1054.7150679000188,1055.0312063000165,1055.6937058998737,1056.0155529999174,1056.7232146000024,1057.047203199938,right,0,2.9831148001831025,1054.779340500012,None,1057.2644042999018,None,,,,,,,nlhglm,001,0,fr,2022-05-09_15h22.30.358,3-AFC_adaptive_staircase_mess,2022.1.1,35.20443744206413,
,,,,,8,0,8,0,14,0,14,0,,,,,,,,,,,,,,,,right,500,7.5,0.00016942207806960129,1,3,1,2.5,1061.3150153899333,1061.5365976998582,1059.2603756999597,1059.5871468998957,1060.2590270999353,1060.5875710998662,1061.2500427998602,1061.5678256000392,right,1,2.726672299904749,1059.2922527999617,None,1061.7988040999044,None,,,,,,,nlhglm,001,0,fr,2022-05-09_15h22.30.358,3-AFC_adaptive_staircase_mess,2022.1.1,35.20443744206413,
,,,,,8,0,8,0,15,0,15,0,,,,,,,,,,,,,,,,right,500,7.5,0.00016942207806960129,1,3,1,2.5,1065.5226443900028,None,1063.4635441999417,1063.775333599886,1064.4788672998548,1064.8027088998351,1065.489177600015,1065.772276799893,right,1,2.5718525999691337,1063.5274596998934,None,1066.0279353999067,None,,,,,,,nlhglm,001,0,fr,2022-05-09_15h22.30.358,3-AFC_adaptive_staircase_mess,2022.1.1,35.20443744206413,
,,,,,8,0,8,0,16,0,16,0,,,,,,,,,,,,,,,,up,500,2.5,9.527303589816237e-05,-1,4,-1,-5.0,1068.6584872900276,None,1067.5738525998313,1067.8929326999933,1068.5943559999578,1068.9173013998661,1069.6066725000273,1069.934310700046,up,1,2.5528029000852257,1067.642283699941,None,1070.1582587000448,None,,,,,,,nlhglm,001,0,fr,2022-05-09_15h22.30.358,3-AFC_adaptive_staircase_mess,2022.1.1,35.20443744206413,
,,,,,8,0,8,0,17,0,17,0,,,,,,,,,,,,,,,,left,500,2.5,9.527303589816237e-05,-1,4,-1,-5.0,1071.7520899899537,None,1071.68803199986,1072.0099175998475,1072.692159499973,1073.0055974998977,1073.6942272000015,1074.0091415999923,right,0,2.6064970002043992,1071.7485573999584,None,1074.2528458999004,None,,,,,,,nlhglm,001,0,fr,2022-05-09_15h22.30.358,3-AFC_adaptive_staircase_mess,2022.1.1,35.20443744206413,
,,,,,8,0,8,0,18,0,18,0,,,,,,,,,,,,,,,,up,500,5.0,0.00012704863527746526,1,5,1,2.5,1076.883652989869,None,1075.8293467999902,1076.1461371998303,1076.8194969999604,1077.1452497998253,1077.8177318000235,None,up,1,2.148201100062579,1075.8859530000482,None,None,None,,,,,,,nlhglm,001,0,fr,2022-05-09_15h22.30.358,3-AFC_adaptive_staircase_mess,2022.1.1,35.20443744206413,
,,,,,8,0,8,0,19,0,19,0,,,,,,,,,,,,,,,,right,500,5.0,0.00012704863527746526,1,5,1,2.5,1081.5932665899163,None,1079.5196222998202,1079.8267335998826,1080.5239237998612,1080.8330890999641,1081.529015299864,1081.8497780999169,right,1,3.064259500009939,1079.5788551999722,None,1082.0964462999254,None,,,,,,,nlhglm,001,0,fr,2022-05-09_15h22.30.358,3-AFC_adaptive_staircase_mess,2022.1.1,35.20443744206413,
,,,,,8,0,8,0,20,0,20,0,,,,,,,,,,,,,,,,up,500,0.0,7.144469792555515e-05,-1,6,-1,-5.0,1085.168721289956,1085.3905495000072,1084.10744599998,1084.4223038998898,1085.1352544999681,1085.4576055998914,1086.1030865998473,1086.4161030999385,up,1,2.485780600225553,1084.1575416999403,None,1086.663835400017,None,,,,,,,nlhglm,001,0,fr,2022-05-09_15h22.30.358,3-AFC_adaptive_staircase_mess,2022.1.1,35.20443744206413,
,,,,,9,0,9,0,0,0,0,0,,,,,,,,,,,,,[],[],10,left,250,30,0.005296268625886445,0,0,-1,10,1103.4585209899815,None,1103.3919303999282,1103.727593000047,None,None,None,None,left,1,0.5432390002533793,1103.4597258998547,None,None,None,right,15.225366699974984,1087.73675739998,None,1087.73675739998,None,nlhglm,001,0,fr,2022-05-09_15h22.30.358,3-AFC_adaptive_staircase_mess,2022.1.1,35.20443744206413,
,,,,,9,0,9,0,1,0,1,0,,,,,,,,,,,,,,,,left,250,30,0.005296268625886445,0,0,-1,10,1105.5120121898362,1105.7293869999703,1105.445992999943,1105.7482171000447,None,None,None,None,left,1,0.35007410030812025,1105.5248276998755,None,None,None,,,,,,,nlhglm,001,0,fr,2022-05-09_15h22.30.358,3-AFC_adaptive_staircase_mess,2022.1.1,35.20443744206413,
,,,,,9,0,9,0,2,0,2,0,,,,,,,,,,,,,,,,left,250,10,0.0005296268625886444,-1,0,-1,-10,1107.429643290001,1107.645954299951,1107.3628093998414,1107.675677599851,None,None,None,None,left,1,0.5089638000354171,1107.4297237999272,None,None,None,,,,,,,nlhglm,001,0,fr,2022-05-09_15h22.30.358,3-AFC_adaptive_staircase_mess,2022.1.1,35.20443744206413,
,,,,,9,0,9,0,3,0,3,0,,,,,,,,,,,,,,,,up,250,10,0.0005296268625886444,-1,0,-1,-10,1110.4993329899153,1110.7162124000024,1109.4368390999734,1109.7506927000359,1110.4341642998625,1110.7478147000074,None,None,up,1,1.4799155001528561,1109.4666946998332,None,None,None,,,,,,,nlhglm,001,0,fr,2022-05-09_15h22.30.358,3-AFC_adaptive_staircase_mess,2022.1.1,35.20443744206413,
,,,,,9,0,9,0,4,0,4,0,,,,,,,,,,,,,,,,right,250,0,0.0001674827195789138,-1,0,-1,-10,1114.4893380898284,None,1112.4306834999006,1112.7322766999714,1113.4211778000463,1113.7385877999477,1114.4379683998413,1114.73844440002,up,0,3.0553509001620114,1112.4991150000133,None,1114.987656199839,None,,,,,,,nlhglm,001,0,fr,2022-05-09_15h22.30.358,3-AFC_adaptive_staircase_mess,2022.1.1,35.20443744206413,
,,,,,9,0,9,0,5,0,5,0,,,,,,,,,,,,,,,,left,250,5,0.0002978310717645052,1,1,1,5,1117.1070106899133,1117.3224406000227,1117.0394796000328,1117.352376600029,None,None,None,None,left,1,0.6079054002184421,1117.1065680000465,None,None,None,,,,,,,nlhglm,001,0,fr,2022-05-09_15h22.30.358,3-AFC_adaptive_staircase_mess,2022.1.1,35.20443744206413,
,,,,,9,0,9,0,6,0,6,0,,,,,,,,,,,,,,,,left,250,5,0.0002978310717645052,1,1,1,5,1119.2739750900073,1119.4892728000414,1119.1941923999693,1119.5206677999813,None,None,None,None,left,1,0.5659915001597255,1119.276521799853,None,None,None,,,,,,,nlhglm,001,0,fr,2022-05-09_15h22.30.358,3-AFC_adaptive_staircase_mess,2022.1.1,35.20443744206413,
,,,,,9,0,9,0,7,0,7,0,,,,,,,,,,,,,,,,left,250,-5,9.418245447449e-05,-1,2,-1,-5.0,1121.4100926899118,1121.6264531000052,1121.3437173999846,1121.6573788998649,1122.3284962999169,1122.6526776000392,1123.3466123999096,1123.6461215999443,right,0,3.87249070010148,1121.4105999998283,None,1123.8830690998584,None,,,,,,,nlhglm,001,0,fr,2022-05-09_15h22.30.358,3-AFC_adaptive_staircase_mess,2022.1.1,35.20443744206413,
,,,,,9,0,9,0,8,0,8,0,,,,,,,,,,,,,,,,left,250,-2.5,0.00012559432157547898,1,3,1,2.5,1126.7966176898917,None,1126.732373900013,1127.0637270000298,1127.750025499845,1128.0481232998427,1128.7538288000505,1129.082821500022,left,1,2.476570200175047,1126.7900592000224,None,1129.2901375000365,None,,,,,,,nlhglm,001,0,fr,2022-05-09_15h22.30.358,3-AFC_adaptive_staircase_mess,2022.1.1,35.20443744206413,
,,,,,9,0,9,0,9,0,9,0,,,,,,,,,,,,,,,,right,250,-2.5,0.00012559432157547898,1,3,1,2.5,1132.8229083899641,1133.0328120999038,1130.7532862999942,1131.0553989999462,1131.7625644998625,1132.0853136999067,1132.7560594999231,1133.0636084999423,left,0,2.6228877000976354,1130.8211682999972,None,1133.3114593999926,None,,,,,,,nlhglm,001,0,fr,2022-05-09_15h22.30.358,3-AFC_adaptive_staircase_mess,2022.1.1,35.20443744206413,
,,,,,9,0,9,0,10,0,10,0,,,,,,,,,,,,,,,,up,250,0.0,0.0001674827195789138,1,3,1,2.5,1135.963115389808,None,1134.9248198999558,1135.2273857998662,1135.9296485998202,1136.2298438998405,None,None,up,1,1.667341300053522,1134.991851199884,None,None,None,,,,,,,nlhglm,001,0,fr,2022-05-09_15h22.30.358,3-AFC_adaptive_staircase_mess,2022.1.1,35.20443744206413,
,,,,,9,0,9,0,11,0,11,0,,,,,,,,,,,,,,,,up,250,0.0,0.0001674827195789138,1,3,1,2.5,1139.163975489908,1139.373233599821,1138.1285294999834,1138.4302437999286,1139.13050869992,1139.4349589999765,1140.132442199858,1140.4304311999585,left,0,3.0057382001541555,1138.1973442998715,None,1140.6676256000064,None,,,,,,,nlhglm,001,0,fr,2022-05-09_15h22.30.358,3-AFC_adaptive_staircase_mess,2022.1.1,35.20443744206413,
,,,,,9,0,9,0,12,0,12,0,,,,,,,,,,,,,,,,right,250,2.5,0.0002233417960754815,1,3,1,2.5,1144.7690082899062,1144.9839254999533,1142.6963959999848,1143.002151799854,1143.7003229998518,1143.999574800022,1144.7017965998966,1145.0155547999311,right,1,2.805705799954012,1142.764950899873,None,1145.2594095999375,None,,,,,,,nlhglm,001,0,fr,2022-05-09_15h22.30.358,3-AFC_adaptive_staircase_mess,2022.1.1,35.20443744206413,
,,,,,9,0,9,0,13,0,13,0,,,,,,,,,,,,,,,,up,250,2.5,0.0002233417960754815,1,3,1,2.5,1148.1049314899137,1148.3185946999583,1147.037072399864,1147.3373618000187,1148.0373929999769,1148.3528241999447,1149.0442115999758,1149.339230600046,up,1,2.8990144000854343,1147.1039557999466,None,1149.5925525999628,None,,,,,,,nlhglm,001,0,fr,2022-05-09_15h22.30.358,3-AFC_adaptive_staircase_mess,2022.1.1,35.20443744206413,
,,,,,9,0,9,0,14,0,14,0,,,,,,,,,,,,,,,,left,250,-2.5,0.00012559432157547898,-1,4,-1,-5.0,1151.5407797900261,1151.7549699000083,1151.4748380000237,1151.7853852999397,1152.476885000011,1152.8100931998342,1153.4797079998534,1153.7761269998737,left,1,3.4379579999949783,1151.54092509998,None,1154.0254813998472,None,,,,,,,nlhglm,001,0,fr,2022-05-09_15h22.30.358,3-AFC_adaptive_staircase_mess,2022.1.1,35.20443744206413,
,,,,,9,0,9,0,15,0,15,0,,,,,,,,,,,,,,,,right,250,-2.5,0.00012559432157547898,-1,4,-1,-5.0,1158.5184667898575,1158.7286504998337,1156.4489225998987,1156.7739617999177,1157.4481530999765,1157.7513947000261,1158.4496056998614,1158.7596626000013,right,1,3.263356300070882,1156.5154093999881,None,1159.0187984998338,None,,,,,,,nlhglm,001,0,fr,2022-05-09_15h22.30.358,3-AFC_adaptive_staircase_mess,2022.1.1,35.20443744206413,
