tTrials.thisRepN,tTrials.thisTrialN,tTrials.thisN,tTrials.thisIndex,blocks.thisRepN,blocks.thisTrialN,blocks.thisN,blocks.thisIndex,trials.thisRepN,trials.thisTrialN,trials.thisN,trials.thisIndex,tStart_text.started,tStart_text.stopped,Prediction,practice_Frequency,practice_Level,practice_Psychopy_Level,practice_isCatchTrial,Practice_trial_detection,practice_Cue_Delays,practice_Cue_Frequencies,practice_Interval,practice_Cue_Intensities,tCue_visual_cue.started,tCue_visual_cue.stopped,tProbe_visual_cue.started,tProbe_visual_cue.stopped,tFeedback.keys,tFeedback.corr,tFeedback.rt,tFeedback.started,tFeedback.stopped,tToo_late.keys,tToo_late.corr,tToo_early.keys,tToo_early.corr,more_instructions.started,more_instructions.stopped,readyy.keys,readyy.rt,readyy.started,readyy.stopped,txt_rhythm.started,txt_rhythm.stopped,sound_1.started,sound_1.stopped,sound_2.started,sound_2.stopped,sound_3.started,sound_3.stopped,sound_4.started,sound_4.stopped,cross.started,cross.stopped,sound_5.started,sound_5.stopped,circle.started,circle.stopped,rhythm_ready.keys,rhythm_ready.rt,rhythm_ready.started,rhythm_ready.stopped,rhytm_ready_txt.started,rhytm_ready_txt.stopped,txt_freq.started,txt_freq.stopped,sound_6.started,sound_6.stopped,sound_7.started,sound_7.stopped,sound_8.started,sound_8.stopped,sound_9.started,sound_9.stopped,cross_2.started,cross_2.stopped,sound_10.started,sound_10.stopped,circle_2.started,circle_2.stopped,freq_ready.keys,freq_ready.rt,freq_ready.started,freq_ready.stopped,freq_ready_txt.started,freq_ready_txt.stopped,txt_freq_2.started,txt_freq_2.stopped,sound_11.started,sound_11.stopped,sound_12.started,sound_12.stopped,sound_13.started,sound_13.stopped,sound_14.started,sound_14.stopped,cross_3.started,cross_3.stopped,sound_15.started,sound_15.stopped,circle_3.started,circle_3.stopped,freq_ready_2.keys,freq_ready_2.rt,freq_ready_2.started,freq_ready_2.stopped,freq_ready_txt_2.started,freq_ready_txt_2.stopped,txt_freq_3.started,txt_freq_3.stopped,sound_16.started,sound_16.stopped,sound_17.started,sound_17.stopped,sound_18.started,sound_18.stopped,sound_19.started,sound_19.stopped,cross_4.started,cross_4.stopped,sound_20.started,sound_20.stopped,circle_4.started,circle_4.stopped,freq_ready_txt_3.started,freq_ready_txt_3.stopped,tStart_text_2.started,tStart_text_2.stopped,this_trial_is.started,this_trial_is.stopped,Frequency,Level,Psychopy_Level,Real trial detection,Cue Delays,Cue Frequencies,Interval,Cue Intensities,Catch trial,cue_visual_cue.started,cue_visual_cue.stopped,probe_visual_cue.started,probe_visual_cue.stopped,feedback.keys,feedback.corr,feedback.rt,feedback.started,feedback.stopped,answer_too_late.keys,answer_too_late.corr,answer_too_early.keys,answer_too_early.corr,Catch trial answer,answer_too_early.rt,Audiogram_time,Audiogram_none,Audiogram_frequency,Audiogram_both,goodbye_text.started,goodbye_text.stopped,key_resp.keys,key_resp.rt,key_resp.started,key_resp.stopped,participant,session,Language (english or french),Skip training? (1 for yes),Resume previous experiment,date,expName,psychopyVersion,frameRate,
0,0,0,0,,,,,,,,,33.869282699999985,None,time,1000,30,0.0013930605843148849,False,1,"[0.6523312132839452, 0.6523312132839452, 0.6523312132839452, 0.6523312132839452]","[1826.8489673616841, 2770.5579939456525, 3440.569328375987, 404.40660121628343]",None,"[30, 30, 30, 30]",63.79735500000015,66.69230090000019,66.69230090000019,67.9253235000001,['space'],1,[1.3375637999997707],66.69230090000019,68.55735420000019,None,1,None,1,,,,,,,,,,,,,,,,,,,,,,,,,,,,,,,,,,,,,,,,,,,,,,,,,,,,,,,,,,,,,,,,,,,,,,,,,,,,,,,,,,,,,,,,,,,,,,,,,,,,,,,,,,,,,,,,,,,,,,,,,,,,,,,,,cwzopc,001,english,0,0,2022-07-20_11h23.46.854,Cluster,2022.1.1,32.32834216059683,
1,0,1,0,,,,,,,,,,,both,2500,30,0.002716251657462167,False,1,"[0.5510122988527038, 0.5510122988527038, 0.5510122988527038, 0.5510122988527038]","[6299.605249474367, 5000.000000000001, 3968.502629920499, 3149.802624737183]",Major_3rd,"[30, 30, 30, 30]",82.25368449999996,84.8481071000001,84.8481071000001,86.07348279999997,['space'],1,[0.8537274999998772],84.8481071000001,86.61900990000004,None,1,None,1,,,,,,,,,,,,,,,,,,,,,,,,,,,,,,,,,,,,,,,,,,,,,,,,,,,,,,,,,,,,,,,,,,,,,,,,,,,,,,,,,,,,,,,,,,,,,,,,,,,,,,,,,,,,,,,,,,,,,,,,,,,,,,,,,cwzopc,001,english,0,0,2022-07-20_11h23.46.854,Cluster,2022.1.1,32.32834216059683,
2,0,2,0,,,,,,,,,,,both,6000,30,0.003664122665694519,True,1,"[0.6543657671305076, 0.6543657671305076, 0.6543657671305076, 0.6543657671305076]","[2381.1015779523, 3000.000000000001, 3779.76314968462, 4762.203155904599]",Major_3rd,"[30, 30, 30, 30]",89.25810390000015,92.16258749999997,92.16258749999997,93.39794040000015,None,1,,92.16258749999997,94.05191890000015,None,1,None,1,,,,,,,,,,,,,,,,,,,,,,,,,,,,,,,,,,,,,,,,,,,,,,,,,,,,,,,,,,,,,,,,,,,,,,,,,,,,,,,,,,,,,,,,,,,,,,,,,,,,,,,,,,,,,,,,,,,,,,,,,,,,,,,,,cwzopc,001,english,0,0,2022-07-20_11h23.46.854,Cluster,2022.1.1,32.32834216059683,
3,0,3,0,,,,,,,,,,,none,440,30,0.0023562289915021436,False,1,"[0.5896714281651981, 0.4181839342677818, 0.6479158999801317, 0.566381236537537]","[429.2419198756678, 2319.054151037055, 557.8116632026453, 599.8705579054119]",None,"[30, 30, 30, 30]",99.28149770000027,101.86376180000025,101.86376180000025,103.06690179999987,['space'],1,[0.9169865999997455],101.86376180000025,103.65491359999987,None,1,None,1,,,,,,,,,,,,,,,,,,,,,,,,,,,,,,,,,,,,,,,,,,,,,,,,,,,,,,,,,,,,,,,,,,,,,,,,,,,,,,,,,,,,,,,,,,,,,,,,,,,,,,,,,,,,,,,,,,,,,,,,,,,,,,,,,cwzopc,001,english,0,0,2022-07-20_11h23.46.854,Cluster,2022.1.1,32.32834216059683,
4,0,4,0,,,,,,,,,,,time,250,30,0.005296268625886445,True,1,"[0.5399802185402113, 0.5399802185402113, 0.5399802185402113, 0.5399802185402113]","[1623.2591524457423, 559.0180976228039, 5817.639470469983, 156.97992174276922]",None,"[30, 30, 30, 30]",106.30990710000015,108.87730349999993,108.87730349999993,110.09407790000023,None,1,,108.87730349999993,110.65156419999994,None,1,None,1,,,,,,,,,,,,,,,,,,,,,,,,,,,,,,,,,,,,,,,,,,,,,,,,,,,,,,,,,,,,,,,,,,,,,,,,,,,,,,,,,,,,,,,,,,,,,,,,,,,,,,,,,,,,,,,,,,,,,,,,,,,,,,,,,cwzopc,001,english,0,0,2022-07-20_11h23.46.854,Cluster,2022.1.1,32.32834216059683,
,,,,,,,,,,,,,,,,,,,,,,,,,,,,,,,,,,,,,113.45744460000014,None,space,28.268310599999495,113.45744460000014,None,,,,,,,,,,,,,,,,,,,,,,,,,,,,,,,,,,,,,,,,,,,,,,,,,,,,,,,,,,,,,,,,,,,,,,,,,,,,,,,,,,,,,,,,,,,,,,,,,,,,,,,,,,,,,,,,,,,,,,,,,,,cwzopc,001,english,0,0,2022-07-20_11h23.46.854,Cluster,2022.1.1,32.32834216059683,
,,,,,,,,,,,,,,,,,,,,,,,,,,,,,,,,,,,,,,,,,,,141.79147880000028,142.81775199999993,143.2623427900002,143.47408730000006,143.77774659000025,143.99242159999994,144.26334809000028,144.481988,144.75612379000032,144.97442300000012,143.15923810000004,144.97442300000012,145.28725509000006,145.51104600000008,144.97442300000012,145.7798657000003,space,2.248262800000248,145.98282440000003,None,,,,,,,,,,,,,,,,,,,,,,,,,,,,,,,,,,,,,,,,,,,,,,,,,,,,,,,,,,,,,,,,,,,,,,,,,,,,,,,,,,,,,,,,,,,,,,,,,,,,,,,cwzopc,001,english,0,0,2022-07-20_11h23.46.854,Cluster,2022.1.1,32.32834216059683,
,,,,,,,,,,,,,,,,,,,,,,,,,,,,,,,,,,,,,,,,,,,,,,,,,,,,,,,,,,,,,,,145.98282440000003,None,148.28208700000005,149.31893990000026,149.7369510900002,149.94986210000025,150.05093759000002,150.27450690000023,150.75859439000024,150.98167620000004,151.15091439000017,151.3713187000003,149.66848900000014,151.4415202,151.7478781900003,151.96363509999992,151.4415202,152.26449200000025,space,1.3617204000001948,152.4672453000003,None,,,,,,,,,,,,,,,,,,,,,,,,,,,,,,,,,,,,,,,,,,,,,,,,,,,,,,,,,,,,,,,,,,,,,,,,,,,,,,,,,cwzopc,001,english,0,0,2022-07-20_11h23.46.854,Cluster,2022.1.1,32.32834216059683,
,,,,,,,,,,,,,,,,,,,,,,,,,,,,,,,,,,,,,,,,,,,,,,,,,,,,,,,,,,,,,,,,,,,,,,,,,,,,,,,,,,,,,152.4672453000003,None,153.86809530000028,154.87256160000015,155.34610268999987,155.55524939999987,155.81750838999997,156.02209059999996,156.33116938999993,None,156.83125189000012,157.0417164999999,155.2448518000001,157.0417164999999,157.3392467900002,157.5573214000001,157.0417164999999,157.85336499999994,space,1.45630809999966,158.02114630000005,None,,,,,,,,,,,,,,,,,,,,,,,,,,,,,,,,,,,,,,,,,,,,,,,,,,,,,,,,,,,cwzopc,001,english,0,0,2022-07-20_11h23.46.854,Cluster,2022.1.1,32.32834216059683,
,,,,0,0,0,0,0,0,0,0,,,both,,,,,,,,,,,,,,,,,,,,,,,,,,,,,,,,,,,,,,,,,,,,,,,,,,,,,,,,,,,,,,,,,,,,,,,,,,,,,,,,,,,,,,,,,,,,,158.02114630000005,None,159.53203239999993,160.5518688000002,160.98906798999988,None,161.26792289000005,None,161.9746049899999,162.19038920000003,162.39195899000006,162.60944070000005,160.88023969999995,162.6763288000002,162.9784889900001,163.19392500000004,162.6763288000002,163.50369490000003,163.67316200000005,None,164.69620590000022,None,187.7707835000001,None,627.9411859754402,2.2414783890691052,6.664408332990512e-05,1,"[0.6059929473830347, 0.6059929473830347, 0.6059929473830347, 0.6059929473830347]","[249.19862479789322, 313.9705929877202, 395.5781591532043, 498.3972495957864]",Major_3rd,"[13.899582780124295, 13.308224635178409, 11.179917103400358, 9.094045895017006]",False,188.74157229999992,191.5920715000002,191.5920715000002,192.80854920000002,['space'],1,[0.35128020000001925],3.4660683300003257,4.493467330000385,None,1,None,1,,,,,,,,,,,,,cwzopc,001,english,0,0,2022-07-20_11h23.46.854,Cluster,2022.1.1,32.32834216059683,
,,,,0,0,0,0,1,0,1,0,,,frequency,,,,,,,,,,,,,,,,,,,,,,,,,,,,,,,,,,,,,,,,,,,,,,,,,,,,,,,,,,,,,,,,,,,,,,,,,,,,,,,,,,,,,,,,,,,,,,,,,,,,,,,,,,,,,,,,,,,193.2636851000002,None,2343.781497999069,2.474073316090154,0.00010959785080801203,1,"[0.5076684125899603, 0.5988219848537407, 0.5020646313941306, 0.7721993169787854]","[1476.4898228415825, 1657.303790854706, 1860.260607753662, 2088.0719321684146]",Tone,"[16.27248937200469, 15.0, 12.653614237667398, 10.0]",False,194.27418650000027,196.9018744,196.9018744,198.12687240000014,['space'],1,[0.4650869000001876],3.414993730000333,4.450837130000309,None,1,None,1,,,,,,,,,,,,,cwzopc,001,english,0,0,2022-07-20_11h23.46.854,Cluster,2022.1.1,32.32834216059683,
,,,,0,0,0,0,2,0,2,0,,,frequency,,,,,,,,,,,,,,,,,,,,,,,,,,,,,,,,,,,,,,,,,,,,,,,,,,,,,,,,,,,,,,,,,,,,,,,,,,,,,,,,,,,,,,,,,,,,,,,,,,,,,,,,,,,,,,,,,,,198.7471158000003,None,176.7766952966369,0.0,0.0003500209769801159,1,"[0.632259402961775, 0.48591788374409745, 0.6679403059954309, 0.6639619853102585]","[890.8987181403394, 594.6035575013606, 396.8502629920499, 264.86577358982385]",Perfect_5th,"[11.0, 8.287388138157038, 11.179917103400358, 13.823623790394164]",False,200.1127876999999,202.91845890000013,202.91845890000013,204.13573240000005,['space'],1,[0.3356314999996357],3.4956603200002974,4.528752720000284,None,1,None,1,,,,,,,,,,,,,cwzopc,001,english,0,0,2022-07-20_11h23.46.854,Cluster,2022.1.1,32.32834216059683,
,,,,0,0,0,0,3,0,3,0,,,frequency,,,,,,,,,,,,,,,,,,,,,,,,,,,,,,,,,,,,,,,,,,,,,,,,,,,,,,,,,,,,,,,,,,,,,,,,,,,,,,,,,,,,,,,,,,,,,,,,,,,,,,,,,,,,,,,,,,,204.66978210000025,None,,,,,"[0.5592621149956806, 0.7798493289078522, 0.7867203106864358, 0.6023018207879354]","[1331.834577042396, 1057.0778043223606, 839.0032092967749, 665.917288521198]",Major_3rd,"[16.310816631830267, 13.757857418103542, 10.161245385309872, 8.446569919492394]",True,205.66082000000006,208.8122175999997,208.8122175999997,210.03388189999987,None,1,,3.786670829999821,4.798095529999955,None,1,None,1,0,,,,,,,,,,,,cwzopc,001,english,0,0,2022-07-20_11h23.46.854,Cluster,2022.1.1,32.32834216059683,
,,,,0,0,0,0,4,0,4,0,,,both,,,,,,,,,,,,,,,,,,,,,,,,,,,,,,,,,,,,,,,,,,,,,,,,,,,,,,,,,,,,,,,,,,,,,,,,,,,,,,,,,,,,,,,,,,,,,,,,,,,,,,,,,,,,,,,,,,,210.4841935000004,None,176.7766952966369,0.0,0.0003500209769801159,1,"[0.7450883741698597, 0.7450883741698597, 0.7450883741698597, 0.7450883741698597]","[890.8987181403394, 594.6035575013606, 396.8502629920499, 264.86577358982385]",Perfect_5th,"[11.0, 8.287388138157038, 11.179917103400358, 13.823623790394164]",False,211.5153293000003,214.79051100000015,214.79051100000015,216.00744829999985,['space'],1,[0.2505366000000322],4.003870730000017,5.020198430000164,None,1,None,1,,,,,,,,,,,,,cwzopc,001,english,0,0,2022-07-20_11h23.46.854,Cluster,2022.1.1,32.32834216059683,
,,,,0,0,0,0,5,0,5,0,,,frequency,,,,,,,,,,,,,,,,,,,,,,,,,,,,,,,,,,,,,,,,,,,,,,,,,,,,,,,,,,,,,,,,,,,,,,,,,,,,,,,,,,,,,,,,,,,,,,,,,,,,,,,,,,,,,,,,,,,216.56919519999974,None,127.8428106630115,3.1029586155057256,0.000996865669468397,1,"[0.7580912752229357, 0.6667044807136738, 0.43595014752730205, 0.7065792825412633]","[322.1436964641059, 255.68562132602304, 202.93781213303583, 161.07184823205296]",Major_3rd,"[13.0, 13.899582780124295, 13.140492597983389, 11.0]",False,217.56170999999995,220.4634033000002,220.4634033000002,221.69440769999983,['space'],1,[0.2743014000002404],3.620458929999586,4.6283578299999135,None,1,None,1,,,,,,,,,,,,,cwzopc,001,english,0,0,2022-07-20_11h23.46.854,Cluster,2022.1.1,32.32834216059683,
,,,,0,0,0,0,6,0,6,0,,,none,,,,,,,,,,,,,,,,,,,,,,,,,,,,,,,,,,,,,,,,,,,,,,,,,,,,,,,,,,,,,,,,,,,,,,,,,,,,,,,,,,,,,,,,,,,,,,,,,,,,,,,,,,,,,,,,,,,222.22126839999964,None,4819.164697131856,-1.0,0.00012504565102220525,1,"[0.7453313648286362, 0.6444759050199154, 0.6869373705739887, 0.7250809419954031]","[173.2574280851065, 1061.4665380749993, 235.26338414901358, 942.1566904827638]",None,"[11.89549327517948, 13.757857418103542, 13.818573845899522, 12.0]",False,223.22501360000024,226.33487520000017,226.33487520000017,227.55615820000003,['space'],1,[0.4677569999989828],3.8363851300000533,4.854781629999707,None,1,None,1,,,,,,,,,,,,,cwzopc,001,english,0,0,2022-07-20_11h23.46.854,Cluster,2022.1.1,32.32834216059683,
,,,,0,0,0,0,7,0,7,0,,,frequency,,,,,,,,,,,,,,,,,,,,,,,,,,,,,,,,,,,,,,,,,,,,,,,,,,,,,,,,,,,,,,,,,,,,,,,,,,,,,,,,,,,,,,,,,,,,,,,,,,,,,,,,,,,,,,,,,,,228.1052565,None,353.5533905932738,-1.0,7.897582242723967e-05,1,"[0.6386221226033727, 0.5737332078598016, 0.5635437632099972, 0.41472133991614885]","[890.8987181403395, 707.1067811865477, 561.2310241546866, 445.4493590701697]",Major_3rd,"[11.0, 8.86680171705992, 8.287388138157038, 10.0]",False,229.1238126999997,231.9380417000002,231.9380417000002,233.15628350000043,['space'],1,[0.5041536000003362],3.2348432299995693,4.271569429999545,None,1,None,1,,,,,,,,,,,,,cwzopc,001,english,0,0,2022-07-20_11h23.46.854,Cluster,2022.1.1,32.32834216059683,
,,,,0,0,0,0,8,0,8,0,,,time,,,,,,,,,,,,,,,,,,,,,,,,,,,,,,,,,,,,,,,,,,,,,,,,,,,,,,,,,,,,,,,,,,,,,,,,,,,,,,,,,,,,,,,,,,,,,,,,,,,,,,,,,,,,,,,,,,,233.4414056000005,None,2715.111762687065,1.357996047207937,8.48015630662077e-05,1,"[0.5992575952894728, 0.5992575952894728, 0.5992575952894728, 0.5992575952894728]","[126.66659149246007, 1074.8326801763005, 1607.157148595094, 291.68804063606524]",None,"[9.102958615505726, 13.757857418103542, 15.461311896220947, 13.618319380339361]",False,234.4282272999999,237.26833570000053,237.26833570000053,238.4768380000005,['space'],1,[0.2942717000000812],3.437538629998926,4.470786529998804,None,1,None,1,,,,,,,,,,,,,cwzopc,001,english,0,0,2022-07-20_11h23.46.854,Cluster,2022.1.1,32.32834216059683,
,,,,0,0,0,0,9,0,9,0,,,time,,,,,,,,,,,,,,,,,,,,,,,,,,,,,,,,,,,,,,,,,,,,,,,,,,,,,,,,,,,,,,,,,,,,,,,,,,,,,,,,,,,,,,,,,,,,,,,,,,,,,,,,,,,,,,,,,,,238.92563280000013,None,,,,,"[0.6132616578657111, 0.6132616578657111, 0.6132616578657111, 0.6132616578657111]","[4514.963442053076, 6821.079027674216, 1013.6461590413815, 3111.30110125539]",None,"[6.0, -3.0, 13.0, 7.317684178598554]",True,239.93485690000034,242.82270470000003,242.82270470000003,244.03205720000005,None,1,,3.505603229999906,4.518797130000166,None,1,None,1,0,,,,,,,,,,,,cwzopc,001,english,0,0,2022-07-20_11h23.46.854,Cluster,2022.1.1,32.32834216059683,
,,,,0,0,0,0,10,0,10,0,,,frequency,,,,,,,,,,,,,,,,,,,,,,,,,,,,,,,,,,,,,,,,,,,,,,,,,,,,,,,,,,,,,,,,,,,,,,,,,,,,,,,,,,,,,,,,,,,,,,,,,,,,,,,,,,,,,,,,,,,244.47759229999974,None,3655.3721763944154,1.2974970514784936,9.043982773426957e-05,1,"[0.5434346244575522, 0.4374464945844578, 0.6954679145189324, 0.5680836963035434]","[2302.74017511968, 2584.73845368912, 2901.270819071891, 3256.566386275647]",Tone,"[8.474073316090154, 7.357996047207937, 7.262032003682652, 7.4017923300165425]",False,245.47977509999964,248.18393300000025,248.18393300000025,249.40404899999976,['space'],1,[0.1746472999998332],3.29811072999928,4.3223600299998,None,1,None,1,,,,,,,,,,,,,cwzopc,001,english,0,0,2022-07-20_11h23.46.854,Cluster,2022.1.1,32.32834216059683,
,,,,0,0,0,0,11,0,11,0,,,time,,,,,,,,,,,,,,,,,,,,,,,,,,,,,,,,,,,,,,,,,,,,,,,,,,,,,,,,,,,,,,,,,,,,,,,,,,,,,,,,,,,,,,,,,,,,,,,,,,,,,,,,,,,,,,,,,,,249.8412029000001,None,176.7766952966369,-1.0,0.0003119565241000184,1,"[0.794412944534188, 0.794412944534188, 0.794412944534188, 0.794412944534188]","[208.392399381216, 220.26622756105706, 132.41367271433336, 916.2326325873186]",None,"[13.140492597983389, 13.565784481606322, 9.452158704192678, 11.810490103672866]",False,250.85888840000007,254.2766928000001,254.2766928000001,255.48372480000035,['space'],1,[0.3498412999992979],4.222147529999347,5.2375003299994205,None,1,None,1,,,,,,,,,,,,,cwzopc,001,english,0,0,2022-07-20_11h23.46.854,Cluster,2022.1.1,32.32834216059683,
,,,,0,0,0,0,12,0,12,0,,,both,,,,,,,,,,,,,,,,,,,,,,,,,,,,,,,,,,,,,,,,,,,,,,,,,,,,,,,,,,,,,,,,,,,,,,,,,,,,,,,,,,,,,,,,,,,,,,,,,,,,,,,,,,,,,,,,,,,256.13050680000015,None,1217.1795180690908,9.663953319519575,0.000161655358930102,1,"[0.45028428175857166, 0.45028428175857166, 0.45028428175857166, 0.45028428175857166]","[3067.1001926322892, 2434.3590361381816, 1932.1520474170209, 1533.5500963161446]",Major_3rd,"[7.317684178598554, 7.729781002044465, 12.0, 16.27248937200469]",False,257.13092789999973,259.5016588999997,259.5016588999997,260.7345077,['space'],1,[0.36855160000004616],2.839294229999723,3.860752229999889,None,1,None,1,,,,,,,,,,,,,cwzopc,001,english,0,0,2022-07-20_11h23.46.854,Cluster,2022.1.1,32.32834216059683,
,,,,0,0,0,0,13,0,13,0,,,time,,,,,,,,,,,,,,,,,,,,,,,,,,,,,,,,,,,,,,,,,,,,,,,,,,,,,,,,,,,,,,,,,,,,,,,,,,,,,,,,,,,,,,,,,,,,,,,,,,,,,,,,,,,,,,,,,,,261.0260672000004,None,4828.842334509792,-1.0,0.0001256391155140247,1,"[0.43571359084048383, 0.43571359084048383, 0.43571359084048383, 0.43571359084048383]","[188.573337018659, 4486.837305488175, 362.42765236222715, 196.10903755255308]",None,"[12.566600393381808, 6.0, 12.413360172591144, 13.0]",False,262.02311310000005,264.3709009000004,264.3709009000004,265.6071883000004,['space'],1,[0.4019526999995833],2.772964929999034,3.8046594299985372,None,1,None,1,,,,,,,,,,,,,cwzopc,001,english,0,0,2022-07-20_11h23.46.854,Cluster,2022.1.1,32.32834216059683,
,,,,0,0,0,0,14,0,14,0,,,time,,,,,,,,,,,,,,,,,,,,,,,,,,,,,,,,,,,,,,,,,,,,,,,,,,,,,,,,,,,,,,,,,,,,,,,,,,,,,,,,,,,,,,,,,,,,,,,,,,,,,,,,,,,,,,,,,,,265.8633264,None,,,,,"[0.42951589403480217, 0.42951589403480217, 0.42951589403480217, 0.42951589403480217]","[749.292766973076, 351.1605776752077, 2024.8795903987639, 2077.4844010096854]",None,"[9.457909470134442, 12.413360172591144, 11.0, 10.0]",True,266.8723441000002,269.1923889999998,269.1923889999998,270.40060859999994,None,1,,2.7709682299991982,3.77827182999863,None,1,None,1,0,,,,,,,,,,,,cwzopc,001,english,0,0,2022-07-20_11h23.46.854,Cluster,2022.1.1,32.32834216059683,
,,,,0,0,0,0,15,0,15,0,,,frequency,,,,,,,,,,,,,,,,,,,,,,,,,,,,,,,,,,,,,,,,,,,,,,,,,,,,,,,,,,,,,,,,,,,,,,,,,,,,,,,,,,,,,,,,,,,,,,,,,,,,,,,,,,,,,,,,,,,270.6754925000005,None,1414.213562373095,10.0,0.00015948106227772936,1,"[0.7195374086515478, 0.5260385547355827, 0.5118256169276184, 0.6662974915928355]","[561.2310241546867, 707.1067811865478, 890.8987181403395, 1122.4620483093731]",Major_3rd,"[8.287388138157038, 8.86680171705992, 11.0, 14.764429412170614]",False,271.7590153000001,274.53544899999997,274.53544899999997,275.76977140000054,['space'],1,[0.2618655999999646],3.456319810000423,4.473428010000134,None,1,None,1,,,,,,,,,,,,,cwzopc,001,english,0,0,2022-07-20_11h23.46.854,Cluster,2022.1.1,32.32834216059683,
,,,,0,0,0,0,16,0,16,0,,,both,,,,,,,,,,,,,,,,,,,,,,,,,,,,,,,,,,,,,,,,,,,,,,,,,,,,,,,,,,,,,,,,,,,,,,,,,,,,,,,,,,,,,,,,,,,,,,,,,,,,,,,,,,,,,,,,,,,276.2927405999999,None,353.5533905932738,-1.0,7.897582242723967e-05,1,"[0.4766564492930868, 0.4766564492930868, 0.4766564492930868, 0.4766564492930868]","[890.8987181403395, 707.1067811865477, 561.2310241546866, 445.4493590701697]",Major_3rd,"[11.0, 8.86680171705992, 8.287388138157038, 10.0]",False,277.3019940000004,279.7666798,279.7666798,281.0017219000001,['space'],1,[0.3357951000002686],2.949139429999377,3.973366530000021,None,1,None,1,,,,,,,,,,,,,cwzopc,001,english,0,0,2022-07-20_11h23.46.854,Cluster,2022.1.1,32.32834216059683,
,,,,0,0,0,0,17,0,17,0,,,none,,,,,,,,,,,,,,,,,,,,,,,,,,,,,,,,,,,,,,,,,,,,,,,,,,,,,,,,,,,,,,,,,,,,,,,,,,,,,,,,,,,,,,,,,,,,,,,,,,,,,,,,,,,,,,,,,,,281.3176150999998,None,176.7766952966369,-1.0,0.0003119565241000184,1,"[0.5284538921213499, 0.4244878220240065, 0.6847420519370002, 0.7808555799049558]","[452.3596431841172, 316.46247877775295, 193.72976657790807, 737.6834979216494]",None,"[10.0, 13.0, 12.566600393381808, 9.0]",False,282.3230143999999,284.98762309999984,284.98762309999984,286.1931873000003,['space'],1,[0.3342056999995293],3.4644635299982838,4.477031029998216,None,1,None,1,,,,,,,,,,,,,cwzopc,001,english,0,0,2022-07-20_11h23.46.854,Cluster,2022.1.1,32.32834216059683,
,,,,0,0,0,0,18,0,18,0,,,none,,,,,,,,,,,,,,,,,,,,,,,,,,,,,,,,,,,,,,,,,,,,,,,,,,,,,,,,,,,,,,,,,,,,,,,,,,,,,,,,,,,,,,,,,,,,,,,,,,,,,,,,,,,,,,,,,,,286.8444668000002,None,3939.062196172734,1.0,9.298222180348767e-05,1,"[0.5732348147798496, 0.47794912917680993, 0.4109795779683646, 0.7306296267125321]","[1387.8121564613614, 889.4174332746628, 6658.345288689877, 249.40318244914496]",None,"[16.545527686064084, 11.0, -2.0, 13.899582780124295]",False,287.84895460000007,290.34486600000037,290.34486600000037,291.5795927999998,['space'],1,[0.3600939000002654],3.2470209299999624,4.2535974299999,None,1,None,1,,,,,,,,,,,,,cwzopc,001,english,0,0,2022-07-20_11h23.46.854,Cluster,2022.1.1,32.32834216059683,
,,,,0,0,0,0,19,0,19,0,,,time,,,,,,,,,,,,,,,,,,,,,,,,,,,,,,,,,,,,,,,,,,,,,,,,,,,,,,,,,,,,,,,,,,,,,,,,,,,,,,,,,,,,,,,,,,,,,,,,,,,,,,,,,,,,,,,,,,,292.1412870000004,None,,,,,"[0.7537895690198265, 0.7537895690198265, 0.7537895690198265, 0.7537895690198265]","[1997.2828170549678, 517.7646128285908, 482.5414315214654, 3304.8717751645268]",None,"[11.053922163742934, 9.0, 9.745531665775763, 7.4017923300165425]",True,293.1426065000005,296.4456418999998,296.4456418999998,297.6548856999998,None,1,,4.0561548299992864,5.071982129999014,None,1,None,1,0,,,,,,,,,,,,cwzopc,001,english,0,0,2022-07-20_11h23.46.854,Cluster,2022.1.1,32.32834216059683,
,,,,1,0,1,0,0,0,0,0,,,both,,,,,,,,,,,,,,,,,,,,,,,,,,,,,,,,,,,,,,,,,,,,,,,,,,,,,,,,,,,,,,,,,,,,,,,,,,,,,,,,,,,,,,,,,,,,,,,,,,,,,,,,,,,,,,,,,,,331.4330695999997,None,157.13944485779237,4.518628407903087,0.0007345198458097989,1,"[0.7991186519470934, 0.7991186519470934, 0.7991186519470934, 0.7991186519470934]","[249.44332007295853, 222.22873410166912, 197.98329434512732, 176.3830631452754]",Tone,"[13.899582780124295, 13.565784481606322, 13.0, 11.89549327517948]",False,332.4336264000003,335.8610625000001,335.8610625000001,337.0610035999998,['space'],1,[0.21104270000023462],4.251090329998988,5.2737451299990425,None,1,None,1,,,,,,,,,,,,,cwzopc,001,english,0,0,2022-07-20_11h23.46.854,Cluster,2022.1.1,32.32834216059683,
,,,,1,0,1,0,1,0,1,0,,,none,,,,,,,,,,,,,,,,,,,,,,,,,,,,,,,,,,,,,,,,,,,,,,,,,,,,,,,,,,,,,,,,,,,,,,,,,,,,,,,,,,,,,,,,,,,,,,,,,,,,,,,,,,,,,,,,,,,337.7371642999997,None,353.5533905932738,-1.0,7.897582242723967e-05,1,"[0.7710359219228315, 0.4260088888269951, 0.5801477069107717, 0.6221293628408064]","[2706.736587868601, 983.5500131435875, 343.3293287506649, 234.51208287793966]",None,"[7.357996047207937, 12.753732655716997, 12.413360172591144, 13.818573845899522]",False,338.7538390999998,341.55298610000045,341.55298610000045,342.77926709999974,['space'],1,[0.3627116999991813],3.419097329999204,4.438784829999349,None,1,None,1,,,,,,,,,,,,,cwzopc,001,english,0,0,2022-07-20_11h23.46.854,Cluster,2022.1.1,32.32834216059683,
,,,,1,0,1,0,2,0,2,0,,,time,,,,,,,,,,,,,,,,,,,,,,,,,,,,,,,,,,,,,,,,,,,,,,,,,,,,,,,,,,,,,,,,,,,,,,,,,,,,,,,,,,,,,,,,,,,,,,,,,,,,,,,,,,,,,,,,,,,343.2325658,None,353.5533905932738,-1.0,7.897582242723967e-05,1,"[0.5144171542412135, 0.5144171542412135, 0.5144171542412135, 0.5144171542412135]","[1717.0099624131353, 792.988882036396, 465.5656046189981, 3240.0052397013114]",None,"[14.20069527069938, 10.0, 9.745531665775763, 7.4017923300165425]",False,344.2472641000004,346.81371450000006,346.81371450000006,348.0276163999997,['space'],1,[0.48316859999931694],3.0774739299986322,4.080790029998752,None,1,None,1,,,,,,,,,,,,,cwzopc,001,english,0,0,2022-07-20_11h23.46.854,Cluster,2022.1.1,32.32834216059683,
,,,,1,0,1,0,3,0,3,0,,,both,,,,,,,,,,,,,,,,,,,,,,,,,,,,,,,,,,,,,,,,,,,,,,,,,,,,,,,,,,,,,,,,,,,,,,,,,,,,,,,,,,,,,,,,,,,,,,,,,,,,,,,,,,,,,,,,,,,348.3791873,None,2639.015821545789,0.0,7.725655650415703e-05,1,"[0.5053089433644996, 0.5053089433644996, 0.5053089433644996, 0.5053089433644996]","[6649.903169142305, 5278.031643091579, 4189.176491282508, 3324.951584571152]",Major_3rd,"[-2.0, 3.424138538578352, 6.4937651097128235, 7.4017923300165425]",False,349.4171864,351.9816900000005,351.9816900000005,353.21045950000007,['space'],1,[0.31013990000019476],3.041184529999555,4.061547429999337,None,1,None,1,,,,,,,,,,,,,cwzopc,001,english,0,0,2022-07-20_11h23.46.854,Cluster,2022.1.1,32.32834216059683,
,,,,1,0,1,0,4,0,4,0,,,frequency,,,,,,,,,,,,,,,,,,,,,,,,,,,,,,,,,,,,,,,,,,,,,,,,,,,,,,,,,,,,,,,,,,,,,,,,,,,,,,,,,,,,,,,,,,,,,,,,,,,,,,,,,,,,,,,,,,,353.53623359999983,None,5611.524475171651,-4.0,8.214766907445893e-05,0,"[0.5864094021020789, 0.7956652182285712, 0.5107214206161288, 0.7701500164879118]","[3535.038904134521, 3967.947009188156, 4453.869927516388, 4999.2999617435635]",Tone,"[7.416849728278493, 7.0, 6.0, 4.7303033788973785]",False,354.5389925999998,357.4679339000004,357.4679339000004,358.66934969999966,None,0,,3.7001204300004247,4.714656430000105,None,1,None,1,,,,,,,,,,,,,cwzopc,001,english,0,0,2022-07-20_11h23.46.854,Cluster,2022.1.1,32.32834216059683,
,,,,1,0,1,0,5,0,5,0,,,frequency,,,,,,,,,,,,,,,,,,,,,,,,,,,,,,,,,,,,,,,,,,,,,,,,,,,,,,,,,,,,,,,,,,,,,,,,,,,,,,,,,,,,,,,,,,,,,,,,,,,,,,,,,,,,,,,,,,,359.28471510000054,None,,,,,"[0.47822312057503913, 0.49006421231132785, 0.5903893828606764, 0.40888533642636493]","[511.5685474692373, 406.0322252032555, 322.2679907103183, 255.7842737346186]",Major_3rd,"[9.0, 11.179917103400358, 13.0, 13.899582780124295]",True,360.2952025000004,362.8738312000005,362.8738312000005,364.09915360000014,None,1,,2.980527940000684,3.9989319400001477,None,1,None,1,0,,,,,,,,,,,,cwzopc,001,english,0,0,2022-07-20_11h23.46.854,Cluster,2022.1.1,32.32834216059683,
,,,,1,0,1,0,6,0,6,0,,,none,,,,,,,,,,,,,,,,,,,,,,,,,,,,,,,,,,,,,,,,,,,,,,,,,,,,,,,,,,,,,,,,,,,,,,,,,,,,,,,,,,,,,,,,,,,,,,,,,,,,,,,,,,,,,,,,,,,364.3504518999998,None,182.37329255444064,5.999999999999999,0.0006577148681642176,1,"[0.49182703180993825, 0.585513966515729, 0.4088039230545717, 0.6394175956938315]","[995.3854899391392, 396.22942865228225, 5284.432567849289, 281.8481474289147]",None,"[12.753732655716997, 11.179917103400358, 3.424138538578352, 13.618319380339361]",False,365.3661732999999,367.88300359999994,367.88300359999994,369.1155848999997,['space'],1,[0.3713637000005292],3.1639252300001317,4.178914830000394,None,1,None,1,,,,,,,,,,,,,cwzopc,001,english,0,0,2022-07-20_11h23.46.854,Cluster,2022.1.1,32.32834216059683,
,,,,1,0,1,0,7,0,7,0,,,frequency,,,,,,,,,,,,,,,,,,,,,,,,,,,,,,,,,,,,,,,,,,,,,,,,,,,,,,,,,,,,,,,,,,,,,,,,,,,,,,,,,,,,,,,,,,,,,,,,,,,,,,,,,,,,,,,,,,,369.59125010000025,None,8000.0,-10.0,5.740768107484415e-05,1,"[0.4742480533038368, 0.7288602584231666, 0.6189131367732618, 0.4386703198162758]","[3174.8021039364003, 4000.0000000000014, 5039.684199579494, 6349.604207872799]",Major_3rd,"[7.4017923300165425, 6.998383765704977, 4.0, -1.0]",False,370.6171181999998,373.4867025000003,373.4867025000003,374.7211949000002,['space'],1,[0.27784099999962564],3.297935330000655,4.311071730000549,None,1,None,1,,,,,,,,,,,,,cwzopc,001,english,0,0,2022-07-20_11h23.46.854,Cluster,2022.1.1,32.32834216059683,
,,,,1,0,1,0,8,0,8,0,,,none,,,,,,,,,,,,,,,,,,,,,,,,,,,,,,,,,,,,,,,,,,,,,,,,,,,,,,,,,,,,,,,,,,,,,,,,,,,,,,,,,,,,,,,,,,,,,,,,,,,,,,,,,,,,,,,,,,,374.9705063000001,None,1414.213562373095,10.0,0.00015948106227772936,1,"[0.6105207654072062, 0.5196254099996089, 0.46015264244866216, 0.4757452359555969]","[974.9552297801806, 1134.8294112074495, 7876.749070768019, 2746.7454684787285]",None,"[12.753732655716997, 14.764429412170614, -6.0, 7.262032003682652]",False,375.9971059999998,378.6247586999998,378.6247586999998,379.8473697999998,['space'],1,[0.3129820999997719],3.1036814299995967,4.12776962999942,None,1,None,1,,,,,,,,,,,,,cwzopc,001,english,0,0,2022-07-20_11h23.46.854,Cluster,2022.1.1,32.32834216059683,
,,,,1,0,1,0,9,0,9,0,,,time,,,,,,,,,,,,,,,,,,,,,,,,,,,,,,,,,,,,,,,,,,,,,,,,,,,,,,,,,,,,,,,,,,,,,,,,,,,,,,,,,,,,,,,,,,,,,,,,,,,,,,,,,,,,,,,,,,,380.1827943999997,None,,,,,"[0.7667033051565163, 0.7667033051565163, 0.7667033051565163, 0.7667033051565163]","[5717.686739385703, 6928.293717020231, 2651.517335461677, 1993.247038076845]",None,"[1.8335357558189784, -3.630994879265149, 7.357996047207937, 11.053922163742934]",True,381.1980030000004,384.51951850000023,384.51951850000023,385.7335763000001,None,1,,4.1065450299993245,5.1412882300001,None,1,None,1,0,,,,,,,,,,,,cwzopc,001,english,0,0,2022-07-20_11h23.46.854,Cluster,2022.1.1,32.32834216059683,
,,,,1,0,1,0,10,0,10,0,,,time,,,,,,,,,,,,,,,,,,,,,,,,,,,,,,,,,,,,,,,,,,,,,,,,,,,,,,,,,,,,,,,,,,,,,,,,,,,,,,,,,,,,,,,,,,,,,,,,,,,,,,,,,,,,,,,,,,,386.3630081000001,None,6542.660170408685,-8.0,5.468542852576344e-05,0,"[0.6163754510556703, 0.6163754510556703, 0.6163754510556703, 0.6163754510556703]","[804.3473669176548, 569.0582877567938, 317.45092742942626, 194.97757701806083]",None,"[10.0, 8.287388138157038, 13.0, 13.0]",False,387.37477560000025,390.25911280000037,390.25911280000037,391.4999966000005,None,0,,3.498331729999336,4.514671229999294,None,1,None,1,,,,,,,,,,,,,cwzopc,001,english,0,0,2022-07-20_11h23.46.854,Cluster,2022.1.1,32.32834216059683,
,,,,1,0,1,0,11,0,11,0,,,frequency,,,,,,,,,,,,,,,,,,,,,,,,,,,,,,,,,,,,,,,,,,,,,,,,,,,,,,,,,,,,,,,,,,,,,,,,,,,,,,,,,,,,,,,,,,,,,,,,,,,,,,,,,,,,,,,,,,,391.92679880000014,None,5571.41973316592,-4.0,8.308080162470325e-05,1,"[0.5662909405002436, 0.4428845188780567, 0.6365306206849531, 0.6423938182864115]","[1105.5096931729959, 1656.3929968368684, 2481.7853492496547, 3718.476552069624]",Perfect_5th,"[14.0, 15.0, 7.729781002044465, 7.297497051478493]",False,392.92567770000005,395.59233440000025,395.59233440000025,396.8130219000004,['space'],1,[0.41579910000064046],3.3477779299992108,4.377762529999018,None,1,None,1,,,,,,,,,,,,,cwzopc,001,english,0,0,2022-07-20_11h23.46.854,Cluster,2022.1.1,32.32834216059683,
,,,,1,0,1,0,12,0,12,0,,,none,,,,,,,,,,,,,,,,,,,,,,,,,,,,,,,,,,,,,,,,,,,,,,,,,,,,,,,,,,,,,,,,,,,,,,,,,,,,,,,,,,,,,,,,,,,,,,,,,,,,,,,,,,,,,,,,,,,397.3405478000004,None,5480.004890834683,-3.0,9.560470849142139e-05,1,"[0.6264434327105219, 0.7602972921821323, 0.7756834892225658, 0.711021726127773]","[140.7997799700278, 4082.3963357034295, 847.4078411928572, 187.05727700398415]",None,"[9.926484340641395, 6.998383765704977, 10.945713403216956, 12.566600393381808]",False,398.3566314999998,401.54851830000007,401.54851830000007,402.78325940000013,['space'],1,[0.41189619999977367],3.912792529999024,4.930951729998924,None,1,None,1,,,,,,,,,,,,,cwzopc,001,english,0,0,2022-07-20_11h23.46.854,Cluster,2022.1.1,32.32834216059683,
,,,,1,0,1,0,13,0,13,0,,,time,,,,,,,,,,,,,,,,,,,,,,,,,,,,,,,,,,,,,,,,,,,,,,,,,,,,,,,,,,,,,,,,,,,,,,,,,,,,,,,,,,,,,,,,,,,,,,,,,,,,,,,,,,,,,,,,,,,403.33090249999987,None,,,,,"[0.7568814096933384, 0.7568814096933384, 0.7568814096933384, 0.7568814096933384]","[6364.6189186776455, 4844.604097730296, 7145.272621832256, 291.0091303335941]",None,"[-1.0, 5.0, -4.0, 13.618319380339361]",True,404.34155400000054,407.6384783000003,407.6384783000003,408.8589784000005,None,1,,4.059169529999963,5.064969030000611,None,1,None,1,0,,,,,,,,,,,,cwzopc,001,english,0,0,2022-07-20_11h23.46.854,Cluster,2022.1.1,32.32834216059683,
,,,,1,0,1,0,14,0,14,0,,,frequency,,,,,,,,,,,,,,,,,,,,,,,,,,,,,,,,,,,,,,,,,,,,,,,,,,,,,,,,,,,,,,,,,,,,,,,,,,,,,,,,,,,,,,,,,,,,,,,,,,,,,,,,,,,,,,,,,,,409.44476099999974,None,203.0630990890589,-5.0,0.00014589441197552095,0,"[0.7648974457879715, 0.4564678949800811, 0.44003177840053687, 0.44468314897910854]","[127.92173649959686, 143.58729437462938, 161.1712885549474, 180.90865468004728]",Tone,"[9.102958615505726, 9.926484340641395, 11.0, 12.0]",False,410.5537854000004,413.24585670000033,413.24585670000033,414.4490705999997,None,0,,3.161792300000343,4.189727599999969,None,1,None,1,,,,,,,,,,,,,cwzopc,001,english,0,0,2022-07-20_11h23.46.854,Cluster,2022.1.1,32.32834216059683,
,,,,1,0,1,0,15,0,15,0,,,time,,,,,,,,,,,,,,,,,,,,,,,,,,,,,,,,,,,,,,,,,,,,,,,,,,,,,,,,,,,,,,,,,,,,,,,,,,,,,,,,,,,,,,,,,,,,,,,,,,,,,,,,,,,,,,,,,,,414.77546729999995,None,1414.213562373095,10.0,0.00015948106227772936,1,"[0.43511446277957616, 0.43511446277957616, 0.43511446277957616, 0.43511446277957616]","[1625.3518795189264, 218.11356753317156, 7471.006379903514, 136.56181992778633]",None,"[15.461311896220947, 13.565784481606322, -5.123307360784905, 9.452158704192678]",False,415.80311729999994,418.12956680000025,418.12956680000025,419.3482709,['space'],1,[0.3477539999998953],2.7763504299991837,3.7812383299997236,None,1,None,1,,,,,,,,,,,,,cwzopc,001,english,0,0,2022-07-20_11h23.46.854,Cluster,2022.1.1,32.32834216059683,
,,,,1,0,1,0,16,0,16,0,,,time,,,,,,,,,,,,,,,,,,,,,,,,,,,,,,,,,,,,,,,,,,,,,,,,,,,,,,,,,,,,,,,,,,,,,,,,,,,,,,,,,,,,,,,,,,,,,,,,,,,,,,,,,,,,,,,,,,,419.6282627999999,None,486.2935486815144,3.0940458950170058,0.00010301698896218449,1,"[0.5374531368688088, 0.5374531368688088, 0.5374531368688088, 0.5374531368688088]","[138.26631552711711, 5276.123884268808, 921.8427334439933, 728.3262797725188]",None,"[9.452158704192678, 3.424138538578352, 11.810490103672866, 9.0]",False,420.6253807000003,423.258519,423.258519,424.4747868000004,['space'],1,[0.47368869999945673],3.19609052999931,4.2148795299990525,None,1,None,1,,,,,,,,,,,,,cwzopc,001,english,0,0,2022-07-20_11h23.46.854,Cluster,2022.1.1,32.32834216059683,
,,,,1,0,1,0,17,0,17,0,,,none,,,,,,,,,,,,,,,,,,,,,,,,,,,,,,,,,,,,,,,,,,,,,,,,,,,,,,,,,,,,,,,,,,,,,,,,,,,,,,,,,,,,,,,,,,,,,,,,,,,,,,,,,,,,,,,,,,,424.87657579999996,None,,,,,"[0.611804543695742, 0.5441506355848444, 0.7770980424136757, 0.7175538359805218]","[1671.5373047209, 168.79515196008467, 424.8529763289128, 1957.8112602561291]",None,"[15.0, 11.19510911771042, 10.466518661113334, 12.0]",True,425.8897681999997,428.8673082000005,428.8673082000005,430.096818,None,1,,3.7127381300006164,4.724544030000288,None,1,None,1,0,,,,,,,,,,,,cwzopc,001,english,0,0,2022-07-20_11h23.46.854,Cluster,2022.1.1,32.32834216059683,
,,,,1,0,1,0,18,0,18,0,,,none,,,,,,,,,,,,,,,,,,,,,,,,,,,,,,,,,,,,,,,,,,,,,,,,,,,,,,,,,,,,,,,,,,,,,,,,,,,,,,,,,,,,,,,,,,,,,,,,,,,,,,,,,,,,,,,,,,,430.64277610000045,None,125.0,-4.0,0.00045600541967795504,0,"[0.5066495152177776, 0.7667665717804866, 0.4014337439522066, 0.7087215160535936]","[2747.299279302212, 1333.78200139575, 223.0734651474537, 1200.7692848822905]",None,"[7.262032003682652, 16.310816631830267, 13.565784481606322, 15.663953319519575]",False,431.6565977,434.37161190000006,434.37161190000006,435.6017987000005,None,0,,3.419808130000092,4.427842629999759,None,1,None,1,,,,,,,,,,,,,cwzopc,001,english,0,0,2022-07-20_11h23.46.854,Cluster,2022.1.1,32.32834216059683,
,,,,1,0,1,0,19,0,19,0,,,none,,,,,,,,,,,,,,,,,,,,,,,,,,,,,,,,,,,,,,,,,,,,,,,,,,,,,,,,,,,,,,,,,,,,,,,,,,,,,,,,,,,,,,,,,,,,,,,,,,,,,,,,,,,,,,,,,,,436.1348274000002,None,7084.019336188449,-10.0,4.8627441425912866e-05,0,"[0.5606588751896465, 0.5647552425683232, 0.5298532695623166, 0.5562217267095055]","[128.64779296239047, 175.23130720090586, 429.5617603187338, 1970.158068438758]",None,"[9.102958615505726, 11.89549327517948, 10.466518661113334, 11.053922163742934]",False,437.14239819999966,439.83310900000015,439.83310900000015,441.0541361000005,None,0,,3.258023129999856,4.29273633000048,None,1,None,1,,,,,,,,,,,,,cwzopc,001,english,0,0,2022-07-20_11h23.46.854,Cluster,2022.1.1,32.32834216059683,
,,,,2,0,2,0,0,0,0,0,,,time,,,,,,,,,,,,,,,,,,,,,,,,,,,,,,,,,,,,,,,,,,,,,,,,,,,,,,,,,,,,,,,,,,,,,,,,,,,,,,,,,,,,,,,,,,,,,,,,,,,,,,,,,,,,,,,,,,,458.69981430000007,None,125.0,-4.0,0.00045600541967795504,0,"[0.6706240267413808, 0.6706240267413808, 0.6706240267413808, 0.6706240267413808]","[843.6079245334361, 4017.0387383681973, 1308.2508829243563, 157.97636909766422]",None,"[10.945713403216956, 6.998383765704977, 16.310816631830267, 11.0]",False,459.7011543999997,462.7392126000004,462.7392126000004,463.9476190000005,None,0,,3.729206930000146,4.7387939299997015,None,1,None,1,,,,,,,,,,,,,cwzopc,001,english,0,0,2022-07-20_11h23.46.854,Cluster,2022.1.1,32.32834216059683,
,,,,2,0,2,0,1,0,1,0,,,frequency,,,,,,,,,,,,,,,,,,,,,,,,,,,,,,,,,,,,,,,,,,,,,,,,,,,,,,,,,,,,,,,,,,,,,,,,,,,,,,,,,,,,,,,,,,,,,,,,,,,,,,,,,,,,,,,,,,,464.4987437,None,2498.969129679555,1.7297810020444646,0.00010479570882777726,1,"[0.7085737945906071, 0.6481665682376666, 0.658339714991159, 0.40263417222363385]","[6297.007619041485, 4997.93825935911, 3966.8662252893814, 3148.5038095207424]",Major_3rd,"[-1.0, 4.7303033788973785, 7.0, 7.4017923300165425]",False,465.49438290000035,468.5450885999999,468.5450885999999,469.75463860000036,['space'],1,[0.4020090999997592],3.4700776299996505,4.501660129999436,None,1,None,1,,,,,,,,,,,,,cwzopc,001,english,0,0,2022-07-20_11h23.46.854,Cluster,2022.1.1,32.32834216059683,
,,,,2,0,2,0,2,0,2,0,,,frequency,,,,,,,,,,,,,,,,,,,,,,,,,,,,,,,,,,,,,,,,,,,,,,,,,,,,,,,,,,,,,,,,,,,,,,,,,,,,,,,,,,,,,,,,,,,,,,,,,,,,,,,,,,,,,,,,,,,470.0282679000002,None,307.7861033362292,-5.0,5.975641567313955e-05,0,"[0.7561913166570274, 0.7084868870206269, 0.688705468390146, 0.7356247931280131]","[488.57998421712324, 435.2752816480623, 387.78619045843385, 345.4782199919442]",Tone,"[9.094045895017006, 10.466518661113334, 11.833242802693402, 12.413360172591144]",False,472.5635430000002,475.73226260000047,475.73226260000047,476.94199000000026,None,0,,3.9230484500003513,4.944460450000406,None,1,None,1,,,,,,,,,,,,,cwzopc,001,english,0,0,2022-07-20_11h23.46.854,Cluster,2022.1.1,32.32834216059683,
,,,,2,0,2,0,3,0,3,0,,,both,,,,,,,,,,,,,,,,,,,,,,,,,,,,,,,,,,,,,,,,,,,,,,,,,,,,,,,,,,,,,,,,,,,,,,,,,,,,,,,,,,,,,,,,,,,,,,,,,,,,,,,,,,,,,,,,,,,477.5482972,None,,,,,"[0.43114542818289486, 0.43114542818289486, 0.43114542818289486, 0.43114542818289486]","[1204.8070490778132, 956.2559885624114, 758.9808810974312, 602.4035245389066]",Major_3rd,"[15.663953319519575, 12.0, 9.457909470134442, 8.241478389069105]",True,478.5555605999998,480.8828160000003,480.8828160000003,482.10401530000036,None,1,,2.7653474300004746,3.7899134300005244,None,1,None,1,0,,,,,,,,,,,,cwzopc,001,english,0,0,2022-07-20_11h23.46.854,Cluster,2022.1.1,32.32834216059683,
,,,,2,0,2,0,4,0,4,0,,,none,,,,,,,,,,,,,,,,,,,,,,,,,,,,,,,,,,,,,,,,,,,,,,,,,,,,,,,,,,,,,,,,,,,,,,,,,,,,,,,,,,,,,,,,,,,,,,,,,,,,,,,,,,,,,,,,,,,482.3666393000003,None,870.5505632961246,2.0,5.082691253078812e-05,1,"[0.43409766631769225, 0.4511345107103595, 0.4277303893857043, 0.4374890963657436]","[1789.8741871778127, 5637.994424342622, 214.24213367376072, 3563.8442006616956]",None,"[14.0, 1.8335357558189784, 13.565784481606322, 7.416849728278493]",False,483.3828953000002,485.7094710000001,485.7094710000001,486.9350973999999,['space'],1,[0.5768399000003228],2.7733890299996347,3.8039636299999984,None,1,None,1,,,,,,,,,,,,,cwzopc,001,english,0,0,2022-07-20_11h23.46.854,Cluster,2022.1.1,32.32834216059683,
,,,,2,0,2,0,5,0,5,0,,,none,,,,,,,,,,,,,,,,,,,,,,,,,,,,,,,,,,,,,,,,,,,,,,,,,,,,,,,,,,,,,,,,,,,,,,,,,,,,,,,,,,,,,,,,,,,,,,,,,,,,,,,,,,,,,,,,,,,487.2244504,None,127.734302759996,3.1029586155057256,0.0009982464882942591,1,"[0.5170317511106038, 0.7860934266458722, 0.5534918926306256, 0.6525182883841291]","[260.2672408967582, 3604.8156551840393, 4916.182963017551, 720.3358143980705]",None,"[13.823623790394164, 7.416849728278493, 4.7303033788973785, 9.0]",False,488.2228144999999,491.10960520000026,491.10960520000026,492.3367997000005,['space'],1,[0.2873239999994439],3.5531164300000455,4.569955930000106,None,1,None,1,,,,,,,,,,,,,cwzopc,001,english,0,0,2022-07-20_11h23.46.854,Cluster,2022.1.1,32.32834216059683,
,,,,2,0,2,0,6,0,6,0,,,none,,,,,,,,,,,,,,,,,,,,,,,,,,,,,,,,,,,,,,,,,,,,,,,,,,,,,,,,,,,,,,,,,,,,,,,,,,,,,,,,,,,,,,,,,,,,,,,,,,,,,,,,,,,,,,,,,,,492.82136640000044,None,435.2752816480623,-5.0,4.203609419229965e-05,0,"[0.5580093389885479, 0.7592895817187196, 0.7397154184738, 0.5898900011255735]","[5084.695254184613, 2720.4481130125882, 1391.3470077504767, 2039.384192385195]",None,"[4.0, 7.357996047207937, 16.545527686064084, 11.0]",False,494.9879169000005,498.08818619999965,498.08818619999965,499.30278569999973,None,0,,3.671160570000211,4.685641770000075,None,1,None,1,,,,,,,,,,,,,cwzopc,001,english,0,0,2022-07-20_11h23.46.854,Cluster,2022.1.1,32.32834216059683,
,,,,2,0,2,0,7,0,7,0,,,none,,,,,,,,,,,,,,,,,,,,,,,,,,,,,,,,,,,,,,,,,,,,,,,,,,,,,,,,,,,,,,,,,,,,,,,,,,,,,,,,,,,,,,,,,,,,,,,,,,,,,,,,,,,,,,,,,,,499.71574409999994,None,,,,,"[0.7986180263881928, 0.6196741836900096, 0.41598397636919615, 0.6968083399629144]","[363.3187619299839, 5874.992478611131, 486.52145787321746, 4200.535613702709]",None,"[12.0, 1.0, 9.094045895017006, 6.4937651097128235]",True,500.7181225000004,503.5671576000004,503.5671576000004,504.79931209999995,['space'],0,[0.20538989999977275],3.581507829999282,4.601818829999502,None,1,None,1,0,,,,,,,,,,,,cwzopc,001,english,0,0,2022-07-20_11h23.46.854,Cluster,2022.1.1,32.32834216059683,
,,,,2,0,2,0,8,0,8,0,,,frequency,,,,,,,,,,,,,,,,,,,,,,,,,,,,,,,,,,,,,,,,,,,,,,,,,,,,,,,,,,,,,,,,,,,,,,,,,,,,,,,,,,,,,,,,,,,,,,,,,,,,,,,,,,,,,,,,,,,505.34564969999974,None,480.74913788463465,3.745531665775763,0.00011147698172376846,1,"[0.5486028205269686, 0.7503524169840508, 0.4948700191015846, 0.6876193000570039]","[2422.8238341586566, 1617.0409067340122, 1079.2453240659045, 720.3098354949117]",Perfect_5th,"[8.0, 15.461311896220947, 13.757857418103542, 9.0]",False,506.34895549999965,509.1745283,509.1745283,510.3956054999999,['space'],1,[0.41111550000050556],3.5173612300004606,4.534951530000399,None,1,None,1,,,,,,,,,,,,,cwzopc,001,english,0,0,2022-07-20_11h23.46.854,Cluster,2022.1.1,32.32834216059683,
,,,,2,0,2,0,9,0,9,0,,,both,,,,,,,,,,,,,,,,,,,,,,,,,,,,,,,,,,,,,,,,,,,,,,,,,,,,,,,,,,,,,,,,,,,,,,,,,,,,,,,,,,,,,,,,,,,,,,,,,,,,,,,,,,,,,,,,,,,510.92181059999984,None,377.70459209504367,5.833242802693403,0.00016117066004597488,0,"[0.5509565210363111, 0.5509565210363111, 0.5509565210363111, 0.5509565210363111]","[1903.5118648900088, 1270.4417500703548, 847.9181401977178, 565.9174633048242]",Perfect_5th,"[12.0, 16.0, 10.945713403216956, 8.287388138157038]",False,511.9256286,514.6158402000001,514.6158402000001,515.8316149000002,None,0,,3.2512711299996226,4.270503429998826,None,1,None,1,,,,,,,,,,,,,cwzopc,001,english,0,0,2022-07-20_11h23.46.854,Cluster,2022.1.1,32.32834216059683,
,,,,2,0,2,0,10,0,10,0,,,none,,,,,,,,,,,,,,,,,,,,,,,,,,,,,,,,,,,,,,,,,,,,,,,,,,,,,,,,,,,,,,,,,,,,,,,,,,,,,,,,,,,,,,,,,,,,,,,,,,,,,,,,,,,,,,,,,,,516.2266264,None,1238.3383621985042,9.663953319519575,0.0001643478086871178,0,"[0.6607122284286822, 0.6957219337675082, 0.6838445014365135, 0.7577075319906319]","[5413.811331532094, 2736.571328513412, 194.06862632811007, 5897.00689362409]",None,"[3.0, 7.262032003682652, 12.566600393381808, 1.0]",False,517.2289019999998,520.2989060999998,520.2989060999998,521.5142906000001,None,0,,3.8436099299997295,4.874694029999773,None,1,None,1,,,,,,,,,,,,,cwzopc,001,english,0,0,2022-07-20_11h23.46.854,Cluster,2022.1.1,32.32834216059683,
,,,,2,0,2,0,11,0,11,0,,,none,,,,,,,,,,,,,,,,,,,,,,,,,,,,,,,,,,,,,,,,,,,,,,,,,,,,,,,,,,,,,,,,,,,,,,,,,,,,,,,,,,,,,,,,,,,,,,,,,,,,,,,,,,,,,,,,,,,522.1379572000005,None,233.2582478842019,-5.0,0.00011262740412183961,0,"[0.40539597608108285, 0.41060475994727275, 0.5753275672432219, 0.46877679091180197]","[284.1257504973857, 254.7439522592956, 7929.376678288001, 1907.2694336928332]",None,"[13.618319380339361, 13.899582780124295, -6.0, 12.0]",False,523.7759186000003,526.1818307000003,526.1818307000003,527.4043821000005,None,0,,2.8940545299992664,3.920343729999331,None,1,None,1,,,,,,,,,,,,,cwzopc,001,english,0,0,2022-07-20_11h23.46.854,Cluster,2022.1.1,32.32834216059683,
,,,,2,0,2,0,12,0,12,0,,,frequency,,,,,,,,,,,,,,,,,,,,,,,,,,,,,,,,,,,,,,,,,,,,,,,,,,,,,,,,,,,,,,,,,,,,,,,,,,,,,,,,,,,,,,,,,,,,,,,,,,,,,,,,,,,,,,,,,,,527.7347853000001,None,870.5505632961246,2.0,5.082691253078812e-05,1,"[0.6395585191113186, 0.7549443212975687, 0.48175305431911064, 0.6998944673227632]","[548.4124898473132, 615.5722066724584, 690.9564399838883, 775.5723809168677]",Tone,"[8.582694964616035, 8.241478389069105, 8.86680171705992, 9.457909470134442]",False,528.7661742,531.6577244999999,531.6577244999999,532.8769455000001,['space'],1,[0.3136076999994657],3.598760329999095,4.614940629999182,None,1,None,1,,,,,,,,,,,,,cwzopc,001,english,0,0,2022-07-20_11h23.46.854,Cluster,2022.1.1,32.32834216059683,
,,,,2,0,2,0,13,0,13,0,,,none,,,,,,,,,,,,,,,,,,,,,,,,,,,,,,,,,,,,,,,,,,,,,,,,,,,,,,,,,,,,,,,,,,,,,,,,,,,,,,,,,,,,,,,,,,,,,,,,,,,,,,,,,,,,,,,,,,,533.4198912000002,None,5755.853012167917,-5.0,7.022123464731639e-05,0,"[0.6005600080319218, 0.5672341902629459, 0.5282293642426518, 0.41329456766506145]","[361.6848210857087, 866.8032178150398, 2882.028067499224, 190.78817355286108]",None,"[12.413360172591144, 10.945713403216956, 7.262032003682652, 12.566600393381808]",False,534.4215881,537.1597640999998,537.1597640999998,538.3824308000003,None,0,,3.171003529999325,4.19853072999922,None,1,None,1,,,,,,,,,,,,,cwzopc,001,english,0,0,2022-07-20_11h23.46.854,Cluster,2022.1.1,32.32834216059683,
,,,,2,0,2,0,14,0,14,0,,,time,,,,,,,,,,,,,,,,,,,,,,,,,,,,,,,,,,,,,,,,,,,,,,,,,,,,,,,,,,,,,,,,,,,,,,,,,,,,,,,,,,,,,,,,,,,,,,,,,,,,,,,,,,,,,,,,,,,538.6565170000003,None,,,,,"[0.6325932263821614, 0.6325932263821614, 0.6325932263821614, 0.6325932263821614]","[152.59036918115046, 702.2943166011315, 584.673123227817, 1201.1816179727493]",None,"[10.518628407903087, 8.86680171705992, 8.287388138157038, 15.663953319519575]",True,539.6596861999997,542.5712289000003,542.5712289000003,543.7977572,None,1,,3.5723587299999053,4.598203429999558,None,1,None,1,0,,,,,,,,,,,,cwzopc,001,english,0,0,2022-07-20_11h23.46.854,Cluster,2022.1.1,32.32834216059683,
,,,,2,0,2,0,15,0,15,0,,,time,,,,,,,,,,,,,,,,,,,,,,,,,,,,,,,,,,,,,,,,,,,,,,,,,,,,,,,,,,,,,,,,,,,,,,,,,,,,,,,,,,,,,,,,,,,,,,,,,,,,,,,,,,,,,,,,,,,544.280546,None,6988.656669267223,-9.630994879265149,4.9784023959291524e-05,0,"[0.5141721614812057, 0.5141721614812057, 0.5141721614812057, 0.5141721614812057]","[190.5919680024399, 204.8101466037423, 5896.181249456087, 1953.2710614654889]",None,"[12.566600393381808, 13.140492597983389, 1.0, 12.0]",False,545.2825862,547.8417446000003,547.8417446000003,549.0610910000005,None,0,,3.0874516300000323,4.110370930000499,None,1,None,1,,,,,,,,,,,,,cwzopc,001,english,0,0,2022-07-20_11h23.46.854,Cluster,2022.1.1,32.32834216059683,
,,,,2,0,2,0,16,0,16,0,,,both,,,,,,,,,,,,,,,,,,,,,,,,,,,,,,,,,,,,,,,,,,,,,,,,,,,,,,,,,,,,,,,,,,,,,,,,,,,,,,,,,,,,,,,,,,,,,,,,,,,,,,,,,,,,,,,,,,,549.4278815999996,None,353.5533905932738,1.0,9.942466977099573e-05,1,"[0.7773854923864391, 0.7773854923864391, 0.7773854923864391, 0.7773854923864391]","[1781.7974362806788, 1189.2071150027211, 793.7005259840998, 529.7315471796477]",Perfect_5th,"[14.0, 15.0, 10.0, 8.582694964616035]",False,550.5159191000002,553.8784811000005,553.8784811000005,555.0951121999997,['space'],1,[0.8807382999998481],4.127439910000248,5.14234131000012,None,1,None,1,,,,,,,,,,,,,cwzopc,001,english,0,0,2022-07-20_11h23.46.854,Cluster,2022.1.1,32.32834216059683,
,,,,2,0,2,0,17,0,17,0,,,none,,,,,,,,,,,,,,,,,,,,,,,,,,,,,,,,,,,,,,,,,,,,,,,,,,,,,,,,,,,,,,,,,,,,,,,,,,,,,,,,,,,,,,,,,,,,,,,,,,,,,,,,,,,,,,,,,,,555.7024959,None,8000.0,-9.0,6.441247758465671e-05,1,"[0.6028806024713733, 0.6132322206371017, 0.6544111231143295, 0.6577941662837155]","[7861.7926972902615, 379.6095069019611, 363.1947008942472, 267.17135380544687]",None,"[-6.0, 11.833242802693402, 12.0, 13.823623790394164]",False,556.7241688000004,559.6364906999997,559.6364906999997,560.8436736000003,['space'],1,[0.20032729999957155],3.5618566299999657,4.563853829999971,None,1,None,1,,,,,,,,,,,,,cwzopc,001,english,0,0,2022-07-20_11h23.46.854,Cluster,2022.1.1,32.32834216059683,
,,,,2,0,2,0,18,0,18,0,,,frequency,,,,,,,,,,,,,,,,,,,,,,,,,,,,,,,,,,,,,,,,,,,,,,,,,,,,,,,,,,,,,,,,,,,,,,,,,,,,,,,,,,,,,,,,,,,,,,,,,,,,,,,,,,,,,,,,,,,561.3312606999998,None,,,,,"[0.616318393303942, 0.7996039790953694, 0.5246737435437546, 0.5555878540948752]","[795.7290683380082, 1002.5558032122925, 1263.1411601614293, 1591.458136676016]",Major_3rd,"[10.0, 12.753732655716997, 16.0, 15.461311896220947]",True,562.3331041000001,565.2958406999996,565.2958406999996,566.5165758000003,None,1,,3.5302821300001597,4.547132429999692,None,1,None,1,0,,,,,,,,,,,,cwzopc,001,english,0,0,2022-07-20_11h23.46.854,Cluster,2022.1.1,32.32834216059683,
,,,,2,0,2,0,19,0,19,0,,,time,,,,,,,,,,,,,,,,,,,,,,,,,,,,,,,,,,,,,,,,,,,,,,,,,,,,,,,,,,,,,,,,,,,,,,,,,,,,,,,,,,,,,,,,,,,,,,,,,,,,,,,,,,,,,,,,,,,566.9053245000005,None,870.5505632961246,2.0,5.082691253078812e-05,0,"[0.6214472842504126, 0.6214472842504126, 0.6214472842504126, 0.6214472842504126]","[666.101895426817, 2874.489851075207, 211.91432951067736, 5831.961592117836]",None,"[8.446569919492394, 7.262032003682652, 13.565784481606322, 1.0]",False,567.9245553000001,570.8098802000004,570.8098802000004,572.0363036999997,None,0,,3.5243373299999803,4.5490755299997545,None,1,None,1,,,,,,,,,,,,,cwzopc,001,english,0,0,2022-07-20_11h23.46.854,Cluster,2022.1.1,32.32834216059683,
,,,,3,0,3,0,0,0,0,0,,,frequency,,,,,,,,,,,,,,,,,,,,,,,,,,,,,,,,,,,,,,,,,,,,,,,,,,,,,,,,,,,,,,,,,,,,,,,,,,,,,,,,,,,,,,,,,,,,,,,,,,,,,,,,,,,,,,,,,,,575.5570918000003,None,308.0323137752639,7.308224635178409,0.0002458829583782406,1,"[0.49035761692314406, 0.5086825443770917, 0.6958954234982686, 0.5373966928391368]","[1552.38558469311, 1036.0930737437072, 691.5091637313164, 461.5269956361764]",Perfect_5th,"[16.0, 13.0, 8.86680171705992, 9.745531665775763]",False,576.5593736000001,579.2858886000004,579.2858886000004,580.5121464000003,['space'],1,[0.11070979999976771],3.2881176299997605,4.3206017299999075,None,1,None,1,,,,,,,,,,,,,cwzopc,001,english,0,0,2022-07-20_11h23.46.854,Cluster,2022.1.1,32.32834216059683,
,,,,3,0,3,0,1,0,1,0,,,frequency,,,,,,,,,,,,,,,,,,,,,,,,,,,,,,,,,,,,,,,,,,,,,,,,,,,,,,,,,,,,,,,,,,,,,,,,,,,,,,,,,,,,,,,,,,,,,,,,,,,,,,,,,,,,,,,,,,,580.9105606000003,None,125.0,-4.0,0.00045600541967795504,0,"[0.5654430788516324, 0.5123926678037737, 0.4413919318490851, 0.7485827173957256]","[629.9605249474366, 420.4482076268573, 280.6155120773433, 187.2883846095852]",Perfect_5th,"[8.241478389069105, 11.0, 13.618319380339361, 12.566600393381808]",False,583.0729319000002,585.6184916000002,585.6184916000002,586.8394767999998,None,0,,3.303322160000789,4.3157859600005395,None,1,None,1,,,,,,,,,,,,,cwzopc,001,english,0,0,2022-07-20_11h23.46.854,Cluster,2022.1.1,32.32834216059683,
,,,,3,0,3,0,2,0,2,0,,,time,,,,,,,,,,,,,,,,,,,,,,,,,,,,,,,,,,,,,,,,,,,,,,,,,,,,,,,,,,,,,,,,,,,,,,,,,,,,,,,,,,,,,,,,,,,,,,,,,,,,,,,,,,,,,,,,,,,587.4234846999998,None,,,,,"[0.7193948553556482, 0.7193948553556482, 0.7193948553556482, 0.7193948553556482]","[1181.9748079997441, 1411.4960394800476, 1200.414406204053, 1072.5118177490524]",None,"[15.0, 16.545527686064084, 15.663953319519575, 13.757857418103542]",True,588.4234857000001,591.6146403000002,591.6146403000002,592.8332957000002,None,1,,3.9135011299995313,4.929492929999469,None,1,None,1,0,,,,,,,,,,,,cwzopc,001,english,0,0,2022-07-20_11h23.46.854,Cluster,2022.1.1,32.32834216059683,
,,,,3,0,3,0,3,0,3,0,,,frequency,,,,,,,,,,,,,,,,,,,,,,,,,,,,,,,,,,,,,,,,,,,,,,,,,,,,,,,,,,,,,,,,,,,,,,,,,,,,,,,,,,,,,,,,,,,,,,,,,,,,,,,,,,,,,,,,,,,593.3802826000001,None,269.85916911618983,7.823623790394164,0.0003604557805583834,0,"[0.5536153903077828, 0.7578094896388203, 0.43804056815184333, 0.6815776693897153]","[680.0024953532562, 539.7183382323798, 428.37472893830403, 340.00124767662805]",Major_3rd,"[8.446569919492394, 8.582694964616035, 10.466518661113334, 12.900648495033222]",False,594.3827802000005,597.1722451000005,597.1722451000005,598.3960686,None,0,,3.4685300299997834,4.50547632999951,None,1,['space'],0,,[0.41000839999969685],,,,,,,,,,,cwzopc,001,english,0,0,2022-07-20_11h23.46.854,Cluster,2022.1.1,32.32834216059683,
,,,,3,0,3,0,4,0,4,0,,,both,,,,,,,,,,,,,,,,,,,,,,,,,,,,,,,,,,,,,,,,,,,,,,,,,,,,,,,,,,,,,,,,,,,,,,,,,,,,,,,,,,,,,,,,,,,,,,,,,,,,,,,,,,,,,,,,,,,598.9299054000003,None,1997.2361864224563,5.053922163742934,0.00013364141147134857,1,"[0.7150187604334961, 0.7150187604334961, 0.7150187604334961, 0.7150187604334961]","[1258.1799564427067, 1412.2592510504783, 1585.2074116779809, 1779.335158307266]",Tone,"[16.0, 16.545527686064084, 16.0, 14.0]",False,599.9324188999999,603.1113856000002,603.1113856000002,604.3231010999998,['space'],1,[0.19654289999971297],3.909767529999044,4.913024829998903,None,1,None,1,,,,,,,,,,,,,cwzopc,001,english,0,0,2022-07-20_11h23.46.854,Cluster,2022.1.1,32.32834216059683,
,,,,3,0,3,0,5,0,5,0,,,frequency,,,,,,,,,,,,,,,,,,,,,,,,,,,,,,,,,,,,,,,,,,,,,,,,,,,,,,,,,,,,,,,,,,,,,,,,,,,,,,,,,,,,,,,,,,,,,,,,,,,,,,,,,,,,,,,,,,,604.8807592000003,None,1741.101126592249,5.0,0.00011224801014638708,1,"[0.425768772913511, 0.740653611651282, 0.7952445786787978, 0.7180351131960505]","[4387.299918778506, 3482.2022531844987, 2763.825759935554, 2193.649959389253]",Major_3rd,"[6.4937651097128235, 7.416849728278493, 7.262032003682652, 9.0]",False,605.8972958000004,608.8981237999997,608.8981237999997,610.1178677999997,['space'],1,[0.4643762999999126],3.7120156300006784,4.731100430000879,None,1,None,1,,,,,,,,,,,,,cwzopc,001,english,0,0,2022-07-20_11h23.46.854,Cluster,2022.1.1,32.32834216059683,
,,,,3,0,3,0,6,0,6,0,,,time,,,,,,,,,,,,,,,,,,,,,,,,,,,,,,,,,,,,,,,,,,,,,,,,,,,,,,,,,,,,,,,,,,,,,,,,,,,,,,,,,,,,,,,,,,,,,,,,,,,,,,,,,,,,,,,,,,,610.6707040000001,None,725.9520603412395,3.0,6.038648081589677e-05,1,"[0.6570212333273706, 0.6570212333273706, 0.6570212333273706, 0.6570212333273706]","[198.18261798413633, 462.4198821274506, 1686.4658431851813, 353.8777883439482]",None,"[13.0, 9.745531665775763, 15.0, 12.413360172591144]",False,611.6676038000005,614.6758729000003,614.6758729000003,615.8948459000003,['space'],1,[0.4332495999992716],3.6655082300003414,4.682612930000687,None,1,None,1,,,,,,,,,,,,,cwzopc,001,english,0,0,2022-07-20_11h23.46.854,Cluster,2022.1.1,32.32834216059683,
,,,,3,0,3,0,7,0,7,0,,,time,,,,,,,,,,,,,,,,,,,,,,,,,,,,,,,,,,,,,,,,,,,,,,,,,,,,,,,,,,,,,,,,,,,,,,,,,,,,,,,,,,,,,,,,,,,,,,,,,,,,,,,,,,,,,,,,,,,616.3867516,None,,,,,"[0.5366524377917037, 0.5366524377917037, 0.5366524377917037, 0.5366524377917037]","[6920.526386484628, 872.083413259875, 391.47703529669474, 6673.209769539481]",None,"[-3.630994879265149, 10.945713403216956, 11.833242802693402, -3.0]",True,617.3893043999997,620.0130719999997,620.0130719999997,621.2335554000001,['space'],0,[0.4920414000002893],3.18997212999966,4.20997122999961,None,1,None,1,0,,,,,,,,,,,,cwzopc,001,english,0,0,2022-07-20_11h23.46.854,Cluster,2022.1.1,32.32834216059683,
,,,,3,0,3,0,8,0,8,0,,,frequency,,,,,,,,,,,,,,,,,,,,,,,,,,,,,,,,,,,,,,,,,,,,,,,,,,,,,,,,,,,,,,,,,,,,,,,,,,,,,,,,,,,,,,,,,,,,,,,,,,,,,,,,,,,,,,,,,,,621.6265086000003,None,660.0450146105978,2.446569919492394,6.431882207301935e-05,0,"[0.734105942298225, 0.4284835803134973, 0.7292472070438377, 0.6104079655533861]","[261.9390376348073, 330.02250730529903, 415.80230389303074, 523.8780752696143]",Major_3rd,"[13.823623790394164, 12.900648495033222, 11.0, 8.582694964616035]",False,622.6300713999999,625.5614741999998,625.5614741999998,626.7877558999999,None,0,,3.558208929999637,4.585008029999699,None,1,None,1,,,,,,,,,,,,,cwzopc,001,english,0,0,2022-07-20_11h23.46.854,Cluster,2022.1.1,32.32834216059683,
,,,,3,0,3,0,9,0,9,0,,,frequency,,,,,,,,,,,,,,,,,,,,,,,,,,,,,,,,,,,,,,,,,,,,,,,,,,,,,,,,,,,,,,,,,,,,,,,,,,,,,,,,,,,,,,,,,,,,,,,,,,,,,,,,,,,,,,,,,,,627.2481121999999,None,1231.1444133449168,7.0,0.00012026533010045022,1,"[0.7407689503495439, 0.770746900624507, 0.422899734846091, 0.46832792907495313]","[1954.319936868493, 1741.101126592249, 1551.1447618337354, 1381.9128799677767]",Tone,"[12.0, 14.20069527069938, 16.0, 16.545527686064084]",False,629.3352341,632.3096020000003,632.3096020000003,633.5348124000002,['space'],1,[0.43548130000044694],3.4210226900004272,4.445605990000331,None,1,None,1,,,,,,,,,,,,,cwzopc,001,english,0,0,2022-07-20_11h23.46.854,Cluster,2022.1.1,32.32834216059683,
,,,,3,0,3,0,10,0,10,0,,,none,,,,,,,,,,,,,,,,,,,,,,,,,,,,,,,,,,,,,,,,,,,,,,,,,,,,,,,,,,,,,,,,,,,,,,,,,,,,,,,,,,,,,,,,,,,,,,,,,,,,,,,,,,,,,,,,,,,633.8348220999997,None,189.65006190544653,6.566600393381808,0.0006456069557293052,1,"[0.6394259647161915, 0.6952303667132786, 0.604263737945038, 0.45428349568420634]","[363.2729331295203, 4119.116906594777, 2413.2317680599863, 139.77793524637343]",None,"[12.0, 6.998383765704977, 8.0, 9.926484340641395]",False,634.8310031999999,637.7978574999997,637.7978574999997,639.0142457000002,['space'],1,[0.26711199999999735],3.4302091300005486,4.453838030000952,None,1,None,1,,,,,,,,,,,,,cwzopc,001,english,0,0,2022-07-20_11h23.46.854,Cluster,2022.1.1,32.32834216059683,
,,,,3,0,3,0,11,0,11,0,,,none,,,,,,,,,,,,,,,,,,,,,,,,,,,,,,,,,,,,,,,,,,,,,,,,,,,,,,,,,,,,,,,,,,,,,,,,,,,,,,,,,,,,,,,,,,,,,,,,,,,,,,,,,,,,,,,,,,,639.3164121,None,,,,,"[0.7379288495919447, 0.4285617812132933, 0.5690014563489437, 0.7986693793569095]","[513.8192365391535, 833.3768865937863, 545.6636748580511, 169.61963360847642]",None,"[9.0, 10.161245385309872, 8.582694964616035, 11.19510911771042]",True,640.3153135000002,643.0908459000002,643.0908459000002,644.310246,None,1,,3.5652527299998837,4.58038513000065,None,1,None,1,0,,,,,,,,,,,,cwzopc,001,english,0,0,2022-07-20_11h23.46.854,Cluster,2022.1.1,32.32834216059683,
,,,,3,0,3,0,12,0,12,0,,,time,,,,,,,,,,,,,,,,,,,,,,,,,,,,,,,,,,,,,,,,,,,,,,,,,,,,,,,,,,,,,,,,,,,,,,,,,,,,,,,,,,,,,,,,,,,,,,,,,,,,,,,,,,,,,,,,,,,644.9217293000002,None,1741.101126592249,5.0,0.00011224801014638708,0,"[0.5534785567360628, 0.5534785567360628, 0.5534785567360628, 0.5534785567360628]","[2357.6637549642855, 190.295601288741, 1528.645841350406, 261.8861025522013]",None,"[8.0, 12.566600393381808, 16.27248937200469, 13.823623790394164]",False,645.9354584000002,648.6175807,648.6175807,649.8364180999997,None,0,,3.2635790300000735,4.282069130000309,None,1,None,1,,,,,,,,,,,,,cwzopc,001,english,0,0,2022-07-20_11h23.46.854,Cluster,2022.1.1,32.32834216059683,
,,,,3,0,3,0,13,0,13,0,,,both,,,,,,,,,,,,,,,,,,,,,,,,,,,,,,,,,,,,,,,,,,,,,,,,,,,,,,,,,,,,,,,,,,,,,,,,,,,,,,,,,,,,,,,,,,,,,,,,,,,,,,,,,,,,,,,,,,,650.2620158,None,4594.793419988137,0.0,0.00012486547057085194,1,"[0.7220735369628202, 0.7220735369628202, 0.7220735369628202, 0.7220735369628202]","[1823.4449771164332, 2297.396709994069, 2894.538474880755, 3646.8899542328654]",Major_3rd,"[13.0, 8.474073316090154, 7.262032003682652, 7.297497051478493]",False,651.2793375000001,654.4808278,654.4808278,655.7101396999997,['space'],1,[0.4601240000006328],3.9166870299995935,4.9451670299995385,None,1,None,1,,,,,,,,,,,,,cwzopc,001,english,0,0,2022-07-20_11h23.46.854,Cluster,2022.1.1,32.32834216059683,
,,,,3,0,3,0,14,0,14,0,,,frequency,,,,,,,,,,,,,,,,,,,,,,,,,,,,,,,,,,,,,,,,,,,,,,,,,,,,,,,,,,,,,,,,,,,,,,,,,,,,,,,,,,,,,,,,,,,,,,,,,,,,,,,,,,,,,,,,,,,656.2694136999999,None,3017.157246699421,1.3176841785985536,6.569459334892319e-05,1,"[0.5423817767151825, 0.6981931492434875, 0.4671840569420751, 0.4985014830793191]","[1900.6899629797294, 2133.4523490472934, 2394.7192936820684, 2687.9815235123497]",Tone,"[12.0, 9.603771077163932, 8.0, 7.357996047207937]",False,657.2781639000004,660.0233312999999,660.0233312999999,661.2495532000003,['space'],1,[0.2981376000002456],3.2467530300000362,4.269518830000379,None,1,None,1,,,,,,,,,,,,,cwzopc,001,english,0,0,2022-07-20_11h23.46.854,Cluster,2022.1.1,32.32834216059683,
,,,,3,0,3,0,15,0,15,0,,,time,,,,,,,,,,,,,,,,,,,,,,,,,,,,,,,,,,,,,,,,,,,,,,,,,,,,,,,,,,,,,,,,,,,,,,,,,,,,,,,,,,,,,,,,,,,,,,,,,,,,,,,,,,,,,,,,,,,661.5894570999999,None,4211.319387221742,0.4937651097128235,0.00010424067865973119,1,"[0.5321708038503278, 0.5321708038503278, 0.5321708038503278, 0.5321708038503278]","[149.18745362360667, 1788.388239332364, 4480.641211009368, 882.2797343672108]",None,"[10.0, 14.0, 6.0, 11.0]",False,662.5944191999997,665.2116963999997,665.2116963999997,666.4205004000005,['space'],1,[0.5629939999994349],3.184867829999348,4.189355529999375,None,1,None,1,,,,,,,,,,,,,cwzopc,001,english,0,0,2022-07-20_11h23.46.854,Cluster,2022.1.1,32.32834216059683,
,,,,3,0,3,0,16,0,16,0,,,both,,,,,,,,,,,,,,,,,,,,,,,,,,,,,,,,,,,,,,,,,,,,,,,,,,,,,,,,,,,,,,,,,,,,,,,,,,,,,,,,,,,,,,,,,,,,,,,,,,,,,,,,,,,,,,,,,,,666.8250630000002,None,1059.23689740976,7.7578574181035425,0.00011366515503918236,1,"[0.6856424857771818, 0.6856424857771818, 0.6856424857771818, 0.6856424857771818]","[2669.1097277437866, 2118.4737948195207, 1681.4337652317852, 1334.554863871893]",Major_3rd,"[7.357996047207937, 10.0, 15.0, 16.310816631830267]",False,667.8251793999998,670.8996189,670.8996189,672.0999999000005,['space'],1,[0.1969902000005277],3.801147029999811,4.825623929999892,None,1,None,1,,,,,,,,,,,,,cwzopc,001,english,0,0,2022-07-20_11h23.46.854,Cluster,2022.1.1,32.32834216059683,
,,,,3,0,3,0,17,0,17,0,,,frequency,,,,,,,,,,,,,,,,,,,,,,,,,,,,,,,,,,,,,,,,,,,,,,,,,,,,,,,,,,,,,,,,,,,,,,,,,,,,,,,,,,,,,,,,,,,,,,,,,,,,,,,,,,,,,,,,,,,672.6854039,None,,,,,"[0.731777696224831, 0.4684430720576247, 0.5483835877700087, 0.649461038306921]","[381.0907491984326, 480.14425683531294, 604.9438561729411, 762.1814983968651]",Major_3rd,"[11.833242802693402, 9.745531665775763, 8.241478389069105, 9.457909470134442]",True,673.6873893000002,676.4669513999997,676.4669513999997,677.6700012000001,None,1,,3.4466073299990967,4.470425729999079,None,1,None,1,0,,,,,,,,,,,,cwzopc,001,english,0,0,2022-07-20_11h23.46.854,Cluster,2022.1.1,32.32834216059683,
,,,,3,0,3,0,18,0,18,0,,,frequency,,,,,,,,,,,,,,,,,,,,,,,,,,,,,,,,,,,,,,,,,,,,,,,,,,,,,,,,,,,,,,,,,,,,,,,,,,,,,,,,,,,,,,,,,,,,,,,,,,,,,,,,,,,,,,,,,,,678.1824501000001,None,435.2752816480623,-5.0,4.203609419229965e-05,1,"[0.7153840237766751, 0.4714942799527351, 0.42484146173912357, 0.696771811190036]","[1096.8249796946266, 870.5505632961247, 690.9564399838885, 548.4124898473133]",Major_3rd,"[14.0, 10.945713403216956, 8.86680171705992, 8.582694964616035]",False,679.2657080999998,681.9035470999997,681.9035470999997,683.1035726,['space'],1,[0.4025131000003057],3.3454633100000137,4.369796209999549,None,1,None,1,,,,,,,,,,,,,cwzopc,001,english,0,0,2022-07-20_11h23.46.854,Cluster,2022.1.1,32.32834216059683,
,,,,3,0,3,0,19,0,19,0,,,none,,,,,,,,,,,,,,,,,,,,,,,,,,,,,,,,,,,,,,,,,,,,,,,,,,,,,,,,,,,,,,,,,,,,,,,,,,,,,,,,,,,,,,,,,,,,,,,,,,,,,,,,,,,,,,,,,,,683.6788277000005,None,615.5722066724584,-4.0,3.370283309245974e-05,0,"[0.5179289568975383, 0.6462676836296777, 0.4396990356939287, 0.6740375328593384]","[1404.8244557994108, 7961.19307423198, 173.41658439423577, 826.0612351923409]",None,"[16.545527686064084, -6.0, 11.89549327517948, 10.161245385309872]",False,684.7009791999999,687.3232933999998,687.3232933999998,688.5396421000005,None,0,,3.292866729999332,4.306138629999623,None,1,None,1,,,,,,,,,,,,,cwzopc,001,english,0,0,2022-07-20_11h23.46.854,Cluster,2022.1.1,32.32834216059683,
,,,,4,0,4,0,0,0,0,0,,,frequency,,,,,,,,,,,,,,,,,,,,,,,,,,,,,,,,,,,,,,,,,,,,,,,,,,,,,,,,,,,,,,,,,,,,,,,,,,,,,,,,,,,,,,,,,,,,,,,,,,,,,,,,,,,,,,,,,,,692.6807183000001,None,1195.0352329559057,9.0,0.00014714835483547399,1,"[0.6196110422136343, 0.6468918798587099, 0.6859089443643651, 0.7496635672160652]","[474.2500464833169, 597.517616477953, 752.8250226835846, 948.5000929666336]",Major_3rd,"[9.745531665775763, 8.241478389069105, 9.457909470134442, 12.0]",False,693.6821129999998,696.6766101000003,696.6766101000003,697.8990709999998,['space'],1,[0.4780644999996184],3.7496827300001314,4.765924730000734,None,1,None,1,,,,,,,,,,,,,cwzopc,001,english,0,0,2022-07-20_11h23.46.854,Cluster,2022.1.1,32.32834216059683,
,,,,4,0,4,0,1,0,1,0,,,time,,,,,,,,,,,,,,,,,,,,,,,,,,,,,,,,,,,,,,,,,,,,,,,,,,,,,,,,,,,,,,,,,,,,,,,,,,,,,,,,,,,,,,,,,,,,,,,,,,,,,,,,,,,,,,,,,,,698.4874559999998,None,,,,,"[0.7061392100119516, 0.7061392100119516, 0.7061392100119516, 0.7061392100119516]","[348.2886679380125, 136.59588741988878, 430.8093284609208, 1884.7027298998278]",None,"[12.413360172591144, 9.452158704192678, 10.466518661113334, 12.653614237667398]",True,699.4904628000004,702.6349425999997,702.6349425999997,703.8601316000004,['space'],0,[0.24569860000019617],3.8712404299994887,4.887765229999786,None,1,None,1,0,,,,,,,,,,,,cwzopc,001,english,0,0,2022-07-20_11h23.46.854,Cluster,2022.1.1,32.32834216059683,
,,,,4,0,4,0,2,0,2,0,,,both,,,,,,,,,,,,,,,,,,,,,,,,,,,,,,,,,,,,,,,,,,,,,,,,,,,,,,,,,,,,,,,,,,,,,,,,,,,,,,,,,,,,,,,,,,,,,,,,,,,,,,,,,,,,,,,,,,,704.4107922000003,None,125.0,-3.0,0.0005116464961403772,0,"[0.5123735996453714, 0.5123735996453714, 0.5123735996453714, 0.5123735996453714]","[198.42513149602502, 176.77669529663694, 157.49013123685918, 140.30775603867164]",Tone,"[13.0, 11.89549327517948, 10.518628407903087, 9.926484340641395]",False,705.4343684000005,707.9846261000002,707.9846261000002,709.2055380000002,None,0,,3.0686979299989616,4.0848878299993885,None,1,None,1,,,,,,,,,,,,,cwzopc,001,english,0,0,2022-07-20_11h23.46.854,Cluster,2022.1.1,32.32834216059683,
,,,,4,0,4,0,3,0,3,0,,,both,,,,,,,,,,,,,,,,,,,,,,,,,,,,,,,,,,,,,,,,,,,,,,,,,,,,,,,,,,,,,,,,,,,,,,,,,,,,,,,,,,,,,,,,,,,,,,,,,,,,,,,,,,,,,,,,,,,709.5603664,None,1302.259836084611,10.310816631830267,0.00017440087214026526,0,"[0.6501354939533348, 0.6501354939533348, 0.6501354939533348, 0.6501354939533348]","[820.3722899578241, 920.8367609623101, 1033.6043168683232, 1160.1816186534281]",Tone,"[10.161245385309872, 11.810490103672866, 13.0, 15.0]",False,710.5648499999998,713.5494000999997,713.5494000999997,714.7729753000003,None,0,,3.6471140300000116,4.664827329999753,None,1,None,1,,,,,,,,,,,,,cwzopc,001,english,0,0,2022-07-20_11h23.46.854,Cluster,2022.1.1,32.32834216059683,
,,,,4,0,4,0,4,0,4,0,,,both,,,,,,,,,,,,,,,,,,,,,,,,,,,,,,,,,,,,,,,,,,,,,,,,,,,,,,,,,,,,,,,,,,,,,,,,,,,,,,,,,,,,,,,,,,,,,,,,,,,,,,,,,,,,,,,,,,,715.2688350999997,None,8000.0,-12.0,4.560054196779548e-05,1,"[0.6611073943216108, 0.6611073943216108, 0.6611073943216108, 0.6611073943216108]","[3174.8021039364003, 4000.0000000000014, 5039.684199579494, 6349.604207872799]",Major_3rd,"[7.4017923300165425, 6.998383765704977, 4.0, -1.0]",False,717.6426250000004,720.6575541000002,720.6575541000002,721.8826169000004,['space'],1,[0.31128969999963374],3.651795900000252,4.669013699999596,None,1,None,1,,,,,,,,,,,,,cwzopc,001,english,0,0,2022-07-20_11h23.46.854,Cluster,2022.1.1,32.32834216059683,
,,,,4,0,4,0,5,0,5,0,,,both,,,,,,,,,,,,,,,,,,,,,,,,,,,,,,,,,,,,,,,,,,,,,,,,,,,,,,,,,,,,,,,,,,,,,,,,,,,,,,,,,,,,,,,,,,,,,,,,,,,,,,,,,,,,,,,,,,,722.3647355000003,None,,,,,"[0.7029417162394322, 0.7029417162394322, 0.7029417162394322, 0.7029417162394322]","[370.5674332759996, 294.11956670373866, 233.44285479497287, 185.2837166379998]",Major_3rd,"[12.0, 13.618319380339361, 13.818573845899522, 12.566600393381808]",True,723.3684682000003,726.5109683000001,726.5109683000001,727.7294967999997,None,1,,3.866519430000153,4.881221229999937,None,1,None,1,0,,,,,,,,,,,,cwzopc,001,english,0,0,2022-07-20_11h23.46.854,Cluster,2022.1.1,32.32834216059683,
,,,,4,0,4,0,6,0,6,0,,,frequency,,,,,,,,,,,,,,,,,,,,,,,,,,,,,,,,,,,,,,,,,,,,,,,,,,,,,,,,,,,,,,,,,,,,,,,,,,,,,,,,,,,,,,,,,,,,,,,,,,,,,,,,,,,,,,,,,,,728.2781290000003,None,8000.0,-15.0,3.228271145173278e-05,1,"[0.7229938898576752, 0.7836591034868291, 0.726490099390559, 0.6177097582764833]","[5039.684199579492, 5656.8542494923795, 6349.604207872798, 7127.189745122714]",Tone,"[4.0, 1.8335357558189784, -1.0, -4.0]",False,729.2925432000002,732.5683435000001,732.5683435000001,733.7890599000002,['space'],1,[0.40944470000022193],3.8876218299992615,4.904391729999588,None,1,None,1,,,,,,,,,,,,,cwzopc,001,english,0,0,2022-07-20_11h23.46.854,Cluster,2022.1.1,32.32834216059683,
,,,,4,0,4,0,7,0,7,0,,,time,,,,,,,,,,,,,,,,,,,,,,,,,,,,,,,,,,,,,,,,,,,,,,,,,,,,,,,,,,,,,,,,,,,,,,,,,,,,,,,,,,,,,,,,,,,,,,,,,,,,,,,,,,,,,,,,,,,734.2412592000001,None,267.9433656340732,-5.0,8.349270441553178e-05,0,"[0.6653731644198533, 0.6653731644198533, 0.6653731644198533, 0.6653731644198533]","[1450.6152135712339, 6209.028357551531, 504.5383145961069, 4527.908560504965]",None,"[16.545527686064084, -1.0, 9.0, 6.0]",False,735.2632865000005,738.2905159000002,738.2905159000002,739.5124704,None,0,,3.7031659300000683,4.718235629999981,None,1,None,1,,,,,,,,,,,,,cwzopc,001,english,0,0,2022-07-20_11h23.46.854,Cluster,2022.1.1,32.32834216059683,
,,,,4,0,4,0,8,0,8,0,,,time,,,,,,,,,,,,,,,,,,,,,,,,,,,,,,,,,,,,,,,,,,,,,,,,,,,,,,,,,,,,,,,,,,,,,,,,,,,,,,,,,,,,,,,,,,,,,,,,,,,,,,,,,,,,,,,,,,,740.0221567999997,None,486.5425803251877,3.0940458950170058,0.00010299881916326706,1,"[0.48648678060652634, 0.48648678060652634, 0.48648678060652634, 0.48648678060652634]","[425.5869493691253, 2174.4301987905183, 3854.5584942765972, 5453.912039534854]",None,"[10.466518661113334, 9.603771077163932, 7.297497051478493, 3.0]",False,741.0305686000002,743.5249180999999,743.5249180999999,744.7412555999999,['space'],1,[0.39350530000001527],2.991314230000171,4.012705330000244,None,1,None,1,,,,,,,,,,,,,cwzopc,001,english,0,0,2022-07-20_11h23.46.854,Cluster,2022.1.1,32.32834216059683,
,,,,4,0,4,0,9,0,9,0,,,both,,,,,,,,,,,,,,,,,,,,,,,,,,,,,,,,,,,,,,,,,,,,,,,,,,,,,,,,,,,,,,,,,,,,,,,,,,,,,,,,,,,,,,,,,,,,,,,,,,,,,,,,,,,,,,,,,,,745.0833964000003,None,360.4827950534848,6.413360172591144,0.00018165809135110877,1,"[0.7346854015135422, 0.7346854015135422, 0.7346854015135422, 0.7346854015135422]","[572.2307680843386, 509.79965776679904, 454.17986161282494, 404.6282565160224]",Tone,"[8.287388138157038, 9.0, 10.0, 11.179917103400358]",False,746.0849927999998,749.3101354,749.3101354,750.5227802999998,['space'],1,[0.2394430999997894],3.980638829999407,4.99070582999957,None,1,None,1,,,,,,,,,,,,,cwzopc,001,english,0,0,2022-07-20_11h23.46.854,Cluster,2022.1.1,32.32834216059683,
,,,,4,0,4,0,10,0,10,0,,,time,,,,,,,,,,,,,,,,,,,,,,,,,,,,,,,,,,,,,,,,,,,,,,,,,,,,,,,,,,,,,,,,,,,,,,,,,,,,,,,,,,,,,,,,,,,,,,,,,,,,,,,,,,,,,,,,,,,751.1198297000001,None,8000.0,-8.0,7.22719885372964e-05,1,"[0.5572615039166623, 0.5572615039166623, 0.5572615039166623, 0.5572615039166623]","[3631.8482822529313, 5537.1030004582935, 278.4711114495789, 413.82034424117643]",None,"[7.297497051478493, 2.0, 13.618319380339361, 11.0]",False,752.1365256999998,754.8459156999998,754.8459156999998,756.0680236999997,['space'],1,[0.2984622999997555],3.2555617300004087,4.278232229999958,None,1,None,1,,,,,,,,,,,,,cwzopc,001,english,0,0,2022-07-20_11h23.46.854,Cluster,2022.1.1,32.32834216059683,
,,,,4,0,4,0,11,0,11,0,,,time,,,,,,,,,,,,,,,,,,,,,,,,,,,,,,,,,,,,,,,,,,,,,,,,,,,,,,,,,,,,,,,,,,,,,,,,,,,,,,,,,,,,,,,,,,,,,,,,,,,,,,,,,,,,,,,,,,,756.4601058999997,None,997.6458877289995,6.7537326557169965,9.571863920197509e-05,0,"[0.5642721105396867, 0.5642721105396867, 0.5642721105396867, 0.5642721105396867]","[964.0588423565071, 2586.836773730873, 613.3701678293135, 577.189537043765]",None,"[12.0, 7.357996047207937, 8.241478389069105, 8.287388138157038]",False,757.4666482000002,760.1902049,760.1902049,761.4175893000001,None,0,,3.3021208299996943,4.328774329998851,None,1,None,1,,,,,,,,,,,,,cwzopc,001,english,0,0,2022-07-20_11h23.46.854,Cluster,2022.1.1,32.32834216059683,
,,,,4,0,4,0,12,0,12,0,,,both,,,,,,,,,,,,,,,,,,,,,,,,,,,,,,,,,,,,,,,,,,,,,,,,,,,,,,,,,,,,,,,,,,,,,,,,,,,,,,,,,,,,,,,,,,,,,,,,,,,,,,,,,,,,,,,,,,,761.8495407999999,None,,,,,"[0.40369776485665265, 0.40369776485665265, 0.40369776485665265, 0.40369776485665265]","[957.3229984416915, 638.9364458167638, 426.4389160789845, 284.6138302756496]",Perfect_5th,"[12.0, 8.446569919492394, 10.466518661113334, 13.618319380339361]",True,762.8398112000004,765.0780995000005,765.0780995000005,766.3002417999996,['space'],0,[0.0671635999992759],2.675439529999494,3.6980426299996907,None,1,['space'],0,0,[-3.0643299999997],,,,,,,,,,,cwzopc,001,english,0,0,2022-07-20_11h23.46.854,Cluster,2022.1.1,32.32834216059683,
,,,,4,0,4,0,13,0,13,0,,,none,,,,,,,,,,,,,,,,,,,,,,,,,,,,,,,,,,,,,,,,,,,,,,,,,,,,,,,,,,,,,,,,,,,,,,,,,,,,,,,,,,,,,,,,,,,,,,,,,,,,,,,,,,,,,,,,,,,766.5704397999998,None,4840.432637392508,-1.0,0.00012634987093311154,0,"[0.6443588207561497, 0.45227939406201184, 0.6748281311872569, 0.49247135653122864]","[305.13132040548834, 479.1856307900368, 330.46600092128335, 228.976995753172]",None,"[13.308224635178409, 9.745531665775763, 12.900648495033222, 13.818573845899522]",False,767.5712622000001,770.3877638000004,770.3877638000004,771.6129214000002,None,0,,3.314597429999594,4.344407829999909,None,1,None,1,,,,,,,,,,,,,cwzopc,001,english,0,0,2022-07-20_11h23.46.854,Cluster,2022.1.1,32.32834216059683,
,,,,4,0,4,0,14,0,14,0,,,time,,,,,,,,,,,,,,,,,,,,,,,,,,,,,,,,,,,,,,,,,,,,,,,,,,,,,,,,,,,,,,,,,,,,,,,,,,,,,,,,,,,,,,,,,,,,,,,,,,,,,,,,,,,,,,,,,,,771.9663791000003,None,125.0,0.0,0.000722719885372964,0,"[0.6249062919473254, 0.6249062919473254, 0.6249062919473254, 0.6249062919473254]","[634.9513712700532, 156.4498585354975, 232.99512021621436, 6501.868182206346]",None,"[8.241478389069105, 10.518628407903087, 13.818573845899522, -1.8442053410312722]",False,772.9812222,775.8854406999999,775.8854406999999,777.0864753000005,None,0,,3.525229629999558,4.545783829999891,None,1,None,1,,,,,,,,,,,,,cwzopc,001,english,0,0,2022-07-20_11h23.46.854,Cluster,2022.1.1,32.32834216059683,
,,,,4,0,4,0,15,0,15,0,,,time,,,,,,,,,,,,,,,,,,,,,,,,,,,,,,,,,,,,,,,,,,,,,,,,,,,,,,,,,,,,,,,,,,,,,,,,,,,,,,,,,,,,,,,,,,,,,,,,,,,,,,,,,,,,,,,,,,,777.5712498000003,None,5502.19797317265,-4.0,8.469141109890681e-05,0,"[0.7096950416907701, 0.7096950416907701, 0.7096950416907701, 0.7096950416907701]","[620.7743003572141, 2924.527117379149, 268.61793276017204, 5722.395113681901]",None,"[8.241478389069105, 7.262032003682652, 13.823623790394164, 1.8335357558189784]",False,778.5728037999997,781.7438462999999,781.7438462999999,782.945984,None,0,,3.8993503299989243,4.933728129998599,None,1,None,1,,,,,,,,,,,,,cwzopc,001,english,0,0,2022-07-20_11h23.46.854,Cluster,2022.1.1,32.32834216059683,
,,,,4,0,4,0,16,0,16,0,,,none,,,,,,,,,,,,,,,,,,,,,,,,,,,,,,,,,,,,,,,,,,,,,,,,,,,,,,,,,,,,,,,,,,,,,,,,,,,,,,,,,,,,,,,,,,,,,,,,,,,,,,,,,,,,,,,,,,,783.5573388000003,None,2828.42712474619,-4.0,4.131885137928784e-05,1,"[0.5037050505978888, 0.6986051207314881, 0.46280279925461737, 0.41516353463259836]","[167.25469594924303, 6137.9742211837965, 1740.409218822235, 2926.6296064043536]",None,"[11.19510911771042, 0.0, 14.20069527069938, 7.262032003682652]",False,784.6587571999999,787.3413370999997,787.3413370999997,788.5575875000004,['space'],1,[0.6833784000004925],3.1136577999996007,4.140289999999368,None,1,None,1,,,,,,,,,,,,,cwzopc,001,english,0,0,2022-07-20_11h23.46.854,Cluster,2022.1.1,32.32834216059683,
,,,,4,0,4,0,17,0,17,0,,,both,,,,,,,,,,,,,,,,,,,,,,,,,,,,,,,,,,,,,,,,,,,,,,,,,,,,,,,,,,,,,,,,,,,,,,,,,,,,,,,,,,,,,,,,,,,,,,,,,,,,,,,,,,,,,,,,,,,788.8286426000004,None,,,,,"[0.5820238922006046, 0.5820238922006046, 0.5820238922006046, 0.5820238922006046]","[613.009901164317, 772.3440782708985, 973.0925619751584, 1226.0198023286334]",Major_3rd,"[8.241478389069105, 9.457909470134442, 12.753732655716997, 15.663953319519575]",True,789.8323986000005,792.6091400000005,792.6091400000005,793.8167555,None,1,,3.3598082399994382,4.382348639999691,None,1,None,1,0,,,,,,,,,,,,cwzopc,001,english,0,0,2022-07-20_11h23.46.854,Cluster,2022.1.1,32.32834216059683,
,,,,4,0,4,0,18,0,18,0,,,none,,,,,,,,,,,,,,,,,,,,,,,,,,,,,,,,,,,,,,,,,,,,,,,,,,,,,,,,,,,,,,,,,,,,,,,,,,,,,,,,,,,,,,,,,,,,,,,,,,,,,,,,,,,,,,,,,,,794.2712158000004,None,140.29174948372426,3.9264843406413945,0.0009218317363911755,1,"[0.6694537805726886, 0.7527906621029758, 0.6082981133805079, 0.5601685040550349]","[5444.241383400023, 2914.8332024495035, 4499.665754043711, 708.7090728720565]",None,"[3.0, 7.262032003682652, 6.0, 8.86680171705992]",False,795.2734461,798.3422800999997,798.3422800999997,799.5663455000004,['space'],1,[0.17527449999988676],3.6372801299994535,4.656146029999036,None,1,None,1,,,,,,,,,,,,,cwzopc,001,english,0,0,2022-07-20_11h23.46.854,Cluster,2022.1.1,32.32834216059683,
,,,,4,0,4,0,19,0,19,0,,,both,,,,,,,,,,,,,,,,,,,,,,,,,,,,,,,,,,,,,,,,,,,,,,,,,,,,,,,,,,,,,,,,,,,,,,,,,,,,,,,,,,,,,,,,,,,,,,,,,,,,,,,,,,,,,,,,,,,799.9715807000002,None,217.63764082403114,-6.0,0.00011571748233929631,0,"[0.4211899388558008, 0.4211899388558008, 0.4211899388558008, 0.4211899388558008]","[1096.8249796946266, 732.0428479728131, 488.57998421712324, 326.08801744139123]",Perfect_5th,"[14.0, 9.0, 9.094045895017006, 13.0]",False,800.9919337000001,803.2708621000002,803.2708621000002,804.4930366999997,None,0,,2.6964258300004076,3.7181229300003906,None,1,None,1,,,,,,,,,,,,,cwzopc,001,english,0,0,2022-07-20_11h23.46.854,Cluster,2022.1.1,32.32834216059683,
,,,,5,0,5,0,0,0,0,0,,,none,,,,,,,,,,,,,,,,,,,,,,,,,,,,,,,,,,,,,,,,,,,,,,,,,,,,,,,,,,,,,,,,,,,,,,,,,,,,,,,,,,,,,,,,,,,,,,,,,,,,,,,,,,,,,,,,,,,821.5229947999997,None,2000.0,1.0,8.394020090612804e-05,1,"[0.7848014774517725, 0.7774566122953345, 0.7186599548020527, 0.4073955240586523]","[245.30895136714904, 852.8135248715447, 126.0841613108022, 5041.137854939931]",None,"[13.899582780124295, 10.945713403216956, 9.102958615505726, 4.0]",False,822.5468458000005,825.8421822,825.8421822,827.0503103000001,['space'],1,[0.31598149999945235],3.7123619300000428,4.716792330000317,None,1,None,1,,,,,,,,,,,,,cwzopc,001,english,0,0,2022-07-20_11h23.46.854,Cluster,2022.1.1,32.32834216059683,
,,,,5,0,5,0,1,0,1,0,,,both,,,,,,,,,,,,,,,,,,,,,,,,,,,,,,,,,,,,,,,,,,,,,,,,,,,,,,,,,,,,,,,,,,,,,,,,,,,,,,,,,,,,,,,,,,,,,,,,,,,,,,,,,,,,,,,,,,,827.3170909999999,None,1651.4468835666364,9.0,0.00016649182109373286,1,"[0.5967840614898539, 0.5967840614898539, 0.5967840614898539, 0.5967840614898539]","[327.6885650304104, 490.97809599662855, 735.6359558231873, 1102.2085586148232]",Perfect_5th,"[12.900648495033222, 9.094045895017006, 9.0, 14.0]",False,828.3172096999997,831.1306815999997,831.1306815999997,832.3541271000004,['space'],1,[0.3289561999995385],3.4412720300006185,4.465801830000601,None,1,None,1,,,,,,,,,,,,,cwzopc,001,english,0,0,2022-07-20_11h23.46.854,Cluster,2022.1.1,32.32834216059683,
,,,,5,0,5,0,2,0,2,0,,,none,,,,,,,,,,,,,,,,,,,,,,,,,,,,,,,,,,,,,,,,,,,,,,,,,,,,,,,,,,,,,,,,,,,,,,,,,,,,,,,,,,,,,,,,,,,,,,,,,,,,,,,,,,,,,,,,,,,832.8234660999997,None,,,,,"[0.6091442267653275, 0.7465609891039298, 0.6655164273735281, 0.7305135437945358]","[321.17526280272324, 164.79899502801626, 341.75053288177196, 1723.270582750909]",None,"[13.0, 11.19510911771042, 12.413360172591144, 14.20069527069938]",True,833.8236593000001,836.8728834000003,836.8728834000003,838.0985934,['space'],0,[0.0691182999994453],3.8100797299994156,4.824011029999383,None,1,None,1,0,,,,,,,,,,,,cwzopc,001,english,0,0,2022-07-20_11h23.46.854,Cluster,2022.1.1,32.32834216059683,
,,,,5,0,5,0,3,0,3,0,,,both,,,,,,,,,,,,,,,,,,,,,,,,,,,,,,,,,,,,,,,,,,,,,,,,,,,,,,,,,,,,,,,,,,,,,,,,,,,,,,,,,,,,,,,,,,,,,,,,,,,,,,,,,,,,,,,,,,,838.6792917000002,None,500.0,0.0,7.144469792555515e-05,1,"[0.43732132912374416, 0.43732132912374416, 0.43732132912374416, 0.43732132912374416]","[314.98026247371826, 353.5533905932737, 396.85026299204986, 445.44935907016963]",Tone,"[13.308224635178409, 12.413360172591144, 11.179917103400358, 10.0]",False,839.7014847999999,842.0398722999998,842.0398722999998,843.2694324000004,['space'],1,[0.3300910000002659],2.7900295299996287,3.7925667299987254,None,1,None,1,,,,,,,,,,,,,cwzopc,001,english,0,0,2022-07-20_11h23.46.854,Cluster,2022.1.1,32.32834216059683,
,,,,5,0,5,0,4,0,4,0,,,time,,,,,,,,,,,,,,,,,,,,,,,,,,,,,,,,,,,,,,,,,,,,,,,,,,,,,,,,,,,,,,,,,,,,,,,,,,,,,,,,,,,,,,,,,,,,,,,,,,,,,,,,,,,,,,,,,,,843.5413582000001,None,203.0630990890589,-3.0,0.00018367018267475058,1,"[0.6390662542218896, 0.6390662542218896, 0.6390662542218896, 0.6390662542218896]","[246.3129126751054, 441.78210489113997, 622.2770075387004, 259.040367866618]",None,"[13.899582780124295, 10.466518661113334, 8.241478389069105, 13.823623790394164]",False,844.5600145999997,847.5055908000004,847.5055908000004,848.7314945999997,['space'],1,[0.5117051000001993],3.5912925299999188,4.613346729999648,None,1,None,1,,,,,,,,,,,,,cwzopc,001,english,0,0,2022-07-20_11h23.46.854,Cluster,2022.1.1,32.32834216059683,
,,,,5,0,5,0,5,0,5,0,,,frequency,,,,,,,,,,,,,,,,,,,,,,,,,,,,,,,,,,,,,,,,,,,,,,,,,,,,,,,,,,,,,,,,,,,,,,,,,,,,,,,,,,,,,,,,,,,,,,,,,,,,,,,,,,,,,,,,,,,849.2229010000001,None,5722.635452604819,-4.166464244181022,7.80521195329361e-05,0,"[0.5652037024567401, 0.5483740722685583, 0.41831964059040705, 0.40481774957493327]","[1135.5146921869255, 1701.3496992011171, 2549.144294555047, 3819.4009365116426]",Perfect_5th,"[14.764429412170614, 15.0, 7.729781002044465, 7.297497051478493]",False,850.2282354999998,852.7800665000004,852.7800665000004,853.9967754999998,None,0,,2.986084629999823,4.009431429999495,None,1,None,1,,,,,,,,,,,,,cwzopc,001,english,0,0,2022-07-20_11h23.46.854,Cluster,2022.1.1,32.32834216059683,
,,,,5,0,5,0,6,0,6,0,,,both,,,,,,,,,,,,,,,,,,,,,,,,,,,,,,,,,,,,,,,,,,,,,,,,,,,,,,,,,,,,,,,,,,,,,,,,,,,,,,,,,,,,,,,,,,,,,,,,,,,,,,,,,,,,,,,,,,,854.2813498000005,None,784.9814764136804,4.0,6.189158817342824e-05,0,"[0.519048046572804, 0.519048046572804, 0.519048046572804, 0.519048046572804]","[311.5201053586568, 392.4907382068403, 494.507342955576, 623.0402107173134]",Major_3rd,"[13.308224635178409, 11.833242802693402, 9.094045895017006, 8.241478389069105]",False,855.2829702999998,857.8658508999997,857.8658508999997,859.0862936000003,None,0,,3.115057629999683,4.1344809299998815,None,1,None,1,,,,,,,,,,,,,cwzopc,001,english,0,0,2022-07-20_11h23.46.854,Cluster,2022.1.1,32.32834216059683,
,,,,5,0,5,0,7,0,7,0,,,time,,,,,,,,,,,,,,,,,,,,,,,,,,,,,,,,,,,,,,,,,,,,,,,,,,,,,,,,,,,,,,,,,,,,,,,,,,,,,,,,,,,,,,,,,,,,,,,,,,,,,,,,,,,,,,,,,,,859.4585229000004,None,966.0068508107797,6.0,8.596846190647229e-05,1,"[0.779363001771061, 0.779363001771061, 0.779363001771061, 0.779363001771061]","[139.42952043200302, 4274.88087819333, 2509.2371908692194, 691.0732271488523]",None,"[9.926484340641395, 6.4937651097128235, 7.729781002044465, 8.86680171705992]",False,860.4646519999997,863.8233901000003,863.8233901000003,865.0486883000003,['space'],1,[0.38016099999958897],4.179304829999637,5.198452429999634,None,1,['space'],0,,[-4.208992600000329],,,,,,,,,,,cwzopc,001,english,0,0,2022-07-20_11h23.46.854,Cluster,2022.1.1,32.32834216059683,
,,,,5,0,5,0,8,0,8,0,,,none,,,,,,,,,,,,,,,,,,,,,,,,,,,,,,,,,,,,,,,,,,,,,,,,,,,,,,,,,,,,,,,,,,,,,,,,,,,,,,,,,,,,,,,,,,,,,,,,,,,,,,,,,,,,,,,,,,,865.7037170000003,None,167.9837844985334,5.1951091177104205,0.0006948154660996379,1,"[0.4217442968877286, 0.707414528219349, 0.7663010910355361, 0.44434927809194047]","[1768.0281413297803, 964.5521908824715, 1230.3617348920409, 173.17604001939574]",None,"[14.0, 12.0, 15.663953319519575, 11.89549327517948]",False,866.7021427,869.6330362999997,869.6330362999997,870.8636781000005,['space'],1,[0.8501804000002267],3.39800693000052,4.43252123000002,None,1,None,1,,,,,,,,,,,,,cwzopc,001,english,0,0,2022-07-20_11h23.46.854,Cluster,2022.1.1,32.32834216059683,
,,,,5,0,5,0,9,0,9,0,,,both,,,,,,,,,,,,,,,,,,,,,,,,,,,,,,,,,,,,,,,,,,,,,,,,,,,,,,,,,,,,,,,,,,,,,,,,,,,,,,,,,,,,,,,,,,,,,,,,,,,,,,,,,,,,,,,,,,,871.1860508,None,8000.0,-16.0,2.8771996866857863e-05,1,"[0.726510825243913, 0.726510825243913, 0.726510825243913, 0.726510825243913]","[3174.8021039364003, 4000.0000000000014, 5039.684199579494, 6349.604207872799]",Major_3rd,"[7.4017923300165425, 6.998383765704977, 4.0, -1.0]",False,872.2256926999999,875.4290637000004,875.4290637000004,876.6480517,['space'],1,[0.5179345999999896],3.9336469300005774,4.963149530000919,None,1,None,1,,,,,,,,,,,,,cwzopc,001,english,0,0,2022-07-20_11h23.46.854,Cluster,2022.1.1,32.32834216059683,
,,,,5,0,5,0,10,0,10,0,,,frequency,,,,,,,,,,,,,,,,,,,,,,,,,,,,,,,,,,,,,,,,,,,,,,,,,,,,,,,,,,,,,,,,,,,,,,,,,,,,,,,,,,,,,,,,,,,,,,,,,,,,,,,,,,,,,,,,,,,877.2438462,None,8000.0,-19.0,2.036901389020565e-05,1,"[0.541150165221598, 0.5840263010507949, 0.6494654094223435, 0.4187052749942637]","[5039.684199579492, 5656.8542494923795, 6349.604207872798, 7127.189745122714]",Tone,"[4.0, 1.8335357558189784, -1.0, -4.0]",False,878.2687539999997,881.0752408999997,881.0752408999997,882.3032140000005,['space'],1,[0.43973700000015015],3.2135966299993015,4.2197791299995515,None,1,None,1,,,,,,,,,,,,,cwzopc,001,english,0,0,2022-07-20_11h23.46.854,Cluster,2022.1.1,32.32834216059683,
,,,,5,0,5,0,11,0,11,0,,,time,,,,,,,,,,,,,,,,,,,,,,,,,,,,,,,,,,,,,,,,,,,,,,,,,,,,,,,,,,,,,,,,,,,,,,,,,,,,,,,,,,,,,,,,,,,,,,,,,,,,,,,,,,,,,,,,,,,882.5391259999997,None,435.2752816480623,-5.0,4.203609419229965e-05,0,"[0.7237781581834893, 0.7237781581834893, 0.7237781581834893, 0.7237781581834893]","[2660.091189194338, 306.5970748448295, 5773.69736792685, 367.38262456316374]",None,"[7.357996047207937, 13.308224635178409, 1.0, 12.0]",False,883.5628287999998,886.7503722000001,886.7503722000001,887.9577823,None,0,,3.931587529999888,4.956757529999777,None,1,None,1,,,,,,,,,,,,,cwzopc,001,english,0,0,2022-07-20_11h23.46.854,Cluster,2022.1.1,32.32834216059683,
,,,,5,0,5,0,12,0,12,0,,,both,,,,,,,,,,,,,,,,,,,,,,,,,,,,,,,,,,,,,,,,,,,,,,,,,,,,,,,,,,,,,,,,,,,,,,,,,,,,,,,,,,,,,,,,,,,,,,,,,,,,,,,,,,,,,,,,,,,888.5738848000001,None,,,,,"[0.7155166131414951, 0.7155166131414951, 0.7155166131414951, 0.7155166131414951]","[1414.9667964096673, 1123.0598905603895, 891.3732258494266, 707.4833982048336]",Major_3rd,"[16.545527686064084, 14.764429412170614, 11.0, 8.86680171705992]",True,889.5865497000004,892.7574105000003,892.7574105000003,893.9831083999998,None,1,,3.8999420299996927,4.918860230000064,None,1,['space'],0,0,[-3.9997066000000814],,,,,,,,,,,cwzopc,001,english,0,0,2022-07-20_11h23.46.854,Cluster,2022.1.1,32.32834216059683,
,,,,5,0,5,0,13,0,13,0,,,time,,,,,,,,,,,,,,,,,,,,,,,,,,,,,,,,,,,,,,,,,,,,,,,,,,,,,,,,,,,,,,,,,,,,,,,,,,,,,,,,,,,,,,,,,,,,,,,,,,,,,,,,,,,,,,,,,,,894.5374088999997,None,4620.1184566632965,-0.2529735132497361,0.00012297374774949212,1,"[0.43700180471642525, 0.43700180471642525, 0.43700180471642525, 0.43700180471642525]","[164.52392169354476, 667.244031224792, 4989.785775105757, 1652.7269629882167]",None,"[11.19510911771042, 8.446569919492394, 4.7303033788973785, 15.0]",False,895.5394515999997,897.8741110000001,897.8741110000001,899.0994616999997,['space'],1,[0.6772870999998304],2.808234430000084,3.834402929999669,None,1,None,1,,,,,,,,,,,,,cwzopc,001,english,0,0,2022-07-20_11h23.46.854,Cluster,2022.1.1,32.32834216059683,
,,,,5,0,5,0,14,0,14,0,,,none,,,,,,,,,,,,,,,,,,,,,,,,,,,,,,,,,,,,,,,,,,,,,,,,,,,,,,,,,,,,,,,,,,,,,,,,,,,,,,,,,,,,,,,,,,,,,,,,,,,,,,,,,,,,,,,,,,,899.4203118000005,None,287.17458874925893,-3.0,9.068759088766197e-05,0,"[0.4220050072984036, 0.5887444817957985, 0.6464467694715381, 0.43754917932525467]","[7299.070666966201, 145.22195816492962, 799.0751508166016, 165.5108920634769]",None,"[-5.0, 10.0, 10.0, 11.19510911771042]",False,900.4520972,903.1487066,903.1487066,904.3649532999998,None,0,,3.1360346299998128,4.16316082999947,None,1,None,1,,,,,,,,,,,,,cwzopc,001,english,0,0,2022-07-20_11h23.46.854,Cluster,2022.1.1,32.32834216059683,
,,,,5,0,5,0,15,0,15,0,,,frequency,,,,,,,,,,,,,,,,,,,,,,,,,,,,,,,,,,,,,,,,,,,,,,,,,,,,,,,,,,,,,,,,,,,,,,,,,,,,,,,,,,,,,,,,,,,,,,,,,,,,,,,,,,,,,,,,,,,904.6637533000003,None,718.8542138356046,3.0,6.126568558907218e-05,1,"[0.7840152003345777, 0.4185441879899835, 0.6839227393882628, 0.588087369226633]","[142.63874190680147, 213.71663643574712, 320.21314881796076, 479.77762698291656]",Perfect_5th,"[9.926484340641395, 13.565784481606322, 13.0, 9.745531665775763]",False,905.6673130999998,908.5779160000002,908.5779160000002,909.8055684999999,['space'],1,[0.3655350999993061],3.510514229999899,4.532506730000023,None,1,None,1,,,,,,,,,,,,,cwzopc,001,english,0,0,2022-07-20_11h23.46.854,Cluster,2022.1.1,32.32834216059683,
,,,,5,0,5,0,16,0,16,0,,,time,,,,,,,,,,,,,,,,,,,,,,,,,,,,,,,,,,,,,,,,,,,,,,,,,,,,,,,,,,,,,,,,,,,,,,,,,,,,,,,,,,,,,,,,,,,,,,,,,,,,,,,,,,,,,,,,,,,910.2442080999999,None,,,,,"[0.7410066570027323, 0.7410066570027323, 0.7410066570027323, 0.7410066570027323]","[1673.110461333833, 6890.574028984613, 439.7487776765599, 5438.696953799214]",None,"[15.0, -3.630994879265149, 10.466518661113334, 3.0]",True,911.2462194999998,914.513978,914.513978,915.7350527999997,None,1,,3.96444443999917,4.978657839999869,None,1,None,1,0,,,,,,,,,,,,cwzopc,001,english,0,0,2022-07-20_11h23.46.854,Cluster,2022.1.1,32.32834216059683,
,,,,5,0,5,0,17,0,17,0,,,none,,,,,,,,,,,,,,,,,,,,,,,,,,,,,,,,,,,,,,,,,,,,,,,,,,,,,,,,,,,,,,,,,,,,,,,,,,,,,,,,,,,,,,,,,,,,,,,,,,,,,,,,,,,,,,,,,,,916.2872686000001,None,342.0471947809366,6.413360172591144,0.00019167295430794356,1,"[0.7441385097299297, 0.6299126692853938, 0.6414138781959884, 0.40623763730764806]","[6477.418564460378, 689.3164368064031, 6120.16753257715, 951.1346589539805]",None,"[-1.8442053410312722, 8.86680171705992, 0.0, 12.0]",False,917.2874352999997,920.3477273999997,920.3477273999997,921.5670423000001,['space'],1,[0.3449472000006608],3.4633344300000317,4.464072929999929,None,1,None,1,,,,,,,,,,,,,cwzopc,001,english,0,0,2022-07-20_11h23.46.854,Cluster,2022.1.1,32.32834216059683,
,,,,5,0,5,0,18,0,18,0,,,frequency,,,,,,,,,,,,,,,,,,,,,,,,,,,,,,,,,,,,,,,,,,,,,,,,,,,,,,,,,,,,,,,,,,,,,,,,,,,,,,,,,,,,,,,,,,,,,,,,,,,,,,,,,,,,,,,,,,,921.7910257000003,None,164.93848884661182,-4.0,0.0002480517054570919,0,"[0.5829849288174747, 0.6180451501350822, 0.5366349466510865, 0.5138231825936079]","[831.2378961427879, 554.7847360339226, 370.27438807164117, 247.1285050882241]",Perfect_5th,"[10.161245385309872, 8.582694964616035, 12.0, 13.899582780124295]",False,922.8768904999997,925.6573279000004,925.6573279000004,926.8885872999999,None,0,,3.2921131099992635,4.293713409999327,None,1,None,1,,,,,,,,,,,,,cwzopc,001,english,0,0,2022-07-20_11h23.46.854,Cluster,2022.1.1,32.32834216059683,
,,,,5,0,5,0,19,0,19,0,,,both,,,,,,,,,,,,,,,,,,,,,,,,,,,,,,,,,,,,,,,,,,,,,,,,,,,,,,,,,,,,,,,,,,,,,,,,,,,,,,,,,,,,,,,,,,,,,,,,,,,,,,,,,,,,,,,,,,,927.2239502000002,None,5501.0082765481175,-4.0,8.471909223060709e-05,0,"[0.5116056204408677, 0.5116056204408677, 0.5116056204408677, 0.5116056204408677]","[3465.4180616344447, 3889.800255710496, 4366.153162539126, 4900.841222056115]",Tone,"[7.416849728278493, 7.0, 6.4937651097128235, 4.7303033788973785]",False,928.2255419000003,930.7794276000004,930.7794276000004,932.0022807000005,None,0,,3.0868543300002784,4.108252230000289,None,1,None,1,,,,,,,,,,,,,cwzopc,001,english,0,0,2022-07-20_11h23.46.854,Cluster,2022.1.1,32.32834216059683,
,,,,6,0,6,0,0,0,0,0,,,both,,,,,,,,,,,,,,,,,,,,,,,,,,,,,,,,,,,,,,,,,,,,,,,,,,,,,,,,,,,,,,,,,,,,,,,,,,,,,,,,,,,,,,,,,,,,,,,,,,,,,,,,,,,,,,,,,,,953.4447331000001,None,,,,,"[0.6859478630420499, 0.6859478630420499, 0.6859478630420499, 0.6859478630420499]","[5763.365999506753, 4574.386625247386, 3630.6930705134814, 2881.6829997533764]",Major_3rd,"[1.0, 5.747026486750264, 7.297497051478493, 7.262032003682652]",True,954.4459515999997,957.5167842000001,957.5167842000001,958.7391405999997,None,1,,3.7987202300000718,4.812382329999309,None,1,None,1,0,,,,,,,,,,,,cwzopc,001,english,0,0,2022-07-20_11h23.46.854,Cluster,2022.1.1,32.32834216059683,
,,,,6,0,6,0,1,0,1,0,,,time,,,,,,,,,,,,,,,,,,,,,,,,,,,,,,,,,,,,,,,,,,,,,,,,,,,,,,,,,,,,,,,,,,,,,,,,,,,,,,,,,,,,,,,,,,,,,,,,,,,,,,,,,,,,,,,,,,,959.2906595000004,None,3249.0095854249403,-6.0,3.546262422465457e-05,0,"[0.6481080292865625, 0.6481080292865625, 0.6481080292865625, 0.6481080292865625]","[4657.789177273278, 216.61320950544925, 635.1235039000237, 1401.4441128671547]",None,"[5.747026486750264, 13.565784481606322, 8.241478389069105, 16.545527686064084]",False,960.3102486999996,963.2836274000001,963.2836274000001,964.5038695000003,None,0,,3.6174115300000267,4.6359487299996545,None,1,None,1,,,,,,,,,,,,,cwzopc,001,english,0,0,2022-07-20_11h23.46.854,Cluster,2022.1.1,32.32834216059683,
,,,,6,0,6,0,2,0,2,0,,,none,,,,,,,,,,,,,,,,,,,,,,,,,,,,,,,,,,,,,,,,,,,,,,,,,,,,,,,,,,,,,,,,,,,,,,,,,,,,,,,,,,,,,,,,,,,,,,,,,,,,,,,,,,,,,,,,,,,964.9931459999998,None,176.7766952966369,-4.0,0.00022084830614773677,0,"[0.4767340527876649, 0.6913218453910182, 0.43835621259370594, 0.42814492675978166]","[245.63160162360757, 255.3655165087802, 1513.5262867494753, 274.4066264542517]",None,"[13.899582780124295, 13.899582780124295, 16.27248937200469, 13.823623790394164]",False,966.0090842,968.6518346000003,968.6518346000003,969.8713063000005,None,0,,3.0584655299999213,4.08181803000025,None,1,None,1,,,,,,,,,,,,,cwzopc,001,english,0,0,2022-07-20_11h23.46.854,Cluster,2022.1.1,32.32834216059683,
,,,,6,0,6,0,3,0,3,0,,,both,,,,,,,,,,,,,,,,,,,,,,,,,,,,,,,,,,,,,,,,,,,,,,,,,,,,,,,,,,,,,,,,,,,,,,,,,,,,,,,,,,,,,,,,,,,,,,,,,,,,,,,,,,,,,,,,,,,970.1437192000003,None,3482.202253184498,-4.0,4.722761521385692e-05,1,"[0.5781945181001517, 0.5781945181001517, 0.5781945181001517, 0.5781945181001517]","[5527.651519871108, 4924.577653379668, 4387.299918778506, 3908.639873736986]",Tone,"[2.0, 4.7303033788973785, 6.4937651097128235, 7.0]",False,971.1613335000002,973.9310256999997,973.9310256999997,975.1311698,['space'],1,[0.4755073999999695],3.350956430000224,4.353823329999614,None,1,None,1,,,,,,,,,,,,,cwzopc,001,english,0,0,2022-07-20_11h23.46.854,Cluster,2022.1.1,32.32834216059683,
,,,,6,0,6,0,4,0,4,0,,,none,,,,,,,,,,,,,,,,,,,,,,,,,,,,,,,,,,,,,,,,,,,,,,,,,,,,,,,,,,,,,,,,,,,,,,,,,,,,,,,,,,,,,,,,,,,,,,,,,,,,,,,,,,,,,,,,,,,975.5560559000005,None,3110.2598399785247,1.3176841785985536,7.594873725038643e-05,0,"[0.592634489042348, 0.7314066485701997, 0.7423897903144776, 0.6194849327219832]","[410.79376424391677, 267.22538546423624, 4280.133338971711, 505.6426266257599]",None,"[11.0, 13.823623790394164, 6.4937651097128235, 9.0]",False,976.5511649999999,979.6531207999997,979.6531207999997,980.8523389000002,None,0,,3.7332414299989978,4.760217629998806,None,1,None,1,,,,,,,,,,,,,cwzopc,001,english,0,0,2022-07-20_11h23.46.854,Cluster,2022.1.1,32.32834216059683,
,,,,6,0,6,0,5,0,5,0,,,both,,,,,,,,,,,,,,,,,,,,,,,,,,,,,,,,,,,,,,,,,,,,,,,,,,,,,,,,,,,,,,,,,,,,,,,,,,,,,,,,,,,,,,,,,,,,,,,,,,,,,,,,,,,,,,,,,,,981.3550628000003,None,1069.4508547514429,7.7578574181035425,0.0001147087810943937,1,"[0.4841106551788421, 0.4841106551788421, 0.4841106551788421, 0.4841106551788421]","[5389.69457491763, 3597.1895602020377, 2400.835993981029, 1602.365784045903]",Perfect_5th,"[3.0, 7.416849728278493, 8.0, 15.461311896220947]",False,982.3566618000004,984.8467079000002,984.8467079000002,986.0557478000001,['space'],1,[0.49647760000016206],2.986314530000527,4.002120930000274,None,1,None,1,,,,,,,,,,,,,cwzopc,001,english,0,0,2022-07-20_11h23.46.854,Cluster,2022.1.1,32.32834216059683,
,,,,6,0,6,0,6,0,6,0,,,time,,,,,,,,,,,,,,,,,,,,,,,,,,,,,,,,,,,,,,,,,,,,,,,,,,,,,,,,,,,,,,,,,,,,,,,,,,,,,,,,,,,,,,,,,,,,,,,,,,,,,,,,,,,,,,,,,,,986.3993374000001,None,1505.512868263562,10.272489372004689,0.00015913357747432847,0,"[0.6502522853446979, 0.6502522853446979, 0.6502522853446979, 0.6502522853446979]","[827.8869186258379, 845.8054676909944, 127.38462942384464, 251.65317274649865]",None,"[10.161245385309872, 10.945713403216956, 9.102958615505726, 13.899582780124295]",False,987.4029012000001,990.3742088999998,990.3742088999998,991.5945947999999,None,0,,3.6335430299996005,4.650460529999691,None,1,None,1,,,,,,,,,,,,,cwzopc,001,english,0,0,2022-07-20_11h23.46.854,Cluster,2022.1.1,32.32834216059683,
,,,,6,0,6,0,7,0,7,0,,,none,,,,,,,,,,,,,,,,,,,,,,,,,,,,,,,,,,,,,,,,,,,,,,,,,,,,,,,,,,,,,,,,,,,,,,,,,,,,,,,,,,,,,,,,,,,,,,,,,,,,,,,,,,,,,,,,,,,992.0922228999998,None,2828.42712474619,-3.0,4.636051375812108e-05,0,"[0.4020948534810247, 0.43321211015499295, 0.4599034195409583, 0.7446700896350252]","[815.2380765754494, 142.27122881751384, 1369.4041022829226, 1459.6747208318595]",None,"[10.161245385309872, 9.926484340641395, 16.545527686064084, 16.545527686064084]",False,993.1135351000003,995.4433454,995.4433454,996.6588277000001,None,0,,3.066021429999637,4.077093130000321,None,1,None,1,,,,,,,,,,,,,cwzopc,001,english,0,0,2022-07-20_11h23.46.854,Cluster,2022.1.1,32.32834216059683,
,,,,6,0,6,0,8,0,8,0,,,both,,,,,,,,,,,,,,,,,,,,,,,,,,,,,,,,,,,,,,,,,,,,,,,,,,,,,,,,,,,,,,,,,,,,,,,,,,,,,,,,,,,,,,,,,,,,,,,,,,,,,,,,,,,,,,,,,,,997.2442417000002,None,,,,,"[0.6166576859438566, 0.6166576859438566, 0.6166576859438566, 0.6166576859438566]","[1950.5422947382697, 2457.529295850996, 3096.292890575995, 3901.084589476539]",Major_3rd,"[12.0, 7.729781002044465, 7.317684178598554, 7.0]",True,998.2455750999998,1001.1243006000004,1001.1243006000004,1002.3251473,None,1,,3.513565530000051,4.534407630000715,None,1,None,1,0,,,,,,,,,,,,cwzopc,001,english,0,0,2022-07-20_11h23.46.854,Cluster,2022.1.1,32.32834216059683,
,,,,6,0,6,0,9,0,9,0,,,both,,,,,,,,,,,,,,,,,,,,,,,,,,,,,,,,,,,,,,,,,,,,,,,,,,,,,,,,,,,,,,,,,,,,,,,,,,,,,,,,,,,,,,,,,,,,,,,,,,,,,,,,,,,,,,,,,,,1002.8097994,None,250.0,-1.0,0.00014926913094589803,1,"[0.6372930372309047, 0.6372930372309047, 0.6372930372309047, 0.6372930372309047]","[157.49013123685913, 176.77669529663686, 198.42513149602493, 222.72467953508482]",Tone,"[10.518628407903087, 11.89549327517948, 13.0, 13.565784481606322]",False,1003.8265945000003,1006.7612879999997,1006.7612879999997,1007.990479,['space'],1,[0.37713680000024397],3.5826152299996465,4.612620829999287,None,1,None,1,,,,,,,,,,,,,cwzopc,001,english,0,0,2022-07-20_11h23.46.854,Cluster,2022.1.1,32.32834216059683,
,,,,6,0,6,0,10,0,10,0,,,none,,,,,,,,,,,,,,,,,,,,,,,,,,,,,,,,,,,,,,,,,,,,,,,,,,,,,,,,,,,,,,,,,,,,,,,,,,,,,,,,,,,,,,,,,,,,,,,,,,,,,,,,,,,,,,,,,,,1008.4813098000004,None,453.26755746035457,4.0,0.0001170167438082704,1,"[0.42006225695069943, 0.4802181546837818, 0.5517483390516548, 0.7775503603930338]","[1343.461071077031, 1313.7525952535357, 1619.9968564460687, 158.24908052279434]",None,"[16.310816631830267, 16.310816631830267, 15.461311896220947, 11.0]",False,1009.4807062,1011.9576821,1011.9576821,1013.1814933000005,['space'],1,[0.3384843999997429],3.2600303299996085,4.282609929999126,None,1,None,1,,,,,,,,,,,,,cwzopc,001,english,0,0,2022-07-20_11h23.46.854,Cluster,2022.1.1,32.32834216059683,
,,,,6,0,6,0,11,0,11,0,,,time,,,,,,,,,,,,,,,,,,,,,,,,,,,,,,,,,,,,,,,,,,,,,,,,,,,,,,,,,,,,,,,,,,,,,,,,,,,,,,,,,,,,,,,,,,,,,,,,,,,,,,,,,,,,,,,,,,,1013.8074754999998,None,125.0,3.0,0.001020868972334765,1,"[0.43495517287625096, 0.43495517287625096, 0.43495517287625096, 0.43495517287625096]","[7265.168709763684, 4670.843531566618, 416.2324102295036, 6105.1719316649105]",None,"[-5.0, 5.747026486750264, 11.0, 0.0]",False,1014.8317851000002,1017.1725431000004,1017.1725431000004,1018.3925460999999,['space'],1,[0.2559391999998297],2.753657430000203,3.7620524300000397,None,1,None,1,,,,,,,,,,,,,cwzopc,001,english,0,0,2022-07-20_11h23.46.854,Cluster,2022.1.1,32.32834216059683,
,,,,6,0,6,0,12,0,12,0,,,frequency,,,,,,,,,,,,,,,,,,,,,,,,,,,,,,,,,,,,,,,,,,,,,,,,,,,,,,,,,,,,,,,,,,,,,,,,,,,,,,,,,,,,,,,,,,,,,,,,,,,,,,,,,,,,,,,,,,,1018.6664670999999,None,,,,,"[0.5193871334358219, 0.7673474379818035, 0.597318890412365, 0.7042238120134602]","[145.61409557566995, 183.46226417719046, 231.14796849821636, 291.2281911513398]",Major_3rd,"[10.0, 12.0, 13.818573845899522, 13.618319380339361]",True,1019.6564039000004,1022.5592759000001,1022.5592759000001,1023.7743092000001,None,1,,3.6399685299993507,4.640316429999075,None,1,None,1,0,,,,,,,,,,,,cwzopc,001,english,0,0,2022-07-20_11h23.46.854,Cluster,2022.1.1,32.32834216059683,
