sweeps.thisRepN,sweeps.thisTrialN,sweeps.thisN,sweeps.thisIndex,trials.thisRepN,trials.thisTrialN,trials.thisN,trials.thisIndex,instructions.started,instructions.stopped,blank_text.started,blank_text.stopped,Intervals,text.started,text.stopped,Delay,Prediction,Frequency,Volume,Psychopy_level,isCatchTrial,len(y),finished_audiograms,probe.started,probe.stopped,feedback.keys,feedback.started,feedback.stopped,ISI.started,ISI.stopped,text_2.started,text_2.stopped,feedback.rt,,Audiogram_both,Audiogram_none,Audiogram_time,Audiogram_frequency,participant,session,language (english or french),date,expName,psychopyVersion,frameRate,
0,0,0,0,0,0,0,0,19.577536599943414,None,59.812008999986574,None,"[0.16666666666666666, 0.3333333333333333, 0.5833333333333334, 0.3333333333333333, 0.3333333333333333, 0.5833333333333334, 0.3333333333333333, 0.5833333333333334, 0.3333333333333333, 0.3333333333333333]",61.91626039985567,None,2.487009568174722,none,174.74624177237746,6.090869592279001,0.0007206381991036682,0,27,[],0.023286629933863878,None,None,66.22471760003828,None,0.21535523002967238,2.7023647982043943,66.42544959997758,None,,,,,,,tyrfqt,001,fr,2022-04-22_12h00.04.507,Continuous,2022.1.1,35.3073184109352,
0,0,0,0,1,0,1,0,,,,,,,,2.589987326089954,none,784.584097896751,2.7045278746630275,5.3340725368766504e-05,0,28,[],0.023781230207532644,None,None,68.9108984998893,68.9108984998893,0.23057503020390868,2.8205623562938626,69.12543469993398,68.9108984998893,,,,,,,tyrfqt,001,fr,2022-04-22_12h00.04.507,Continuous,2022.1.1,35.3073184109352,
0,0,0,0,2,0,2,0,,,,,,,,2.900092721118612,none,138.69618400848066,6.4144284560072,0.0012573051819841452,0,29,[],0.024086530320346355,None,None,71.71381129999645,71.71381129999645,0.2344796301331371,3.134572351251749,71.93080449989066,71.71381129999645,,,,,,,tyrfqt,001,fr,2022-04-22_12h00.04.507,Continuous,2022.1.1,35.3073184109352,
0,0,0,0,3,0,3,0,,,,,,,,2.860430720341207,none,220.16646839903714,7.669769534599128,0.0005463447292555694,0,30,[],0.022341429954394698,None,None,74.82473160000518,74.82473160000518,0.2241874299943447,3.084618150335552,75.04027460003272,74.82473160000518,,,,,,,tyrfqt,001,fr,2022-04-22_12h00.04.507,Continuous,2022.1.1,35.3073184109352,
0,0,0,0,4,0,4,0,,,,,,,,2.0176015292071154,none,988.5140203528965,1.2679988659376247,5.0598728485186493e-05,0,31,[],0.023790729930624366,None,None,77.89361159992404,77.89361159992404,0.22926713014021516,2.2468686593473306,78.11396989994682,77.89361159992404,,,,,,,tyrfqt,001,fr,2022-04-22_12h00.04.507,Continuous,2022.1.1,35.3073184109352,
0,0,0,0,5,0,5,0,,,,,,,,2.9434340502374807,none,,,,1,31,[],0.022437130101025105,None,None,80.12272810004652,80.12272810004652,0.23211632994934916,3.17555038018683,80.33895769994706,80.12272810004652,,,,,,,tyrfqt,001,fr,2022-04-22_12h00.04.507,Continuous,2022.1.1,35.3073184109352,
0,0,0,0,6,0,6,0,,,,,,,,1.6351100476787754,none,622.7248111794116,6.777734261507794,0.00011412608752356378,0,32,[],0.025030430173501372,None,None,83.2760350999888,83.2760350999888,0.2342298300936818,1.8693398777724572,83.49123080004938,83.2760350999888,,,,,,,tyrfqt,001,fr,2022-04-22_12h00.04.507,Continuous,2022.1.1,35.3073184109352,
0,0,0,0,7,0,7,0,,,,,,,,1.759054460112678,none,329.87697769322364,8.0,0.0002380236949658044,0,33,[],0.021630930015817285,None,None,85.11854339996353,85.11854339996353,0.22321313014253974,1.9822675902552178,85.33872150001116,85.11854339996353,,,,,,,tyrfqt,001,fr,2022-04-22_12h00.04.507,Continuous,2022.1.1,35.3073184109352,
1,0,1,0,0,0,0,0,,,,,"[0.5833333333333334, 0.5833333333333334, 0.5833333333333334, 0.16666666666666666, 0.5833333333333334, 0.3333333333333333, 0.16666666666666666, 0.5833333333333334, 0.5833333333333334, 0.3333333333333333]",88.07987509993836,None,2.1421631105011296,time,831.2378961427879,1.379927744610122,4.6015216662936824e-05,0,27,[],0.024423730093985796,None,None,90.95145499985665,None,0.24081033002585173,2.3829734405269813,91.16892359987833,None,,,,,,,tyrfqt,001,fr,2022-04-22_12h00.04.507,Continuous,2022.1.1,35.3073184109352,
1,0,1,0,1,0,1,0,,,,,,,,2.1421631105011296,time,554.7847360339226,6.420360120869534,0.00013172148820736964,0,28,[],0.014742629835382104,None,None,93.30967830005102,93.30967830005102,0.21792482980526984,2.3600879403063995,93.5304455999285,93.30967830005102,,,,,,,tyrfqt,001,fr,2022-04-22_12h00.04.507,Continuous,2022.1.1,35.3073184109352,
1,0,1,0,2,0,2,0,,,,,,,,2.1421631105011296,time,329.87697769322364,8.0,0.0002380236949658044,0,29,[],0.02335262973792851,None,None,95.66742579988204,95.66742579988204,0.23153532994911075,2.3736984404502404,95.88702489994466,95.66742579988204,,,,,,,tyrfqt,001,fr,2022-04-22_12h00.04.507,Continuous,2022.1.1,35.3073184109352,
1,0,1,0,3,0,3,0,,,,,,,,2.1421631105011296,time,370.27438807164117,7.8416273100603195,0.00020785554795363142,0,30,[],0.02353192982263863,None,['space'],98.0247231000103,98.0247231000103,0.2328020299319178,2.3749651404330474,98.23833559988998,98.0247231000103,[-1.3577948999591172],,,,,,tyrfqt,001,fr,2022-04-22_12h00.04.507,Continuous,2022.1.1,35.3073184109352,
1,0,1,0,4,0,4,0,,,,,,,,2.1421631105011296,time,261.8235307051567,6.186632016114213,0.00031589455659982953,0,31,[],0.023287429939955473,None,None,100.37482559983619,100.37482559983619,0.2322690300643444,2.374432140565474,100.59253240004182,100.37482559983619,,,,,,,tyrfqt,001,fr,2022-04-22_12h00.04.507,Continuous,2022.1.1,35.3073184109352,
1,0,1,0,5,0,5,0,,,,,,,,2.1421631105011296,time,155.68120279485288,5.641781158797992,0.0008607700273376835,0,32,[],0.018612929852679372,None,None,102.72188430000097,102.72188430000097,0.21670183003880084,2.3588649405399305,102.9415919999592,102.72188430000097,,,,,,,tyrfqt,001,fr,2022-04-22_12h00.04.507,Continuous,2022.1.1,35.3073184109352,
1,0,1,0,6,0,6,0,,,,,,,,2.1421631105011296,time,,,,1,32,[],0.023516630055382848,None,None,105.0830091999378,105.0830091999378,0.23125032987445593,2.3734134403755855,105.29929520003498,105.0830091999378,,,,,,,tyrfqt,001,fr,2022-04-22_12h00.04.507,Continuous,2022.1.1,35.3073184109352,
1,0,1,0,7,0,7,0,,,,,,,,2.1421631105011296,time,1047.2941228206269,5.203530254493128,8.37960109225068e-05,0,33,[],0.02452853019349277,None,None,107.43407629989088,107.43407629989088,0.22639763029292226,2.368560740794052,107.64559450000525,107.43407629989088,,,,,,,tyrfqt,001,fr,2022-04-22_12h00.04.507,Continuous,2022.1.1,35.3073184109352,
2,0,2,0,0,0,0,0,,,,,,110.76652259984985,None,1.1874082420376273,frequency,185.13719403582053,7.016690288370151,0.0007168091576172558,0,27,[],0.02457652986049652,None,None,111.80975240003318,None,0.2416818297933787,1.429090071831006,112.0310235999059,None,,0.16666666666666666,,,,,tyrfqt,001,fr,2022-04-22_12h00.04.507,Continuous,2022.1.1,35.3073184109352,
2,0,2,0,1,0,1,0,,,,,,,,2.0526916817412753,frequency,207.80947403569695,6.935182685294677,0.0005558347752167174,0,28,[],0.022732829907909036,None,None,113.20718829985708,113.20718829985708,0.228937029838562,2.2816287115798373,113.41934889997356,113.20718829985708,,,,,,,tyrfqt,001,fr,2022-04-22_12h00.04.507,Continuous,2022.1.1,35.3073184109352,
2,0,2,0,2,0,2,0,,,,,,,,2.9786972558447147,frequency,233.25824788420186,7.298176293523894,0.00046403729779684983,0,29,[],0.023195429937914014,None,None,115.47256239992566,115.47256239992566,0.2307288299780339,3.2094260858227486,115.68736279988661,115.47256239992566,,,,,,,tyrfqt,001,fr,2022-04-22_12h00.04.507,Continuous,2022.1.1,35.3073184109352,
2,0,2,0,3,0,3,0,,,,,,,,1.387720010238317,frequency,261.8235307051567,6.8574307770028415,0.0003412574021744947,0,30,[],0.02289853012189269,None,['space'],118.66114600002766,118.66114600002766,0.2292761302087456,1.6169961404470625,118.87711289990693,118.66114600002766,[-2.746062000049278],,,,,,tyrfqt,001,fr,2022-04-22_12h00.04.507,Continuous,2022.1.1,35.3073184109352,
2,0,2,0,4,0,4,0,,,,,,,,2.4437751062620583,frequency,293.8869765709022,6.994830851565061,0.0002706982839461124,0,31,[],0.022958130110055208,None,None,120.26176929986104,120.26176929986104,0.23164222994819283,2.675417336210251,120.4776075000409,120.26176929986104,,,,,,,tyrfqt,001,fr,2022-04-22_12h00.04.507,Continuous,2022.1.1,35.3073184109352,
2,0,2,0,5,0,5,0,,,,,,,,2.2188010230144557,frequency,329.87697769322364,8.0,0.0002380236949658044,0,32,[],0.023186629870906472,None,['space'],122.91196639998816,122.91196639998816,0.22807172988541424,2.44687275289987,123.12989580002613,122.91196639998816,[-1.988577000098303],,,,,,tyrfqt,001,fr,2022-04-22_12h00.04.507,Continuous,2022.1.1,35.3073184109352,
2,0,2,0,6,0,6,0,,,,,,,,2.042798138375624,frequency,370.27438807164117,6.179809124339094,0.0001716606337819147,0,33,[],0.02268553012982011,None,['space'],125.3478401999455,125.3478401999455,0.23313683015294373,2.275934968528568,125.56083559989929,125.3478401999455,[-0.8574302000924945],,,,,,tyrfqt,001,fr,2022-04-22_12h00.04.507,Continuous,2022.1.1,35.3073184109352,
2,0,2,0,7,0,7,0,,,,,,,,2.569711699713114,frequency,415.618948071394,7.607187651957409,0.00018187713836324574,0,34,[],0.022906829603016376,None,['space'],127.60431179986335,127.60431179986335,0.22983312979340553,2.7995448295065195,127.81855429988354,127.60431179986335,[-1.4651578001212329],,,,,,tyrfqt,001,fr,2022-04-22_12h00.04.507,Continuous,2022.1.1,35.3073184109352,
2,0,2,0,8,0,8,0,,,,,,,,1.7729914093069017,frequency,466.51649576840384,7.667230931061386,0.0001768516437586414,0,35,[],0.022567430045455694,None,None,130.38021790003404,130.38021790003404,0.22965242993086576,2.0026438392377672,130.59581619990058,130.38021790003404,,,,,,,tyrfqt,001,fr,2022-04-22_12h00.04.507,Continuous,2022.1.1,35.3073184109352,
2,0,2,0,9,0,9,0,,,,,,,,2.002782107005015,frequency,,,,1,35,[],0.02296663005836308,None,None,132.3605680000037,132.3605680000037,0.22892073006369174,2.2317028370687066,132.5680317999795,132.3605680000037,,,,,,,tyrfqt,001,fr,2022-04-22_12h00.04.507,Continuous,2022.1.1,35.3073184109352,
3,0,3,0,0,0,0,0,,,,,,135.55325750005431,None,1.5900445254752884,both,185.13719403582053,7.42311885420146,0.0007511470627214789,0,27,[],0.023946129949763417,None,None,136.36061099986546,None,0.24049123004078865,1.830535755516077,136.57730879983865,None,,0.16666666666666666,,,,,tyrfqt,001,fr,2022-04-22_12h00.04.507,Continuous,2022.1.1,35.3073184109352,
3,0,3,0,1,0,1,0,,,,,,,,1.5900445254752884,both,207.80947403569695,7.796280199176254,0.0006137628392052283,0,28,[],0.022098629735410213,None,None,138.1620523999445,138.1620523999445,0.2307399297133088,1.8207844551885972,138.37316039996222,138.1620523999445,,,,,,,tyrfqt,001,fr,2022-04-22_12h00.04.507,Continuous,2022.1.1,35.3073184109352,
3,0,3,0,2,0,2,0,,,,,,,,1.5900445254752884,both,233.25824788420186,7.662449010679395,0.00048391214836261107,0,29,[],0.02104332996532321,None,None,139.9592406998854,139.9592406998854,0.22214762982912362,1.812192155304412,140.1759432000108,139.9592406998854,,,,,,,tyrfqt,001,fr,2022-04-22_12h00.04.507,Continuous,2022.1.1,35.3073184109352,
3,0,3,0,3,0,3,0,,,,,,,,1.5900445254752884,both,261.8235307051567,7.6747847091979065,0.00037492964184341975,0,30,[],0.02236642991192639,None,None,141.7606550999917,141.7606550999917,0.22850632993504405,1.8185508554103325,141.97671799990349,141.7606550999917,,,,,,,tyrfqt,001,fr,2022-04-22_12h00.04.507,Continuous,2022.1.1,35.3073184109352,
3,0,3,0,4,0,4,0,,,,,,,,1.5900445254752884,both,293.8869765709022,7.21056930242823,0.00027750603045714186,0,31,[],0.02121843001805246,None,None,143.56364139984362,143.56364139984362,0.22710483008995652,1.817149355565245,143.7769330998417,143.56364139984362,,,,,,,tyrfqt,001,fr,2022-04-22_12h00.04.507,Continuous,2022.1.1,35.3073184109352,
3,0,3,0,5,0,5,0,,,,,,,,1.5900445254752884,both,329.87697769322364,8.0,0.0002380236949658044,0,32,[],0.02258873009122908,None,None,145.36216629995033,145.36216629995033,0.228340330068022,1.8183848555433104,145.56809279997833,145.36216629995033,,,,,,,tyrfqt,001,fr,2022-04-22_12h00.04.507,Continuous,2022.1.1,35.3073184109352,
3,0,3,0,6,0,6,0,,,,,,,,1.5900445254752884,both,,,,1,32,[],0.02253182977437973,None,None,147.16011060005985,147.16011060005985,0.2302841297350824,1.8203286552103708,147.3761062999256,147.16011060005985,,,,,,,tyrfqt,001,fr,2022-04-22_12h00.04.507,Continuous,2022.1.1,35.3073184109352,
3,0,3,0,7,0,7,0,,,,,,,,1.5900445254752884,both,415.618948071394,6.5386599676442305,0.00016082432164410803,0,33,[],0.023673330200836062,None,None,148.9678909999784,148.9678909999784,0.23098863032646477,1.8210331558017532,149.1842147000134,148.9678909999784,,,,,,,tyrfqt,001,fr,2022-04-22_12h00.04.507,Continuous,2022.1.1,35.3073184109352,
3,0,3,0,8,0,8,0,,,,,,,,1.5900445254752884,both,466.51649576840384,7.328233852310385,0.00017008234961333592,0,34,[],0.022424129769206047,None,None,150.7694526000414,150.7694526000414,0.23024572990834713,1.8202902553836355,150.98394179996103,150.7694526000414,,,,,,,tyrfqt,001,fr,2022-04-22_12h00.04.507,Continuous,2022.1.1,35.3073184109352,
3,0,3,0,9,0,9,0,,,,,,,,1.5900445254752884,both,523.6470614103135,6.942949429921506,0.0001506931852387625,0,35,[],0.02252093027345836,None,None,152.56658639991656,152.56658639991656,0.22913623019121587,1.8191807556665043,152.78250139998272,152.56658639991656,,,,,,,tyrfqt,001,fr,2022-04-22_12h00.04.507,Continuous,2022.1.1,35.3073184109352,
4,0,4,0,0,0,0,0,,,,,"[0.3333333333333333, 0.5833333333333334, 0.16666666666666666, 0.3333333333333333, 0.5833333333333334, 0.3333333333333333, 0.5833333333333334, 0.16666666666666666, 0.16666666666666666, 0.5833333333333334]",156.46595049998723,None,2.311628540342336,time,3482.202253184498,-1.280142284680748,6.459351256879695e-05,0,34,[],0.024182029999792576,None,None,156.62138450006023,None,0.23651992995291948,2.5481484702952555,156.83633189997636,None,,,,,,,tyrfqt,001,fr,2022-04-22_12h00.04.507,Continuous,2022.1.1,35.3073184109352,
4,0,4,0,1,0,1,0,,,,,,,,2.311628540342336,time,1231.1444133449168,3.0,7.588229331321392e-05,0,35,[],0.021130530396476388,None,None,159.14430439984426,159.14430439984426,0.2295684302225709,2.541196970564907,159.36594319995493,159.14430439984426,,,,,,,tyrfqt,001,fr,2022-04-22_12h00.04.507,Continuous,2022.1.1,35.3073184109352,
4,0,4,0,2,0,2,0,,,,,,,,2.311628540342336,time,2324.0911739156804,-0.6391335061634886,7.617912735099224e-05,0,36,[],0.015322630060836673,0.2115735299885273,None,161.67016909993254,161.67016909993254,0.2115735299885273,2.5232020703308633,161.88583329995163,161.67016909993254,,,,,,,tyrfqt,001,fr,2022-04-22_12h00.04.507,Continuous,2022.1.1,35.3073184109352,
4,0,4,0,3,0,3,0,,,,,,,,2.311628540342336,time,652.1760348827823,3.2121123550716577,7.124378614162891e-05,0,37,[],0.01457933010533452,None,None,164.19201830006205,164.19201830006205,0.2159856299404055,2.5276141702827415,164.40798570006154,164.19201830006205,,,,,,,tyrfqt,001,fr,2022-04-22_12h00.04.507,Continuous,2022.1.1,35.3073184109352,
4,0,4,0,4,0,4,0,,,,,,,,2.311628540342336,time,461.15809679296973,3.151422665967933,0.00010554582805443916,0,38,[],0.01178402965888381,None,None,166.73079249984585,166.73079249984585,0.21192912966944277,2.5235576700117788,166.94747709995136,166.73079249984585,,,,,,,tyrfqt,001,fr,2022-04-22_12h00.04.507,Continuous,2022.1.1,35.3073184109352,
4,0,4,0,5,0,5,0,,,,,,,,2.311628540342336,time,517.6324619206889,6.4372659833481345,0.00014413925651702897,0,39,[],0.014902829891070724,None,None,169.2635186999105,169.2635186999105,0.21641872986219823,2.5280472702045342,169.47777609992772,169.2635186999105,,,,,,,tyrfqt,001,fr,2022-04-22_12h00.04.507,Continuous,2022.1.1,35.3073184109352,
4,0,4,0,6,0,6,0,,,,,,,,2.311628540342336,time,,,,1,39,[],0.02219803025946021,None,None,171.7919185999781,171.7919185999781,0.2275625301990658,2.539191070541402,172.01334629999474,171.7919185999781,,,,,,,tyrfqt,001,fr,2022-04-22_12h00.04.507,Continuous,2022.1.1,35.3073184109352,
4,0,4,0,7,0,7,0,,,,,,,,2.311628540342336,time,307.78610333622913,4.17491752432141,0.00017184243414065071,0,40,[],0.023047629976645112,None,None,174.3163316999562,174.3163316999562,0.2329043298959732,2.544532870238309,174.52845430001616,174.3163316999562,,,,,,,tyrfqt,001,fr,2022-04-22_12h00.04.507,Continuous,2022.1.1,35.3073184109352,
4,0,4,0,8,0,8,0,,,,,,,,2.311628540342336,time,977.1599684342464,1.991883609352234,5.4590466928143933e-05,0,41,[],0.021978229749947786,None,None,176.83782549994066,176.83782549994066,0.22964152973145247,2.5412700700737885,177.0528204999864,176.83782549994066,,,,,,,tyrfqt,001,fr,2022-04-22_12h00.04.507,Continuous,2022.1.1,35.3073184109352,
4,0,4,0,9,0,9,0,,,,,,,,2.311628540342336,time,2070.529847682756,-0.8922453050300274,6.891921256790414e-05,0,42,[],0.021872029872611165,None,None,179.3595169999171,179.3595169999171,0.22401192970573902,2.535640470048075,179.57146680005826,179.3595169999171,,,,,,,tyrfqt,001,fr,2022-04-22_12h00.04.507,Continuous,2022.1.1,35.3073184109352,
5,0,5,0,0,0,0,0,,,,,,183.20999530004337,None,2.3520100579496033,frequency,775.5723809168676,1.6531371964569237,4.7755184034233185e-05,0,36,[],0.024301330326125026,None,None,184.46497139986604,None,0.21806713030673563,2.570077188256339,184.6757793999277,None,,0.3333333333333333,,,,,tyrfqt,001,fr,2022-04-22_12h00.04.507,Continuous,2022.1.1,35.3073184109352,
5,0,5,0,1,0,1,0,,,,,,,,1.020796105466015,frequency,977.1599684342464,1.0,4.869928988070321e-05,0,37,[],0.0213559300173074,None,None,187.01881959987804,187.01881959987804,0.2295427299104631,1.2503388353764782,187.23056040005758,187.01881959987804,,,,,,,tyrfqt,001,fr,2022-04-22_12h00.04.507,Continuous,2022.1.1,35.3073184109352,
5,0,5,0,2,0,2,0,,,,,,,,1.5211308789359004,frequency,1231.1444133449168,1.6044784050964112,6.46196152561966e-05,0,38,[],0.016938930144533515,None,None,188.24504339997657,188.24504339997657,0.21653083013370633,1.7376617090696067,188.4654329000041,188.24504339997657,,,,,,,tyrfqt,001,fr,2022-04-22_12h00.04.507,Continuous,2022.1.1,35.3073184109352,
5,0,5,0,3,0,3,0,,,,,,,,1.6692503297936772,frequency,1551.1447618337352,3.4526675950849377,7.830888876558795e-05,0,39,[],0.021382129983976483,None,['space'],189.98846899997443,189.98846899997443,0.2284061301033944,1.8976564598970715,190.21313799987547,189.98846899997443,[-1.0009827998001128],,,,,,tyrfqt,001,fr,2022-04-22_12h00.04.507,Continuous,2022.1.1,35.3073184109352,
5,0,5,0,4,0,4,0,,,,,,,,1.9037792441165187,frequency,1954.3199368684927,0.09284895715726882,7.353101939722387e-05,0,40,[],0.021337330108508468,None,None,191.8783694000449,191.8783694000449,0.22758663026615977,2.1313658743826784,192.09069249988534,191.8783694000449,,,,,,,tyrfqt,001,fr,2022-04-22_12h00.04.507,Continuous,2022.1.1,35.3073184109352,
5,0,5,0,5,0,5,0,,,,,,,,1.9073449864979333,frequency,2462.2888266898335,1.0,9.543828998156852e-05,0,41,[],0.02165593020617962,None,None,193.99063259991817,193.99063259991817,0.22527303011156619,2.1326180166094995,194.2049481999129,193.99063259991817,,,,,,,tyrfqt,001,fr,2022-04-22_12h00.04.507,Continuous,2022.1.1,35.3073184109352,
5,0,5,0,6,0,6,0,,,,,,,,2.2369448129656635,frequency,3102.2895236674703,-2.1087033019317034,5.0600202871124715e-05,0,42,[],0.021282129688188434,None,['space'],196.1162922999356,196.1162922999356,0.22884862986393273,2.4657934428295962,196.3320079999976,196.1162922999356,[-1.5613518001046032],,,,,,tyrfqt,001,fr,2022-04-22_12h00.04.507,Continuous,2022.1.1,35.3073184109352,
5,0,5,0,7,0,7,0,,,,,,,,1.3292997983140422,frequency,,,,1,42,[],0.02157593029551208,None,None,198.56469470006414,198.56469470006414,0.23185593029484153,1.5611557286088837,198.78128529991955,198.56469470006414,,,,,,,tyrfqt,001,fr,2022-04-22_12h00.04.507,Continuous,2022.1.1,35.3073184109352,
5,0,5,0,8,0,8,0,,,,,,,,2.1484832863405643,frequency,4924.577653379667,0.7772878804336161,0.00016137003977179855,0,43,[],0.02280172985047102,None,None,200.1048967000097,200.1048967000097,0.22946802992373705,2.3779513162643013,200.32002640003338,200.1048967000097,,,,,,,tyrfqt,001,fr,2022-04-22_12h00.04.507,Continuous,2022.1.1,35.3073184109352,
5,0,5,0,9,0,9,0,,,,,,,,2.2735318023869278,frequency,6204.579047334941,0.79107692533873,0.00013747880073162002,0,44,[],0.015364529797807336,0.21289112977683544,['space'],202.46277009998448,202.46277009998448,0.21289112977683544,2.486422932163763,202.67907239985652,202.46277009998448,[-1.8753426999319345],,,,,,tyrfqt,001,fr,2022-04-22_12h00.04.507,Continuous,2022.1.1,35.3073184109352,
6,0,6,0,0,0,0,0,,,,,,206.4922319999896,None,1.3461833035291266,frequency,125.0,3.0,0.001020868972334765,0,45,[],0.024326630169525743,None,None,207.25389449996874,None,0.23542623012326658,1.5816095336523932,207.46455110004172,None,,0.3333333333333333,,,,,tyrfqt,001,fr,2022-04-22_12h00.04.507,Continuous,2022.1.1,35.3073184109352,
6,0,6,0,1,0,1,0,,,,,,,,1.1546227750238738,frequency,157.49013123685916,3.0,0.0006122873168340903,0,46,[],0.019667929969727993,None,None,208.81479600002058,208.81479600002058,0.22330603003501892,1.3779288050588927,209.03630479983985,208.81479600002058,,,,,,,tyrfqt,001,fr,2022-04-22_12h00.04.507,Continuous,2022.1.1,35.3073184109352,
6,0,6,0,2,0,2,0,,,,,,,,1.2221602045480846,frequency,,,,1,46,[],0.021441729972139,None,None,210.18992769997567,210.18992769997567,0.23476642998866737,1.456926634536752,210.40945489984006,210.18992769997567,,,,,,,tyrfqt,001,fr,2022-04-22_12h00.04.507,Continuous,2022.1.1,35.3073184109352,
6,0,6,0,3,0,3,0,,,,,,,,1.6995161212049843,frequency,250.00000000000003,3.654560804591984,0.00025509270822554776,0,47,[],0.022432129830121994,None,None,211.6276773000136,211.6276773000136,0.2271987299900502,1.9267148511950345,211.83957890002057,211.6276773000136,,,,,,,tyrfqt,001,fr,2022-04-22_12h00.04.507,Continuous,2022.1.1,35.3073184109352,
6,0,6,0,4,0,4,0,,,,,,,,2.9761560099972693,frequency,314.9802624737183,4.391737061506599,0.00016354939005198109,0,48,[],0.020613029832020402,None,None,213.53673509997316,213.53673509997316,0.22376502980478108,3.1999210398020503,213.75746849994175,213.53673509997316,,,,,,,tyrfqt,001,fr,2022-04-22_12h00.04.507,Continuous,2022.1.1,35.3073184109352,
7,0,7,0,0,0,0,0,,,,,"[0.16666666666666666, 0.16666666666666666, 0.5833333333333334, 0.3333333333333333, 0.16666666666666666, 0.5833333333333334, 0.3333333333333333, 0.5833333333333334, 0.5833333333333334, 0.3333333333333333]",218.07298960001208,None,1.5123232161774023,none,4924.577653379667,1.0,0.0001655611795965586,0,34,[],0.02422033017501235,None,None,219.1027396998834,None,0.21838563028723001,1.7307088464646323,219.3094720998779,None,,,,,,,tyrfqt,001,fr,2022-04-22_12h00.04.507,Continuous,2022.1.1,35.3073184109352,
7,0,7,0,1,0,1,0,,,,,,,,2.1224941784642164,none,6204.579047334941,0.3591042322073177,0.0001308088417916102,0,35,[],0.02070863009430468,None,['space'],220.82118969992734,220.82118969992734,0.22556382999755442,2.348058008461771,221.0381395998411,220.82118969992734,[-0.9542263997718692],,,,,,tyrfqt,001,fr,2022-04-22_12h00.04.507,Continuous,2022.1.1,35.3073184109352,
7,0,7,0,2,0,2,0,,,,,,,,1.366857421808317,none,,,,1,35,[],0.020941129652783275,None,None,223.15725239994936,223.15725239994936,0.22909612976945937,1.5959535515777763,223.38061839994043,223.15725239994936,,,,,,,tyrfqt,001,fr,2022-04-22_12h00.04.507,Continuous,2022.1.1,35.3073184109352,
7,0,7,0,3,0,3,0,,,,,,,,1.3335114063980136,none,1381.9128799677765,3.067685573649798,7.293647122308754e-05,0,36,[],0.022231030045077205,None,None,224.7411058000289,224.7411058000289,0.227449829922989,1.5609612363210026,224.9549221000634,224.7411058000289,,,,,,,tyrfqt,001,fr,2022-04-22_12h00.04.507,Continuous,2022.1.1,35.3073184109352,
7,0,7,0,4,0,4,0,,,,,,,,1.6800235648199306,none,2324.09117391568,0.7222950088621123,8.910609657388639e-05,0,37,[],0.020151730393990874,None,None,226.29214269993827,226.29214269993827,0.22490833047777414,1.9049318952977048,226.51138979988173,226.29214269993827,,,,,,,tyrfqt,001,fr,2022-04-22_12h00.04.507,Continuous,2022.1.1,35.3073184109352,
7,0,7,0,5,0,5,0,,,,,,,,1.9758829783955063,none,1551.1447618337352,1.96833914228119,6.600770581853755e-05,0,38,[],0.02069443021900952,None,['space'],228.18561759986915,228.18561759986915,0.22728103026747704,2.2031640086629833,228.4002737000119,228.18561759986915,[-1.2943399001378566],,,,,,tyrfqt,001,fr,2022-04-22_12h00.04.507,Continuous,2022.1.1,35.3073184109352,
7,0,7,0,6,0,6,0,,,,,,,,2.1960702390285363,none,2928.171391891252,0.4186733140163925,6.221530239048876e-05,0,39,[],0.02058712998405099,None,None,230.37101610004902,230.37101610004902,0.225051729939878,2.4211219689684143,230.58810109994374,230.37101610004902,,,,,,,tyrfqt,001,fr,2022-04-22_12h00.04.507,Continuous,2022.1.1,35.3073184109352,
8,0,8,0,0,0,0,0,,,,,"[0.5833333333333334, 0.16666666666666666, 0.3333333333333333, 0.3333333333333333, 0.5833333333333334, 0.3333333333333333, 0.5833333333333334, 0.16666666666666666, 0.5833333333333334, 0.5833333333333334]",236.48212970001623,None,1.820551371975324,time,7908.112162823171,-3.531118465035772,0.0001190416911479874,0,43,[],0.024233229691162705,None,None,237.22050990001298,None,0.21809682971797884,2.0386482016933027,237.42769689997658,None,,,,,,,tyrfqt,001,fr,2022-04-22_12h00.04.507,Continuous,2022.1.1,35.3073184109352,
8,0,8,0,1,0,1,0,,,,,,,,1.820551371975324,time,1569.1681957935016,2.9045423814863174,7.564713121942326e-05,0,44,[],0.020194529788568616,None,None,239.24657820002176,239.24657820002176,0.22621432994492352,2.0467657019202474,239.46741589996964,239.24657820002176,,,,,,,tyrfqt,001,fr,2022-04-22_12h00.04.507,Continuous,2022.1.1,35.3073184109352,
8,0,8,0,2,0,2,0,,,,,,,,1.820551371975324,time,,,,1,44,[],0.01597093022428453,None,None,241.28521370003,241.28521370003,0.21647883020341396,2.037030202178738,241.50383149995469,241.28521370003,,,,,,,tyrfqt,001,fr,2022-04-22_12h00.04.507,Continuous,2022.1.1,35.3073184109352,
8,0,8,0,3,0,3,0,,,,,,,,1.820551371975324,time,2795.9398683580393,-2.117937079809921,5.289784082497643e-05,0,45,[],0.02155252988450229,None,None,243.32356759998947,243.32356759998947,0.22981992992572486,2.0503713019010488,243.53864709986374,243.32356759998947,,,,,,,tyrfqt,001,fr,2022-04-22_12h00.04.507,Continuous,2022.1.1,35.3073184109352,
8,0,8,0,4,0,4,0,,,,,,,,1.820551371975324,time,1761.3317471922971,1.723265133607646,7.808755489652337e-05,0,46,[],0.02058263006620109,None,['space'],245.36297510005534,245.36297510005534,0.22580522997304797,2.046356601948372,245.57517309999093,245.36297510005534,[-1.5119468998163939],,,,,,tyrfqt,001,fr,2022-04-22_12h00.04.507,Continuous,2022.1.1,35.3073184109352,
8,0,8,0,5,0,5,0,,,,,,,,1.820551371975324,time,4189.176491282507,0.9971123989604447,0.00010875099179846096,0,47,[],0.020002430072054267,None,None,247.39830260002054,247.39830260002054,0.22981573012657464,2.0503671021018985,247.61610920005478,247.39830260002054,,,,,,,tyrfqt,001,fr,2022-04-22_12h00.04.507,Continuous,2022.1.1,35.3073184109352,
8,0,8,0,6,0,6,0,,,,,,,,1.820551371975324,time,5278.031643091578,1.0,0.00015988007960939475,0,48,[],0.020321129821240902,None,['space'],249.43265259987675,249.43265259987675,0.22859143000096083,2.0491428019762847,249.64566879998893,249.43265259987675,[-1.581702800001949],,,,,,tyrfqt,001,fr,2022-04-22_12h00.04.507,Continuous,2022.1.1,35.3073184109352,
8,0,8,0,7,0,7,0,,,,,,,,1.820551371975324,time,2219.1389441356905,-0.9938635238722315,7.105569498042644e-05,0,49,[],0.01364672975614667,None,['space'],251.46718170004897,251.46718170004897,0.2149543296545744,2.0355057016298983,251.68687350000255,251.46718170004897,[-1.6162704001180828],,,,,,tyrfqt,001,fr,2022-04-22_12h00.04.507,Continuous,2022.1.1,35.3073184109352,
9,0,9,0,0,0,0,0,,,,,"[0.16666666666666666, 0.16666666666666666, 0.5833333333333334, 0.16666666666666666, 0.3333333333333333, 0.5833333333333334, 0.5833333333333334, 0.5833333333333334, 0.16666666666666666, 0.5833333333333334]",257.4207049999386,None,2.7664809958589176,time,,,,1,49,[],0.02423752984032035,None,None,258.1573886999395,None,0.23186812992207706,2.9983491257809947,258.37972289999016,None,,,,,,,tyrfqt,001,fr,2022-04-22_12h00.04.507,Continuous,2022.1.1,35.3073184109352,
9,0,9,0,1,0,1,0,,,,,,,,2.7664809958589176,time,455.8612442791085,10.301429991516864,0.00024128996053151254,0,50,[],0.012384230038151145,None,None,261.1472521000542,261.1472521000542,0.21428223024122417,2.9807632261001418,261.3599254998844,261.1472521000542,,,,,,,tyrfqt,001,fr,2022-04-22_12h00.04.507,Continuous,2022.1.1,35.3073184109352,
9,0,9,0,2,0,2,0,,,,,,,,2.7664809958589176,time,203.0630990890589,15.0,0.0014589441197552092,0,51,[],0.014528330182656646,None,None,264.12968520005234,264.12968520005234,0.21657803026027977,2.9830590261191974,264.3555367998779,264.12968520005234,,,,,,,tyrfqt,001,fr,2022-04-22_12h00.04.507,Continuous,2022.1.1,35.3073184109352,
9,0,9,0,3,0,3,0,,,,,,,,2.7664809958589176,time,511.6869459983876,11.93625481692103,0.0002751416288415061,0,52,[],0.020137830171734095,None,None,267.11984970001504,267.11984970001504,0.22931563016027212,2.9957966260191897,267.33436039998196,267.11984970001504,,,,,,,tyrfqt,001,fr,2022-04-22_12h00.04.507,Continuous,2022.1.1,35.3073184109352,
9,0,9,0,4,0,4,0,,,,,,,,2.7664809958589176,time,304.2508784176478,14.185954045600957,0.0005632813046391193,0,53,[],0.01684262976050377,None,None,270.09716170001775,270.09716170001775,0.21621522982604802,2.9826962256849656,270.3169781998731,270.09716170001775,,,,,,,tyrfqt,001,fr,2022-04-22_12h00.04.507,Continuous,2022.1.1,35.3073184109352,
10,0,10,0,0,0,0,0,,,,,"[0.3333333333333333, 0.5833333333333334, 0.3333333333333333, 0.16666666666666666, 0.3333333333333333, 0.5833333333333334, 0.5833333333333334, 0.5833333333333334, 0.5833333333333334, 0.3333333333333333]",275.27010419988073,None,2.6319592848663422,time,802.9228818633767,3.3763199124976446,5.671857461832653e-05,0,54,[],0.02416063006967306,None,None,275.92567300004885,None,0.2215553300920874,2.8535146149584296,276.13321949983947,None,,,,,,,tyrfqt,001,fr,2022-04-22_12h00.04.507,Continuous,2022.1.1,35.3073184109352,
10,0,10,0,1,0,1,0,,,,,,,,2.6319592848663422,time,283.8761072677194,8.359028201563827,0.00034449880681611895,0,55,[],0.019580730237066746,None,None,278.76504640001804,278.76504640001804,0.2254714302252978,2.85743071509164,278.97778119985014,278.76504640001804,,,,,,,tyrfqt,001,fr,2022-04-22_12h00.04.507,Continuous,2022.1.1,35.3073184109352,
10,0,10,0,2,0,2,0,,,,,,,,2.6319592848663422,time,189.4645708137998,20.0,0.0030381201891724586,0,56,[],0.012900830013677478,None,None,281.6161072999239,281.6161072999239,0.2124823301564902,2.8444416150228324,281.840279399883,281.6161072999239,,,,,,,tyrfqt,001,fr,2022-04-22_12h00.04.507,Continuous,2022.1.1,35.3073184109352,
10,0,10,0,3,0,3,0,,,,,,,,2.6319592848663422,time,,,,1,56,[],0.020116729894652963,None,None,284.4768262999132,284.4768262999132,0.22758932993747294,2.859548614803815,284.69807469984517,284.4768262999132,,,,,,,tyrfqt,001,fr,2022-04-22_12h00.04.507,Continuous,2022.1.1,35.3073184109352,
10,0,10,0,4,0,4,0,,,,,,,,2.6319592848663422,time,126.45243003774034,11.31004317314281,0.0026099460249506246,0,57,[],0.02117802994325757,None,None,287.3220897000283,287.3220897000283,0.23004332999698818,2.8620026148633304,287.54223460005596,287.3220897000283,,,,,,,tyrfqt,001,fr,2022-04-22_12h00.04.507,Continuous,2022.1.1,35.3073184109352,
10,0,10,0,5,0,5,0,,,,,,,,2.6319592848663422,time,425.333580475428,15.543498160191497,0.00045054544077168803,0,58,[],0.013776130275800824,None,None,290.1743673000019,290.1743673000019,0.21265383018180728,2.8446131150481495,290.3896073999349,290.1743673000019,,,,,,,tyrfqt,001,fr,2022-04-22_12h00.04.507,Continuous,2022.1.1,35.3073184109352,
11,0,11,0,0,0,0,0,,,,,"[0.16666666666666666, 0.3333333333333333, 0.3333333333333333, 0.3333333333333333, 0.5833333333333334, 0.16666666666666666, 0.3333333333333333, 0.16666666666666666, 0.3333333333333333, 0.5833333333333334]",294.57200909988023,None,1.2136601336060389,none,361.8173093600946,12.19766998897423,0.00035215479210138695,0,40,[],0.024067030288279057,None,None,295.78314660000615,None,0.24669743026606739,1.4603575638721062,296.0065407999791,None,,,,,,,tyrfqt,001,fr,2022-04-22_12h00.04.507,Continuous,2022.1.1,35.3073184109352,
11,0,11,0,1,0,1,0,,,,,,,,1.7011878598178283,none,,,,1,40,[],0.015401030192151666,None,None,297.2104934998788,297.2104934998788,0.21482743020169437,1.9160152900195226,297.4293495998718,297.2104934998788,,,,,,,tyrfqt,001,fr,2022-04-22_12h00.04.507,Continuous,2022.1.1,35.3073184109352,
11,0,11,0,2,0,2,0,,,,,,,,2.9002907085902376,none,542.1134351507094,14.015257260415954,0.0003257167875171644,0,41,[],0.018002530094236135,None,None,299.1289075000677,299.1289075000677,0.221140329958871,3.1214310385491086,299.34786650002934,299.1289075000677,,,,,,,tyrfqt,001,fr,2022-04-22_12h00.04.507,Continuous,2022.1.1,35.3073184109352,
11,0,11,0,3,0,3,0,,,,,,,,1.3921853743244115,none,180.90865468004728,13.68137445569482,0.0016183700887551487,0,42,[],0.015255529899150133,None,['space'],302.2489207999315,302.2489207999315,0.2151317298412323,1.6073171041656438,302.4684551998507,302.2489207999315,[-2.55728970002383],,,,,,tyrfqt,001,fr,2022-04-22_12h00.04.507,Continuous,2022.1.1,35.3073184109352,
11,0,11,0,4,0,4,0,,,,,,,,1.7183659225557366,none,203.0630990890589,15.0,0.0014589441197552092,0,43,[],0.018926030257716775,None,['space'],303.86479819985107,303.86479819985107,0.2246829301584512,1.9430488527141878,304.08173589990474,303.86479819985107,[-0.9101323001086712],,,,,,tyrfqt,001,fr,2022-04-22_12h00.04.507,Continuous,2022.1.1,35.3073184109352,
11,0,11,0,5,0,5,0,,,,,,,,1.3424523652575848,none,287.1745887492588,6.383277456706763,0.00026712327944640647,0,44,[],0.01959392987191677,None,['space'],305.8000994999893,305.8000994999893,0.22615692974068224,1.568609294998267,306.01168289990164,305.8000994999893,[-1.2123627997934818],,,,,,tyrfqt,001,fr,2022-04-22_12h00.04.507,Continuous,2022.1.1,35.3073184109352,
12,0,12,0,0,0,0,0,,,,,,308.6830565999262,None,2.9467332597338047,both,1447.2692374403769,2.697912063400419,6.76829846377209e-05,0,36,[],0.024303530110046268,None,None,309.5295356998686,None,0.25114593002945185,3.1978791897632566,309.75692019984126,None,,0.3333333333333333,,,,,tyrfqt,001,fr,2022-04-22_12h00.04.507,Continuous,2022.1.1,35.3073184109352,
12,0,12,0,1,0,1,0,,,,,,,,2.9467332597338047,both,,,,1,36,[],0.01500282995402813,None,None,312.6952066998929,312.6952066998929,0.21431422978639603,3.1610474895202008,312.9151441999711,312.6952066998929,,,,,,,tyrfqt,001,fr,2022-04-22_12h00.04.507,Continuous,2022.1.1,35.3073184109352,
12,0,12,0,2,0,2,0,,,,,,,,2.9467332597338047,both,2297.3967099940683,-0.3260845796736416,7.84048425800229e-05,0,37,[],0.016389929922297597,None,None,315.8640232998878,315.8640232998878,0.21513803000561893,3.1618712897394237,316.0829580000136,315.8640232998878,,,,,,,tyrfqt,001,fr,2022-04-22_12h00.04.507,Continuous,2022.1.1,35.3073184109352,
12,0,12,0,3,0,3,0,,,,,,,,2.9467332597338047,both,2894.538474880754,-1.043419747701935,5.4430079339909356e-05,0,38,[],0.015234430087730289,None,None,319.0327560999431,319.0327560999431,0.21229373011738062,3.1590269898511854,319.25175870000385,319.0327560999431,,,,,,,tyrfqt,001,fr,2022-04-22_12h00.04.507,Continuous,2022.1.1,35.3073184109352,
12,0,12,0,4,0,4,0,,,,,,,,2.9467332597338047,both,3646.889954232865,-0.5746935234918986,7.276444038098241e-05,0,39,[],0.01913742977194488,None,None,322.19943329994567,322.19943329994567,0.22582542966119945,3.172558689395004,322.4167192999739,322.19943329994567,,,,,,,tyrfqt,001,fr,2022-04-22_12h00.04.507,Continuous,2022.1.1,35.3073184109352,
12,0,12,0,5,0,5,0,,,,,,,,2.9467332597338047,both,4594.793419988137,1.0,0.0001401013622855946,0,40,[],0.01933363010175526,None,['space'],325.36364199989475,325.36364199989475,0.22398563008755445,3.170718889821359,325.57694009994157,325.36364199989475,[-2.072183500044048],,,,,,tyrfqt,001,fr,2022-04-22_12h00.04.507,Continuous,2022.1.1,35.3073184109352,
12,0,12,0,6,0,6,0,,,,,,,,2.9467332597338047,both,5789.076949761509,-1.588137751124067,0.00010298631120704393,0,41,[],0.018805129919201136,None,['space'],328.5244428999722,328.5244428999722,0.22539292997680604,3.1721261897106108,328.74069939996116,328.5244428999722,[-2.6741613999474794],,,,,,tyrfqt,001,fr,2022-04-22_12h00.04.507,Continuous,2022.1.1,35.3073184109352,
12,0,12,0,7,0,7,0,,,,,,,,2.9467332597338047,both,7293.779908465731,-0.4770776659101936,0.00015157366117201195,0,42,[],0.01485562976449728,None,['space'],331.682235899847,331.682235899847,0.21546532958745956,3.1621985893212643,331.89397479989566,331.682235899847,[-2.342612399952486],,,,,,tyrfqt,001,fr,2022-04-22_12h00.04.507,Continuous,2022.1.1,35.3073184109352,
13,0,13,0,0,0,0,0,,,,,"[0.5833333333333334, 0.5833333333333334, 0.3333333333333333, 0.3333333333333333, 0.16666666666666666, 0.16666666666666666, 0.16666666666666666, 0.5833333333333334, 0.16666666666666666, 0.3333333333333333]",337.43611849984154,None,2.6807483608055804,none,,,,1,44,[],0.0242256298661232,0.22186842979863286,None,338.22439430002123,None,0.22186842979863286,2.9026167906042133,338.4285663999617,None,,,,,,,tyrfqt,001,fr,2022-04-22_12h00.04.507,Continuous,2022.1.1,35.3073184109352,
13,0,13,0,1,0,1,0,,,,,,,,2.9532846651896305,none,466.5164957684038,14.0,0.00036664650895603605,0,45,[],0.016240130178630352,None,None,341.10796299995854,341.10796299995854,0.21443493012338877,3.1677195953130193,341.3270256998949,341.10796299995854,,,,,,,tyrfqt,001,fr,2022-04-22_12h00.04.507,Continuous,2022.1.1,35.3073184109352,
13,0,13,0,2,0,2,0,,,,,,,,1.6750697010424815,none,293.8869765709022,9.422261807082641,0.0003579785877660638,0,46,[],0.018902330193668604,None,None,344.28476849989966,344.28476849989966,0.2272889302112162,1.9023586312536978,344.49815270002,344.28476849989966,,,,,,,tyrfqt,001,fr,2022-04-22_12h00.04.507,Continuous,2022.1.1,35.3073184109352,
13,0,13,0,3,0,3,0,,,,,,,,2.1431312613697475,none,784.5840978967509,5.401833469774564,7.276527868963074e-05,0,47,[],0.018704730086028576,None,None,346.174509299919,346.174509299919,0.22695143008604646,2.370082691455794,346.39275099989027,346.174509299919,,,,,,,tyrfqt,001,fr,2022-04-22_12h00.04.507,Continuous,2022.1.1,35.3073184109352,
13,0,13,0,4,0,4,0,,,,,,,,1.9022680208972114,none,155.68120279485288,6.483724472978706,0.0009483841820398647,0,48,[],0.01549162995070219,None,None,348.53026410005987,348.53026410005987,0.21410322980955243,2.116371250706764,348.75091569987126,348.53026410005987,,,,,,,tyrfqt,001,fr,2022-04-22_12h00.04.507,Continuous,2022.1.1,35.3073184109352,
13,0,13,0,5,0,5,0,,,,,,,,2.024334433535176,none,523.6470614103134,13.869507707053842,0.000334519567505732,0,49,[],0.01815733010880649,None,['space'],350.64784049987793,350.64784049987793,0.22429923014715314,2.248633663682329,350.8684183000587,350.64784049987793,[-1.117743499809876],,,,,,tyrfqt,001,fr,2022-04-22_12h00.04.507,Continuous,2022.1.1,35.3073184109352,
13,0,13,0,6,0,6,0,,,,,,,,1.892361173759122,none,880.6658735961487,6.896162848604277,8.994634094833799e-05,0,50,[],0.01799493026919663,None,None,352.89363229996525,352.89363229996525,0.22934333025477827,2.1217045040139,353.1088067998644,352.89363229996525,,,,,,,tyrfqt,001,fr,2022-04-22_12h00.04.507,Continuous,2022.1.1,35.3073184109352,
13,0,13,0,7,0,7,0,,,,,,,,2.9444278862000166,none,415.61894807139396,13.233051736029626,0.00034759323596059453,0,51,[],0.009554629912599921,None,['space'],355.0117522999644,355.0117522999644,0.20006842981092632,3.144496316010943,355.2215580998454,355.0117522999644,[-1.1926948998589069],,,,,,tyrfqt,001,fr,2022-04-22_12h00.04.507,Continuous,2022.1.1,35.3073184109352,
13,0,13,0,8,0,8,0,,,,,,,,2.3522125575659016,none,1109.5694720678453,8.34924444298611,0.00012717884854015964,0,52,[],0.018431330332532525,None,None,358.1735127000138,358.1735127000138,0.23443963029421866,2.5866521878601203,358.3893356998451,358.1735127000138,,,,,,,tyrfqt,001,fr,2022-04-22_12h00.04.507,Continuous,2022.1.1,35.3073184109352,
13,0,13,0,9,0,9,0,,,,,,,,2.1965902692546697,none,233.2582478842019,11.330396871665387,0.0007381827937383334,0,53,[],0.018052629893645644,None,['space'],360.7444928998593,360.7444928998593,0.23195622977800667,2.4285464990326764,360.9594639998395,360.7444928998593,[-2.061603199923411],,,,,,tyrfqt,001,fr,2022-04-22_12h00.04.507,Continuous,2022.1.1,35.3073184109352,
14,0,14,0,0,0,0,0,,,,,"[0.3333333333333333, 0.5833333333333334, 0.3333333333333333, 0.16666666666666666, 0.5833333333333334, 0.5833333333333334, 0.16666666666666666, 0.16666666666666666, 0.16666666666666666, 0.5833333333333334]",366.0208111999091,None,1.7719468994351713,none,5339.359416680138,-3.7335865118202998,9.12361520892185e-05,0,54,[],0.024411330232396722,None,None,366.990619600052,None,0.21717503014951944,1.9891219295846907,367.1928683000151,None,,,,,,,tyrfqt,001,fr,2022-04-22_12h00.04.507,Continuous,2022.1.1,35.3073184109352,
14,0,14,0,1,0,1,0,,,,,,,,2.993674873349639,none,,,,1,54,[],0.01633093017153442,None,None,368.96790280006826,368.96790280006826,0.21623753011226654,3.2099124034619058,369.1882515999023,368.96790280006826,,,,,,,tyrfqt,001,fr,2022-04-22_12h00.04.507,Continuous,2022.1.1,35.3073184109352,
14,0,14,0,2,0,2,0,,,,,,,,1.0798739150635441,none,8000.0,-4.0,0.00011454338263838867,0,55,[],0.019730030093342066,None,None,372.1792116998695,372.1792116998695,0.22748873010277748,1.3073626451663216,372.3942284998484,372.1792116998695,,,,,,,tyrfqt,001,fr,2022-04-22_12h00.04.507,Continuous,2022.1.1,35.3073184109352,
14,0,14,0,3,0,3,0,,,,,,,,2.3422746831039927,none,1681.7928305074288,0.71301576624429,6.561484763026639e-05,0,56,[],0.016033330000936985,None,['space'],373.47220079996623,373.47220079996623,0.21793383010663092,2.5602085132106236,373.69365369994193,373.47220079996623,[-0.6767452999483794],,,,,,tyrfqt,001,fr,2022-04-22_12h00.04.507,Continuous,2022.1.1,35.3073184109352,
14,0,14,0,4,0,4,0,,,,,,,,2.073754032469738,none,2519.842099789746,-2.836403320162296,6.107595448465003e-05,0,57,[],0.018369929865002632,None,None,376.03929209988564,376.03929209988564,0.22569622984156013,2.2994502623112982,376.2561315000057,376.03929209988564,,,,,,,tyrfqt,001,fr,2022-04-22_12h00.04.507,Continuous,2022.1.1,35.3073184109352,
14,0,14,0,5,0,5,0,,,,,,,,1.2350791792879134,none,3563.594872561357,-3.3555885314733813,5.1835633755675584e-05,0,58,[],0.015782030299305916,0.21559433010406792,['space'],378.327231900068,378.327231900068,0.21559433010406792,1.4506735093919814,378.54774369997904,378.327231900068,[-1.2121623998973519],,,,,,tyrfqt,001,fr,2022-04-22_12h00.04.507,Continuous,2022.1.1,35.3073184109352,
15,0,15,0,0,0,0,0,,,,,"[0.3333333333333333, 0.16666666666666666, 0.16666666666666666, 0.16666666666666666, 0.5833333333333334, 0.16666666666666666, 0.16666666666666666, 0.16666666666666666, 0.5833333333333334, 0.16666666666666666]",384.1600392998662,None,2.5594614416102246,none,157.49013123685918,3.917547487956234,0.0006805070640339866,0,59,[],0.024502830114215612,None,None,384.91077909991145,None,0.2522350300569087,2.8116964716671333,385.13927609985694,None,,,,,,,tyrfqt,001,fr,2022-04-22_12h00.04.507,Continuous,2022.1.1,35.3073184109352,
15,0,15,0,1,0,1,0,,,,,,,,2.8035441491753934,none,235.96857817042343,7.38369523318797,0.00045620401774624174,0,60,[],0.014010729966685176,None,None,387.69241590006277,387.69241590006277,0.2109019299969077,3.014446079172301,387.9089776999317,387.69241590006277,,,,,,,tyrfqt,001,fr,2022-04-22_12h00.04.507,Continuous,2022.1.1,35.3073184109352,
15,0,15,0,2,0,2,0,,,,,,,,1.6998101169934248,none,140.30775603867164,1.0965800802246788,0.0006653511665888285,0,61,[],0.018097029766067863,None,['space'],390.7169510999229,390.7169510999229,0.22845882992260158,1.9282689469160263,390.93323970003985,390.7169510999229,[-2.2418408000376076],,,,,,tyrfqt,001,fr,2022-04-22_12h00.04.507,Continuous,2022.1.1,35.3073184109352,
15,0,15,0,3,0,3,0,,,,,,,,1.8990353213818894,none,125.0,8.0,0.0018153902738505074,0,62,[],0.014373630052432418,None,None,392.63015499990433,392.63015499990433,0.21348583023063838,2.112521151612528,392.8480286998674,392.63015499990433,,,,,,,tyrfqt,001,fr,2022-04-22_12h00.04.507,Continuous,2022.1.1,35.3073184109352,
15,0,15,0,4,0,4,0,,,,,,,,2.5643578573261405,none,,,,1,62,[],0.011389329796656966,None,['space'],394.7544688999187,394.7544688999187,0.21104592992924154,2.775403787255382,394.96769870002754,394.7544688999187,[-1.7194189000874758],,,,,,tyrfqt,001,fr,2022-04-22_12h00.04.507,Continuous,2022.1.1,35.3073184109352,
16,0,16,0,0,0,0,0,,,,,,399.12692640000023,None,1.9194302851400566,both,125.0,4.0,0.0011454338263838868,0,43,[],0.024389130296185613,None,None,399.84948659990914,None,0.2520237301941961,2.1714540153342528,400.0779860999901,None,,0.5833333333333334,,,,,tyrfqt,001,fr,2022-04-22_12h00.04.507,Continuous,2022.1.1,35.3073184109352,
16,0,16,0,1,0,1,0,,,,,,,,1.9194302851400566,both,187.2883846095852,5.017725103582963,0.000555489045426786,0,44,[],0.01358123030513525,None,None,401.99125589989126,401.99125589989126,0.21156073012389243,2.130991015263949,402.20718299993314,401.99125589989126,,,,,,,tyrfqt,001,fr,2022-04-22_12h00.04.507,Continuous,2022.1.1,35.3073184109352,
16,0,16,0,2,0,2,0,,,,,,,,1.9194302851400566,both,280.6155120773433,4.9484105931872,0.00023873158503798627,0,45,[],0.017934530042111874,None,None,404.13708799984306,404.13708799984306,0.2262148300651461,2.1456451152052027,404.35832079988904,404.13708799984306,,,,,,,tyrfqt,001,fr,2022-04-22_12h00.04.507,Continuous,2022.1.1,35.3073184109352,
16,0,16,0,3,0,3,0,,,,,,,,1.9194302851400566,both,420.4482076268573,4.706241493392323,0.00012981171177057612,0,46,[],0.017354329815134406,None,None,406.2737703998573,406.2737703998573,0.2222313298843801,2.1416616150244367,406.4943529998418,406.2737703998573,,,,,,,tyrfqt,001,fr,2022-04-22_12h00.04.507,Continuous,2022.1.1,35.3073184109352,
16,0,16,0,4,0,4,0,,,,,,,,1.9194302851400566,both,,,,1,46,[],0.013082929886877537,None,None,408.41535370005295,408.41535370005295,0.21261342987418175,2.1320437150142384,408.63596630003303,408.41535370005295,,,,,,,tyrfqt,001,fr,2022-04-22_12h00.04.507,Continuous,2022.1.1,35.3073184109352,
17,0,17,0,0,0,0,0,,,,,"[0.16666666666666666, 0.16666666666666666, 0.16666666666666666, 0.5833333333333334, 0.3333333333333333, 0.3333333333333333, 0.3333333333333333, 0.3333333333333333, 0.5833333333333334, 0.16666666666666666]",413.19834879995324,None,1.0628132031796114,time,176.7766952966369,25.0,0.006224350964454479,0,59,[],0.024518029997125268,None,None,415.7766841999255,None,0.24163362989202142,1.3044468330716328,415.9911511999089,None,,,,,,,tyrfqt,001,fr,2022-04-22_12h00.04.507,Continuous,2022.1.1,35.3073184109352,
17,0,17,0,1,0,1,0,,,,,,,,1.0628132031796114,time,,,,1,59,[],0.01683133002370596,None,None,417.05088820005767,417.05088820005767,0.2193513298407197,1.282164533020331,417.26787339989096,417.05088820005767,,,,,,,tyrfqt,001,fr,2022-04-22_12h00.04.507,Continuous,2022.1.1,35.3073184109352,
17,0,17,0,2,0,2,0,,,,,,,,1.0628132031796114,time,471.9371563408468,21.659199875026957,0.0008821859214328796,0,60,[],0.015497630229219794,None,None,418.33676790003665,418.33676790003665,0.22081263014115393,1.2836258333207653,418.55630049994215,418.33676790003665,,,,,,,tyrfqt,001,fr,2022-04-22_12h00.04.507,Continuous,2022.1.1,35.3073184109352,
17,0,17,0,3,0,3,0,,,,,,,,1.0628132031796114,time,140.3077560386716,3.701863590789671,0.0008980801516524366,0,61,[],0.013824029825627804,None,['space'],419.62334379996173,419.62334379996173,0.2143582298886031,1.2771714330682145,419.8365633999929,419.62334379996173,[-0.860865900060162],,,,,,tyrfqt,001,fr,2022-04-22_12h00.04.507,Continuous,2022.1.1,35.3073184109352,
17,0,17,0,4,0,4,0,,,,,,,,1.0628132031796114,time,280.6155120773433,20.179506925510537,0.001378683881320672,0,62,[],0.01586512988433242,None,['space'],420.9058481999673,420.9058481999673,0.21707172971218824,1.2798849328917996,421.12571449996904,420.9058481999673,[-0.7024652000982314],,,,,,tyrfqt,001,fr,2022-04-22_12h00.04.507,Continuous,2022.1.1,35.3073184109352,
17,0,17,0,5,0,5,0,,,,,,,,1.0628132031796114,time,222.72467953508485,12.404546104714473,0.0009214310507040871,0,63,[],0.017475930275395513,None,['space'],422.1881045999471,422.1881045999471,0.2256426301319152,1.2884558333115266,422.40412079985254,422.1881045999471,[-0.8659063000231981],,,,,,tyrfqt,001,fr,2022-04-22_12h00.04.507,Continuous,2022.1.1,35.3073184109352,
18,0,18,0,0,0,0,0,,,,,,425.0675182000268,None,1.6050962948908616,both,150.37812951026473,0.5160694935226384,0.000527193758049601,0,47,[],0.024099430302157998,None,None,425.71931719989516,None,0.23587963031604886,1.8409759252069104,425.9316626000218,None,,0.5833333333333334,,,,,tyrfqt,001,fr,2022-04-22_12h00.04.507,Continuous,2022.1.1,35.3073184109352,
18,0,18,0,1,0,1,0,,,,,,,,1.6050962948908616,both,225.3126156527078,5.441996264583715,0.000403879547425364,0,48,[],0.013228630181401968,None,None,427.5347420000471,427.5347420000471,0.21342133008874953,1.8185176249796111,427.7557426998392,427.5347420000471,,,,,,,tyrfqt,001,fr,2022-04-22_12h00.04.507,Continuous,2022.1.1,35.3073184109352,
18,0,18,0,2,0,2,0,,,,,,,,1.6050962948908616,both,337.5874865420478,4.145152344077153,0.00014948766293632873,0,49,[],0.013346929801627994,None,['space'],429.3660591999069,429.3660591999069,0.2131108297035098,1.8182071245943714,429.58690449991263,429.3660591999069,[-1.2909224000759423],,,,,,tyrfqt,001,fr,2022-04-22_12h00.04.507,Continuous,2022.1.1,35.3073184109352,
18,0,18,0,3,0,3,0,,,,,,,,1.6050962948908616,both,505.80972015096177,1.4269385739166465,8.313279966381386e-05,0,50,[],0.017045129789039493,None,['space'],431.1994777000509,431.1994777000509,0.23074462986551225,1.8358409247563738,431.419242199976,431.1994777000509,[-1.0602025999687612],,,,,,tyrfqt,001,fr,2022-04-22_12h00.04.507,Continuous,2022.1.1,35.3073184109352,
18,0,18,0,4,0,4,0,,,,,,,,1.6050962948908616,both,757.8582832551998,0.0,4.0284217316254384e-05,0,51,[],0.01580032962374389,None,None,433.01795420004055,433.01795420004055,0.21846322971396148,1.823559524604823,433.24101280001923,433.01795420004055,,,,,,,tyrfqt,001,fr,2022-04-22_12h00.04.507,Continuous,2022.1.1,35.3073184109352,
18,0,18,0,5,0,5,0,,,,,,,,1.6050962948908616,both,1135.5044290708786,0.8677748390499271,5.4944173577001474e-05,0,52,[],0.01720023015514016,None,None,434.8508512999397,434.8508512999397,0.22360433009453118,1.8287006249853928,435.0695300998632,434.8508512999397,,,,,,,tyrfqt,001,fr,2022-04-22_12h00.04.507,Continuous,2022.1.1,35.3073184109352,
18,0,18,0,6,0,6,0,,,,,,,,1.6050962948908616,both,1701.3343219017133,1.7869221691068662,7.533407424935275e-05,0,53,[],0.013019229983910918,None,None,436.67359919985756,436.67359919985756,0.2134384298697114,1.818534724760573,436.8926225998439,436.67359919985756,,,,,,,tyrfqt,001,fr,2022-04-22_12h00.04.507,Continuous,2022.1.1,35.3073184109352,
18,0,18,0,7,0,7,0,,,,,,,,1.6050962948908616,both,2549.1212546385273,-0.5849723145264698,7.7447348433063e-05,0,54,[],0.01359962997958064,None,None,438.4950522999279,438.4950522999279,0.2129948299843818,1.8180911248752434,438.71503590000793,438.4950522999279,,,,,,,tyrfqt,001,fr,2022-04-22_12h00.04.507,Continuous,2022.1.1,35.3073184109352,
18,0,18,0,8,0,8,0,,,,,,,,1.6050962948908616,both,,,,1,54,[],0.013462030095979571,None,['space'],440.32698670006357,440.32698670006357,0.21178423007950187,1.8168805249703635,440.5469355999958,440.32698670006357,[-1.1009308998472989],,,,,,tyrfqt,001,fr,2022-04-22_12h00.04.507,Continuous,2022.1.1,35.3073184109352,
19,0,19,0,0,0,0,0,,,,,,444.90430699987337,None,1.0339520004304383,both,140.30775603867164,3.5197033508462576,0.0008794417642768863,0,55,[],0.023112129885703325,None,None,445.6024986000266,None,0.2460837299004197,1.280035730330858,445.8260929000098,None,,0.16666666666666666,,,,,tyrfqt,001,fr,2022-04-22_12h00.04.507,Continuous,2022.1.1,35.3073184109352,
19,0,19,0,1,0,1,0,,,,,,,,1.0339520004304383,both,157.49013123685916,5.072304999534346,0.0007772675080335219,0,56,[],0.009930429747328162,None,None,446.859468099894,446.859468099894,0.20898562972433865,1.242937630154777,447.0757648998406,446.859468099894,,,,,,,tyrfqt,001,fr,2022-04-22_12h00.04.507,Continuous,2022.1.1,35.3073184109352,
19,0,19,0,2,0,2,0,,,,,,,,1.0339520004304383,both,176.7766952966369,16.0,0.002208483061477368,0,57,[],0.015936230309307575,None,None,448.11854050005786,448.11854050005786,0.22999173030257225,1.2639437307330106,448.33976110001095,448.11854050005786,,,,,,,tyrfqt,001,fr,2022-04-22_12h00.04.507,Continuous,2022.1.1,35.3073184109352,
19,0,19,0,3,0,3,0,,,,,,,,1.0339520004304383,both,198.42513149602496,12.621475297068116,0.001159652825911181,0,58,[],0.011191929690539837,None,['space'],449.3769088999834,449.3769088999834,0.22501082974486053,1.2589628301752989,449.6017577999737,449.3769088999834,[-0.7743398000020534],,,,,,tyrfqt,001,fr,2022-04-22_12h00.04.507,Continuous,2022.1.1,35.3073184109352,
19,0,19,0,4,0,4,0,,,,,,,,1.0339520004304383,both,,,,1,58,[],0.017030030023306608,None,['space'],450.6358417000156,450.6358417000156,0.22460052999667823,1.2585525304271166,450.8523635000456,450.6358417000156,[-0.9130515998695046],,,,,,tyrfqt,001,fr,2022-04-22_12h00.04.507,Continuous,2022.1.1,35.3073184109352,
19,0,19,0,5,0,5,0,,,,,,,,1.0339520004304383,both,250.00000000000006,10.384703533782757,0.0005536115994526993,0,59,[],0.01792292995378375,None,['space'],451.88338309992105,451.88338309992105,0.22714732983149588,1.2610993302619342,452.100536899874,451.88338309992105,[-0.896342399995774],,,,,,tyrfqt,001,fr,2022-04-22_12h00.04.507,Continuous,2022.1.1,35.3073184109352,
19,0,19,0,6,0,6,0,,,,,,,,1.0339520004304383,both,280.61551207734334,5.893351542126191,0.0002661686665992858,0,60,[],0.008854230167344213,None,['space'],453.1342954998836,453.1342954998836,0.20552033022977412,1.2394723306602125,453.3501831998583,453.1342954998836,[-0.866926799993962],,,,,,tyrfqt,001,fr,2022-04-22_12h00.04.507,Continuous,2022.1.1,35.3073184109352,
20,0,20,0,0,0,0,0,,,,,"[0.5833333333333334, 0.16666666666666666, 0.16666666666666666, 0.3333333333333333, 0.16666666666666666, 0.16666666666666666, 0.3333333333333333, 0.16666666666666666, 0.16666666666666666, 0.16666666666666666]",457.55980669986457,None,1.9198979761681656,time,125.0,7.0,0.0016179682846481417,0,64,[],0.024400829803198576,None,None,458.27065349998884,None,0.24642172968015075,2.1663197058483163,458.4984945000615,None,,,,,,,tyrfqt,001,fr,2022-04-22_12h00.04.507,Continuous,2022.1.1,35.3073184109352,
20,0,20,0,1,0,1,0,,,,,,,,1.9198979761681656,time,,,,1,64,[],0.015677329851314425,None,None,460.41365349991247,460.41365349991247,0.21827532979659736,2.138173305964763,460.634496799903,460.41365349991247,,,,,,,tyrfqt,001,fr,2022-04-22_12h00.04.507,Continuous,2022.1.1,35.3073184109352,
20,0,20,0,2,0,2,0,,,,,,,,1.9198979761681656,time,198.42513149602496,6.79941360117934,0.0005932324592860089,0,65,[],0.016779130091890693,None,None,462.5493377998937,462.5493377998937,0.21900123008526862,2.138899206253434,462.7698581998702,462.5493377998937,,,,,,,tyrfqt,001,fr,2022-04-22_12h00.04.507,Continuous,2022.1.1,35.3073184109352,
20,0,20,0,3,0,3,0,,,,,,,,1.9198979761681656,time,157.49013123685916,6.600097162991788,0.0009267447224581846,0,66,[],0.013285330031067133,None,['space'],464.69001389993355,464.69001389993355,0.2122518301475793,2.132149806315745,464.9022613998968,464.69001389993355,[-1.6868360999505967],,,,,,tyrfqt,001,fr,2022-04-22_12h00.04.507,Continuous,2022.1.1,35.3073184109352,
20,0,20,0,4,0,4,0,,,,,,,,1.9198979761681656,time,176.7766952966369,5.5201192949310185,0.0006608456527549275,0,67,[],0.01626143022440374,None,"['space', 'space']",466.8312834999524,466.8312834999524,0.22351663024164736,2.143414606409813,467.0548145000357,466.8312834999524,"[-1.7322880998253822, -0.3078840000089258]",,,,,,tyrfqt,001,fr,2022-04-22_12h00.04.507,Continuous,2022.1.1,35.3073184109352,
21,0,21,0,0,0,0,0,,,,,,471.9221194998827,None,2.4815444374326763,both,396.85026299204986,4.717550631665887,0.00013318697805426153,0,61,[],0.024379130452871323,None,None,472.51603549998254,None,0.22221933025866747,2.7037637676913437,472.7286173000466,None,,0.16666666666666666,,,,,tyrfqt,001,fr,2022-04-22_12h00.04.507,Continuous,2022.1.1,35.3073184109352,
21,0,21,0,1,0,1,0,,,,,,,,2.4815444374326763,both,445.4493590701697,4.646464877319764,0.00012674030493126583,0,62,[],0.01354203000664711,None,None,475.21274819993414,475.21274819993414,0.21287402999587357,2.69441846742855,475.4342531999573,475.21274819993414,,,,,,,tyrfqt,001,fr,2022-04-22_12h00.04.507,Continuous,2022.1.1,35.3073184109352,
21,0,21,0,2,0,2,0,,,,,,,,2.4815444374326763,both,500.00000000000006,4.313765758156817,0.00011739734959791811,0,63,[],0.012191829970106483,0.2099046299699694,None,477.9203733999748,477.9203733999748,0.2099046299699694,2.6914490674026457,478.1372354000341,477.9203733999748,,,,,,,tyrfqt,001,fr,2022-04-22_12h00.04.507,Continuous,2022.1.1,35.3073184109352,
21,0,21,0,3,0,3,0,,,,,,,,2.4815444374326763,both,561.2310241546866,5.438145957457901,0.00011575673622958311,0,64,[],0.011040429817512631,None,None,480.6220766999759,480.6220766999759,0.21359092998318374,2.69513536741586,480.83968500001356,480.6220766999759,,,,,,,tyrfqt,001,fr,2022-04-22_12h00.04.507,Continuous,2022.1.1,35.3073184109352,
21,0,21,0,4,0,4,0,,,,,,,,2.4815444374326763,both,629.9605249474366,4.271647192701115,8.367671689288523e-05,0,65,[],0.012474029790610075,None,None,483.3279891000129,483.3279891000129,0.21399572980590165,2.695540167238578,483.542853299994,483.3279891000129,,,,,,,tyrfqt,001,fr,2022-04-22_12h00.04.507,Continuous,2022.1.1,35.3073184109352,
21,0,21,0,5,0,5,0,,,,,,,,2.4815444374326763,both,707.1067811865476,3.0,6.272083101232247e-05,0,66,[],0.013150130165740848,None,None,486.0281449998729,486.0281449998729,0.2129150303080678,2.694459467740744,486.2409653000068,486.0281449998729,,,,,,,tyrfqt,001,fr,2022-04-22_12h00.04.507,Continuous,2022.1.1,35.3073184109352,
21,0,21,0,6,0,6,0,,,,,,,,2.4815444374326763,both,793.7005259840998,2.2531466216685114,5.010227564735048e-05,0,67,[],0.012272229883819818,None,None,488.7314875999,488.7314875999,0.2116597299464047,2.693204167379081,488.95073159993626,488.7314875999,,,,,,,tyrfqt,001,fr,2022-04-22_12h00.04.507,Continuous,2022.1.1,35.3073184109352,
21,0,21,0,7,0,7,0,,,,,,,,2.4815444374326763,both,,,,1,67,[],0.008751030080020428,0.2051166300661862,None,491.44123999984004,491.44123999984004,0.2051166300661862,2.6866610674988625,491.65209840005264,491.44123999984004,,,,,,,tyrfqt,001,fr,2022-04-22_12h00.04.507,Continuous,2022.1.1,35.3073184109352,
21,0,21,0,8,0,8,0,,,,,,,,2.4815444374326763,both,1000.0000000000002,1.9455668760154636,5.5112276185077294e-05,0,68,[],0.014132830314338207,None,None,494.13819029997103,494.13819029997103,0.2129778303205967,2.694522267753273,494.3510781999212,494.13819029997103,,,,,,,tyrfqt,001,fr,2022-04-22_12h00.04.507,Continuous,2022.1.1,35.3073184109352,
21,0,21,0,9,0,9,0,,,,,,,,2.4815444374326763,both,1122.4620483093734,2.9658648814106128,6.91886372815984e-05,0,69,[],0.012095530284568667,0.20979393017478287,None,496.83855260000564,496.83855260000564,0.20979393017478287,2.691338367607459,497.0565502999816,496.83855260000564,,,,,,,tyrfqt,001,fr,2022-04-22_12h00.04.507,Continuous,2022.1.1,35.3073184109352,
22,0,22,0,0,0,0,0,,,,,,502.30368530005217,None,2.971876025028361,both,2519.842099789746,-3.1285841159254124,5.90556185921529e-05,0,70,[],0.024340029805898666,None,None,503.2166788999457,None,0.24312762985937297,3.215003654887734,503.43127589998767,None,,0.3333333333333333,,,,,tyrfqt,001,fr,2022-04-22_12h00.04.507,Continuous,2022.1.1,35.3073184109352,
22,0,22,0,1,0,1,0,,,,,,,,2.971876025028361,both,3174.8021039363985,-3.294860122778229,4.7528921302266854e-05,0,71,['both'],0.011944429948925972,None,None,506.4024880998768,506.4024880998768,0.21412983001209795,3.186005855040459,506.6197206999641,506.4024880998768,,,"{'estimation': [[125.0, 8.352299450912595], [127.6602640017412, 9.0], [131.94366982315825, 10.0], [133.9716828170366, 10.438539408913304], [136.7136402779721, 11.0], [141.70011706255556, 12.0], [143.5872943746293, 12.359237409116211], [147.786301433332, 13.0], [153.89305166811442, 13.893916363664617], [155.03464022971377, 14.0], [164.93848884661162, 14.875713569037053], [169.1543933632914, 15.0], [176.77669529663666, 15.21361005902094], [185.50933442129545, 15.0], [189.46457081379947, 14.910985171800302], [203.0630990890585, 14.084919290855565], [204.06336965341274, 14.0], [216.50114448912058, 13.0], [217.6376408240306, 12.914115219119026], [228.51924605600018, 12.0], [233.25824788420132, 11.624910788764984], [241.77562826848765, 11.0], [249.99999999999937, 10.425941697211556], [257.85788915879584, 10.0], [267.94336563407256, 9.474589942754232], [282.412731803395, 9.0], [287.1745887492579, 8.847390265357518], [307.78610333622805, 8.537744391089156], [329.87697769322244, 8.457075780788266], [353.55339059327247, 8.485612714714573], [378.9291416275985, 8.510015628060069], [406.12619817811606, 8.459058457933807], [435.2752816480601, 8.319176928890643], [466.5164957684015, 8.12469269374126], [487.70234035827576, 8.0], [499.9999999999975, 7.93035509652216], [535.8867312681438, 7.777247166047968], [574.3491774985143, 7.660157232250201], [615.5722066724546, 7.531342504673447], [659.7539553864432, 7.321732882248349], [703.5836131008768, 7.0], [707.1067811865431, 6.974809506151248], [757.8582832551941, 6.493345701437773], [805.2113654532799, 6.0], [812.2523963562301, 5.928000585378727], [870.5505632961181, 5.394480653491804], [933.0329915368008, 5.00661083128324], [935.9461481274536, 5.0], [999.9999999999926, 4.86159725202413], [1071.773462536285, 4.985152453167111], [1074.9672839358582, 5.0], [1148.698354997026, 5.332088578578345], [1231.1444133449063, 5.7911925907949975], [1271.5203320016637, 6.0], [1319.5079107728832, 6.242583078366364], [1414.2135623730828, 6.572107807311487], [1515.7165665103846, 6.725157855937032], [1624.5047927124563, 6.707768895527101], [1741.1011265922318, 6.577249036473599], [1866.065983073597, 6.416513925395727], [1999.9999999999802, 6.301274949638055], [2143.5469250725646, 6.272705391662295], [2297.396709994046, 6.321263991607349], [2462.2888266898062, 6.3863562228802095], [2639.01582154576, 6.371041071083907], [2828.427124746159, 6.164893868544625], [2894.131866377898, 6.0], [3031.4331330207615, 5.6724078079313], [3205.079582682539, 5.0], [3249.0095854249043, 4.836434204554365], [3412.2888967317763, 4.0], [3482.2022531844596, 3.6543682760998317], [3591.4333020218073, 3.0], [3732.1319661471844, 2.17983210280857], [3760.6342709591495, 2.0], [3920.0188220226287, 1.0], [3999.9999999999504, 0.5148273112375158], [4084.8880406157878, 0.0], [4252.041660479747, -1.0], [4287.093850145118, -1.202740692347492], [4435.559375022078, -2.0], [4594.793419988081, -2.8274908004628205], [4634.082422924136, -3.0], [4867.066842830885, -4.0], [4924.577653379601, -4.237070579267743], [5167.20134540589, -5.0], [5278.0316430915, -5.333844102761255], [5620.592478888303, -6.0], [5656.854249492303, -6.067807239338085], [6062.866266041501, -6.433286665712229], [6498.019170849792, -6.4521782971552], [6964.404506368902, -6.171749256515339], [7125.376214350315, -6.0], [7464.2639322943505, -5.647592415024167], [7956.3636250225545, -5.0], [7999.999999999872, -4.941101888504191]], 'plus_line': [[125.0, 3.6994280350757363], [126.19430756205921, 4.0], [130.07515477716078, 5.0], [133.93776968951957, 6.0], [133.9716828170366, 6.008072859749513], [138.9232943305439, 7.0], [143.5872943746293, 7.9753617364504485], [143.74912358485622, 8.0], [150.38533302075518, 9.0], [153.89305166811442, 9.52711796767602], [158.69450520148743, 10.0], [164.93848884661162, 10.585157546028322], [175.2183184319115, 11.0], [176.77669529663666, 11.056287689276797], [181.07214935668304, 11.0], [189.46457081379947, 10.887775626102615], [203.0630990890585, 10.176487524826587], [205.3389168116304, 10.0], [217.6376408240306, 9.101523287126248], [218.87485250294532, 9.0], [231.64776601341424, 8.0], [233.25824788420132, 7.881782208972571], [245.83545727862588, 7.000000000000001], [249.99999999999937, 6.726659138641011], [263.8120333718261, 6.0], [267.94336563407256, 5.788403819045292], [287.1745887492579, 5.129048876411988], [294.1765006201726, 5.0], [307.78610333622805, 4.735244592965362], [329.87697769322244, 4.580354105195765], [353.55339059327247, 4.578416054742628], [378.929141627598, 4.628845346092348], [406.12619817811606, 4.645030261061094], [435.2752816480601, 4.5752389183385205], [466.5164957684015, 4.4155559634021655], [499.9999999999975, 4.202561921668838], [533.44687984036, 4.0], [535.8867312681444, 3.983846349752095], [574.3491774985143, 3.77118601185907], [615.5722066724546, 3.573714351460309], [659.7539553864432, 3.3260035403823878], [701.5356431733987, 3.0], [707.1067811865431, 2.9543032461168504], [757.8582832551941, 2.4071136732686327], [793.2028482063611, 2.0], [812.2523963562301, 1.7747231093417677], [870.5505632961181, 1.1783355921668783], [897.4740195267557, 1.0], [933.0329915368008, 0.7558383648990493], [999.9999999999926, 0.6102555528610619], [1071.773462536285, 0.749333780603876], [1125.130769257231, 1.0], [1148.698354997026, 1.0999490447616962], [1231.1444133449063, 1.5287956778505114], [1319.5079107728832, 1.9590012755536093], [1331.5100336443977, 2.0], [1414.2135623730828, 2.253904637643629], [1515.7165665103846, 2.372916628898313], [1624.5047927124563, 2.3066843789173825], [1741.1011265922298, 2.107808839241808], [1797.1426666117575, 2.0], [1866.065983073597, 1.858611884889773], [1999.9999999999802, 1.665702626954522], [2143.5469250725646, 1.5959052926845347], [2297.396709994049, 1.641054849353523], [2462.2888266898062, 1.7328888768857944], [2639.01582154576, 1.7576621554291665], [2828.427124746159, 1.5877699669230791], [3031.4331330207615, 1.127914550183981], [3064.106133225531, 1.0], [3249.0095854249043, 0.28798760752666663], [3303.0893449111104, 0.0], [3482.2022531844555, -0.9177483701620084], [3495.2187908323053, -1.0], [3653.5119593024215, -2.0], [3732.1319661471844, -2.4633389200266786], [3811.419195075047, -3.0], [3966.6540135852883, -4.0], [3999.9999999999504, -4.20478725783743], [4121.1270403504395, -5.0], [4287.093850145118, -5.994961718525802], [4287.980184872368, -6.0], [4462.259955933325, -7.0], [4594.793419988081, -7.691368672954118], [4663.348175763802, -8.0], [4896.881170233659, -9.0], [4924.577653379601, -9.113662038928075], [5212.7599935943845, -10.0], [5278.031643091506, -10.191743245594083], [5656.854249492303, -10.870593858113331], [5837.243524306167, -11.0], [6062.866266041501, -11.16653129668297], [6498.0191708498005, -11.106121372371256], [6636.795294767123, -11.0], [6964.404506368894, -10.779478007022803], [7464.2639322943505, -10.311710278286844], [7823.462331431486, -10.0], [7999.999999999882, -9.853250096683052]], 'minus_line': [[125.0, 13.185366352496006], [128.42322246413582, 14.0], [133.1984357199621, 15.0], [133.9716828170366, 15.151521813875114], [137.8863086458311, 16.0], [143.03901716089175, 17.0], [143.5872943746293, 17.101753328721802], [149.23428244018586, 18.0], [153.8930516681145, 18.67550217024344], [157.65707442167283, 19.0], [164.93848884661162, 19.606217917985564], [176.77669529663666, 19.802269815277384], [189.46457081379947, 19.33319633177159], [193.75971488868083, 19.0], [203.0630990890585, 18.333081115414963], [206.6178494696053, 18.0], [217.5793136386462, 17.0], [217.63764082403046, 16.995037728173084], [228.65232014667396, 16.0], [233.25824788420132, 15.593937378692187], [240.910850902016, 15.0], [249.99999999999937, 14.30816796869655], [255.51547246376128, 14.0], [267.94336563407256, 13.336573383489956], [278.7715560822418, 13.0], [287.1745887492579, 12.758344201845944], [307.78610333622805, 12.552704794061036], [329.87697769322284, 12.570794172942199], [353.55339059327247, 12.64741142485634], [378.929141627598, 12.647948661370224], [406.12619817811606, 12.514556469347514], [435.2752816480601, 12.270411483184285], [466.0749376695008, 12.0], [466.5164957684021, 11.996659825157606], [499.9999999999975, 11.815997349776433], [535.8867312681438, 11.732012690873145], [574.3491774985143, 11.7104146346791], [615.5722066724546, 11.671093327357077], [659.7539553864432, 11.532126023522586], [707.1067811865431, 11.243377332710814], [735.2705318565622, 11.0], [757.8582832551932, 10.82181538309865], [812.2523963562301, 10.335994380029613], [851.5453352575131, 10.0], [870.5505632961181, 9.850580831406681], [933.0329915368008, 9.497075939668353], [999.9999999999926, 9.345052603781841], [1071.773462536285, 9.457153818699055], [1148.698354997026, 9.799598886173317], [1183.32437946442, 10.0], [1231.1444133449063, 10.285535417251733], [1319.5079107728832, 10.753296834679611], [1390.5187379531587, 11.0], [1414.2135623730828, 11.086255012779286], [1515.7165665103846, 11.250644028085539], [1624.5047927124563, 11.255338777381786], [1741.1011265922318, 11.176498955870269], [1866.065983073597, 11.09360611694924], [1999.9999999999827, 11.065744913345794], [2143.5469250725646, 11.114372705339832], [2297.396709994046, 11.214766614069628], [2462.2888266898062, 11.299993180119092], [2639.0158215457564, 11.274522779935445], [2828.427124746159, 11.02748774720417], [2838.0674676867125, 11.0], [3031.4331330207615, 10.50290648078463], [3151.462325557598, 10.0], [3249.0095854249043, 9.616163937024297], [3364.688900753873, 9.0], [3482.2022531844555, 8.39022539331516], [3546.7787982096747, 8.0], [3711.3227027249422, 7.000000000000001], [3732.1319661471844, 6.878125599126424], [3874.659966144236, 6.0], [3999.9999999999504, 5.208403397777856], [4035.2149264661616, 5.0], [4202.563505084013, 4.0], [4287.093850145118, 3.4945762620312246], [4381.107558424638, 3.0], [4566.816474364448, 2.0], [4594.7934199880865, 1.8544649932704362], [4792.23076145902, 1.0], [4924.577653379601, 0.42968601138423057], [5055.2289474586205, 0.0], [5278.031643091506, -0.710512960201376], [5411.499851859828, -1.0], [5656.854249492303, -1.4965311678536857], [6062.866266041508, -1.9264265634780542], [6485.451989611172, -2.0], [6498.019170849792, -2.0019061387881187], [6501.409670999815, -2.0], [6964.404506368894, -1.730386867377323], [7464.2639322943505, -1.1302184802194355], [7536.508702625763, -1.0], [7999.999999999882, -0.1368173254193921]]}",,,,tyrfqt,001,fr,2022-04-22_12h00.04.507,Continuous,2022.1.1,35.3073184109352,
22,0,22,0,2,0,2,0,,,,,,,,2.971876025028361,both,3999.9999999999995,-4.640715194150978,4.919650429245472e-05,0,72,['both'],0.0041727302595973015,None,None,509.606852900004,509.606852900004,0.20574873010627925,3.1776247551346404,509.8210952000227,509.606852900004,,,,,,,tyrfqt,001,fr,2022-04-22_12h00.04.507,Continuous,2022.1.1,35.3073184109352,
22,0,22,0,3,0,3,0,,,,,,,,2.971876025028361,both,,,,1,72,['both'],0.014681829838082194,None,None,512.8029260998592,512.8029260998592,0.217769029783085,3.189645054811446,513.0161109999754,512.8029260998592,,,,,,,tyrfqt,001,fr,2022-04-22_12h00.04.507,Continuous,2022.1.1,35.3073184109352,
22,0,22,0,4,0,4,0,,,,,,,,2.971876025028361,both,6349.604207872798,-3.3326347356630537,8.960501652231686e-05,0,73,['both'],0.016317930072546005,None,None,515.9885082000401,515.9885082000401,0.22444723010994494,3.196323255138306,516.2094386999961,515.9885082000401,,,,,,,tyrfqt,001,fr,2022-04-22_12h00.04.507,Continuous,2022.1.1,35.3073184109352,
22,0,22,0,5,0,5,0,,,,,,,,2.971876025028361,both,8000.0,-5.0,0.00010208689723347648,0,74,['both'],0.010878530098125339,None,None,519.1780101999175,519.1780101999175,0.21131913014687598,3.183195155175237,519.3995864999015,519.1780101999175,,,,,,,tyrfqt,001,fr,2022-04-22_12h00.04.507,Continuous,2022.1.1,35.3073184109352,
23,0,23,0,0,0,0,0,,,,,"[0.3333333333333333, 0.5833333333333334, 0.5833333333333334, 0.5833333333333334, 0.5833333333333334, 0.3333333333333333, 0.16666666666666666, 0.5833333333333334, 0.16666666666666666, 0.5833333333333334]",527.705856199842,None,1.8437054899692198,none,6727.171322029717,-1.1166356898347662,0.00012571071593742305,0,63,['both'],0.024159929947927594,None,None,528.5114344998728,None,0.2503793300129473,2.094084819982167,528.7378618000075,None,,,,,,,tyrfqt,001,fr,2022-04-22_12h00.04.507,Continuous,2022.1.1,35.3073184109352,
23,0,23,0,1,0,1,0,,,,,,,,1.9554065839014068,none,4489.8481932374925,-3.020660540799622,8.308814458683575e-05,0,64,['both'],0.011239530052989721,None,None,530.5765690999106,530.5765690999106,0.20969613012857735,2.165102714029984,530.7950152999256,530.5765690999106,,,,,,,tyrfqt,001,fr,2022-04-22_12h00.04.507,Continuous,2022.1.1,35.3073184109352,
23,0,23,0,2,0,2,0,,,,,,,,2.250483778639669,none,943.8743126816934,0.10529701440462613,4.297507976478901e-05,0,65,['both'],0.01048372988589108,None,None,532.7585630998947,532.7585630998947,0.21074982988648117,2.4612336085261504,532.9739337000065,532.7585630998947,,,,,,,tyrfqt,001,fr,2022-04-22_12h00.04.507,Continuous,2022.1.1,35.3073184109352,
23,0,23,0,3,0,3,0,,,,,,,,2.939530772038267,none,2118.9261887185903,-1.0642865482662935,6.851665807048209e-05,0,66,['both'],0.011256629833951592,None,None,535.2335808998905,535.2335808998905,0.2100957299116999,3.149626501949967,535.4582811999135,535.2335808998905,,,,,,,tyrfqt,001,fr,2022-04-22_12h00.04.507,Continuous,2022.1.1,35.3073184109352,
23,0,23,0,4,0,4,0,,,,,,,,1.605015848722037,none,,,,1,66,['both'],0.013350229943171144,None,None,538.3959625998978,538.3959625998978,0.21537852985784411,1.820394378579881,538.6163947999012,538.3959625998978,,,,,,,tyrfqt,001,fr,2022-04-22_12h00.04.507,Continuous,2022.1.1,35.3073184109352,
23,0,23,0,5,0,5,0,,,,,,,,2.253791763877496,none,1414.2135623730949,2.732122935375245,6.907410501685897e-05,0,67,['both'],0.012470030225813389,None,None,540.2185629999731,540.2185629999731,0.21345853013917804,2.467250294016674,540.4344051000662,540.2185629999731,,,,,,,tyrfqt,001,fr,2022-04-22_12h00.04.507,Continuous,2022.1.1,35.3073184109352,
23,0,23,0,6,0,6,0,,,,,,,,2.6132371079169587,none,7550.994501453549,-0.29056930414661775,0.0001624038069123572,0,68,['both'],0.01456132996827364,None,None,542.7001390999649,542.7001390999649,0.22405473003163934,2.837291837948598,542.9160394000355,542.7001390999649,,,,,,,tyrfqt,001,fr,2022-04-22_12h00.04.507,Continuous,2022.1.1,35.3073184109352,
23,0,23,0,7,0,7,0,,,,,,,,2.4104740480576647,none,629.9605249474365,4.119352154055733,8.222234903589068e-05,0,69,['both'],0.007780730025842786,None,['space'],545.5318507999182,545.5318507999182,0.20341163012199104,2.613885678179656,545.7463599999901,545.5318507999182,[-2.3691418999806046],,,,,,tyrfqt,001,fr,2022-04-22_12h00.04.507,Continuous,2022.1.1,35.3073184109352,
23,0,23,0,8,0,8,0,,,,,,,,2.6002478551639507,none,4000.0,0.0,8.394020090612804e-05,0,70,['both'],0.010788229992613196,None,None,548.1659170999192,548.1659170999192,0.21169982990249991,2.8119476850664507,548.3782647000626,548.1659170999192,,,,,,,tyrfqt,001,fr,2022-04-22_12h00.04.507,Continuous,2022.1.1,35.3073184109352,
23,0,23,0,9,0,9,0,,,,,,,,1.450467599662553,none,3174.802103936399,-0.1976711803664717,6.789181278304702e-05,0,71,"['both', 'none']",0.010594929801300168,None,None,550.9851633999497,550.9851633999497,0.21237192978151143,1.6628395294440643,551.2073594999965,550.9851633999497,,,,"{'estimation': [[125.0, 7.656089111609233], [131.50423330033624, 8.0], [133.9716828170366, 8.11899881331229], [143.58729437462938, 8.644521670436294], [150.44494526184704, 9.0], [153.89305166811442, 9.173815503986628], [164.9384888466117, 9.648781996650754], [175.5580193926502, 10.0], [176.77669529663666, 10.03912528899959], [189.46457081379947, 10.346932629573313], [203.0630990890585, 10.60667381664227], [217.6376408240306, 10.875485673542073], [223.3856453403471, 11.0], [233.25824788420132, 11.206875690495043], [249.99999999999937, 11.622848775455946], [263.8966785670532, 12.0], [267.94336563407256, 12.10913178031516], [287.1745887492579, 12.607506525018703], [306.01693140359913, 13.0], [307.78610333622805, 13.036516785672712], [329.87697769322244, 13.323582529222408], [353.55339059327247, 13.423638651031874], [378.929141627598, 13.346330670481555], [406.12619817811606, 13.145935819058744], [423.01635622340996, 13.0], [435.2752816480601, 12.900029365642403], [466.5164957684015, 12.678166707914468], [499.9999999999975, 12.508487375393084], [535.8867312681438, 12.366820814740926], [574.3491774985143, 12.187611808803794], [600.5442027143158, 12.0], [615.5722066724538, 11.893890509822203], [659.7539553864432, 11.438444954473141], [692.7893847480773, 11.0], [707.1067811865431, 10.817772381012874], [757.8582832551941, 10.090269526997425], [764.1081654665583, 10.0], [812.2523963562301, 9.338065724995957], [839.5609324481096, 9.0], [870.5505632961192, 8.628899596505944], [931.022345680661, 8.0], [933.0329915368008, 7.979394994056691], [999.9999999999926, 7.333201813845574], [1031.2640229197198, 7.0], [1071.773462536285, 6.5749736741354425], [1116.2366750064812, 6.0], [1148.698354997026, 5.59143957612055], [1186.5309517304593, 5.0], [1231.1444133449063, 4.332108392894645], [1250.312162185574, 4.0], [1310.8155347550137, 3.0], [1319.5079107728848, 2.8632615311119434], [1373.4188597522755, 2.0], [1414.2135623730828, 1.3863737982225657], [1445.9058264668859, 1.0], [1515.7165665103828, 0.1890535348027621], [1547.7355526859685, 0.0], [1624.5047927124563, -0.44109584847562916], [1741.101126592234, -0.3186185733366936], [1786.6934103098317, 0.0], [1866.065983073597, 0.550105308444653], [1908.9646468106419, 1.0], [1999.9999999999802, 1.944001152256831], [2005.1333251231665, 2.0], [2097.87956998904, 3.0], [2143.5469250725646, 3.479136631972639], [2207.14448591414, 4.0], [2297.396709994046, 4.713128312803058], [2377.805193297961, 5.0], [2462.2888266898062, 5.290046068611931], [2639.015821545763, 5.044319777117583], [2647.2067340957105, 5.0], [2828.427124746159, 4.064467738263721], [2837.4023394054557, 4.0], [2979.8608477497587, 3.0], [3031.4331330207615, 2.6501571151053085], [3128.9136093029197, 2.0], [3249.0095854249043, 1.2163272651545152], [3295.700165545902, 1.0], [3482.2022531844555, 0.15130867388203229], [3563.757918044571, 0.0], [3732.13196614718, -0.3059726162702751], [3999.9999999999504, -0.13398035568052766], [4060.8209968891324, 0.0], [4287.093850145118, 0.47775201478163176], [4503.546541270013, 1.0], [4594.793419988081, 1.2094529371610458], [4924.577653379601, 1.7298868650442865], [5278.031643091506, 1.8115375334275545], [5656.854249492303, 1.3966162374540527], [5855.85669732448, 1.0], [6062.866266041508, 0.6011518750124265], [6340.693685143861, 0.0], [6498.019170849792, -0.3296331732363229], [6894.765208865354, -1.0], [6964.404506368894, -1.11341718532387], [7464.2639322943505, -1.5147575812093743], [7999.999999999882, -1.4078725882115335]], 'plus_line': [[125.0, 1.576934790231725], [129.2558672373416, 2.0], [133.9716828170366, 2.4176483696511095], [142.65160918853115, 3.0], [143.5872943746293, 3.0576889906240705], [153.89305166811442, 3.5641153494540276], [164.42522865519948, 4.0], [164.93848884661162, 4.01974450485848], [176.77669529663666, 4.3933320695162745], [189.46457081379936, 4.728470786497644], [200.71698731374474, 5.0], [203.0630990890585, 5.051053970718306], [217.6376408240306, 5.370375336080531], [233.25824788420132, 5.727584243522583], [244.65338119662994, 6.0], [249.99999999999937, 6.116958866432986], [267.94336563407256, 6.51197308912478], [287.1745887492579, 6.917036087508964], [291.84205192850726, 7.0], [307.78610333622805, 7.261755126914631], [329.87697769322244, 7.498836803006589], [353.55339059327247, 7.586994222393946], [378.9291416275985, 7.528640011504663], [406.12619817811606, 7.383272484484193], [435.2752816480601, 7.227313654693484], [466.5164957684015, 7.099750103709112], [493.8371847691602, 7.0], [499.9999999999975, 6.976574805404571], [535.8867312681438, 6.79056640071849], [574.3491774985143, 6.509677397498894], [615.5722066724546, 6.128880752542415], [627.1666534914151, 6.0], [659.7539553864432, 5.635657263166855], [707.1067811865431, 5.068876916224101], [712.3024499338985, 5.0], [757.8582832551941, 4.409743089979901], [788.8298746244466, 4.0], [812.2523963562301, 3.6941220375821806], [865.9592201714695, 3.0], [870.5505632961181, 2.9404333797649005], [933.0329915368008, 2.1506363433633156], [945.3602593839355, 2.0], [999.9999999999926, 1.323067406224351], [1025.5158294909215, 1.0], [1071.773462536285, 0.413011517063674], [1101.3892770631664, 0.0], [1148.698354997026, -0.6450641543326426], [1171.561781154354, -1.0], [1231.1444133449063, -1.8787863496449793], [1238.541635925486, -2.0], [1302.138101171666, -3.0], [1319.5079107728848, -3.255805823445881], [1369.117615835066, -4.0], [1414.2135623730828, -4.624423494576645], [1446.4572019138402, -5.0], [1515.7165665103846, -5.765734619130907], [1553.777242761182, -6.0], [1624.5047927124563, -6.435960927017987], [1741.1011265922318, -6.415053453704059], [1807.3503597667702, -6.0], [1866.065983073597, -5.6496463982648795], [1930.7295705873862, -5.0], [1999.9999999999802, -4.311392684303419], [2028.5507454486885, -4.0], [2121.23230598112, -3.0], [2143.5469250725646, -2.7659101799871335], [2233.477463424649, -2.0], [2297.396709994046, -1.4734332019006375], [2411.895926675119, -1.0], [2462.2888266898062, -0.8072945147969948], [2639.01582154576, -0.9738094683026673], [2644.034293436339, -1.0], [2828.427124746159, -1.9345633146178431], [2837.202203684677, -2.0], [2972.263035939374, -3.0], [3031.433133020758, -3.416209552578854], [3110.7930436514507, -4.0], [3249.0095854249043, -4.971547476543311], [3254.405314496312, -5.0], [3444.301762332365, -6.0], [3482.2022531844555, -6.195341743222247], [3732.1319661471844, -6.763817866034694], [3999.9999999999504, -6.617589885616877], [4252.916098517658, -6.0], [4287.093850145118, -5.922546293172249], [4594.793419988081, -5.038292181990368], [4611.679504595548, -5.0], [4924.577653379601, -4.354869088281609], [5278.031643091506, -4.14744799232743], [5656.854249492303, -4.537296821711193], [5880.863320845032, -5.0], [6062.866266041508, -5.372817976757528], [6341.552740639667, -6.0], [6498.019170849792, -6.345119362682334], [6894.163673254901, -7.0], [6964.404506368894, -7.114754067614333], [7464.2639322943505, -7.516520072287836], [7999.999999999882, -7.590913786303146]], 'minus_line': [[125.0, 13.850030592345437], [133.9716828170366, 13.95510185040192], [134.9307325722707, 14.0], [143.5872943746293, 14.405805332053403], [153.89305166811442, 14.944258935505475], [155.12638747308253, 14.999999999999998], [164.93848884661162, 15.448766045116619], [176.77669529663655, 15.816873361431156], [186.03614422685982, 16.0], [189.46457081379947, 16.06962003038375], [203.0630990890585, 16.27178640623819], [217.6376408240306, 16.500504858891674], [233.25824788420132, 16.844813048795327], [238.325545589846, 17.0], [249.99999999999937, 17.369945313887435], [267.75493535237894, 18.0], [267.94336563407256, 18.006936514736516], [287.1745887492579, 18.679097771454842], [299.61304709672663, 19.0], [307.78610333622805, 19.21706532069046], [329.87697769322244, 19.533795749071395], [353.55339059327247, 19.581116428481323], [378.929141627598, 19.388523271993172], [406.12619817811606, 19.021117310635596], [407.47589309655035, 19.0], [435.2752816480601, 18.617596058871584], [466.5164957684015, 18.265690705387833], [499.9999999999975, 18.059130328655147], [535.8867312681438, 18.013980404659605], [574.3491774985143, 18.02484100160657], [583.7979893667821, 18.0], [615.5722066724546, 17.922900434637107], [659.7539553864432, 17.577345316735524], [702.2640079665474, 17.0], [707.1067811865431, 16.93836121490648], [757.8582832551941, 16.130598157868118], [765.9945921832143, 16.0], [812.2523963562301, 15.306321281997702], [836.3446924493522, 15.0], [870.5505632961181, 14.593732891359434], [933.0329915368008, 14.011572512050584], [934.4348394552289, 14.0], [999.9999999999926, 13.494082364426845], [1052.4915126917954, 13.0], [1071.773462536285, 12.827569503539836], [1137.1855075879255, 12.0], [1148.698354997026, 11.859858181181869], [1200.9643639849455, 11.0], [1231.1444133449063, 10.516649910094955], [1258.5126342626934, 10.0], [1312.1633514831376, 9.0], [1319.5079107728832, 8.869587060893892], [1368.8105958143383, 8.0], [1414.2135623730828, 7.211964668660237], [1430.2517499243206, 7.0], [1508.1751060003494, 6.0], [1515.7165665103846, 5.907526008845263], [1624.5047927124563, 5.3224721660076675], [1741.1011265922298, 5.6111716038255555], [1785.526527324354, 6.0], [1866.065983073597, 6.709445831950613], [1889.8828386003581, 7.0], [1972.187147591927, 8.0], [1999.9999999999802, 8.329674640458261], [2055.1932930680537, 9.0], [2141.819788034605, 10.0], [2143.5469250725646, 10.019772383475273], [2256.7553097391824, 11.0], [2297.396709994046, 11.337411848409985], [2462.2888266898062, 11.88531427147659], [2639.01582154576, 11.55183730871438], [2731.8858226943803, 11.0], [2828.427124746159, 10.454986148158497], [2889.31875700631, 10.0], [3024.813129233555, 9.0], [3031.4331330207615, 8.953172660679847], [3175.9902724697636, 8.0], [3249.0095854249043, 7.523572254754338], [3368.6310199675963, 7.0], [3482.2022531844596, 6.518634354748462], [3732.1319661471844, 6.139737647398055], [3999.9999999999504, 6.373083405288636], [4287.093850145118, 6.971858458533709], [4299.877168396555, 7.0], [4594.793419988081, 7.6397267666305435], [4894.382711544293, 8.0], [4924.577653379601, 8.036557233341439], [5278.031643091506, 8.005158411676028], [5281.80386924013, 8.0], [5656.854249492303, 7.535145306821507], [5917.341456782191, 7.0], [6062.866266041516, 6.718041179343092], [6388.624779707049, 6.0], [6498.019170849792, 5.76973959335532], [6930.949572974666, 5.000000000000001], [6964.404506368894, 4.943783748140373], [7464.2639322943505, 4.565187271271819], [7999.999999999882, 4.9215689700714655]]}",,,tyrfqt,001,fr,2022-04-22_12h00.04.507,Continuous,2022.1.1,35.3073184109352,
24,0,24,0,0,0,0,0,,,,,"[0.5833333333333334, 0.3333333333333333, 0.3333333333333333, 0.5833333333333334, 0.5833333333333334, 0.5833333333333334, 0.16666666666666666, 0.3333333333333333, 0.16666666666666666, 0.16666666666666666]",556.0142049998976,None,1.460128710794725,time,690.9564399838883,11.923733126664242,0.00018081493508967508,0,68,"['both', 'none']",0.024474929785355926,None,None,556.7366430000402,None,0.22490372974425554,1.6850324405389805,556.9473029999062,None,,,,,,,tyrfqt,001,fr,2022-04-22_12h00.04.507,Continuous,2022.1.1,35.3073184109352,
24,0,24,0,1,0,1,0,,,,,,,,1.460128710794725,time,615.5722066724584,20.0,0.000534153907348926,0,69,"['both', 'none']",0.013388430001214147,None,None,558.4170333000366,558.4170333000366,0.2185247300658375,1.6786534408605625,558.633120500017,558.4170333000366,,,,,,,tyrfqt,001,fr,2022-04-22_12h00.04.507,Continuous,2022.1.1,35.3073184109352,
24,0,24,0,2,0,2,0,,,,,,,,1.460128710794725,time,274.2062449236566,10.411576579442848,0.00047029750311335604,0,70,"['both', 'none']",0.010313629871234298,None,['space'],560.0924984000158,560.0924984000158,0.2108308298047632,1.6709595405994881,560.3103741998784,560.0924984000158,[-1.3296203999780118],,,,,,tyrfqt,001,fr,2022-04-22_12h00.04.507,Continuous,2022.1.1,35.3073184109352,
24,0,24,0,3,0,3,0,,,,,,,,1.460128710794725,time,870.5505632961246,9.60246690584185,0.00012195990423463948,0,71,"['both', 'none', 'time']",0.008250429993495345,None,None,561.7745270000305,561.7745270000305,0.20702593005262315,1.667154640847348,561.991036699852,561.7745270000305,,,,,"{'estimation': [[125.0, 9.066589841436972], [125.8435230177986, 9.0], [133.9716828170366, 8.408830074237255], [143.5872943746293, 8.694993236373332], [146.07080835237048, 9.0], [153.89305166811442, 9.939240938994846], [154.22183455405445, 10.0], [159.68563481912258, 11.0], [164.93848884661162, 11.930925432423294], [165.2755854406792, 12.0], [170.19359109685422, 13.0], [175.2684287033495, 14.0], [176.77669529663666, 14.288700969179825], [180.6520029042198, 15.0], [186.22682594530175, 16.0], [189.46457081379947, 16.56109595840146], [192.72134092478973, 17.0], [200.31610426730109, 18.0], [203.0630990890585, 18.35099010622919], [211.8834667429452, 19.0], [217.6376408240306, 19.410612922484958], [233.25824788420132, 19.69224861743826], [249.99999999999937, 19.340371864712836], [258.4126362054813, 19.0], [267.94336563407256, 18.630720843413137], [284.28521143969596, 18.0], [287.1745887492579, 17.891699194454258], [307.78610333622805, 17.419780391023195], [329.87697769322244, 17.407509496992922], [353.55339059327247, 17.91035461245562], [355.94966362328273, 18.0], [378.929141627598, 18.838779886508256], [382.6318473467944, 19.0], [406.12619817811606, 19.976271341334083], [406.7457110540044, 20.0], [434.3161041347789, 21.0], [435.2752816480601, 21.032975233923988], [466.5164957684015, 21.7066903673442], [499.9999999999975, 21.749101458097833], [535.8867312681438, 21.026368148631022], [536.5720858817281, 21.0], [562.6522548256551, 20.0], [574.3491774985143, 19.55274517180374], [585.248202311965, 19.0], [605.1117817278717, 18.0], [615.5722066724546, 17.481972159368432], [624.2415762522116, 17.0], [642.5272981652249, 16.0], [659.7539553864432, 15.087077574890351], [661.4022549725746, 15.0], [680.7362455557337, 14.0], [700.8718900158575, 13.0], [707.1067811865431, 12.702149278326448], [723.7860722006482, 12.0], [748.6653853068406, 11.0], [757.8582832551941, 10.647668375774138], [780.8880385827308, 10.0], [812.2523963562301, 9.168353439479626], [824.1612035507974, 9.0], [870.5505632961181, 8.378552964788826], [933.0329915368008, 8.235058683854811], [999.9999999999939, 8.54747720373564], [1068.6543374205582, 9.0], [1071.773462536285, 9.02031001724862], [1148.698354997026, 9.327610414111088], [1231.1444133449063, 9.190824063392801], [1253.5617261580796, 9.0], [1319.5079107728832, 8.458897863791872], [1351.6401971373155, 8.0], [1414.2135623730828, 7.146175167618032], [1422.485139121615, 7.0], [1480.9026040616586, 6.0], [1515.7165665103846, 5.433064485926353], [1540.6927720923823, 5.0], [1600.5583416149439, 4.0], [1624.5047927124563, 3.6174429875410468], [1668.8019817188474, 3.0], [1741.1011265922318, 2.0400298474909526], [1745.6908120129553, 2.0], [1865.7409355145649, 1.0], [1866.065983073597, 0.9974093068937364], [1999.9999999999802, 0.6753778260636096], [2105.6342329533954, 1.0], [2143.5469250725646, 1.1132536266378532], [2268.1454829054255, 2.0], [2297.396709994046, 2.2043884678119827], [2382.9210290642914, 3.0], [2462.2888266898062, 3.7288785320734608], [2490.6746029464243, 4.0], [2596.0261805110586, 5.0], [2639.01582154576, 5.402464901376806], [2712.561025308837, 6.0], [2828.427124746159, 6.922729483524911], [2842.3478229207385, 7.0], [3027.463569858928, 8.0], [3031.4331330207615, 8.020904070077373], [3249.0095854249043, 8.492234786464344], [3482.2022531844555, 8.222540798587588], [3535.4421051329655, 8.0], [3732.1319661471844, 7.211732683692972], [3765.8198933148246, 7.0], [3928.546036023513, 6.0], [3999.9999999999504, 5.5741691902855734], [4079.2626273786345, 5.0], [4219.387255639502, 4.0], [4287.093850145118, 3.527779141180949], [4360.991481965497, 3.0], [4502.420616438429, 2.0], [4594.793419988081, 1.3607029648378075], [4653.905313224953, 1.0], [4819.614750163092, 0.0], [4924.577653379601, -0.6192797743940612], [5011.393683833869, -1.0], [5244.327324449652, -2.0], [5278.031643091506, -2.1416902619512785], [5646.545703820948, -3.0], [5656.854249492303, -3.0233866424687985], [6062.866266041508, -3.1990763422801685], [6238.460786554081, -3.0], [6498.019170849792, -2.718052919696724], [6829.224701578263, -2.0], [6964.404506368894, -1.7215364809705251], [7230.769458557625, -1.0], [7464.2639322943505, -0.3964183251606028], [7608.504138523008, 0.0], [7974.473765416872, 1.0], [7999.999999999872, 1.0693725096167004]], 'plus_line': [[125.0, -0.09615001512779764], [133.9716828170366, -0.40217406497229813], [143.58729437462938, -0.13341968847328647], [144.74815725262118, 0.0], [153.61599042214127, 1.0], [153.89305166811442, 1.0305133889312699], [159.33323329457716, 2.0], [164.84567329674675, 3.0], [164.93848884661162, 3.016392286265112], [169.83786755621966, 4.0], [174.69939656885828, 5.0], [176.77669529663666, 5.420192353256036], [179.98271322581846, 6.0], [185.44270254177766, 7.0], [189.46457081379947, 7.7352814923393645], [191.46888413287766, 8.0], [199.08470050541, 9.0], [203.0630990890585, 9.518045724559016], [209.74290400507476, 10.0], [217.6376408240306, 10.55194288161288], [233.25824788420132, 10.843118793853936], [249.99999999999937, 10.540902564404556], [264.6072266493023, 10.0], [267.94336563407256, 9.87867081087554], [287.1745887492579, 9.075840691869917], [289.40707842103524, 9.0], [307.78610333622805, 8.371403457741671], [329.87697769322244, 8.042746151054882], [353.55339059327247, 8.283254821050011], [374.2728125014672, 9.0], [378.929141627598, 9.154978552838555], [396.3413650590878, 10.0], [406.12619817811606, 10.454371998413208], [417.74677363255506, 11.0], [435.2752816480601, 11.779339347092092], [443.05382731578203, 12.0], [466.5164957684015, 12.620872243908067], [499.9999999999975, 12.60259055275889], [522.1243440660269, 12.0], [535.8867312681438, 11.627973124268635], [549.4358806617515, 11.0], [571.6439564493829, 9.999999999999998], [574.3491774985143, 9.879987257812822], [590.201654683831, 9.0], [609.1089602885355, 8.0], [615.5722066724546, 7.669970646810632], [627.6194967703591, 7.0], [646.4495654958686, 6.0], [659.7539553864432, 5.337856050267344], [666.6422146544363, 5.0], [687.7833855953278, 4.0], [707.1067811865431, 3.1618223805455887], [711.3591981282999, 3.0], [738.5890498466267, 2.0], [757.8582832551941, 1.3490403645712452], [771.981138214555, 1.0], [812.2523963562301, 0.06478723239749773], [817.5729787305443, 0.0], [870.5505632961181, -0.6293007917340675], [933.0329915368008, -0.7622442061755547], [999.9999999999926, -0.5324329482910946], [1071.773462536285, -0.21275721577619405], [1148.698354997026, -0.08320077139024787], [1231.1444133449063, -0.3503872457165031], [1307.7930551348845, -1.0], [1319.5079107728832, -1.0976970484291155], [1387.8182046924433, -2.0], [1414.2135623730828, -2.330961619167649], [1455.4059048658507, -3.0], [1515.7165665103846, -3.9095609678778738], [1521.2148735167798, -4.0], [1583.6837846671376, -5.0], [1624.5047927124563, -5.60549527389999], [1654.3458068003197, -6.0], [1734.6829719306397, -7.000000000000001], [1741.1011265922318, -7.07696700204794], [1861.8556075671568, -8.0], [1866.065983073597, -8.030954743409678], [1999.9999999999827, -8.292967802672912], [2091.438187408668, -8.0], [2143.5469250725646, -7.84486682130003], [2271.1678480743617, -7.0], [2297.396709994046, -6.8318844618550045], [2396.899450939338, -6.0], [2462.2888266898062, -5.45666002154521], [2515.4448486841043, -5.0], [2631.58662027688, -4.0], [2639.01582154576, -3.937103224205261], [2765.3830505084798, -3.0], [2828.427124746159, -2.5361559745318045], [2930.1388163782235, -2.0], [3031.4331330207656, -1.4819456570717335], [3243.349883723883, -1.0], [3249.0095854249043, -0.9878818629797135], [3261.020857980316, -1.0], [3482.2022531844555, -1.2238338255002716], [3672.75742028423, -2.0], [3732.1319661471844, -2.235287853622034], [3847.6748785721197, -3.0], [3999.9999999999504, -3.9557383832695043], [4005.5444386785666, -4.0], [4130.334768856287, -5.0], [4262.492981697767, -6.0], [4287.093850145118, -6.182248017867118], [4388.628543321845, -7.0], [4517.740994298306, -8.0], [4594.793419988081, -8.572268075201984], [4657.281921420703, -9.0], [4806.347990154524, -10.0], [4924.577653379601, -10.75265546699253], [4975.424722532489, -11.0], [5185.50378168096, -12.0], [5278.0316430915, -12.423093507848282], [5503.9233867558, -13.0], [5656.854249492303, -13.38095045119935], [6062.866266041508, -13.538383376240086], [6426.677412753535, -13.0], [6498.019170849792, -12.902106836989685], [6825.535403472691, -12.0], [6964.404506368902, -11.639016187769545], [7166.368624340164, -11.0], [7464.2639322943505, -10.092536150588442], [7502.654186041188, -10.0], [7924.27705997695, -9.0], [7999.999999999882, -8.822879045921244]], 'minus_line': [[125.0, 18.569625825856868], [129.38852124858158, 18.0], [133.9716828170366, 17.451913238386062], [143.5872943746293, 17.735982114489893], [145.51250841745505, 18.0], [153.02608407873683, 19.0], [153.89305166811442, 19.112688701384826], [158.3607199728224, 20.0], [163.7467076781301, 21.0], [164.93848884661162, 21.21443747137357], [168.56611263645618, 22.0], [173.44860230966188, 23.0], [176.77669529663666, 23.639732723682997], [178.6279540296042, 24.0], [183.89711958078937, 25.0], [189.46457081379947, 25.971246066980964], [189.6647027481632, 26.0], [196.68158192339337, 27.0], [203.0630990890584, 27.84278594157439], [205.05976714460763, 28.0], [217.6376408240306, 28.957313084840095], [220.06047861845067, 29.000000000000004], [233.25824788420132, 29.23457932232116], [242.05481455359066, 29.0], [249.99999999999937, 28.80431740397495], [267.94336563407256, 28.01936423744051], [268.4613581001512, 28.0], [287.1745887492579, 27.335770403745034], [307.78610333622805, 27.08956830673381], [329.87697769322244, 27.4349422163842], [346.1826863656207, 28.0], [353.55339059327247, 28.257797469032425], [370.87970830789175, 29.0], [378.929141627598, 29.337695553156053], [395.1721980788316, 30.0], [406.12619817811606, 30.429889783006743], [423.8850281455026, 31.0], [435.2752816480601, 31.353004471899865], [466.5164957684015, 31.980969732011765], [469.5643768192936, 32.0], [499.9999999999975, 32.19645721585453], [516.9515292354807, 32.0], [535.8867312681438, 31.789041564944835], [561.1954796746438, 31.000000000000004], [574.3491774985143, 30.589749968619657], [586.5449064863487, 30.0], [607.0094860095314, 28.999999999999996], [615.5722066724546, 28.582811579864938], [625.5476717025397, 28.0], [642.5856964719972, 27.0], [659.4967424417923, 26.0], [659.7539553864432, 25.985225458542775], [676.6554736919306, 25.0], [693.6668834603292, 24.0], [707.1067811865431, 23.220675204714514], [711.4976068330666, 23.0], [731.789852335376, 22.0], [752.2441649958159, 21.0], [757.8582832551941, 20.73541771781842], [779.2177086733285, 20.0], [809.0574084661293, 19.0], [812.252396356229, 18.897748616188153], [863.8513155906336, 18.0], [870.5505632961192, 17.890494299387154], [933.0329915368008, 17.684896307258267], [987.8494121710424, 18.0], [999.9999999999926, 18.07065451678826], [1071.773462536285, 18.733171939151212], [1111.6817475512087, 19.0], [1148.698354997026, 19.25165256508791], [1231.1444133449063, 19.24695041691214], [1259.1788135441998, 19.0], [1319.5079107728832, 18.49623645354797], [1350.536301907367, 18.0], [1414.2135623730828, 17.0079507947985], [1414.6125582789666, 17.0], [1466.1962640105364, 16.0], [1515.7165665103846, 15.049412268612029], [1518.2605429902592, 15.0], [1570.991106634111, 14.0], [1624.0080666139686, 13.0], [1624.5047927124563, 12.990990650427445], [1689.6683081903177, 12.0], [1741.1011265922318, 11.229469905469529], [1764.9322994224083, 11.0], [1866.065983073597, 10.063258277285733], [1888.867347718538, 10.0], [1999.9999999999802, 9.714448417303405], [2078.10063120991, 10.0], [2143.5469250725646, 10.241618066233862], [2231.4891853190825, 11.0], [2297.396709994046, 11.555573529852051], [2336.6306879806816, 12.0], [2426.443008730668, 13.0], [2462.2888266898062, 13.38947735741294], [2515.3038737522893, 14.0], [2604.617869793899, 15.0], [2639.01582154576, 15.375382127024448], [2704.749257630799, 16.0], [2814.3375208701486, 17.0], [2828.427124746159, 17.12652997056507], [2973.777211612868, 18.0], [3031.4331330207615, 18.334877486104144], [3249.0095854249084, 18.780290151074652], [3482.2022531844555, 18.397143984313672], [3565.532650000382, 18.0], [3732.1319661471844, 17.241998817374455], [3768.485985822989, 17.0], [3921.9398424632454, 16.0], [3999.9999999999504, 15.501805094717431], [4068.9283635373627, 15.0], [4206.47729243601, 14.0], [4287.093850145118, 13.419243044080787], [4347.177768098092, 13.0], [4490.335405734131, 12.0], [4594.7934199880865, 11.269283940814438], [4640.473460458334, 11.0], [4811.026300799366, 10.0], [4924.577653379601, 9.334236503499326], [5004.342303194829, 9.0], [5245.516412000696, 8.0], [5278.031643091506, 7.867958695436062], [5656.854249492303, 7.059034520517892], [5866.007080757017, 7.0], [6062.866266041508, 6.948226854144245], [6108.970160600763, 7.0], [6498.019170849792, 7.436411444966232], [6779.330160213448, 8.0], [6964.4045063688845, 8.360749394301289], [7200.700370921329, 9.0], [7464.2639322943505, 9.68360858274748], [7554.0888958008145, 10.000000000000002], [7838.819624087149, 11.0], [7999.999999999872, 11.552834165797613]]}",,tyrfqt,001,fr,2022-04-22_12h00.04.507,Continuous,2022.1.1,35.3073184109352,
