tTrials.thisRepN,tTrials.thisTrialN,tTrials.thisN,tTrials.thisIndex,blocks.thisRepN,blocks.thisTrialN,blocks.thisN,blocks.thisIndex,trials.thisRepN,trials.thisTrialN,trials.thisN,trials.thisIndex,tStart_text.started,tStart_text.stopped,Prediction,practice_Frequency,practice_Level,practice_Psychopy_Level,practice_isCatchTrial,Practice_trial_detection,practice_Cue_Delays,practice_Cue_Frequencies,practice_Interval,practice_Cue_Intensities,tCue_visual_cue.started,tCue_visual_cue.stopped,tProbe_visual_cue.started,tProbe_visual_cue.stopped,tFeedback.keys,tFeedback.corr,tFeedback.rt,tFeedback.started,tFeedback.stopped,tToo_late.keys,tToo_late.corr,tToo_early.keys,tToo_early.corr,more_instructions.started,more_instructions.stopped,readyy.keys,readyy.rt,readyy.started,readyy.stopped,txt_rhythm.started,txt_rhythm.stopped,sound_1.started,sound_1.stopped,sound_2.started,sound_2.stopped,sound_3.started,sound_3.stopped,sound_4.started,sound_4.stopped,cross.started,cross.stopped,sound_5.started,sound_5.stopped,circle.started,circle.stopped,rhythm_ready.keys,rhythm_ready.rt,rhythm_ready.started,rhythm_ready.stopped,rhytm_ready_txt.started,rhytm_ready_txt.stopped,txt_freq.started,txt_freq.stopped,sound_6.started,sound_6.stopped,sound_7.started,sound_7.stopped,sound_8.started,sound_8.stopped,sound_9.started,sound_9.stopped,cross_2.started,cross_2.stopped,sound_10.started,sound_10.stopped,circle_2.started,circle_2.stopped,freq_ready.keys,freq_ready.rt,freq_ready.started,freq_ready.stopped,freq_ready_txt.started,freq_ready_txt.stopped,txt_freq_2.started,txt_freq_2.stopped,sound_11.started,sound_11.stopped,sound_12.started,sound_12.stopped,sound_13.started,sound_13.stopped,sound_14.started,sound_14.stopped,cross_3.started,cross_3.stopped,sound_15.started,sound_15.stopped,circle_3.started,circle_3.stopped,freq_ready_2.keys,freq_ready_2.rt,freq_ready_2.started,freq_ready_2.stopped,freq_ready_txt_2.started,freq_ready_txt_2.stopped,txt_freq_3.started,txt_freq_3.stopped,sound_16.started,sound_16.stopped,sound_17.started,sound_17.stopped,sound_18.started,sound_18.stopped,sound_19.started,sound_19.stopped,cross_4.started,cross_4.stopped,sound_20.started,sound_20.stopped,circle_4.started,circle_4.stopped,freq_ready_txt_3.started,freq_ready_txt_3.stopped,tStart_text_2.started,tStart_text_2.stopped,this_trial_is.started,this_trial_is.stopped,Frequency,Level,Psychopy_Level,Real trial detection,Cue Delays,Cue Frequencies,Interval,Cue Intensities,Catch trial,cue_visual_cue.started,cue_visual_cue.stopped,probe_visual_cue.started,probe_visual_cue.stopped,feedback.keys,feedback.corr,feedback.rt,feedback.started,feedback.stopped,answer_too_late.keys,answer_too_late.corr,answer_too_early.keys,answer_too_early.corr,Catch trial answer,Audiogram_time,Audiogram_frequency,Audiogram_none,Audiogram_both,participant,session,Language (english or french),Skip training? (1 for yes),Resume previous experiment,date,expName,psychopyVersion,frameRate,
0,0,0,0,,,,,,,,,16.059125800151378,None,none,1000,30,0.0013930605843148849,False,1,"[0.7154798634666768, 0.5159042299769028, 0.7226424786586453, 0.5276957860373157]","[6459.8467779044595, 6745.811034449819, 139.1871107103062, 239.1307896224364]",None,"[30, 30, 30, 30]",46.61461720010266,49.504314000019804,49.504314000019804,50.70487290015444,['space'],1,[0.8998487999197096],49.504314000019804,51.2514194000978,None,1,None,1,,,,,,,,,,,,,,,,,,,,,,,,,,,,,,,,,,,,,,,,,,,,,,,,,,,,,,,,,,,,,,,,,,,,,,,,,,,,,,,,,,,,,,,,,,,,,,,,,,,,,,,,,,,,,,,,,,,,,,,,,,rehvhf,001,fr,0,0,2022-05-11_11h05.37.614,Cluster,2022.1.1,36.13552268322738,
1,0,1,0,,,,,,,,,,,time,2500,30,0.002716251657462167,False,1,"[0.5794976590306239, 0.5794976590306239, 0.5794976590306239, 0.5794976590306239]","[131.99828950984812, 493.47753524108526, 979.9889814670839, 2868.7133610281976]",None,"[30, 30, 30, 30]",58.846371500054374,61.52413669996895,61.52413669996895,62.732024600030854,['space'],1,[0.896348999813199],61.52413669996895,63.31137440004386,None,1,None,1,,,,,,,,,,,,,,,,,,,,,,,,,,,,,,,,,,,,,,,,,,,,,,,,,,,,,,,,,,,,,,,,,,,,,,,,,,,,,,,,,,,,,,,,,,,,,,,,,,,,,,,,,,,,,,,,,,,,,,,,,,rehvhf,001,fr,0,0,2022-05-11_11h05.37.614,Cluster,2022.1.1,36.13552268322738,
2,0,2,0,,,,,,,,,,,time,6000,30,0.003664122665694519,True,1,"[0.4239387779271808, 0.4239387779271808, 0.4239387779271808, 0.4239387779271808]","[3698.7163665108346, 4133.685416627132, 545.7090182775096, 2836.267531193167]",None,"[30, 30, 30, 30]",66.45710590016097,68.66190479998477,68.66190479998477,69.86179240001366,None,1,,68.66190479998477,70.29473230009899,None,1,None,1,,,,,,,,,,,,,,,,,,,,,,,,,,,,,,,,,,,,,,,,,,,,,,,,,,,,,,,,,,,,,,,,,,,,,,,,,,,,,,,,,,,,,,,,,,,,,,,,,,,,,,,,,,,,,,,,,,,,,,,,,,rehvhf,001,fr,0,0,2022-05-11_11h05.37.614,Cluster,2022.1.1,36.13552268322738,
3,0,3,0,,,,,,,,,,,none,440,30,0.0023562289915021436,False,1,"[0.6446022852486791, 0.6657265466771592, 0.7608235782800356, 0.7887102890101625]","[6854.021571066324, 131.93256821621114, 156.2844085997981, 3025.446311978174]",None,"[30, 30, 30, 30]",75.6609098999761,78.65240869997069,78.65240869997069,79.86752480012365,['space'],1,[1.1282842000946403],78.65240869997069,80.64868029998615,None,1,None,1,,,,,,,,,,,,,,,,,,,,,,,,,,,,,,,,,,,,,,,,,,,,,,,,,,,,,,,,,,,,,,,,,,,,,,,,,,,,,,,,,,,,,,,,,,,,,,,,,,,,,,,,,,,,,,,,,,,,,,,,,,rehvhf,001,fr,0,0,2022-05-11_11h05.37.614,Cluster,2022.1.1,36.13552268322738,
4,0,4,0,,,,,,,,,,,time,250,30,0.005296268625886445,True,1,"[0.7654173222326621, 0.7654173222326621, 0.7654173222326621, 0.7654173222326621]","[6897.279254454751, 350.6117240504761, 2566.6622418055026, 334.3715480990342]",None,"[30, 30, 30, 30]",85.37132400018163,88.59167300001718,88.59167300001718,89.79281100002117,None,1,,88.59167300001718,90.57858680002391,None,1,None,1,,,,,,,,,,,,,,,,,,,,,,,,,,,,,,,,,,,,,,,,,,,,,,,,,,,,,,,,,,,,,,,,,,,,,,,,,,,,,,,,,,,,,,,,,,,,,,,,,,,,,,,,,,,,,,,,,,,,,,,,,,rehvhf,001,fr,0,0,2022-05-11_11h05.37.614,Cluster,2022.1.1,36.13552268322738,
,,,,,,,,,,,,,,,,,,,,,,,,,,,,,,,,,,,,,95.73000600002706,None,space,67.58674109983258,95.73000600002706,None,,,,,,,,,,,,,,,,,,,,,,,,,,,,,,,,,,,,,,,,,,,,,,,,,,,,,,,,,,,,,,,,,,,,,,,,,,,,,,,,,,,,,,,,,,,,,,,,,,,,,,,,,,,,,,,,,,,,rehvhf,001,fr,0,0,2022-05-11_11h05.37.614,Cluster,2022.1.1,36.13552268322738,
,,,,,,,,,,,,,,,,,,,,,,,,,,,,,,,,,,,,,,,,,,,163.38065210008062,164.40449730004184,164.84518667995,None,165.32955568013713,165.5451095001772,165.830307880044,166.05044679995626,166.3478404801339,None,164.73114050016738,166.53714610007592,166.83115888000466,167.0508761999663,166.53714610007592,167.3491957001388,b,2.8820488997735083,167.53787330002524,None,,,,,,,,,,,,,,,,,,,,,,,,,,,,,,,,,,,,,,,,,,,,,,,,,,,,,,,,,,,,,,,,,,,,,,,,,,,,,,,,,,,,,,,,,,,,,,,,rehvhf,001,fr,0,0,2022-05-11_11h05.37.614,Cluster,2022.1.1,36.13552268322738,
,,,,,,,,,,,,,,,,,,,,,,,,,,,,,,,,,,,,,,,,,,,,,,,,,,,,,,,,,,,,,,,167.53787330002524,None,170.48556530009955,171.49773699999787,171.93751148004085,172.15605140011758,172.2440151801333,172.46426800009795,172.94322828003206,None,173.33914578016848,173.5670390999876,171.8458483000286,173.65104070003144,173.93808948001825,174.15782560012303,173.65104070003144,174.4567790001165,space,1.9351955000311136,174.66103820013814,None,,,,,,,,,,,,,,,,,,,,,,,,,,,,,,,,,,,,,,,,,,,,,,,,,,,,,,,,,,,,,,,,,,,,,,,,,,rehvhf,001,fr,0,0,2022-05-11_11h05.37.614,Cluster,2022.1.1,36.13552268322738,
,,,,,,,,,,,,,,,,,,,,,,,,,,,,,,,,,,,,,,,,,,,,,,,,,,,,,,,,,,,,,,,,,,,,,,,,,,,,,,,,,,,,,174.66103820013814,None,176.6611133001279,177.68962320010178,178.13250937997364,178.35872320015915,178.60926848007367,178.8296156001743,179.12705027996563,179.34680290007964,179.61026118006558,179.82674950012006,178.01502829999663,179.82674950012006,180.11082348003984,180.3312605000101,179.82674950012006,180.64983840007335,space,1.1468843000475317,180.82537490013056,None,,,,,,,,,,,,,,,,,,,,,,,,,,,,,,,,,,,,,,,,,,,,,,,,,,,,rehvhf,001,fr,0,0,2022-05-11_11h05.37.614,Cluster,2022.1.1,36.13552268322738,
,,,,0,0,0,0,0,0,0,0,,,frequency,,,,,,,,,,,,,,,,,,,,,,,,,,,,,,,,,,,,,,,,,,,,,,,,,,,,,,,,,,,,,,,,,,,,,,,,,,,,,,,,,,,,,,,,,,,,,180.82537490013056,None,182.02667070017196,183.0548813000787,183.4981883800123,183.72525610006414,183.78145788013936,184.0013508000411,184.4829863799736,184.70173920015804,184.88229597997852,185.10215279995464,183.38226080010645,185.19482550001703,185.4744853799697,None,185.19482550001703,186.01935110008344,186.1944735001307,None,187.23144680005498,None,217.2588659999892,None,356.86709442700857,7.299892230202929,0.00020335363801351862,1,"[0.498742657841336, 0.42781642020184496, 0.686131673311619, 0.5441237599452896]","[566.4912011062682, 504.68628490335556, 449.62436428340953, 400.5697697847545]",Tone,"[12.122965761949544, 12.0, 12.746699646986363, 13.139930138205095]",False,218.24113250011578,220.86836660001427,220.86836660001427,222.09202960017137,['space'],1,[0.08740970003418624],3.1864271198865026,4.203838220098987,None,1,None,1,,,,,,rehvhf,001,fr,0,0,2022-05-11_11h05.37.614,Cluster,2022.1.1,36.13552268322738,
,,,,0,0,0,0,1,0,1,0,,,frequency,,,,,,,,,,,,,,,,,,,,,,,,,,,,,,,,,,,,,,,,,,,,,,,,,,,,,,,,,,,,,,,,,,,,,,,,,,,,,,,,,,,,,,,,,,,,,,,,,,,,,,,,,,,,,,,,,,,222.4762647000607,None,176.7766952966369,1.0,0.00039272999556449274,1,"[0.724965506380223, 0.4852524641051511, 0.6663218408302165, 0.5265935616499056]","[890.8987181403394, 594.6035575013606, 396.8502629920499, 264.86577358982385]",Perfect_5th,"[12.0, 12.122965761949544, 13.139930138205095, 11.0]",False,223.94917180016637,226.84185840003192,226.84185840003192,228.06821060017683,['space'],1,[0.3991121998988092],3.432615279685706,4.441037179669365,None,1,None,1,,,,,,rehvhf,001,fr,0,0,2022-05-11_11h05.37.614,Cluster,2022.1.1,36.13552268322738,
,,,,0,0,0,0,2,0,2,0,,,frequency,,,,,,,,,,,,,,,,,,,,,,,,,,,,,,,,,,,,,,,,,,,,,,,,,,,,,,,,,,,,,,,,,,,,,,,,,,,,,,,,,,,,,,,,,,,,,,,,,,,,,,,,,,,,,,,,,,,228.42132510012016,None,163.10132743568917,9.075435120841334,0.0011366929834890304,1,"[0.5703935515620975, 0.5052563034485296, 0.7258851461295902, 0.5917858194359465]","[410.98959140404196, 326.20265487137834, 258.90721874882274, 205.49479570202098]",Major_3rd,"[13.139930138205095, 12.9516136381955, 11.0, 11.997537070210154]",False,229.41789639997296,232.2351957000792,232.2351957000792,233.4563812999986,['space'],1,[0.4327039998024702],3.424627620028332,4.456511619966477,None,1,None,1,,,,,,rehvhf,001,fr,0,0,2022-05-11_11h05.37.614,Cluster,2022.1.1,36.13552268322738,
,,,,0,0,0,0,3,0,3,0,,,time,,,,,,,,,,,,,,,,,,,,,,,,,,,,,,,,,,,,,,,,,,,,,,,,,,,,,,,,,,,,,,,,,,,,,,,,,,,,,,,,,,,,,,,,,,,,,,,,,,,,,,,,,,,,,,,,,,,233.90804990008473,None,,,,,"[0.4519242068299637, 0.4519242068299637, 0.4519242068299637, 0.4519242068299637]","[136.86862564933324, 273.23853977009423, 680.9217851604056, 1005.9089527579107]",None,"[15.679776902457883, 11.097731581488885, 13.0, 10.379185723991384]",True,234.9257990999613,237.31215020013042,237.31215020013042,238.52657320001163,None,1,,2.8518610200844705,3.87369162007235,None,1,None,1,0,,,,,rehvhf,001,fr,0,0,2022-05-11_11h05.37.614,Cluster,2022.1.1,36.13552268322738,
,,,,0,0,0,0,4,0,4,0,,,none,,,,,,,,,,,,,,,,,,,,,,,,,,,,,,,,,,,,,,,,,,,,,,,,,,,,,,,,,,,,,,,,,,,,,,,,,,,,,,,,,,,,,,,,,,,,,,,,,,,,,,,,,,,,,,,,,,,238.8270914000459,None,924.1248864056071,5.206371528990989,7.629400990587695e-05,1,"[0.5601430946679277, 0.6810518220708459, 0.6217023395408119, 0.5992273834403518]","[370.4006988525875, 4750.918504659113, 7748.492697025785, 1147.5517957582106]",None,"[13.35483667658238, 1.0, -3.0, 10.14876247157516]",False,239.82741590007208,242.7275960999541,242.7275960999541,243.9438337001484,['space'],1,[0.4357841999735683],3.490108019905165,4.510261019924656,None,1,None,1,,,,,,rehvhf,001,fr,0,0,2022-05-11_11h05.37.614,Cluster,2022.1.1,36.13552268322738,
,,,,0,0,0,0,5,0,5,0,,,frequency,,,,,,,,,,,,,,,,,,,,,,,,,,,,,,,,,,,,,,,,,,,,,,,,,,,,,,,,,,,,,,,,,,,,,,,,,,,,,,,,,,,,,,,,,,,,,,,,,,,,,,,,,,,,,,,,,,,244.36576770013198,None,535.8867312681471,10.0,0.00020822445587443392,1,"[0.4615364254479294, 0.43896603469556156, 0.41916170444617484, 0.5388289694655571]","[1350.3499461681915, 1071.7734625362943, 850.6671609508566, 675.1749730840957]",Major_3rd,"[12.060778396820584, 9.966061332597004, 12.155450019189026, 13.0]",False,245.40170800010674,247.75988430017605,247.75988430017605,248.9813826000318,['space'],1,[0.4239069998729974],2.8931539999321103,3.897851799847558,None,1,None,1,,,,,,rehvhf,001,fr,0,0,2022-05-11_11h05.37.614,Cluster,2022.1.1,36.13552268322738,
,,,,0,0,0,0,6,0,6,0,,,time,,,,,,,,,,,,,,,,,,,,,,,,,,,,,,,,,,,,,,,,,,,,,,,,,,,,,,,,,,,,,,,,,,,,,,,,,,,,,,,,,,,,,,,,,,,,,,,,,,,,,,,,,,,,,,,,,,,249.3395152001176,None,1306.5725482056719,6.0,0.00010595783390045341,1,"[0.5543322752952732, 0.5543322752952732, 0.5543322752952732, 0.5543322752952732]","[5008.678424638678, 1015.201441990796, 404.93506239552204, 812.0213620674157]",None,"[2.0, 10.379185723991384, 13.139930138205095, 12.931393040306567]",False,250.33982350002043,253.01818910008296,253.01818910008296,254.24656400014646,['space'],1,[0.4954537998419255],3.257920220028609,4.266994120087475,None,1,None,1,,,,,,rehvhf,001,fr,0,0,2022-05-11_11h05.37.614,Cluster,2022.1.1,36.13552268322738,
,,,,0,0,0,0,7,0,7,0,,,frequency,,,,,,,,,,,,,,,,,,,,,,,,,,,,,,,,,,,,,,,,,,,,,,,,,,,,,,,,,,,,,,,,,,,,,,,,,,,,,,,,,,,,,,,,,,,,,,,,,,,,,,,,,,,,,,,,,,,254.63350440002978,None,1108.2207212895214,4.0,7.699253458359592e-05,1,"[0.4045350048884531, 0.7062180459573764, 0.656953539367733, 0.6140841511358681]","[2792.5412293646955, 2216.4414425790433, 1759.1907387879432, 1396.2706146823475]",Major_3rd,"[2.4303337370849842, 8.0, 13.716508752903845, 13.0]",False,255.63375110016204,258.44011120009236,258.44011120009236,259.66421289998107,['space'],1,[0.3310955998022109],3.40662311995402,4.419107419904321,None,1,None,1,,,,,,rehvhf,001,fr,0,0,2022-05-11_11h05.37.614,Cluster,2022.1.1,36.13552268322738,
,,,,0,0,0,0,8,0,8,0,,,frequency,,,,,,,,,,,,,,,,,,,,,,,,,,,,,,,,,,,,,,,,,,,,,,,,,,,,,,,,,,,,,,,,,,,,,,,,,,,,,,,,,,,,,,,,,,,,,,,,,,,,,,,,,,,,,,,,,,,260.08442490012385,None,,,,,"[0.7866967247982131, 0.7778037876850559, 0.724214827199503, 0.5147202004276645]","[417.8647179655359, 331.6594464394433, 263.2382770865815, 208.93235898276794]",Major_3rd,"[13.0, 13.0, 11.0, 11.997537070210154]",True,261.1017393001821,264.40545640001073,264.40545640001073,265.60527920001186,None,1,,3.858640319900587,4.8943763198331,None,1,None,1,0,,,,,rehvhf,001,fr,0,0,2022-05-11_11h05.37.614,Cluster,2022.1.1,36.13552268322738,
,,,,0,0,0,0,9,0,9,0,,,none,,,,,,,,,,,,,,,,,,,,,,,,,,,,,,,,,,,,,,,,,,,,,,,,,,,,,,,,,,,,,,,,,,,,,,,,,,,,,,,,,,,,,,,,,,,,,,,,,,,,,,,,,,,,,,,,,,,266.01943260012195,None,176.7766952966369,0.0,0.0003500209769801159,1,"[0.6269929384429342, 0.5482696560755698, 0.7625240859209949, 0.44393385587283096]","[3265.6367281429334, 1067.2167300472343, 1915.5331293124439, 2086.679486844697]",None,"[-0.4465051926092025, 10.0, 12.0, 10.0]",False,267.0529400999658,270.01703520002775,270.01703520002775,271.21585160004906,['space'],1,[0.33578229998238385],3.40866462001577,4.41792192007415,None,1,None,1,,,,,,rehvhf,001,fr,0,0,2022-05-11_11h05.37.614,Cluster,2022.1.1,36.13552268322738,
,,,,0,0,0,0,10,0,10,0,,,frequency,,,,,,,,,,,,,,,,,,,,,,,,,,,,,,,,,,,,,,,,,,,,,,,,,,,,,,,,,,,,,,,,,,,,,,,,,,,,,,,,,,,,,,,,,,,,,,,,,,,,,,,,,,,,,,,,,,,271.50937169999816,None,1515.7165665103996,8.0,0.0001246656243888306,1,"[0.46224164764726133, 0.5176617375392871, 0.6771676220479128, 0.46258505799593846]","[3819.3664156416708, 3031.4331330207997, 2406.050072164236, 1909.6832078208352]",Major_3rd,"[-2.229291087697346, 0.9409126315812122, 6.0, 12.0]",False,272.5158059000969,275.19273530016653,275.19273530016653,276.43340690014884,['space'],1,[0.7088723997585475],3.139454319840297,4.172364519909024,None,1,None,1,,,,,,rehvhf,001,fr,0,0,2022-05-11_11h05.37.614,Cluster,2022.1.1,36.13552268322738,
,,,,0,0,0,0,11,0,11,0,,,time,,,,,,,,,,,,,,,,,,,,,,,,,,,,,,,,,,,,,,,,,,,,,,,,,,,,,,,,,,,,,,,,,,,,,,,,,,,,,,,,,,,,,,,,,,,,,,,,,,,,,,,,,,,,,,,,,,,276.7324600999709,None,176.7766952966369,0.0,0.0003500209769801159,1,"[0.4336790190949432, 0.4336790190949432, 0.4336790190949432, 0.4336790190949432]","[202.25698050830866, 886.7784057353766, 795.4890274949466, 2027.3766280387324]",None,"[12.0, 12.0, 13.0, 10.877239177966782]",False,277.8003267000895,280.13150510005653,280.13150510005653,281.34663729998283,['space'],1,[0.3940167997498065],2.7663475598674268,3.7928745599929243,None,1,None,1,,,,,,rehvhf,001,fr,0,0,2022-05-11_11h05.37.614,Cluster,2022.1.1,36.13552268322738,
,,,,0,0,0,0,12,0,12,0,,,none,,,,,,,,,,,,,,,,,,,,,,,,,,,,,,,,,,,,,,,,,,,,,,,,,,,,,,,,,,,,,,,,,,,,,,,,,,,,,,,,,,,,,,,,,,,,,,,,,,,,,,,,,,,,,,,,,,,281.6111406001728,None,,,,,"[0.7733686709533794, 0.7753897092226096, 0.5385872805235759, 0.41535195872093555]","[546.8107588425643, 165.40704781968893, 1846.752985846594, 166.21262860419804]",None,"[12.0, 15.0, 12.5186359227462, 15.0]",True,282.6215985000599,285.7211680000182,285.7211680000182,286.93921520002186,None,1,,3.5425883198622614,4.567480819765478,None,1,None,1,0,,,,,rehvhf,001,fr,0,0,2022-05-11_11h05.37.614,Cluster,2022.1.1,36.13552268322738,
,,,,0,0,0,0,13,0,13,0,,,both,,,,,,,,,,,,,,,,,,,,,,,,,,,,,,,,,,,,,,,,,,,,,,,,,,,,,,,,,,,,,,,,,,,,,,,,,,,,,,,,,,,,,,,,,,,,,,,,,,,,,,,,,,,,,,,,,,,287.2125580001157,None,1264.609439255637,5.0,9.628764185885117e-05,1,"[0.4045819612122608, 0.4045819612122608, 0.4045819612122608, 0.4045819612122608]","[3186.6161048278586, 2529.2188785112744, 2007.4423542033132, 1593.308052413929]",Major_3rd,"[0.0, 5.0, 10.877239177966782, 14.259634010736352]",False,288.2045724999625,290.46499340003356,290.46499340003356,291.68383450014517,['space'],1,[0.7785154997836798],2.662336819805205,3.6931774197146297,None,1,None,1,,,,,,rehvhf,001,fr,0,0,2022-05-11_11h05.37.614,Cluster,2022.1.1,36.13552268322738,
,,,,0,0,0,0,14,0,14,0,,,time,,,,,,,,,,,,,,,,,,,,,,,,,,,,,,,,,,,,,,,,,,,,,,,,,,,,,,,,,,,,,,,,,,,,,,,,,,,,,,,,,,,,,,,,,,,,,,,,,,,,,,,,,,,,,,,,,,,291.9204935000744,None,2128.3528893228845,3.0518246304965606,0.00011034989699744375,1,"[0.4485397462929219, 0.4485397462929219, 0.4485397462929219, 0.4485397462929219]","[160.6057081758165, 1533.524529385545, 3669.420741878209, 207.5418643791708]",None,"[15.075435120841334, 14.061754902344383, -2.0, 11.997537070210154]",False,292.93882560008205,295.31601619999856,295.31601619999856,296.5278551001102,['space'],1,[0.4688223998527974],2.8273483200464398,3.8307830200064927,None,1,None,1,,,,,,rehvhf,001,fr,0,0,2022-05-11_11h05.37.614,Cluster,2022.1.1,36.13552268322738,
,,,,0,0,0,0,15,0,15,0,,,frequency,,,,,,,,,,,,,,,,,,,,,,,,,,,,,,,,,,,,,,,,,,,,,,,,,,,,,,,,,,,,,,,,,,,,,,,,,,,,,,,,,,,,,,,,,,,,,,,,,,,,,,,,,,,,,,,,,,,296.8017293000594,None,141.85177300977995,9.904518781883633,0.0017912111777859355,1,"[0.5973099417743435, 0.4758051590253558, 0.45848323439112626, 0.6075903042714538]","[225.17565369927897, 200.60870123710058, 178.7220347799312, 159.22323168887382]",Tone,"[11.0, 12.0, 14.0, 15.697045039826907]",False,297.80434220004827,300.37156190001406,300.37156190001406,301.5830874000676,['space'],1,[0.270934599917382],3.167007819749415,4.197019219631329,None,1,None,1,,,,,,rehvhf,001,fr,0,0,2022-05-11_11h05.37.614,Cluster,2022.1.1,36.13552268322738,
,,,,0,0,0,0,16,0,16,0,,,both,,,,,,,,,,,,,,,,,,,,,,,,,,,,,,,,,,,,,,,,,,,,,,,,,,,,,,,,,,,,,,,,,,,,,,,,,,,,,,,,,,,,,,,,,,,,,,,,,,,,,,,,,,,,,,,,,,,302.03551289997995,None,,,,,"[0.5672587634111209, 0.5672587634111209, 0.5672587634111209, 0.5672587634111209]","[915.566895565456, 611.0675906797521, 407.8386868154973, 272.19966661684833]",Perfect_5th,"[11.206371528990989, 12.527670868621039, 13.139930138205095, 11.097731581488885]",True,303.05191410006955,305.78101190016605,305.78101190016605,306.9949857001193,None,1,,3.310747120063752,4.317943719914183,None,1,None,1,0,,,,,rehvhf,001,fr,0,0,2022-05-11_11h05.37.614,Cluster,2022.1.1,36.13552268322738,
,,,,0,0,0,0,17,0,17,0,,,none,,,,,,,,,,,,,,,,,,,,,,,,,,,,,,,,,,,,,,,,,,,,,,,,,,,,,,,,,,,,,,,,,,,,,,,,,,,,,,,,,,,,,,,,,,,,,,,,,,,,,,,,,,,,,,,,,,,307.3941118000075,None,4797.805044459207,-5.0,7.807201620507696e-05,1,"[0.5106983343876161, 0.5341986881467641, 0.5374621939545303, 0.43336979427204303]","[7526.933097066537, 3902.089508865867, 781.7539863743207, 7011.314201224558]",None,"[-1.1114747590062697, -2.2258162714211718, 13.0, 1.0]",False,308.4055196000263,311.01489740004763,311.01489740004763,312.2403759001754,['space'],1,[0.30138539988547564],3.0657139199320227,4.1054189200513065,None,1,None,1,,,,,,rehvhf,001,fr,0,0,2022-05-11_11h05.37.614,Cluster,2022.1.1,36.13552268322738,
,,,,0,0,0,0,18,0,18,0,,,none,,,,,,,,,,,,,,,,,,,,,,,,,,,,,,,,,,,,,,,,,,,,,,,,,,,,,,,,,,,,,,,,,,,,,,,,,,,,,,,,,,,,,,,,,,,,,,,,,,,,,,,,,,,,,,,,,,,312.54020230006427,None,535.8867312681471,9.0,0.00018558024164047789,1,"[0.6921993093638517, 0.7600138120756559, 0.7071049950475743, 0.6906909643385006]","[143.61877351780092, 569.3662721835889, 1157.970159464732, 527.371245299655]",None,"[15.904518781883633, 12.122965761949544, 10.14876247157516, 11.929749452068993]",False,314.0822978001088,317.2738165000919,317.2738165000919,318.4832717999816,['space'],1,[0.3388898998964578],3.874230539891869,4.892128640087321,None,1,None,1,,,,,,rehvhf,001,fr,0,0,2022-05-11_11h05.37.614,Cluster,2022.1.1,36.13552268322738,
,,,,0,0,0,0,19,0,19,0,,,time,,,,,,,,,,,,,,,,,,,,,,,,,,,,,,,,,,,,,,,,,,,,,,,,,,,,,,,,,,,,,,,,,,,,,,,,,,,,,,,,,,,,,,,,,,,,,,,,,,,,,,,,,,,,,,,,,,,319.0177275000606,None,535.8867312681471,9.0,0.00018558024164047789,1,"[0.5304623227570153, 0.5304623227570153, 0.5304623227570153, 0.5304623227570153]","[5677.6790085461835, 6079.971028500314, 136.70811601766127, 132.34729997217943]",None,"[4.125945130134925, 4.252363104021113, 15.679776902457883, 15.679776902457883]",False,320.04780760011636,322.6590007999912,322.6590007999912,323.89105050009675,['space'],1,[0.35351180005818605],3.1475598197430372,4.1554458199534565,None,1,None,1,,,,,,rehvhf,001,fr,0,0,2022-05-11_11h05.37.614,Cluster,2022.1.1,36.13552268322738,
,,,,1,0,1,0,0,0,0,0,,,both,,,,,,,,,,,,,,,,,,,,,,,,,,,,,,,,,,,,,,,,,,,,,,,,,,,,,,,,,,,,,,,,,,,,,,,,,,,,,,,,,,,,,,,,,,,,,,,,,,,,,,,,,,,,,,,,,,,332.97863320005126,None,,,,,"[0.5834389249328015, 0.5834389249328015, 0.5834389249328015, 0.5834389249328015]","[212.41932610253633, 189.24410533298433, 168.5973308567711, 150.20314594218004]",Tone,"[11.191061034939638, 13.043143574966717, 15.0, 15.697045039826907]",True,333.94361210009083,336.71355620003305,336.71355620003305,337.9247881001793,None,1,,3.3679758198559284,4.398375120013952,None,1,None,1,0,,,,,rehvhf,001,fr,0,0,2022-05-11_11h05.37.614,Cluster,2022.1.1,36.13552268322738,
,,,,1,0,1,0,1,0,1,0,,,both,,,,,,,,,,,,,,,,,,,,,,,,,,,,,,,,,,,,,,,,,,,,,,,,,,,,,,,,,,,,,,,,,,,,,,,,,,,,,,,,,,,,,,,,,,,,,,,,,,,,,,,,,,,,,,,,,,,338.3616812999826,None,176.7766952966369,0.0,0.0003500209769801159,1,"[0.4827458321653244, 0.4827458321653244, 0.4827458321653244, 0.4827458321653244]","[445.44935907016975, 353.55339059327383, 280.6155120773433, 222.72467953508485]",Major_3rd,"[12.746699646986363, 13.299892230202929, 11.699596671114493, 11.0]",False,339.3940775000956,341.87350010010414,341.87350010010414,343.1018112001475,['space'],1,[0.3773741996847093],2.9414426197763532,3.959457819815725,None,1,None,1,,,,,,rehvhf,001,fr,0,0,2022-05-11_11h05.37.614,Cluster,2022.1.1,36.13552268322738,
,,,,1,0,1,0,2,0,2,0,,,none,,,,,,,,,,,,,,,,,,,,,,,,,,,,,,,,,,,,,,,,,,,,,,,,,,,,,,,,,,,,,,,,,,,,,,,,,,,,,,,,,,,,,,,,,,,,,,,,,,,,,,,,,,,,,,,,,,,343.39781390014105,None,481.4184471170386,6.322306832128891,0.00014990594081767746,1,"[0.6078964262110336, 0.405257727905082, 0.5228784389996917, 0.7979433043986874]","[337.66692637564944, 5485.68938242347, 4950.930771704766, 618.8722202324825]",None,"[13.0, 4.0, 1.5260602889550174, 12.527670868621039]",False,344.4101871000603,346.96712590008974,346.96712590008974,348.1806259001605,['space'],1,[0.4692915997002274],3.372277020011097,4.38948661996983,None,1,None,1,,,,,,rehvhf,001,fr,0,0,2022-05-11_11h05.37.614,Cluster,2022.1.1,36.13552268322738,
,,,,1,0,1,0,3,0,3,0,,,frequency,,,,,,,,,,,,,,,,,,,,,,,,,,,,,,,,,,,,,,,,,,,,,,,,,,,,,,,,,,,,,,,,,,,,,,,,,,,,,,,,,,,,,,,,,,,,,,,,,,,,,,,,,,,,,,,,,,,348.83322570007294,None,8000.0,-11.0,5.116464961403774e-05,1,"[0.46955783186500855, 0.5821936292579276, 0.728454124577375, 0.6591898623318424]","[1587.4010519681997, 2378.4142300054423, 3563.5948725613575, 5339.359416680138]",Perfect_5th,"[14.259634010736352, 6.0, -2.0, 3.1001626587759517]",False,349.86661659996025,352.65823490009643,352.65823490009643,353.87149360007606,['space'],1,[0.43936989991925657],3.4655952202156186,4.485755420289934,None,1,None,1,,,,,,rehvhf,001,fr,0,0,2022-05-11_11h05.37.614,Cluster,2022.1.1,36.13552268322738,
,,,,1,0,1,0,4,0,4,0,,,none,,,,,,,,,,,,,,,,,,,,,,,,,,,,,,,,,,,,,,,,,,,,,,,,,,,,,,,,,,,,,,,,,,,,,,,,,,,,,,,,,,,,,,,,,,,,,,,,,,,,,,,,,,,,,,,,,,,354.39825450000353,None,125.0,-2.0,0.0005740768107484417,0,"[0.5213255254275074, 0.7098181673535432, 0.40066031384994816, 0.566070935401002]","[304.2757829761308, 2364.576056766111, 384.34826312005606, 4571.422484622572]",None,"[12.37755819938783, 7.0, 13.35483667658238, -0.14712958659684894]",False,355.40500520006754,358.0678986001294,358.0678986001294,359.2762464999687,None,0,,3.217379519948736,4.231109419837594,None,1,None,1,,,,,,rehvhf,001,fr,0,0,2022-05-11_11h05.37.614,Cluster,2022.1.1,36.13552268322738,
,,,,1,0,1,0,5,0,5,0,,,both,,,,,,,,,,,,,,,,,,,,,,,,,,,,,,,,,,,,,,,,,,,,,,,,,,,,,,,,,,,,,,,,,,,,,,,,,,,,,,,,,,,,,,,,,,,,,,,,,,,,,,,,,,,,,,,,,,,359.6937949000858,None,,,,,"[0.6748822356958171, 0.6748822356958171, 0.6748822356958171, 0.6748822356958171]","[2532.818233086627, 3191.1510074233806, 4020.5983276459474, 5065.636466173253]",Major_3rd,"[5.0, 0.0, -2.2258162714211718, 2.0]",True,360.70803630002774,363.76422650017776,363.76422650017776,364.9760102001019,None,1,,3.750926719745621,4.752543019829318,None,1,None,1,0,,,,,rehvhf,001,fr,0,0,2022-05-11_11h05.37.614,Cluster,2022.1.1,36.13552268322738,
,,,,1,0,1,0,6,0,6,0,,,both,,,,,,,,,,,,,,,,,,,,,,,,,,,,,,,,,,,,,,,,,,,,,,,,,,,,,,,,,,,,,,,,,,,,,,,,,,,,,,,,,,,,,,,,,,,,,,,,,,,,,,,,,,,,,,,,,,,365.48784850002266,None,811.4499093384092,6.931393040306567,8.59424420822601e-05,1,"[0.5228408446199342, 0.5228408446199342, 0.5228408446199342, 0.5228408446199342]","[2044.7256434214962, 1622.8998186768183, 1288.0964397032908, 1022.3628217107481]",Major_3rd,"[10.0, 14.259634010736352, 12.0, 10.379185723991384]",False,366.50046889996156,369.10556900012307,369.10556900012307,370.32066870015115,['space'],1,[0.3079891998786479],3.123231020057574,4.148461919976398,None,1,None,1,,,,,,rehvhf,001,fr,0,0,2022-05-11_11h05.37.614,Cluster,2022.1.1,36.13552268322738,
,,,,1,0,1,0,7,0,7,0,,,both,,,,,,,,,,,,,,,,,,,,,,,,,,,,,,,,,,,,,,,,,,,,,,,,,,,,,,,,,,,,,,,,,,,,,,,,,,,,,,,,,,,,,,,,,,,,,,,,,,,,,,,,,,,,,,,,,,,370.6814415999688,None,535.8867312681471,9.0,0.00018558024164047789,1,"[0.673042353968689, 0.673042353968689, 0.673042353968689, 0.673042353968689]","[212.66679023771422, 267.94336563407364, 337.5874865420479, 425.3335804754283]",Major_3rd,"[11.191061034939638, 11.097731581488885, 13.0, 13.0]",False,372.40671070013195,375.4443821001332,375.4443821001332,376.6505803000182,['space'],1,[0.22968809981830418],3.7307418996933848,4.749670199584216,None,1,None,1,,,,,,rehvhf,001,fr,0,0,2022-05-11_11h05.37.614,Cluster,2022.1.1,36.13552268322738,
,,,,1,0,1,0,8,0,8,0,,,frequency,,,,,,,,,,,,,,,,,,,,,,,,,,,,,,,,,,,,,,,,,,,,,,,,,,,,,,,,,,,,,,,,,,,,,,,,,,,,,,,,,,,,,,,,,,,,,,,,,,,,,,,,,,,,,,,,,,,377.18571930006146,None,565.0262936112074,6.122965761949543,0.00012405458343832593,1,"[0.693663431797874, 0.5108744093345339, 0.4973772580270595, 0.5226092483313858]","[355.9442605324206, 399.533923761186, 448.46166643406167, 503.38120069381165]",Tone,"[13.299892230202929, 13.139930138205095, 12.746699646986363, 12.0]",False,378.1987215001136,380.9142148999963,380.9142148999963,382.118406200083,['space'],1,[0.31373789976350963],3.2581378198228776,4.280386519851163,None,1,None,1,,,,,,rehvhf,001,fr,0,0,2022-05-11_11h05.37.614,Cluster,2022.1.1,36.13552268322738,
,,,,1,0,1,0,9,0,9,0,,,none,,,,,,,,,,,,,,,,,,,,,,,,,,,,,,,,,,,,,,,,,,,,,,,,,,,,,,,,,,,,,,,,,,,,,,,,,,,,,,,,,,,,,,,,,,,,,,,,,,,,,,,,,,,,,,,,,,,382.51505409996025,None,3479.768810037122,-7.573204365542794,3.12815221531678e-05,1,"[0.7539325277387595, 0.7033165345241842, 0.5048878586191163, 0.6742803144904559]","[3240.000787071962, 136.3973873828047, 1946.7664951759916, 1983.0543835906633]",None,"[-0.4465051926092025, 15.679776902457883, 12.0, 11.0]",False,383.5250153001398,386.51130580017343,386.51130580017343,387.72839489998296,['space'],1,[0.5078843999654055],3.6741712202783674,4.679563420126215,None,1,None,1,,,,,,rehvhf,001,fr,0,0,2022-05-11_11h05.37.614,Cluster,2022.1.1,36.13552268322738,
,,,,1,0,1,0,10,0,10,0,,,time,,,,,,,,,,,,,,,,,,,,,,,,,,,,,,,,,,,,,,,,,,,,,,,,,,,,,,,,,,,,,,,,,,,,,,,,,,,,,,,,,,,,,,,,,,,,,,,,,,,,,,,,,,,,,,,,,,,388.24164350004867,None,1864.6628072090716,6.518635922746198,0.0001455104382664495,1,"[0.7573509806280779, 0.7573509806280779, 0.7573509806280779, 0.7573509806280779]","[265.4421884498143, 424.04770788643043, 1939.312304303658, 767.1266783647221]",None,"[11.0, 13.0, 12.0, 13.342534610553045]",False,389.2409306000918,392.5502387001179,392.5502387001179,393.763824300142,['space'],1,[0.2980267000384629],4.055681219790131,5.057389119872823,None,1,None,1,,,,,,rehvhf,001,fr,0,0,2022-05-11_11h05.37.614,Cluster,2022.1.1,36.13552268322738,
,,,,1,0,1,0,11,0,11,0,,,frequency,,,,,,,,,,,,,,,,,,,,,,,,,,,,,,,,,,,,,,,,,,,,,,,,,,,,,,,,,,,,,,,,,,,,,,,,,,,,,,,,,,,,,,,,,,,,,,,,,,,,,,,,,,,,,,,,,,,394.33479250012897,None,2462.2888266898335,0.0,8.505946547995337e-05,0,"[0.6428288089736494, 0.4655280177407083, 0.6102560502928086, 0.5868569411664707]","[488.5799842171232, 732.042847972813, 1096.8249796946263, 1643.3806291715812]",Perfect_5th,"[12.010814040623114, 13.33283077798073, 10.0, 14.259634010736352]",False,395.36793490010314,398.1067759001162,398.1067759001162,399.32399950013496,None,0,,3.319903819821775,4.352167619857937,None,1,None,1,,,,,,rehvhf,001,fr,0,0,2022-05-11_11h05.37.614,Cluster,2022.1.1,36.13552268322738,
,,,,1,0,1,0,12,0,12,0,,,frequency,,,,,,,,,,,,,,,,,,,,,,,,,,,,,,,,,,,,,,,,,,,,,,,,,,,,,,,,,,,,,,,,,,,,,,,,,,,,,,,,,,,,,,,,,,,,,,,,,,,,,,,,,,,,,,,,,,,399.7674649001565,None,,,,,"[0.7290141793355535, 0.46184753633160525, 0.4738464507007466, 0.7784064313325616]","[769.6497704702404, 685.6799939289435, 610.8714276457714, 544.2245718381768]",Tone,"[13.342534610553045, 13.33283077798073, 12.527670868621039, 12.0]",True,400.7837692000903,403.47255660011433,403.47255660011433,404.6901537999511,None,1,,3.4936161199584603,4.4934928198345006,None,1,None,1,0,,,,,rehvhf,001,fr,0,0,2022-05-11_11h05.37.614,Cluster,2022.1.1,36.13552268322738,
,,,,1,0,1,0,13,0,13,0,,,time,,,,,,,,,,,,,,,,,,,,,,,,,,,,,,,,,,,,,,,,,,,,,,,,,,,,,,,,,,,,,,,,,,,,,,,,,,,,,,,,,,,,,,,,,,,,,,,,,,,,,,,,,,,,,,,,,,,405.30781000014395,None,125.0,-2.0,0.0005740768107484417,0,"[0.4781721163958954, 0.4781721163958954, 0.4781721163958954, 0.4781721163958954]","[4193.34357086016, 1848.044806871765, 7054.539621036144, 4172.11676877723]",None,"[-1.4946441071950893, 12.5186359227462, 1.0, -2.0]",False,406.39720040000975,408.8564534999896,408.8564534999896,410.0747088000644,None,0,,2.925085279624909,3.9327358796726912,None,1,None,1,,,,,,rehvhf,001,fr,0,0,2022-05-11_11h05.37.614,Cluster,2022.1.1,36.13552268322738,
,,,,1,0,1,0,14,0,14,0,,,both,,,,,,,,,,,,,,,,,,,,,,,,,,,,,,,,,,,,,,,,,,,,,,,,,,,,,,,,,,,,,,,,,,,,,,,,,,,,,,,,,,,,,,,,,,,,,,,,,,,,,,,,,,,,,,,,,,,410.37889910000376,None,7203.291188601264,-6.0,7.888130019375307e-05,1,"[0.4426672798878336, 0.4426672798878336, 0.4426672798878336, 0.4426672798878336]","[4537.789098520496, 5093.496046321259, 5717.256005209454, 6417.402886316468]",Tone,"[-0.14712958659684894, 2.0, 4.125945130134925, 3.3231560339757156]",False,411.39855769998394,413.76143150008284,413.76143150008284,414.9739041000139,['space'],1,[0.2775584999471903],2.8149320199154317,3.8459816200193018,None,1,None,1,,,,,,rehvhf,001,fr,0,0,2022-05-11_11h05.37.614,Cluster,2022.1.1,36.13552268322738,
,,,,1,0,1,0,15,0,15,0,,,both,,,,,,,,,,,,,,,,,,,,,,,,,,,,,,,,,,,,,,,,,,,,,,,,,,,,,,,,,,,,,,,,,,,,,,,,,,,,,,,,,,,,,,,,,,,,,,,,,,,,,,,,,,,,,,,,,,,415.28155800001696,None,125.0,-2.0,0.0005740768107484417,0,"[0.4140700552327656, 0.4140700552327656, 0.4140700552327656, 0.4140700552327656]","[198.42513149602502, 176.77669529663694, 157.49013123685918, 140.30775603867164]",Tone,"[12.0, 14.136184155122894, 15.697045039826907, 15.904518781883633]",False,417.560886700172,419.82069760002196,419.82069760002196,421.0530195001047,None,0,,2.666071399813518,3.6900881996843964,None,1,None,1,,,,,,rehvhf,001,fr,0,0,2022-05-11_11h05.37.614,Cluster,2022.1.1,36.13552268322738,
,,,,1,0,1,0,16,0,16,0,,,time,,,,,,,,,,,,,,,,,,,,,,,,,,,,,,,,,,,,,,,,,,,,,,,,,,,,,,,,,,,,,,,,,,,,,,,,,,,,,,,,,,,,,,,,,,,,,,,,,,,,,,,,,,,,,,,,,,,421.2995599000715,None,,,,,"[0.6490824952401614, 0.6490824952401614, 0.6490824952401614, 0.6490824952401614]","[4724.249059199356, 4627.402354080273, 755.4026871808906, 343.05260179002045]",None,"[1.0, 0.0, 13.342534610553045, 13.0]",True,422.3119844000321,425.27830999996513,425.27830999996513,426.49531639995985,None,1,,3.6312991199083626,4.657945520011708,None,1,None,1,0,,,,,rehvhf,001,fr,0,0,2022-05-11_11h05.37.614,Cluster,2022.1.1,36.13552268322738,
,,,,1,0,1,0,17,0,17,0,,,frequency,,,,,,,,,,,,,,,,,,,,,,,,,,,,,,,,,,,,,,,,,,,,,,,,,,,,,,,,,,,,,,,,,,,,,,,,,,,,,,,,,,,,,,,,,,,,,,,,,,,,,,,,,,,,,,,,,,,427.00298690004274,None,2637.850915522581,-2.0434495945481435,6.111806812562909e-05,1,"[0.7240906083734284, 0.7084051269824659, 0.6522710594681655, 0.6277810968639403]","[1661.741947475681, 1865.2422701251594, 2093.6636591179113, 2350.0579992843877]",Tone,"[14.0, 12.5186359227462, 10.0, 7.0]",False,428.01530800014734,431.11828800011426,431.11828800011426,432.3381884000264,['space'],1,[0.37158879986964166],3.737281119916588,4.7460557201411575,None,1,None,1,,,,,,rehvhf,001,fr,0,0,2022-05-11_11h05.37.614,Cluster,2022.1.1,36.13552268322738,
,,,,1,0,1,0,18,0,18,0,,,both,,,,,,,,,,,,,,,,,,,,,,,,,,,,,,,,,,,,,,,,,,,,,,,,,,,,,,,,,,,,,,,,,,,,,,,,,,,,,,,,,,,,,,,,,,,,,,,,,,,,,,,,,,,,,,,,,,,432.79925719997846,None,1384.7446645124398,7.0,0.00011454183027979029,1,"[0.6114678576311163, 0.6114678576311163, 0.6114678576311163, 0.6114678576311163]","[274.7681421442998, 411.68705187506237, 616.8336232829034, 924.2061830202592]",Perfect_5th,"[11.097731581488885, 13.0, 12.527670868621039, 11.206371528990989]",False,433.8163960999809,436.6795598999597,436.6795598999597,437.90652179997414,['space'],1,[0.3877439999487251],3.4716945202089846,4.479520620079711,None,1,None,1,,,,,,rehvhf,001,fr,0,0,2022-05-11_11h05.37.614,Cluster,2022.1.1,36.13552268322738,
,,,,1,0,1,0,19,0,19,0,,,frequency,,,,,,,,,,,,,,,,,,,,,,,,,,,,,,,,,,,,,,,,,,,,,,,,,,,,,,,,,,,,,,,,,,,,,,,,,,,,,,,,,,,,,,,,,,,,,,,,,,,,,,,,,,,,,,,,,,,438.3340100001078,None,4594.793419988137,0.0,0.00012486547057085194,1,"[0.7480150801543503, 0.767481992025745, 0.5318314344727763, 0.48522806764377935]","[7293.779908465733, 6498.019170849882, 5789.07694976151, 5157.481233758314]",Tone,"[0.0, 3.3231560339757156, 4.125945130134925, 3.0]",False,439.3423754000105,442.4246509000659,442.4246509000659,443.6461977001745,['space'],1,[0.3330506996717304],3.5556356199085712,4.5732560199685395,None,1,None,1,,,,,,rehvhf,001,fr,0,0,2022-05-11_11h05.37.614,Cluster,2022.1.1,36.13552268322738,
,,,,2,0,2,0,0,0,0,0,,,frequency,,,,,,,,,,,,,,,,,,,,,,,,,,,,,,,,,,,,,,,,,,,,,,,,,,,,,,,,,,,,,,,,,,,,,,,,,,,,,,,,,,,,,,,,,,,,,,,,,,,,,,,,,,,,,,,,,,,451.5676686000079,None,250.96240482564664,4.737984022260164,0.0002872217220572558,1,"[0.676523458920643, 0.5956105314121545, 0.4693947921480633, 0.7627461056443781]","[1264.7712662882836, 844.1335463253512, 563.3915499384829, 376.01874718025704]",Perfect_5th,"[11.0, 12.155450019189026, 12.122965761949544, 13.35483667658238]",False,452.56042550015263,455.329311999958,455.329311999958,456.55956540000625,['space'],1,[0.1668951997999102],3.540038420120254,4.570201619993895,None,1,None,1,,,,,,rehvhf,001,fr,0,0,2022-05-11_11h05.37.614,Cluster,2022.1.1,36.13552268322738,
,,,,2,0,2,0,1,0,1,0,,,both,,,,,,,,,,,,,,,,,,,,,,,,,,,,,,,,,,,,,,,,,,,,,,,,,,,,,,,,,,,,,,,,,,,,,,,,,,,,,,,,,,,,,,,,,,,,,,,,,,,,,,,,,,,,,,,,,,,457.1710240000393,None,2639.015821545789,0.0,7.725655650415703e-05,1,"[0.43888116205993716, 0.43888116205993716, 0.43888116205993716, 0.43888116205993716]","[4189.176491282508, 3732.1319661472307, 3324.951584571152, 2962.1951045731294]",Tone,"[-1.4946441071950893, -2.229291087697346, -1.0, 1.0]",False,458.19328370015137,460.53098400007,460.53098400007,461.7636216999963,['space'],1,[0.3491242998279631],2.7846953999251127,3.818756700027734,None,1,None,1,,,,,,rehvhf,001,fr,0,0,2022-05-11_11h05.37.614,Cluster,2022.1.1,36.13552268322738,
,,,,2,0,2,0,2,0,2,0,,,time,,,,,,,,,,,,,,,,,,,,,,,,,,,,,,,,,,,,,,,,,,,,,,,,,,,,,,,,,,,,,,,,,,,,,,,,,,,,,,,,,,,,,,,,,,,,,,,,,,,,,,,,,,,,,,,,,,,462.0455843000673,None,346.74746897549807,7.299892230202929,0.00020944169584624812,1,"[0.45355028325283686, 0.45355028325283686, 0.45355028325283686, 0.45355028325283686]","[2075.4139335204354, 6991.818540334753, 1046.4283471231372, 2704.2725032187836]",None,"[10.0, 1.429584990538534, 10.0, 3.0]",False,463.04584050015546,465.43228940013796,465.43228940013796,466.6433942001313,['space'],1,[0.30679479986429214],2.851699119899422,3.8687064200639725,None,1,None,1,,,,,,rehvhf,001,fr,0,0,2022-05-11_11h05.37.614,Cluster,2022.1.1,36.13552268322738,
,,,,2,0,2,0,3,0,3,0,,,frequency,,,,,,,,,,,,,,,,,,,,,,,,,,,,,,,,,,,,,,,,,,,,,,,,,,,,,,,,,,,,,,,,,,,,,,,,,,,,,,,,,,,,,,,,,,,,,,,,,,,,,,,,,,,,,,,,,,,466.95588060002774,None,125.0,-3.0,0.0005116464961403772,0,"[0.41316492865898824, 0.5603495378211298, 0.7740603797913335, 0.6103467653728804]","[314.9802624737183, 250.00000000000003, 198.42513149602496, 157.49013123685916]",Major_3rd,"[12.37755819938783, 10.737984022260164, 12.0, 15.697045039826907]",False,467.9757540000137,470.76149639999494,470.76149639999494,471.97434770013206,None,0,,3.3869702199008316,4.423023719806224,None,1,None,1,,,,,,rehvhf,001,fr,0,0,2022-05-11_11h05.37.614,Cluster,2022.1.1,36.13552268322738,
,,,,2,0,2,0,4,0,4,0,,,frequency,,,,,,,,,,,,,,,,,,,,,,,,,,,,,,,,,,,,,,,,,,,,,,,,,,,,,,,,,,,,,,,,,,,,,,,,,,,,,,,,,,,,,,,,,,,,,,,,,,,,,,,,,,,,,,,,,,,472.45187110011466,None,,,,,"[0.5721379076124755, 0.4314225797715274, 0.44777196389265284, 0.45437918506106983]","[930.1269865139427, 828.6489399930082, 738.242278428122, 657.6990995286172]",Tone,"[11.206371528990989, 12.931393040306567, 13.342534610553045, 12.998416328672665]",True,473.46257410012186,475.9449653001502,475.9449653001502,477.1794053001795,['space'],0,[0.5223195001017302],2.9399710199795663,3.9618867200333625,None,1,None,1,0,,,,,rehvhf,001,fr,0,0,2022-05-11_11h05.37.614,Cluster,2022.1.1,36.13552268322738,
,,,,2,0,2,0,5,0,5,0,,,none,,,,,,,,,,,,,,,,,,,,,,,,,,,,,,,,,,,,,,,,,,,,,,,,,,,,,,,,,,,,,,,,,,,,,,,,,,,,,,,,,,,,,,,,,,,,,,,,,,,,,,,,,,,,,,,,,,,477.45919720013626,None,8000.0,-12.0,4.560054196779548e-05,0,"[0.7899092665004801, 0.44589301425126726, 0.636356440719252, 0.6252590502018189]","[413.60906337689215, 248.58450461988656, 1305.1656219320453, 396.32268049157483]",None,"[13.0, 10.737984022260164, 12.0, 13.139930138205095]",False,478.48765760008246,481.37977290013805,481.37977290013805,482.5905309000518,None,0,,3.5251535198185593,4.550383319845423,None,1,None,1,,,,,,rehvhf,001,fr,0,0,2022-05-11_11h05.37.614,Cluster,2022.1.1,36.13552268322738,
,,,,2,0,2,0,6,0,6,0,,,none,,,,,,,,,,,,,,,,,,,,,,,,,,,,,,,,,,,,,,,,,,,,,,,,,,,,,,,,,,,,,,,,,,,,,,,,,,,,,,,,,,,,,,,,,,,,,,,,,,,,,,,,,,,,,,,,,,,483.0792539000977,None,628.7694694210605,6.527670868621039,0.0001088879737073936,1,"[0.6512226549413118, 0.5385770596455092, 0.49513725847791346, 0.426684195411936]","[3265.415855210583, 288.01716569410326, 272.24459579365447, 2905.5296388106794]",None,"[-0.4465051926092025, 11.699596671114493, 11.097731581488885, 2.0]",False,484.07689670007676,486.79588840017095,486.79588840017095,488.0239355000667,['space'],1,[0.31128069991245866],3.158219019882381,4.189681019866839,None,1,None,1,,,,,,rehvhf,001,fr,0,0,2022-05-11_11h05.37.614,Cluster,2022.1.1,36.13552268322738,
,,,,2,0,2,0,7,0,7,0,,,both,,,,,,,,,,,,,,,,,,,,,,,,,,,,,,,,,,,,,,,,,,,,,,,,,,,,,,,,,,,,,,,,,,,,,,,,,,,,,,,,,,,,,,,,,,,,,,,,,,,,,,,,,,,,,,,,,,,488.31123290001415,None,1728.91063657738,7.716508752903846,0.00015212490233937855,1,"[0.6489073545212749, 0.6489073545212749, 0.6489073545212749, 0.6489073545212749]","[343.0593204077428, 514.008207555426, 770.1421349529929, 1153.9094110009855]",Perfect_5th,"[13.0, 12.0, 13.342534610553045, 10.14876247157516]",False,489.3151054000482,492.2959541999735,492.2959541999735,493.5303110999521,['space'],1,[0.2547953997272998],3.6273108201567084,4.637850220082328,None,1,None,1,,,,,,rehvhf,001,fr,0,0,2022-05-11_11h05.37.614,Cluster,2022.1.1,36.13552268322738,
,,,,2,0,2,0,8,0,8,0,,,both,,,,,,,,,,,,,,,,,,,,,,,,,,,,,,,,,,,,,,,,,,,,,,,,,,,,,,,,,,,,,,,,,,,,,,,,,,,,,,,,,,,,,,,,,,,,,,,,,,,,,,,,,,,,,,,,,,,493.9911863000598,None,,,,,"[0.7047708946469239, 0.7047708946469239, 0.7047708946469239, 0.7047708946469239]","[4026.956041692683, 4520.105327010174, 5073.646683929948, 5694.975849242068]",Tone,"[-2.2258162714211718, -0.14712958659684894, 2.0, 4.125945130134925]",True,494.9881294001825,498.1173171000555,498.1173171000555,499.343053500168,None,1,,3.8487689199391752,4.853316519875079,None,1,None,1,0,,,,,rehvhf,001,fr,0,0,2022-05-11_11h05.37.614,Cluster,2022.1.1,36.13552268322738,
,,,,2,0,2,0,9,0,9,0,,,none,,,,,,,,,,,,,,,,,,,,,,,,,,,,,,,,,,,,,,,,,,,,,,,,,,,,,,,,,,,,,,,,,,,,,,,,,,,,,,,,,,,,,,,,,,,,,,,,,,,,,,,,,,,,,,,,,,,499.87292750016786,None,287.17458874925893,-2.0,0.0001017531505521433,1,"[0.6523257078965192, 0.6128209927958569, 0.7864427489974111, 0.5455339061002711]","[1860.1747526449858, 6326.378702110136, 3079.3182660967964, 314.843661151363]",None,"[12.5186359227462, 4.0, 0.9409126315812122, 12.37755819938783]",False,500.9104836001061,504.0066619000863,504.0066619000863,505.21150890015997,['space'],1,[0.5159021997824311],3.6092115200590342,4.623873620061204,None,1,None,1,,,,,,rehvhf,001,fr,0,0,2022-05-11_11h05.37.614,Cluster,2022.1.1,36.13552268322738,
,,,,2,0,2,0,10,0,10,0,,,none,,,,,,,,,,,,,,,,,,,,,,,,,,,,,,,,,,,,,,,,,,,,,,,,,,,,,,,,,,,,,,,,,,,,,,,,,,,,,,,,,,,,,,,,,,,,,,,,,,,,,,,,,,,,,,,,,,,505.5865401001647,None,610.3867550601672,6.527670868621039,0.00011496818701196719,1,"[0.6854798273549247, 0.46705841184781405, 0.7688765091170141, 0.46389044103900845]","[3114.7450570702363, 1880.0345393315633, 824.120111165608, 1743.8062120346613]",None,"[0.0, 12.5186359227462, 12.931393040306567, 13.716508752903845]",False,506.6003321001772,509.5473591000773,509.5473591000773,510.7798075999599,['space'],1,[0.3796155999880284],3.415705519961193,4.429057820001617,None,1,None,1,,,,,,rehvhf,001,fr,0,0,2022-05-11_11h05.37.614,Cluster,2022.1.1,36.13552268322738,
,,,,2,0,2,0,11,0,11,0,,,time,,,,,,,,,,,,,,,,,,,,,,,,,,,,,,,,,,,,,,,,,,,,,,,,,,,,,,,,,,,,,,,,,,,,,,,,,,,,,,,,,,,,,,,,,,,,,,,,,,,,,,,,,,,,,,,,,,,511.07251830003224,None,8000.0,-12.0,4.560054196779548e-05,1,"[0.6702724339625783, 0.6702724339625783, 0.6702724339625783, 0.6702724339625783]","[5639.600406557135, 267.7978741648878, 1093.5645986330119, 1935.6434896846995]",None,"[4.125945130134925, 11.097731581488885, 10.0, 12.0]",False,512.0814849999733,515.1201925000641,515.1201925000641,516.3566523001064,['space'],1,[0.2882977998815477],3.7087474199943244,4.71682632016018,None,1,None,1,,,,,,rehvhf,001,fr,0,0,2022-05-11_11h05.37.614,Cluster,2022.1.1,36.13552268322738,
,,,,2,0,2,0,12,0,12,0,,,frequency,,,,,,,,,,,,,,,,,,,,,,,,,,,,,,,,,,,,,,,,,,,,,,,,,,,,,,,,,,,,,,,,,,,,,,,,,,,,,,,,,,,,,,,,,,,,,,,,,,,,,,,,,,,,,,,,,,,516.84387410013,None,,,,,"[0.419078313742792, 0.7138395985102973, 0.4488096759270681, 0.7386736859942765]","[1272.352569823998, 1009.8669039065283, 801.5318928045458, 636.176284911999]",Major_3rd,"[11.0, 10.379185723991384, 13.0, 12.527670868621039]",True,517.8409311000723,520.4442195000593,520.4442195000593,521.6634786000941,None,1,,3.357599520124495,4.363553220173344,None,1,None,1,0,,,,,rehvhf,001,fr,0,0,2022-05-11_11h05.37.614,Cluster,2022.1.1,36.13552268322738,
,,,,2,0,2,0,13,0,13,0,,,time,,,,,,,,,,,,,,,,,,,,,,,,,,,,,,,,,,,,,,,,,,,,,,,,,,,,,,,,,,,,,,,,,,,,,,,,,,,,,,,,,,,,,,,,,,,,,,,,,,,,,,,,,,,,,,,,,,,522.2400953001343,None,712.6755572083106,7.33283077798073,0.00010215286196656973,1,"[0.481016825599012, 0.481016825599012, 0.481016825599012, 0.481016825599012]","[886.0077123476811, 4773.979516881278, 634.0386981585428, 573.4946676444429]",None,"[12.0, 1.0, 12.527670868621039, 12.122965761949544]",False,523.2278742000926,525.6943594000768,525.6943594000768,526.8960908001754,['space'],1,[0.2093120999634266],2.958105619996786,3.97652381984517,None,1,None,1,,,,,,rehvhf,001,fr,0,0,2022-05-11_11h05.37.614,Cluster,2022.1.1,36.13552268322738,
,,,,2,0,2,0,14,0,14,0,,,both,,,,,,,,,,,,,,,,,,,,,,,,,,,,,,,,,,,,,,,,,,,,,,,,,,,,,,,,,,,,,,,,,,,,,,,,,,,,,,,,,,,,,,,,,,,,,,,,,,,,,,,,,,,,,,,,,,,527.2476226000581,None,4594.793419988137,0.0,0.00012486547057085194,1,"[0.4940132930733528, 0.4940132930733528, 0.4940132930733528, 0.4940132930733528]","[7293.779908465733, 6498.019170849882, 5789.07694976151, 5157.481233758314]",Tone,"[0.0, 3.3231560339757156, 4.125945130134925, 3.0]",False,528.3163640999701,530.8308586999774,530.8308586999774,532.0350977999624,['space'],1,[0.29298949986696243],2.981647579697892,3.999092779820785,None,1,None,1,,,,,,rehvhf,001,fr,0,0,2022-05-11_11h05.37.614,Cluster,2022.1.1,36.13552268322738,
,,,,2,0,2,0,15,0,15,0,,,frequency,,,,,,,,,,,,,,,,,,,,,,,,,,,,,,,,,,,,,,,,,,,,,,,,,,,,,,,,,,,,,,,,,,,,,,,,,,,,,,,,,,,,,,,,,,,,,,,,,,,,,,,,,,,,,,,,,,,532.3669414001051,None,300.6498596023499,6.0,0.00022710834707195723,1,"[0.6974222549210412, 0.7048551626917698, 0.4304266656926701, 0.7360894131746978]","[189.39754338046944, 212.59155448760507, 238.62595170343087, 267.8485745288065]",Tone,"[13.043143574966717, 11.191061034939638, 10.753016668528463, 11.097731581488885]",False,533.3577698001172,536.2233568001539,536.2233568001539,537.442894600099,['space'],1,[0.48204949987120926],3.610890720039606,4.6218706199433655,None,1,None,1,,,,,,rehvhf,001,fr,0,0,2022-05-11_11h05.37.614,Cluster,2022.1.1,36.13552268322738,
,,,,2,0,2,0,16,0,16,0,,,time,,,,,,,,,,,,,,,,,,,,,,,,,,,,,,,,,,,,,,,,,,,,,,,,,,,,,,,,,,,,,,,,,,,,,,,,,,,,,,,,,,,,,,,,,,,,,,,,,,,,,,,,,,,,,,,,,,,538.01686470001,None,4287.0938501451765,1.0,0.0001163465127759661,1,"[0.6107710405738995, 0.6107710405738995, 0.6107710405738995, 0.6107710405738995]","[1775.3346207639227, 315.222265866797, 1563.7785385265192, 171.92338303646738]",None,"[13.716508752903845, 12.37755819938783, 14.061754902344383, 14.136184155122894]",False,539.027087100083,541.8828437000047,541.8828437000047,543.0954969001468,['space'],1,[0.2968158998992294],3.4711136198602617,4.474947219947353,None,1,None,1,,,,,,rehvhf,001,fr,0,0,2022-05-11_11h05.37.614,Cluster,2022.1.1,36.13552268322738,
,,,,2,0,2,0,17,0,17,0,,,none,,,,,,,,,,,,,,,,,,,,,,,,,,,,,,,,,,,,,,,,,,,,,,,,,,,,,,,,,,,,,,,,,,,,,,,,,,,,,,,,,,,,,,,,,,,,,,,,,,,,,,,,,,,,,,,,,,,543.5431770000141,None,2297.3967099940687,0.0,8.14042568960799e-05,1,"[0.585184599849133, 0.494872431528697, 0.5659498501263919, 0.7024569145700755]","[140.4527165233077, 6938.044164501791, 358.5750148828632, 1262.6340022099025]",None,"[15.904518781883633, 1.429584990538534, 13.299892230202929, 11.0]",False,544.5824174999725,547.2688829000108,547.2688829000108,548.4956843000837,['space'],1,[0.3812779998406768],3.362420619931072,4.394819319946691,None,1,None,1,,,,,,rehvhf,001,fr,0,0,2022-05-11_11h05.37.614,Cluster,2022.1.1,36.13552268322738,
,,,,2,0,2,0,18,0,18,0,,,frequency,,,,,,,,,,,,,,,,,,,,,,,,,,,,,,,,,,,,,,,,,,,,,,,,,,,,,,,,,,,,,,,,,,,,,,,,,,,,,,,,,,,,,,,,,,,,,,,,,,,,,,,,,,,,,,,,,,,549.0320664001629,None,378.9291416275994,3.0,0.00011586276668030738,1,"[0.6585845498345455, 0.4709159594508028, 0.5204366558479093, 0.7412680596503924]","[150.37812951026456, 189.46457081379972, 238.71040097760408, 300.75625902052906]",Major_3rd,"[15.697045039826907, 13.043143574966717, 10.753016668528463, 12.0]",False,550.040454900125,552.7438874000218,552.7438874000218,553.9576519001275,['space'],1,[0.4204626998398453],3.4014638199005276,4.402048419928178,None,1,None,1,,,,,,rehvhf,001,fr,0,0,2022-05-11_11h05.37.614,Cluster,2022.1.1,36.13552268322738,
,,,,2,0,2,0,19,0,19,0,,,both,,,,,,,,,,,,,,,,,,,,,,,,,,,,,,,,,,,,,,,,,,,,,,,,,,,,,,,,,,,,,,,,,,,,,,,,,,,,,,,,,,,,,,,,,,,,,,,,,,,,,,,,,,,,,,,,,,,554.4947137001436,None,318.8615412660911,6.9516136381955,0.0002173268881363393,1,"[0.5738755379573862, 0.5738755379573862, 0.5738755379573862, 0.5738755379573862]","[200.87018392153544, 225.46915808884717, 253.08057301899723, 284.07333837821346]",Tone,"[12.0, 11.0, 10.737984022260164, 11.699596671114493]",False,555.5150707000867,558.2510305000469,558.2510305000469,559.4798349000048,['space'],1,[0.4058158998377621],3.3386603200342506,4.3502230199519545,None,1,None,1,,,,,,rehvhf,001,fr,0,0,2022-05-11_11h05.37.614,Cluster,2022.1.1,36.13552268322738,
,,,,3,0,3,0,0,0,0,0,,,none,,,,,,,,,,,,,,,,,,,,,,,,,,,,,,,,,,,,,,,,,,,,,,,,,,,,,,,,,,,,,,,,,,,,,,,,,,,,,,,,,,,,,,,,,,,,,,,,,,,,,,,,,,,,,,,,,,,562.9548480000813,None,339.8916947445148,7.0,0.00020631836677812543,1,"[0.599258117973725, 0.43952728143728514, 0.7246028884238191, 0.5069098625797014]","[318.0484949668114, 3745.64928774355, 3046.829920814298, 283.6585857831156]",None,"[12.37755819938783, -2.229291087697346, 0.9409126315812122, 11.699596671114493]",False,563.9408001999836,566.7335259001702,566.7335259001702,567.9513950000983,['space'],1,[0.3573584998957813],3.2976569200400263,4.323047620011494,None,1,None,1,,,,,,rehvhf,001,fr,0,0,2022-05-11_11h05.37.614,Cluster,2022.1.1,36.13552268322738,
,,,,3,0,3,0,1,0,1,0,,,frequency,,,,,,,,,,,,,,,,,,,,,,,,,,,,,,,,,,,,,,,,,,,,,,,,,,,,,,,,,,,,,,,,,,,,,,,,,,,,,,,,,,,,,,,,,,,,,,,,,,,,,,,,,,,,,,,,,,,568.306605800055,None,667.8226471043936,7.0,0.00010711805956224762,1,"[0.4935526252158096, 0.60559768406198, 0.746829409278424, 0.7975179633045821]","[420.7019053416704, 472.2219223974673, 530.051186270851, 594.9623402503923]",Tone,"[13.0, 12.322306832128891, 11.929749452068993, 12.527670868621039]",False,569.3194534999784,572.1786231000442,572.1786231000442,573.3939918000251,['space'],1,[0.28149829991161823],3.691045119892806,4.68880112003535,None,1,None,1,,,,,,rehvhf,001,fr,0,0,2022-05-11_11h05.37.614,Cluster,2022.1.1,36.13552268322738,
,,,,3,0,3,0,2,0,2,0,,,none,,,,,,,,,,,,,,,,,,,,,,,,,,,,,,,,,,,,,,,,,,,,,,,,,,,,,,,,,,,,,,,,,,,,,,,,,,,,,,,,,,,,,,,,,,,,,,,,,,,,,,,,,,,,,,,,,,,574.0468755001202,None,,,,,"[0.7624681169743417, 0.6355877745613664, 0.7426786574442634, 0.5228962655162843]","[720.0625054705289, 139.45406287692452, 509.3719624473518, 7937.106563820398]",None,"[13.33283077798073, 15.904518781883633, 12.0, -3.828377420556386]",True,575.055141699966,578.2252490001265,578.2252490001265,579.4528686001431,None,1,,3.701044720131904,4.717948320088908,None,1,None,1,0,,,,,rehvhf,001,fr,0,0,2022-05-11_11h05.37.614,Cluster,2022.1.1,36.13552268322738,
,,,,3,0,3,0,3,0,3,0,,,both,,,,,,,,,,,,,,,,,,,,,,,,,,,,,,,,,,,,,,,,,,,,,,,,,,,,,,,,,,,,,,,,,,,,,,,,,,,,,,,,,,,,,,,,,,,,,,,,,,,,,,,,,,,,,,,,,,,579.8124965999741,None,435.2752816480623,5.0,0.00013292980158504297,1,"[0.6192973388209395, 0.6192973388209395, 0.6192973388209395, 0.6192973388209395]","[274.2062449236566, 307.7861033362292, 345.4782199919442, 387.78619045843385]",Tone,"[11.097731581488885, 12.37755819938783, 13.299892230202929, 13.35483667658238]",False,580.8185585001484,583.7048577000387,583.7048577000387,584.918777000159,['space'],1,[0.2667928000446409],3.506065519992262,4.511742220027372,None,1,None,1,,,,,,rehvhf,001,fr,0,0,2022-05-11_11h05.37.614,Cluster,2022.1.1,36.13552268322738,
,,,,3,0,3,0,4,0,4,0,,,frequency,,,,,,,,,,,,,,,,,,,,,,,,,,,,,,,,,,,,,,,,,,,,,,,,,,,,,,,,,,,,,,,,,,,,,,,,,,,,,,,,,,,,,,,,,,,,,,,,,,,,,,,,,,,,,,,,,,,585.370093600126,None,189.4645708137998,-5.0,0.00017084605332667944,0,"[0.6439631496920563, 0.5364878711115192, 0.6657904219279478, 0.4006867410266648]","[300.7562590205293, 267.9433656340734, 238.71040097760422, 212.666790237714]",Tone,"[12.0, 11.097731581488885, 10.753016668528463, 11.191061034939638]",False,586.4096358001698,589.3092812001705,589.3092812001705,590.5067994999699,None,0,,3.2679423200897872,4.272704120026901,None,1,None,1,,,,,,rehvhf,001,fr,0,0,2022-05-11_11h05.37.614,Cluster,2022.1.1,36.13552268322738,
,,,,3,0,3,0,5,0,5,0,,,both,,,,,,,,,,,,,,,,,,,,,,,,,,,,,,,,,,,,,,,,,,,,,,,,,,,,,,,,,,,,,,,,,,,,,,,,,,,,,,,,,,,,,,,,,,,,,,,,,,,,,,,,,,,,,,,,,,,590.7376191001385,None,3894.7114345247646,-8.225816271421172,3.184269247054242e-05,0,"[0.651586695521416, 0.651586695521416, 0.651586695521416, 0.651586695521416]","[6182.469028277187, 5507.953732234495, 4907.028919624009, 4371.665774370604]",Tone,"[4.0, 4.0, 1.5260602889550174, -1.0]",False,591.7301978999749,594.7225449001417,594.7225449001417,595.9465218000114,None,0,,3.6560575200710446,4.662633419968188,None,1,None,1,,,,,,rehvhf,001,fr,0,0,2022-05-11_11h05.37.614,Cluster,2022.1.1,36.13552268322738,
,,,,3,0,3,0,6,0,6,0,,,both,,,,,,,,,,,,,,,,,,,,,,,,,,,,,,,,,,,,,,,,,,,,,,,,,,,,,,,,,,,,,,,,,,,,,,,,,,,,,,,,,,,,,,,,,,,,,,,,,,,,,,,,,,,,,,,,,,,596.4279514001682,None,217.63764082403114,-5.0,0.00012983715067005198,0,"[0.6988571563208633, 0.6988571563208633, 0.6988571563208633, 0.6988571563208633]","[137.1031224618283, 153.8930516681146, 172.7391099959721, 193.89309522921693]",Tone,"[15.679776902457883, 15.697045039826907, 14.136184155122894, 13.0]",False,598.86564250011,602.0006375000812,602.0006375000812,603.2264366999734,None,0,,3.822876399382949,4.84606419946067,None,1,None,1,,,,,,rehvhf,001,fr,0,0,2022-05-11_11h05.37.614,Cluster,2022.1.1,36.13552268322738,
,,,,3,0,3,0,7,0,7,0,,,both,,,,,,,,,,,,,,,,,,,,,,,,,,,,,,,,,,,,,,,,,,,,,,,,,,,,,,,,,,,,,,,,,,,,,,,,,,,,,,,,,,,,,,,,,,,,,,,,,,,,,,,,,,,,,,,,,,,603.7554252999835,None,6646.219660524259,-3.0,9.946830883439133e-05,1,"[0.5706655108429434, 0.5706655108429434, 0.5706655108429434, 0.5706655108429434]","[4186.856026259836, 4699.586991212057, 5275.108040363969, 5921.108576040183]",Tone,"[-1.4946441071950893, 0.0, 3.1001626587759517, 4.252363104021113]",False,604.7442427000497,607.473218300147,607.473218300147,608.688158800127,['space'],1,[0.27733629988506436],3.3251788201741874,4.363933120155707,None,1,None,1,,,,,,rehvhf,001,fr,0,0,2022-05-11_11h05.37.614,Cluster,2022.1.1,36.13552268322738,
,,,,3,0,3,0,8,0,8,0,,,time,,,,,,,,,,,,,,,,,,,,,,,,,,,,,,,,,,,,,,,,,,,,,,,,,,,,,,,,,,,,,,,,,,,,,,,,,,,,,,,,,,,,,,,,,,,,,,,,,,,,,,,,,,,,,,,,,,,609.1456418000162,None,3156.326717654781,-6.0,3.464721032709132e-05,0,"[0.7387557631588546, 0.7387557631588546, 0.7387557631588546, 0.7387557631588546]","[1101.7690191533454, 3983.441663462834, 961.9255799246971, 1066.1256260873154]",None,"[10.0, -2.2258162714211718, 11.0, 10.0]",False,610.1467959000729,613.4011150000151,613.4011150000151,614.6321943001822,None,0,,3.990727520082146,5.009686320088804,None,1,None,1,,,,,,rehvhf,001,fr,0,0,2022-05-11_11h05.37.614,Cluster,2022.1.1,36.13552268322738,
,,,,3,0,3,0,9,0,9,0,,,none,,,,,,,,,,,,,,,,,,,,,,,,,,,,,,,,,,,,,,,,,,,,,,,,,,,,,,,,,,,,,,,,,,,,,,,,,,,,,,,,,,,,,,,,,,,,,,,,,,,,,,,,,,,,,,,,,,,615.1984042001422,None,,,,,"[0.5300302117079477, 0.4857445667482004, 0.5598135787217928, 0.7414362592696961]","[1089.805021397774, 317.0411921436591, 178.53892637239363, 188.23031128481415]",None,"[10.0, 12.37755819938783, 14.0, 13.043143574966717]",True,616.1855598001275,618.8000354000833,618.8000354000833,620.0137162001338,None,1,,3.3596514200326055,4.384574820054695,None,1,None,1,0,,,,,rehvhf,001,fr,0,0,2022-05-11_11h05.37.614,Cluster,2022.1.1,36.13552268322738,
,,,,3,0,3,0,10,0,10,0,,,time,,,,,,,,,,,,,,,,,,,,,,,,,,,,,,,,,,,,,,,,,,,,,,,,,,,,,,,,,,,,,,,,,,,,,,,,,,,,,,,,,,,,,,,,,,,,,,,,,,,,,,,,,,,,,,,,,,,620.60282320017,None,233.2582478842019,-5.0,0.00011262740412183961,0,"[0.7540724340674299, 0.7540724340674299, 0.7540724340674299, 0.7540724340674299]","[7114.65890852696, 2281.156705114421, 1042.0754992523437, 2356.61559857557]",None,"[1.0, 7.2413617942191095, 10.0, 7.0]",False,621.6082600001246,624.9122345000505,624.9122345000505,626.1469493000768,None,0,,4.027257320238277,5.050992420176044,None,1,None,1,,,,,,rehvhf,001,fr,0,0,2022-05-11_11h05.37.614,Cluster,2022.1.1,36.13552268322738,
,,,,3,0,3,0,11,0,11,0,,,both,,,,,,,,,,,,,,,,,,,,,,,,,,,,,,,,,,,,,,,,,,,,,,,,,,,,,,,,,,,,,,,,,,,,,,,,,,,,,,,,,,,,,,,,,,,,,,,,,,,,,,,,,,,,,,,,,,,626.7120366001036,None,307.7861033362292,-2.0,8.440818067039319e-05,0,"[0.4123510410986825, 0.4123510410986825, 0.4123510410986825, 0.4123510410986825]","[193.89309522921687, 217.63764082403108, 244.28999210856156, 274.2062449236566]",Tone,"[13.0, 11.191061034939638, 10.737984022260164, 11.097731581488885]",False,627.7264378000982,629.9775368000846,629.9775368000846,631.1865785000846,None,0,,2.6854379198048264,3.7139750197529793,None,1,None,1,,,,,,rehvhf,001,fr,0,0,2022-05-11_11h05.37.614,Cluster,2022.1.1,36.13552268322738,
,,,,3,0,3,0,12,0,12,0,,,frequency,,,,,,,,,,,,,,,,,,,,,,,,,,,,,,,,,,,,,,,,,,,,,,,,,,,,,,,,,,,,,,,,,,,,,,,,,,,,,,,,,,,,,,,,,,,,,,,,,,,,,,,,,,,,,,,,,,,631.4892553000245,None,2019.6024996369856,4.877239177966782,0.00013193110666447544,1,"[0.720772490671776, 0.4794485995183084, 0.546760066436025, 0.4948430968516542]","[3205.9191324813564, 2856.149245589229, 2544.539701712941, 2266.9271585132606]",Tone,"[0.0, 2.4303337370849842, 5.0, 7.2413617942191095]",False,632.5035991000477,635.2837251999881,635.2837251999881,636.500877100043,['space'],1,[0.263542199973017],3.2921889200806618,4.298823720077053,None,1,None,1,,,,,,rehvhf,001,fr,0,0,2022-05-11_11h05.37.614,Cluster,2022.1.1,36.13552268322738,
,,,,3,0,3,0,13,0,13,0,,,time,,,,,,,,,,,,,,,,,,,,,,,,,,,,,,,,,,,,,,,,,,,,,,,,,,,,,,,,,,,,,,,,,,,,,,,,,,,,,,,,,,,,,,,,,,,,,,,,,,,,,,,,,,,,,,,,,,,636.8403694001026,None,,,,,"[0.5192190179751784, 0.5192190179751784, 0.5192190179751784, 0.5192190179751784]","[434.53828247664313, 257.1318741916488, 363.58909354686625, 904.4062417471971]",None,"[12.746699646986363, 11.0, 13.299892230202929, 12.0]",True,637.8543736001011,640.4443481001072,640.4443481001072,641.6570953000337,None,1,,3.125211020000279,4.12976942001842,None,1,None,1,0,,,,,rehvhf,001,fr,0,0,2022-05-11_11h05.37.614,Cluster,2022.1.1,36.13552268322738,
,,,,3,0,3,0,14,0,14,0,,,none,,,,,,,,,,,,,,,,,,,,,,,,,,,,,,,,,,,,,,,,,,,,,,,,,,,,,,,,,,,,,,,,,,,,,,,,,,,,,,,,,,,,,,,,,,,,,,,,,,,,,,,,,,,,,,,,,,,642.0228447001427,None,1414.213562373095,12.0,0.0002007747620013617,1,"[0.5338468271782002, 0.6898170162812787, 0.4448034957387257, 0.6216173031073676]","[377.396773605779, 675.5567098489464, 7344.675410732792, 159.3728960985138]",None,"[13.35483667658238, 13.0, -1.0, 15.697045039826907]",False,643.0339577000123,645.7281431001611,645.7281431001611,646.9366013000254,['space'],1,[0.33066429989412427],3.2991880199406296,4.319678720086813,None,1,None,1,,,,,,rehvhf,001,fr,0,0,2022-05-11_11h05.37.614,Cluster,2022.1.1,36.13552268322738,
,,,,3,0,3,0,15,0,15,0,,,frequency,,,,,,,,,,,,,,,,,,,,,,,,,,,,,,,,,,,,,,,,,,,,,,,,,,,,,,,,,,,,,,,,,,,,,,,,,,,,,,,,,,,,,,,,,,,,,,,,,,,,,,,,,,,,,,,,,,,647.405929800123,None,287.17458874925893,-5.0,7.203571398119435e-05,0,"[0.7775359560911412, 0.7070844964823324, 0.7834942421991589, 0.7086388935392204]","[180.90865468004733, 203.06309908905897, 227.93062213955432, 255.84347299919386]",Tone,"[14.0, 11.997537070210154, 11.0, 10.737984022260164]",False,648.4413004000671,651.7359190999996,651.7359190999996,652.947928900132,None,0,,3.9965494200587273,5.020355619955808,None,1,None,1,,,,,,rehvhf,001,fr,0,0,2022-05-11_11h05.37.614,Cluster,2022.1.1,36.13552268322738,
,,,,3,0,3,0,16,0,16,0,,,both,,,,,,,,,,,,,,,,,,,,,,,,,,,,,,,,,,,,,,,,,,,,,,,,,,,,,,,,,,,,,,,,,,,,,,,,,,,,,,,,,,,,,,,,,,,,,,,,,,,,,,,,,,,,,,,,,,,653.5146198000293,None,196.5102931152651,7.0,0.0006227039927328056,1,"[0.5589569678370324, 0.5589569678370324, 0.5589569678370324, 0.5589569678370324]","[311.9406460137512, 277.90752166952024, 247.58745481693413, 220.57534612403578]",Tone,"[12.37755819938783, 11.699596671114493, 10.737984022260164, 11.191061034939638]",False,654.5079506000038,657.2221852000803,657.2221852000803,658.4345160999801,['space'],1,[0.2536441998090595],3.282711519859731,4.288468919927254,None,1,None,1,,,,,,rehvhf,001,fr,0,0,2022-05-11_11h05.37.614,Cluster,2022.1.1,36.13552268322738,
,,,,3,0,3,0,17,0,17,0,,,time,,,,,,,,,,,,,,,,,,,,,,,,,,,,,,,,,,,,,,,,,,,,,,,,,,,,,,,,,,,,,,,,,,,,,,,,,,,,,,,,,,,,,,,,,,,,,,,,,,,,,,,,,,,,,,,,,,,658.833986800164,None,366.44600888247584,7.354836676582379,0.00019884474160980007,1,"[0.5402853657771952, 0.5402853657771952, 0.5402853657771952, 0.5402853657771952]","[1817.0038229918507, 345.2597037185739, 275.4159173243816, 1849.446405452505]",None,"[13.0, 13.299892230202929, 11.097731581488885, 12.5186359227462]",False,659.845012200065,662.498042399995,662.498042399995,663.7135813001078,['space'],1,[0.32396649988368154],3.20116812014021,4.224046720191836,None,1,None,1,,,,,,rehvhf,001,fr,0,0,2022-05-11_11h05.37.614,Cluster,2022.1.1,36.13552268322738,
,,,,3,0,3,0,18,0,18,0,,,none,,,,,,,,,,,,,,,,,,,,,,,,,,,,,,,,,,,,,,,,,,,,,,,,,,,,,,,,,,,,,,,,,,,,,,,,,,,,,,,,,,,,,,,,,,,,,,,,,,,,,,,,,,,,,,,,,,,664.1063946001232,None,,,,,"[0.779150739667287, 0.5596683299919321, 0.7827430692130242, 0.4755345831942334]","[395.1627775997974, 4334.444102051875, 1294.16236617298, 1078.900788403891]",None,"[13.139930138205095, -1.4946441071950893, 12.0, 10.0]",True,665.1143545999657,668.2578441000078,668.2578441000078,669.4672642000951,None,1,,3.649998219916597,4.650854520034045,None,1,None,1,0,,,,,rehvhf,001,fr,0,0,2022-05-11_11h05.37.614,Cluster,2022.1.1,36.13552268322738,
,,,,3,0,3,0,19,0,19,0,,,both,,,,,,,,,,,,,,,,,,,,,,,,,,,,,,,,,,,,,,,,,,,,,,,,,,,,,,,,,,,,,,,,,,,,,,,,,,,,,,,,,,,,,,,,,,,,,,,,,,,,,,,,,,,,,,,,,,,669.8000799999572,None,659.7539553864473,4.0,7.695519420360523e-05,1,"[0.42329876978156694, 0.42329876978156694, 0.42329876978156694, 0.42329876978156694]","[130.91176535257839, 196.14602447418775, 293.8869765709023, 440.33293679807434]",Perfect_5th,"[15.679776902457883, 13.0, 12.0, 12.746699646986363]",False,670.8340557999909,673.1379657001235,673.1379657001235,674.3417138999794,['space'],1,[0.3576470999978483],2.7040449196938425,3.7301012196112424,None,1,None,1,,,,,,rehvhf,001,fr,0,0,2022-05-11_11h05.37.614,Cluster,2022.1.1,36.13552268322738,
,,,,4,0,4,0,0,0,0,0,,,both,,,,,,,,,,,,,,,,,,,,,,,,,,,,,,,,,,,,,,,,,,,,,,,,,,,,,,,,,,,,,,,,,,,,,,,,,,,,,,,,,,,,,,,,,,,,,,,,,,,,,,,,,,,,,,,,,,,691.5378604000434,None,3342.5446615708065,-7.0,3.233951778661266e-05,0,"[0.6618440637211334, 0.6618440637211334, 0.6618440637211334, 0.6618440637211334]","[663.2448640035235, 993.7444734385914, 1488.934377160133, 2230.880914304001]",Perfect_5th,"[13.0, 10.379185723991384, 14.0, 8.0]",False,692.5458776000887,695.5520588001236,695.5520588001236,696.759716700064,None,0,,3.6962629198096693,4.7161496200133115,None,1,None,1,,,,,,rehvhf,001,fr,0,0,2022-05-11_11h05.37.614,Cluster,2022.1.1,36.13552268322738,
,,,,4,0,4,0,1,0,1,0,,,time,,,,,,,,,,,,,,,,,,,,,,,,,,,,,,,,,,,,,,,,,,,,,,,,,,,,,,,,,,,,,,,,,,,,,,,,,,,,,,,,,,,,,,,,,,,,,,,,,,,,,,,,,,,,,,,,,,,697.3025086000562,None,1414.213562373095,6.0,0.00010062574754963646,0,"[0.689566156231423, 0.689566156231423, 0.689566156231423, 0.689566156231423]","[3610.5626156538524, 7782.071915521314, 3556.9883841334995, 3189.202214755876]",None,"[-2.0, -3.0, -1.5732043655427939, 0.0]",False,698.3314251999836,701.413291899953,701.413291899953,702.6140581001528,None,0,,3.7829474196769297,4.80282431980595,None,1,None,1,,,,,,rehvhf,001,fr,0,0,2022-05-11_11h05.37.614,Cluster,2022.1.1,36.13552268322738,
,,,,4,0,4,0,2,0,2,0,,,frequency,,,,,,,,,,,,,,,,,,,,,,,,,,,,,,,,,,,,,,,,,,,,,,,,,,,,,,,,,,,,,,,,,,,,,,,,,,,,,,,,,,,,,,,,,,,,,,,,,,,,,,,,,,,,,,,,,,,703.1869560000487,None,985.1482617409342,4.379185723991385,7.223501750265436e-05,1,"[0.7614431606751848, 0.7811979204003967, 0.45935137484344246, 0.5196730368758661]","[4964.836128938989, 3313.6305671655186, 2211.5830715242946, 1476.054612339203]",Perfect_5th,"[1.5260602889550174, -1.0, 8.0, 14.0]",False,704.1852011000738,707.2084842000622,707.2084842000622,708.4160968000069,['space'],1,[0.3095826997887343],3.5629448199179024,4.564341319957748,None,1,None,1,,,,,,rehvhf,001,fr,0,0,2022-05-11_11h05.37.614,Cluster,2022.1.1,36.13552268322738,
,,,,4,0,4,0,3,0,3,0,,,frequency,,,,,,,,,,,,,,,,,,,,,,,,,,,,,,,,,,,,,,,,,,,,,,,,,,,,,,,,,,,,,,,,,,,,,,,,,,,,,,,,,,,,,,,,,,,,,,,,,,,,,,,,,,,,,,,,,,,708.7926700001117,None,3732.1319661472303,-3.0,5.609622067137951e-05,1,"[0.550834399277675, 0.6151273109390503, 0.6372932456758522, 0.4143803411522714]","[2351.0958125672173, 2639.0158215457886, 2962.195104573129, 3324.9515845711517]",Tone,"[7.0, 3.9565504054518565, 1.0, -1.0]",False,711.449007499963,714.2830076999962,714.2830076999962,715.5164827001281,['space'],1,[0.3338957999367267],3.2312925395090133,4.2580205395352095,None,1,None,1,,,,,,rehvhf,001,fr,0,0,2022-05-11_11h05.37.614,Cluster,2022.1.1,36.13552268322738,
,,,,4,0,4,0,4,0,4,0,,,none,,,,,,,,,,,,,,,,,,,,,,,,,,,,,,,,,,,,,,,,,,,,,,,,,,,,,,,,,,,,,,,,,,,,,,,,,,,,,,,,,,,,,,,,,,,,,,,,,,,,,,,,,,,,,,,,,,,715.7673253000248,None,2545.548127095465,-1.0,7.403168896845634e-05,1,"[0.5196056199535966, 0.5519184400166371, 0.40376567996613055, 0.5685719378644329]","[362.08847499333166, 733.521363654281, 604.0823748393651, 162.1253664497323]",None,"[13.299892230202929, 13.342534610553045, 12.527670868621039, 15.075435120841334]",False,716.7610464000609,719.2606250999961,719.2606250999961,720.4782720000949,['space'],1,[0.3358675998169929],3.0734305197838694,4.101043219678104,None,1,None,1,,,,,,rehvhf,001,fr,0,0,2022-05-11_11h05.37.614,Cluster,2022.1.1,36.13552268322738,
,,,,4,0,4,0,5,0,5,0,,,time,,,,,,,,,,,,,,,,,,,,,,,,,,,,,,,,,,,,,,,,,,,,,,,,,,,,,,,,,,,,,,,,,,,,,,,,,,,,,,,,,,,,,,,,,,,,,,,,,,,,,,,,,,,,,,,,,,,720.9086095001549,None,,,,,"[0.7415209365139046, 0.7415209365139046, 0.7415209365139046, 0.7415209365139046]","[7090.721975124012, 486.52676531959, 3718.397066975496, 678.742095603392]",None,"[1.0, 12.010814040623114, -2.229291087697346, 13.0]",True,721.9087064000778,725.167524700053,725.167524700053,726.3733147000894,['space'],0,[0.4393408000469208],3.9969567202497274,5.001394620165229,None,1,None,1,0,,,,,rehvhf,001,fr,0,0,2022-05-11_11h05.37.614,Cluster,2022.1.1,36.13552268322738,
,,,,4,0,4,0,6,0,6,0,,,frequency,,,,,,,,,,,,,,,,,,,,,,,,,,,,,,,,,,,,,,,,,,,,,,,,,,,,,,,,,,,,,,,,,,,,,,,,,,,,,,,,,,,,,,,,,,,,,,,,,,,,,,,,,,,,,,,,,,,726.9459022001829,None,1369.4746509356746,7.0,0.00011539053929672627,1,"[0.7202423517943859, 0.6809455987836663, 0.48407030664133643, 0.5588488656126535]","[3450.8598800225805, 2738.9493018713492, 2173.9055015390727, 1725.4299400112902]",Major_3rd,"[-1.5732043655427939, 3.0, 9.0, 13.716508752903845]",False,727.9473540000618,730.8660053000785,730.8660053000785,732.0989803001285,['space'],1,[0.25166909978725016],3.4932967198546976,4.512465719832107,None,1,None,1,,,,,,rehvhf,001,fr,0,0,2022-05-11_11h05.37.614,Cluster,2022.1.1,36.13552268322738,
,,,,4,0,4,0,7,0,7,0,,,none,,,,,,,,,,,,,,,,,,,,,,,,,,,,,,,,,,,,,,,,,,,,,,,,,,,,,,,,,,,,,,,,,,,,,,,,,,,,,,,,,,,,,,,,,,,,,,,,,,,,,,,,,,,,,,,,,,,732.4979910999537,None,176.7766952966369,-5.0,0.00019683126003941905,0,"[0.6138329798770765, 0.7574017315337763, 0.6395983325127398, 0.43791641999482694]","[4035.0782098320506, 1374.148915398947, 450.19745489809713, 3135.877254383229]",None,"[-2.2258162714211718, 13.0, 12.746699646986363, 0.0]",False,733.5029264001641,736.5298595000058,736.5298595000058,737.7465032001492,None,0,,3.4650824200361967,4.473857220029458,None,1,None,1,,,,,,rehvhf,001,fr,0,0,2022-05-11_11h05.37.614,Cluster,2022.1.1,36.13552268322738,
,,,,4,0,4,0,8,0,8,0,,,frequency,,,,,,,,,,,,,,,,,,,,,,,,,,,,,,,,,,,,,,,,,,,,,,,,,,,,,,,,,,,,,,,,,,,,,,,,,,,,,,,,,,,,,,,,,,,,,,,,,,,,,,,,,,,,,,,,,,,738.0238002000842,None,125.0,1.0,0.0008109050486794653,0,"[0.5821129541204784, 0.6154536197547229, 0.6523228485972538, 0.4781724678906205]","[314.9802624737183, 250.00000000000003, 198.42513149602496, 157.49013123685916]",Major_3rd,"[12.37755819938783, 10.737984022260164, 12.0, 15.697045039826907]",False,739.0392863999587,741.9133077999577,741.9133077999577,743.1444439000916,None,0,,3.3733706998173147,4.3851512998808175,None,1,None,1,,,,,,rehvhf,001,fr,0,0,2022-05-11_11h05.37.614,Cluster,2022.1.1,36.13552268322738,
,,,,4,0,4,0,9,0,9,0,,,both,,,,,,,,,,,,,,,,,,,,,,,,,,,,,,,,,,,,,,,,,,,,,,,,,,,,,,,,,,,,,,,,,,,,,,,,,,,,,,,,,,,,,,,,,,,,,,,,,,,,,,,,,,,,,,,,,,,743.4537871000357,None,,,,,"[0.4597149870546465, 0.4597149870546465, 0.4597149870546465, 0.4597149870546465]","[243.87703892579282, 307.2658149286377, 387.13066814169304, 487.7540778515856]",Major_3rd,"[10.737984022260164, 12.37755819938783, 13.35483667658238, 12.010814040623114]",True,744.4676868000533,746.8780217999592,746.8780217999592,748.0869535000529,None,1,,2.8786189197562635,3.893805719912052,None,1,None,1,0,,,,,rehvhf,001,fr,0,0,2022-05-11_11h05.37.614,Cluster,2022.1.1,36.13552268322738,
,,,,4,0,4,0,10,0,10,0,,,time,,,,,,,,,,,,,,,,,,,,,,,,,,,,,,,,,,,,,,,,,,,,,,,,,,,,,,,,,,,,,,,,,,,,,,,,,,,,,,,,,,,,,,,,,,,,,,,,,,,,,,,,,,,,,,,,,,,748.4010759000666,None,184.64881975188786,7.043143574966717,0.0007229972863585074,1,"[0.6817542114392536, 0.6817542114392536, 0.6817542114392536, 0.6817542114392536]","[988.0785425115974, 6455.005332094949, 313.3797902109858, 1626.7569101575973]",None,"[10.379185723991384, 3.3231560339757156, 12.37755819938783, 14.259634010736352]",False,749.4065575001296,752.483297200175,752.483297200175,753.6920062000863,['space'],1,[0.3148161999415606],3.7792113199830055,4.792570220073685,None,1,None,1,,,,,,rehvhf,001,fr,0,0,2022-05-11_11h05.37.614,Cluster,2022.1.1,36.13552268322738,
,,,,4,0,4,0,11,0,11,0,,,time,,,,,,,,,,,,,,,,,,,,,,,,,,,,,,,,,,,,,,,,,,,,,,,,,,,,,,,,,,,,,,,,,,,,,,,,,,,,,,,,,,,,,,,,,,,,,,,,,,,,,,,,,,,,,,,,,,,754.2407060000114,None,500.0,6.0,0.0001425509133751955,0,"[0.7148115090691888, 0.7148115090691888, 0.7148115090691888, 0.7148115090691888]","[203.4866898906327, 273.1396112469876, 6979.307977967162, 428.79804284915036]",None,"[11.997537070210154, 11.097731581488885, 1.429584990538534, 12.746699646986363]",False,756.2825138000771,759.4636140000075,759.4636140000075,760.6861537001096,None,0,,3.8740558796562254,4.903241179650649,None,1,None,1,,,,,,rehvhf,001,fr,0,0,2022-05-11_11h05.37.614,Cluster,2022.1.1,36.13552268322738,
,,,,4,0,4,0,12,0,12,0,,,none,,,,,,,,,,,,,,,,,,,,,,,,,,,,,,,,,,,,,,,,,,,,,,,,,,,,,,,,,,,,,,,,,,,,,,,,,,,,,,,,,,,,,,,,,,,,,,,,,,,,,,,,,,,,,,,,,,,761.2287093000486,None,863.1883763945798,6.155450019189026,8.158484840418761e-05,1,"[0.46827760011367625, 0.4678623335431733, 0.6777597239622744, 0.6926677186275063]","[2834.648784029376, 3697.153238841239, 359.749753610749, 7026.661106323196]",None,"[2.4303337370849842, -2.229291087697346, 13.299892230202929, 1.0]",False,762.2227640000638,764.8658972999547,764.8658972999547,766.0876613999717,['space'],1,[0.38707289984449744],3.352924820035696,4.386664720019326,None,1,None,1,,,,,,rehvhf,001,fr,0,0,2022-05-11_11h05.37.614,Cluster,2022.1.1,36.13552268322738,
,,,,4,0,4,0,13,0,13,0,,,none,,,,,,,,,,,,,,,,,,,,,,,,,,,,,,,,,,,,,,,,,,,,,,,,,,,,,,,,,,,,,,,,,,,,,,,,,,,,,,,,,,,,,,,,,,,,,,,,,,,,,,,,,,,,,,,,,,,766.6528750001453,None,,,,,"[0.7660818290490926, 0.6455869160232379, 0.6778398491526976, 0.4127855719555016]","[7280.046027627044, 1321.5321880203066, 2009.3575458435705, 422.9749524879406]",None,"[0.0, 12.060778396820584, 10.877239177966782, 13.0]",True,767.6448876000941,770.7774718999863,770.7774718999863,771.9781612001825,None,1,,3.540695620002225,4.550395119935274,None,1,None,1,0,,,,,rehvhf,001,fr,0,0,2022-05-11_11h05.37.614,Cluster,2022.1.1,36.13552268322738,
,,,,4,0,4,0,14,0,14,0,,,time,,,,,,,,,,,,,,,,,,,,,,,,,,,,,,,,,,,,,,,,,,,,,,,,,,,,,,,,,,,,,,,,,,,,,,,,,,,,,,,,,,,,,,,,,,,,,,,,,,,,,,,,,,,,,,,,,,,772.228477000026,None,4189.253235303271,-7.494644107195089,4.091372793452326e-05,1,"[0.4702136064929425, 0.4702136064929425, 0.4702136064929425, 0.4702136064929425]","[433.32755083348616, 3215.605234058045, 1264.4615249916199, 2535.4849102778517]",None,"[12.746699646986363, -0.4465051926092025, 11.0, 5.0]",False,773.2273524000775,775.6701374000404,775.6701374000404,776.8797326001804,['space'],1,[0.3324120999313891],2.931791119975969,3.958732519997284,None,1,None,1,,,,,,rehvhf,001,fr,0,0,2022-05-11_11h05.37.614,Cluster,2022.1.1,36.13552268322738,
,,,,4,0,4,0,15,0,15,0,,,time,,,,,,,,,,,,,,,,,,,,,,,,,,,,,,,,,,,,,,,,,,,,,,,,,,,,,,,,,,,,,,,,,,,,,,,,,,,,,,,,,,,,,,,,,,,,,,,,,,,,,,,,,,,,,,,,,,,777.2236363000702,None,125.0,2.0,0.000909850429304992,1,"[0.4136672173024787, 0.4136672173024787, 0.4136672173024787, 0.4136672173024787]","[1089.3760132995312, 1453.8811273907272, 1013.7443356908301, 315.295962225458]",None,"[10.0, 13.234828385420311, 10.379185723991384, 12.37755819938783]",False,779.1738146999851,781.4339962999802,781.4339962999802,782.6527774001006,['space'],1,[0.4527613997925073],2.6678765395190567,3.6792661393992603,None,1,None,1,,,,,,rehvhf,001,fr,0,0,2022-05-11_11h05.37.614,Cluster,2022.1.1,36.13552268322738,
,,,,4,0,4,0,16,0,16,0,,,frequency,,,,,,,,,,,,,,,,,,,,,,,,,,,,,,,,,,,,,,,,,,,,,,,,,,,,,,,,,,,,,,,,,,,,,,,,,,,,,,,,,,,,,,,,,,,,,,,,,,,,,,,,,,,,,,,,,,,782.9093537000008,None,177.57187643981325,8.0,0.0008719384396136629,1,"[0.46496568690619666, 0.7629470083295162, 0.5089554252288843, 0.7505601837206708]","[894.906179983409, 597.278217392458, 398.63538430154335, 266.05719912404385]",Perfect_5th,"[12.0, 12.527670868621039, 13.139930138205095, 11.097731581488885]",False,783.9063053999562,786.6605581000913,786.6605581000913,787.8853474999778,['space'],1,[0.3558640999253839],3.5238783198874444,4.546982920030132,None,1,None,1,,,,,,rehvhf,001,fr,0,0,2022-05-11_11h05.37.614,Cluster,2022.1.1,36.13552268322738,
,,,,4,0,4,0,17,0,17,0,,,both,,,,,,,,,,,,,,,,,,,,,,,,,,,,,,,,,,,,,,,,,,,,,,,,,,,,,,,,,,,,,,,,,,,,,,,,,,,,,,,,,,,,,,,,,,,,,,,,,,,,,,,,,,,,,,,,,,,788.4978124999907,None,8000.0,-14.0,3.622179800374953e-05,0,"[0.4508085142176339, 0.4508085142176339, 0.4508085142176339, 0.4508085142176339]","[1587.4010519681997, 2378.4142300054423, 3563.5948725613575, 5339.359416680138]",Perfect_5th,"[14.259634010736352, 6.0, -2.0, 3.1001626587759517]",False,789.5081346000079,791.897099000169,791.897099000169,793.1222540000454,None,0,,2.812442220048979,3.844666020013392,None,1,None,1,,,,,,rehvhf,001,fr,0,0,2022-05-11_11h05.37.614,Cluster,2022.1.1,36.13552268322738,
,,,,4,0,4,0,18,0,18,0,,,time,,,,,,,,,,,,,,,,,,,,,,,,,,,,,,,,,,,,,,,,,,,,,,,,,,,,,,,,,,,,,,,,,,,,,,,,,,,,,,,,,,,,,,,,,,,,,,,,,,,,,,,,,,,,,,,,,,,793.403553500073,None,505.1339515370476,6.0,0.00014095291108391937,0,"[0.5818563293271092, 0.5818563293271092, 0.5818563293271092, 0.5818563293271092]","[727.6194591587858, 294.22977104136856, 7299.484615507064, 2938.7292394727315]",None,"[13.33283077798073, 12.0, 0.0, 2.0]",False,794.398200900061,797.1581741000991,797.1581741000991,798.3686778000556,None,0,,3.376188520109281,4.394667920190841,None,1,None,1,,,,,,rehvhf,001,fr,0,0,2022-05-11_11h05.37.614,Cluster,2022.1.1,36.13552268322738,
,,,,4,0,4,0,19,0,19,0,,,time,,,,,,,,,,,,,,,,,,,,,,,,,,,,,,,,,,,,,,,,,,,,,,,,,,,,,,,,,,,,,,,,,,,,,,,,,,,,,,,,,,,,,,,,,,,,,,,,,,,,,,,,,,,,,,,,,,,798.8323927000165,None,5656.85424949238,-8.0,5.1166201016775726e-05,1,"[0.4959479166791212, 0.4959479166791212, 0.4959479166791212, 0.4959479166791212]","[232.5632041933002, 2448.5887515377694, 162.9571591652463, 709.8108039232793]",None,"[10.753016668528463, 5.542950219227805, 15.075435120841334, 13.33283077798073]",False,800.7141365001444,803.213961099973,803.213961099973,804.4420972000808,['space'],1,[0.3139115998055786],3.025547279510647,4.059955479577184,None,1,None,1,,,,,,rehvhf,001,fr,0,0,2022-05-11_11h05.37.614,Cluster,2022.1.1,36.13552268322738,
,,,,5,0,5,0,0,0,0,0,,,none,,,,,,,,,,,,,,,,,,,,,,,,,,,,,,,,,,,,,,,,,,,,,,,,,,,,,,,,,,,,,,,,,,,,,,,,,,,,,,,,,,,,,,,,,,,,,,,,,,,,,,,,,,,,,,,,,,,812.9614164000377,None,,,,,"[0.742333609565111, 0.5328479809097897, 0.48402750227339475, 0.41124326905415853]","[5831.024565342151, 3810.2912462896197, 134.72452722391844, 2830.0612523591444]",None,"[4.125945130134925, -2.229291087697346, 15.679776902457883, 2.4303337370849842]",True,813.9630229000468,816.7521423001308,816.7521423001308,817.9884454000276,['space'],0,[0.4155258999671787],3.2170084198005497,4.238862819969654,None,1,None,1,0,,,,,rehvhf,001,fr,0,0,2022-05-11_11h05.37.614,Cluster,2022.1.1,36.13552268322738,
,,,,5,0,5,0,1,0,1,0,,,none,,,,,,,,,,,,,,,,,,,,,,,,,,,,,,,,,,,,,,,,,,,,,,,,,,,,,,,,,,,,,,,,,,,,,,,,,,,,,,,,,,,,,,,,,,,,,,,,,,,,,,,,,,,,,,,,,,,818.2356867000926,None,378.9291416275994,1.0,9.203306692743987e-05,1,"[0.4043070230126611, 0.7135300413264112, 0.4119776064198621, 0.6507593789424209]","[2446.2862563894873, 3798.117727941493, 286.63505513686204, 1021.9751500540356]",None,"[5.542950219227805, -2.229291087697346, 11.699596671114493, 10.379185723991384]",False,819.2562929999549,821.8228368000127,821.8228368000127,823.0337177000474,['space'],1,[0.29864519997499883],3.1899423198774457,4.204782519955188,None,1,None,1,,,,,,rehvhf,001,fr,0,0,2022-05-11_11h05.37.614,Cluster,2022.1.1,36.13552268322738,
,,,,5,0,5,0,2,0,2,0,,,none,,,,,,,,,,,,,,,,,,,,,,,,,,,,,,,,,,,,,,,,,,,,,,,,,,,,,,,,,,,,,,,,,,,,,,,,,,,,,,,,,,,,,,,,,,,,,,,,,,,,,,,,,,,,,,,,,,,823.5140446999576,None,1628.0974965939772,8.259634010736352,0.00015015979313373433,1,"[0.7404134884678931, 0.4707443624244542, 0.7795789465371405, 0.5064861113533582]","[2244.930151943428, 1585.675863258152, 1034.509827324147, 898.7286983059711]",None,"[8.0, 14.259634010736352, 10.0, 12.0]",False,824.5110619000625,827.518835700117,827.518835700117,828.7383481999859,['space'],1,[0.3386754000093788],3.526813720120117,4.530061920173466,None,1,None,1,,,,,,rehvhf,001,fr,0,0,2022-05-11_11h05.37.614,Cluster,2022.1.1,36.13552268322738,
,,,,5,0,5,0,3,0,3,0,,,time,,,,,,,,,,,,,,,,,,,,,,,,,,,,,,,,,,,,,,,,,,,,,,,,,,,,,,,,,,,,,,,,,,,,,,,,,,,,,,,,,,,,,,,,,,,,,,,,,,,,,,,,,,,,,,,,,,,829.0860127999913,None,5095.135363816796,-4.0,9.416269433825667e-05,1,"[0.5328270210481145, 0.5328270210481145, 0.5328270210481145, 0.5328270210481145]","[140.9418656456497, 804.2835015654948, 1090.135164411241, 251.32636680745594]",None,"[15.904518781883633, 13.0, 10.0, 10.737984022260164]",False,830.1041401999537,832.7341051001567,832.7341051001567,833.9607725001406,['space'],1,[0.2837755000218749],3.17433832003735,4.182788919890299,None,1,None,1,,,,,,rehvhf,001,fr,0,0,2022-05-11_11h05.37.614,Cluster,2022.1.1,36.13552268322738,
,,,,5,0,5,0,4,0,4,0,,,frequency,,,,,,,,,,,,,,,,,,,,,,,,,,,,,,,,,,,,,,,,,,,,,,,,,,,,,,,,,,,,,,,,,,,,,,,,,,,,,,,,,,,,,,,,,,,,,,,,,,,,,,,,,,,,,,,,,,,834.3316944001708,None,5656.85424949238,-6.0,6.441443068498752e-05,1,"[0.6782887790856539, 0.7740539774767499, 0.599110010916297, 0.528180416051841]","[2244.9240966187467, 2828.427124746191, 3563.594872561358, 4489.8481932374925]",Major_3rd,"[8.0, 2.4303337370849842, -2.0, -1.0]",False,835.3355976000894,838.4194704000838,838.4194704000838,839.623862199951,['space'],1,[0.34979230002500117],3.6075346197467297,4.6202829198446125,None,1,None,1,,,,,,rehvhf,001,fr,0,0,2022-05-11_11h05.37.614,Cluster,2022.1.1,36.13552268322738,
,,,,5,0,5,0,5,0,5,0,,,time,,,,,,,,,,,,,,,,,,,,,,,,,,,,,,,,,,,,,,,,,,,,,,,,,,,,,,,,,,,,,,,,,,,,,,,,,,,,,,,,,,,,,,,,,,,,,,,,,,,,,,,,,,,,,,,,,,,840.008302600123,None,176.7766952966369,-3.0,0.0002477958750990904,0,"[0.7701853879903345, 0.7701853879903345, 0.7701853879903345, 0.7701853879903345]","[205.83224899795, 3265.8563277484573, 240.0091422575184, 195.5074868002313]",None,"[11.997537070210154, -0.4465051926092025, 10.753016668528463, 13.0]",False,841.0419350999873,844.3798571000807,844.3798571000807,845.5999647001736,None,0,,4.104763319948688,5.132763519883156,None,1,None,1,,,,,,rehvhf,001,fr,0,0,2022-05-11_11h05.37.614,Cluster,2022.1.1,36.13552268322738,
,,,,5,0,5,0,6,0,6,0,,,frequency,,,,,,,,,,,,,,,,,,,,,,,,,,,,,,,,,,,,,,,,,,,,,,,,,,,,,,,,,,,,,,,,,,,,,,,,,,,,,,,,,,,,,,,,,,,,,,,,,,,,,,,,,,,,,,,,,,,846.2307325999718,None,319.0932813437565,6.9516136381955,0.0002171929508334563,1,"[0.7478582683159665, 0.5717728885687705, 0.6350501095859682, 0.5153863574418757]","[126.63225262026594, 159.54664067187827, 201.01617102251294, 253.26450524053186]",Major_3rd,"[15.075302660145345, 15.075435120841334, 12.0, 10.737984022260164]",False,847.2218552001286,850.2181899000425,850.2181899000425,851.4369412001688,['space'],1,[0.282173799816519],3.515477220294997,4.514238320291042,None,1,None,1,,,,,,rehvhf,001,fr,0,0,2022-05-11_11h05.37.614,Cluster,2022.1.1,36.13552268322738,
,,,,5,0,5,0,7,0,7,0,,,none,,,,,,,,,,,,,,,,,,,,,,,,,,,,,,,,,,,,,,,,,,,,,,,,,,,,,,,,,,,,,,,,,,,,,,,,,,,,,,,,,,,,,,,,,,,,,,,,,,,,,,,,,,,,,,,,,,,851.7871181000955,None,,,,,"[0.7696110802799394, 0.5694402341653251, 0.44317263897679987, 0.422014598278251]","[178.01107544992516, 6277.35959198777, 4448.977082307008, 275.4449308563164]",None,"[14.0, 4.0, -1.0, 11.097731581488885]",True,852.7895637999754,855.6123327000532,855.6123327000532,856.818624699954,None,1,,3.245236119721085,4.270927819656208,None,1,None,1,0,,,,,rehvhf,001,fr,0,0,2022-05-11_11h05.37.614,Cluster,2022.1.1,36.13552268322738,
,,,,5,0,5,0,8,0,8,0,,,none,,,,,,,,,,,,,,,,,,,,,,,,,,,,,,,,,,,,,,,,,,,,,,,,,,,,,,,,,,,,,,,,,,,,,,,,,,,,,,,,,,,,,,,,,,,,,,,,,,,,,,,,,,,,,,,,,,,857.0898162999656,None,125.0,2.0,0.000909850429304992,0,"[0.7967096204124531, 0.7094306506436016, 0.6500027372108925, 0.4679578473824877]","[944.2002724464223, 671.9010518224648, 1370.4303890288543, 882.1132490326427]",None,"[11.0, 13.0, 13.0, 12.0]",False,858.1225499999709,861.3013792000711,861.3013792000711,862.5135530000553,None,0,,3.6479587198700756,4.685984919779003,None,1,None,1,,,,,,rehvhf,001,fr,0,0,2022-05-11_11h05.37.614,Cluster,2022.1.1,36.13552268322738,
,,,,5,0,5,0,9,0,9,0,,,time,,,,,,,,,,,,,,,,,,,,,,,,,,,,,,,,,,,,,,,,,,,,,,,,,,,,,,,,,,,,,,,,,,,,,,,,,,,,,,,,,,,,,,,,,,,,,,,,,,,,,,,,,,,,,,,,,,,862.8617432001047,None,1688.2523625891881,8.0,0.00015256044973598005,1,"[0.700671901019251, 0.700671901019251, 0.700671901019251, 0.700671901019251]","[1834.0528574660782, 730.2847949797398, 7002.26900823011, 704.485145147791]",None,"[13.0, 13.33283077798073, 1.429584990538534, 13.33283077798073]",False,863.8801208999939,867.0178465000354,867.0178465000354,868.2394250000361,['space'],1,[0.3449519998393953],3.8333060201257467,4.860553320264444,None,1,None,1,,,,,,rehvhf,001,fr,0,0,2022-05-11_11h05.37.614,Cluster,2022.1.1,36.13552268322738,
,,,,5,0,5,0,10,0,10,0,,,time,,,,,,,,,,,,,,,,,,,,,,,,,,,,,,,,,,,,,,,,,,,,,,,,,,,,,,,,,,,,,,,,,,,,,,,,,,,,,,,,,,,,,,,,,,,,,,,,,,,,,,,,,,,,,,,,,,,868.7851829000283,None,267.9433656340732,-1.0,0.0001323270188483443,0,"[0.7593624606727615, 0.7593624606727615, 0.7593624606727615, 0.7593624606727615]","[164.68020363093393, 6415.681628787204, 5237.158047171993, 3628.599532170829]",None,"[15.075435120841334, 3.3231560339757156, 3.0, -2.0]",False,871.3489451000933,874.6749103001785,874.6749103001785,875.8947670001071,None,0,,4.06962819956243,5.100817499449477,None,1,None,1,,,,,,rehvhf,001,fr,0,0,2022-05-11_11h05.37.614,Cluster,2022.1.1,36.13552268322738,
,,,,5,0,5,0,11,0,11,0,,,none,,,,,,,,,,,,,,,,,,,,,,,,,,,,,,,,,,,,,,,,,,,,,,,,,,,,,,,,,,,,,,,,,,,,,,,,,,,,,,,,,,,,,,,,,,,,,,,,,,,,,,,,,,,,,,,,,,,876.4939488000236,None,204.63782556574978,5.997537070210153,0.0005113521304412259,1,"[0.41623479625079307, 0.466300431233059, 0.7385429768004196, 0.4833901401392026]","[178.61073847102153, 282.013063168829, 473.793372986389, 2638.357810735208]",None,"[14.0, 11.699596671114493, 12.322306832128891, 3.9565504054518565]",False,877.4834601001348,880.14247229998,880.14247229998,881.3607360001188,['space'],1,[0.28247889992780983],3.141405020141974,4.15072012017481,None,1,None,1,,,,,,rehvhf,001,fr,0,0,2022-05-11_11h05.37.614,Cluster,2022.1.1,36.13552268322738,
,,,,5,0,5,0,12,0,12,0,,,time,,,,,,,,,,,,,,,,,,,,,,,,,,,,,,,,,,,,,,,,,,,,,,,,,,,,,,,,,,,,,,,,,,,,,,,,,,,,,,,,,,,,,,,,,,,,,,,,,,,,,,,,,,,,,,,,,,,881.677249400178,None,,,,,"[0.6991726757498558, 0.6991726757498558, 0.6991726757498558, 0.6991726757498558]","[615.3463987472959, 5086.810503854893, 257.93595828465004, 243.6944604975591]",None,"[12.527670868621039, 2.0, 11.0, 10.737984022260164]",True,882.6691515001003,885.7713252000976,885.7713252000976,886.9947457001545,None,1,,3.832259719958529,4.8343743197619915,None,1,None,1,0,,,,,rehvhf,001,fr,0,0,2022-05-11_11h05.37.614,Cluster,2022.1.1,36.13552268322738,
,,,,5,0,5,0,13,0,13,0,,,both,,,,,,,,,,,,,,,,,,,,,,,,,,,,,,,,,,,,,,,,,,,,,,,,,,,,,,,,,,,,,,,,,,,,,,,,,,,,,,,,,,,,,,,,,,,,,,,,,,,,,,,,,,,,,,,,,,,887.542504500132,None,1164.4745248581562,4.148762471575162,8.211610515047544e-05,0,"[0.4114502547402434, 0.4114502547402434, 0.4114502547402434, 0.4114502547402434]","[231.06101071875077, 346.20034755018304, 518.714430751606, 777.1935024731906]",Perfect_5th,"[10.753016668528463, 13.299892230202929, 12.0, 13.342534610553045]",False,888.5508385000285,890.797519300133,890.797519300133,892.0221347000916,None,0,,2.67274632002227,3.6854511201381683,None,1,None,1,,,,,,rehvhf,001,fr,0,0,2022-05-11_11h05.37.614,Cluster,2022.1.1,36.13552268322738,
,,,,5,0,5,0,14,0,14,0,,,time,,,,,,,,,,,,,,,,,,,,,,,,,,,,,,,,,,,,,,,,,,,,,,,,,,,,,,,,,,,,,,,,,,,,,,,,,,,,,,,,,,,,,,,,,,,,,,,,,,,,,,,,,,,,,,,,,,,892.2799168999773,None,151.31544669603517,9.697045039826907,0.001491632947616477,1,"[0.49423022097917285, 0.49423022097917285, 0.49423022097917285, 0.49423022097917285]","[399.60144089817993, 374.83089176127316, 1895.1428666761678, 4637.722830821402]",None,"[13.139930138205095, 13.35483667658238, 12.0, 0.0]",False,893.2708751000464,895.7929332000203,895.7929332000203,897.0188033001032,['space'],1,[0.26909179985523224],3.014109019888565,4.019021519925445,None,1,None,1,,,,,,rehvhf,001,fr,0,0,2022-05-11_11h05.37.614,Cluster,2022.1.1,36.13552268322738,
,,,,5,0,5,0,15,0,15,0,,,frequency,,,,,,,,,,,,,,,,,,,,,,,,,,,,,,,,,,,,,,,,,,,,,,,,,,,,,,,,,,,,,,,,,,,,,,,,,,,,,,,,,,,,,,,,,,,,,,,,,,,,,,,,,,,,,,,,,,,897.3353055999614,None,8000.0,-15.0,3.228271145173278e-05,0,"[0.5592480089182374, 0.6130704672191246, 0.6967325656948443, 0.5903877728297824]","[3174.8021039364003, 4000.0000000000014, 5039.684199579494, 6349.604207872799]",Major_3rd,"[0.0, -2.2258162714211718, 2.0, 3.3231560339757156]",False,898.4271293999627,901.3339804999996,901.3339804999996,902.5486201001331,None,0,,3.462179779773578,4.48888537986204,None,1,None,1,,,,,,rehvhf,001,fr,0,0,2022-05-11_11h05.37.614,Cluster,2022.1.1,36.13552268322738,
,,,,5,0,5,0,16,0,16,0,,,frequency,,,,,,,,,,,,,,,,,,,,,,,,,,,,,,,,,,,,,,,,,,,,,,,,,,,,,,,,,,,,,,,,,,,,,,,,,,,,,,,,,,,,,,,,,,,,,,,,,,,,,,,,,,,,,,,,,,,902.9674081001431,None,419.93018182557347,7.0,0.00016910405231266836,1,"[0.6973100214574135, 0.5453781377017537, 0.6145683944073272, 0.42155894953807266]","[666.5976123831126, 593.8709583875258, 529.0788755682215, 471.35569203886064]",Tone,"[13.0, 12.122965761949544, 11.929749452068993, 12.322306832128891]",False,903.9831081000157,906.8607127000578,906.8607127000578,908.0733091000002,['space'],1,[0.23137689987197518],3.314932119799778,4.328499719966203,None,1,None,1,,,,,,rehvhf,001,fr,0,0,2022-05-11_11h05.37.614,Cluster,2022.1.1,36.13552268322738,
,,,,5,0,5,0,17,0,17,0,,,frequency,,,,,,,,,,,,,,,,,,,,,,,,,,,,,,,,,,,,,,,,,,,,,,,,,,,,,,,,,,,,,,,,,,,,,,,,,,,,,,,,,,,,,,,,,,,,,,,,,,,,,,,,,,,,,,,,,,,908.3562086999882,None,757.8582832551998,0.0,4.0284217316254384e-05,1,"[0.7071753188216088, 0.4508621878686381, 0.7289683068703183, 0.6919178122495442]","[1909.6832078208354, 1515.7165665103998, 1203.025036082118, 954.8416039104176]",Major_3rd,"[12.0, 14.061754902344383, 10.914583335165958, 11.0]",False,911.3060227001552,914.2122610001825,914.2122610001825,915.4422234999947,['space'],1,[0.3465448999777436],3.6138886197004467,4.635086419759318,None,1,None,1,,,,,,rehvhf,001,fr,0,0,2022-05-11_11h05.37.614,Cluster,2022.1.1,36.13552268322738,
,,,,5,0,5,0,18,0,18,0,,,time,,,,,,,,,,,,,,,,,,,,,,,,,,,,,,,,,,,,,,,,,,,,,,,,,,,,,,,,,,,,,,,,,,,,,,,,,,,,,,,,,,,,,,,,,,,,,,,,,,,,,,,,,,,,,,,,,,,915.9944291999564,None,,,,,"[0.5248678192219127, 0.5248678192219127, 0.5248678192219127, 0.5248678192219127]","[4405.54429584647, 3544.202380263724, 850.3466598748832, 193.72575745677224]",None,"[-1.0, -1.5732043655427939, 12.155450019189026, 13.0]",True,917.0041577999946,919.6000779001042,919.6000779001042,920.8006029000971,None,1,,3.134486519731581,4.1543999197892845,None,1,None,1,0,,,,,rehvhf,001,fr,0,0,2022-05-11_11h05.37.614,Cluster,2022.1.1,36.13552268322738,
,,,,5,0,5,0,19,0,19,0,,,none,,,,,,,,,,,,,,,,,,,,,,,,,,,,,,,,,,,,,,,,,,,,,,,,,,,,,,,,,,,,,,,,,,,,,,,,,,,,,,,,,,,,,,,,,,,,,,,,,,,,,,,,,,,,,,,,,,,921.1917404001579,None,2000.0,-2.0,5.942511137185092e-05,0,"[0.43195437588039776, 0.7824008373151501, 0.7210655728003819, 0.416832286233679]","[353.80286680664403, 660.1695690947531, 152.42634779814694, 4334.768697597535]",None,"[13.299892230202929, 13.0, 15.697045039826907, -1.4946441071950893]",False,922.2206806000322,925.1798970999662,925.1798970999662,926.3979850001633,None,0,,3.3772057997994125,4.398825299926102,None,1,None,1,,,,,,rehvhf,001,fr,0,0,2022-05-11_11h05.37.614,Cluster,2022.1.1,36.13552268322738,
,,,,6,0,6,0,0,0,0,0,,,frequency,,,,,,,,,,,,,,,,,,,,,,,,,,,,,,,,,,,,,,,,,,,,,,,,,,,,,,,,,,,,,,,,,,,,,,,,,,,,,,,,,,,,,,,,,,,,,,,,,,,,,,,,,,,,,,,,,,,952.5131880999543,None,4591.169281127025,-6.147129586596849,6.140697530098261e-05,1,"[0.43030826895116214, 0.4796350095513872, 0.6586292774140152, 0.7533676298130522]","[7288.026946625123, 6492.893864520573, 5784.510820922652, 5153.413275428912]",Tone,"[0.0, 3.3231560339757156, 4.125945130134925, 3.0]",False,953.4985911999829,956.0965424999595,956.0965424999595,957.3144745000172,['space'],1,[0.40761599969118834],3.3532871201168746,4.378679020097479,None,1,None,1,,,,,,rehvhf,001,fr,0,0,2022-05-11_11h05.37.614,Cluster,2022.1.1,36.13552268322738,
,,,,6,0,6,0,1,0,1,0,,,none,,,,,,,,,,,,,,,,,,,,,,,,,,,,,,,,,,,,,,,,,,,,,,,,,,,,,,,,,,,,,,,,,,,,,,,,,,,,,,,,,,,,,,,,,,,,,,,,,,,,,,,,,,,,,,,,,,,957.920466999989,None,446.99050390369996,6.746699646986363,0.00016123730465282058,1,"[0.4909650561790558, 0.5074170709629044, 0.5631400632722847, 0.5936095838951283]","[199.22447305661902, 850.1144029802159, 2027.3989249823446, 4150.464014808485]",None,"[12.0, 12.155450019189026, 10.877239177966782, -2.0]",False,958.9333449001424,961.5186163999606,961.5186163999606,962.7365874000825,['space'],1,[0.21677469974383712],3.179852019995451,4.1911905198358,None,1,None,1,,,,,,rehvhf,001,fr,0,0,2022-05-11_11h05.37.614,Cluster,2022.1.1,36.13552268322738,
,,,,6,0,6,0,2,0,2,0,,,none,,,,,,,,,,,,,,,,,,,,,,,,,,,,,,,,,,,,,,,,,,,,,,,,,,,,,,,,,,,,,,,,,,,,,,,,,,,,,,,,,,,,,,,,,,,,,,,,,,,,,,,,,,,,,,,,,,,963.1689730000217,None,307.7861033362292,-7.0,4.7466208175095315e-05,0,"[0.6900380127720078, 0.5623944747071861, 0.40549079135961674, 0.5193846806748852]","[602.1350504630548, 180.62075814827463, 5124.034658909917, 3503.371848747872]",None,"[12.527670868621039, 14.0, 2.0, -1.5732043655427939]",False,967.0599907001015,969.746557299979,969.746557299979,970.9611368000042,None,0,,3.2031306391581893,4.2215470392256975,None,1,None,1,,,,,,rehvhf,001,fr,0,0,2022-05-11_11h05.37.614,Cluster,2022.1.1,36.13552268322738,
,,,,6,0,6,0,3,0,3,0,,,both,,,,,,,,,,,,,,,,,,,,,,,,,,,,,,,,,,,,,,,,,,,,,,,,,,,,,,,,,,,,,,,,,,,,,,,,,,,,,,,,,,,,,,,,,,,,,,,,,,,,,,,,,,,,,,,,,,,971.3294591000304,None,,,,,"[0.6817248073238094, 0.6817248073238094, 0.6817248073238094, 0.6817248073238094]","[157.28162678981715, 198.16243235420004, 249.66901982142548, 314.56325357963425]",Major_3rd,"[15.697045039826907, 12.0, 10.737984022260164, 12.37755819938783]",True,972.3510476001538,975.4308303999715,975.4308303999715,976.6446889999788,None,1,,3.7527268200647086,4.773874620208517,None,1,None,1,0,,,,,rehvhf,001,fr,0,0,2022-05-11_11h05.37.614,Cluster,2022.1.1,36.13552268322738,
,,,,6,0,6,0,4,0,4,0,,,both,,,,,,,,,,,,,,,,,,,,,,,,,,,,,,,,,,,,,,,,,,,,,,,,,,,,,,,,,,,,,,,,,,,,,,,,,,,,,,,,,,,,,,,,,,,,,,,,,,,,,,,,,,,,,,,,,,,977.160339300055,None,125.0,2.0,0.000909850429304992,0,"[0.46966853778383344, 0.46966853778383344, 0.46966853778383344, 0.46966853778383344]","[198.42513149602502, 176.77669529663694, 157.49013123685918, 140.30775603867164]",Tone,"[12.0, 14.136184155122894, 15.697045039826907, 15.904518781883633]",False,978.1709835000802,980.5952169999946,980.5952169999946,981.8056511001196,None,0,,2.88653682009317,3.9184656201396137,None,1,None,1,,,,,,rehvhf,001,fr,0,0,2022-05-11_11h05.37.614,Cluster,2022.1.1,36.13552268322738,
,,,,6,0,6,0,5,0,5,0,,,none,,,,,,,,,,,,,,,,,,,,,,,,,,,,,,,,,,,,,,,,,,,,,,,,,,,,,,,,,,,,,,,,,,,,,,,,,,,,,,,,,,,,,,,,,,,,,,,,,,,,,,,,,,,,,,,,,,,982.1412604001816,None,2306.9519651835103,1.2413617942191095,9.415508350800659e-05,1,"[0.40303150911648367, 0.4664130873644697, 0.66643597181994, 0.798787063645299]","[374.85806880305694, 151.27979489328038, 859.7475134592627, 977.3696270945012]",None,"[13.35483667658238, 15.697045039826907, 12.155450019189026, 10.379185723991384]",False,983.151538999984,985.7268819001038,985.7268819001038,986.937008799985,['space'],1,[0.3421339998021722],3.3810074201319367,4.406958720181137,None,1,None,1,,,,,,rehvhf,001,fr,0,0,2022-05-11_11h05.37.614,Cluster,2022.1.1,36.13552268322738,
,,,,6,0,6,0,6,0,6,0,,,both,,,,,,,,,,,,,,,,,,,,,,,,,,,,,,,,,,,,,,,,,,,,,,,,,,,,,,,,,,,,,,,,,,,,,,,,,,,,,,,,,,,,,,,,,,,,,,,,,,,,,,,,,,,,,,,,,,,987.6013955001254,None,4359.184029109398,-7.0,4.853403274366839e-05,1,"[0.761809921475372, 0.761809921475372, 0.761809921475372, 0.761809921475372]","[6919.773313531233, 6164.817174846703, 5492.227718640475, 4893.01863427164]",Tone,"[1.429584990538534, 4.0, 4.0, 1.5260602889550174]",False,988.6154655001592,991.9171845000237,991.9171845000237,993.148454700131,['space'],1,[0.6355906999669969],4.088576419977471,5.096125920070335,None,1,None,1,,,,,,rehvhf,001,fr,0,0,2022-05-11_11h05.37.614,Cluster,2022.1.1,36.13552268322738,
,,,,6,0,6,0,7,0,7,0,,,both,,,,,,,,,,,,,,,,,,,,,,,,,,,,,,,,,,,,,,,,,,,,,,,,,,,,,,,,,,,,,,,,,,,,,,,,,,,,,,,,,,,,,,,,,,,,,,,,,,,,,,,,,,,,,,,,,,,993.7542701000348,None,2143.5469250725882,0.0,7.799382669637754e-05,0,"[0.6262022761961994, 0.6262022761961994, 0.6262022761961994, 0.6262022761961994]","[850.6671609508569, 1071.7734625362946, 1350.3499461681915, 1701.334321901713]",Major_3rd,"[12.155450019189026, 9.966061332597004, 12.060778396820584, 14.0]",False,996.2965586001519,999.2120054999832,999.2120054999832,1000.4251500000246,None,0,,3.5341092995367944,4.539900099625811,None,1,None,1,,,,,,rehvhf,001,fr,0,0,2022-05-11_11h05.37.614,Cluster,2022.1.1,36.13552268322738,
,,,,6,0,6,0,8,0,8,0,,,frequency,,,,,,,,,,,,,,,,,,,,,,,,,,,,,,,,,,,,,,,,,,,,,,,,,,,,,,,,,,,,,,,,,,,,,,,,,,,,,,,,,,,,,,,,,,,,,,,,,,,,,,,,,,,,,,,,,,,1000.886413600063,None,,,,,"[0.7701300134121074, 0.6869310781139821, 0.42915571051714096, 0.5906652969444892]","[300.08035598496, 336.82881103628404, 378.0775571653981, 424.37770923567683]",Tone,"[12.0, 13.0, 13.35483667658238, 13.0]",True,1001.9043662999757,1004.8071153999772,1004.8071153999772,1006.025698200101,['space'],0,[0.27205659984610975],3.5156339202076197,4.5453989203087986,None,1,None,1,0,,,,,rehvhf,001,fr,0,0,2022-05-11_11h05.37.614,Cluster,2022.1.1,36.13552268322738,
,,,,6,0,6,0,9,0,9,0,,,none,,,,,,,,,,,,,,,,,,,,,,,,,,,,,,,,,,,,,,,,,,,,,,,,,,,,,,,,,,,,,,,,,,,,,,,,,,,,,,,,,,,,,,,,,,,,,,,,,,,,,,,,,,,,,,,,,,,1006.4915064000525,None,1148.6983549970344,6.0,0.00010030596310503799,1,"[0.6578411062131264, 0.7232827738971785, 0.6964351144514294, 0.4147013521609537]","[5787.135194908467, 134.8901474838678, 7773.653476644648, 2949.0013245884916]",None,"[4.125945130134925, 15.679776902457883, -3.0, 2.0]",False,1007.5144448000938,1010.6114954000805,1010.6114954000805,1011.824139200151,['space'],1,[0.35005759983323514],3.506406820146367,4.508872520178556,None,1,None,1,,,,,,rehvhf,001,fr,0,0,2022-05-11_11h05.37.614,Cluster,2022.1.1,36.13552268322738,
,,,,6,0,6,0,10,0,10,0,,,time,,,,,,,,,,,,,,,,,,,,,,,,,,,,,,,,,,,,,,,,,,,,,,,,,,,,,,,,,,,,,,,,,,,,,,,,,,,,,,,,,,,,,,,,,,,,,,,,,,,,,,,,,,,,,,,,,,,1012.07570330007,None,2639.015821545789,-2.0,6.136706414882377e-05,0,"[0.44832407107412703, 0.44832407107412703, 0.44832407107412703, 0.44832407107412703]","[311.2127827573896, 402.74615435840934, 5498.662673087859, 175.69160136378284]",None,"[12.37755819938783, 13.139930138205095, 4.0, 14.136184155122894]",False,1013.0819015000015,1015.4464957001619,1015.4464957001619,1016.6490690000355,None,0,,2.8310112201143056,3.8521669199690223,None,1,None,1,,,,,,rehvhf,001,fr,0,0,2022-05-11_11h05.37.614,Cluster,2022.1.1,36.13552268322738,
,,,,6,0,6,0,11,0,11,0,,,both,,,,,,,,,,,,,,,,,,,,,,,,,,,,,,,,,,,,,,,,,,,,,,,,,,,,,,,,,,,,,,,,,,,,,,,,,,,,,,,,,,,,,,,,,,,,,,,,,,,,,,,,,,,,,,,,,,,1016.9870241000317,None,7390.671848140372,-7.0,7.284017510501306e-05,1,"[0.4587293800708323, 0.4587293800708323, 0.4587293800708323, 0.4587293800708323]","[2932.990066622447, 3695.335924070187, 4655.831517168751, 5865.980133244892]",Major_3rd,"[2.0, -2.229291087697346, 0.0, 4.252363104021113]",False,1018.0049604000524,1020.4072666000575,1020.4072666000575,1021.6295797000639,['space'],1,[0.23568050004541874],2.8886143199633807,3.894755519926548,None,1,None,1,,,,,,rehvhf,001,fr,0,0,2022-05-11_11h05.37.614,Cluster,2022.1.1,36.13552268322738,
,,,,6,0,6,0,12,0,12,0,,,frequency,,,,,,,,,,,,,,,,,,,,,,,,,,,,,,,,,,,,,,,,,,,,,,,,,,,,,,,,,,,,,,,,,,,,,,,,,,,,,,,,,,,,,,,,,,,,,,,,,,,,,,,,,,,,,,,,,,,1021.949883100111,None,233.2582478842019,-2.0,0.000159090436875498,1,"[0.5473900476571408, 0.4279493046297227, 0.7548593290546606, 0.44732955973376864]","[370.27438807164117, 329.87697769322364, 293.8869765709022, 261.8235307051567]",Tone,"[13.35483667658238, 12.9516136381955, 12.0, 11.0]",False,1023.0267853001133,1025.7736675001215,1025.7736675001215,1027.0022788001224,['space'],1,[0.28807649994269013],3.209699959959835,4.2232769599650055,None,1,None,1,,,,,,rehvhf,001,fr,0,0,2022-05-11_11h05.37.614,Cluster,2022.1.1,36.13552268322738,
,,,,6,0,6,0,13,0,13,0,,,frequency,,,,,,,,,,,,,,,,,,,,,,,,,,,,,,,,,,,,,,,,,,,,,,,,,,,,,,,,,,,,,,,,,,,,,,,,,,,,,,,,,,,,,,,,,,,,,,,,,,,,,,,,,,,,,,,,,,,1027.2829654000234,None,5066.116687675076,-4.0,9.483788310443718e-05,1,"[0.44877032165535785, 0.4492450241201123, 0.4886385138916691, 0.7823249643571077]","[1005.2448699261332, 1506.1655026043045, 2256.6984314995534, 3381.227230292288]",Perfect_5th,"[10.379185723991384, 14.0, 8.0, -1.0]",False,1028.281739300117,1030.7003452000208,1030.7003452000208,1031.9043080999982,['space'],1,[0.18616299983114004],3.20566742005758,4.223811420146376,None,1,None,1,,,,,,rehvhf,001,fr,0,0,2022-05-11_11h05.37.614,Cluster,2022.1.1,36.13552268322738,
,,,,6,0,6,0,14,0,14,0,,,none,,,,,,,,,,,,,,,,,,,,,,,,,,,,,,,,,,,,,,,,,,,,,,,,,,,,,,,,,,,,,,,,,,,,,,,,,,,,,,,,,,,,,,,,,,,,,,,,,,,,,,,,,,,,,,,,,,,1032.5509812999517,None,1629.0230896271146,8.259634010736352,0.00015026795879221648,1,"[0.49812737712921595, 0.6913642477984909, 0.5443767433150558, 0.6722844821736085]","[194.99336628010147, 405.1445633890552, 2884.894934414891, 383.4779360612526]",None,"[13.0, 13.139930138205095, 2.0, 13.35483667658238]",False,1033.5683043999597,1036.328429199988,1036.328429199988,1037.5507108001038,['space'],1,[0.3690972998738289],3.4335255201440305,4.458077620249242,None,1,None,1,,,,,,rehvhf,001,fr,0,0,2022-05-11_11h05.37.614,Cluster,2022.1.1,36.13552268322738,
,,,,6,0,6,0,15,0,15,0,,,frequency,,,,,,,,,,,,,,,,,,,,,,,,,,,,,,,,,,,,,,,,,,,,,,,,,,,,,,,,,,,,,,,,,,,,,,,,,,,,,,,,,,,,,,,,,,,,,,,,,,,,,,,,,,,,,,,,,,,1038.0780279000755,None,125.0,4.0,0.0011454338263838868,0,"[0.4279993177513907, 0.6494492644040795, 0.4233807601411813, 0.7667242835141386]","[629.9605249474366, 420.4482076268573, 280.6155120773433, 187.2883846095852]",Perfect_5th,"[12.527670868621039, 13.0, 11.699596671114493, 13.043143574966717]",False,1039.0891472999938,1041.6297909000423,1041.6297909000423,1042.8299813000485,None,0,,3.2831538198515773,4.308729219948873,None,1,None,1,,,,,,rehvhf,001,fr,0,0,2022-05-11_11h05.37.614,Cluster,2022.1.1,36.13552268322738,
