frequencies,training_trials.thisRepN,training_trials.thisTrialN,training_trials.thisN,training_trials.thisIndex,frequencies.thisRepN,frequencies.thisTrialN,frequencies.thisN,frequencies.thisIndex,trials.thisRepN,trials.thisTrialN,trials.thisN,trials.thisIndex,tFrequency,tLevel,tCorrect,Tprobe.started,Tprobe.stopped,tTriangle_cue.started,tTriangle_cue.stopped,Tfeedback.keys,Tfeedback.corr,Tfeedback.rt,Tfeedback.started,Tfeedback.stopped,reversals_nTrials.routineEndVal,track_dir.routineEndVal,step_up.routineEndVal,Correct,Frequency,Level,Psychopy_Level,Direction,Reversals,Track_dir,Step,probe.started,probe.stopped,cross_cue.started,cross_cue.stopped,circle_cue.started,circle_cue.stopped,triangle_cue.started,triangle_cue.stopped,feedback.keys,feedback.corr,feedback.rt,feedback.started,feedback.stopped,memo.started,memo.stopped,key_resp.keys,key_resp.rt,key_resp.started,key_resp.stopped,text.started,text.stopped,participant,session,skip_training,language (english or french),date,expName,psychopyVersion,frameRate,
5000,0,0,0,4,,,,,,,,,5000,30,up,30.471050030027982,30.682457000017166,None,None,up,1,2.0712667000479996,28.977873200085014,None,,,,,,,,,,,,,,,,,,,,,,,,,,,,,,,,,nefynm,001,0,english,2022-05-06_10h23.39.391,3-AFC_adaptive_staircase_mess,2022.1.1,30.268753232196257,
1300,0,1,1,3,,,,,,,,,1300,30,left,34.03919633006444,34.248286799993366,None,None,left,1,1.109486399916932,33.57310120004695,None,,,,,,,,,,,,,,,,,,,,,,,,,,,,,,,,,nefynm,001,0,english,2022-05-06_10h23.39.391,3-AFC_adaptive_staircase_mess,2022.1.1,30.268753232196257,
450,0,2,2,1,,,,,,,,,450,30,right,39.48214442998869,39.69252290006261,39.417740800068714,None,right,1,2.671463100006804,37.018367500044405,None,,,,,,,,,,,,,,,,,,,,,,,,,,,,,,,,,nefynm,001,0,english,2022-05-06_10h23.39.391,3-AFC_adaptive_staircase_mess,2022.1.1,30.268753232196257,
850,0,3,3,2,,,,,,,,,850,30,right,43.91391132998979,44.12809570005629,43.84586870006751,44.15955690003466,right,1,2.7178724999539554,41.450986800016835,None,,,,,,,,,,,,,,,,,,,,,,,,,,,,,,,,,nefynm,001,0,english,2022-05-06_10h23.39.391,3-AFC_adaptive_staircase_mess,2022.1.1,30.268753232196257,
200,0,4,4,0,,,,,,,,,200,30,left,46.48642213008134,None,None,None,left,1,1.3696082000387833,46.04800890001934,None,,,,,,,,,,,,,,,,,,,,,,,,,,,,,,,,,nefynm,001,0,english,2022-05-06_10h23.39.391,3-AFC_adaptive_staircase_mess,2022.1.1,30.268753232196257,
,,,,,0,0,0,0,0,0,0,0,,,,,,,,,,,,,[],[],10,right,1000,30,0.0013930605843148849,0,0,-1,10,59.52957903005881,None,57.449632800067775,57.76175449998118,58.47670460003428,58.79790980007965,59.46067090006545,59.76256310008466,right,1,2.3226167000830173,57.5112964999862,None,None,None,,,,,,,nefynm,001,0,english,2022-05-06_10h23.39.391,3-AFC_adaptive_staircase_mess,2022.1.1,30.268753232196257,
,,,,,0,0,0,0,1,0,1,0,,,,,,,,,,,,,,,,left,1000,30,0.0013930605843148849,0,0,-1,10,61.40649063006276,None,61.33616910001729,61.671142200008035,None,None,None,None,left,1,0.5743261999450624,61.402915799990296,None,None,None,,,,,,,nefynm,001,0,english,2022-05-06_10h23.39.391,3-AFC_adaptive_staircase_mess,2022.1.1,30.268753232196257,
,,,,,0,0,0,0,2,0,2,0,,,,,,,,,,,,,,,,right,1000,10,0.00013930605843148847,-1,0,-1,-10,65.5349812299828,65.74549450003542,63.4709854000248,63.796991800074466,64.47091919998638,64.78262890002225,65.46949240006506,65.77713459997904,right,1,2.329840699909255,63.503042299998924,None,None,None,,,,,,,nefynm,001,0,english,2022-05-06_10h23.39.391,3-AFC_adaptive_staircase_mess,2022.1.1,30.268753232196257,
,,,,,0,0,0,0,3,0,3,0,,,,,,,,,,,,,,,,right,1000,10,0.00013930605843148847,-1,0,-1,-10,69.33475393004483,69.55632309999783,67.30935770005453,67.62383130006492,68.30756380001549,68.60968870006036,69.30162080004811,69.61510609998368,right,1,2.3479284000350162,67.34163170005195,None,None,None,,,,,,,nefynm,001,0,english,2022-05-06_10h23.39.391,3-AFC_adaptive_staircase_mess,2022.1.1,30.268753232196257,
,,,,,0,0,0,0,4,0,4,0,,,,,,,,,,,,,,,,right,1000,0,4.405244365040069e-05,-1,0,-1,-10,73.21797252999386,None,71.15993730002083,71.47767829999793,72.17216900002677,72.47774820006453,73.15235750004649,73.47605200007092,right,1,2.5987967000110075,71.21911030006595,None,73.72174940002151,None,,,,,,,nefynm,001,0,english,2022-05-06_10h23.39.391,3-AFC_adaptive_staircase_mess,2022.1.1,30.268753232196257,
,,,,,0,0,0,0,5,0,5,0,,,,,,,,,,,,,,,,left,1000,0,4.405244365040069e-05,-1,0,-1,-10,75.37412133003818,75.59775060007814,75.3073216000339,75.62590620003175,76.30903870007023,76.61051040003076,77.32190510001965,77.62474260001909,left,1,2.447624700027518,75.36973280005623,None,77.8740744300303,None,,,,,,,nefynm,001,0,english,2022-05-06_10h23.39.391,3-AFC_adaptive_staircase_mess,2022.1.1,30.268753232196257,
,,,,,0,0,0,0,6,0,6,0,,,,,,,,,,,,,,,,right,1000,-10,1.3930605843148848e-05,-1,0,-1,-10,81.37478732998716,None,79.29882969998289,79.62215060007293,80.32032449997496,80.64722779998556,81.31051019998267,81.62629280006513,right,1,3.0815337999956682,79.36030120006762,None,81.87957440002356,None,,,,,,,nefynm,001,0,english,2022-05-06_10h23.39.391,3-AFC_adaptive_staircase_mess,2022.1.1,30.268753232196257,
,,,,,0,0,0,0,7,0,7,0,,,,,,,,,,,,,,,,right,1000,-10,1.3930605843148848e-05,-1,0,-1,-10,85.96700113004772,86.17849090008531,83.91511750000063,84.22429290006403,84.92965519998688,85.23581320000812,85.933868000051,86.23668810003437,right,1,2.9898656000150368,83.97913039999548,None,86.46761170006357,None,,,,,,,nefynm,001,0,english,2022-05-06_10h23.39.391,3-AFC_adaptive_staircase_mess,2022.1.1,30.268753232196257,
,,,,,0,0,0,0,8,0,8,0,,,,,,,,,,,,,,,,right,1000,-20,4.405244365040069e-06,-1,0,-1,-10,90.5049731300096,90.72245780006051,88.47302040003706,88.80769839999266,89.4741548000602,89.80828600004315,90.47184000001289,90.78202120005153,left,0,3.456103599979542,88.50495600001886,None,91.00701810000464,None,,,,,,,nefynm,001,0,english,2022-05-06_10h23.39.391,3-AFC_adaptive_staircase_mess,2022.1.1,30.268753232196257,
,,,,,0,0,0,0,9,0,9,0,,,,,,,,,,,,,,,,right,1000,-15,7.833755350540743e-06,1,1,1,5,95.50474863004638,None,93.47026049997658,93.77913540008012,94.47172030003276,94.77688310004305,95.47161550004967,95.782876900048,up,0,2.7468294999562204,93.5347410000395,None,96.03074950003065,None,,,,,,,nefynm,001,0,english,2022-05-06_10h23.39.391,3-AFC_adaptive_staircase_mess,2022.1.1,30.268753232196257,
,,,,,0,0,0,0,10,0,10,0,,,,,,,,,,,,,,,,right,1000,-10,1.3930605843148848e-05,1,1,1,5,99.8314803300309,100.0486364000244,97.75839850003831,98.06416720000561,98.7661787000252,99.06883780006319,99.76472710003145,100.08201780007221,right,1,3.0542732999892905,97.8195873000659,None,100.32399549998809,None,,,,,,,nefynm,001,0,english,2022-05-06_10h23.39.391,3-AFC_adaptive_staircase_mess,2022.1.1,30.268753232196257,
,,,,,0,0,0,0,11,0,11,0,,,,,,,,,,,,,,,,left,1000,-10,1.3930605843148848e-05,1,1,1,5,102.38390042999526,102.59647720004432,102.35076729999855,102.65667569998186,103.33274470001925,103.65458480000962,104.34603630006313,104.67117069999222,up,0,2.989028099924326,102.38123699999414,None,104.88993379997555,None,,,,,,,nefynm,001,0,english,2022-05-06_10h23.39.391,3-AFC_adaptive_staircase_mess,2022.1.1,30.268753232196257,
,,,,,0,0,0,0,12,0,12,0,,,,,,,,,,,,,,,,right,1000,-5,2.4772509540239506e-05,1,1,1,5,108.92013512999984,109.13988819997758,106.8509024999803,107.17339410004206,107.85872220003512,108.16391600004863,108.85206679999828,109.17291129997466,right,1,2.852202899986878,106.91764780005906,None,109.41305490001105,None,,,,,,,nefynm,001,0,english,2022-05-06_10h23.39.391,3-AFC_adaptive_staircase_mess,2022.1.1,30.268753232196257,
,,,,,0,0,0,0,13,0,13,0,,,,,,,,,,,,,,,,up,1000,-5,2.4772509540239506e-05,1,1,1,5,112.2870997300488,112.50652310007717,111.26679830008652,111.5921234000707,112.25396660005208,112.56409890006762,113.23165259999223,113.5401502000168,left,0,3.2730002000462264,111.29678259999491,None,113.78677030000836,None,,,,,,,nefynm,001,0,english,2022-05-06_10h23.39.391,3-AFC_adaptive_staircase_mess,2022.1.1,30.268753232196257,
,,,,,0,0,0,0,14,0,14,0,,,,,,,,,,,,,,,,up,1000,0,4.405244365040069e-05,1,1,1,5,117.11189463007031,None,116.04028800001834,116.34836439997889,117.04510149999987,117.3642493999796,118.05834290001076,118.36455810000189,right,0,3.10860560007859,116.10105920000933,None,118.60390490002465,None,,,,,,,nefynm,001,0,english,2022-05-06_10h23.39.391,3-AFC_adaptive_staircase_mess,2022.1.1,30.268753232196257,
,,,,,0,0,0,0,15,0,15,0,,,,,,,,,,,,,,,,left,1000,5,7.833755350540742e-05,1,1,1,5,120.73685493000085,None,120.70372180000413,121.00116009998601,121.70056073000887,None,None,None,left,1,0.9232765000779182,120.73359760001767,None,None,None,,,,,,,nefynm,001,0,english,2022-05-06_10h23.39.391,3-AFC_adaptive_staircase_mess,2022.1.1,30.268753232196257,
,,,,,0,0,0,0,16,0,16,0,,,,,,,,,,,,,,,,right,1000,5,7.833755350540742e-05,1,1,1,5,125.18966083001578,None,123.1279262000462,123.44390740001108,124.12078660004772,124.42335840000305,125.12282160005998,125.44525089999661,right,1,2.3856908000307158,123.15935089997947,None,None,None,,,,,,,nefynm,001,0,english,2022-05-06_10h23.39.391,3-AFC_adaptive_staircase_mess,2022.1.1,30.268753232196257,
,,,,,0,0,0,0,17,0,17,0,,,,,,,,,,,,,,,,up,1000,-5,2.4772509540239506e-05,-1,2,-1,-5.0,128.09077022998827,None,127.0250349000562,127.33729310007766,128.0238098000409,128.35087289998773,129.0259266999783,129.3125422000885,right,0,3.1238770000636578,127.07758470007684,None,129.56669920007698,None,,,,,,,nefynm,001,0,english,2022-05-06_10h23.39.391,3-AFC_adaptive_staircase_mess,2022.1.1,30.268753232196257,
,,,,,0,0,0,0,18,0,18,0,,,,,,,,,,,,,,,,right,1000,-2.5,3.303467240037979e-05,1,3,1,2.5,133.76515022997046,133.98641650006175,131.69311840005685,131.99723960005213,132.70239690004382,133.0311522000702,133.6971026000101,134.01260720007122,left,0,3.0157783000031486,131.76184829999693,None,134.25504530000035,None,,,,,,,nefynm,001,0,english,2022-05-06_10h23.39.391,3-AFC_adaptive_staircase_mess,2022.1.1,30.268753232196257,
,,,,,0,0,0,0,19,0,19,0,,,,,,,,,,,,,,,,left,1000,0.0,4.405244365040069e-05,1,3,1,2.5,136.33512353006518,136.54699180007447,136.2665163000347,136.5788276999956,137.25526010000613,137.56925830000546,138.2712735000532,138.58922550000716,left,1,2.3777584000490606,136.31926110002678,None,None,None,,,,,,,nefynm,001,0,english,2022-05-06_10h23.39.391,3-AFC_adaptive_staircase_mess,2022.1.1,30.268753232196257,
,,,,,0,0,0,0,20,0,20,0,,,,,,,,,,,,,,,,up,1000,0.0,4.405244365040069e-05,1,3,1,2.5,141.258234130044,141.48735359997954,140.19069770001806,140.5025994000025,141.19455740007106,141.51792190002743,142.2076900000684,142.51454410003498,right,0,3.4963720999658108,140.27266320004128,None,142.77301050000824,None,,,,,,,nefynm,001,0,english,2022-05-06_10h23.39.391,3-AFC_adaptive_staircase_mess,2022.1.1,30.268753232196257,
,,,,,0,0,0,0,21,0,21,0,,,,,,,,,,,,,,,,up,1000,2.5,5.874487774697646e-05,1,3,1,2.5,146.3115516299731,None,145.24271210003644,145.5448500000639,146.24501190008596,146.58017259999178,147.24467970000114,None,up,1,1.9638411999912933,145.31005680002272,None,None,None,,,,,,,nefynm,001,0,english,2022-05-06_10h23.39.391,3-AFC_adaptive_staircase_mess,2022.1.1,30.268753232196257,
,,,,,0,0,0,0,22,0,22,0,,,,,,,,,,,,,,,,up,1000,2.5,5.874487774697646e-05,1,3,1,2.5,149.781838230032,149.9919698999729,148.73990619997494,149.04753690003417,149.7487051000353,150.05534349998925,None,None,up,1,1.545040400000289,148.80039670004044,None,None,None,,,,,,,nefynm,001,0,english,2022-05-06_10h23.39.391,3-AFC_adaptive_staircase_mess,2022.1.1,30.268753232196257,
,,,,,0,0,0,0,23,0,23,0,,,,,,,,,,,,,,,,up,1000,-2.5,3.303467240037979e-05,-1,4,-1,-5.0,152.88404623005772,None,151.81333110004198,152.1170390000334,152.8178246000316,153.14841130003333,153.8057082000887,154.10571650008205,left,0,2.4959669000236318,151.8811362000415,None,154.39275450003333,None,,,,,,,nefynm,001,0,english,2022-05-06_10h23.39.391,3-AFC_adaptive_staircase_mess,2022.1.1,30.268753232196257,
,,,,,0,0,0,0,24,0,24,0,,,,,,,,,,,,,,,,up,1000,0.0,4.405244365040069e-05,1,5,1,2.5,156.92332652996993,157.13015290000476,155.8636784000555,156.1743175999727,156.86104210000485,157.16122000000905,157.8592891000444,158.17621679999866,up,1,2.371666199993342,155.8938962999964,None,None,None,,,,,,,nefynm,001,0,english,2022-05-06_10h23.39.391,3-AFC_adaptive_staircase_mess,2022.1.1,30.268753232196257,
,,,,,0,0,0,0,25,0,25,0,,,,,,,,,,,,,,,,right,1000,0.0,4.405244365040069e-05,1,5,1,2.5,161.802651730075,None,159.7568971000146,160.05828830006067,160.75927340006456,161.06185569998343,161.7695186000783,162.0956240000669,right,1,2.48851429997012,159.8248151000589,None,162.32737120008096,None,,,,,,,nefynm,001,0,english,2022-05-06_10h23.39.391,3-AFC_adaptive_staircase_mess,2022.1.1,30.268753232196257,
,,,,,0,0,0,0,26,0,26,0,,,,,,,,,,,,,,,,up,1000,-5.0,2.4772509540239506e-05,-1,6,-1,-5.0,164.8647507300484,165.078720599995,163.79265170008875,164.09689899999648,164.79748619999737,165.10924190003425,165.8012369000353,166.13200079998933,right,0,2.7894954999210313,163.85990779998247,None,166.36619930004235,None,,,,,,,nefynm,001,0,english,2022-05-06_10h23.39.391,3-AFC_adaptive_staircase_mess,2022.1.1,30.268753232196257,
,,,,,1,0,1,0,0,0,0,0,,,,,,,,,,,,,[],[],10,right,1500,30,0.001527460556607757,0,0,-1,10,171.29070052999305,171.52101200004108,169.23296090005897,169.53569320007227,170.23549540003296,170.53577449999284,171.22953170002438,171.55232100002468,right,1,2.4693598999874666,169.3013753000414,None,171.80626690003555,None,right,1.0597642000066116,167.73418500006665,None,167.73418500006665,None,nefynm,001,0,english,2022-05-06_10h23.39.391,3-AFC_adaptive_staircase_mess,2022.1.1,30.268753232196257,
,,,,,1,0,1,0,1,0,1,0,,,,,,,,,,,,,,,,up,1500,30,0.001527460556607757,0,0,-1,10,174.3447206300334,174.55564809998032,173.27295970008709,173.57491389999632,174.2772496000398,174.58234229998197,None,None,up,1,1.3544387000147253,173.3428077000426,None,None,None,,,,,,,nefynm,001,0,english,2022-05-06_10h23.39.391,3-AFC_adaptive_staircase_mess,2022.1.1,30.268753232196257,
,,,,,1,0,1,0,2,0,2,0,,,,,,,,,,,,,,,,up,1500,10,0.0001527460556607757,-1,0,-1,-10,177.2431964299758,177.45892000000458,176.18087939999532,176.47830289998092,177.1766803000355,177.4890784000745,None,None,up,1,1.3816094000358135,176.24414980004076,None,None,None,,,,,,,nefynm,001,0,english,2022-05-06_10h23.39.391,3-AFC_adaptive_staircase_mess,2022.1.1,30.268753232196257,
,,,,,1,0,1,0,3,0,3,0,,,,,,,,,,,,,,,,right,1500,10,0.0001527460556607757,-1,0,-1,-10,181.18024853005772,181.39525599998888,179.1125871000113,179.4420350000728,180.1163410000736,180.44681150000542,181.1136537999846,181.42555679997895,right,1,2.2707321000052616,179.1788671000395,None,None,None,,,,,,,nefynm,001,0,english,2022-05-06_10h23.39.391,3-AFC_adaptive_staircase_mess,2022.1.1,30.268753232196257,
,,,,,1,0,1,0,4,0,4,0,,,,,,,,,,,,,,,,left,1500,0,4.830254394949071e-05,-1,0,-1,-10,182.9809400300146,183.19721850007772,182.91431700007524,183.22750570008066,183.91509979998227,184.21770849998575,184.91751629998907,185.21767739998177,left,1,2.339017799939029,182.98232080007438,None,None,None,,,,,,,nefynm,001,0,english,2022-05-06_10h23.39.391,3-AFC_adaptive_staircase_mess,2022.1.1,30.268753232196257,
,,,,,1,0,1,0,5,0,5,0,,,,,,,,,,,,,,,,left,1500,0,4.830254394949071e-05,-1,0,-1,-10,186.88428593002027,187.1017025000183,186.81737659999635,187.1325861000223,187.83418010000605,188.1540335000027,188.82060400000773,189.12468700006139,left,1,2.371862899977714,186.88657039997634,None,None,None,,,,,,,nefynm,001,0,english,2022-05-06_10h23.39.391,3-AFC_adaptive_staircase_mess,2022.1.1,30.268753232196257,
,,,,,1,0,1,0,6,0,6,0,,,,,,,,,,,,,,,,left,1500,-10,1.527460556607758e-05,-1,0,-1,-10,190.82395953004016,None,190.76148420001846,191.09543099999428,191.76425050001126,192.06198760005645,192.76254030002747,193.06456119997893,right,0,2.95886320003774,190.82614640006796,None,193.33419740002137,None,,,,,,,nefynm,001,0,english,2022-05-06_10h23.39.391,3-AFC_adaptive_staircase_mess,2022.1.1,30.268753232196257,
,,,,,1,0,1,0,7,0,7,0,,,,,,,,,,,,,,,,left,1500,-5,2.716251657462168e-05,1,1,1,5,195.3282568300492,195.5444223000668,195.2612135000527,195.5745810000226,196.26352360006422,196.56273490004241,197.26064110000152,197.5585482000606,right,0,3.0151705000316724,195.33005039999261,None,197.82227230002172,None,,,,,,,nefynm,001,0,english,2022-05-06_10h23.39.391,3-AFC_adaptive_staircase_mess,2022.1.1,30.268753232196257,
,,,,,1,0,1,0,8,0,8,0,,,,,,,,,,,,,,,,right,1500,0,4.830254394949071e-05,1,1,1,5,201.90060952998465,202.11637260008138,199.8230646000011,200.12727120006457,200.83249150007032,201.13499709998723,201.8335354999872,202.14695960003883,right,1,2.3046345999464393,199.88057630008552,None,None,None,,,,,,,nefynm,001,0,english,2022-05-06_10h23.39.391,3-AFC_adaptive_staircase_mess,2022.1.1,30.268753232196257,
,,,,,1,0,1,0,9,0,9,0,,,,,,,,,,,,,,,,up,1500,0,4.830254394949071e-05,1,1,1,5,204.72858983004699,204.94582330004778,203.66844280005898,203.97091130004264,204.66790140001103,204.97913880005945,205.6708849000279,205.9748112000525,up,1,2.402013200102374,203.73527840001043,None,None,None,,,,,,,nefynm,001,0,english,2022-05-06_10h23.39.391,3-AFC_adaptive_staircase_mess,2022.1.1,30.268753232196257,
,,,,,1,0,1,0,10,0,10,0,,,,,,,,,,,,,,,,up,1500,-10,1.527460556607758e-05,-1,2,-1,-5.0,208.68149162997724,None,207.5990578000201,207.9064870000584,208.61302679998334,208.94990370003507,209.61419019999448,209.94590360007714,right,0,2.3177843999583274,207.6598973000655,None,None,None,,,,,,,nefynm,001,0,english,2022-05-06_10h23.39.391,3-AFC_adaptive_staircase_mess,2022.1.1,30.268753232196257,
,,,,,1,0,1,0,11,0,11,0,,,,,,,,,,,,,,,,up,1500,-7.5,2.036901389020565e-05,1,3,1,2.5,212.50399743003072,212.7183799999766,211.4644805000862,211.7967987000011,212.470864300034,212.77944579999894,213.46292540000286,213.78644980001263,right,0,2.578611999982968,211.49511520005763,None,214.02291759999935,None,,,,,,,nefynm,001,0,english,2022-05-06_10h23.39.391,3-AFC_adaptive_staircase_mess,2022.1.1,30.268753232196257,
,,,,,1,0,1,0,12,0,12,0,,,,,,,,,,,,,,,,up,1500,-5.0,2.716251657462168e-05,1,3,1,2.5,216.62250053003663,None,215.55502970004454,215.8520488999784,216.5549680000404,216.89097499998752,217.55735230003484,217.85664290003479,right,0,2.42003149993252,215.62115890008863,None,None,None,,,,,,,nefynm,001,0,english,2022-05-06_10h23.39.391,3-AFC_adaptive_staircase_mess,2022.1.1,30.268753232196257,
,,,,,1,0,1,0,13,0,13,0,,,,,,,,,,,,,,,,right,1500,-2.5,3.622179800374953e-05,1,3,1,2.5,221.5945144299767,221.80844569997862,219.5253015999915,219.85668900003657,220.52434170001652,220.82345640007406,221.5250641000457,221.8367261000676,right,1,2.400303000002168,219.5923454000149,None,None,None,,,,,,,nefynm,001,0,english,2022-05-06_10h23.39.391,3-AFC_adaptive_staircase_mess,2022.1.1,30.268753232196257,
,,,,,1,0,1,0,14,0,14,0,,,,,,,,,,,,,,,,right,1500,-2.5,3.622179800374953e-05,1,3,1,2.5,225.5065640300163,225.73808789998293,223.46462570002768,223.79229230002966,224.45860370004084,224.7591341000516,225.4734309000196,225.80936990003102,right,1,2.950397799955681,223.5230582000222,None,226.03030470001977,None,,,,,,,nefynm,001,0,english,2022-05-06_10h23.39.391,3-AFC_adaptive_staircase_mess,2022.1.1,30.268753232196257,
,,,,,1,0,1,0,15,0,15,0,,,,,,,,,,,,,,,,right,1500,-7.5,2.036901389020565e-05,-1,4,-1,-5.0,230.041164830036,230.2475063999882,227.97617310006171,228.29900050000288,228.97069860005286,229.30176549998578,229.96824800001923,230.27487540000584,right,1,2.4488849999615923,228.00844370003324,None,230.50321513001109,None,,,,,,,nefynm,001,0,english,2022-05-06_10h23.39.391,3-AFC_adaptive_staircase_mess,2022.1.1,30.268753232196257,
,,,,,1,0,1,0,16,0,16,0,,,,,,,,,,,,,,,,left,1500,-7.5,2.036901389020565e-05,-1,4,-1,-5.0,232.00325922999764,232.21487020002678,231.93935280002188,232.243103899993,232.9399646000238,233.26793400000315,233.9344949000515,234.23761110007763,left,1,2.641226000036113,232.00937009998597,None,234.5061489000218,None,,,,,,,nefynm,001,0,english,2022-05-06_10h23.39.391,3-AFC_adaptive_staircase_mess,2022.1.1,30.268753232196257,
,,,,,1,0,1,0,17,0,17,0,,,,,,,,,,,,,,,,up,1500,-12.5,1.1454338263838873e-05,-1,4,-1,-5.0,237.20539383002324,237.41721630003303,236.13795450003818,236.43794410000555,237.13845860003494,237.4480977000203,238.13857519999146,238.44011890003458,right,0,2.2849318999797106,236.2044324000599,None,None,None,,,,,,,nefynm,001,0,english,2022-05-06_10h23.39.391,3-AFC_adaptive_staircase_mess,2022.1.1,30.268753232196257,
,,,,,1,0,1,0,18,0,18,0,,,,,,,,,,,,,,,,right,1500,-10.0,1.527460556607758e-05,1,5,1,2.5,242.04309323005145,242.25665570003912,239.97026760003064,240.27327020000666,240.9812157000415,241.31166190002114,241.97501829999965,242.28754400007892,left,0,2.8761299999896437,240.02875430008862,None,242.54372459999286,None,,,,,,,nefynm,001,0,english,2022-05-06_10h23.39.391,3-AFC_adaptive_staircase_mess,2022.1.1,30.268753232196257,
,,,,,1,0,1,0,19,0,19,0,,,,,,,,,,,,,,,,left,1500,-7.5,2.036901389020565e-05,1,5,1,2.5,244.43217183003435,244.6580241000047,244.36964380007703,244.68942860001698,245.37416390003636,245.68292890000157,246.38196320005227,246.70424370002002,right,0,2.409628099994734,244.43175720004365,None,None,None,,,,,,,nefynm,001,0,english,2022-05-06_10h23.39.391,3-AFC_adaptive_staircase_mess,2022.1.1,30.268753232196257,
,,,,,1,0,1,0,20,0,20,0,,,,,,,,,,,,,,,,up,1500,-5.0,2.716251657462168e-05,1,5,1,2.5,249.38789493002696,249.59909080003854,248.3200198999839,248.62191660003737,249.31990150001366,249.63003710005432,250.3218552999897,250.61994100001175,right,0,2.389428099966608,248.38808880001307,None,None,None,,,,,,,nefynm,001,0,english,2022-05-06_10h23.39.391,3-AFC_adaptive_staircase_mess,2022.1.1,30.268753232196257,
,,,,,1,0,1,0,21,0,21,0,,,,,,,,,,,,,,,,up,1500,-2.5,3.622179800374953e-05,1,5,1,2.5,253.3225887300796,253.53440290002618,252.27268370008096,252.58834350004327,253.25593240000308,253.56736320001073,254.2504549000878,254.55792799999472,right,0,2.2525361001025885,252.3019027999835,None,None,None,,,,,,,nefynm,001,0,english,2022-05-06_10h23.39.391,3-AFC_adaptive_staircase_mess,2022.1.1,30.268753232196257,
,,,,,1,0,1,0,22,0,22,0,,,,,,,,,,,,,,,,right,1500,0.0,4.830254394949071e-05,1,5,1,2.5,258.0785887300153,None,256.02362700004596,256.3256850000471,257.0307465000078,257.36172950000037,258.01600389997475,None,right,1,2.030201300047338,256.0907116000308,None,None,None,,,,,,,nefynm,001,0,english,2022-05-06_10h23.39.391,3-AFC_adaptive_staircase_mess,2022.1.1,30.268753232196257,
,,,,,1,0,1,0,23,0,23,0,,,,,,,,,,,,,,,,left,1500,0.0,4.830254394949071e-05,1,5,1,2.5,259.6469966300647,259.8735780999996,259.5817560000578,259.90478960005566,260.5876020999858,260.89855100004934,261.6056520000566,261.93282390001696,left,1,2.2866615999955684,259.64238860004116,None,None,None,,,,,,,nefynm,001,0,english,2022-05-06_10h23.39.391,3-AFC_adaptive_staircase_mess,2022.1.1,30.268753232196257,
,,,,,1,0,1,0,24,0,24,0,,,,,,,,,,,,,,,,right,1500,-5.0,2.716251657462168e-05,-1,6,-1,-5.0,265.4387849299819,265.65582770004403,263.39034570008516,263.6980059000198,264.39774090005085,264.7084449999966,265.4056517999852,265.71265790006146,left,0,2.7655533999204636,263.4516691999743,None,265.9738464000402,None,,,,,,,nefynm,001,0,english,2022-05-06_10h23.39.391,3-AFC_adaptive_staircase_mess,2022.1.1,30.268753232196257,
,,,,,2,0,2,0,0,0,0,0,,,,,,,,,,,,,[],[],10,left,2000,30,0.0023657562948074026,0,0,-1,10,269.4085171300103,269.6216120000463,269.34125599998515,269.64844770007767,None,None,None,None,left,1,0.6331872000591829,269.4095125000458,None,None,None,right,1.5838305000215769,267.3057136000134,None,267.3057136000134,None,nefynm,001,0,english,2022-05-06_10h23.39.391,3-AFC_adaptive_staircase_mess,2022.1.1,30.268753232196257,
,,,,,2,0,2,0,1,0,1,0,,,,,,,,,,,,,,,,up,2000,30,0.0023657562948074026,0,0,-1,10,272.5764895299799,272.789916299982,271.50256310007535,271.80664930003695,272.50982759997714,272.8184044000227,None,None,up,1,1.3277062000706792,271.5623212000355,None,None,None,,,,,,,nefynm,001,0,english,2022-05-06_10h23.39.391,3-AFC_adaptive_staircase_mess,2022.1.1,30.268753232196257,
,,,,,2,0,2,0,2,0,2,0,,,,,,,,,,,,,,,,left,2000,10,0.00023657562948074026,-1,0,-1,-10,274.44024903007085,274.66285930003505,274.3732047000667,274.69150359998457,None,None,None,None,left,1,0.6097767000319436,274.43995390005875,None,None,None,,,,,,,nefynm,001,0,english,2022-05-06_10h23.39.391,3-AFC_adaptive_staircase_mess,2022.1.1,30.268753232196257,
,,,,,2,0,2,0,3,0,3,0,,,,,,,,,,,,,,,,right,2000,10,0.00023657562948074026,-1,0,-1,-10,278.5965265300474,None,276.5398259999929,276.84426959999837,277.54587260005064,277.8490718000103,278.53301390004344,278.85851520008873,right,1,2.2597804999677464,276.5976226000348,None,None,None,,,,,,,nefynm,001,0,english,2022-05-06_10h23.39.391,3-AFC_adaptive_staircase_mess,2022.1.1,30.268753232196257,
,,,,,2,0,2,0,4,0,4,0,,,,,,,,,,,,,,,,left,2000,0,7.481178280472168e-05,-1,0,-1,-10,280.36509522999404,280.59438889997546,280.3018641000381,280.6256986000808,None,None,None,None,left,1,0.7195829999400303,280.3625523999799,None,None,None,,,,,,,nefynm,001,0,english,2022-05-06_10h23.39.391,3-AFC_adaptive_staircase_mess,2022.1.1,30.268753232196257,
,,,,,2,0,2,0,5,0,5,0,,,,,,,,,,,,,,,,left,2000,0,7.481178280472168e-05,-1,0,-1,-10,282.60761343006743,282.829829000053,282.54556910006795,282.86024990002625,None,None,None,None,left,1,0.7349019999383017,282.60353110008873,None,None,None,,,,,,,nefynm,001,0,english,2022-05-06_10h23.39.391,3-AFC_adaptive_staircase_mess,2022.1.1,30.268753232196257,
,,,,,2,0,2,0,6,0,6,0,,,,,,,,,,,,,,,,left,2000,-10,2.3657562948074015e-05,-1,0,-1,-10,284.89187802997185,285.1082332000369,284.82454150007106,285.1381055000238,285.82796470005997,286.13559289998375,286.8251981000649,287.1415138000157,up,0,3.354385399958119,284.89465560007375,None,287.38085670000874,None,,,,,,,nefynm,001,0,english,2022-05-06_10h23.39.391,3-AFC_adaptive_staircase_mess,2022.1.1,30.268753232196257,
,,,,,2,0,2,0,7,0,7,0,,,,,,,,,,,,,,,,up,2000,-5,4.206975708225974e-05,1,1,1,5,290.7931123300805,291.005619600066,289.7261626999825,290.0325166999828,290.7251460000407,291.0379808000289,291.71437070006505,292.0255950000137,right,0,2.3917295000283048,289.79355639999267,None,None,None,,,,,,,nefynm,001,0,english,2022-05-06_10h23.39.391,3-AFC_adaptive_staircase_mess,2022.1.1,30.268753232196257,
,,,,,2,0,2,0,8,0,8,0,,,,,,,,,,,,,,,,right,2000,0,7.481178280472168e-05,1,1,1,5,295.71402023005066,None,293.65758440003265,293.962668400025,294.66291980003007,294.9661757000722,295.65086060005706,None,right,1,2.1811619999352843,293.7155836999882,None,None,None,,,,,,,nefynm,001,0,english,2022-05-06_10h23.39.391,3-AFC_adaptive_staircase_mess,2022.1.1,30.268753232196257,
,,,,,2,0,2,0,9,0,9,0,,,,,,,,,,,,,,,,right,2000,0,7.481178280472168e-05,1,1,1,5,299.43715463002445,299.64781460002996,297.36382550001144,297.667437300086,298.3661003999878,298.66783719998784,299.3699202000862,299.679175300058,right,1,2.289192800060846,297.4315518999938,None,None,None,,,,,,,nefynm,001,0,english,2022-05-06_10h23.39.391,3-AFC_adaptive_staircase_mess,2022.1.1,30.268753232196257,
,,,,,2,0,2,0,10,0,10,0,,,,,,,,,,,,,,,,up,2000,-10,2.3657562948074015e-05,-1,2,-1,-5.0,302.2699425300234,302.48434409999754,301.20393750001676,301.5049992999993,302.20325870008674,302.5155710000545,303.2127473000437,303.5459353000624,right,0,2.290894200094044,301.270623599994,None,None,None,,,,,,,nefynm,001,0,english,2022-05-06_10h23.39.391,3-AFC_adaptive_staircase_mess,2022.1.1,30.268753232196257,
,,,,,2,0,2,0,11,0,11,0,,,,,,,,,,,,,,,,right,2000,-7.5,3.154786722400965e-05,1,3,1,2.5,307.090268030006,None,305.05486979999114,305.375730699976,306.0568533000769,306.3802527000662,307.05713490000926,307.3860248000128,right,1,2.5388945000013337,305.08674950001296,None,307.61769220000133,None,,,,,,,nefynm,001,0,english,2022-05-06_10h23.39.391,3-AFC_adaptive_staircase_mess,2022.1.1,30.268753232196257,
,,,,,2,0,2,0,12,0,12,0,,,,,,,,,,,,,,,,right,2000,-7.5,3.154786722400965e-05,1,3,1,2.5,311.181831230002,311.3933207000373,309.11564900004305,309.4164832000388,310.11548030003905,310.41530380002223,311.1147609000327,311.4258642999921,right,1,2.283709099981934,309.1817107000388,None,None,None,,,,,,,nefynm,001,0,english,2022-05-06_10h23.39.391,3-AFC_adaptive_staircase_mess,2022.1.1,30.268753232196257,
,,,,,2,0,2,0,13,0,13,0,,,,,,,,,,,,,,,,right,2000,-12.5,1.7740669461678767e-05,-1,4,-1,-5.0,315.01956213003723,315.22876600001473,312.9468486000551,313.2527812999906,313.9511722000316,314.2550829000538,314.95063820004,315.2616062000161,right,1,2.5606858000392094,313.0162052999949,None,315.5191031000577,None,,,,,,,nefynm,001,0,english,2022-05-06_10h23.39.391,3-AFC_adaptive_staircase_mess,2022.1.1,30.268753232196257,
,,,,,2,0,2,0,14,0,14,0,,,,,,,,,,,,,,,,left,2000,-12.5,1.7740669461678767e-05,-1,4,-1,-5.0,317.12107593001565,317.3319305999903,317.0545529000228,317.3636572000105,318.0514257000759,318.35580840008333,319.058774300036,319.36123200005386,right,0,2.281200399971567,317.1216420000419,None,None,None,,,,,,,nefynm,001,0,english,2022-05-06_10h23.39.391,3-AFC_adaptive_staircase_mess,2022.1.1,30.268753232196257,
,,,,,2,0,2,0,15,0,15,0,,,,,,,,,,,,,,,,left,2000,-10.0,2.3657562948074015e-05,1,5,1,2.5,320.9561952300719,321.1677193000214,320.8895762000466,321.2003905000165,321.8956712000072,322.19682180008385,322.88973390008323,None,right,0,2.1886880000820383,320.9569648000179,None,None,None,,,,,,,nefynm,001,0,english,2022-05-06_10h23.39.391,3-AFC_adaptive_staircase_mess,2022.1.1,30.268753232196257,
,,,,,2,0,2,0,16,0,16,0,,,,,,,,,,,,,,,,up,2000,-7.5,3.154786722400965e-05,1,5,1,2.5,325.7040247300756,None,324.63642130000517,324.97074750007596,325.634937099996,325.93895370000973,326.63917239999864,None,right,0,2.2385885000694543,324.6998362999875,None,None,None,,,,,,,nefynm,001,0,english,2022-05-06_10h23.39.391,3-AFC_adaptive_staircase_mess,2022.1.1,30.268753232196257,
,,,,,2,0,2,0,17,0,17,0,,,,,,,,,,,,,,,,right,2000,-5.0,4.206975708225974e-05,1,5,1,2.5,330.4661169300671,330.67850420007017,328.40696060005575,328.73744440008886,329.4021435000468,329.70438260002993,330.3991410000017,330.7116073999787,right,1,2.3847525999881327,328.47291150002275,None,None,None,,,,,,,nefynm,001,0,english,2022-05-06_10h23.39.391,3-AFC_adaptive_staircase_mess,2022.1.1,30.268753232196257,
,,,,,2,0,2,0,18,0,18,0,,,,,,,,,,,,,,,,right,2000,-5.0,4.206975708225974e-05,1,5,1,2.5,334.4076428299886,334.6260714000091,332.3277260999894,332.64309570007026,333.3499876999995,333.6757336000446,334.34115900006145,334.6544511000393,right,1,2.3128249999135733,332.3856379999779,None,None,None,,,,,,,nefynm,001,0,english,2022-05-06_10h23.39.391,3-AFC_adaptive_staircase_mess,2022.1.1,30.268753232196257,
,,,,,2,0,2,0,19,0,19,0,,,,,,,,,,,,,,,,up,2000,-10.0,2.3657562948074015e-05,-1,6,-1,-5.0,337.2409316300764,337.45190810004715,336.1706830000039,336.47168249997776,337.1730958999833,337.48450870008674,338.17062860005535,338.4703707000008,left,0,2.5564569999696687,336.23698160005733,None,338.71396259998437,None,,,,,,,nefynm,001,0,english,2022-05-06_10h23.39.391,3-AFC_adaptive_staircase_mess,2022.1.1,30.268753232196257,
,,,,,3,0,3,0,0,0,0,0,,,,,,,,,,,,,[],[],10,right,3000,30,0.001733684252262658,0,0,-1,10,342.98297713004285,343.19002580002416,340.9323589000851,341.24914219998755,341.9338128999807,342.24954009999055,342.91505200008396,343.2237496000016,right,1,2.280047200038098,340.9622544000158,None,None,None,left,0.5969460998894647,339.87692220008466,None,339.87692220008466,None,nefynm,001,0,english,2022-05-06_10h23.39.391,3-AFC_adaptive_staircase_mess,2022.1.1,30.268753232196257,
,,,,,3,0,3,0,1,0,1,0,,,,,,,,,,,,,,,,left,3000,30,0.001733684252262658,0,0,-1,10,344.76073963003,None,344.7276065000333,345.035524200066,None,None,None,None,left,1,0.369309899979271,344.759625100065,None,None,None,,,,,,,nefynm,001,0,english,2022-05-06_10h23.39.391,3-AFC_adaptive_staircase_mess,2022.1.1,30.268753232196257,
,,,,,3,0,3,0,2,0,2,0,,,,,,,,,,,,,,,,up,3000,10,0.00017336842522626576,-1,0,-1,-10,347.6907883299864,None,346.62509200000204,346.9248728000093,347.62375770008657,347.92574880004395,None,None,up,1,1.605993700097315,346.65895479999017,None,None,None,,,,,,,nefynm,001,0,english,2022-05-06_10h23.39.391,3-AFC_adaptive_staircase_mess,2022.1.1,30.268753232196257,
,,,,,3,0,3,0,3,0,3,0,,,,,,,,,,,,,,,,right,3000,10,0.00017336842522626576,-1,0,-1,-10,351.81389092997415,352.034326300025,349.7416032999754,350.05445250007324,350.75114710000344,351.0577540000668,351.7503173000878,352.0676277000457,right,1,2.2876256000017747,349.802051100065,None,None,None,,,,,,,nefynm,001,0,english,2022-05-06_10h23.39.391,3-AFC_adaptive_staircase_mess,2022.1.1,30.268753232196257,
,,,,,3,0,3,0,4,0,4,0,,,,,,,,,,,,,,,,left,3000,0,5.482390980715923e-05,-1,0,-1,-10,353.608166130085,353.8335997000104,353.5460218000226,353.86625110008754,354.55501930008177,354.8593257999746,355.54374250001274,355.8564705000026,left,1,2.327259400044568,353.6027353000827,None,None,None,,,,,,,nefynm,001,0,english,2022-05-06_10h23.39.391,3-AFC_adaptive_staircase_mess,2022.1.1,30.268753232196257,
,,,,,3,0,3,0,5,0,5,0,,,,,,,,,,,,,,,,left,3000,0,5.482390980715923e-05,-1,0,-1,-10,357.49019992997637,357.7058602999896,357.42410529998597,357.739155700081,358.429960199981,358.7621975999791,359.4304562000325,359.72878100001253,left,1,3.1094187000999227,357.4914235000033,None,359.9907481999835,None,,,,,,,nefynm,001,0,english,2022-05-06_10h23.39.391,3-AFC_adaptive_staircase_mess,2022.1.1,30.268753232196257,
,,,,,3,0,3,0,6,0,6,0,,,,,,,,,,,,,,,,up,3000,-10,1.7336842522626584e-05,-1,0,-1,-10,363.10133252997184,363.3124425000278,362.0696721000131,362.37874650000595,363.06819939997513,363.37702230003197,364.07330629997887,364.37226329999976,right,0,2.5133799000177532,362.10362670000177,None,364.60747970000375,None,,,,,,,nefynm,001,0,english,2022-05-06_10h23.39.391,3-AFC_adaptive_staircase_mess,2022.1.1,30.268753232196257,
,,,,,3,0,3,0,7,0,7,0,,,,,,,,,,,,,,,,up,3000,-5,3.082975009307411e-05,1,1,1,5,367.14311223005643,None,366.10181260004174,366.43712090002373,367.1099791000597,367.4101596000837,368.10059809999075,368.4062700000359,left,0,3.0869719999609515,366.1698166000424,None,368.6566145999823,None,,,,,,,nefynm,001,0,english,2022-05-06_10h23.39.391,3-AFC_adaptive_staircase_mess,2022.1.1,30.268753232196257,
,,,,,3,0,3,0,8,0,8,0,,,,,,,,,,,,,,,,up,3000,0,5.482390980715923e-05,1,1,1,5,371.79461372998776,372.01915539999027,370.75995620002504,371.06838800001424,371.76148059999105,372.0784710000735,None,None,up,1,1.795675899949856,370.78983420005534,None,None,None,,,,,,,nefynm,001,0,english,2022-05-06_10h23.39.391,3-AFC_adaptive_staircase_mess,2022.1.1,30.268753232196257,
,,,,,3,0,3,0,9,0,9,0,,,,,,,,,,,,,,,,left,3000,0,5.482390980715923e-05,1,1,1,5,374.0831625300343,374.2887690999778,374.0500294000376,374.35089880006853,375.039933299995,375.3473253999837,376.0467941000825,376.3515759999864,left,1,2.9334073999198154,374.0842957000714,None,376.61291839997284,None,,,,,,,nefynm,001,0,english,2022-05-06_10h23.39.391,3-AFC_adaptive_staircase_mess,2022.1.1,30.268753232196257,
,,,,,3,0,3,0,10,0,10,0,,,,,,,,,,,,,,,,up,3000,-10,1.7336842522626584e-05,-1,2,-1,-5.0,379.5368422300671,379.76145210000686,378.4862583000213,378.811710900045,379.5037091000704,379.81980110006407,380.50052930007223,380.79849479999393,right,0,2.451586400042288,378.55018480005674,None,381.0564071300323,None,,,,,,,nefynm,001,0,english,2022-05-06_10h23.39.391,3-AFC_adaptive_staircase_mess,2022.1.1,30.268753232196257,
,,,,,3,0,3,0,11,0,11,0,,,,,,,,,,,,,,,,right,3000,-7.5,2.3119051069963017e-05,1,3,1,2.5,384.5604538299958,384.76837200007867,382.483779400005,382.81430710002314,383.4950608999934,383.7955938000232,384.4929873000365,384.7992318000179,left,0,2.465127300005406,382.55267610005103,None,385.0543004300562,None,,,,,,,nefynm,001,0,english,2022-05-06_10h23.39.391,3-AFC_adaptive_staircase_mess,2022.1.1,30.268753232196257,
,,,,,3,0,3,0,12,0,12,0,,,,,,,,,,,,,,,,right,3000,-5.0,3.082975009307411e-05,1,3,1,2.5,388.5626026300597,None,386.4867307000095,386.790518600028,387.49518319999333,387.8230294000823,388.49882290000096,388.8265951999929,right,1,2.3995030999649316,386.5536137999734,None,None,None,,,,,,,nefynm,001,0,english,2022-05-06_10h23.39.391,3-AFC_adaptive_staircase_mess,2022.1.1,30.268753232196257,
,,,,,3,0,3,0,13,0,13,0,,,,,,,,,,,,,,,,up,3000,-5.0,3.082975009307411e-05,1,3,1,2.5,391.47893063008087,None,390.4311653000768,390.7387346000178,391.4155649000313,391.7360273000086,392.4339547000127,392.7402762999991,up,1,2.4927269000327215,390.46103290002793,None,392.99135473003844,None,,,,,,,nefynm,001,0,english,2022-05-06_10h23.39.391,3-AFC_adaptive_staircase_mess,2022.1.1,30.268753232196257,
,,,,,3,0,3,0,14,0,14,0,,,,,,,,,,,,,,,,right,3000,-10.0,1.7336842522626584e-05,-1,4,-1,-5.0,396.4757567300112,None,394.3967244999949,394.7261537000304,395.41227690002415,395.7225194000639,396.4136675000191,396.73786510003265,left,0,2.6048667998984456,394.4607358999783,None,396.97332310001366,None,,,,,,,nefynm,001,0,english,2022-05-06_10h23.39.391,3-AFC_adaptive_staircase_mess,2022.1.1,30.268753232196257,
,,,,,3,0,3,0,15,0,15,0,,,,,,,,,,,,,,,,left,3000,-7.5,2.3119051069963017e-05,1,5,1,2.5,398.60750053002266,398.8235939000733,398.5447126000654,398.8503213999793,399.56902669998817,399.86432380008046,400.5483805000549,400.86853249999695,right,0,2.9220101000973955,398.60699070000555,None,401.1203590000514,None,,,,,,,nefynm,001,0,english,2022-05-06_10h23.39.391,3-AFC_adaptive_staircase_mess,2022.1.1,30.268753232196257,
,,,,,3,0,3,0,16,0,16,0,,,,,,,,,,,,,,,,left,3000,-5.0,3.082975009307411e-05,1,5,1,2.5,403.0658302300726,403.2893476000754,403.00177209998947,403.3212700000731,404.01396980008576,404.33257189998403,405.02099450002424,405.33109760005027,right,0,3.5663992000045255,403.067144599976,None,405.5460742000723,None,,,,,,,nefynm,001,0,english,2022-05-06_10h23.39.391,3-AFC_adaptive_staircase_mess,2022.1.1,30.268753232196257,
,,,,,3,0,3,0,17,0,17,0,,,,,,,,,,,,,,,,up,3000,-2.5,4.1112132497353565e-05,1,5,1,2.5,409.15423893003026,409.37462760007475,408.1296811000211,408.45467260002624,409.12110580003355,409.43538010003977,410.1063135000877,410.40610140003264,up,1,5.8652673999313265,408.16014090005774,None,410.6788500000257,None,,,,,,,nefynm,001,0,english,2022-05-06_10h23.39.391,3-AFC_adaptive_staircase_mess,2022.1.1,30.268753232196257,
,,,,,3,0,3,0,18,0,18,0,,,,,,,,,,,,,,,,up,3000,-2.5,4.1112132497353565e-05,1,5,1,2.5,416.58073243004037,None,415.52224720001686,415.8344781000633,416.51644690008834,416.8319916999899,None,None,up,1,1.6247646999545395,415.58448750001844,None,None,None,,,,,,,nefynm,001,0,english,2022-05-06_10h23.39.391,3-AFC_adaptive_staircase_mess,2022.1.1,30.268753232196257,
,,,,,3,0,3,0,19,0,19,0,,,,,,,,,,,,,,,,left,3000,-7.5,2.3119051069963017e-05,-1,6,-1,-5.0,418.7232536300435,None,418.65171420003753,418.9683686000062,419.6641701000044,419.9811691000359,420.68343059998006,420.9971797000617,up,0,2.9353623000206426,418.7218576000305,None,421.2125796000473,None,,,,,,,nefynm,001,0,english,2022-05-06_10h23.39.391,3-AFC_adaptive_staircase_mess,2022.1.1,30.268753232196257,
,,,,,4,0,4,0,0,0,0,0,,,,,,,,,,,,,[],[],10,right,4000,30,0.0026544222211549416,0,0,-1,10,426.6693489300669,426.8845788000617,424.61866290005855,424.92174710007384,425.6216565000359,425.94747920008376,426.609162800014,426.9120039000409,right,1,2.218846100033261,424.6860992000438,None,None,None,up,1.4631950000766665,422.7056288999738,None,422.7056288999738,None,nefynm,001,0,english,2022-05-06_10h23.39.391,3-AFC_adaptive_staircase_mess,2022.1.1,30.268753232196257,
,,,,,4,0,4,0,1,0,1,0,,,,,,,,,,,,,,,,up,4000,30,0.0026544222211549416,0,0,-1,10,429.41964713000925,429.6375665999949,428.38080879999325,428.68884110008366,429.38651400001254,429.6985993999988,None,None,up,1,1.296528400038369,428.40923770004883,None,None,None,,,,,,,nefynm,001,0,english,2022-05-06_10h23.39.391,3-AFC_adaptive_staircase_mess,2022.1.1,30.268753232196257,
,,,,,4,0,4,0,2,0,2,0,,,,,,,,,,,,,,,,left,4000,10,0.00026544222211549425,-1,0,-1,-10,431.25970383005915,None,431.19280630000867,431.5207009000005,None,None,None,None,left,1,0.30146730004344136,431.2597863000119,None,None,None,,,,,,,nefynm,001,0,english,2022-05-06_10h23.39.391,3-AFC_adaptive_staircase_mess,2022.1.1,30.268753232196257,
,,,,,4,0,4,0,3,0,3,0,,,,,,,,,,,,,,,,left,4000,10,0.00026544222211549425,-1,0,-1,-10,433.10722012998303,None,433.0740869999863,433.37781089998316,None,None,None,None,left,1,0.39345169998705387,433.10429070005193,None,None,None,,,,,,,nefynm,001,0,english,2022-05-06_10h23.39.391,3-AFC_adaptive_staircase_mess,2022.1.1,30.268753232196257,
,,,,,4,0,4,0,4,0,4,0,,,,,,,,,,,,,,,,left,4000,0,8.394020090612804e-05,-1,0,-1,-10,435.0189487300231,None,434.96660739998333,435.2691308000358,None,None,None,None,left,1,0.30251109995879233,435.0339248999953,None,None,None,,,,,,,nefynm,001,0,english,2022-05-06_10h23.39.391,3-AFC_adaptive_staircase_mess,2022.1.1,30.268753232196257,
,,,,,4,0,4,0,5,0,5,0,,,,,,,,,,,,,,,,left,4000,0,8.394020090612804e-05,-1,0,-1,-10,436.87167463003425,None,436.8065742000472,437.13967850001063,None,None,None,None,left,1,0.2768102999543771,436.86838660005014,None,None,None,,,,,,,nefynm,001,0,english,2022-05-06_10h23.39.391,3-AFC_adaptive_staircase_mess,2022.1.1,30.268753232196257,
,,,,,4,0,4,0,6,0,6,0,,,,,,,,,,,,,,,,left,4000,-10,2.6544222211549425e-05,-1,0,-1,-10,438.6891166300629,438.9040939999977,438.6384205999784,438.9736645000521,439.63647000002675,439.9370996999787,440.63852460007183,440.93778110004496,up,0,2.5554788999725133,438.7026870000409,None,441.19403740006965,None,,,,,,,nefynm,001,0,english,2022-05-06_10h23.39.391,3-AFC_adaptive_staircase_mess,2022.1.1,30.268753232196257,
,,,,,4,0,4,0,7,0,7,0,,,,,,,,,,,,,,,,left,4000,-5,4.720304381429618e-05,1,1,1,5,442.7900181300356,None,442.73577999998815,443.0477460999973,None,None,None,None,left,1,0.5680041000014171,442.80091930006165,None,None,None,,,,,,,nefynm,001,0,english,2022-05-06_10h23.39.391,3-AFC_adaptive_staircase_mess,2022.1.1,30.268753232196257,
,,,,,4,0,4,0,8,0,8,0,,,,,,,,,,,,,,,,right,4000,-5,4.720304381429618e-05,1,1,1,5,446.89928173000226,447.11945280001964,444.84042810008395,445.17260190006346,445.84155170002487,446.1459460000042,446.8355323000578,447.149735199986,right,1,2.268927099998109,444.908489500056,None,None,None,,,,,,,nefynm,001,0,english,2022-05-06_10h23.39.391,3-AFC_adaptive_staircase_mess,2022.1.1,30.268753232196257,
,,,,,4,0,4,0,9,0,9,0,,,,,,,,,,,,,,,,right,4000,-15,1.4926913094589802e-05,-1,2,-1,-5.0,450.6802697299863,450.89800759998616,448.64404809998814,448.9456172999926,449.64571640000213,449.9484418000793,450.6471365999896,450.95770490006544,left,0,2.818859099992551,448.6782410000451,None,451.1823416000698,None,,,,,,,nefynm,001,0,english,2022-05-06_10h23.39.391,3-AFC_adaptive_staircase_mess,2022.1.1,30.268753232196257,
,,,,,4,0,4,0,10,0,10,0,,,,,,,,,,,,,,,,up,4000,-12.5,1.9905358527674868e-05,1,3,1,2.5,454.0558478300809,454.2685554000782,452.9716191000771,453.28856670006644,453.98851659998763,454.29727750003804,454.97377050004434,455.2887040000642,up,1,2.71774670004379,453.05296140001155,None,455.55497709999327,None,,,,,,,nefynm,001,0,english,2022-05-06_10h23.39.391,3-AFC_adaptive_staircase_mess,2022.1.1,30.268753232196257,
,,,,,4,0,4,0,11,0,11,0,,,,,,,,,,,,,,,,left,4000,-12.5,1.9905358527674868e-05,1,3,1,2.5,457.322816930071,457.5357614000095,457.25899170001503,457.5644096999895,458.2572374000447,458.5571482999949,459.25717540003825,459.55552360008005,right,0,2.241535700042732,457.32012380007654,None,None,None,,,,,,,nefynm,001,0,english,2022-05-06_10h23.39.391,3-AFC_adaptive_staircase_mess,2022.1.1,30.268753232196257,
,,,,,4,0,4,0,12,0,12,0,,,,,,,,,,,,,,,,up,4000,-10.0,2.6544222211549425e-05,1,3,1,2.5,462.1141130300821,None,461.05981770006474,461.3600618999917,462.08097990008537,462.37477140000556,463.0618193000555,463.39300100004766,left,0,3.01014040003065,461.1265919000143,None,463.6290716000367,None,,,,,,,nefynm,001,0,english,2022-05-06_10h23.39.391,3-AFC_adaptive_staircase_mess,2022.1.1,30.268753232196257,
,,,,,4,0,4,0,13,0,13,0,,,,,,,,,,,,,,,,left,4000,-7.5,3.53972892192069e-05,1,3,1,2.5,465.6946998300846,465.9108003000729,465.62783810007386,465.94116809999105,466.6357662000228,None,None,None,left,1,0.9691071999259293,465.69575090007856,None,None,None,,,,,,,nefynm,001,0,english,2022-05-06_10h23.39.391,3-AFC_adaptive_staircase_mess,2022.1.1,30.268753232196257,
,,,,,4,0,4,0,14,0,14,0,,,,,,,,,,,,,,,,left,4000,-7.5,3.53972892192069e-05,1,3,1,2.5,468.19955463003134,468.41514230007306,468.133362099994,468.4451516000554,None,None,None,None,left,1,0.706539100036025,468.19954900001176,None,None,None,,,,,,,nefynm,001,0,english,2022-05-06_10h23.39.391,3-AFC_adaptive_staircase_mess,2022.1.1,30.268753232196257,
,,,,,4,0,4,0,15,0,15,0,,,,,,,,,,,,,,,,right,4000,-12.5,1.9905358527674868e-05,-1,4,-1,-5.0,472.4697100300691,472.6859658000758,470.3958596000448,470.69689840008505,471.4026799000567,471.7041024999926,472.4026246999856,472.7159770000726,right,1,3.0602017999626696,470.4537913000677,None,472.95550470007583,None,,,,,,,nefynm,001,0,english,2022-05-06_10h23.39.391,3-AFC_adaptive_staircase_mess,2022.1.1,30.268753232196257,
,,,,,4,0,4,0,16,0,16,0,,,,,,,,,,,,,,,,up,4000,-12.5,1.9905358527674868e-05,-1,4,-1,-5.0,476.078765530081,None,475.0125705000246,475.3420776000712,476.0456324000843,476.34854410006665,477.01633070001844,477.3398057000013,right,0,3.1391996000893414,475.07795720000286,None,477.5811207999941,None,,,,,,,nefynm,001,0,english,2022-05-06_10h23.39.391,3-AFC_adaptive_staircase_mess,2022.1.1,30.268753232196257,
,,,,,4,0,4,0,17,0,17,0,,,,,,,,,,,,,,,,up,4000,-10.0,2.6544222211549425e-05,1,5,1,2.5,480.74602393008536,480.95768440002576,479.66837560001295,479.9788294000318,480.67908120003995,480.9892916000681,481.68116110004485,None,right,0,2.0878882999531925,479.72954580001533,None,None,None,,,,,,,nefynm,001,0,english,2022-05-06_10h23.39.391,3-AFC_adaptive_staircase_mess,2022.1.1,30.268753232196257,
,,,,,4,0,4,0,18,0,18,0,,,,,,,,,,,,,,,,left,4000,-7.5,3.53972892192069e-05,1,5,1,2.5,483.35487273003673,None,483.29214869998395,483.62095910008065,484.31174310005736,484.6141641000286,485.31619190005586,485.6175675999839,right,0,2.960994799970649,483.35219290002715,None,485.8517868000781,None,,,,,,,nefynm,001,0,english,2022-05-06_10h23.39.391,3-AFC_adaptive_staircase_mess,2022.1.1,30.268753232196257,
,,,,,4,0,4,0,19,0,19,0,,,,,,,,,,,,,,,,left,4000,-5.0,4.720304381429618e-05,1,5,1,2.5,487.85245903005125,488.06775460008066,487.7858171000844,488.09803460002877,None,None,None,None,left,1,0.6842465000227094,487.8529234000016,None,None,None,,,,,,,nefynm,001,0,english,2022-05-06_10h23.39.391,3-AFC_adaptive_staircase_mess,2022.1.1,30.268753232196257,
,,,,,4,0,4,0,20,0,20,0,,,,,,,,,,,,,,,,left,4000,-5.0,4.720304381429618e-05,1,5,1,2.5,490.0870046300697,490.3031158000231,490.0202045000624,490.3341904000845,None,None,None,None,left,1,0.4007231999421492,490.0876031999942,None,None,None,,,,,,,nefynm,001,0,english,2022-05-06_10h23.39.391,3-AFC_adaptive_staircase_mess,2022.1.1,30.268753232196257,
,,,,,4,0,4,0,21,0,21,0,,,,,,,,,,,,,,,,left,4000,-10.0,2.6544222211549425e-05,-1,6,-1,-5.0,492.0362105300301,492.26506010000594,492.00307740003336,492.32751039997675,None,None,None,None,left,1,0.34308929997496307,492.0336799999932,None,None,None,,,,,,,nefynm,001,0,english,2022-05-06_10h23.39.391,3-AFC_adaptive_staircase_mess,2022.1.1,30.268753232196257,
,,,,,5,0,5,0,0,0,0,0,,,,,,,,,,,,,[],[],10,up,6000,30,0.003664122665694519,0,0,-1,10,495.93488482997054,None,494.8636084999889,495.1961133000441,495.8658776000375,496.16949640004896,None,None,up,1,1.4163883000146598,494.92891400004737,None,None,None,right,0.9439686000114307,493.465308999992,None,493.465308999992,None,nefynm,001,0,english,2022-05-06_10h23.39.391,3-AFC_adaptive_staircase_mess,2022.1.1,30.268753232196257,
,,,,,5,0,5,0,1,0,1,0,,,,,,,,,,,,,,,,up,6000,30,0.003664122665694519,0,0,-1,10,498.8984801300685,499.11244749999605,497.834571500076,498.1323722000234,498.8320745000383,499.14308250008617,None,None,up,1,1.4047269999282435,497.9018550000619,None,None,None,,,,,,,nefynm,001,0,english,2022-05-06_10h23.39.391,3-AFC_adaptive_staircase_mess,2022.1.1,30.268753232196257,
,,,,,5,0,5,0,2,0,2,0,,,,,,,,,,,,,,,,right,6000,10,0.00036641226656945183,-1,0,-1,-10,502.85225042997627,None,500.79964900005143,501.1011517000152,501.7983029000461,502.12013350008056,502.78945460007526,503.1145951000508,right,1,2.293927100021392,500.8669317000313,None,None,None,,,,,,,nefynm,001,0,english,2022-05-06_10h23.39.391,3-AFC_adaptive_staircase_mess,2022.1.1,30.268753232196257,
,,,,,5,0,5,0,3,0,3,0,,,,,,,,,,,,,,,,left,6000,10,0.00036641226656945183,-1,0,-1,-10,504.7028374299989,504.9186213000212,504.63646790001076,504.94889570004307,None,None,None,None,left,1,0.44376789999660105,504.7030751000857,None,None,None,,,,,,,nefynm,001,0,english,2022-05-06_10h23.39.391,3-AFC_adaptive_staircase_mess,2022.1.1,30.268753232196257,
,,,,,5,0,5,0,4,0,4,0,,,,,,,,,,,,,,,,up,6000,0,0.00011586973249842387,-1,0,-1,-10,507.70744133001426,507.9221226000227,506.62980160000734,506.93919940001797,507.63977290003095,507.95263950002845,None,None,up,1,1.4296294000232592,506.6908414000645,None,None,None,,,,,,,nefynm,001,0,english,2022-05-06_10h23.39.391,3-AFC_adaptive_staircase_mess,2022.1.1,30.268753232196257,
,,,,,5,0,5,0,5,0,5,0,,,,,,,,,,,,,,,,right,6000,0,0.00011586973249842387,-1,0,-1,-10,511.6778347300715,511.89298390003387,509.6169083000859,509.9430462999735,510.5960948000429,510.9092065000441,511.6103478000732,511.9232998000225,right,1,2.3151584999868646,509.6452430000063,None,None,None,,,,,,,nefynm,001,0,english,2022-05-06_10h23.39.391,3-AFC_adaptive_staircase_mess,2022.1.1,30.268753232196257,
,,,,,5,0,5,0,6,0,6,0,,,,,,,,,,,,,,,,left,6000,-10,3.664122665694518e-05,-1,0,-1,-10,513.5202242300729,None,513.4531832999783,513.7508782000514,514.4535613000626,514.788037899998,515.4547267999733,515.786012000055,right,0,2.9398179000709206,513.5175388000207,None,516.0221239000093,None,,,,,,,nefynm,001,0,english,2022-05-06_10h23.39.391,3-AFC_adaptive_staircase_mess,2022.1.1,30.268753232196257,
,,,,,5,0,5,0,7,0,7,0,,,,,,,,,,,,,,,,right,6000,-5,6.515833892261494e-05,1,1,1,5,520.0201248300145,520.2329686000012,517.9568679999793,518.2544250000501,518.957127599977,519.2878949000733,519.9527900000103,520.2636849000119,right,1,2.3219395999331027,518.0226186000509,None,None,None,,,,,,,nefynm,001,0,english,2022-05-06_10h23.39.391,3-AFC_adaptive_staircase_mess,2022.1.1,30.268753232196257,
,,,,,5,0,5,0,8,0,8,0,,,,,,,,,,,,,,,,left,6000,-5,6.515833892261494e-05,1,1,1,5,521.8790160300559,522.1023834000807,521.8181404999923,522.132137699984,None,None,None,None,left,1,0.7226832000305876,521.8775984999957,None,None,None,,,,,,,nefynm,001,0,english,2022-05-06_10h23.39.391,3-AFC_adaptive_staircase_mess,2022.1.1,30.268753232196257,
,,,,,5,0,5,0,9,0,9,0,,,,,,,,,,,,,,,,right,6000,-15,2.0604875954866497e-05,-1,2,-1,-5.0,526.1291428299737,526.3393030000152,524.0581356000621,524.3586316000437,525.0730498000048,525.3931527000386,526.0617907000706,526.3699060999788,right,1,2.2512625000672415,524.1252188000362,None,None,None,,,,,,,nefynm,001,0,english,2022-05-06_10h23.39.391,3-AFC_adaptive_staircase_mess,2022.1.1,30.268753232196257,
,,,,,5,0,5,0,10,0,10,0,,,,,,,,,,,,,,,,left,6000,-15,2.0604875954866497e-05,-1,2,-1,-5.0,527.893084230076,528.1154533000663,527.8599511000793,528.1706123000477,528.861068499973,529.1629259000765,529.8606984000653,530.1604552000063,right,0,2.2933278999989852,527.8911286999937,None,None,None,,,,,,,nefynm,001,0,english,2022-05-06_10h23.39.391,3-AFC_adaptive_staircase_mess,2022.1.1,30.268753232196257,
,,,,,5,0,5,0,11,0,11,0,,,,,,,,,,,,,,,,left,6000,-12.5,2.7477043692881217e-05,1,3,1,2.5,531.6777352300123,None,531.6446021000156,531.9418283000123,532.6444160999963,532.9653187000658,533.6369583000196,533.935486100032,right,0,2.3023451999761164,531.6746188000543,None,None,None,,,,,,,nefynm,001,0,english,2022-05-06_10h23.39.391,3-AFC_adaptive_staircase_mess,2022.1.1,30.268753232196257,
,,,,,5,0,5,0,12,0,12,0,,,,,,,,,,,,,,,,up,6000,-10.0,3.664122665694518e-05,1,3,1,2.5,536.5108693299699,536.7228056000313,535.4744578000391,535.7777040000074,536.4777361999732,536.7815511000808,537.475683500059,537.7742001999868,right,0,2.498041499988176,535.5434995000251,None,538.0133597999811,None,,,,,,,nefynm,001,0,english,2022-05-06_10h23.39.391,3-AFC_adaptive_staircase_mess,2022.1.1,30.268753232196257,
,,,,,5,0,5,0,13,0,13,0,,,,,,,,,,,,,,,,left,6000,-7.5,4.886186104779051e-05,1,3,1,2.5,539.5775517300353,None,539.5098748999881,539.8471918000141,None,None,None,None,left,1,0.5904887999640778,539.5788515000604,None,None,None,,,,,,,nefynm,001,0,english,2022-05-06_10h23.39.391,3-AFC_adaptive_staircase_mess,2022.1.1,30.268753232196257,
,,,,,5,0,5,0,14,0,14,0,,,,,,,,,,,,,,,,up,6000,-7.5,4.886186104779051e-05,1,3,1,2.5,542.7102353299852,542.9217923000688,541.6420576000819,541.9441510000033,542.6431230000453,542.9540496000554,None,None,up,1,1.6754729999229312,541.7090063000796,None,None,None,,,,,,,nefynm,001,0,english,2022-05-06_10h23.39.391,3-AFC_adaptive_staircase_mess,2022.1.1,30.268753232196257,
,,,,,5,0,5,0,15,0,15,0,,,,,,,,,,,,,,,,up,6000,-12.5,2.7477043692881217e-05,-1,4,-1,-5.0,545.9477903299849,546.159063900006,544.8658636000473,545.181030399981,545.8812564000254,546.1904699000297,546.8794819000177,547.1828462000703,right,0,2.3772465999936685,544.9272931000451,None,None,None,,,,,,,nefynm,001,0,english,2022-05-06_10h23.39.391,3-AFC_adaptive_staircase_mess,2022.1.1,30.268753232196257,
,,,,,5,0,5,0,16,0,16,0,,,,,,,,,,,,,,,,up,6000,-10.0,3.664122665694518e-05,1,5,1,2.5,549.8494583300198,550.0625444999896,548.7822047000518,549.0841392000439,549.7818571000826,550.0937506000046,550.7927690000506,551.1202173000202,up,1,2.679881300078705,548.8490528999828,None,551.3531765000662,None,,,,,,,nefynm,001,0,english,2022-05-06_10h23.39.391,3-AFC_adaptive_staircase_mess,2022.1.1,30.268753232196257,
,,,,,5,0,5,0,17,0,17,0,,,,,,,,,,,,,,,,right,6000,-10.0,3.664122665694518e-05,1,5,1,2.5,555.0879663300584,555.301436800044,553.0074667000445,553.3231777000474,554.0346063000616,554.3556883999845,555.0214753000764,555.332737000077,right,1,2.2363541999366134,553.0684859000612,None,None,None,,,,,,,nefynm,001,0,english,2022-05-06_10h23.39.391,3-AFC_adaptive_staircase_mess,2022.1.1,30.268753232196257,
,,,,,5,0,5,0,18,0,18,0,,,,,,,,,,,,,,,,left,6000,-15.0,2.0604875954866497e-05,-1,6,-1,-5.0,556.8641326299985,None,556.7949266000651,557.0970864000265,557.7977505000308,558.0959978000028,558.7971537000267,None,right,0,2.0707504999591038,556.8661418000702,None,None,None,,,,,,,nefynm,001,0,english,2022-05-06_10h23.39.391,3-AFC_adaptive_staircase_mess,2022.1.1,30.268753232196257,
,,,,,6,0,6,0,0,0,0,0,,,,,,,,,,,,,[],[],10,right,8000,30,0.005740768107484416,0,0,-1,10,563.2645752300159,563.4742864000145,561.2013124000514,561.5315978000872,562.19806840003,562.4999117000261,563.1977845000802,563.506919800071,right,1,2.2810712999198586,561.2654383999761,None,None,None,right,0.7099659000523388,560.0349009999773,None,560.0349009999773,None,nefynm,001,0,english,2022-05-06_10h23.39.391,3-AFC_adaptive_staircase_mess,2022.1.1,30.268753232196257,
,,,,,6,0,6,0,1,0,1,0,,,,,,,,,,,,,,,,right,8000,30,0.005740768107484416,0,0,-1,10,567.1042040300672,None,565.0320159000112,565.3366598000284,566.0428504999727,566.3655468000798,567.0371529000113,567.3716139000608,right,1,2.300126999965869,565.1007019000826,None,None,None,,,,,,,nefynm,001,0,english,2022-05-06_10h23.39.391,3-AFC_adaptive_staircase_mess,2022.1.1,30.268753232196257,
,,,,,6,0,6,0,2,0,2,0,,,,,,,,,,,,,,,,up,8000,10,0.0005740768107484417,-1,0,-1,-10,569.9130207300768,570.1267799000489,568.86971670005,569.1721973000094,569.8798876000801,570.2110327000264,None,None,up,1,1.3274563000304624,568.9368745000102,None,None,None,,,,,,,nefynm,001,0,english,2022-05-06_10h23.39.391,3-AFC_adaptive_staircase_mess,2022.1.1,30.268753232196257,
,,,,,6,0,6,0,3,0,3,0,,,,,,,,,,,,,,,,right,8000,10,0.0005740768107484417,-1,0,-1,-10,573.7947639300837,None,571.7293745999923,572.0419941000873,572.7502813000465,573.0770640000701,573.7314375999849,None,right,1,2.154886099975556,571.7902322000591,None,None,None,,,,,,,nefynm,001,0,english,2022-05-06_10h23.39.391,3-AFC_adaptive_staircase_mess,2022.1.1,30.268753232196257,
,,,,,6,0,6,0,4,0,4,0,,,,,,,,,,,,,,,,right,8000,0,0.0001815390273850507,-1,0,-1,-10,577.513582130021,577.724098799983,575.4383101999993,575.7425225999905,576.4416695000837,576.7453939000843,577.4467361000134,577.7549070999958,right,1,2.2571362999733537,575.495865700068,None,None,None,,,,,,,nefynm,001,0,english,2022-05-06_10h23.39.391,3-AFC_adaptive_staircase_mess,2022.1.1,30.268753232196257,
,,,,,6,0,6,0,5,0,5,0,,,,,,,,,,,,,,,,up,8000,0,0.0001815390273850507,-1,0,-1,-10,580.2898029300268,None,579.2171831000596,579.514906700002,580.2207010000711,580.5576570000267,None,None,up,1,1.620634299935773,579.2851297000889,None,None,None,,,,,,,nefynm,001,0,english,2022-05-06_10h23.39.391,3-AFC_adaptive_staircase_mess,2022.1.1,30.268753232196257,
,,,,,6,0,6,0,6,0,6,0,,,,,,,,,,,,,,,,right,8000,-10,5.740768107484415e-05,-1,0,-1,-10,584.4531560299802,584.6643345999764,582.3865697000874,582.6875518000452,583.3933877000818,583.720676500001,584.3861258000834,584.6966475000372,right,1,2.3048832999775186,582.457059700042,None,None,None,,,,,,,nefynm,001,0,english,2022-05-06_10h23.39.391,3-AFC_adaptive_staircase_mess,2022.1.1,30.268753232196257,
,,,,,6,0,6,0,7,0,7,0,,,,,,,,,,,,,,,,left,8000,-10,5.740768107484415e-05,-1,0,-1,-10,586.3082193299779,586.5335255999817,586.2448292999761,586.5652591000544,587.2531693000346,587.569675500039,588.2556530000875,588.5602410000283,left,1,2.6443826000904664,586.3079894999973,None,588.8266266999999,None,,,,,,,nefynm,001,0,english,2022-05-06_10h23.39.391,3-AFC_adaptive_staircase_mess,2022.1.1,30.268753232196257,
,,,,,6,0,6,0,8,0,8,0,,,,,,,,,,,,,,,,right,8000,-20,1.815390273850507e-05,-1,0,-1,-10,592.4844445300405,592.7073235000717,590.4238241000567,590.7285946999909,591.4252692000009,591.728680600063,592.4225593000883,592.7387400000589,right,1,2.6697495999978855,590.4913453999907,None,592.9824665000197,None,,,,,,,nefynm,001,0,english,2022-05-06_10h23.39.391,3-AFC_adaptive_staircase_mess,2022.1.1,30.268753232196257,
,,,,,6,0,6,0,9,0,9,0,,,,,,,,,,,,,,,,up,8000,-20,1.815390273850507e-05,-1,0,-1,-10,595.69510283001,595.9095540000126,594.6240912000649,594.9343084000284,595.6287279999815,595.9411133000394,596.6354848999763,596.9684468000196,right,0,2.5112179999705404,594.6823276000796,None,597.201600200031,None,,,,,,,nefynm,001,0,english,2022-05-06_10h23.39.391,3-AFC_adaptive_staircase_mess,2022.1.1,30.268753232196257,
,,,,,6,0,6,0,10,0,10,0,,,,,,,,,,,,,,,,up,8000,-15,3.228271145173278e-05,1,1,1,5,599.7337680300116,599.9453110999893,598.6648184000514,598.9681149000535,599.66673669999,599.977738799993,600.6765224999981,600.9748660000041,up,1,2.87634670000989,598.7325864000013,None,601.2464837000007,None,,,,,,,nefynm,001,0,english,2022-05-06_10h23.39.391,3-AFC_adaptive_staircase_mess,2022.1.1,30.268753232196257,
,,,,,6,0,6,0,11,0,11,0,,,,,,,,,,,,,,,,up,8000,-15,3.228271145173278e-05,1,1,1,5,604.1443259299849,604.3525049000746,603.0767970000161,603.3796931999968,604.0805946000619,604.3834878000198,605.0787741000531,605.3778636000352,right,0,2.9556951998965815,603.1487080000807,None,605.6426287000068,None,,,,,,,nefynm,001,0,english,2022-05-06_10h23.39.391,3-AFC_adaptive_staircase_mess,2022.1.1,30.268753232196257,
,,,,,6,0,6,0,12,0,12,0,,,,,,,,,,,,,,,,left,8000,-10,5.740768107484415e-05,1,1,1,5,607.6421315300395,607.8542750000488,607.5751647000434,607.886846999987,None,None,None,None,left,1,0.7341566000832245,607.6428114000009,None,None,None,,,,,,,nefynm,001,0,english,2022-05-06_10h23.39.391,3-AFC_adaptive_staircase_mess,2022.1.1,30.268753232196257,
,,,,,6,0,6,0,13,0,13,0,,,,,,,,,,,,,,,,left,8000,-10,5.740768107484415e-05,1,1,1,5,609.9106506300741,610.1230967000592,609.8775175000774,610.1853481000289,None,None,None,None,left,1,0.5787156999576837,609.9115094000008,None,None,None,,,,,,,nefynm,001,0,english,2022-05-06_10h23.39.391,3-AFC_adaptive_staircase_mess,2022.1.1,30.268753232196257,
,,,,,6,0,6,0,14,0,14,0,,,,,,,,,,,,,,,,right,8000,-20,1.815390273850507e-05,-1,2,-1,-5.0,614.0511428299942,614.2628542999737,611.9691499000182,612.2818970000371,612.9930652000476,613.3175479000201,613.9830474000191,614.2941664999817,right,1,2.649187200004235,612.0314961000113,None,614.5526302000508,None,,,,,,,nefynm,001,0,english,2022-05-06_10h23.39.391,3-AFC_adaptive_staircase_mess,2022.1.1,30.268753232196257,
,,,,,6,0,6,0,15,0,15,0,,,,,,,,,,,,,,,,right,8000,-20,1.815390273850507e-05,-1,2,-1,-5.0,618.1928829299868,None,616.1507337000221,616.4518354000757,617.1520908999955,617.4555531999795,618.1597497999901,618.4936593000311,right,1,2.927964400034398,616.2169708000729,None,618.7268119000364,None,,,,,,,nefynm,001,0,english,2022-05-06_10h23.39.391,3-AFC_adaptive_staircase_mess,2022.1.1,30.268753232196257,
,,,,,6,0,6,0,16,0,16,0,,,,,,,,,,,,,,,,left,8000,-25.0,1.0208689723347649e-05,-1,2,-1,-5.0,620.6920516300597,620.90299219999,620.6258136000251,620.9348904000362,621.6308931000531,621.9666238999926,622.6313487000298,None,right,0,2.0835594999371096,620.694285799982,None,None,None,,,,,,,nefynm,001,0,english,2022-05-06_10h23.39.391,3-AFC_adaptive_staircase_mess,2022.1.1,30.268753232196257,
,,,,,6,0,6,0,17,0,17,0,,,,,,,,,,,,,,,,right,8000,-22.5,1.3613506540389564e-05,1,3,1,2.5,626.3384364300291,626.5562322000042,624.2691275000107,624.5968436000403,625.265812800033,625.5706738000736,626.2686812999891,626.584489800036,up,0,3.0236102000344545,624.3308108000783,None,626.8366752000293,None,,,,,,,nefynm,001,0,english,2022-05-06_10h23.39.391,3-AFC_adaptive_staircase_mess,2022.1.1,30.268753232196257,
,,,,,6,0,6,0,18,0,18,0,,,,,,,,,,,,,,,,right,8000,-20.0,1.815390273850507e-05,1,3,1,2.5,630.8978668300551,631.1117192000384,628.8326320999768,629.1359639000148,629.8450916000875,630.1698565999977,630.8314416999929,631.1447720000288,right,1,2.357282300014049,628.8990990000311,None,None,None,,,,,,,nefynm,001,0,english,2022-05-06_10h23.39.391,3-AFC_adaptive_staircase_mess,2022.1.1,30.268753232196257,
,,,,,6,0,6,0,19,0,19,0,,,,,,,,,,,,,,,,right,8000,-20.0,1.815390273850507e-05,1,3,1,2.5,634.807124730025,635.0211760000093,632.7364801000804,633.038876799983,633.7343653000426,634.0375052000163,634.7403397000162,635.0481944000348,up,0,3.205798999988474,632.8027807000326,None,635.3079213000601,None,,,,,,,nefynm,001,0,english,2022-05-06_10h23.39.391,3-AFC_adaptive_staircase_mess,2022.1.1,30.268753232196257,
,,,,,6,0,6,0,20,0,20,0,,,,,,,,,,,,,,,,left,8000,-17.5,2.420861837920497e-05,1,3,1,2.5,637.5096033299924,637.7174097000388,637.4764701999957,637.7793834999902,638.4776894000825,638.780921400059,639.4828709000722,639.8116116999881,up,0,3.1232707999879494,637.5106022000546,None,640.0115874999901,None,,,,,,,nefynm,001,0,english,2022-05-06_10h23.39.391,3-AFC_adaptive_staircase_mess,2022.1.1,30.268753232196257,
,,,,,6,0,6,0,21,0,21,0,,,,,,,,,,,,,,,,up,8000,-15.0,3.228271145173278e-05,1,3,1,2.5,643.1533322299947,643.3644043999957,642.1210484000621,642.4543090000516,643.120199099998,643.4276269000256,644.1234755000332,644.4564501000568,right,0,2.9763778999913484,642.152276400011,None,644.6588512000162,None,,,,,,,nefynm,001,0,english,2022-05-06_10h23.39.391,3-AFC_adaptive_staircase_mess,2022.1.1,30.268753232196257,
,,,,,6,0,6,0,22,0,22,0,,,,,,,,,,,,,,,,right,8000,-12.5,4.304968760923004e-05,1,3,1,2.5,648.6970300300163,None,646.6251736000413,646.923972300021,647.619357299991,647.9294992000796,648.6280077000847,648.930446500075,right,1,2.32627009996213,646.6899062000448,None,None,None,,,,,,,nefynm,001,0,english,2022-05-06_10h23.39.391,3-AFC_adaptive_staircase_mess,2022.1.1,30.268753232196257,
,,,,,6,0,6,0,23,0,23,0,,,,,,,,,,,,,,,,right,8000,-12.5,4.304968760923004e-05,1,3,1,2.5,652.5625251300517,None,650.4860614000354,650.7894651000388,651.4843821000541,651.7934928999748,652.4937191000208,652.7959790000459,left,0,4.573148699942976,650.5548205000814,None,653.0658324999968,None,,,,,,,nefynm,001,0,english,2022-05-06_10h23.39.391,3-AFC_adaptive_staircase_mess,2022.1.1,30.268753232196257,
,,,,,6,0,6,0,24,0,24,0,,,,,,,,,,,,,,,,right,8000,-10.0,5.740768107484415e-05,1,3,1,2.5,658.6351823299774,None,656.5943646000233,656.9245884000557,657.5943897999823,657.9089335000608,658.6020491999807,658.9342254999792,right,1,2.467450700001791,656.6609475000296,None,659.1374516000506,None,,,,,,,nefynm,001,0,english,2022-05-06_10h23.39.391,3-AFC_adaptive_staircase_mess,2022.1.1,30.268753232196257,
,,,,,6,0,6,0,25,0,25,0,,,,,,,,,,,,,,,,right,8000,-10.0,5.740768107484415e-05,1,3,1,2.5,662.6617769300356,None,660.5928677000338,660.8923991000047,661.5871602999978,661.8924028000329,662.5961444000714,662.9082459000638,right,1,2.421675599995069,660.6592214000411,None,None,None,,,,,,,nefynm,001,0,english,2022-05-06_10h23.39.391,3-AFC_adaptive_staircase_mess,2022.1.1,30.268753232196257,
,,,,,6,0,6,0,26,0,26,0,,,,,,,,,,,,,,,,up,8000,-15.0,3.228271145173278e-05,-1,4,-1,-5.0,665.6136644300423,None,664.5776600000681,664.9053081000457,665.5805313000455,665.8771873000078,666.5739240000257,666.8697527999757,right,0,2.8533327999757603,664.611988699995,None,667.1186603000388,None,,,,,,,nefynm,001,0,english,2022-05-06_10h23.39.391,3-AFC_adaptive_staircase_mess,2022.1.1,30.268753232196257,
,,,,,6,0,6,0,27,0,27,0,,,,,,,,,,,,,,,,right,8000,-12.5,4.304968760923004e-05,1,5,1,2.5,670.9918706300086,None,668.9445183000062,669.2525336000836,669.962379100034,670.2733359000413,670.9587375000119,None,right,1,2.2317981000524014,669.0092522000195,None,None,None,,,,,,,nefynm,001,0,english,2022-05-06_10h23.39.391,3-AFC_adaptive_staircase_mess,2022.1.1,30.268753232196257,
,,,,,6,0,6,0,28,0,28,0,,,,,,,,,,,,,,,,left,8000,-12.5,4.304968760923004e-05,1,5,1,2.5,672.7779708300368,None,672.7125149000203,673.0430447000545,673.7110649000388,674.0401549000526,674.7185320000863,675.022050700034,right,0,2.239725499995984,672.777203100035,None,None,None,,,,,,,nefynm,001,0,english,2022-05-06_10h23.39.391,3-AFC_adaptive_staircase_mess,2022.1.1,30.268753232196257,
,,,,,6,0,6,0,29,0,29,0,,,,,,,,,,,,,,,,right,8000,-10.0,5.740768107484415e-05,1,5,1,2.5,678.5321458300459,None,676.4822667000117,676.8100828999886,677.4859288000735,677.7911271000048,678.4990127000492,678.8216573999962,right,1,2.3136480000102893,676.5438571000705,None,None,None,,,,,,,nefynm,001,0,english,2022-05-06_10h23.39.391,3-AFC_adaptive_staircase_mess,2022.1.1,30.268753232196257,
,,,,,6,0,6,0,30,0,30,0,,,,,,,,,,,,,,,,right,8000,-10.0,5.740768107484415e-05,1,5,1,2.5,682.3977880300372,None,680.3546811999986,680.6803565000882,681.3564081999939,681.6631923000095,682.3646549000405,682.6907702999888,right,1,2.342910400009714,680.4179269000888,None,None,None,,,,,,,nefynm,001,0,english,2022-05-06_10h23.39.391,3-AFC_adaptive_staircase_mess,2022.1.1,30.268753232196257,
,,,,,6,0,6,0,31,0,31,0,,,,,,,,,,,,,,,,up,8000,-15.0,3.228271145173278e-05,-1,6,-1,-5.0,685.2924044300453,None,684.2389131999807,684.562031700043,685.22798960004,685.5474567000056,686.2309900000691,686.5276987000834,right,0,2.303386199986562,684.2987763000419,None,None,None,,,,,,,nefynm,001,0,english,2022-05-06_10h23.39.391,3-AFC_adaptive_staircase_mess,2022.1.1,30.268753232196257,
,,,,,7,0,7,0,0,0,0,0,,,,,,,,,,,,,[],[],10,right,750,30,0.0012851978913844323,0,0,-1,10,690.8986291300389,None,688.8483806999866,689.1642472000094,689.851689800038,690.1669918000698,690.837241500034,691.1573817000026,right,1,2.4579342999495566,688.9110050000018,None,691.4120210300316,None,right,0.7025922999018803,687.6752504999749,None,687.6752504999749,None,nefynm,001,0,english,2022-05-06_10h23.39.391,3-AFC_adaptive_staircase_mess,2022.1.1,30.268753232196257,
,,,,,7,0,7,0,1,0,1,0,,,,,,,,,,,,,,,,up,750,30,0.0012851978913844323,0,0,-1,10,693.8832529300707,694.1070147000719,692.8231644000625,693.1393351000734,693.850119800074,694.1666378000518,None,None,up,1,1.4159520000685006,692.8804777000332,None,None,None,,,,,,,nefynm,001,0,english,2022-05-06_10h23.39.391,3-AFC_adaptive_staircase_mess,2022.1.1,30.268753232196257,
,,,,,7,0,7,0,2,0,2,0,,,,,,,,,,,,,,,,left,750,10,0.00012851978913844324,-1,0,-1,-10,695.8206457300694,696.042201400036,695.7433184999973,696.072380800033,None,None,None,None,left,1,0.5741336999926716,695.8183521999745,None,None,None,,,,,,,nefynm,001,0,english,2022-05-06_10h23.39.391,3-AFC_adaptive_staircase_mess,2022.1.1,30.268753232196257,
,,,,,7,0,7,0,3,0,3,0,,,,,,,,,,,,,,,,right,750,10,0.00012851978913844324,-1,0,-1,-10,699.8981897300691,700.1178145000013,697.8447773000225,698.1459161000093,698.8709915999789,699.1737755000358,699.8650566000724,700.1757783000357,right,1,2.279441299964674,697.9058122000424,None,None,None,,,,,,,nefynm,001,0,english,2022-05-06_10h23.39.391,3-AFC_adaptive_staircase_mess,2022.1.1,30.268753232196257,
,,,,,7,0,7,0,4,0,4,0,,,,,,,,,,,,,,,,up,750,0,4.064152580820497e-05,-1,0,-1,-10,702.6973102300544,None,701.6385356000392,701.940803400008,702.6641771000577,702.9785124000628,703.6425091000274,703.946185400011,right,0,2.454312000074424,701.6990310000256,None,704.1924480300513,None,,,,,,,nefynm,001,0,english,2022-05-06_10h23.39.391,3-AFC_adaptive_staircase_mess,2022.1.1,30.268753232196257,
,,,,,7,0,7,0,5,0,5,0,,,,,,,,,,,,,,,,right,750,5,7.22719885372964e-05,1,1,1,5,707.6716024299967,707.8862597000552,705.6350094000809,705.945023200009,706.6368787999963,706.9492672000779,707.6047857999802,None,right,1,2.2006597999716178,705.6640548000578,None,None,None,,,,,,,nefynm,001,0,english,2022-05-06_10h23.39.391,3-AFC_adaptive_staircase_mess,2022.1.1,30.268753232196257,
,,,,,7,0,7,0,6,0,6,0,,,,,,,,,,,,,,,,right,750,5,7.22719885372964e-05,1,1,1,5,711.3837857300532,None,709.3286462000106,709.6435985000571,710.3425339000532,710.6515541999834,711.3506526000565,711.6626299000345,up,0,2.3150131000438705,709.3901133000618,None,None,None,,,,,,,nefynm,001,0,english,2022-05-06_10h23.39.391,3-AFC_adaptive_staircase_mess,2022.1.1,30.268753232196257,
,,,,,7,0,7,0,7,0,7,0,,,,,,,,,,,,,,,,right,750,10,0.00012851978913844324,1,1,1,5,715.2422337299795,None,713.1979940000456,713.5050491000293,714.1822297000326,714.4854457000038,715.174869599985,715.5025984999957,right,1,2.250893000047654,713.2301106000086,None,None,None,,,,,,,nefynm,001,0,english,2022-05-06_10h23.39.391,3-AFC_adaptive_staircase_mess,2022.1.1,30.268753232196257,
,,,,,7,0,7,0,8,0,8,0,,,,,,,,,,,,,,,,left,750,10,0.00012851978913844324,1,1,1,5,716.9970986300032,None,716.9319547000341,717.2571023000637,None,None,None,None,left,1,0.5382439000532031,717.0072649000213,None,None,None,,,,,,,nefynm,001,0,english,2022-05-06_10h23.39.391,3-AFC_adaptive_staircase_mess,2022.1.1,30.268753232196257,
,,,,,7,0,7,0,9,0,9,0,,,,,,,,,,,,,,,,up,750,0,4.064152580820497e-05,-1,2,-1,-5.0,720.0816514300532,None,719.0242695000488,719.3310004000086,720.0152294000145,720.3415946000023,721.0142828000244,721.3023522000294,right,0,2.4736359000671655,719.0549296999816,None,721.5561650000745,None,,,,,,,nefynm,001,0,english,2022-05-06_10h23.39.391,3-AFC_adaptive_staircase_mess,2022.1.1,30.268753232196257,
,,,,,7,0,7,0,10,0,10,0,,,,,,,,,,,,,,,,up,750,2.5,5.419634570106019e-05,1,3,1,2.5,724.0860312299919,None,723.0175790999783,723.3200238000136,724.0191536999773,724.3519704000792,None,None,up,1,1.5947051999391988,723.0862347000511,None,None,None,,,,,,,nefynm,001,0,english,2022-05-06_10h23.39.391,3-AFC_adaptive_staircase_mess,2022.1.1,30.268753232196257,
,,,,,7,0,7,0,11,0,11,0,,,,,,,,,,,,,,,,left,750,2.5,5.419634570106019e-05,1,3,1,2.5,726.1991184299695,None,726.1659852999728,726.4799519000808,727.1585411300766,None,None,None,left,1,0.9026423000032082,726.1947047000285,None,None,None,,,,,,,nefynm,001,0,english,2022-05-06_10h23.39.391,3-AFC_adaptive_staircase_mess,2022.1.1,30.268753232196257,
,,,,,7,0,7,0,12,0,12,0,,,,,,,,,,,,,,,,left,750,-2.5,3.0476844862008466e-05,-1,4,-1,-5.0,728.6580590300146,728.87556700001,728.5769701000536,728.9108275000472,729.5715513000032,729.8920486000134,730.5937833000207,730.897916899994,right,0,2.452631900086999,728.6601914999774,None,731.1338663999923,None,,,,,,,nefynm,001,0,english,2022-05-06_10h23.39.391,3-AFC_adaptive_staircase_mess,2022.1.1,30.268753232196257,
,,,,,7,0,7,0,13,0,13,0,,,,,,,,,,,,,,,,left,750,0.0,4.064152580820497e-05,1,5,1,2.5,732.6627941299812,732.8746903000865,732.5960213000653,732.905743499985,733.597844599979,733.897150499979,734.5987541000359,734.8982360999798,left,1,2.2258940999163315,732.6631415000884,None,None,None,,,,,,,nefynm,001,0,english,2022-05-06_10h23.39.391,3-AFC_adaptive_staircase_mess,2022.1.1,30.268753232196257,
,,,,,7,0,7,0,14,0,14,0,,,,,,,,,,,,,,,,right,750,0.0,4.064152580820497e-05,1,5,1,2.5,738.4018804299994,None,736.3689760999987,736.6703992000548,737.3670035999967,737.6998029000824,738.3687473000027,738.6876936000772,right,1,2.5862289000069723,736.3988715000451,None,738.9034457000671,None,,,,,,,nefynm,001,0,english,2022-05-06_10h23.39.391,3-AFC_adaptive_staircase_mess,2022.1.1,30.268753232196257,
,,,,,7,0,7,0,15,0,15,0,,,,,,,,,,,,,,,,right,750,-5.0,2.285440948074376e-05,-1,6,-1,-5.0,742.5394823300303,742.7556632000487,740.4680976000382,740.7702276000055,741.4712738000089,741.7732405000133,742.4722042999929,742.7860270000529,right,1,2.8986375000094995,740.5345773000736,None,743.0408274000511,None,,,,,,,nefynm,001,0,english,2022-05-06_10h23.39.391,3-AFC_adaptive_staircase_mess,2022.1.1,30.268753232196257,
,,,,,8,0,8,0,0,0,0,0,,,,,,,,,,,,,[],[],10,up,500,30,0.002259279721874612,0,0,-1,10,746.7331992299878,None,745.6601686000358,745.9713533000322,746.6711607000325,746.98690550006,None,None,up,1,1.5568417001049966,745.732464700006,None,None,None,right,0.7005694999825209,744.5077197999926,None,744.5077197999926,None,nefynm,001,0,english,2022-05-06_10h23.39.391,3-AFC_adaptive_staircase_mess,2022.1.1,30.268753232196257,
,,,,,8,0,8,0,1,0,1,0,,,,,,,,,,,,,,,,right,500,30,0.002259279721874612,0,0,-1,10,750.8000934300362,751.0179592000786,748.7613051000517,749.0781320000533,749.7484472000506,750.0877584000118,750.7495095999911,751.0528170000762,right,1,2.3527899000328034,748.7932808999904,None,None,None,,,,,,,nefynm,001,0,english,2022-05-06_10h23.39.391,3-AFC_adaptive_staircase_mess,2022.1.1,30.268753232196257,
,,,,,8,0,8,0,2,0,2,0,,,,,,,,,,,,,,,,right,500,10,0.0002259279721874612,-1,0,-1,-10,754.6862830300233,754.900814200053,752.6197338000638,752.9497330000158,753.6173330000602,753.9358039000072,754.6194076000247,754.9311531999847,right,1,4.76484249997884,752.6836261000717,None,755.187277500052,None,,,,,,,nefynm,001,0,english,2022-05-06_10h23.39.391,3-AFC_adaptive_staircase_mess,2022.1.1,30.268753232196257,
,,,,,8,0,8,0,3,0,3,0,,,,,,,,,,,,,,,,right,500,10,0.0002259279721874612,-1,0,-1,-10,760.9574510299717,761.173951499979,758.9220765000209,759.2235380000202,759.9243542000186,760.2248689000262,760.924317899975,761.2337270000717,right,1,2.3646994999144226,758.9555364000844,None,None,None,,,,,,,nefynm,001,0,english,2022-05-06_10h23.39.391,3-AFC_adaptive_staircase_mess,2022.1.1,30.268753232196257,
,,,,,8,0,8,0,4,0,4,0,,,,,,,,,,,,,,,,left,500,0,7.144469792555515e-05,-1,0,-1,-10,762.8501781300292,763.0710588999791,762.7885766000254,763.1017172000138,763.7949360000202,764.0952705000527,764.7948507000692,765.0959015000844,right,0,2.2500352000351995,762.8472397000296,None,None,None,,,,,,,nefynm,001,0,english,2022-05-06_10h23.39.391,3-AFC_adaptive_staircase_mess,2022.1.1,30.268753232196257,
,,,,,8,0,8,0,5,0,5,0,,,,,,,,,,,,,,,,right,500,5,0.00012704863527746526,1,1,1,5,768.6656306300429,768.8819810000714,766.5872925000731,766.8966264000628,767.5981917000609,767.8989037000574,768.598911600071,None,right,1,2.211103100096807,766.64509060001,None,None,None,,,,,,,nefynm,001,0,english,2022-05-06_10h23.39.391,3-AFC_adaptive_staircase_mess,2022.1.1,30.268753232196257,
,,,,,8,0,8,0,6,0,6,0,,,,,,,,,,,,,,,,right,500,5,0.00012704863527746526,1,1,1,5,772.4081866300548,None,770.328081500018,770.6302253999747,771.3391464999877,771.670335700037,772.3378776999889,772.6415489000501,right,1,2.308469699928537,770.3875688000116,None,None,None,,,,,,,nefynm,001,0,english,2022-05-06_10h23.39.391,3-AFC_adaptive_staircase_mess,2022.1.1,30.268753232196257,
,,,,,8,0,8,0,7,0,7,0,,,,,,,,,,,,,,,,left,500,-5,4.017630610928089e-05,-1,2,-1,-5.0,774.2395966300392,774.4486756999977,774.1756595000625,774.4794872000348,775.1727224000497,775.478424299974,776.178652200033,776.4730112000834,right,0,2.6359869999578223,774.2368142000632,None,776.7419035000494,None,,,,,,,nefynm,001,0,english,2022-05-06_10h23.39.391,3-AFC_adaptive_staircase_mess,2022.1.1,30.268753232196257,
,,,,,8,0,8,0,8,0,8,0,,,,,,,,,,,,,,,,right,500,-2.5,5.357596526188033e-05,1,3,1,2.5,780.3987170300097,None,778.3421652000397,778.6451758000767,779.344412800041,779.6453026999952,780.365583900013,780.6506056999788,right,1,2.3675236999988556,778.4099510000087,None,None,None,,,,,,,nefynm,001,0,english,2022-05-06_10h23.39.391,3-AFC_adaptive_staircase_mess,2022.1.1,30.268753232196257,
,,,,,8,0,8,0,9,0,9,0,,,,,,,,,,,,,,,,up,500,-2.5,5.357596526188033e-05,1,3,1,2.5,783.3473182300222,783.5636125999736,782.2792875000741,782.588170300005,783.2806396000087,783.5941426000791,784.2818146999925,784.585160800023,right,0,2.5581416999921203,782.3463510000147,None,784.8513982000295,None,,,,,,,nefynm,001,0,english,2022-05-06_10h23.39.391,3-AFC_adaptive_staircase_mess,2022.1.1,30.268753232196257,
,,,,,8,0,8,0,10,0,10,0,,,,,,,,,,,,,,,,left,500,0.0,7.144469792555515e-05,1,3,1,2.5,786.429661030008,None,786.3965279000113,786.6940401999746,787.3848308000015,787.6873375000432,788.3860039000865,788.6871559000574,right,0,2.317774399998598,786.4267119000433,None,None,None,,,,,,,nefynm,001,0,english,2022-05-06_10h23.39.391,3-AFC_adaptive_staircase_mess,2022.1.1,30.268753232196257,
,,,,,8,0,8,0,11,0,11,0,,,,,,,,,,,,,,,,right,500,2.5,9.527303589816237e-05,1,3,1,2.5,792.2901959299925,792.5050591999898,790.207929700031,790.5213492000476,791.2221080000745,791.5240404000506,792.2232257000869,792.5355501000304,right,1,2.2994417999871075,790.2694809000241,None,None,None,,,,,,,nefynm,001,0,english,2022-05-06_10h23.39.391,3-AFC_adaptive_staircase_mess,2022.1.1,30.268753232196257,
,,,,,8,0,8,0,12,0,12,0,,,,,,,,,,,,,,,,up,500,2.5,9.527303589816237e-05,1,3,1,2.5,795.1312209300813,None,794.0631252999883,794.3608468000311,795.0629393000854,795.3660592000233,None,None,up,1,1.7527244000229985,794.1273873000173,None,None,None,,,,,,,nefynm,001,0,english,2022-05-06_10h23.39.391,3-AFC_adaptive_staircase_mess,2022.1.1,30.268753232196257,
,,,,,8,0,8,0,13,0,13,0,,,,,,,,,,,,,,,,left,500,-2.5,5.357596526188033e-05,-1,4,-1,-5.0,797.43335243006,None,797.3653068999993,797.7023739999859,798.3679579000454,798.6652010000544,799.3761818000348,799.6835550999967,left,1,2.4799648999469355,797.4341750000603,None,799.933030800079,None,,,,,,,nefynm,001,0,english,2022-05-06_10h23.39.391,3-AFC_adaptive_staircase_mess,2022.1.1,30.268753232196257,
,,,,,8,0,8,0,14,0,14,0,,,,,,,,,,,,,,,,left,500,-2.5,5.357596526188033e-05,-1,4,-1,-5.0,801.4658428300754,801.681216500001,801.3991654000711,801.712545300019,802.3890891000628,802.6990324000362,803.4142890999792,803.734346400015,right,0,2.3002431000350043,801.468077700003,None,None,None,,,,,,,nefynm,001,0,english,2022-05-06_10h23.39.391,3-AFC_adaptive_staircase_mess,2022.1.1,30.268753232196257,
,,,,,8,0,8,0,15,0,15,0,,,,,,,,,,,,,,,,right,500,0.0,7.144469792555515e-05,1,5,1,2.5,807.339127030049,807.5492821000516,805.2702232000884,805.5711174000753,806.2563180000288,806.5720511000836,807.2718134999741,807.5803452000255,right,1,2.3679557000286877,805.3366296000313,None,None,None,,,,,,,nefynm,001,0,english,2022-05-06_10h23.39.391,3-AFC_adaptive_staircase_mess,2022.1.1,30.268753232196257,
,,,,,8,0,8,0,16,0,16,0,,,,,,,,,,,,,,,,up,500,0.0,7.144469792555515e-05,1,5,1,2.5,810.2420427300385,810.4562866999768,809.1728614000604,809.4765466999961,810.1802270000335,810.4870309000835,None,None,up,1,1.6467296000337228,809.2415469000116,None,None,None,,,,,,,nefynm,001,0,english,2022-05-06_10h23.39.391,3-AFC_adaptive_staircase_mess,2022.1.1,30.268753232196257,
,,,,,8,0,8,0,17,0,17,0,,,,,,,,,,,,,,,,left,500,-5.0,4.017630610928089e-05,-1,6,-1,-5.0,812.402548030077,812.6210367999738,812.3419688000577,812.6526940000476,813.345907800016,813.6489048000658,814.3552234000526,814.6816311000148,right,0,2.377419300028123,812.3993540999945,None,None,None,,,,,,,nefynm,001,0,english,2022-05-06_10h23.39.391,3-AFC_adaptive_staircase_mess,2022.1.1,30.268753232196257,
,,,,,9,0,9,0,0,0,0,0,,,,,,,,,,,,,[],[],10,right,250,30,0.005296268625886445,0,0,-1,10,819.0261359300348,None,816.9667261000723,817.2851297000889,817.9504824000178,818.2530214000726,818.9551348000532,819.2600969000487,right,1,2.359029500046745,816.9941030000336,None,None,None,right,0.6562118999427184,815.8485719000455,None,815.8485719000455,None,nefynm,001,0,english,2022-05-06_10h23.39.391,3-AFC_adaptive_staircase_mess,2022.1.1,30.268753232196257,
,,,,,9,0,9,0,1,0,1,0,,,,,,,,,,,,,,,,right,250,30,0.005296268625886445,0,0,-1,10,822.9221729300334,823.1362062999979,820.8536545999814,821.1593897000421,821.8587976000272,822.1608774000779,822.855395700084,None,right,1,2.190290799946524,820.92259750003,None,None,None,,,,,,,nefynm,001,0,english,2022-05-06_10h23.39.391,3-AFC_adaptive_staircase_mess,2022.1.1,30.268753232196257,
,,,,,9,0,9,0,2,0,2,0,,,,,,,,,,,,,,,,right,250,10,0.0005296268625886444,-1,0,-1,-10,826.6354923300096,826.8492748000426,824.6005056999857,824.9250634000637,825.5981495000888,825.9085883999942,826.6023592000129,None,right,1,2.2087575999321416,824.6313835000619,None,None,None,,,,,,,nefynm,001,0,english,2022-05-06_10h23.39.391,3-AFC_adaptive_staircase_mess,2022.1.1,30.268753232196257,
,,,,,9,0,9,0,3,0,3,0,,,,,,,,,,,,,,,,up,250,10,0.0005296268625886444,-1,0,-1,-10,829.361677530047,829.575671800063,828.299116600072,828.6299645000836,829.2952039000811,829.6070802999893,None,None,up,1,1.3902873999904841,828.3625543999951,None,None,None,,,,,,,nefynm,001,0,english,2022-05-06_10h23.39.391,3-AFC_adaptive_staircase_mess,2022.1.1,30.268753232196257,
,,,,,9,0,9,0,4,0,4,0,,,,,,,,,,,,,,,,up,250,0,0.0001674827195789138,-1,0,-1,-10,832.2965247299871,832.5090711000375,831.2218746000435,831.5302963000722,832.2298360000132,832.5412393000443,833.2186117999954,833.5345917000668,right,0,2.4886220999760553,831.279219900025,None,833.8018164000241,None,,,,,,,nefynm,001,0,english,2022-05-06_10h23.39.391,3-AFC_adaptive_staircase_mess,2022.1.1,30.268753232196257,
,,,,,9,0,9,0,5,0,5,0,,,,,,,,,,,,,,,,right,250,5,0.0002978310717645052,1,1,1,5,837.3349314299994,837.5520083000883,835.2679276000708,835.5691871000454,836.2603047000011,836.568883900065,837.2678848999785,837.5798267000355,right,1,2.5617476999759674,835.3344498000806,None,837.837858300074,None,,,,,,,nefynm,001,0,english,2022-05-06_10h23.39.391,3-AFC_adaptive_staircase_mess,2022.1.1,30.268753232196257,
,,,,,9,0,9,0,6,0,6,0,,,,,,,,,,,,,,,,up,250,5,0.0002978310717645052,1,1,1,5,840.439427329984,840.6539431000128,839.3706914000213,839.6707569999853,840.3726935000159,840.6845501000062,None,None,up,1,1.76100169995334,839.431243399973,None,None,None,,,,,,,nefynm,001,0,english,2022-05-06_10h23.39.391,3-AFC_adaptive_staircase_mess,2022.1.1,30.268753232196257,
,,,,,9,0,9,0,7,0,7,0,,,,,,,,,,,,,,,,right,250,-5,9.418245447449e-05,-1,2,-1,-5.0,844.7139836300048,844.9216342000291,842.6778468000703,842.9814838999882,843.6815971999895,843.9854504000396,844.6808505000081,844.9869557999773,up,0,2.845918699982576,842.7466597000603,None,845.2210462000221,None,,,,,,,nefynm,001,0,english,2022-05-06_10h23.39.391,3-AFC_adaptive_staircase_mess,2022.1.1,30.268753232196257,
,,,,,9,0,9,0,8,0,8,0,,,,,,,,,,,,,,,,right,250,-2.5,0.00012559432157547898,1,3,1,2.5,849.1504111299873,849.3617301000049,847.0816343000624,847.3824553000741,848.0833678999916,848.3841499000555,849.0838359000627,849.397947999998,right,1,2.956867999979295,847.1479757999768,None,849.6317813000642,None,,,,,,,nefynm,001,0,english,2022-05-06_10h23.39.391,3-AFC_adaptive_staircase_mess,2022.1.1,30.268753232196257,
,,,,,9,0,9,0,9,0,9,0,,,,,,,,,,,,,,,,left,250,-2.5,0.00012559432157547898,1,3,1,2.5,851.630355930014,None,851.5647341000149,851.8950775000267,852.5592726999894,852.8850480000256,853.5615572000388,853.8618386000162,right,0,3.467634000000544,851.6293713999912,None,854.1335114000831,None,,,,,,,nefynm,001,0,english,2022-05-06_10h23.39.391,3-AFC_adaptive_staircase_mess,2022.1.1,30.268753232196257,
,,,,,9,0,9,0,10,0,10,0,,,,,,,,,,,,,,,,right,250,0.0,0.0001674827195789138,1,3,1,2.5,858.6330056300503,858.8489276000764,856.5638081000652,856.8973130000522,857.566659300006,857.864544800017,858.5622747000307,858.8775491000852,right,1,7.455838500056416,856.6323709000135,None,859.1359218000434,None,,,,,,,nefynm,001,0,english,2022-05-06_10h23.39.391,3-AFC_adaptive_staircase_mess,2022.1.1,30.268753232196257,
,,,,,9,0,9,0,11,0,11,0,,,,,,,,,,,,,,,,left,250,0.0,0.0001674827195789138,1,3,1,2.5,865.6334827300743,865.8465111000696,865.5664440999972,865.8761839000508,866.5718675000826,866.9071759000653,867.5713669999968,867.8746669000247,up,0,2.326344200060703,865.6343560999958,None,None,None,,,,,,,nefynm,001,0,english,2022-05-06_10h23.39.391,3-AFC_adaptive_staircase_mess,2022.1.1,30.268753232196257,
,,,,,9,0,9,0,12,0,12,0,,,,,,,,,,,,,,,,left,250,2.5,0.0002233417960754815,1,3,1,2.5,869.5065671300399,None,869.4416590000037,869.7710737000452,870.4474286000477,870.7490578000434,871.4470128000248,871.7477118000388,up,0,2.2894842999521643,869.5109416000778,None,None,None,,,,,,,nefynm,001,0,english,2022-05-06_10h23.39.391,3-AFC_adaptive_staircase_mess,2022.1.1,30.268753232196257,
,,,,,9,0,9,0,13,0,13,0,,,,,,,,,,,,,,,,left,250,5.0,0.0002978310717645052,1,3,1,2.5,873.3501613300177,None,873.2821831000037,873.6173195000738,None,None,None,None,left,1,0.5006968000670895,873.3478774999967,None,None,None,,,,,,,nefynm,001,0,english,2022-05-06_10h23.39.391,3-AFC_adaptive_staircase_mess,2022.1.1,30.268753232196257,
,,,,,9,0,9,0,14,0,14,0,,,,,,,,,,,,,,,,up,250,5.0,0.0002978310717645052,1,3,1,2.5,876.3545481300098,876.5698796000797,875.3178227000171,875.6446442999877,876.3214150000131,876.6318499000045,None,None,up,1,1.4124135000165552,875.3807562000584,None,None,None,,,,,,,nefynm,001,0,english,2022-05-06_10h23.39.391,3-AFC_adaptive_staircase_mess,2022.1.1,30.268753232196257,
,,,,,9,0,9,0,15,0,15,0,,,,,,,,,,,,,,,,right,250,0.0,0.0001674827195789138,-1,4,-1,-5.0,880.3581276300247,None,878.2841850999976,878.5891903000884,879.2857938000234,879.5847468000138,880.2899316999828,None,right,1,2.121136200032197,878.3518123000395,None,None,None,,,,,,,nefynm,001,0,english,2022-05-06_10h23.39.391,3-AFC_adaptive_staircase_mess,2022.1.1,30.268753232196257,
,,,,,9,0,9,0,16,0,16,0,,,,,,,,,,,,,,,,right,250,0.0,0.0001674827195789138,-1,4,-1,-5.0,884.0266196299926,None,881.9577412999934,882.2579404000426,882.9549835000653,883.2539582999889,883.9566127000144,884.2593658000696,right,1,2.5134278999175876,882.0231831000419,None,884.5296328000259,None,,,,,,,nefynm,001,0,english,2022-05-06_10h23.39.391,3-AFC_adaptive_staircase_mess,2022.1.1,30.268753232196257,
,,,,,9,0,9,0,17,0,17,0,,,,,,,,,,,,,,,,right,250,-5.0,9.418245447449e-05,-1,4,-1,-5.0,888.0964901300031,None,886.0293836999917,886.3595809000544,887.029880200047,887.3614123000298,888.0258834999986,888.3323650000384,right,1,2.3585860000457615,886.0975694999797,None,None,None,,,,,,,nefynm,001,0,english,2022-05-06_10h23.39.391,3-AFC_adaptive_staircase_mess,2022.1.1,30.268753232196257,
,,,,,9,0,9,0,18,0,18,0,,,,,,,,,,,,,,,,up,250,-5.0,9.418245447449e-05,-1,4,-1,-5.0,891.0001777300495,891.2156847000588,889.9303827000549,890.2293578999816,890.9349642000161,891.2441042000428,891.9309309000382,892.2348311999813,right,0,2.2483541999245062,889.9997684999835,None,None,None,,,,,,,nefynm,001,0,english,2022-05-06_10h23.39.391,3-AFC_adaptive_staircase_mess,2022.1.1,30.268753232196257,
,,,,,9,0,9,0,19,0,19,0,,,,,,,,,,,,,,,,left,250,-2.5,0.00012559432157547898,1,5,1,2.5,893.8070491300314,894.0197497999761,893.7379721000325,894.0494749000063,None,None,None,None,left,1,0.4257010999135673,893.8066730999853,None,None,None,,,,,,,nefynm,001,0,english,2022-05-06_10h23.39.391,3-AFC_adaptive_staircase_mess,2022.1.1,30.268753232196257,
,,,,,9,0,9,0,20,0,20,0,,,,,,,,,,,,,,,,right,250,-2.5,0.00012559432157547898,1,5,1,2.5,897.773937930062,897.9908136000158,895.7104901000857,896.0114305000752,896.7078506000107,897.0135629000142,897.7408048000652,898.0537832999835,right,1,2.64936789998319,895.7766064000316,None,898.2902273000218,None,,,,,,,nefynm,001,0,english,2022-05-06_10h23.39.391,3-AFC_adaptive_staircase_mess,2022.1.1,30.268753232196257,
,,,,,9,0,9,0,21,0,21,0,,,,,,,,,,,,,,,,left,250,-7.5,7.06268772311377e-05,-1,6,-1,-5.0,899.9794713300071,900.1919901000801,899.9114659000188,900.2202737000771,900.9076491000596,901.2072530000005,901.9110126000596,902.209063700051,right,0,2.604778900044039,899.9791969000362,None,902.4809043999994,None,,,,,,,nefynm,001,0,english,2022-05-06_10h23.39.391,3-AFC_adaptive_staircase_mess,2022.1.1,30.268753232196257,
,,,,,10,0,10,0,0,0,0,0,,,,,,,,,,,,,[],[],10,right,125,30,0.02285440948074376,0,0,-1,10,906.88080533006,907.0993466000073,904.8173131999793,905.1432594000362,905.8160577000817,906.1202442999929,906.8159598000348,907.1278236000799,right,1,2.2445977000752464,904.8844503000146,None,None,None,right,0.7195482000242919,903.6573744000634,None,903.6573744000634,None,nefynm,001,0,english,2022-05-06_10h23.39.391,3-AFC_adaptive_staircase_mess,2022.1.1,30.268753232196257,
,,,,,10,0,10,0,1,0,1,0,,,,,,,,,,,,,,,,left,125,30,0.02285440948074376,0,1,-1,10,908.6858555300278,None,908.6168353999965,908.916616100003,None,None,None,None,right,0,0.40990379999857396,908.6858660000144,None,None,None,,,,,,,nefynm,001,0,english,2022-05-06_10h23.39.391,3-AFC_adaptive_staircase_mess,2022.1.1,30.268753232196257,
,,,,,10,0,10,0,2,0,2,0,,,,,,,,,,,,,,,,right,125,40,0.07227198853729641,1,2,1,2.5,None,None,910.5895295999944,None,None,None,None,None,left,0,-1.4780378999421373,910.6545519999927,None,None,None,,,,,,,nefynm,001,0,english,2022-05-06_10h23.39.391,3-AFC_adaptive_staircase_mess,2022.1.1,30.268753232196257,
,,,,,10,0,10,0,3,0,3,0,,,,,,,,,,,,,,,,up,125,42.5,0.09637624565954683,1,2,1,2.5,913.190745830012,913.401334800059,912.1248417000752,912.4530105000595,913.121280200081,913.4296265000012,None,None,up,1,1.4205458998912945,912.1881955000572,None,None,None,,,,,,,nefynm,001,0,english,2022-05-06_10h23.39.391,3-AFC_adaptive_staircase_mess,2022.1.1,30.268753232196257,
,,,,,10,0,10,0,4,0,4,0,,,,,,,,,,,,,,,,left,125,42.5,0.09637624565954683,1,2,1,2.5,915.1607785300002,None,915.0943389000604,915.394504899974,None,None,None,None,left,1,0.4483423000201583,915.1595423000399,None,None,None,,,,,,,nefynm,001,0,english,2022-05-06_10h23.39.391,3-AFC_adaptive_staircase_mess,2022.1.1,30.268753232196257,
,,,,,10,0,10,0,5,0,5,0,,,,,,,,,,,,,,,,right,125,37.5,0.054196345701060196,-1,3,-1,-10,919.162988730066,None,917.0912527000764,917.3936276000459,918.097419800004,918.3972180000274,919.0934453000082,None,right,1,2.1603690999327227,917.1595851000166,None,None,None,,,,,,,nefynm,001,0,english,2022-05-06_10h23.39.391,3-AFC_adaptive_staircase_mess,2022.1.1,30.268753232196257,
,,,,,10,0,10,0,6,0,6,0,,,,,,,,,,,,,,,,left,125,37.5,0.054196345701060196,-1,3,-1,-10,920.8668227299931,921.0823605000041,920.8004839000059,921.11161240004,None,None,None,None,left,1,0.40409920003730804,920.8678206000477,None,None,None,,,,,,,nefynm,001,0,english,2022-05-06_10h23.39.391,3-AFC_adaptive_staircase_mess,2022.1.1,30.268753232196257,
,,,,,10,0,10,0,7,0,7,0,,,,,,,,,,,,,,,,right,125,27.5,0.017138389327322524,-1,3,-1,-10,924.8029303299845,None,922.7712008000817,923.0734487000154,923.7389814000344,924.0418579999823,924.7697971999878,None,right,1,2.066797300009057,922.8048323000548,None,None,None,,,,,,,nefynm,001,0,english,2022-05-06_10h23.39.391,3-AFC_adaptive_staircase_mess,2022.1.1,30.268753232196257,
,,,,,10,0,10,0,8,0,8,0,,,,,,,,,,,,,,,,left,125,27.5,0.017138389327322524,-1,3,-1,-10,926.4355473300093,926.6536895000609,926.4024142000126,926.7148227000143,None,None,None,None,left,1,0.42182550008874387,926.4348193000769,None,None,None,,,,,,,nefynm,001,0,english,2022-05-06_10h23.39.391,3-AFC_adaptive_staircase_mess,2022.1.1,30.268753232196257,
,,,,,10,0,10,0,9,0,9,0,,,,,,,,,,,,,,,,left,125,17.5,0.005419634570106019,-1,3,-1,-10,928.4040595300612,928.6220332999947,928.3392980999779,928.6505122000817,None,None,None,None,left,1,0.3727163999574259,928.4034609000664,None,None,None,,,,,,,nefynm,001,0,english,2022-05-06_10h23.39.391,3-AFC_adaptive_staircase_mess,2022.1.1,30.268753232196257,
,,,,,10,0,10,0,10,0,10,0,,,,,,,,,,,,,,,,up,125,17.5,0.005419634570106019,-1,3,-1,-10,931.2776753299986,931.4911174000008,930.2454393000808,930.5783601000439,931.2445422000019,931.5802315999754,None,None,up,1,1.5392971000401303,930.2777083000401,None,None,None,,,,,,,nefynm,001,0,english,2022-05-06_10h23.39.391,3-AFC_adaptive_staircase_mess,2022.1.1,30.268753232196257,
,,,,,10,0,10,0,11,0,11,0,,,,,,,,,,,,,,,,left,125,7.5,0.0017138389327322524,-1,3,-1,-10,933.3741322300048,933.5880954000168,933.3100043000886,933.6163139999844,934.3007525000721,934.6045387000777,935.3072133000242,935.6076011999976,right,0,2.2845042999833822,933.3726959000342,None,None,None,,,,,,,nefynm,001,0,english,2022-05-06_10h23.39.391,3-AFC_adaptive_staircase_mess,2022.1.1,30.268753232196257,
,,,,,10,0,10,0,12,0,12,0,,,,,,,,,,,,,,,,right,125,12.5,0.0030476844862008467,1,4,1,5,939.2119199300068,939.4214917999925,937.1286517999833,937.4418355000671,938.1450597000076,938.4452670000028,939.1455052000238,939.4541162999813,right,1,2.322629200061783,937.189887000015,None,None,None,,,,,,,nefynm,001,0,english,2022-05-06_10h23.39.391,3-AFC_adaptive_staircase_mess,2022.1.1,30.268753232196257,
,,,,,10,0,10,0,13,0,13,0,,,,,,,,,,,,,,,,right,125,12.5,0.0030476844862008467,1,4,1,5,943.0139101300738,None,940.9880726999836,941.3084017999936,941.9787132000783,942.279194300063,942.9807770000771,943.279806900071,right,1,2.287945399992168,941.016696000006,None,None,None,,,,,,,nefynm,001,0,english,2022-05-06_10h23.39.391,3-AFC_adaptive_staircase_mess,2022.1.1,30.268753232196257,
,,,,,10,0,10,0,14,0,14,0,,,,,,,,,,,,,,,,left,125,2.5,0.0009637624565954683,-1,5,-1,-10,944.8174340300611,None,944.7843009000644,945.1165546000702,None,None,None,None,left,1,0.6660486999899149,944.8148731000256,None,None,None,,,,,,,nefynm,001,0,english,2022-05-06_10h23.39.391,3-AFC_adaptive_staircase_mess,2022.1.1,30.268753232196257,
,,,,,10,0,10,0,15,0,15,0,,,,,,,,,,,,,,,,left,125,2.5,0.0009637624565954683,-1,5,-1,-10,946.9975956300623,None,946.9348274000222,947.2547942000674,None,None,None,None,left,1,0.708547499962151,946.9958460000344,None,None,None,,,,,,,nefynm,001,0,english,2022-05-06_10h23.39.391,3-AFC_adaptive_staircase_mess,2022.1.1,30.268753232196257,
,,,,,10,0,10,0,16,0,16,0,,,,,,,,,,,,,,,,left,125,-7.5,0.0003047684486200847,-1,5,-1,-10,949.2278438300709,949.430216900073,949.1947107000742,949.4955477999756,950.1908334000036,950.492577200057,951.1977206000593,951.4933948999969,right,0,2.3360963999293745,949.224892300088,None,None,None,,,,,,,nefynm,001,0,english,2022-05-06_10h23.39.391,3-AFC_adaptive_staircase_mess,2022.1.1,30.268753232196257,
,,,,,10,0,10,0,17,0,17,0,,,,,,,,,,,,,,,,right,125,-2.5,0.000541963457010602,1,6,1,5,None,None,953.0284978999989,None,None,None,None,None,left,0,-1.4191778999520466,953.0587477000663,None,None,None,,,,,,,nefynm,001,0,english,2022-05-06_10h23.39.391,3-AFC_adaptive_staircase_mess,2022.1.1,30.268753232196257,
,,,,,,,,,,,,,,,,,,,,,,,,,,,,,,,,,,,,,,,,,,,,,,,,,,,left,0.6694173000287265,954.122600600007,None,954.122600600007,None,,,,,,,,,
