practice.thisRepN,practice.thisTrialN,practice.thisN,practice.thisIndex,trials.thisRepN,trials.thisTrialN,trials.thisN,trials.thisIndex,blank_txt.started,blank_txt.stopped,practice_frequency,practice_level,psychopy_volume,tProbe.started,tProbe.stopped,tFeedback.keys,tFeedback.corr,tFeedback.started,tFeedback.stopped,tToo_early.keys,tToo_early.corr,tToo_early.started,tToo_early.stopped,tToo_late.keys,tToo_late.corr,tToo_late.rt,tToo_late.started,tToo_late.stopped,you_done_goofed.started,you_done_goofed.stopped,tFeedback.rt,Init_phase,Frequency,Level,Psychopy_Volume,Catch trial,probe.started,probe.stopped,feedback.keys,feedback.corr,feedback.rt,feedback.started,feedback.stopped,too_late.keys,too_late.corr,too_late.started,too_late.stopped,too_late.rt,Audiogram,participant,session,Language (english or french),Tone duration (ms),date,expName,psychopyVersion,frameRate,
0,0,0,0,,,,,241.89710420000006,None,567,40,0.006099267302654233,1.0134957666664377,None,None,0,243.91956340000002,244.9208807,None,1,242.91651049999996,243.91956340000002,['space'],0,[0.2844073000001117],244.9208807,None,245.95716970000012,None,,,,,,,,,,,,,,,,,,,,ikieoz,001,fr,200,2022-04-25_15h26.12.662,Bayesian,2022.1.1,None,
1,0,1,0,,,,,,,234,40,0.019882976039061955,0.9993200666665416,1.1987017666665452,['space'],1,251.49557389999995,252.49904140000012,None,1,250.50472690000015,251.5238472000001,None,1,,252.49904140000012,None,253.54156460000013,None,[0.47751769999990756],,,,,,,,,,,,,,,,,,,ikieoz,001,fr,200,2022-04-25_15h26.12.662,Bayesian,2022.1.1,None,
2,0,2,0,,,,,,,2345,40,0.008245949202640053,1.0162672666667731,None,['space'],1,256.47498570000016,257.4707516000001,None,1,255.4832616000001,256.4965654,None,1,,257.4707516000001,None,258.50408130000005,None,[0.49023509999983617],,,,,,,,,,,,,,,,,,,ikieoz,001,fr,200,2022-04-25_15h26.12.662,Bayesian,2022.1.1,None,
,,,,0,0,0,0,263.0698159000001,None,,,,,,,,,,,,,,,,,,,,,,"{'x': [], 'y': [], 'is_init_phase': True, 'is_exam_finished': False, 'threshold_uncertainty_db': 6}",1000,60,0.0440524436504007,False,0.006642099999680795,None,['space'],1,[0.4557838000000629],264.172873,265.1923234000001,None,1,265.1923234000001,None,,,ikieoz,001,fr,200,2022-04-25_15h26.12.662,Bayesian,2022.1.1,None,
,,,,1,0,1,0,,,,,,,,,,,,,,,,,,,,,,,,"{'x': [[1000, 60]], 'y': [[1]], 'audiogram': {}, 'is_init_phase': True, 'is_exam_finished': False, 'threshold_uncertainty_db': 6}",1000,40,0.004405244365040069,False,0.007217299999638271,None,None,0,,266.9788867,267.97738720000007,['space'],0,267.97738720000007,266.9788867,[0.18790629999989505],,ikieoz,001,fr,200,2022-04-25_15h26.12.662,Bayesian,2022.1.1,None,
,,,,2,0,2,0,,,,,,,,,,,,,,,,,,,,,,,,"{'x': [[1000, 60], [1000, 40]], 'y': [[1], [-1]], 'audiogram': {}, 'is_init_phase': True, 'is_exam_finished': False, 'threshold_uncertainty_db': 6}",1500,50,0.01527460556607757,False,0.015237999999726526,None,['space'],1,[0.5908504999999877],270.53452730000004,271.55034049999995,None,1,271.55034049999995,270.53452730000004,,,ikieoz,001,fr,200,2022-04-25_15h26.12.662,Bayesian,2022.1.1,None,
,,,,3,0,3,0,,,,,,,,,,,,,,,,,,,,,,,,"{'x': [[1000, 60], [1000, 40], [1500, 50]], 'y': [[1], [-1], [1]], 'audiogram': {}, 'is_init_phase': True, 'is_exam_finished': False, 'threshold_uncertainty_db': 6}",,,,True,0.00022176666675477463,0.1852577666666093,None,0,,273.2130744000001,274.2257085000001,None,1,274.2257085000001,273.2130744000001,,,ikieoz,001,fr,200,2022-04-25_15h26.12.662,Bayesian,2022.1.1,None,
,,,,4,0,4,0,,,,,,,,,,,,,,,,,,,,,,,,"{'x': [[1000, 60], [1000, 40], [1500, 50]], 'y': [[1], [-1], [1]], 'audiogram': {}, 'is_init_phase': True, 'is_exam_finished': False, 'threshold_uncertainty_db': 6}",1500,30,0.001527460556607757,False,0.009173599999940052,None,['space'],1,[0.5007987999997567],276.6719686000001,277.6816719000001,None,1,277.6816719000001,276.6719686000001,,,ikieoz,001,fr,200,2022-04-25_15h26.12.662,Bayesian,2022.1.1,None,
,,,,5,0,5,0,,,,,,,,,,,,,,,,,,,,,,,,"{'x': [[1000, 60], [1000, 40], [1500, 50], [1500, 30]], 'y': [[1], [-1], [1], [1]], 'audiogram': {}, 'is_init_phase': True, 'is_exam_finished': False, 'threshold_uncertainty_db': 6}",1500,10,0.0001527460556607757,False,0.008333200000151919,None,None,0,,279.6908644,280.72137250000014,None,1,280.72137250000014,279.6908644,,,ikieoz,001,fr,200,2022-04-25_15h26.12.662,Bayesian,2022.1.1,None,
,,,,6,0,6,0,,,,,,,,,,,,,,,,,,,,,,,,"{'x': [[1000, 60], [1000, 40], [1500, 50], [1500, 30], [1500, 10]], 'y': [[1], [-1], [1], [1], [-1]], 'audiogram': {}, 'is_init_phase': True, 'is_exam_finished': False, 'threshold_uncertainty_db': 6}",2000,30,0.0023657562948074026,False,0.01094739999984995,None,['space'],1,[0.6080565999998271],283.5887471000001,284.6059735000001,None,1,284.6059735000001,283.5887471000001,,,ikieoz,001,fr,200,2022-04-25_15h26.12.662,Bayesian,2022.1.1,None,
,,,,7,0,7,0,,,,,,,,,,,,,,,,,,,,,,,,"{'x': [[1000, 60], [1000, 40], [1500, 50], [1500, 30], [1500, 10], [2000, 30]], 'y': [[1], [-1], [1], [1], [-1], [1]], 'audiogram': {}, 'is_init_phase': True, 'is_exam_finished': False, 'threshold_uncertainty_db': 6}",2000,10,0.00023657562948074026,False,0.006989900000007765,None,None,0,,287.23367099999996,288.2526987000001,None,1,288.2526987000001,287.23367099999996,,,ikieoz,001,fr,200,2022-04-25_15h26.12.662,Bayesian,2022.1.1,None,
,,,,8,0,8,0,,,,,,,,,,,,,,,,,,,,,,,,"{'x': [[1000, 60], [1000, 40], [1500, 50], [1500, 30], [1500, 10], [2000, 30], [2000, 10]], 'y': [[1], [-1], [1], [1], [-1], [1], [-1]], 'audiogram': {}, 'is_init_phase': True, 'is_exam_finished': False, 'threshold_uncertainty_db': 6}",3000,30,0.001733684252262658,False,0.015028799999981857,None,['space'],1,[0.40999089999991156],290.0914030000001,291.1196986,None,1,291.1196986,290.0914030000001,,,ikieoz,001,fr,200,2022-04-25_15h26.12.662,Bayesian,2022.1.1,None,
,,,,9,0,9,0,,,,,,,,,,,,,,,,,,,,,,,,"{'x': [[1000, 60], [1000, 40], [1500, 50], [1500, 30], [1500, 10], [2000, 30], [2000, 10], [3000, 30]], 'y': [[1], [-1], [1], [1], [-1], [1], [-1], [1]], 'audiogram': {}, 'is_init_phase': True, 'is_exam_finished': False, 'threshold_uncertainty_db': 6}",,,,True,0.013150233333135475,None,None,0,,292.1716957000001,293.18850610000004,None,1,293.18850610000004,292.1716957000001,,,ikieoz,001,fr,200,2022-04-25_15h26.12.662,Bayesian,2022.1.1,None,
,,,,10,0,10,0,,,,,,,,,,,,,,,,,,,,,,,,"{'x': [[1000, 60], [1000, 40], [1500, 50], [1500, 30], [1500, 10], [2000, 30], [2000, 10], [3000, 30]], 'y': [[1], [-1], [1], [1], [-1], [1], [-1], [1]], 'audiogram': {}, 'is_init_phase': True, 'is_exam_finished': False, 'threshold_uncertainty_db': 6}",3000,10,0.00017336842522626576,False,0.01083040000003166,None,['space'],1,[0.9101678999998057],295.2391033000001,296.25899960000015,None,1,296.25899960000015,295.2391033000001,,,ikieoz,001,fr,200,2022-04-25_15h26.12.662,Bayesian,2022.1.1,None,
,,,,11,0,11,0,,,,,,,,,,,,,,,,,,,,,,,,"{'x': [[1000, 60], [1000, 40], [1500, 50], [1500, 30], [1500, 10], [2000, 30], [2000, 10], [3000, 30], [3000, 10]], 'y': [[1], [-1], [1], [1], [-1], [1], [-1], [1], [1]], 'audiogram': {}, 'is_init_phase': True, 'is_exam_finished': False, 'threshold_uncertainty_db': 6}",3000,-10,1.7336842522626584e-05,False,0.013572199999771328,None,None,0,,298.4019403,299.4290522000001,None,1,299.4290522000001,298.4019403,,,ikieoz,001,fr,200,2022-04-25_15h26.12.662,Bayesian,2022.1.1,None,
,,,,12,0,12,0,,,,,,,,,,,,,,,,,,,,,,,,"{'x': [[1000, 60], [1000, 40], [1500, 50], [1500, 30], [1500, 10], [2000, 30], [2000, 10], [3000, 30], [3000, 10], [3000, -10]], 'y': [[1], [-1], [1], [1], [-1], [1], [-1], [1], [1], [-1]], 'audiogram': {}, 'is_init_phase': True, 'is_exam_finished': False, 'threshold_uncertainty_db': 6}",4000,10,0.00026544222211549425,False,0.01090739999995094,None,None,0,,300.5624881000001,301.5819484000001,None,1,301.5819484000001,300.5624881000001,,,ikieoz,001,fr,200,2022-04-25_15h26.12.662,Bayesian,2022.1.1,None,
,,,,13,0,13,0,,,,,,,,,,,,,,,,,,,,,,,,"{'x': [[1000, 60], [1000, 40], [1500, 50], [1500, 30], [1500, 10], [2000, 30], [2000, 10], [3000, 30], [3000, 10], [3000, -10], [4000, 10]], 'y': [[1], [-1], [1], [1], [-1], [1], [-1], [1], [1], [-1], [-1]], 'audiogram': {}, 'is_init_phase': True, 'is_exam_finished': False, 'threshold_uncertainty_db': 6}",4000,30,0.0026544222211549416,False,0.009014299999989817,None,['space'],1,[0.6511168999998063],303.46716590000005,304.4801245000001,None,1,304.4801245000001,303.46716590000005,,,ikieoz,001,fr,200,2022-04-25_15h26.12.662,Bayesian,2022.1.1,None,
,,,,14,0,14,0,,,,,,,,,,,,,,,,,,,,,,,,"{'x': [[1000, 60], [1000, 40], [1500, 50], [1500, 30], [1500, 10], [2000, 30], [2000, 10], [3000, 30], [3000, 10], [3000, -10], [4000, 10], [4000, 30]], 'y': [[1], [-1], [1], [1], [-1], [1], [-1], [1], [1], [-1], [-1], [1]], 'audiogram': {}, 'is_init_phase': True, 'is_exam_finished': False, 'threshold_uncertainty_db': 6}",,,,True,0.013043133333212609,None,None,0,,306.24458930000014,307.26165190000006,None,1,307.26165190000006,306.24458930000014,,,ikieoz,001,fr,200,2022-04-25_15h26.12.662,Bayesian,2022.1.1,None,
,,,,15,0,15,0,,,,,,,,,,,,,,,,,,,,,,,,"{'x': [[1000, 60], [1000, 40], [1500, 50], [1500, 30], [1500, 10], [2000, 30], [2000, 10], [3000, 30], [3000, 10], [3000, -10], [4000, 10], [4000, 30]], 'y': [[1], [-1], [1], [1], [-1], [1], [-1], [1], [1], [-1], [-1], [1]], 'audiogram': {}, 'is_init_phase': True, 'is_exam_finished': False, 'threshold_uncertainty_db': 6}",6000,10,0.00036641226656945183,False,0.012973599999895669,None,['space'],1,[0.7254531000000952],308.39958780000006,309.4047233000001,None,1,309.4047233000001,308.39958780000006,,,ikieoz,001,fr,200,2022-04-25_15h26.12.662,Bayesian,2022.1.1,None,
,,,,16,0,16,0,,,,,,,,,,,,,,,,,,,,,,,,"{'x': [[1000, 60], [1000, 40], [1500, 50], [1500, 30], [1500, 10], [2000, 30], [2000, 10], [3000, 30], [3000, 10], [3000, -10], [4000, 10], [4000, 30], [6000, 10]], 'y': [[1], [-1], [1], [1], [-1], [1], [-1], [1], [1], [-1], [-1], [1], [1]], 'audiogram': {}, 'is_init_phase': True, 'is_exam_finished': False, 'threshold_uncertainty_db': 6}",6000,-10,3.664122665694518e-05,False,0.0027343999997810897,None,None,0,,310.61492280000016,311.6241222000001,None,1,311.6241222000001,310.61492280000016,,,ikieoz,001,fr,200,2022-04-25_15h26.12.662,Bayesian,2022.1.1,None,
,,,,17,0,17,0,,,,,,,,,,,,,,,,,,,,,,,,"{'x': [[1000, 60], [1000, 40], [1500, 50], [1500, 30], [1500, 10], [2000, 30], [2000, 10], [3000, 30], [3000, 10], [3000, -10], [4000, 10], [4000, 30], [6000, 10], [6000, -10]], 'y': [[1], [-1], [1], [1], [-1], [1], [-1], [1], [1], [-1], [-1], [1], [1], [-1]], 'audiogram': {}, 'is_init_phase': True, 'is_exam_finished': False, 'threshold_uncertainty_db': 6}",8000,10,0.0005740768107484417,False,0.015158100000007835,None,None,0,,314.29128059999994,315.3122307000001,None,1,315.3122307000001,314.29128059999994,,,ikieoz,001,fr,200,2022-04-25_15h26.12.662,Bayesian,2022.1.1,None,
,,,,18,0,18,0,,,,,,,,,,,,,,,,,,,,,,,,"{'x': [[1000, 60], [1000, 40], [1500, 50], [1500, 30], [1500, 10], [2000, 30], [2000, 10], [3000, 30], [3000, 10], [3000, -10], [4000, 10], [4000, 30], [6000, 10], [6000, -10], [8000, 10]], 'y': [[1], [-1], [1], [1], [-1], [1], [-1], [1], [1], [-1], [-1], [1], [1], [-1], [-1]], 'audiogram': {}, 'is_init_phase': True, 'is_exam_finished': False, 'threshold_uncertainty_db': 6}",,,,True,0.012286133333418547,None,None,0,,316.9912669,318.0146394000001,None,1,318.0146394000001,316.9912669,,,ikieoz,001,fr,200,2022-04-25_15h26.12.662,Bayesian,2022.1.1,None,
,,,,19,0,19,0,,,,,,,,,,,,,,,,,,,,,,,,"{'x': [[1000, 60], [1000, 40], [1500, 50], [1500, 30], [1500, 10], [2000, 30], [2000, 10], [3000, 30], [3000, 10], [3000, -10], [4000, 10], [4000, 30], [6000, 10], [6000, -10], [8000, 10]], 'y': [[1], [-1], [1], [1], [-1], [1], [-1], [1], [1], [-1], [-1], [1], [1], [-1], [-1]], 'audiogram': {}, 'is_init_phase': True, 'is_exam_finished': False, 'threshold_uncertainty_db': 6}",8000,20,0.0018153902738505074,False,0.010284399999818561,None,['space'],1,[0.7215140999999221],319.8282219,320.85118120000016,None,1,320.85118120000016,319.8282219,,,ikieoz,001,fr,200,2022-04-25_15h26.12.662,Bayesian,2022.1.1,None,
,,,,20,0,20,0,,,,,,,,,,,,,,,,,,,,,,,,"{'x': [[1000, 60], [1000, 40], [1500, 50], [1500, 30], [1500, 10], [2000, 30], [2000, 10], [3000, 30], [3000, 10], [3000, -10], [4000, 10], [4000, 30], [6000, 10], [6000, -10], [8000, 10], [8000, 20]], 'y': [[1], [-1], [1], [1], [-1], [1], [-1], [1], [1], [-1], [-1], [1], [1], [-1], [-1], [1]], 'audiogram': {}, 'is_init_phase': True, 'is_exam_finished': False, 'threshold_uncertainty_db': 6}",750,50,0.012851978913844325,False,0.011026999999785403,None,['space'],1,[0.7833117999998649],323.71750199999997,324.7223094000001,None,1,324.7223094000001,323.71750199999997,,,ikieoz,001,fr,200,2022-04-25_15h26.12.662,Bayesian,2022.1.1,None,
,,,,21,0,21,0,,,,,,,,,,,,,,,,,,,,,,,,"{'x': [[1000, 60], [1000, 40], [1500, 50], [1500, 30], [1500, 10], [2000, 30], [2000, 10], [3000, 30], [3000, 10], [3000, -10], [4000, 10], [4000, 30], [6000, 10], [6000, -10], [8000, 10], [8000, 20], [750, 50]], 'y': [[1], [-1], [1], [1], [-1], [1], [-1], [1], [1], [-1], [-1], [1], [1], [-1], [-1], [1], [1]], 'audiogram': {}, 'is_init_phase': True, 'is_exam_finished': False, 'threshold_uncertainty_db': 6}",750,30,0.0012851978913844323,False,0.010207199999967997,None,['space'],1,[0.5635114999997768],327.52254100000005,328.5385595,None,1,328.5385595,327.52254100000005,,,ikieoz,001,fr,200,2022-04-25_15h26.12.662,Bayesian,2022.1.1,None,
,,,,22,0,22,0,,,,,,,,,,,,,,,,,,,,,,,,"{'x': [[1000, 60], [1000, 40], [1500, 50], [1500, 30], [1500, 10], [2000, 30], [2000, 10], [3000, 30], [3000, 10], [3000, -10], [4000, 10], [4000, 30], [6000, 10], [6000, -10], [8000, 10], [8000, 20], [750, 50], [750, 30]], 'y': [[1], [-1], [1], [1], [-1], [1], [-1], [1], [1], [-1], [-1], [1], [1], [-1], [-1], [1], [1], [1]], 'audiogram': {}, 'is_init_phase': True, 'is_exam_finished': False, 'threshold_uncertainty_db': 6}",750,10,0.00012851978913844324,False,0.00169089999985772,None,None,0,,329.8997683,330.90537370000015,None,1,330.90537370000015,329.8997683,,,ikieoz,001,fr,200,2022-04-25_15h26.12.662,Bayesian,2022.1.1,None,
,,,,23,0,23,0,,,,,,,,,,,,,,,,,,,,,,,,"{'x': [[1000, 60], [1000, 40], [1500, 50], [1500, 30], [1500, 10], [2000, 30], [2000, 10], [3000, 30], [3000, 10], [3000, -10], [4000, 10], [4000, 30], [6000, 10], [6000, -10], [8000, 10], [8000, 20], [750, 50], [750, 30], [750, 10]], 'y': [[1], [-1], [1], [1], [-1], [1], [-1], [1], [1], [-1], [-1], [1], [1], [-1], [-1], [1], [1], [1], [-1]], 'audiogram': {}, 'is_init_phase': True, 'is_exam_finished': False, 'threshold_uncertainty_db': 6}",,,,True,0.0014134666664631368,None,None,0,,333.83472930000016,334.85206070000004,None,1,334.85206070000004,333.83472930000016,,,ikieoz,001,fr,200,2022-04-25_15h26.12.662,Bayesian,2022.1.1,None,
,,,,24,0,24,0,,,,,,,,,,,,,,,,,,,,,,,,"{'x': [[1000, 60], [1000, 40], [1500, 50], [1500, 30], [1500, 10], [2000, 30], [2000, 10], [3000, 30], [3000, 10], [3000, -10], [4000, 10], [4000, 30], [6000, 10], [6000, -10], [8000, 10], [8000, 20], [750, 50], [750, 30], [750, 10]], 'y': [[1], [-1], [1], [1], [-1], [1], [-1], [1], [1], [-1], [-1], [1], [1], [-1], [-1], [1], [1], [1], [-1]], 'audiogram': {}, 'is_init_phase': True, 'is_exam_finished': False, 'threshold_uncertainty_db': 6}",500,30,0.002259279721874612,False,0.010395300000027419,None,['space'],1,[0.6987898999998379],337.0977759,338.11957970000003,None,1,338.11957970000003,337.0977759,,,ikieoz,001,fr,200,2022-04-25_15h26.12.662,Bayesian,2022.1.1,None,
,,,,25,0,25,0,,,,,,,,,,,,,,,,,,,,,,,,"{'x': [[1000, 60], [1000, 40], [1500, 50], [1500, 30], [1500, 10], [2000, 30], [2000, 10], [3000, 30], [3000, 10], [3000, -10], [4000, 10], [4000, 30], [6000, 10], [6000, -10], [8000, 10], [8000, 20], [750, 50], [750, 30], [750, 10], [500, 30]], 'y': [[1], [-1], [1], [1], [-1], [1], [-1], [1], [1], [-1], [-1], [1], [1], [-1], [-1], [1], [1], [1], [-1], [1]], 'audiogram': {}, 'is_init_phase': True, 'is_exam_finished': False, 'threshold_uncertainty_db': 6}",500,10,0.0002259279721874612,False,0.006416500000113956,0.19818390000000363,None,0,,339.85687380000013,340.87238690000004,None,1,340.87238690000004,339.85687380000013,,,ikieoz,001,fr,200,2022-04-25_15h26.12.662,Bayesian,2022.1.1,None,
,,,,26,0,26,0,,,,,,,,,,,,,,,,,,,,,,,,"{'x': [[1000, 60], [1000, 40], [1500, 50], [1500, 30], [1500, 10], [2000, 30], [2000, 10], [3000, 30], [3000, 10], [3000, -10], [4000, 10], [4000, 30], [6000, 10], [6000, -10], [8000, 10], [8000, 20], [750, 50], [750, 30], [750, 10], [500, 30], [500, 10]], 'y': [[1], [-1], [1], [1], [-1], [1], [-1], [1], [1], [-1], [-1], [1], [1], [-1], [-1], [1], [1], [1], [-1], [1], [-1]], 'audiogram': {}, 'is_init_phase': True, 'is_exam_finished': False, 'threshold_uncertainty_db': 6}",250,30,0.005296268625886445,False,0.010531099999752769,None,['space'],1,[0.6052930000000742],343.78461949999996,344.7936413,None,1,344.7936413,343.78461949999996,,,ikieoz,001,fr,200,2022-04-25_15h26.12.662,Bayesian,2022.1.1,None,
,,,,27,0,27,0,,,,,,,,,,,,,,,,,,,,,,,,"{'x': [[1000, 60], [1000, 40], [1500, 50], [1500, 30], [1500, 10], [2000, 30], [2000, 10], [3000, 30], [3000, 10], [3000, -10], [4000, 10], [4000, 30], [6000, 10], [6000, -10], [8000, 10], [8000, 20], [750, 50], [750, 30], [750, 10], [500, 30], [500, 10], [250, 30]], 'y': [[1], [-1], [1], [1], [-1], [1], [-1], [1], [1], [-1], [-1], [1], [1], [-1], [-1], [1], [1], [1], [-1], [1], [-1], [1]], 'audiogram': {}, 'is_init_phase': True, 'is_exam_finished': False, 'threshold_uncertainty_db': 6}",250,10,0.0005296268625886444,False,0.009821599999668251,None,None,0,,347.51136710000014,348.52638790000015,None,1,348.52638790000015,347.51136710000014,,,ikieoz,001,fr,200,2022-04-25_15h26.12.662,Bayesian,2022.1.1,None,
,,,,28,0,28,0,,,,,,,,,,,,,,,,,,,,,,,,"{'x': [[1000, 60], [1000, 40], [1500, 50], [1500, 30], [1500, 10], [2000, 30], [2000, 10], [3000, 30], [3000, 10], [3000, -10], [4000, 10], [4000, 30], [6000, 10], [6000, -10], [8000, 10], [8000, 20], [750, 50], [750, 30], [750, 10], [500, 30], [500, 10], [250, 30], [250, 10]], 'y': [[1], [-1], [1], [1], [-1], [1], [-1], [1], [1], [-1], [-1], [1], [1], [-1], [-1], [1], [1], [1], [-1], [1], [-1], [1], [-1]], 'audiogram': {}, 'is_init_phase': True, 'is_exam_finished': False, 'threshold_uncertainty_db': 6}",,,,True,0.009961533333580519,None,None,0,,351.1346556000001,352.16511579999997,None,1,352.16511579999997,351.1346556000001,,,ikieoz,001,fr,200,2022-04-25_15h26.12.662,Bayesian,2022.1.1,None,
,,,,29,0,29,0,,,,,,,,,,,,,,,,,,,,,,,,"{'x': [[1000, 60], [1000, 40], [1500, 50], [1500, 30], [1500, 10], [2000, 30], [2000, 10], [3000, 30], [3000, 10], [3000, -10], [4000, 10], [4000, 30], [6000, 10], [6000, -10], [8000, 10], [8000, 20], [750, 50], [750, 30], [750, 10], [500, 30], [500, 10], [250, 30], [250, 10]], 'y': [[1], [-1], [1], [1], [-1], [1], [-1], [1], [1], [-1], [-1], [1], [1], [-1], [-1], [1], [1], [1], [-1], [1], [-1], [1], [-1]], 'audiogram': {}, 'is_init_phase': True, 'is_exam_finished': False, 'threshold_uncertainty_db': 6}",125,30,0.02285440948074376,False,0.003948300000047311,0.2002493999998478,['space'],1,[0.553598700000066],353.67592519999994,354.6962019,None,1,354.6962019,353.67592519999994,,,ikieoz,001,fr,200,2022-04-25_15h26.12.662,Bayesian,2022.1.1,None,
,,,,30,0,30,0,,,,,,,,,,,,,,,,,,,,,,,,"{'x': [[1000, 60], [1000, 40], [1500, 50], [1500, 30], [1500, 10], [2000, 30], [2000, 10], [3000, 30], [3000, 10], [3000, -10], [4000, 10], [4000, 30], [6000, 10], [6000, -10], [8000, 10], [8000, 20], [750, 50], [750, 30], [750, 10], [500, 30], [500, 10], [250, 30], [250, 10], [125, 30]], 'y': [[1], [-1], [1], [1], [-1], [1], [-1], [1], [1], [-1], [-1], [1], [1], [-1], [-1], [1], [1], [1], [-1], [1], [-1], [1], [-1], [1]], 'audiogram': {}, 'is_init_phase': True, 'is_exam_finished': False, 'threshold_uncertainty_db': 6}",125,10,0.002285440948074376,False,0.0045613999998295185,0.20407579999982772,None,0,,356.37632010000016,357.3888737,None,1,357.3888737,356.37632010000016,,,ikieoz,001,fr,200,2022-04-25_15h26.12.662,Bayesian,2022.1.1,None,
,,,,31,0,31,0,,,,,,,,,,,,,,,,,,,,,,,,"{'x': [[1000, 60], [1000, 40], [1500, 50], [1500, 30], [1500, 10], [2000, 30], [2000, 10], [3000, 30], [3000, 10], [3000, -10], [4000, 10], [4000, 30], [6000, 10], [6000, -10], [8000, 10], [8000, 20], [750, 50], [750, 30], [750, 10], [500, 30], [500, 10], [250, 30], [250, 10], [125, 30], [125, 10]], 'y': [[1], [-1], [1], [1], [-1], [1], [-1], [1], [1], [-1], [-1], [1], [1], [-1], [-1], [1], [1], [1], [-1], [1], [-1], [1], [-1], [1], [-1]], 'audiogram': {}, 'is_init_phase': True, 'is_exam_finished': False, 'threshold_uncertainty_db': 6}",176.7766952966369,19.0,0.003119565241000184,False,0.004211566666754152,None,['space'],1,[0.5745756999999685],361.01425930000005,362.0413188,None,1,362.0413188,361.01425930000005,,,ikieoz,001,fr,200,2022-04-25_15h26.12.662,Bayesian,2022.1.1,None,
,,,,32,0,32,0,,,,,,,,,,,,,,,,,,,,,,,,,353.5533905932738,21.0,0.0009942466977099574,False,0.0035686333330886555,0.1922910333330492,None,0,,365.9362923000001,366.94397149999986,None,1,366.94397149999986,365.9362923000001,,,ikieoz,001,fr,200,2022-04-25_15h26.12.662,Bayesian,2022.1.1,None,
,,,,33,0,33,0,,,,,,,,,,,,,,,,,,,,,,,,,,,,True,0.015969233333180455,None,None,0,,368.48502180000014,369.5031503,None,1,369.5031503,368.48502180000014,,,ikieoz,001,fr,200,2022-04-25_15h26.12.662,Bayesian,2022.1.1,None,
,,,,34,0,34,0,,,,,,,,,,,,,,,,,,,,,,,,,1071.7734625362941,35.0,0.002646070178467869,False,0.005234233333339944,0.19611343333326658,['space'],1,[0.5981217000000925],373.1343781999999,374.13828650000005,None,1,374.13828650000005,373.1343781999999,,,ikieoz,001,fr,200,2022-04-25_15h26.12.662,Bayesian,2022.1.1,None,
,,,,35,0,35,0,,,,,,,,,,,,,,,,,,,,,,,,,176.7766952966369,9.0,0.0009864931471052672,False,0.012445933333310677,None,None,0,,377.8238068999999,378.8469528999999,None,1,378.8469528999999,377.8238068999999,,,ikieoz,001,fr,200,2022-04-25_15h26.12.662,Bayesian,2022.1.1,None,
,,,,36,0,36,0,,,,,,,,,,,,,,,,,,,,,,,,,353.5533905932738,28.0,0.0022258410991150474,False,0.014407033333100117,None,None,0,,382.4906697000001,383.4942009000001,None,1,383.4942009000001,382.4906697000001,,,ikieoz,001,fr,200,2022-04-25_15h26.12.662,Bayesian,2022.1.1,None,
,,,,37,0,37,0,,,,,,,,,,,,,,,,,,,,,,,,,,,,True,0.015943633333336038,None,None,0,,385.2535305000001,386.2718014000002,None,1,386.2718014000002,385.2535305000001,,,ikieoz,001,fr,200,2022-04-25_15h26.12.662,Bayesian,2022.1.1,None,
,,,,38,0,38,0,,,,,,,,,,,,,,,,,,,,,,,,,1071.7734625362941,33.0,0.0021018482538189467,False,0.014221466666185734,None,['space'],1,[0.5207974999996168],389.59614439999996,390.59954240000025,None,1,390.59954240000025,389.59614439999996,,,ikieoz,001,fr,200,2022-04-25_15h26.12.662,Bayesian,2022.1.1,None,
,,,,39,0,39,0,,,,,,,,,,,,,,,,,,,,,,,,,4924.577653379667,10.0,0.00046661480265494947,False,0.012403700000049867,None,None,0,,394.4820992,395.4987731000001,None,1,395.4987731000001,394.4820992,,,ikieoz,001,fr,200,2022-04-25_15h26.12.662,Bayesian,2022.1.1,None,
,,,,40,0,40,0,,,,,,,,,,,,,,,,,,,,,,,,,125.0,18.0,0.005740768107484416,False,0.005969566666408355,0.20016056666645454,['space'],1,[0.6694022999997742],401.03131140000005,402.0434525999999,None,1,402.0434525999999,401.03131140000005,,,ikieoz,001,fr,200,2022-04-25_15h26.12.662,Bayesian,2022.1.1,None,
,,,,41,0,41,0,,,,,,,,,,,,,,,,,,,,,,,,,,,,True,0.012913133333313453,None,None,0,,404.80727690000003,405.8207327,None,1,405.8207327,404.80727690000003,,,ikieoz,001,fr,200,2022-04-25_15h26.12.662,Bayesian,2022.1.1,None,
,,,,42,0,42,0,,,,,,,,,,,,,,,,,,,,,,,,,615.5722066724584,17.0,0.0003781520069199875,False,0.015253566667070118,None,None,0,,409.93735730000026,410.9494402999999,None,1,410.9494402999999,409.93735730000026,,,ikieoz,001,fr,200,2022-04-25_15h26.12.662,Bayesian,2022.1.1,None,
,,,,43,0,43,0,,,,,,,,,,,,,,,,,,,,,,,,,2462.2888266898335,8.0,0.00021365971721055244,False,0.014986066666551778,None,None,0,,415.13533719999987,416.15253329999996,['space'],0,416.15253329999996,415.13533719999987,[0.23618379999993522],,ikieoz,001,fr,200,2022-04-25_15h26.12.662,Bayesian,2022.1.1,None,
,,,,44,0,44,0,,,,,,,,,,,,,,,,,,,,,,,,,287.17458874925893,29.0,0.0036103380212600222,False,0.011652566666725761,None,['space'],1,[0.6616888000000927],421.6315668000002,422.62826700000005,None,1,422.62826700000005,421.6315668000002,,,ikieoz,001,fr,200,2022-04-25_15h26.12.662,Bayesian,2022.1.1,None,
,,,,45,0,45,0,,,,,,,,,,,,,,,,,,,,,,,,,,,,True,0.01371243333323946,None,None,0,,424.3576029999999,425.37320020000016,None,1,425.37320020000016,424.3576029999999,,,ikieoz,001,fr,200,2022-04-25_15h26.12.662,Bayesian,2022.1.1,None,
,,,,46,0,46,0,,,,,,,,,,,,,,,,,,,,,,,,,435.2752816480623,29.0,0.0021067953760734114,False,0.008290533333365602,None,['space'],1,[0.5973222000000078],430.8481415000001,431.84577290000016,None,1,431.84577290000016,430.8481415000001,,,ikieoz,001,fr,200,2022-04-25_15h26.12.662,Bayesian,2022.1.1,None,
,,,,47,0,47,0,,,,,,,,,,,,,,,,,,,,,,,,,1515.7165665103996,21.0,0.0005568608891974556,False,0.014347966666719003,None,['space'],1,[0.5741468999997323],436.7582357000001,437.7748289000001,None,1,437.7748289000001,436.7582357000001,,,ikieoz,001,fr,200,2022-04-25_15h26.12.662,Bayesian,2022.1.1,None,
,,,,48,0,48,0,,,,,,,,,,,,,,,,,,,,,,,,,8000.0,11.0,0.000644124775846567,False,0.0033959999996113766,0.19245409999984986,None,0,,443.91693829999986,444.92944290000014,None,1,444.92944290000014,443.91693829999986,,,ikieoz,001,fr,200,2022-04-25_15h26.12.662,Bayesian,2022.1.1,None,
,,,,49,0,49,0,,,,,,,,,,,,,,,,,,,,,,,,,,,,True,0.015596833333347604,None,None,0,,447.2181958000001,448.22683730000017,None,1,448.22683730000017,447.2181958000001,,,ikieoz,001,fr,200,2022-04-25_15h26.12.662,Bayesian,2022.1.1,None,
,,,,50,0,50,0,,,,,,,,,,,,,,,,,,,,,,,,,812.2523963562351,30.0,0.0012243172279601026,False,0.008130700000037905,0.20098200000029465,['space'],1,[0.46080270000015844],454.0561825,455.0696705999999,None,1,455.0696705999999,454.0561825,,,ikieoz,001,fr,200,2022-04-25_15h26.12.662,Bayesian,2022.1.1,None,
,,,,51,0,51,0,,,,,,,,,,,,,,,,,,,,,,,,,217.63764082403114,15.0,0.0012983715067005196,False,0.004451799999969808,0.19184760000007373,None,0,,461.35238530000015,462.36617320000005,None,1,462.36617320000005,461.35238530000015,,,ikieoz,001,fr,200,2022-04-25_15h26.12.662,Bayesian,2022.1.1,None,
,,,,52,0,52,0,,,,,,,,,,,,,,,,,,,,,,,,,5656.85424949238,12.0,0.0005116620101677573,False,0.0033990666665886238,None,['space'],1,[0.7043725999999424],469.23702589999994,470.2448346000001,None,1,470.2448346000001,469.23702589999994,,,ikieoz,001,fr,200,2022-04-25_15h26.12.662,Bayesian,2022.1.1,None,
,,,,53,0,53,0,,,,,,,,,,,,,,,,,,,,,,,,,,,,True,0.013949533332834108,None,None,0,,471.4772355,472.48301249999986,None,1,472.48301249999986,471.4772355,,,ikieoz,001,fr,200,2022-04-25_15h26.12.662,Bayesian,2022.1.1,None,
,,,,54,0,54,0,,,,,,,,,,,,,,,,,,,,,,,,,3482.202253184498,12.0,0.0002979861068146753,False,0.010671199999706005,None,['space'],1,[0.6206839999997555],479.2722268000002,480.28237930000023,None,1,480.28237930000023,479.2722268000002,,,ikieoz,001,fr,200,2022-04-25_15h26.12.662,Bayesian,2022.1.1,None,
,,,,55,0,55,0,,,,,,,,,,,,,,,,,,,,,,,,,2143.5469250725882,15.0,0.00043859151861107374,False,0.014889400000356545,None,['space'],1,[0.6710138000000825],487.04531410000027,488.0533694999999,None,1,488.0533694999999,487.04531410000027,,,ikieoz,001,fr,200,2022-04-25_15h26.12.662,Bayesian,2022.1.1,None,
,,,,56,0,56,0,,,,,,,,,,,,,,,,,,,,,,,,,125.0,12.0,0.002877199686685786,False,0.004681499999605876,0.1966335999995863,None,0,,494.63140410000005,495.63729109999986,None,1,495.63729109999986,494.63140410000005,,,ikieoz,001,fr,200,2022-04-25_15h26.12.662,Bayesian,2022.1.1,None,
,,,,57,0,57,0,,,,,,,,,,,,,,,,,,,,,,,,,1231.1444133449168,24.0,0.000851413334521805,False,0.001884366667127324,None,['space'],1,[0.6650862999997571],501.9797377,502.9840856999999,None,1,502.9840856999999,501.9797377,,,ikieoz,001,fr,200,2022-04-25_15h26.12.662,Bayesian,2022.1.1,None,
,,,,58,0,58,0,,,,,,,,,,,,,,,,,,,,,,,,,,,,True,0.0024636333337184624,None,None,0,,505.8293689000002,506.8231315000003,None,1,506.8231315000003,505.8293689000002,,,ikieoz,001,fr,200,2022-04-25_15h26.12.662,Bayesian,2022.1.1,None,
,,,,59,0,59,0,,,,,,,,,,,,,,,,,,,,,,,,,1000.0,22.0,0.0005545874076312004,False,0.003362699999797769,0.1923530999997638,['space'],1,[0.7249687999999423],514.8151631000001,515.8345849000002,None,1,515.8345849000002,514.8151631000001,,,ikieoz,001,fr,200,2022-04-25_15h26.12.662,Bayesian,2022.1.1,None,
,,,,60,0,60,0,,,,,,,,,,,,,,,,,,,,,,,,,1000.0,15.0,0.000247725095402395,False,0.011764566666442988,None,['space'],1,[0.7506276999999955],523.2060213,524.2081048999999,None,1,524.2081048999999,523.2060213,,,ikieoz,001,fr,200,2022-04-25_15h26.12.662,Bayesian,2022.1.1,None,
,,,,61,0,61,0,,,,,,,,,,,,,,,,,,,,,,,,,1148.6983549970344,12.0,0.00020013670815014113,False,0.0003222000000278058,0.19083950000003824,['space'],1,[0.7112008999999944],528.7187539000001,529.7150725000001,None,1,529.7150725000001,528.7187539000001,,,ikieoz,001,fr,200,2022-04-25_15h26.12.662,Bayesian,2022.1.1,None,
,,,,62,0,62,0,,,,,,,,,,,,,,,,,,,,,,,,,,,,True,0.011846633333334466,None,None,0,,531.6737017,532.6824903000002,None,1,532.6824903000002,531.6737017,,,ikieoz,001,fr,200,2022-04-25_15h26.12.662,Bayesian,2022.1.1,None,
,,,,63,0,63,0,,,,,,,,,,,,,,,,,,,,,,,,,757.8582832551998,16.0,0.0002541762278232689,False,0.013585766666437848,0.21141626666667435,['space'],1,[0.8080320999999913],536.5885432,537.5962998999998,None,1,537.5962998999998,536.5885432,,,ikieoz,001,fr,200,2022-04-25_15h26.12.662,Bayesian,2022.1.1,None,
,,,,64,0,64,0,,,,,,,,,,,,,,,,,,,,,,,,,250.0,22.0,0.002108482517142911,False,0.016048500000124477,None,['space'],1,[0.796514100000195],540.9198953999999,541.9217487000001,None,1,541.9217487000001,540.9198953999999,,,ikieoz,001,fr,200,2022-04-25_15h26.12.662,Bayesian,2022.1.1,None,
,,,,65,0,65,0,,,,,,,,,,,,,,,,,,,,,,,,,353.5533905932738,27.0,0.001983782967722933,False,0.004544033333331754,None,['space'],1,[0.7723250999999891],546.2088231000002,547.2224615,None,1,547.2224615,546.2088231000002,,,ikieoz,001,fr,200,2022-04-25_15h26.12.662,Bayesian,2022.1.1,None,
,,,,66,0,66,0,,,,,,,,,,,,,,,,,,,,,,,,,1000.0,9.0,0.00012415665526477852,False,0.009238133333383303,None,None,0,,550.7915281,551.8039478999999,None,1,551.8039478999999,550.7915281,,,ikieoz,001,fr,200,2022-04-25_15h26.12.662,Bayesian,2022.1.1,None,
,,,,67,0,67,0,,,,,,,,,,,,,,,,,,,,,,,,,500.0,23.0,0.0010091831818407806,False,0.004999866666821617,None,['space'],1,[0.7074804999999742],557.0094069000002,558.0051152999999,None,1,558.0051152999999,557.0094069000002,,,ikieoz,001,fr,200,2022-04-25_15h26.12.662,Bayesian,2022.1.1,None,
,,,,68,0,68,0,,,,,,,,,,,,,,,,,,,,,,,,,1624.5047927124701,14.0,0.00028997193917412587,False,0.014948800000183837,None,['space'],1,[0.8264408000002277],562.4909394000001,563.4994323000001,None,1,563.4994323000001,562.4909394000001,,,ikieoz,001,fr,200,2022-04-25_15h26.12.662,Bayesian,2022.1.1,None,
,,,,69,0,69,0,,,,,,,,,,,,,,,,,,,,,,,,,164.93848884661182,15.0,0.0022107631519430867,False,0.005900866666706861,None,['space'],1,[0.759960899999669],568.1090874000001,569.1207770999999,None,1,569.1207770999999,568.1090874000001,,,ikieoz,001,fr,200,2022-04-25_15h26.12.662,Bayesian,2022.1.1,None,
,,,,70,0,70,0,,,,,,,,,,,,,,,,,,,,,,,,,8000.0,14.0,0.000909850429304992,False,0.01438093333354118,None,None,0,,573.1884501,574.188255,None,1,574.188255,573.1884501,,,ikieoz,001,fr,200,2022-04-25_15h26.12.662,Bayesian,2022.1.1,None,
,,,,71,0,71,0,,,,,,,,,,,,,,,,,,,,,,,,,,,,True,0.015095433333044639,None,None,0,,575.2894163000001,576.3162814000002,None,1,576.3162814000002,575.2894163000001,,,ikieoz,001,fr,200,2022-04-25_15h26.12.662,Bayesian,2022.1.1,None,
,,,,72,0,72,0,,,,,,,,,,,,,,,,,,,,,,,,,287.17458874925893,23.0,0.0018094553253346706,False,0.0004040999997414474,None,['space'],1,[0.6656639999998788],581.1951183000001,582.2225259000002,None,1,582.2225259000002,581.1951183000001,,,ikieoz,001,fr,200,2022-04-25_15h26.12.662,Bayesian,2022.1.1,None,
,,,,73,0,73,0,,,,,,,,,,,,,,,,,,,,,,,,,287.17458874925893,23.0,0.0018094553253346706,False,None,None,None,0,,None,None,None,1,None,None,,"{'estimation': [[125.0, 14.54640194650904], [133.9716828170366, 14.022505355605913], [134.4331535341073, 14.0], [143.5872943746293, 13.577230263869932], [153.89305166811442, 13.310635395283462], [164.93848884661162, 13.304277644406959], [176.77669529663666, 13.620948371777601], [183.73553007440518, 14.0], [189.46457081379947, 14.30014022602802], [198.59647482875909, 15.0], [203.0630990890585, 15.32939044129742], [210.25102873574883, 16.0], [217.6376408240306, 16.667073298204066], [220.9305137805497, 17.0], [230.7427407898409, 18.0], [233.25824788420132, 18.24342220532535], [240.68784870195498, 19.0], [249.99999999999937, 19.93472087272818], [250.70435398872965, 20.0], [261.2430542030486, 21.0], [267.94336563407256, 21.612229534922236], [272.8457229294466, 22.0], [285.54045498571116, 23.0], [287.1745887492579, 23.123019354804306], [302.12238517403273, 24.0], [307.78610333622805, 24.319445914765076], [327.2835586838441, 25.0], [329.87697769322244, 25.087801539139534], [353.55339059327247, 25.367258929177495], [378.929141627598, 25.1577337793156], [385.47683306834614, 25.0], [406.12619817811606, 24.520988351585586], [421.8391839893634, 24.0], [435.2752816480601, 23.568218909581837], [450.52390317405207, 23.0], [466.5164957684015, 22.42596580616531], [477.9053089288059, 22.0], [499.9999999999975, 21.206730159039786], [505.88617256844924, 21.0], [535.5142462622117, 20.0], [535.8867312681438, 19.988071448995573], [567.881918792211, 19.0], [574.3491774985143, 18.811445844059197], [603.4998274388147, 18.0], [615.5722066724546, 17.6801627476447], [642.3489551300771, 17.0], [659.7539553864432, 16.575394634166223], [684.2397887219453, 16.0], [707.1067811865431, 15.479916871836636], [729.1604124322023, 15.0], [757.8582832551941, 14.393573098672634], [777.7790067766081, 14.0], [812.2523963562301, 13.340815922505353], [832.1514440119054, 13.0], [870.5505632961181, 12.368777138069806], [897.5366978975509, 12.0], [933.0329915368008, 11.536976808502533], [989.8580597210731, 11.000000000000002], [999.9999999999926, 10.907295475076943], [1071.773462536285, 10.52712978726722], [1148.698354997026, 10.41519521995837], [1231.1444133449063, 10.557281121282692], [1319.5079107728832, 10.910019972301614], [1336.306891542592, 11.0], [1414.2135623730828, 11.397142828393129], [1515.7165665103864, 11.909766472467432], [1537.300336562049, 12.0], [1624.5047927124563, 12.346371216546501], [1741.1011265922318, 12.593949728891563], [1866.065983073597, 12.586210914394181], [1999.9999999999802, 12.297056651816593], [2077.0392652575315, 12.0], [2143.5469250725646, 11.751466951271459], [2297.396709994046, 11.053352851256424], [2309.086798616286, 11.0], [2462.2888266898062, 10.330229238830245], [2557.6696385718997, 10.0], [2639.015821545763, 9.727744022958504], [2828.427124746159, 9.379151084288148], [3031.4331330207615, 9.338393759349065], [3249.0095854249043, 9.585569304371509], [3467.5423156699976, 10.0], [3482.2022531844555, 10.027104710334983], [3732.1319661471844, 10.506253786942413], [3999.9999999999504, 10.867300937553054], [4271.381766713901, 11.0], [4287.093850145118, 11.00749574416219], [4307.602053177126, 11.0], [4594.793419988076, 10.900627338425904], [4924.577653379601, 10.63148241128642], [5278.031643091506, 10.360116024067331], [5656.854249492303, 10.274006716020569], [6062.866266041516, 10.536603519842188], [6347.217801997834, 11.0], [6498.019170849792, 11.240842932260975], [6811.818573440588, 12.0], [6964.404506368894, 12.357397470519942], [7189.878915892021, 13.0], [7464.2639322943505, 13.763395311110479], [7549.880062140528, 14.0], [7900.840494438771, 15.0], [7999.999999999882, 15.276796234049005]], 'plus_line': [[125.0, 11.659119301018764], [133.9716828170366, 11.243148068811252], [139.29677534045774, 11.0], [143.5872943746293, 10.792657399793583], [153.89305166811442, 10.489282294100727], [164.93848884661162, 10.468142271417136], [176.77669529663666, 10.798961646315863], [180.23011815069216, 11.0], [189.46457081379947, 11.488372527983469], [196.02209479311884, 12.0], [203.0630990890585, 12.530915364088637], [208.22714152011488, 13.0], [217.6376408240306, 13.87877943997641], [218.91248196605744, 14.0], [229.0322776401814, 15.0], [233.25824788420132, 15.419847959328393], [239.4226987218148, 16.0], [249.11562446360946, 17.0], [249.99999999999937, 17.085762642247847], [260.38872869435926, 18.0], [267.94336563407256, 18.706263019948878], [271.87087869271255, 19.0], [284.5991564971585, 20.0], [287.1745887492579, 20.19585172510903], [301.08476834332293, 21.0], [307.78610333622805, 21.382356639777395], [324.8288690840563, 22.0], [329.87697769322244, 22.171896830851505], [353.55339059327247, 22.450958028388712], [378.929141627598, 22.240864034160058], [388.9403164671825, 22.0], [406.12619817811606, 21.57856471568605], [423.4038162884415, 21.0], [435.2752816480601, 20.611242365256462], [451.6212693602509, 20.0], [466.5164957684015, 19.473382031343007], [479.3352686161553, 19.0], [499.9999999999975, 18.287818600962744], [508.42804316694475, 18.0], [535.8867312681438, 17.12468611283563], [539.9332920652171, 17.0], [574.3491774985143, 16.00425646216319], [574.5015827267973, 16.0], [611.6596950877242, 15.0], [615.5722066724546, 14.901710519508997], [651.57881072181, 14.0], [659.7539553864432, 13.80733382940897], [693.9040650810422, 13.0], [707.1067811865431, 12.704277948286094], [739.0093446669429, 12.0], [757.8582832551941, 11.603331520361074], [788.2887274646741, 11.0], [812.2523963562301, 10.543955993406769], [844.7980441698102, 10.0], [870.5505632961181, 9.582291660214624], [915.8004566137078, 9.0], [933.0329915368008, 8.779190275412933], [999.9999999999914, 8.174938006045249], [1033.0531511864792, 8.0], [1071.773462536285, 7.7817346129350415], [1148.6983549970273, 7.63727135305407], [1231.1444133449063, 7.754652842338898], [1289.5263400476945, 8.0], [1319.5079107728832, 8.11102447800054], [1414.2135623730828, 8.60299434790207], [1483.1732845134177, 9.0], [1515.7165665103846, 9.167670780404913], [1624.5047927124563, 9.623790937759013], [1741.1011265922318, 9.901044552645375], [1866.065983073597, 9.890692170251244], [1999.9999999999802, 9.576101335691861], [2143.5469250725646, 9.035178926113996], [2150.940747679924, 9.0], [2297.396709994046, 8.303014954846153], [2364.7795016644213, 8.0], [2462.2888266898062, 7.556499579649321], [2629.7627272389395, 7.0], [2639.01582154576, 6.9677050922935475], [2828.427124746159, 6.6094075035006945], [3031.4331330207615, 6.59361088642554], [3249.0095854249043, 6.883070740661628], [3303.084421253709, 7.000000000000001], [3482.2022531844555, 7.336362275117908], [3732.1319661471844, 7.820893411006399], [3854.8525853939104, 8.0], [3999.9999999999504, 8.184864466858935], [4287.093850145118, 8.32381968483626], [4594.793419988081, 8.246657882615489], [4924.577653379601, 8.02227175826325], [4955.296086125143, 8.0], [5278.031643091506, 7.750154128272243], [5656.854249492303, 7.6466883203190825], [6062.866266041501, 7.886688903031717], [6131.545574440868, 8.0], [6498.019170849792, 8.55111074394231], [6683.062396532347, 9.0], [6964.404506368894, 9.670005702333217], [7083.5825981966045, 10.0], [7431.32427486169, 11.0], [7464.2639322943505, 11.089625287113723], [7817.12556957292, 12.0], [7999.999999999882, 12.48990040074338]], 'minus_line': [[125.0, 17.52150717142394], [131.71207648253997, 17.0], [133.9716828170366, 16.84611306909947], [143.5872943746293, 16.386955191884788], [153.89305166811442, 16.12025521576264], [164.93848884661162, 16.12047715464923], [176.77669529663666, 16.44177989771687], [187.69012497786886, 17.0], [189.46457081379947, 17.09316454290116], [201.43710081717683, 18.0], [203.0630990890585, 18.118342894489007], [212.17620018553487, 19.0], [217.6376408240306, 19.480581503265732], [222.46493769425444, 20.0], [232.4553538988799, 21.0], [233.25824788420132, 21.074829901421374], [241.55453316199538, 22.0], [249.99999999999937, 22.82321432334563], [251.7873492054856, 23.0], [261.61743640194663, 24.0], [267.94336563407256, 24.56245314253063], [273.1788723320259, 25.0], [285.8743285940378, 26.0], [287.1745887492579, 26.09575291215869], [302.2584554213559, 27.0], [307.78610333622805, 27.308891686836034], [328.355082521065, 28.0], [329.87697769322244, 28.05157909657561], [353.55339059327247, 28.329441418087413], [378.929141627598, 28.107115755019134], [383.2667489008979, 28.0], [406.12619817811606, 27.489618754176472], [420.8490640931521, 27.0], [435.2752816480601, 26.540363236747147], [449.7574706512406, 26.0], [466.5164957684015, 25.384837499424727], [476.73976955708474, 25.0], [499.9999999999975, 24.12360495054492], [503.478666736785, 24.0], [531.7875205386426, 23.0], [535.8867312681438, 22.861401862087167], [563.1524264108504, 22.0], [574.3491774985143, 21.65465377101864], [597.5150536616915, 21.0], [615.5722066724546, 20.499693468870383], [635.210951169471, 20.0], [659.7539553864432, 19.385983054235364], [676.3507908606932, 19.0], [707.1067811865431, 18.295311836572903], [720.8389281049456, 18.0], [757.8582832551941, 17.216764156326853], [768.7995770984065, 17.0], [812.2523963562301, 16.16059869367164], [821.3336913288781, 16.0], [870.5505632961181, 15.16823927313152], [882.0429560432467, 15.0], [933.0329915368008, 14.30825958665751], [962.5748972406659, 14.0], [999.9999999999926, 13.647589281183421], [1071.773462536285, 13.263617602889502], [1148.698354997026, 13.16915784085293], [1231.1444133449063, 13.34928126864462], [1319.5079107728832, 13.711686375284774], [1378.0606852892986, 14.0], [1414.2135623730828, 14.186995769890817], [1515.7165665103828, 14.679337060070832], [1602.752898481168, 15.0], [1624.5047927124563, 15.085577336229418], [1741.1011265922318, 15.3433806411412], [1866.065983073597, 15.343914514279165], [1999.9999999999802, 15.048918481872084], [2012.124278719889, 15.0], [2143.5469250725646, 14.531553542813699], [2257.21828862791, 14.0], [2297.396709994046, 13.82555376950109], [2462.2888266898062, 13.101171913095873], [2489.478682126959, 13.0], [2639.01582154576, 12.503954950406394], [2828.427124746159, 12.122979223701861], [3031.4331330207615, 12.049252495211615], [3249.0095854249043, 12.290914935030504], [3482.2022531844555, 12.721880836338244], [3625.9968948547007, 13.0], [3732.1319661471844, 13.217517377612726], [3999.9999999999504, 13.60030332949767], [4287.093850145118, 13.733300226806845], [4594.7934199880865, 13.602176687248676], [4924.577653379601, 13.284030176282293], [5222.830367987341, 13.0], [5278.031643091506, 12.95473772439026], [5656.854249492303, 12.868600130755237], [5843.791491108906, 13.0], [6062.866266041508, 13.167694281620623], [6498.019170849792, 13.893984814219108], [6540.346115598089, 14.0], [6950.377420678717, 15.0], [6964.404506368894, 15.033012150042852], [7280.748438864142, 16.0], [7464.2639322943505, 16.507068778854475], [7621.116428624001, 17.0], [7944.687970424466, 18.0], [7999.999999999882, 18.161189189942746]]}",ikieoz,001,fr,200,2022-04-25_15h26.12.662,Bayesian,2022.1.1,None,
