tTrials.thisRepN,tTrials.thisTrialN,tTrials.thisN,tTrials.thisIndex,blocks.thisRepN,blocks.thisTrialN,blocks.thisN,blocks.thisIndex,trials.thisRepN,trials.thisTrialN,trials.thisN,trials.thisIndex,tStart_text.started,tStart_text.stopped,Prediction,practice_Frequency,practice_Level,practice_Psychopy_Level,practice_isCatchTrial,Practice_trial_detection,practice_Cue_Delays,practice_Cue_Frequencies,practice_Interval,practice_Cue_Intensities,tCue_visual_cue.started,tCue_visual_cue.stopped,tProbe_visual_cue.started,tProbe_visual_cue.stopped,tFeedback.keys,tFeedback.corr,tFeedback.rt,tFeedback.started,tFeedback.stopped,tToo_late.keys,tToo_late.corr,tToo_early.keys,tToo_early.corr,more_instructions.started,more_instructions.stopped,readyy.keys,readyy.rt,readyy.started,readyy.stopped,txt_rhythm.started,txt_rhythm.stopped,sound_1.started,sound_1.stopped,sound_2.started,sound_2.stopped,sound_3.started,sound_3.stopped,sound_4.started,sound_4.stopped,cross.started,cross.stopped,sound_5.started,sound_5.stopped,circle.started,circle.stopped,rhythm_ready.keys,rhythm_ready.rt,rhythm_ready.started,rhythm_ready.stopped,rhytm_ready_txt.started,rhytm_ready_txt.stopped,txt_freq.started,txt_freq.stopped,sound_6.started,sound_6.stopped,sound_7.started,sound_7.stopped,sound_8.started,sound_8.stopped,sound_9.started,sound_9.stopped,cross_2.started,cross_2.stopped,sound_10.started,sound_10.stopped,circle_2.started,circle_2.stopped,freq_ready.keys,freq_ready.rt,freq_ready.started,freq_ready.stopped,freq_ready_txt.started,freq_ready_txt.stopped,txt_freq_2.started,txt_freq_2.stopped,sound_11.started,sound_11.stopped,sound_12.started,sound_12.stopped,sound_13.started,sound_13.stopped,sound_14.started,sound_14.stopped,cross_3.started,cross_3.stopped,sound_15.started,sound_15.stopped,circle_3.started,circle_3.stopped,freq_ready_2.keys,freq_ready_2.rt,freq_ready_2.started,freq_ready_2.stopped,freq_ready_txt_2.started,freq_ready_txt_2.stopped,txt_freq_3.started,txt_freq_3.stopped,sound_16.started,sound_16.stopped,sound_17.started,sound_17.stopped,sound_18.started,sound_18.stopped,sound_19.started,sound_19.stopped,cross_4.started,cross_4.stopped,sound_20.started,sound_20.stopped,circle_4.started,circle_4.stopped,freq_ready_txt_3.started,freq_ready_txt_3.stopped,tStart_text_2.started,tStart_text_2.stopped,this_trial_is.started,this_trial_is.stopped,Frequency,Level,Psychopy_Level,Real trial detection,Cue Delays,Cue Frequencies,Interval,Cue Intensities,Catch trial,cue_visual_cue.started,cue_visual_cue.stopped,probe_visual_cue.started,probe_visual_cue.stopped,feedback.keys,feedback.corr,feedback.rt,feedback.started,feedback.stopped,answer_too_late.keys,answer_too_late.corr,answer_too_early.keys,answer_too_early.corr,Catch trial answer,Audiogram_none,Audiogram_frequency,Audiogram_both,Audiogram_time,goodbye_text.started,goodbye_text.stopped,key_resp.keys,key_resp.rt,key_resp.started,key_resp.stopped,participant,session,Language (english or french),Skip training? (1 for yes),Resume previous experiment,date,expName,psychopyVersion,frameRate,
0,0,0,0,,,,,,,,,17.11483820003923,None,both,1000,30,0.0013930605843148849,False,1,"[0.43960883771270404, 0.43960883771270404, 0.43960883771270404, 0.43960883771270404]","[2519.8420997897465, 2000.0000000000002, 1587.4010519681997, 1259.9210498948732]",Major_3rd,"[30, 30, 30, 30]",39.8092380000744,42.06937929999549,42.06937929999549,43.272634500055574,['space'],1,[0.8429512000875548],42.06937929999549,43.73516800010111,None,1,None,1,,,,,,,,,,,,,,,,,,,,,,,,,,,,,,,,,,,,,,,,,,,,,,,,,,,,,,,,,,,,,,,,,,,,,,,,,,,,,,,,,,,,,,,,,,,,,,,,,,,,,,,,,,,,,,,,,,,,,,,,,,,,,,,,wfoooa,001,fr,0,0,2022-05-04_11h35.25.053,Cluster,2022.1.1,35.60301357442,
1,0,1,0,,,,,,,,,,,both,2500,30,0.002716251657462167,False,1,"[0.7593033960212205, 0.7593033960212205, 0.7593033960212205, 0.7593033960212205]","[3968.502629920499, 3535.533905932738, 3149.802624737183, 2806.1551207734324]",Tone,"[30, 30, 30, 30]",51.50294480007142,54.71909550006967,54.71909550006967,55.937061300035566,['space'],1,[1.2482126000104472],54.71909550006967,56.68684870004654,None,1,None,1,,,,,,,,,,,,,,,,,,,,,,,,,,,,,,,,,,,,,,,,,,,,,,,,,,,,,,,,,,,,,,,,,,,,,,,,,,,,,,,,,,,,,,,,,,,,,,,,,,,,,,,,,,,,,,,,,,,,,,,,,,,,,,,,wfoooa,001,fr,0,0,2022-05-04_11h35.25.053,Cluster,2022.1.1,35.60301357442,
2,0,2,0,,,,,,,,,,,none,6000,30,0.003664122665694519,True,1,"[0.7089942371346377, 0.44636047255359323, 0.5674608649636323, 0.43140344384862195]","[293.81684108500474, 542.2592830785444, 2145.8429223118524, 829.0758669880067]",None,"[30, 30, 30, 30]",59.33780670003034,61.9850089000538,61.9850089000538,63.18764110002667,None,1,,61.9850089000538,63.63973980001174,None,1,None,1,,,,,,,,,,,,,,,,,,,,,,,,,,,,,,,,,,,,,,,,,,,,,,,,,,,,,,,,,,,,,,,,,,,,,,,,,,,,,,,,,,,,,,,,,,,,,,,,,,,,,,,,,,,,,,,,,,,,,,,,,,,,,,,,wfoooa,001,fr,0,0,2022-05-04_11h35.25.053,Cluster,2022.1.1,35.60301357442,
3,0,3,0,,,,,,,,,,,time,440,30,0.0023562289915021436,False,1,"[0.6674341323302128, 0.6674341323302128, 0.6674341323302128, 0.6674341323302128]","[288.40371985557385, 7277.910673144973, 7191.007893579843, 1004.7123123588216]",None,"[30, 30, 30, 30]",67.89551140007097,70.83100700005889,70.83100700005889,72.06503510009497,['space'],1,[1.2800187999382615],70.83100700005889,72.73167380003724,None,1,None,1,,,,,,,,,,,,,,,,,,,,,,,,,,,,,,,,,,,,,,,,,,,,,,,,,,,,,,,,,,,,,,,,,,,,,,,,,,,,,,,,,,,,,,,,,,,,,,,,,,,,,,,,,,,,,,,,,,,,,,,,,,,,,,,,wfoooa,001,fr,0,0,2022-05-04_11h35.25.053,Cluster,2022.1.1,35.60301357442,
4,0,4,0,,,,,,,,,,,time,250,30,0.005296268625886445,True,1,"[0.5682324761228468, 0.5682324761228468, 0.5682324761228468, 0.5682324761228468]","[455.14988185203146, 396.1442548338012, 182.02853548811132, 1446.492771646612]",None,"[30, 30, 30, 30]",76.69386760005727,79.3422406000318,79.3422406000318,80.57560670003295,None,1,,79.3422406000318,81.1195554001024,None,1,None,1,,,,,,,,,,,,,,,,,,,,,,,,,,,,,,,,,,,,,,,,,,,,,,,,,,,,,,,,,,,,,,,,,,,,,,,,,,,,,,,,,,,,,,,,,,,,,,,,,,,,,,,,,,,,,,,,,,,,,,,,,,,,,,,,wfoooa,001,fr,0,0,2022-05-04_11h35.25.053,Cluster,2022.1.1,35.60301357442,
,,,,,,,,,,,,,,,,,,,,,,,,,,,,,,,,,,,,,83.86191980005242,None,space,21.16187870001886,83.86191980005242,None,,,,,,,,,,,,,,,,,,,,,,,,,,,,,,,,,,,,,,,,,,,,,,,,,,,,,,,,,,,,,,,,,,,,,,,,,,,,,,,,,,,,,,,,,,,,,,,,,,,,,,,,,,,,,,,,,,,,,,,,,,wfoooa,001,fr,0,0,2022-05-04_11h35.25.053,Cluster,2022.1.1,35.60301357442,
,,,,,,,,,,,,,,,,,,,,,,,,,,,,,,,,,,,,,,,,,,,105.08210100000724,106.1074734000722,106.54387430001516,106.76137640001252,107.02862500008196,107.24958960001823,107.55159299999941,None,108.04629940008745,None,106.4574279000517,108.22730710008182,108.52701280002948,108.74991220002994,108.22730710008182,109.04442640009802,space,2.681184299988672,109.2554801000515,None,,,,,,,,,,,,,,,,,,,,,,,,,,,,,,,,,,,,,,,,,,,,,,,,,,,,,,,,,,,,,,,,,,,,,,,,,,,,,,,,,,,,,,,,,,,,,,,,,,,,,,wfoooa,001,fr,0,0,2022-05-04_11h35.25.053,Cluster,2022.1.1,35.60301357442,
,,,,,,,,,,,,,,,,,,,,,,,,,,,,,,,,,,,,,,,,,,,,,,,,,,,,,,,,,,,,,,,109.2554801000515,None,111.98137350007892,113.00693610007875,113.44830990005285,113.66936380008701,113.75258680006955,None,114.44415300006513,None,114.84223810005933,115.05756660003681,113.33170360000804,115.15111820003949,115.44592190003023,None,115.15111820003949,115.96050490008201,space,1.3508965000510216,116.1363990000682,None,,,,,,,,,,,,,,,,,,,,,,,,,,,,,,,,,,,,,,,,,,,,,,,,,,,,,,,,,,,,,,,,,,,,,,,,,,,,,,,,wfoooa,001,fr,0,0,2022-05-04_11h35.25.053,Cluster,2022.1.1,35.60301357442,
,,,,,,,,,,,,,,,,,,,,,,,,,,,,,,,,,,,,,,,,,,,,,,,,,,,,,,,,,,,,,,,,,,,,,,,,,,,,,,,,,,,,,116.1363990000682,None,117.52715580002405,118.54924000008032,118.99547780007124,119.21624640002847,119.51393010006286,119.72314330004156,119.9952637000708,120.22360590007156,120.51691759999376,120.7393291000044,118.90851590002421,120.6993466001004,121.00968020006549,121.22897040005773,120.6993466001004,121.52744330000132,space,1.303546700044535,121.70444750005845,None,,,,,,,,,,,,,,,,,,,,,,,,,,,,,,,,,,,,,,,,,,,,,,,,,,,,,,,,,,wfoooa,001,fr,0,0,2022-05-04_11h35.25.053,Cluster,2022.1.1,35.60301357442,
,,,,0,0,0,0,0,0,0,0,,,time,,,,,,,,,,,,,,,,,,,,,,,,,,,,,,,,,,,,,,,,,,,,,,,,,,,,,,,,,,,,,,,,,,,,,,,,,,,,,,,,,,,,,,,,,,,,,121.70444750005845,None,123.05838580010459,124.07242620002944,124.50867709999439,124.7331854000222,124.81962670006324,125.03624570008833,125.50827350006439,125.73266290000174,125.9096237000078,126.12921560008544,124.42217550007626,126.21754680003505,126.5137727000285,None,126.21754680003505,127.03031790000387,127.23938680009451,None,128.25761030009016,None,140.10351830010768,None,6297.2542901351135,-2.0,0.00010316622298634152,1,"[0.7236405737023675, 0.7236405737023675, 0.7236405737023675, 0.7236405737023675]","[2756.651217454438, 3144.779683021538, 185.1360029047074, 1813.9577607649421]",None,"[5.0, 3.1903858144161164, 7.491982065261169, 9.283066987268136]",False,141.07255140005145,144.28960340004414,144.28960340004414,145.50446080008987,['space'],1,[0.4024487000424415],3.9041786999441683,4.9204921999480575,None,1,None,1,,,,,,,,,,,,wfoooa,001,fr,0,0,2022-05-04_11h35.25.053,Cluster,2022.1.1,35.60301357442,
,,,,0,0,0,0,1,0,1,0,,,frequency,,,,,,,,,,,,,,,,,,,,,,,,,,,,,,,,,,,,,,,,,,,,,,,,,,,,,,,,,,,,,,,,,,,,,,,,,,,,,,,,,,,,,,,,,,,,,,,,,,,,,,,,,,,,,,,,,,,146.04061560006812,None,622.716450093121,3.0,7.38769652421521e-05,0,"[0.4408177969887691, 0.740877925622578, 0.6611896420940849, 0.7393745098224344]","[392.2867817940667, 440.3270246172602, 494.25037397786156, 554.7772871528641]",Tone,"[12.230458358877735, 11.89399418222198, 11.0, 10.0]",False,147.0456502001034,149.9150532000931,149.9150532000931,151.14181870000903,None,0,,3.603656299877912,4.626942999893799,None,1,None,1,,,,,,,,,,,,wfoooa,001,fr,0,0,2022-05-04_11h35.25.053,Cluster,2022.1.1,35.60301357442,
,,,,0,0,0,0,2,0,2,0,,,both,,,,,,,,,,,,,,,,,,,,,,,,,,,,,,,,,,,,,,,,,,,,,,,,,,,,,,,,,,,,,,,,,,,,,,,,,,,,,,,,,,,,,,,,,,,,,,,,,,,,,,,,,,,,,,,,,,,151.71507940010633,None,4985.7574400324,-1.7831828528391078,0.00012359917900709485,1,"[0.5751608949408782, 0.5751608949408782, 0.5751608949408782, 0.5751608949408782]","[1978.5991512914277, 2492.8787200162005, 3140.830374183399, 3957.198302582855]",Major_3rd,"[8.816716895979171, 6.520129077200691, 3.1903858144161164, 3.0]",False,152.7114425000036,155.44730120000895,155.44730120000895,156.6597529000137,['space'],1,[0.3531625000759959],3.308373799896799,4.3449926999164745,None,1,None,1,,,,,,,,,,,,wfoooa,001,fr,0,0,2022-05-04_11h35.25.053,Cluster,2022.1.1,35.60301357442,
,,,,0,0,0,0,3,0,3,0,,,time,,,,,,,,,,,,,,,,,,,,,,,,,,,,,,,,,,,,,,,,,,,,,,,,,,,,,,,,,,,,,,,,,,,,,,,,,,,,,,,,,,,,,,,,,,,,,,,,,,,,,,,,,,,,,,,,,,,157.10204470006283,None,353.5533905932738,0.0,8.861233020703779e-05,0,"[0.45699697386478527, 0.45699697386478527, 0.45699697386478527, 0.45699697386478527]","[7372.010659307257, 1743.4455240962563, 347.8907037907611, 194.36978047193867]",None,"[2.4622137000562287, 9.584130305229188, 12.0, 7.491982065261169]",False,158.13379400002304,160.5313407999929,160.5313407999929,161.7325691001024,None,0,,2.850703899981454,3.865955299930647,None,1,None,1,,,,,,,,,,,,wfoooa,001,fr,0,0,2022-05-04_11h35.25.053,Cluster,2022.1.1,35.60301357442,
,,,,0,0,0,0,4,0,4,0,,,frequency,,,,,,,,,,,,,,,,,,,,,,,,,,,,,,,,,,,,,,,,,,,,,,,,,,,,,,,,,,,,,,,,,,,,,,,,,,,,,,,,,,,,,,,,,,,,,,,,,,,,,,,,,,,,,,,,,,,162.03046020003967,None,,,,,"[0.5897793666024006, 0.45864479650193984, 0.4383562583397158, 0.6097059077466702]","[1201.5971591427833, 801.9698883406402, 535.2506844006895, 357.23697275491367]",Perfect_5th,"[9.308165133595097, 7.791855928430435, 10.26260093989387, 12.090682069181113]",True,163.03709660004824,165.54575560009107,165.54575560009107,166.7425764000509,None,1,,3.124580099945888,4.147881599841639,None,1,None,1,0,,,,,,,,,,,wfoooa,001,fr,0,0,2022-05-04_11h35.25.053,Cluster,2022.1.1,35.60301357442,
,,,,0,0,0,0,5,0,5,0,,,frequency,,,,,,,,,,,,,,,,,,,,,,,,,,,,,,,,,,,,,,,,,,,,,,,,,,,,,,,,,,,,,,,,,,,,,,,,,,,,,,,,,,,,,,,,,,,,,,,,,,,,,,,,,,,,,,,,,,,167.22402870003134,None,176.7766952966369,1.0,0.00039272999556449274,1,"[0.6713727126947875, 0.5677369915677251, 0.4166681214289135, 0.49183894619654533]","[890.8987181403394, 594.6035575013606, 396.8502629920499, 264.86577358982385]",Perfect_5th,"[7.856919128777964, 9.60681891020138, 12.165032505410917, 10.0]",False,168.2452739001019,170.93729450006504,170.93729450006504,172.1470412000781,['space'],1,[0.48830039997119457],3.174172400031239,4.208579699974507,None,1,None,1,,,,,,,,,,,,wfoooa,001,fr,0,0,2022-05-04_11h35.25.053,Cluster,2022.1.1,35.60301357442,
,,,,0,0,0,0,6,0,6,0,,,both,,,,,,,,,,,,,,,,,,,,,,,,,,,,,,,,,,,,,,,,,,,,,,,,,,,,,,,,,,,,,,,,,,,,,,,,,,,,,,,,,,,,,,,,,,,,,,,,,,,,,,,,,,,,,,,,,,,172.4877967000939,None,176.7766952966369,0.0,0.0003500209769801159,1,"[0.5791979893343202, 0.5791979893343202, 0.5791979893343202, 0.5791979893343202]","[445.44935907016975, 353.55339059327383, 280.6155120773433, 222.72467953508485]",Major_3rd,"[11.89399418222198, 12.090682069181113, 10.694876538956837, 8.205214547732592]",False,173.49265910009854,176.2462146000471,176.2462146000471,177.45425520010758,['space'],1,[0.5162892000516877],3.353743699961342,4.354835900012404,None,1,None,1,,,,,,,,,,,,wfoooa,001,fr,0,0,2022-05-04_11h35.25.053,Cluster,2022.1.1,35.60301357442,
,,,,0,0,0,0,7,0,7,0,,,frequency,,,,,,,,,,,,,,,,,,,,,,,,,,,,,,,,,,,,,,,,,,,,,,,,,,,,,,,,,,,,,,,,,,,,,,,,,,,,,,,,,,,,,,,,,,,,,,,,,,,,,,,,,,,,,,,,,,,177.87695130007342,None,353.6389749666213,6.090682069181113,0.0001786155860609344,1,"[0.5161488253294901, 0.7930262099086518, 0.6428501521015139, 0.5547281774159256]","[1782.228754494769, 1189.4949853737196, 793.8926564061215, 529.8597788519043]",Perfect_5th,"[9.584130305229188, 9.0, 7.791855928430435, 10.26260093989387]",False,178.8819310000399,181.85566840006504,181.85566840006504,183.05715590005275,['space'],1,[0.41200200002640486],3.5104172999272123,4.5157462998759,None,1,None,1,,,,,,,,,,,,wfoooa,001,fr,0,0,2022-05-04_11h35.25.053,Cluster,2022.1.1,35.60301357442,
,,,,0,0,0,0,8,0,8,0,,,frequency,,,,,,,,,,,,,,,,,,,,,,,,,,,,,,,,,,,,,,,,,,,,,,,,,,,,,,,,,,,,,,,,,,,,,,,,,,,,,,,,,,,,,,,,,,,,,,,,,,,,,,,,,,,,,,,,,,,183.45298460009508,None,2462.2888266898335,0.0,8.505946547995337e-05,1,"[0.7519388401535516, 0.724423596574888, 0.5663817421472807, 0.4097493659848357]","[977.1599684342466, 1231.144413344917, 1551.1447618337354, 1954.3199368684927]",Major_3rd,"[8.328435085231524, 9.308165133595097, 9.790007724829989, 9.0]",False,185.0563157000579,188.1315225000726,188.1315225000726,189.33385650010314,['space'],1,[0.3507143999449909],3.4762525998521596,4.519499099813402,None,1,None,1,,,,,,,,,,,,wfoooa,001,fr,0,0,2022-05-04_11h35.25.053,Cluster,2022.1.1,35.60301357442,
,,,,0,0,0,0,9,0,9,0,,,time,,,,,,,,,,,,,,,,,,,,,,,,,,,,,,,,,,,,,,,,,,,,,,,,,,,,,,,,,,,,,,,,,,,,,,,,,,,,,,,,,,,,,,,,,,,,,,,,,,,,,,,,,,,,,,,,,,,189.60609730007127,None,814.6086693152408,1.7918559284304352,4.7669141444608014e-05,0,"[0.5939145858305652, 0.5939145858305652, 0.5939145858305652, 0.5939145858305652]","[4594.23072145925, 6058.6714656257855, 203.23278112927125, 403.01189784338544]",None,"[3.8289179146613765, 4.126618864009792, 7.766580179906163, 12.165032505410917]",False,190.60777420003433,193.40590060001705,193.40590060001705,194.63570210000034,None,0,,3.3954626998165622,4.426560199819505,None,1,None,1,,,,,,,,,,,,wfoooa,001,fr,0,0,2022-05-04_11h35.25.053,Cluster,2022.1.1,35.60301357442,
,,,,0,0,0,0,10,0,10,0,,,none,,,,,,,,,,,,,,,,,,,,,,,,,,,,,,,,,,,,,,,,,,,,,,,,,,,,,,,,,,,,,,,,,,,,,,,,,,,,,,,,,,,,,,,,,,,,,,,,,,,,,,,,,,,,,,,,,,,195.08362650009803,None,1149.4874921567382,2.9933652633964245,7.100355088886016e-05,1,"[0.6165251943369037, 0.676023877879792, 0.5435243397890841, 0.7673299783798454]","[158.65976500386608, 3781.4556705034493, 3092.8743893494525, 702.5314930360047]",None,"[7.643464056059555, 2.794586337472524, 3.79279876921605, 8.114754943661183]",False,196.10332190000918,198.95908860000782,198.95908860000782,200.1802104000235,['space'],1,[0.4080559000140056],3.620689500006847,4.64020729996264,None,1,None,1,,,,,,,,,,,,wfoooa,001,fr,0,0,2022-05-04_11h35.25.053,Cluster,2022.1.1,35.60301357442,
,,,,0,0,0,0,11,0,11,0,,,none,,,,,,,,,,,,,,,,,,,,,,,,,,,,,,,,,,,,,,,,,,,,,,,,,,,,,,,,,,,,,,,,,,,,,,,,,,,,,,,,,,,,,,,,,,,,,,,,,,,,,,,,,,,,,,,,,,,200.78831210010685,None,176.7766952966369,0.0,0.0003500209769801159,0,"[0.5892532198968232, 0.7905897987398052, 0.6570126405645842, 0.6056542559680741]","[1442.8539804973068, 686.9288710559474, 2921.1137228446005, 209.4687900554183]",None,"[9.720261633119645, 8.114754943661183, 4.0, 8.0]",False,202.31300560000818,205.3871004000539,205.3871004000539,206.583354900009,None,0,,3.67658849991858,4.700695499894209,None,1,None,1,,,,,,,,,,,,wfoooa,001,fr,0,0,2022-05-04_11h35.25.053,Cluster,2022.1.1,35.60301357442,
,,,,0,0,0,0,12,0,12,0,,,frequency,,,,,,,,,,,,,,,,,,,,,,,,,,,,,,,,,,,,,,,,,,,,,,,,,,,,,,,,,,,,,,,,,,,,,,,,,,,,,,,,,,,,,,,,,,,,,,,,,,,,,,,,,,,,,,,,,,,207.03759070008527,None,1962.0363585250818,3.0,0.00010325311362170037,1,"[0.7490631425839858, 0.5454096136246636, 0.7361267916585024, 0.43792441491016365]","[4944.0218175296695, 3924.0727170501636, 3114.53857952257, 2472.0109087648348]",Major_3rd,"[4.216817147160892, 3.0, 3.79279876921605, 6.520129077200691]",False,208.05118529999163,211.1087101000594,211.1087101000594,212.3356224000454,['space'],1,[0.3861888999817893],3.5034642999526113,4.510084199951962,None,1,None,1,,,,,,,,,,,,wfoooa,001,fr,0,0,2022-05-04_11h35.25.053,Cluster,2022.1.1,35.60301357442,
,,,,0,0,0,0,13,0,13,0,,,none,,,,,,,,,,,,,,,,,,,,,,,,,,,,,,,,,,,,,,,,,,,,,,,,,,,,,,,,,,,,,,,,,,,,,,,,,,,,,,,,,,,,,,,,,,,,,,,,,,,,,,,,,,,,,,,,,,,212.61870940006338,None,,,,,"[0.6089509629059491, 0.4810810276140598, 0.43920226317182837, 0.6682173695717046]","[2031.481712167576, 3456.530515925123, 1468.5281599678892, 2587.182595996939]",None,"[8.816716895979171, 2.8436219255812087, 9.790007724829989, 6.0]",True,213.6112011000514,216.16794980003033,216.16794980003033,217.383687500027,None,1,,3.2266701998887584,4.230315299821086,None,1,None,1,0,,,,,,,,,,,wfoooa,001,fr,0,0,2022-05-04_11h35.25.053,Cluster,2022.1.1,35.60301357442,
,,,,0,0,0,0,14,0,14,0,,,both,,,,,,,,,,,,,,,,,,,,,,,,,,,,,,,,,,,,,,,,,,,,,,,,,,,,,,,,,,,,,,,,,,,,,,,,,,,,,,,,,,,,,,,,,,,,,,,,,,,,,,,,,,,,,,,,,,,217.88975430000573,None,1501.5268004783368,3.790007724829989,7.492531153861732e-05,1,"[0.511161867487526, 0.511161867487526, 0.511161867487526, 0.511161867487526]","[2383.525222637757, 2123.4795655031444, 1891.8052229039558, 1685.406848056333]",Tone,"[7.0, 8.201577190156675, 9.283066987268136, 9.584130305229188]",False,218.89105510001536,221.46614970010705,221.46614970010705,222.67989480006509,['space'],1,[0.335264699999243],3.065805699909106,4.10419549990911,None,1,None,1,,,,,,,,,,,,wfoooa,001,fr,0,0,2022-05-04_11h35.25.053,Cluster,2022.1.1,35.60301357442,
,,,,0,0,0,0,15,0,15,0,,,none,,,,,,,,,,,,,,,,,,,,,,,,,,,,,,,,,,,,,,,,,,,,,,,,,,,,,,,,,,,,,,,,,,,,,,,,,,,,,,,,,,,,,,,,,,,,,,,,,,,,,,,,,,,,,,,,,,,223.0430830999976,None,5746.533692909426,-1.6008910828528817,0.00010413997874794135,1,"[0.6610914537800247, 0.713152912114816, 0.5761359074783496, 0.4038852084759985]","[127.91466073322626, 341.5469321464508, 7857.775184293301, 564.3682725570156]",None,"[8.62199949978356, 12.0, 2.0, 9.60681891020138]",False,224.03592350007966,227.0144336000085,227.0144336000085,228.21928409999236,['space'],1,[0.4753111999016255],3.381725999992341,4.407304199994542,None,1,None,1,,,,,,,,,,,,wfoooa,001,fr,0,0,2022-05-04_11h35.25.053,Cluster,2022.1.1,35.60301357442,
,,,,0,0,0,0,16,0,16,0,,,both,,,,,,,,,,,,,,,,,,,,,,,,,,,,,,,,,,,,,,,,,,,,,,,,,,,,,,,,,,,,,,,,,,,,,,,,,,,,,,,,,,,,,,,,,,,,,,,,,,,,,,,,,,,,,,,,,,,228.50275940005668,None,353.5533905932738,0.0,8.861233020703779e-05,1,"[0.5565034355293808, 0.5565034355293808, 0.5565034355293808, 0.5565034355293808]","[561.2310241546867, 500.0000000000001, 445.44935907016975, 396.8502629920499]",Tone,"[10.0, 10.89226938530659, 11.89399418222198, 12.165032505410917]",False,229.5104515000712,232.21298509999178,232.21298509999178,233.43518920009956,['space'],1,[0.41518709994852543],3.2452358999289572,4.248434099950828,None,1,None,1,,,,,,,,,,,,wfoooa,001,fr,0,0,2022-05-04_11h35.25.053,Cluster,2022.1.1,35.60301357442,
,,,,0,0,0,0,17,0,17,0,,,none,,,,,,,,,,,,,,,,,,,,,,,,,,,,,,,,,,,,,,,,,,,,,,,,,,,,,,,,,,,,,,,,,,,,,,,,,,,,,,,,,,,,,,,,,,,,,,,,,,,,,,,,,,,,,,,,,,,233.7895365000004,None,,,,,"[0.4477575605348237, 0.4482279275453745, 0.7181210039255768, 0.47153387850964745]","[234.92486522107217, 212.21286221634188, 193.3342849478162, 2553.794141160636]",None,"[8.749208672221705, 8.0, 7.491982065261169, 6.0]",True,234.80918010009918,237.44076450006105,237.44076450006105,238.66237930010539,None,1,,3.0930259998422116,4.10782449983526,None,1,None,1,0,,,,,,,,,,,wfoooa,001,fr,0,0,2022-05-04_11h35.25.053,Cluster,2022.1.1,35.60301357442,
,,,,0,0,0,0,18,0,18,0,,,frequency,,,,,,,,,,,,,,,,,,,,,,,,,,,,,,,,,,,,,,,,,,,,,,,,,,,,,,,,,,,,,,,,,,,,,,,,,,,,,,,,,,,,,,,,,,,,,,,,,,,,,,,,,,,,,,,,,,,238.96463430009317,None,125.0,-2.0,0.0005740768107484417,1,"[0.5409363159545562, 0.4442940481183509, 0.7439554250597531, 0.5885236360713991]","[629.9605249474366, 420.4482076268573, 280.6155120773433, 187.2883846095852]",Perfect_5th,"[9.0, 12.0, 10.694876538956837, 7.491982065261169]",False,240.0022916001035,242.76499970001169,242.76499970001169,243.97948930005077,['space'],1,[0.4244472000282258],3.3272204999811947,4.353884399984963,None,1,None,1,,,,,,,,,,,,wfoooa,001,fr,0,0,2022-05-04_11h35.25.053,Cluster,2022.1.1,35.60301357442,
,,,,0,0,0,0,19,0,19,0,,,none,,,,,,,,,,,,,,,,,,,,,,,,,,,,,,,,,,,,,,,,,,,,,,,,,,,,,,,,,,,,,,,,,,,,,,,,,,,,,,,,,,,,,,,,,,,,,,,,,,,,,,,,,,,,,,,,,,,244.39251570007764,None,329.87697769322364,1.0,0.00010632127908437066,0,"[0.4625430827710784, 0.6070682772576286, 0.7025809587344082, 0.7248330290569814]","[1948.3905564880245, 405.49098507278086, 135.5758521947919, 352.5873992124088]",None,"[9.0, 12.165032505410917, 8.301235408887216, 12.090682069181113]",False,245.42799029999878,248.23036829999182,248.23036829999182,249.4511799000902,None,0,,3.5175058000022545,4.519509100005962,None,1,None,1,,,,,,,,,,,,wfoooa,001,fr,0,0,2022-05-04_11h35.25.053,Cluster,2022.1.1,35.60301357442,
,,,,1,0,1,0,0,0,0,0,,,frequency,,,,,,,,,,,,,,,,,,,,,,,,,,,,,,,,,,,,,,,,,,,,,,,,,,,,,,,,,,,,,,,,,,,,,,,,,,,,,,,,,,,,,,,,,,,,,,,,,,,,,,,,,,,,,,,,,,,257.1276150000049,None,495.64590999399445,5.0,0.00012744426662350284,1,"[0.5574345707184629, 0.6311536588860617, 0.6522943690470504, 0.5432014137171336]","[312.23735764786665, 350.47458402413065, 393.39441946410113, 441.5703058651516]",Tone,"[11.28986005276826, 12.090682069181113, 12.165032505410917, 11.89399418222198]",False,258.134955800022,261.01010340009816,261.01010340009816,262.23646130005363,['space'],1,[0.3941333999391645],3.411974099930376,4.4122027000412345,None,1,None,1,,,,,,,,,,,,wfoooa,001,fr,0,0,2022-05-04_11h35.25.053,Cluster,2022.1.1,35.60301357442,
,,,,1,0,1,0,1,0,1,0,,,frequency,,,,,,,,,,,,,,,,,,,,,,,,,,,,,,,,,,,,,,,,,,,,,,,,,,,,,,,,,,,,,,,,,,,,,,,,,,,,,,,,,,,,,,,,,,,,,,,,,,,,,,,,,,,,,,,,,,,262.60253000003286,None,,,,,"[0.6782852935968484, 0.5202936990201266, 0.45933582945854173, 0.43253584457964]","[4843.246396380745, 4314.842006173423, 3844.0872122779924, 3424.692369838134]",Tone,"[4.216817147160892, 3.3925430880429674, 2.794586337472524, 3.0]",True,263.5967274000868,266.29022480000276,266.29022480000276,267.49271340004634,None,1,,3.118356499937363,4.149647599901073,None,1,None,1,0,,,,,,,,,,,wfoooa,001,fr,0,0,2022-05-04_11h35.25.053,Cluster,2022.1.1,35.60301357442,
,,,,1,0,1,0,2,0,2,0,,,time,,,,,,,,,,,,,,,,,,,,,,,,,,,,,,,,,,,,,,,,,,,,,,,,,,,,,,,,,,,,,,,,,,,,,,,,,,,,,,,,,,,,,,,,,,,,,,,,,,,,,,,,,,,,,,,,,,,267.79391010000836,None,176.7766952966369,1.0,0.00039272999556449274,1,"[0.5006082378481529, 0.5006082378481529, 0.5006082378481529, 0.5006082378481529]","[3795.6058361633, 201.7672717205821, 1182.9610685563027, 460.37844638983273]",None,"[2.794586337472524, 7.766580179906163, 9.0, 11.461726883648712]",False,268.83203010004945,271.3653850000119,271.3653850000119,272.56939700001385,['space'],1,[0.4560402000788599],3.026757999905385,4.05766109994147,None,1,None,1,,,,,,,,,,,,wfoooa,001,fr,0,0,2022-05-04_11h35.25.053,Cluster,2022.1.1,35.60301357442,
,,,,1,0,1,0,3,0,3,0,,,both,,,,,,,,,,,,,,,,,,,,,,,,,,,,,,,,,,,,,,,,,,,,,,,,,,,,,,,,,,,,,,,,,,,,,,,,,,,,,,,,,,,,,,,,,,,,,,,,,,,,,,,,,,,,,,,,,,,272.9314593001036,None,7855.970457629904,-4.0,0.00011178869953816487,1,"[0.5527467347911308, 0.5527467347911308, 0.5527467347911308, 0.5527467347911308]","[4948.951273460088, 5555.00998339129, 6235.287884336403, 6998.874010450856]",Tone,"[4.216817147160892, 4.399108917147118, 4.0, 3.0]",False,273.94880050001666,276.6188570000231,276.6188570000231,277.83535480010323,['space'],1,[0.33403370005544275],3.2242705998942256,4.232017599861138,None,1,None,1,,,,,,,,,,,,wfoooa,001,fr,0,0,2022-05-04_11h35.25.053,Cluster,2022.1.1,35.60301357442,
,,,,1,0,1,0,4,0,4,0,,,none,,,,,,,,,,,,,,,,,,,,,,,,,,,,,,,,,,,,,,,,,,,,,,,,,,,,,,,,,,,,,,,,,,,,,,,,,,,,,,,,,,,,,,,,,,,,,,,,,,,,,,,,,,,,,,,,,,,278.23388120008167,None,403.7381136759401,6.165032505410918,0.00015528757134634883,1,"[0.5492504641687741, 0.6205014164415668, 0.6045899667825008, 0.41605009749554805]","[521.1429089445518, 546.3998610645725, 268.19205489111397, 843.1347678659422]",None,"[10.26260093989387, 10.0, 10.047721615129088, 7.856919128777964]",False,279.2472045000177,282.04094460001215,282.04094460001215,283.26250100007746,['space'],1,[0.45260860002599657],3.215434299898334,4.239807399921119,None,1,None,1,,,,,,,,,,,,wfoooa,001,fr,0,0,2022-05-04_11h35.25.053,Cluster,2022.1.1,35.60301357442,
,,,,1,0,1,0,5,0,5,0,,,both,,,,,,,,,,,,,,,,,,,,,,,,,,,,,,,,,,,,,,,,,,,,,,,,,,,,,,,,,,,,,,,,,,,,,,,,,,,,,,,,,,,,,,,,,,,,,,,,,,,,,,,,,,,,,,,,,,,283.540358700091,None,,,,,"[0.7146329302020359, 0.7146329302020359, 0.7146329302020359, 0.7146329302020359]","[494.7899293992883, 440.80771385057494, 392.7150272158507, 349.8693143410498]",Tone,"[11.0, 11.89399418222198, 12.165032505410917, 12.0]",True,284.5590351000428,287.7254823000403,287.7254823000403,288.93069250008557,None,1,,3.8779299998423085,4.889034099876881,None,1,None,1,0,,,,,,,,,,,wfoooa,001,fr,0,0,2022-05-04_11h35.25.053,Cluster,2022.1.1,35.60301357442,
,,,,1,0,1,0,6,0,6,0,,,none,,,,,,,,,,,,,,,,,,,,,,,,,,,,,,,,,,,,,,,,,,,,,,,,,,,,,,,,,,,,,,,,,,,,,,,,,,,,,,,,,,,,,,,,,,,,,,,,,,,,,,,,,,,,,,,,,,,289.4925401000073,None,2462.2888266898335,0.0,8.505946547995337e-05,1,"[0.750517894855163, 0.4673551809500805, 0.6173377552624254, 0.4072415459654697]","[2394.072291801442, 441.9785082781931, 278.9256116779964, 171.42119464498367]",None,"[7.0, 11.89399418222198, 10.694876538956837, 7.3852636021574884]",False,290.5000590001,293.3644916000776,293.3644916000776,294.56625989999156,['space'],1,[0.44329529989045113],3.266041599912569,4.278026299900375,None,1,None,1,,,,,,,,,,,,wfoooa,001,fr,0,0,2022-05-04_11h35.25.053,Cluster,2022.1.1,35.60301357442,
,,,,1,0,1,0,7,0,7,0,,,time,,,,,,,,,,,,,,,,,,,,,,,,,,,,,,,,,,,,,,,,,,,,,,,,,,,,,,,,,,,,,,,,,,,,,,,,,,,,,,,,,,,,,,,,,,,,,,,,,,,,,,,,,,,,,,,,,,,294.8140386000741,None,160.97897926240628,1.443600666896941,0.00048124609963491176,1,"[0.41944590659113706, 0.41944590659113706, 0.41944590659113706, 0.41944590659113706]","[211.774602432734, 7244.4762971416685, 1575.744807360378, 125.39367334869259]",None,"[8.0, 2.4622137000562287, 9.748528716308854, 8.62199949978356]",False,295.8138042000355,298.1137037000153,298.1137037000153,299.3248133000452,['space'],1,[0.430642900057137],2.688093099859543,3.7040966999484226,None,1,None,1,,,,,,,,,,,,wfoooa,001,fr,0,0,2022-05-04_11h35.25.053,Cluster,2022.1.1,35.60301357442,
,,,,1,0,1,0,8,0,8,0,,,time,,,,,,,,,,,,,,,,,,,,,,,,,,,,,,,,,,,,,,,,,,,,,,,,,,,,,,,,,,,,,,,,,,,,,,,,,,,,,,,,,,,,,,,,,,,,,,,,,,,,,,,,,,,,,,,,,,,299.573168400093,None,2462.2888266898335,0.0,8.505946547995337e-05,1,"[0.6853521977296371, 0.6853521977296371, 0.6853521977296371, 0.6853521977296371]","[141.40319852036072, 257.20740610554776, 1311.5519314347302, 5996.59759508064]",None,"[8.0, 9.385401044056934, 9.554482866438688, 4.126618864009792]",False,301.16348079999443,304.2532851001015,304.2532851001015,305.4701759000309,['space'],1,[0.39107799995690584],3.7519959999481216,4.7569265000056475,None,1,None,1,,,,,,,,,,,,wfoooa,001,fr,0,0,2022-05-04_11h35.25.053,Cluster,2022.1.1,35.60301357442,
,,,,1,0,1,0,9,0,9,0,,,frequency,,,,,,,,,,,,,,,,,,,,,,,,,,,,,,,,,,,,,,,,,,,,,,,,,,,,,,,,,,,,,,,,,,,,,,,,,,,,,,,,,,,,,,,,,,,,,,,,,,,,,,,,,,,,,,,,,,,305.96331820008345,None,,,,,"[0.6937176128574933, 0.6156700499385477, 0.7971741449236902, 0.5513743438316894]","[5438.166115183574, 4316.275306010111, 3425.8299806724062, 2719.083057591787]",Major_3rd,"[4.4243819544679805, 3.3925430880429674, 3.0, 5.0]",True,306.98587710002903,310.1330149000278,310.1330149000278,311.3450695000356,None,1,,3.661181099829264,4.674336499883793,None,1,None,1,0,,,,,,,,,,,wfoooa,001,fr,0,0,2022-05-04_11h35.25.053,Cluster,2022.1.1,35.60301357442,
,,,,1,0,1,0,10,0,10,0,,,none,,,,,,,,,,,,,,,,,,,,,,,,,,,,,,,,,,,,,,,,,,,,,,,,,,,,,,,,,,,,,,,,,,,,,,,,,,,,,,,,,,,,,,,,,,,,,,,,,,,,,,,,,,,,,,,,,,,311.7155974000925,None,210.66727505040325,2.0,0.00030786140071328285,1,"[0.5767235830781233, 0.4059060853417719, 0.41797612613441154, 0.7052097202122655]","[145.68995033045286, 336.4694439536062, 515.2865402080746, 1049.4985819563979]",None,"[7.94866819657239, 11.760367223652612, 10.89226938530659, 8.65206876366474]",False,312.7246707000304,315.1544925000053,315.1544925000053,316.3748557000654,['space'],1,[0.6151756999315694],3.1287332999054343,4.140912299975753,None,1,None,1,,,,,,,,,,,,wfoooa,001,fr,0,0,2022-05-04_11h35.25.053,Cluster,2022.1.1,35.60301357442,
,,,,1,0,1,0,11,0,11,0,,,none,,,,,,,,,,,,,,,,,,,,,,,,,,,,,,,,,,,,,,,,,,,,,,,,,,,,,,,,,,,,,,,,,,,,,,,,,,,,,,,,,,,,,,,,,,,,,,,,,,,,,,,,,,,,,,,,,,,316.92416280007455,None,125.0,2.0,0.000909850429304992,0,"[0.7667294769128101, 0.6363078414470326, 0.629103153242555, 0.7879871858645]","[493.5715589575021, 1022.1264614552321, 230.59665208937548, 3379.6173995612653]",None,"[11.0, 8.328435085231524, 8.749208672221705, 3.0]",False,318.6228016000241,321.68400760006625,321.68400760006625,322.9151386000449,None,0,,3.854073099908419,4.884859999874607,None,1,None,1,,,,,,,,,,,,wfoooa,001,fr,0,0,2022-05-04_11h35.25.053,Cluster,2022.1.1,35.60301357442,
,,,,1,0,1,0,12,0,12,0,,,both,,,,,,,,,,,,,,,,,,,,,,,,,,,,,,,,,,,,,,,,,,,,,,,,,,,,,,,,,,,,,,,,,,,,,,,,,,,,,,,,,,,,,,,,,,,,,,,,,,,,,,,,,,,,,,,,,,,323.5467923000688,None,2462.2888266898335,-2.0,6.756513506128234e-05,1,"[0.4971350689038969, 0.4971350689038969, 0.4971350689038969, 0.4971350689038969]","[6204.579047334941, 4924.577653379667, 3908.6398737369855, 3102.2895236674703]",Major_3rd,"[4.0, 4.216817147160892, 3.0, 3.79279876921605]",False,324.62565000006,327.1545967001002,327.1545967001002,328.3887250000844,['space'],1,[0.42677020002156496],3.0280727999052033,4.061829199898057,None,1,None,1,,,,,,,,,,,,wfoooa,001,fr,0,0,2022-05-04_11h35.25.053,Cluster,2022.1.1,35.60301357442,
,,,,1,0,1,0,13,0,13,0,,,frequency,,,,,,,,,,,,,,,,,,,,,,,,,,,,,,,,,,,,,,,,,,,,,,,,,,,,,,,,,,,,,,,,,,,,,,,,,,,,,,,,,,,,,,,,,,,,,,,,,,,,,,,,,,,,,,,,,,,328.724030100042,None,,,,,"[0.6315718982847544, 0.40568146389634596, 0.6680718481187626, 0.43565186922042526]","[5468.623846107112, 3649.868528624195, 2435.994987244259, 1625.8315967660308]",Perfect_5th,"[4.399108917147118, 2.794586337472524, 6.520129077200691, 9.748528716308854]",True,329.7273317000363,332.4493536000373,332.4493536000373,333.6758398000384,None,1,,3.1716264998540282,4.178116599912755,None,1,None,1,0,,,,,,,,,,,wfoooa,001,fr,0,0,2022-05-04_11h35.25.053,Cluster,2022.1.1,35.60301357442,
,,,,1,0,1,0,14,0,14,0,,,time,,,,,,,,,,,,,,,,,,,,,,,,,,,,,,,,,,,,,,,,,,,,,,,,,,,,,,,,,,,,,,,,,,,,,,,,,,,,,,,,,,,,,,,,,,,,,,,,,,,,,,,,,,,,,,,,,,,333.9542861999944,None,310.1392481914902,5.28986005276826,0.00019079526174853607,1,"[0.677783585399034, 0.677783585399034, 0.677783585399034, 0.677783585399034]","[1992.22013058946, 230.1939017837573, 3798.8174954579663, 203.7554560340536]",None,"[8.816716895979171, 8.749208672221705, 2.794586337472524, 7.766580179906163]",False,334.9577130000107,338.00591770000756,338.00591770000756,339.21322989999317,['space'],1,[0.4701535999774933],3.728537199902348,4.759693699888885,None,1,None,1,,,,,,,,,,,,wfoooa,001,fr,0,0,2022-05-04_11h35.25.053,Cluster,2022.1.1,35.60301357442,
,,,,1,0,1,0,15,0,15,0,,,both,,,,,,,,,,,,,,,,,,,,,,,,,,,,,,,,,,,,,,,,,,,,,,,,,,,,,,,,,,,,,,,,,,,,,,,,,,,,,,,,,,,,,,,,,,,,,,,,,,,,,,,,,,,,,,,,,,,339.769647100009,None,4020.1053176696087,-2.9903172828485025,6.0471832039357474e-05,1,"[0.6517813002995043, 0.6517813002995043, 0.6517813002995043, 0.6517813002995043]","[6381.51941029169, 5685.287462416561, 5065.015312526256, 4512.415649290831]",Tone,"[3.6439710197306145, 4.399108917147118, 4.216817147160892, 3.8289179146613765]",False,340.7803768001031,343.7688981000101,343.7688981000101,344.9961587000871,['space'],1,[0.380187000031583],3.6126510999165475,4.631553999846801,None,1,None,1,,,,,,,,,,,,wfoooa,001,fr,0,0,2022-05-04_11h35.25.053,Cluster,2022.1.1,35.60301357442,
,,,,1,0,1,0,16,0,16,0,,,frequency,,,,,,,,,,,,,,,,,,,,,,,,,,,,,,,,,,,,,,,,,,,,,,,,,,,,,,,,,,,,,,,,,,,,,,,,,,,,,,,,,,,,,,,,,,,,,,,,,,,,,,,,,,,,,,,,,,,345.4677285000216,None,307.7861033362292,-2.0,8.440818067039319e-05,0,"[0.6723290341002097, 0.5911163449969986, 0.46094872401878184, 0.5893175952879164]","[775.5723809168676, 615.5722066724584, 488.5799842171232, 387.7861904584338]",Major_3rd,"[7.873415866578979, 9.006826678762522, 11.0, 12.230458358877735]",False,346.48301240010187,349.24368800001685,349.24368800001685,350.47581750003155,None,0,,3.350306000094861,4.36391400010325,None,1,None,1,,,,,,,,,,,,wfoooa,001,fr,0,0,2022-05-04_11h35.25.053,Cluster,2022.1.1,35.60301357442,
,,,,1,0,1,0,17,0,17,0,,,both,,,,,,,,,,,,,,,,,,,,,,,,,,,,,,,,,,,,,,,,,,,,,,,,,,,,,,,,,,,,,,,,,,,,,,,,,,,,,,,,,,,,,,,,,,,,,,,,,,,,,,,,,,,,,,,,,,,350.8884649000829,None,125.0,-3.0,0.0005116464961403772,1,"[0.4409635736155372, 0.4409635736155372, 0.4409635736155372, 0.4409635736155372]","[629.9605249474366, 420.4482076268573, 280.6155120773433, 187.2883846095852]",Perfect_5th,"[9.0, 12.0, 10.694876538956837, 7.491982065261169]",False,351.93070000002626,354.2931375000626,354.2931375000626,355.5271148000611,['space'],1,[0.4772711000405252],2.7918967999285087,3.824868499999866,None,1,None,1,,,,,,,,,,,,wfoooa,001,fr,0,0,2022-05-04_11h35.25.053,Cluster,2022.1.1,35.60301357442,
,,,,1,0,1,0,18,0,18,0,,,frequency,,,,,,,,,,,,,,,,,,,,,,,,,,,,,,,,,,,,,,,,,,,,,,,,,,,,,,,,,,,,,,,,,,,,,,,,,,,,,,,,,,,,,,,,,,,,,,,,,,,,,,,,,,,,,,,,,,,355.80141549999826,None,,,,,"[0.4689603027094508, 0.5192930158291178, 0.5598481161555765, 0.6179527994496987]","[1524.5678563188255, 2284.270808301208, 3422.5391175805175, 5128.014580758162]",Perfect_5th,"[9.790007724829989, 7.422255942512912, 3.0, 4.4243819544679805]",True,356.8122346000746,359.3891539000906,359.3891539000906,360.6000032000011,None,1,,3.1725376000395045,4.207027400028892,None,1,None,1,0,,,,,,,,,,,wfoooa,001,fr,0,0,2022-05-04_11h35.25.053,Cluster,2022.1.1,35.60301357442,
,,,,1,0,1,0,19,0,19,0,,,frequency,,,,,,,,,,,,,,,,,,,,,,,,,,,,,,,,,,,,,,,,,,,,,,,,,,,,,,,,,,,,,,,,,,,,,,,,,,,,,,,,,,,,,,,,,,,,,,,,,,,,,,,,,,,,,,,,,,,361.07520770002156,None,4565.876206016134,-2.1710820853386235,9.570006732968475e-05,1,"[0.632407523134818, 0.4643971884822893, 0.5483911749024085, 0.7976951901592346]","[1811.9691731466462, 2282.9381030080676, 2876.3217715869346, 3623.938346293292]",Major_3rd,"[9.283066987268136, 7.422255942512912, 4.614733173469618, 2.794586337472524]",False,362.08428640000056,364.7692239000462,364.7692239000462,366.00539900001604,['space'],1,[0.4165641999570653],3.471819299971685,4.504859199980274,None,1,None,1,,,,,,,,,,,,wfoooa,001,fr,0,0,2022-05-04_11h35.25.053,Cluster,2022.1.1,35.60301357442,
,,,,2,0,2,0,0,0,0,0,,,frequency,,,,,,,,,,,,,,,,,,,,,,,,,,,,,,,,,,,,,,,,,,,,,,,,,,,,,,,,,,,,,,,,,,,,,,,,,,,,,,,,,,,,,,,,,,,,,,,,,,,,,,,,,,,,,,,,,,,373.87020570004825,None,1414.213562373095,0.0,5.043234004607858e-05,1,"[0.4348207382004754, 0.6545608370852942, 0.4532256623061809, 0.4957120842415336]","[561.2310241546867, 707.1067811865478, 890.8987181403395, 1122.4620483093731]",Major_3rd,"[10.0, 8.114754943661183, 7.856919128777964, 8.993365263396424]",False,374.87624820007477,377.4422287000343,377.4422287000343,378.67645460006315,['space'],1,[0.36644440004602075],3.0605369999539107,4.066053699934855,None,1,None,1,,,,,,,,,,,,wfoooa,001,fr,0,0,2022-05-04_11h35.25.053,Cluster,2022.1.1,35.60301357442,
,,,,2,0,2,0,1,0,1,0,,,frequency,,,,,,,,,,,,,,,,,,,,,,,,,,,,,,,,,,,,,,,,,,,,,,,,,,,,,,,,,,,,,,,,,,,,,,,,,,,,,,,,,,,,,,,,,,,,,,,,,,,,,,,,,,,,,,,,,,,378.98404450004455,None,1304.6925180242051,3.554482866438688,8.00274094698579e-05,1,"[0.43522150087153616, 0.741952790452306, 0.7661125928560523, 0.4071002881237429]","[821.9047835495211, 922.5569268582673, 1035.535137803331, 1162.3488918750559]",Tone,"[7.791855928430435, 8.0, 8.328435085231524, 9.0]",False,379.9955026000971,382.97866060002707,382.97866060002707,384.2115024999948,['space'],1,[0.43133859999943525],3.372544899932109,4.392223999835551,None,1,None,1,,,,,,,,,,,,wfoooa,001,fr,0,0,2022-05-04_11h35.25.053,Cluster,2022.1.1,35.60301357442,
,,,,2,0,2,0,2,0,2,0,,,both,,,,,,,,,,,,,,,,,,,,,,,,,,,,,,,,,,,,,,,,,,,,,,,,,,,,,,,,,,,,,,,,,,,,,,,,,,,,,,,,,,,,,,,,,,,,,,,,,,,,,,,,,,,,,,,,,,,384.44175980007276,None,6641.437968420564,-2.3560289802693855,0.00010701262808456218,0,"[0.4221499789981996, 0.4221499789981996, 0.4221499789981996, 0.4221499789981996]","[1317.8282022065432, 1974.5113214737382, 2958.42428633723, 4432.6280446229175]",Perfect_5th,"[9.554482866438688, 8.816716895979171, 4.0, 3.3925430880429674]",False,385.46389540005475,387.75264399999287,387.75264399999287,388.9845039000502,None,0,,2.692742099869065,3.7002780998591334,None,1,None,1,,,,,,,,,,,,wfoooa,001,fr,0,0,2022-05-04_11h35.25.053,Cluster,2022.1.1,35.60301357442,
,,,,2,0,2,0,3,0,3,0,,,both,,,,,,,,,,,,,,,,,,,,,,,,,,,,,,,,,,,,,,,,,,,,,,,,,,,,,,,,,,,,,,,,,,,,,,,,,,,,,,,,,,,,,,,,,,,,,,,,,,,,,,,,,,,,,,,,,,,389.21973040001467,None,,,,,"[0.7551445561746638, 0.7551445561746638, 0.7551445561746638, 0.7551445561746638]","[5417.80108775148, 4826.712044217129, 4300.111573025577, 3830.963888268924]",Tone,"[4.4243819544679805, 4.0, 3.3925430880429674, 2.794586337472524]",True,390.22809020010754,393.5200469000265,393.5200469000265,394.7385708000511,None,1,,4.053745099925436,5.086977600003593,None,1,None,1,0,,,,,,,,,,,wfoooa,001,fr,0,0,2022-05-04_11h35.25.053,Cluster,2022.1.1,35.60301357442,
,,,,2,0,2,0,4,0,4,0,,,both,,,,,,,,,,,,,,,,,,,,,,,,,,,,,,,,,,,,,,,,,,,,,,,,,,,,,,,,,,,,,,,,,,,,,,,,,,,,,,,,,,,,,,,,,,,,,,,,,,,,,,,,,,,,,,,,,,,395.3643175000325,None,203.0630990890589,-5.0,0.00014589441197552095,0,"[0.4727293096304033, 0.4727293096304033, 0.4727293096304033, 0.4727293096304033]","[127.92173649959686, 143.58729437462938, 161.1712885549474, 180.90865468004728]",Tone,"[8.62199949978356, 7.94866819657239, 7.443600666896941, 7.3852636021574884]",False,396.379891000106,398.82847880001646,398.82847880001646,400.05609359999653,None,0,,2.9285470000468194,3.9454304999671876,None,1,None,1,,,,,,,,,,,,wfoooa,001,fr,0,0,2022-05-04_11h35.25.053,Cluster,2022.1.1,35.60301357442,
,,,,2,0,2,0,5,0,5,0,,,time,,,,,,,,,,,,,,,,,,,,,,,,,,,,,,,,,,,,,,,,,,,,,,,,,,,,,,,,,,,,,,,,,,,,,,,,,,,,,,,,,,,,,,,,,,,,,,,,,,,,,,,,,,,,,,,,,,,400.36693700007163,None,1515.7165665103996,0.0,4.963027899072243e-05,1,"[0.6984550755090165, 0.6984550755090165, 0.6984550755090165, 0.6984550755090165]","[444.59512145616384, 4212.209971081183, 304.5109060832709, 327.48565441706415]",None,"[11.89399418222198, 3.3925430880429674, 11.28986005276826, 11.760367223652612]",False,401.4025466000894,404.5379599001026,404.5379599001026,405.7641223000828,['space'],1,[0.5028328000335023],3.838153399992734,4.860094700008631,None,1,None,1,,,,,,,,,,,,wfoooa,001,fr,0,0,2022-05-04_11h35.25.053,Cluster,2022.1.1,35.60301357442,
,,,,2,0,2,0,6,0,6,0,,,both,,,,,,,,,,,,,,,,,,,,,,,,,,,,,,,,,,,,,,,,,,,,,,,,,,,,,,,,,,,,,,,,,,,,,,,,,,,,,,,,,,,,,,,,,,,,,,,,,,,,,,,,,,,,,,,,,,,406.2997088000411,None,5100.027050518788,-1.7831828528391078,0.00012139323195798024,1,"[0.7245868586423201, 0.7245868586423201, 0.7245868586423201, 0.7245868586423201]","[1011.9735381324749, 1516.2471137958214, 2271.803780894122, 3403.859682188865]",Perfect_5th,"[8.328435085231524, 9.790007724829989, 7.422255942512912, 3.0]",False,407.29310370003805,410.48809510003775,410.48809510003775,411.69604510010686,['space'],1,[0.3080915999598801],3.9069354999810457,4.917091599898413,None,1,None,1,,,,,,,,,,,,wfoooa,001,fr,0,0,2022-05-04_11h35.25.053,Cluster,2022.1.1,35.60301357442,
,,,,2,0,2,0,7,0,7,0,,,both,,,,,,,,,,,,,,,,,,,,,,,,,,,,,,,,,,,,,,,,,,,,,,,,,,,,,,,,,,,,,,,,,,,,,,,,,,,,,,,,,,,,,,,,,,,,,,,,,,,,,,,,,,,,,,,,,,,412.26517470006365,None,435.2752816480623,-1.0,6.662271952302988e-05,1,"[0.4835144074861243, 0.4835144074861243, 0.4835144074861243, 0.4835144074861243]","[172.73910999597217, 217.63764082403122, 274.2062449236567, 345.47821999194423]",Major_3rd,"[7.3852636021574884, 8.205214547732592, 10.047721615129088, 12.0]",False,414.05002200009767,416.5542560000904,416.5542560000904,417.7764423000626,['space'],1,[0.4165719000156969],2.961210699635558,3.971168599673547,None,1,None,1,,,,,,,,,,,,wfoooa,001,fr,0,0,2022-05-04_11h35.25.053,Cluster,2022.1.1,35.60301357442,
,,,,2,0,2,0,8,0,8,0,,,none,,,,,,,,,,,,,,,,,,,,,,,,,,,,,,,,,,,,,,,,,,,,,,,,,,,,,,,,,,,,,,,,,,,,,,,,,,,,,,,,,,,,,,,,,,,,,,,,,,,,,,,,,,,,,,,,,,,418.0809783000732,None,377.79061491312433,6.230458358877735,0.0001686665494403187,1,"[0.42904848811564567, 0.6402147957079471, 0.6260532531420763, 0.4809925314716014]","[1780.60039567676, 130.0697096168972, 564.3322157136695, 250.7376350930091]",None,"[9.584130305229188, 8.301235408887216, 9.60681891020138, 9.385401044056934]",False,419.0869093000656,421.8015900000464,421.8015900000464,423.0061388000613,['space'],1,[0.41930549999233335],3.2046159998280928,4.236018399940804,None,1,None,1,,,,,,,,,,,,wfoooa,001,fr,0,0,2022-05-04_11h35.25.053,Cluster,2022.1.1,35.60301357442,
,,,,2,0,2,0,9,0,9,0,,,time,,,,,,,,,,,,,,,,,,,,,,,,,,,,,,,,,,,,,,,,,,,,,,,,,,,,,,,,,,,,,,,,,,,,,,,,,,,,,,,,,,,,,,,,,,,,,,,,,,,,,,,,,,,,,,,,,,,423.38690470007714,None,5397.0512815779175,-1.575618045532019,0.00011519302585950828,1,"[0.49701052817891667, 0.49701052817891667, 0.49701052817891667, 0.49701052817891667]","[4525.272958388721, 1014.7100680117074, 713.9657751950687, 5853.587955083908]",None,"[3.8289179146613765, 8.328435085231524, 8.114754943661183, 4.399108917147118]",False,424.39722990000155,426.9311840001028,426.9311840001028,428.14972900005523,['space'],1,[0.33951039996463805],2.9972181998891756,4.018766199820675,None,1,None,1,,,,,,,,,,,,wfoooa,001,fr,0,0,2022-05-04_11h35.25.053,Cluster,2022.1.1,35.60301357442,
,,,,2,0,2,0,10,0,10,0,,,frequency,,,,,,,,,,,,,,,,,,,,,,,,,,,,,,,,,,,,,,,,,,,,,,,,,,,,,,,,,,,,,,,,,,,,,,,,,,,,,,,,,,,,,,,,,,,,,,,,,,,,,,,,,,,,,,,,,,,428.46832020010334,None,203.0630990890589,-3.0,0.00018367018267475058,1,"[0.5307842278795546, 0.7187965231432988, 0.4443601640004448, 0.5791062750823623]","[1023.3738919967751, 683.0201283771979, 455.8612442791085, 304.2508784176478]",Perfect_5th,"[8.328435085231524, 8.494012819045984, 11.461726883648712, 11.28986005276826]",False,429.50607170001604,432.2453160000732,432.2453160000732,433.46675020002294,['space'],1,[0.51980780006852],3.2985084999818355,4.324474100023508,None,1,None,1,,,,,,,,,,,,wfoooa,001,fr,0,0,2022-05-04_11h35.25.053,Cluster,2022.1.1,35.60301357442,
,,,,2,0,2,0,11,0,11,0,,,both,,,,,,,,,,,,,,,,,,,,,,,,,,,,,,,,,,,,,,,,,,,,,,,,,,,,,,,,,,,,,,,,,,,,,,,,,,,,,,,,,,,,,,,,,,,,,,,,,,,,,,,,,,,,,,,,,,,433.8781342000002,None,,,,,"[0.6428218152018002, 0.6428218152018002, 0.6428218152018002, 0.6428218152018002]","[411.76729549808556, 462.193161931592, 518.7942832563205, 582.3268938350825]",Tone,"[12.165032505410917, 11.461726883648712, 10.26260093989387, 9.60681891020138]",True,434.8678988000611,437.82511130010244,437.82511130010244,439.0303822000278,None,1,,3.59148879989516,4.606462699943222,None,1,None,1,0,,,,,,,,,,,wfoooa,001,fr,0,0,2022-05-04_11h35.25.053,Cluster,2022.1.1,35.60301357442,
,,,,2,0,2,0,12,0,12,0,,,none,,,,,,,,,,,,,,,,,,,,,,,,,,,,,,,,,,,,,,,,,,,,,,,,,,,,,,,,,,,,,,,,,,,,,,,,,,,,,,,,,,,,,,,,,,,,,,,,,,,,,,,,,,,,,,,,,,,439.5307408000808,None,1741.101126592249,-2.0,5.0139344383985924e-05,0,"[0.5281380701357898, 0.4307424324091351, 0.6474514666479919, 0.4867600281751867]","[4869.43986925045, 5654.931826566216, 217.32102778569256, 321.50742962562464]",None,"[4.216817147160892, 4.399108917147118, 8.205214547732592, 11.760367223652612]",False,440.61173130001407,443.2495209000772,443.2495209000772,444.47526440001093,None,0,,3.1083403999218717,4.123818499967456,None,1,None,1,,,,,,,,,,,,wfoooa,001,fr,0,0,2022-05-04_11h35.25.053,Cluster,2022.1.1,35.60301357442,
,,,,2,0,2,0,13,0,13,0,,,time,,,,,,,,,,,,,,,,,,,,,,,,,,,,,,,,,,,,,,,,,,,,,,,,,,,,,,,,,,,,,,,,,,,,,,,,,,,,,,,,,,,,,,,,,,,,,,,,,,,,,,,,,,,,,,,,,,,444.7812625000952,None,125.0,-3.0,0.0005116464961403772,0,"[0.6945818644393914, 0.6945818644393914, 0.6945818644393914, 0.6945818644393914]","[4800.906701318437, 659.4291613913015, 5542.357590687561, 435.8917417273245]",None,"[4.0, 8.494012819045984, 4.399108917147118, 11.89399418222198]",False,445.80717760010157,448.924518700107,448.924518700107,450.15615779999644,None,0,,3.823100099922158,4.846041799988598,None,1,None,1,,,,,,,,,,,,wfoooa,001,fr,0,0,2022-05-04_11h35.25.053,Cluster,2022.1.1,35.60301357442,
,,,,2,0,2,0,14,0,14,0,,,none,,,,,,,,,,,,,,,,,,,,,,,,,,,,,,,,,,,,,,,,,,,,,,,,,,,,,,,,,,,,,,,,,,,,,,,,,,,,,,,,,,,,,,,,,,,,,,,,,,,,,,,,,,,,,,,,,,,450.6866375000682,None,3691.8990093361285,-3.205413662527476,5.4296854568928794e-05,1,"[0.798444485490109, 0.6191040608546723, 0.5830560269773142, 0.5294068035563197]","[2364.2773156130556, 1190.958889052626, 1167.7063525763808, 870.8613084114886]",None,"[7.0, 9.308165133595097, 9.0, 7.856919128777964]",False,451.6804702000227,454.69670540001243,454.69670540001243,455.9278500000946,['space'],1,[0.43735839996952564],3.5504949998576194,4.556421399815008,None,1,None,1,,,,,,,,,,,,wfoooa,001,fr,0,0,2022-05-04_11h35.25.053,Cluster,2022.1.1,35.60301357442,
,,,,2,0,2,0,15,0,15,0,,,time,,,,,,,,,,,,,,,,,,,,,,,,,,,,,,,,,,,,,,,,,,,,,,,,,,,,,,,,,,,,,,,,,,,,,,,,,,,,,,,,,,,,,,,,,,,,,,,,,,,,,,,,,,,,,,,,,,,456.29691780009307,None,,,,,"[0.5440102258949606, 0.5440102258949606, 0.5440102258949606, 0.5440102258949606]","[736.2838127961417, 1272.7099932248384, 260.9632594620166, 2723.261184527182]",None,"[8.0, 9.308165133595097, 10.0, 5.0]",True,457.2811026000418,459.9267688000109,459.9267688000109,461.1478130000178,['space'],0,[0.42005620000418276],3.1987911999458447,4.22919720003847,None,1,None,1,0,,,,,,,,,,,wfoooa,001,fr,0,0,2022-05-04_11h35.25.053,Cluster,2022.1.1,35.60301357442,
,,,,2,0,2,0,16,0,16,0,,,frequency,,,,,,,,,,,,,,,,,,,,,,,,,,,,,,,,,,,,,,,,,,,,,,,,,,,,,,,,,,,,,,,,,,,,,,,,,,,,,,,,,,,,,,,,,,,,,,,,,,,,,,,,,,,,,,,,,,,461.5603301000083,None,2660.151348098601,-0.44353793637424566,7.216250522702263e-05,1,"[0.41694254325539765, 0.6678744900013655, 0.6123301352977795, 0.593844373550114]","[4222.727048366343, 3762.022114446114, 3351.5806793756515, 2985.9189309996955]",Tone,"[3.3925430880429674, 2.794586337472524, 3.0, 4.0]",False,462.55556270002853,465.2826406999957,465.2826406999957,466.49536300008185,['space'],1,[0.3458865999709815],3.309891999932006,4.342008899897337,None,1,None,1,,,,,,,,,,,,wfoooa,001,fr,0,0,2022-05-04_11h35.25.053,Cluster,2022.1.1,35.60301357442,
,,,,2,0,2,0,17,0,17,0,,,time,,,,,,,,,,,,,,,,,,,,,,,,,,,,,,,,,,,,,,,,,,,,,,,,,,,,,,,,,,,,,,,,,,,,,,,,,,,,,,,,,,,,,,,,,,,,,,,,,,,,,,,,,,,,,,,,,,,466.955637200037,None,470.68339801457665,5.461726883648712,0.00013679432041678184,1,"[0.5974323801236917, 0.5974323801236917, 0.5974323801236917, 0.5974323801236917]","[5227.845810170217, 2759.265345169758, 3072.15151884402, 768.4676365225005]",None,"[4.4243819544679805, 5.0, 3.79279876921605, 7.873415866578979]",False,467.959925900097,470.77455820003524,470.77455820003524,471.98003320000134,['space'],1,[0.37464699998963624],3.3978206999599934,4.427420499850996,None,1,None,1,,,,,,,,,,,,wfoooa,001,fr,0,0,2022-05-04_11h35.25.053,Cluster,2022.1.1,35.60301357442,
,,,,2,0,2,0,18,0,18,0,,,both,,,,,,,,,,,,,,,,,,,,,,,,,,,,,,,,,,,,,,,,,,,,,,,,,,,,,,,,,,,,,,,,,,,,,,,,,,,,,,,,,,,,,,,,,,,,,,,,,,,,,,,,,,,,,,,,,,,472.44984610006213,None,1216.3416458283948,3.308165133595096,7.771666689553967e-05,1,"[0.6577553243714717, 0.6577553243714717, 0.6577553243714717, 0.6577553243714717]","[3064.9888868859384, 2432.6832916567896, 1930.822008140725, 1532.4944434429692]",Major_3rd,"[3.79279876921605, 6.520129077200691, 9.0, 9.790007724829989]",False,473.44763830001466,476.4341777000809,476.4341777000809,477.64463380002417,['space'],1,[0.30057369999121875],3.649187499890104,4.656828099978156,None,1,None,1,,,,,,,,,,,,wfoooa,001,fr,0,0,2022-05-04_11h35.25.053,Cluster,2022.1.1,35.60301357442,
,,,,2,0,2,0,19,0,19,0,,,frequency,,,,,,,,,,,,,,,,,,,,,,,,,,,,,,,,,,,,,,,,,,,,,,,,,,,,,,,,,,,,,,,,,,,,,,,,,,,,,,,,,,,,,,,,,,,,,,,,,,,,,,,,,,,,,,,,,,,478.1615593000315,None,8000.0,-4.0,0.00011454338263838867,1,"[0.5008807658297598, 0.7707380243859511, 0.6914771516192955, 0.46220290449205353]","[3174.8021039364003, 4000.0000000000014, 5039.684199579494, 6349.604207872799]",Major_3rd,"[3.1903858144161164, 3.0096827171514975, 4.216817147160892, 3.6439710197306145]",False,479.1905224000802,482.19989110005554,482.19989110005554,483.41680120001547,['space'],1,[0.44377400004304945],3.4624476998578757,4.472491599852219,None,1,None,1,,,,,,,,,,,,wfoooa,001,fr,0,0,2022-05-04_11h35.25.053,Cluster,2022.1.1,35.60301357442,
,,,,3,0,3,0,0,0,0,0,,,none,,,,,,,,,,,,,,,,,,,,,,,,,,,,,,,,,,,,,,,,,,,,,,,,,,,,,,,,,,,,,,,,,,,,,,,,,,,,,,,,,,,,,,,,,,,,,,,,,,,,,,,,,,,,,,,,,,,497.2797078000149,None,8000.0,-3.0,0.00012851978913844324,1,"[0.5919735918719475, 0.608743923552904, 0.6163656792949265, 0.5663647365111296]","[3242.710677754284, 147.47444974675807, 555.6974980898135, 357.17113699846556]",None,"[3.1903858144161164, 7.94866819657239, 10.0, 12.090682069181113]",False,498.28606970002875,501.13895560009405,501.13895560009405,502.3585288000759,['space'],1,[0.35492859990336],3.406778500066139,4.436307099997066,None,1,None,1,,,,,,,,,,,,wfoooa,001,fr,0,0,2022-05-04_11h35.25.053,Cluster,2022.1.1,35.60301357442,
,,,,3,0,3,0,1,0,1,0,,,time,,,,,,,,,,,,,,,,,,,,,,,,,,,,,,,,,,,,,,,,,,,,,,,,,,,,,,,,,,,,,,,,,,,,,,,,,,,,,,,,,,,,,,,,,,,,,,,,,,,,,,,,,,,,,,,,,,,502.76007680001203,None,,,,,"[0.719763742454711, 0.719763742454711, 0.719763742454711, 0.719763742454711]","[607.3100232354274, 390.57629289347926, 160.15678603736495, 1679.079310426038]",None,"[9.006826678762522, 12.230458358877735, 7.443600666896941, 9.748528716308854]",True,503.75830139999744,506.9469973000232,506.9469973000232,508.1511215000646,None,1,,3.898210399900563,4.914997799904086,None,1,None,1,0,,,,,,,,,,,wfoooa,001,fr,0,0,2022-05-04_11h35.25.053,Cluster,2022.1.1,35.60301357442,
,,,,3,0,3,0,2,0,2,0,,,none,,,,,,,,,,,,,,,,,,,,,,,,,,,,,,,,,,,,,,,,,,,,,,,,,,,,,,,,,,,,,,,,,,,,,,,,,,,,,,,,,,,,,,,,,,,,,,,,,,,,,,,,,,,,,,,,,,,508.7208006000146,None,300.7508080066736,5.0,0.00020222034814806902,1,"[0.5145840723606186, 0.6891903360275468, 0.5508911768517288, 0.4080607891509826]","[3158.155918784821, 2790.3909588768456, 125.47781231263627, 525.2896457432361]",None,"[3.1903858144161164, 4.614733173469618, 8.62199949978356, 10.26260093989387]",False,509.73273869999684,512.5003698000219,512.5003698000219,513.7224963000044,['space'],1,[0.43784509995020926],3.1789363998686895,4.18846809992101,None,1,None,1,,,,,,,,,,,,wfoooa,001,fr,0,0,2022-05-04_11h35.25.053,Cluster,2022.1.1,35.60301357442,
,,,,3,0,3,0,3,0,3,0,,,time,,,,,,,,,,,,,,,,,,,,,,,,,,,,,,,,,,,,,,,,,,,,,,,,,,,,,,,,,,,,,,,,,,,,,,,,,,,,,,,,,,,,,,,,,,,,,,,,,,,,,,,,,,,,,,,,,,,513.9757243000204,None,3482.202253184498,-3.0,5.2990255822619625e-05,1,"[0.4566660997487137, 0.4566660997487137, 0.4566660997487137, 0.4566660997487137]","[3639.308506631013, 167.14086979118002, 1934.642375522465, 137.02244417085967]",None,"[2.794586337472524, 7.443600666896941, 9.0, 8.301235408887216]",False,515.0031287000747,517.4174694000976,517.4174694000976,518.6424261000939,['space'],1,[0.4128214999800548],2.873846699949354,3.8801059999968857,None,1,None,1,,,,,,,,,,,,wfoooa,001,fr,0,0,2022-05-04_11h35.25.053,Cluster,2022.1.1,35.60301357442,
,,,,3,0,3,0,4,0,4,0,,,both,,,,,,,,,,,,,,,,,,,,,,,,,,,,,,,,,,,,,,,,,,,,,,,,,,,,,,,,,,,,,,,,,,,,,,,,,,,,,,,,,,,,,,,,,,,,,,,,,,,,,,,,,,,,,,,,,,,518.9217192000942,None,287.17458874925893,-4.0,8.082540045571802e-05,1,"[0.501221068131805, 0.501221068131805, 0.501221068131805, 0.501221068131805]","[455.8612442791087, 406.126198178118, 361.8173093600947, 322.342577109895]",Tone,"[11.461726883648712, 12.165032505410917, 12.090682069181113, 11.760367223652612]",False,519.9608111000853,522.4802858000621,522.4802858000621,523.6965808999958,['space'],1,[0.7623917999444529],3.0394677999429405,4.055418099975213,None,1,None,1,,,,,,,,,,,,wfoooa,001,fr,0,0,2022-05-04_11h35.25.053,Cluster,2022.1.1,35.60301357442,
,,,,3,0,3,0,5,0,5,0,,,frequency,,,,,,,,,,,,,,,,,,,,,,,,,,,,,,,,,,,,,,,,,,,,,,,,,,,,,,,,,,,,,,,,,,,,,,,,,,,,,,,,,,,,,,,,,,,,,,,,,,,,,,,,,,,,,,,,,,,524.0711073999992,None,,,,,"[0.7141997995139249, 0.7251038605293751, 0.4321216913687469, 0.4869001456221843]","[1832.48546181396, 1454.444674899956, 1154.393503482868, 916.24273090698]",Major_3rd,"[9.283066987268136, 9.720261633119645, 9.0, 8.0]",True,525.0677201000508,527.974700700026,527.974700700026,529.194882000098,['space'],0,[0.3942798998905346],3.3783240999327973,4.399873199872673,None,1,None,1,0,,,,,,,,,,,wfoooa,001,fr,0,0,2022-05-04_11h35.25.053,Cluster,2022.1.1,35.60301357442,
,,,,3,0,3,0,6,0,6,0,,,none,,,,,,,,,,,,,,,,,,,,,,,,,,,,,,,,,,,,,,,,,,,,,,,,,,,,,,,,,,,,,,,,,,,,,,,,,,,,,,,,,,,,,,,,,,,,,,,,,,,,,,,,,,,,,,,,,,,529.5070022,None,1624.5047927124701,1.0,6.491663098207682e-05,0,"[0.5308279447145643, 0.7299655592446515, 0.7532774572339043, 0.5078980312967194]","[4629.713018289241, 376.52642620884035, 4783.385801514001, 371.894720789042]",None,"[3.8289179146613765, 12.230458358877735, 4.0, 12.230458358877735]",False,530.5455381000647,533.6003984001,533.6003984001,534.8242283000145,None,0,,3.558597799972631,4.573678100015968,None,1,None,1,,,,,,,,,,,,wfoooa,001,fr,0,0,2022-05-04_11h35.25.053,Cluster,2022.1.1,35.60301357442,
,,,,3,0,3,0,7,0,7,0,,,frequency,,,,,,,,,,,,,,,,,,,,,,,,,,,,,,,,,,,,,,,,,,,,,,,,,,,,,,,,,,,,,,,,,,,,,,,,,,,,,,,,,,,,,,,,,,,,,,,,,,,,,,,,,,,,,,,,,,,535.1652549999999,None,225.14640296721987,2.205214547732591,0.00027865541054717866,1,"[0.6267449649304544, 0.5451429257740202, 0.6093241661901245, 0.45772417351396016]","[141.8333462032569, 159.20254829788016, 178.69881845851046, 200.58264179740445]",Tone,"[8.0, 7.643464056059555, 7.3852636021574884, 7.766580179906163]",False,536.1792727001011,538.9947605000343,538.9947605000343,540.1987579000415,['space'],1,[0.42954689997714013],3.2506946999346837,4.275649799965322,None,1,None,1,,,,,,,,,,,,wfoooa,001,fr,0,0,2022-05-04_11h35.25.053,Cluster,2022.1.1,35.60301357442,
,,,,3,0,3,0,8,0,8,0,,,both,,,,,,,,,,,,,,,,,,,,,,,,,,,,,,,,,,,,,,,,,,,,,,,,,,,,,,,,,,,,,,,,,,,,,,,,,,,,,,,,,,,,,,,,,,,,,,,,,,,,,,,,,,,,,,,,,,,540.5204208000796,None,705.7971231683161,2.114754943661182,5.678993817661465e-05,1,"[0.6953034976162569, 0.6953034976162569, 0.6953034976162569, 0.6953034976162569]","[140.04788697418925, 209.83474015505337, 314.396876148896, 471.06306448181243]",Perfect_5th,"[8.0, 8.0, 11.28986005276826, 11.461726883648712]",False,541.5148858000757,544.6402050000615,544.6402050000615,545.8428717000643,['space'],1,[0.37490639998577535],3.809106599772349,4.814782599802129,None,1,None,1,,,,,,,,,,,,wfoooa,001,fr,0,0,2022-05-04_11h35.25.053,Cluster,2022.1.1,35.60301357442,
,,,,3,0,3,0,9,0,9,0,,,time,,,,,,,,,,,,,,,,,,,,,,,,,,,,,,,,,,,,,,,,,,,,,,,,,,,,,,,,,,,,,,,,,,,,,,,,,,,,,,,,,,,,,,,,,,,,,,,,,,,,,,,,,,,,,,,,,,,546.3921569000231,None,2552.9566388261615,0.0,8.260453393975719e-05,0,"[0.6353405273502987, 0.6353405273502987, 0.6353405273502987, 0.6353405273502987]","[214.1863071571466, 252.06477555091115, 417.25341011172014, 179.1675890228213]",None,"[8.0, 9.385401044056934, 12.0, 7.3852636021574884]",False,547.3940997000318,550.3214128999971,550.3214128999971,551.5397791001014,None,0,,3.5686997999437153,4.6023809999460354,None,1,None,1,,,,,,,,,,,,wfoooa,001,fr,0,0,2022-05-04_11h35.25.053,Cluster,2022.1.1,35.60301357442,
,,,,3,0,3,0,10,0,10,0,,,frequency,,,,,,,,,,,,,,,,,,,,,,,,,,,,,,,,,,,,,,,,,,,,,,,,,,,,,,,,,,,,,,,,,,,,,,,,,,,,,,,,,,,,,,,,,,,,,,,,,,,,,,,,,,,,,,,,,,,552.0570121000055,None,164.93848884661182,-7.0,0.0001756071591876441,0,"[0.6493595589203407, 0.5710009185987861, 0.4938511087647294, 0.6971055902770237]","[415.6189480713941, 329.8769776932237, 261.82353070515677, 207.809474035697]",Major_3rd,"[12.0, 11.760367223652612, 10.0, 8.0]",False,553.0908854000736,555.8288093000883,555.8288093000883,557.0466241000686,None,0,,3.453741299919784,4.457762999925762,None,1,None,1,,,,,,,,,,,,wfoooa,001,fr,0,0,2022-05-04_11h35.25.053,Cluster,2022.1.1,35.60301357442,
,,,,3,0,3,0,11,0,11,0,,,time,,,,,,,,,,,,,,,,,,,,,,,,,,,,,,,,,,,,,,,,,,,,,,,,,,,,,,,,,,,,,,,,,,,,,,,,,,,,,,,,,,,,,,,,,,,,,,,,,,,,,,,,,,,,,,,,,,,557.5922726000426,None,,,,,"[0.5346201905455239, 0.5346201905455239, 0.5346201905455239, 0.5346201905455239]","[2337.225707147439, 5138.408813665753, 340.92780033840063, 1778.5371951515178]",None,"[7.0, 4.4243819544679805, 12.0, 9.584130305229188]",True,558.5845941000152,561.2118451000424,561.2118451000424,562.4225583000807,None,1,,3.1605313998879865,4.187515999889001,None,1,None,1,0,,,,,,,,,,,wfoooa,001,fr,0,0,2022-05-04_11h35.25.053,Cluster,2022.1.1,35.60301357442,
,,,,3,0,3,0,12,0,12,0,,,none,,,,,,,,,,,,,,,,,,,,,,,,,,,,,,,,,,,,,,,,,,,,,,,,,,,,,,,,,,,,,,,,,,,,,,,,,,,,,,,,,,,,,,,,,,,,,,,,,,,,,,,,,,,,,,,,,,,562.8213254000293,None,6172.601008795792,-2.0,9.849986574396719e-05,0,"[0.4785140766231455, 0.7324494511503772, 0.4497110837530518, 0.592108292299882]","[1705.7684581058816, 228.63658828499942, 5344.719926355399, 1747.9052153434145]",None,"[9.584130305229188, 8.749208672221705, 4.4243819544679805, 9.584130305229188]",False,563.8107283000136,566.490948599996,566.490948599996,567.6977660000557,None,0,,3.2786338998703286,4.287517299875617,None,1,None,1,,,,,,,,,,,,wfoooa,001,fr,0,0,2022-05-04_11h35.25.053,Cluster,2022.1.1,35.60301357442,
,,,,3,0,3,0,13,0,13,0,,,both,,,,,,,,,,,,,,,,,,,,,,,,,,,,,,,,,,,,,,,,,,,,,,,,,,,,,,,,,,,,,,,,,,,,,,,,,,,,,,,,,,,,,,,,,,,,,,,,,,,,,,,,,,,,,,,,,,,568.1574789000442,None,574.3491774985172,0.0,5.984619860562044e-05,0,"[0.5673561887109737, 0.5673561887109737, 0.5673561887109737, 0.5673561887109737]","[361.81730936009427, 406.1261981781175, 455.8612442791081, 511.68694599838716]",Tone,"[12.090682069181113, 12.165032505410917, 11.461726883648712, 10.89226938530659]",False,569.1888271000935,571.9323754000943,571.9323754000943,573.1644900999963,None,0,,3.305860499967821,4.328430900000967,None,1,None,1,,,,,,,,,,,,wfoooa,001,fr,0,0,2022-05-04_11h35.25.053,Cluster,2022.1.1,35.60301357442,
,,,,3,0,3,0,14,0,14,0,,,none,,,,,,,,,,,,,,,,,,,,,,,,,,,,,,,,,,,,,,,,,,,,,,,,,,,,,,,,,,,,,,,,,,,,,,,,,,,,,,,,,,,,,,,,,,,,,,,,,,,,,,,,,,,,,,,,,,,573.5562345000217,None,125.0,5.0,0.0012851978913844323,0,"[0.45777859829171763, 0.45649370512825094, 0.5906399032281674, 0.4066452151470906]","[496.21357040307174, 198.72397612998176, 312.24943716762306, 2292.488639057324]",None,"[11.0, 7.766580179906163, 11.28986005276826, 7.422255942512912]",False,574.6305509000085,577.1691592000425,577.1691592000425,578.3701757000526,None,0,,2.931281699799001,3.941551299765706,None,1,None,1,,,,,,,,,,,,wfoooa,001,fr,0,0,2022-05-04_11h35.25.053,Cluster,2022.1.1,35.60301357442,
,,,,3,0,3,0,15,0,15,0,,,none,,,,,,,,,,,,,,,,,,,,,,,,,,,,,,,,,,,,,,,,,,,,,,,,,,,,,,,,,,,,,,,,,,,,,,,,,,,,,,,,,,,,,,,,,,,,,,,,,,,,,,,,,,,,,,,,,,,578.6134556001052,None,2704.9081739239923,-1.0,6.52055289386442e-05,0,"[0.6748712041883751, 0.43843212501430295, 0.481908587960371, 0.7011213383427112]","[7038.7535255423545, 3139.289247850103, 285.0535473167359, 810.6026754551276]",None,"[3.0, 3.79279876921605, 10.694876538956837, 7.791855928430435]",False,579.6257131000748,582.2393114001025,582.2393114001025,583.4478048000019,None,0,,3.311847599921748,4.340926599921659,None,1,None,1,,,,,,,,,,,,wfoooa,001,fr,0,0,2022-05-04_11h35.25.053,Cluster,2022.1.1,35.60301357442,
,,,,3,0,3,0,16,0,16,0,,,time,,,,,,,,,,,,,,,,,,,,,,,,,,,,,,,,,,,,,,,,,,,,,,,,,,,,,,,,,,,,,,,,,,,,,,,,,,,,,,,,,,,,,,,,,,,,,,,,,,,,,,,,,,,,,,,,,,,584.035766200046,None,,,,,"[0.6587706079403566, 0.6587706079403566, 0.6587706079403566, 0.6587706079403566]","[726.691343737142, 151.20258247335948, 478.1753362835109, 1314.232981245437]",None,"[8.0, 7.643464056059555, 11.461726883648712, 9.554482866438688]",True,585.035153600038,588.0596725000069,588.0596725000069,589.2866120000836,None,1,,3.639884499949403,4.677467799861915,None,1,None,1,0,,,,,,,,,,,wfoooa,001,fr,0,0,2022-05-04_11h35.25.053,Cluster,2022.1.1,35.60301357442,
,,,,3,0,3,0,17,0,17,0,,,both,,,,,,,,,,,,,,,,,,,,,,,,,,,,,,,,,,,,,,,,,,,,,,,,,,,,,,,,,,,,,,,,,,,,,,,,,,,,,,,,,,,,,,,,,,,,,,,,,,,,,,,,,,,,,,,,,,,589.7730469000526,None,697.2378570559047,2.114754943661182,5.7747435812044765e-05,1,"[0.6672733318756826, 0.6672733318756826, 0.6672733318756826, 0.6672733318756826]","[1756.9293057766538, 1394.4757141118093, 1106.7961077625962, 878.4646528883269]",Major_3rd,"[9.584130305229188, 9.720261633119645, 8.65206876366474, 7.856919128777964]",False,590.7803870000644,593.8232656000182,593.8232656000182,595.0607187000569,['space'],1,[0.32954499998595566],3.693875499884598,4.726723399828188,None,1,None,1,,,,,,,,,,,,wfoooa,001,fr,0,0,2022-05-04_11h35.25.053,Cluster,2022.1.1,35.60301357442,
,,,,3,0,3,0,18,0,18,0,,,frequency,,,,,,,,,,,,,,,,,,,,,,,,,,,,,,,,,,,,,,,,,,,,,,,,,,,,,,,,,,,,,,,,,,,,,,,,,,,,,,,,,,,,,,,,,,,,,,,,,,,,,,,,,,,,,,,,,,,595.5675914000021,None,1330.392366971323,3.554482866438688,7.906673973869495e-05,1,"[0.7480734348274539, 0.4537922225976948, 0.61072315778077, 0.6204354509031734]","[6704.75739106654, 4474.88868906836, 2986.629882571573, 1993.3362984558526]",Perfect_5th,"[3.6439710197306145, 3.8289179146613765, 4.0, 8.816716895979171]",False,596.5660207000328,599.4070356000448,599.4070356000448,600.632283300045,['space'],1,[0.4110942999832332],3.4429513999493793,4.44561379996594,None,1,None,1,,,,,,,,,,,,wfoooa,001,fr,0,0,2022-05-04_11h35.25.053,Cluster,2022.1.1,35.60301357442,
,,,,3,0,3,0,19,0,19,0,,,none,,,,,,,,,,,,,,,,,,,,,,,,,,,,,,,,,,,,,,,,,,,,,,,,,,,,,,,,,,,,,,,,,,,,,,,,,,,,,,,,,,,,,,,,,,,,,,,,,,,,,,,,,,,,,,,,,,,601.0695310001029,None,757.8582832551998,5.0,7.163659420302861e-05,1,"[0.4400694576574348, 0.6816077340818674, 0.6201834570194893, 0.645998851026519]","[3609.573624123634, 3306.87194870689, 1329.9309773288642, 1610.5821930725315]",None,"[2.794586337472524, 3.1903858144161164, 9.554482866438688, 9.748528716308854]",False,602.0866692001,604.8696843000362,604.8696843000362,606.0972865000367,['space'],1,[0.3876575999893248],3.412677300046198,4.434185100020841,None,1,None,1,,,,,,,,,,,,wfoooa,001,fr,0,0,2022-05-04_11h35.25.053,Cluster,2022.1.1,35.60301357442,
,,,,4,0,4,0,0,0,0,0,,,none,,,,,,,,,,,,,,,,,,,,,,,,,,,,,,,,,,,,,,,,,,,,,,,,,,,,,,,,,,,,,,,,,,,,,,,,,,,,,,,,,,,,,,,,,,,,,,,,,,,,,,,,,,,,,,,,,,,630.5269212001003,None,5310.107995724944,-1.575618045532019,0.00011786728050827003,1,"[0.6793246123477497, 0.6688017822507661, 0.7006348717849815, 0.7819789802661846]","[3940.630381632059, 1040.521881104527, 4907.140185681965, 3203.627710098838]",None,"[3.0, 8.65206876366474, 4.216817147160892, 3.1903858144161164]",False,631.518939700094,634.5959778000833,634.5959778000833,635.8143251000438,['space'],1,[0.34864920005202293],3.8463726999470964,4.86219000001438,None,1,None,1,,,,,,,,,,,,wfoooa,001,fr,0,0,2022-05-04_11h35.25.053,Cluster,2022.1.1,35.60301357442,
,,,,4,0,4,0,1,0,1,0,,,none,,,,,,,,,,,,,,,,,,,,,,,,,,,,,,,,,,,,,,,,,,,,,,,,,,,,,,,,,,,,,,,,,,,,,,,,,,,,,,,,,,,,,,,,,,,,,,,,,,,,,,,,,,,,,,,,,,,636.4422907000408,None,,,,,"[0.6211273264835442, 0.4954949076276826, 0.7615904704409358, 0.7363925343192312]","[244.38743123359785, 7530.387577096169, 199.5454014447015, 1569.499539048997]",None,"[9.0, 2.4622137000562287, 7.766580179906163, 9.790007724829989]",True,637.4435004000552,640.341034000041,640.341034000041,641.5704463000875,None,1,,3.6484641999704763,4.667781900032423,None,1,None,1,0,,,,,,,,,,,wfoooa,001,fr,0,0,2022-05-04_11h35.25.053,Cluster,2022.1.1,35.60301357442,
,,,,4,0,4,0,2,0,2,0,,,frequency,,,,,,,,,,,,,,,,,,,,,,,,,,,,,,,,,,,,,,,,,,,,,,,,,,,,,,,,,,,,,,,,,,,,,,,,,,,,,,,,,,,,,,,,,,,,,,,,,,,,,,,,,,,,,,,,,,,642.1621254000347,None,2000.0,-5.0,4.206975708225974e-05,0,"[0.42278876389302117, 0.4539236015752995, 0.5861958322246918, 0.7918634098610293]","[1259.921049894873, 1414.2135623730949, 1587.4010519681995, 1781.7974362806785]",Tone,"[9.308165133595097, 9.720261633119645, 9.748528716308854, 9.584130305229188]",False,643.1876942000818,645.6747774000978,645.6747774000978,646.9018772999989,None,0,,3.273075499921106,4.2940376999322325,None,1,None,1,,,,,,,,,,,,wfoooa,001,fr,0,0,2022-05-04_11h35.25.053,Cluster,2022.1.1,35.60301357442,
,,,,4,0,4,0,3,0,3,0,,,time,,,,,,,,,,,,,,,,,,,,,,,,,,,,,,,,,,,,,,,,,,,,,,,,,,,,,,,,,,,,,,,,,,,,,,,,,,,,,,,,,,,,,,,,,,,,,,,,,,,,,,,,,,,,,,,,,,,647.5241277000168,None,8000.0,-3.0,0.00012851978913844324,1,"[0.6933685428786998, 0.6933685428786998, 0.6933685428786998, 0.6933685428786998]","[1743.5568889585363, 453.68035923681737, 5763.60886341213, 204.53450012678638]",None,"[9.584130305229188, 11.461726883648712, 4.399108917147118, 7.766580179906163]",False,648.551861200016,651.6650357000763,651.6650357000763,652.877328600036,['space'],1,[0.4216638000216335],3.7976861000061035,4.826487899990752,None,1,None,1,,,,,,,,,,,,wfoooa,001,fr,0,0,2022-05-04_11h35.25.053,Cluster,2022.1.1,35.60301357442,
,,,,4,0,4,0,4,0,4,0,,,frequency,,,,,,,,,,,,,,,,,,,,,,,,,,,,,,,,,,,,,,,,,,,,,,,,,,,,,,,,,,,,,,,,,,,,,,,,,,,,,,,,,,,,,,,,,,,,,,,,,,,,,,,,,,,,,,,,,,,653.4122483000392,None,7132.219129990943,-3.0,0.00010989762561739225,0,"[0.6724706091138735, 0.5585689976889471, 0.601668198318699, 0.6305158719595201]","[1415.2115187269173, 2120.4214337859366, 3177.0424402024682, 4760.1851716929195]",Perfect_5th,"[9.720261633119645, 8.201577190156675, 3.1903858144161164, 4.0]",False,654.422764500021,657.2844292999944,657.2844292999944,658.5167855001055,None,0,,3.481197299901396,4.515222099842504,None,1,None,1,,,,,,,,,,,,wfoooa,001,fr,0,0,2022-05-04_11h35.25.053,Cluster,2022.1.1,35.60301357442,
,,,,4,0,4,0,5,0,5,0,,,frequency,,,,,,,,,,,,,,,,,,,,,,,,,,,,,,,,,,,,,,,,,,,,,,,,,,,,,,,,,,,,,,,,,,,,,,,,,,,,,,,,,,,,,,,,,,,,,,,,,,,,,,,,,,,,,,,,,,,658.9953846000135,None,,,,,"[0.5876581550409236, 0.7054636077980133, 0.7371575993773303, 0.709726704717339]","[894.930235237041, 797.2921993977121, 710.3065984267135, 632.8112380249838]",Tone,"[8.0, 7.791855928430435, 8.114754943661183, 9.0]",True,660.0056653000647,663.0579057000577,663.0579057000577,664.2621880000224,None,1,,3.774043299956247,4.795958499889821,None,1,None,1,0,,,,,,,,,,,wfoooa,001,fr,0,0,2022-05-04_11h35.25.053,Cluster,2022.1.1,35.60301357442,
,,,,4,0,4,0,6,0,6,0,,,time,,,,,,,,,,,,,,,,,,,,,,,,,,,,,,,,,,,,,,,,,,,,,,,,,,,,,,,,,,,,,,,,,,,,,,,,,,,,,,,,,,,,,,,,,,,,,,,,,,,,,,,,,,,,,,,,,,,664.8549530000892,None,880.5493014393804,1.8569191287779636,5.034842915505026e-05,1,"[0.455668656043067, 0.455668656043067, 0.455668656043067, 0.455668656043067]","[3555.8966239867095, 1688.7533455329076, 698.6267175013678, 3068.0948493789156]",None,"[2.8436219255812087, 9.584130305229188, 8.114754943661183, 3.79279876921605]",False,665.8689497000305,668.2776961000636,668.2776961000636,669.4999227999942,['space'],1,[0.5669624001020566],2.863180699874647,3.8828029999276623,None,1,None,1,,,,,,,,,,,,wfoooa,001,fr,0,0,2022-05-04_11h35.25.053,Cluster,2022.1.1,35.60301357442,
,,,,4,0,4,0,7,0,7,0,,,none,,,,,,,,,,,,,,,,,,,,,,,,,,,,,,,,,,,,,,,,,,,,,,,,,,,,,,,,,,,,,,,,,,,,,,,,,,,,,,,,,,,,,,,,,,,,,,,,,,,,,,,,,,,,,,,,,,,669.8157237000996,None,500.0,4.0,0.00011323221537965297,1,"[0.41532608259400017, 0.7570196865406238, 0.5683570715688052, 0.7726760467222439]","[4684.9237974317, 3437.1490427515946, 1398.0525480822414, 5134.13611650401]",None,"[4.0, 2.8436219255812087, 9.720261633119645, 4.4243819544679805]",False,670.8312423001043,673.6156095000915,673.6156095000915,674.8497511000605,['space'],1,[0.4656509000342339],3.551319899968803,4.581778299994767,None,1,None,1,,,,,,,,,,,,wfoooa,001,fr,0,0,2022-05-04_11h35.25.053,Cluster,2022.1.1,35.60301357442,
,,,,4,0,4,0,8,0,8,0,,,frequency,,,,,,,,,,,,,,,,,,,,,,,,,,,,,,,,,,,,,,,,,,,,,,,,,,,,,,,,,,,,,,,,,,,,,,,,,,,,,,,,,,,,,,,,,,,,,,,,,,,,,,,,,,,,,,,,,,,675.4664293000242,None,3482.202253184498,-5.0,4.2091656365169526e-05,1,"[0.7613667453814248, 0.6187421832733383, 0.7128022967867044, 0.6391826084102046]","[2193.6499593892527, 2462.2888266898335, 2763.8257599355534, 3102.289523667471]",Tone,"[8.0, 6.520129077200691, 5.0, 3.79279876921605]",False,676.4808139000088,679.6157532000216,679.6157532000216,680.8504498000257,['space'],1,[0.3835179000161588],3.778447200078517,4.808466700022109,None,1,None,1,,,,,,,,,,,,wfoooa,001,fr,0,0,2022-05-04_11h35.25.053,Cluster,2022.1.1,35.60301357442,
,,,,4,0,4,0,9,0,9,0,,,both,,,,,,,,,,,,,,,,,,,,,,,,,,,,,,,,,,,,,,,,,,,,,,,,,,,,,,,,,,,,,,,,,,,,,,,,,,,,,,,,,,,,,,,,,,,,,,,,,,,,,,,,,,,,,,,,,,,681.3410713000922,None,1741.101126592249,-4.0,3.9827096914764364e-05,0,"[0.5905972204733955, 0.5905972204733955, 0.5905972204733955, 0.5905972204733955]","[345.47821999194423, 517.632461920689, 775.5723809168677, 1162.0455869578402]",Perfect_5th,"[12.0, 10.89226938530659, 7.873415866578979, 9.0]",False,682.3530855000718,685.1549950001063,685.1549950001063,686.3854023000458,None,0,,3.4139430000213906,4.446743699954823,None,1,None,1,,,,,,,,,,,,wfoooa,001,fr,0,0,2022-05-04_11h35.25.053,Cluster,2022.1.1,35.60301357442,
,,,,4,0,4,0,10,0,10,0,,,none,,,,,,,,,,,,,,,,,,,,,,,,,,,,,,,,,,,,,,,,,,,,,,,,,,,,,,,,,,,,,,,,,,,,,,,,,,,,,,,,,,,,,,,,,,,,,,,,,,,,,,,,,,,,,,,,,,,686.8391063000308,None,,,,,"[0.6028175237876892, 0.7128877329689743, 0.7214946862553967, 0.7213504528713139]","[231.00730571811494, 6142.192237895101, 691.714845492461, 4825.780746164681]",None,"[8.749208672221705, 4.0, 8.114754943661183, 4.0]",True,687.849486400024,690.9161276000086,690.9161276000086,692.1319347000681,None,1,,3.770811899797991,4.799857899895869,None,1,None,1,0,,,,,,,,,,,wfoooa,001,fr,0,0,2022-05-04_11h35.25.053,Cluster,2022.1.1,35.60301357442,
,,,,4,0,4,0,11,0,11,0,,,none,,,,,,,,,,,,,,,,,,,,,,,,,,,,,,,,,,,,,,,,,,,,,,,,,,,,,,,,,,,,,,,,,,,,,,,,,,,,,,,,,,,,,,,,,,,,,,,,,,,,,,,,,,,,,,,,,,,692.7041031999979,None,192.1693940070993,1.4919820652611693,0.00034905108077712925,1,"[0.4221441457886135, 0.6384742426008968, 0.573733089974419, 0.5746904185247587]","[519.5894723113064, 1173.6851698971, 4768.999724334593, 386.8595681821168]",None,"[10.26260093989387, 9.0, 4.0, 12.230458358877735]",False,693.7202485000016,696.3672974000219,696.3672974000219,697.602910400019,['space'],1,[0.45463339996058494],3.237806399934925,4.2613168999087065,None,1,None,1,,,,,,,,,,,,wfoooa,001,fr,0,0,2022-05-04_11h35.25.053,Cluster,2022.1.1,35.60301357442,
,,,,4,0,4,0,12,0,12,0,,,both,,,,,,,,,,,,,,,,,,,,,,,,,,,,,,,,,,,,,,,,,,,,,,,,,,,,,,,,,,,,,,,,,,,,,,,,,,,,,,,,,,,,,,,,,,,,,,,,,,,,,,,,,,,,,,,,,,,698.0496842000866,None,417.5250532588316,6.0,0.00015095935154541408,1,"[0.4756058638981997, 0.4756058638981997, 0.4756058638981997, 0.4756058638981997]","[165.694927191537, 208.76252662941585, 263.02430172964, 331.3898543830739]",Major_3rd,"[7.443600666896941, 8.0, 10.0, 11.760367223652612]",False,699.0591200001072,701.5089332000352,701.5089332000352,702.7398986000335,['space'],1,[0.29816060001030564],2.9360402999445796,3.954137499909848,None,1,None,1,,,,,,,,,,,,wfoooa,001,fr,0,0,2022-05-04_11h35.25.053,Cluster,2022.1.1,35.60301357442,
,,,,4,0,4,0,13,0,13,0,,,both,,,,,,,,,,,,,,,,,,,,,,,,,,,,,,,,,,,,,,,,,,,,,,,,,,,,,,,,,,,,,,,,,,,,,,,,,,,,,,,,,,,,,,,,,,,,,,,,,,,,,,,,,,,,,,,,,,,703.0752775000874,None,353.5533905932738,-7.0,3.9581673965746926e-05,0,"[0.7991098091345358, 0.7991098091345358, 0.7991098091345358, 0.7991098091345358]","[140.30775603867167, 176.77669529663694, 222.72467953508487, 280.6155120773433]",Major_3rd,"[8.0, 7.3852636021574884, 8.205214547732592, 10.694876538956837]",False,705.3242581000086,708.7483797000023,708.7483797000023,709.9802725000773,None,0,,4.221865399740636,5.245761499740183,None,1,None,1,,,,,,,,,,,,wfoooa,001,fr,0,0,2022-05-04_11h35.25.053,Cluster,2022.1.1,35.60301357442,
,,,,4,0,4,0,14,0,14,0,,,time,,,,,,,,,,,,,,,,,,,,,,,,,,,,,,,,,,,,,,,,,,,,,,,,,,,,,,,,,,,,,,,,,,,,,,,,,,,,,,,,,,,,,,,,,,,,,,,,,,,,,,,,,,,,,,,,,,,710.6247822000878,None,233.2582478842019,-2.0,0.000159090436875498,1,"[0.5043174215090722, 0.5043174215090722, 0.5043174215090722, 0.5043174215090722]","[6158.064005844667, 222.6307992450639, 613.9474248063185, 3093.8793929499916]",None,"[4.0, 8.205214547732592, 9.006826678762522, 3.79279876921605]",False,711.7201681000879,714.2592016000999,714.2592016000999,715.4874681000365,['space'],1,[0.6046492999885231],3.0236998999025673,4.042413299903274,None,1,None,1,,,,,,,,,,,,wfoooa,001,fr,0,0,2022-05-04_11h35.25.053,Cluster,2022.1.1,35.60301357442,
,,,,4,0,4,0,15,0,15,0,,,none,,,,,,,,,,,,,,,,,,,,,,,,,,,,,,,,,,,,,,,,,,,,,,,,,,,,,,,,,,,,,,,,,,,,,,,,,,,,,,,,,,,,,,,,,,,,,,,,,,,,,,,,,,,,,,,,,,,715.8254829000216,None,,,,,"[0.4093872267140579, 0.47834809372571013, 0.5970395142611689, 0.6759683147844502]","[299.1846689404604, 5777.076001891147, 304.7484189785249, 730.7350295903609]",None,"[11.0, 4.399108917147118, 11.28986005276826, 8.0]",True,716.8419074000558,719.3575276000192,719.3575276000192,720.5600025000749,None,1,,3.1725628999993205,4.186767799896188,None,1,None,1,0,,,,,,,,,,,wfoooa,001,fr,0,0,2022-05-04_11h35.25.053,Cluster,2022.1.1,35.60301357442,
,,,,4,0,4,0,16,0,16,0,,,both,,,,,,,,,,,,,,,,,,,,,,,,,,,,,,,,,,,,,,,,,,,,,,,,,,,,,,,,,,,,,,,,,,,,,,,,,,,,,,,,,,,,,,,,,,,,,,,,,,,,,,,,,,,,,,,,,,,721.0855057000881,None,667.7612281834655,2.4940128190459836,6.376938393485746e-05,0,"[0.7966091654751779, 0.7966091654751779, 0.7966091654751779, 0.7966091654751779]","[3365.3057107680074, 2246.0720920995755, 1499.0732719367907, 1000.5113738511509]",Perfect_5th,"[3.0, 7.422255942512912, 9.790007724829989, 8.328435085231524]",False,722.081559900078,725.4964732000371,725.4964732000371,726.7332888999954,None,0,,4.206395499990322,5.243553799926303,None,1,None,1,,,,,,,,,,,,wfoooa,001,fr,0,0,2022-05-04_11h35.25.053,Cluster,2022.1.1,35.60301357442,
,,,,4,0,4,0,17,0,17,0,,,none,,,,,,,,,,,,,,,,,,,,,,,,,,,,,,,,,,,,,,,,,,,,,,,,,,,,,,,,,,,,,,,,,,,,,,,,,,,,,,,,,,,,,,,,,,,,,,,,,,,,,,,,,,,,,,,,,,,727.3917848001001,None,267.9433656340732,0.0,0.00014847335715060603,1,"[0.5609820832125237, 0.7275944787236993, 0.41822113355191726, 0.43582517108268337]","[701.0168361771495, 424.48908365821774, 2903.6499584157627, 147.79135736032782]",None,"[8.114754943661183, 12.0, 4.614733173469618, 7.94866819657239]",False,728.4032590000425,731.1238355000969,731.1238355000969,732.3374425000511,['space'],1,[0.8118388999719173],3.172564300009981,4.222678999998607,None,1,None,1,,,,,,,,,,,,wfoooa,001,fr,0,0,2022-05-04_11h35.25.053,Cluster,2022.1.1,35.60301357442,
,,,,4,0,4,0,18,0,18,0,,,none,,,,,,,,,,,,,,,,,,,,,,,,,,,,,,,,,,,,,,,,,,,,,,,,,,,,,,,,,,,,,,,,,,,,,,,,,,,,,,,,,,,,,,,,,,,,,,,,,,,,,,,,,,,,,,,,,,,732.6747363000177,None,250.3601590584602,3.385401044056934,0.0002467456624462666,1,"[0.7831908012541641, 0.5838211515815788, 0.5943189755114241, 0.7934756452765217]","[328.7975286677046, 201.78038576129768, 184.32828483765098, 4729.928907332049]",None,"[11.760367223652612, 7.766580179906163, 7.491982065261169, 4.0]",False,733.676448800019,736.6794161000289,736.6794161000289,737.9027731000679,['space'],1,[0.4630875000730157],3.784206199925393,4.801618399913423,None,1,None,1,,,,,,,,,,,,wfoooa,001,fr,0,0,2022-05-04_11h35.25.053,Cluster,2022.1.1,35.60301357442,
,,,,4,0,4,0,19,0,19,0,,,frequency,,,,,,,,,,,,,,,,,,,,,,,,,,,,,,,,,,,,,,,,,,,,,,,,,,,,,,,,,,,,,,,,,,,,,,,,,,,,,,,,,,,,,,,,,,,,,,,,,,,,,,,,,,,,,,,,,,,738.539565400104,None,5428.42020716524,-1.575618045532019,0.00011422816130147423,1,"[0.7401033479029077, 0.504877993590396, 0.41494347469113996, 0.6877705803742769]","[3419.6904433410864, 3838.4727396166236, 4308.539973689766, 4836.172604090627]",Tone,"[3.0, 2.794586337472524, 3.3925430880429674, 4.216817147160892]",False,739.5566856000805,742.2497299000388,742.2497299000388,743.471289100009,['space'],1,[0.34691289998590946],3.3639801999088377,4.372689299867488,None,1,None,1,,,,,,,,,,,,wfoooa,001,fr,0,0,2022-05-04_11h35.25.053,Cluster,2022.1.1,35.60301357442,
,,,,5,0,5,0,0,0,0,0,,,none,,,,,,,,,,,,,,,,,,,,,,,,,,,,,,,,,,,,,,,,,,,,,,,,,,,,,,,,,,,,,,,,,,,,,,,,,,,,,,,,,,,,,,,,,,,,,,,,,,,,,,,,,,,,,,,,,,,772.3363212000113,None,1741.101126592249,3.0,8.916176375089286e-05,1,"[0.692465491866012, 0.5838374495286348, 0.7084299097716129, 0.4063409763290468]","[241.4435891558616, 1270.1692774482808, 567.5417076420096, 2365.8618366311625]",None,"[9.0, 9.308165133595097, 9.60681891020138, 7.0]",False,773.3446178000886,776.3646735000657,776.3646735000657,777.5850731000537,['space'],1,[0.458508399897255],3.4134930999716744,4.417205100064166,None,1,None,1,,"{'estimation': [[125.0, 6.527180284793111], [133.9716828170366, 6.09885404287267], [135.098305494334, 6.0], [143.5872943746293, 5.2919308959815154], [146.1721674571925, 5.0], [153.89305166811442, 4.155952426120838], [155.12644094185467, 4.0], [163.17923264171066, 3.0], [164.93848884661162, 2.7962030978575814], [171.37705119339526, 2.0], [176.77669529663666, 1.3737917546492229], [180.24300428897035, 1.0], [189.46457081379947, 0.04192922214054651], [189.97856192265655, 0.0], [202.55122755944794, -1.0], [203.0630990890585, -1.0395733059934396], [217.6376408240306, -1.745810979519863], [232.01352917929003, -2.0], [233.25824788420132, -2.022542270658226], [235.76621862045053, -2.0], [249.99999999999937, -1.8805556215565207], [267.94336563407256, -1.409370620957958], [279.1020268985034, -1.0], [287.1745887492579, -0.7185746491879427], [306.82476145788934, 0.0], [307.78610333622805, 0.03421024370045245], [329.87697769322244, 0.7220318623080236], [341.47511218969, 1.0], [353.55339059327247, 1.2823639804388793], [378.9291416275985, 1.6717317357702575], [406.12619817811606, 1.9345657292436305], [415.97969431676944, 2.0], [435.2752816480601, 2.1214593956864523], [466.5164957684015, 2.288926116515274], [499.9999999999975, 2.4789081639660626], [535.8867312681438, 2.6979170792643794], [574.3491774985151, 2.919773425474814], [593.054354037841, 3.0], [615.5722066724546, 3.0917037633412763], [659.7539553864432, 3.1576794875739393], [707.1067811865431, 3.0869488063325377], [727.7506339072559, 3.0], [757.8582832551932, 2.8756731481264732], [812.2523963562301, 2.565062081494849], [870.5505632961181, 2.2125564242346387], [910.0150662466123, 2.0], [933.0329915368008, 1.8807929623779196], [999.9999999999926, 1.6515812826153675], [1071.773462536285, 1.5707444477448087], [1148.698354997026, 1.6522990863026774], [1231.1444133449047, 1.878471760066481], [1264.2685692228824, 2.0], [1319.5079107728832, 2.2003822717982793], [1414.2135623730828, 2.5309203207478945], [1515.7165665103846, 2.7947985564267386], [1624.5047927124563, 2.9245163186524645], [1741.1011265922318, 2.8712148352007514], [1866.065983073597, 2.620342815919007], [1999.9999999999802, 2.1809062705895], [2040.6066350078195, 2.0], [2143.5469250725646, 1.5753849447426205], [2262.7491741225726, 1.0], [2297.396709994046, 0.8438960739974553], [2462.2888266898062, 0.025516347722080668], [2467.1108195394186, 0.0], [2639.01582154576, -0.854601939248107], [2668.4131716001075, -1.0], [2828.427124746159, -1.7668559127558505], [2880.2279272759874, -2.0], [3031.4331330207615, -2.6715663683980186], [3115.2843555620507, -3.0], [3249.0095854249043, -3.51881440317611], [3402.693476286258, -4.0], [3482.2022531844555, -4.247269304265262], [3732.1319661471844, -4.788741203221336], [3906.0178813383, -5.0], [3999.999999999946, -5.112549929112589], [4287.093850145118, -5.1907979243478355], [4594.793419988081, -5.0430182485014745], [4637.053144849092, -5.0], [4924.577653379601, -4.7375841687643705], [5278.031643091513, -4.366976023658496], [5656.854249492303, -4.008710303122454], [5669.873036456208, -4.0], [6062.866266041501, -3.758186187339104], [6498.019170849792, -3.654916248574685], [6964.404506368894, -3.6920920794454797], [7464.2639322943505, -3.8261217028008594], [7999.999999999882, -3.986244272451743]], 'plus_line': [[125.0, 4.111134820605084], [127.66202410059606, 4.0], [133.9716828170366, 3.72411338058489], [142.63298014285758, 3.0000000000000004], [143.5872943746293, 2.918354018938709], [151.68027991104367, 2.0], [153.89305166811442, 1.7635800644665367], [159.90537444287426, 1.0], [164.93848884661162, 0.4243466698734729], [168.3494139068048, 0.0], [176.77669529663666, -0.9557993052741768], [177.18424164356708, -1.0], [186.26447683921842, -2.0], [189.46457081379947, -2.317291741287772], [197.5490047577609, -3.0], [203.0630990890585, -3.4503580004534324], [213.61658616703974, -4.0], [217.6376408240306, -4.2223790408466], [233.25824788420132, -4.558974732600015], [249.99999999999937, -4.430675221296829], [264.34268065433065, -4.0], [267.94336563407256, -3.9063671026333178], [287.1745887492579, -3.1952636689189826], [292.0618818652836, -3.0], [307.78610333622805, -2.4352045856582523], [321.3180137600949, -2.0], [329.87697769322244, -1.750125479166757], [353.55339059327247, -1.2477082651564944], [370.7622470642853, -1.0], [378.929141627598, -0.8981186390477173], [406.12619817811606, -0.695975723744696], [435.2752816480601, -0.532949113789911], [466.5164957684015, -0.3447806565621436], [499.9999999999975, -0.09073450680878307], [510.1751245038041, 0.0], [535.8867312681438, 0.18415620551699363], [574.3491774985143, 0.44201483318527146], [615.5722066724546, 0.6380729686534399], [659.7539553864432, 0.7044923345002134], [707.1067811865431, 0.6062813143971502], [757.8582832551941, 0.3690291430907876], [812.2523963562301, 0.05503656191661688], [821.5174811399146, 0.0], [870.5505632961181, -0.3149885757653546], [933.0329915368008, -0.6102416881608277], [999.9999999999926, -0.7947476092656125], [1071.773462536285, -0.8597841716360362], [1148.698354997026, -0.8034674079767042], [1231.1444133449063, -0.630105702811178], [1319.5079107728832, -0.356814047282797], [1414.2135623730828, -0.025874898435193118], [1423.1248478321952, 0.0], [1515.7165665103846, 0.2231156917240028], [1624.5047927124563, 0.34058960095285185], [1741.1011265922318, 0.2768804035057497], [1866.065983073597, 0.02967015128723116], [1875.3744303337032, 0.0], [1999.9999999999827, -0.41374793608075394], [2143.5469250725646, -0.9353877911849161], [2158.38174684065, -1.0], [2297.396709994046, -1.5939956203260568], [2386.9364050601425, -2.0], [2462.2888266898062, -2.3395709980396475], [2599.813613224687, -3.0], [2639.0158215457564, -3.188216856104498], [2801.8549447760547, -4.0], [2828.427124746159, -4.132592179915072], [3008.5429300218575, -5.0], [3031.4331330207615, -5.1109397680414], [3242.2647394927226, -6.000000000000001], [3249.0095854249043, -6.029099440499039], [3482.2022531844555, -6.828008277282545], [3557.223175973308, -7.0], [3732.1319661471844, -7.4271025362758], [3999.9999999999504, -7.749954156780055], [4287.093850145118, -7.802938904809311], [4594.793419988081, -7.609812981459032], [4924.577653379601, -7.207093243155178], [5059.685883100132, -7.0], [5278.031643091506, -6.7267539473607645], [5656.854249492303, -6.299712043624535], [6053.769826233845, -6.0], [6062.866266041508, -5.994380634373119], [6498.019170849792, -5.929018249397596], [6778.783577883359, -6.0], [6964.404506368894, -6.057168002579897], [7464.2639322943505, -6.354041692938219], [7999.999999999882, -6.7128111575281375]], 'minus_line': [[125.0, 9.119491838001363], [126.96223017941483, 9.0], [133.9716828170366, 8.642514705864189], [141.28525898050748, 8.0], [143.5872943746293, 7.812264217562242], [150.74398260412988, 7.0], [153.89305166811442, 6.652025636200067], [158.9696596115108, 6.0], [164.93848884661162, 5.216973768817633], [166.64267963722327, 5.0], [174.2875759834982, 4.0], [176.77669529663655, 3.6944403959502425], [183.1222671367358, 3.0], [189.46457081379947, 2.3016286038953595], [193.12312400601124, 2.0], [203.0630990890585, 1.2051541839324573], [207.1670685794769, 1.0], [217.6376408240306, 0.5299778412861424], [233.25824788420132, 0.2854072111701068], [249.99999999999937, 0.44135584253212046], [267.94336563407256, 0.8919803018692333], [270.9612631028911, 1.0], [287.1745887492579, 1.5836183884083743], [298.567652507627, 2.0], [307.78610333622805, 2.3448796873155917], [328.3288007268355, 3.0], [329.87697769322244, 3.052241897484962], [353.55339059327247, 3.671381071856745], [373.09737374314295, 4.0], [378.929141627598, 4.108821154343273], [406.12619817811606, 4.415583749216626], [435.2752816480607, 4.603418322613416], [466.5164957684015, 4.747812911493345], [499.9999999999975, 4.898919998963926], [519.9402768317404, 5.0], [535.8867312681438, 5.090251318921883], [574.3491774985143, 5.303700651252964], [615.5722066724546, 5.476165881424247], [659.7539553864432, 5.5655714782659444], [707.1067811865431, 5.53679692264058], [757.8582832551941, 5.368507612146238], [812.2523963562301, 5.055523530048903], [820.0154132216928, 5.0], [870.5505632961181, 4.698607761791181], [933.0329915368008, 4.341027882025419], [999.9999999999926, 4.059588989621121], [1044.7213897943689, 4.0], [1071.773462536285, 3.9708832077251373], [1090.3589131517817, 4.0], [1148.698354997026, 4.106724547422354], [1231.1444133449063, 4.423256576217973], [1319.5079107728816, 4.8058934889999145], [1368.5736715416133, 5.0], [1414.2135623730828, 5.202484611858967], [1515.7165665103846, 5.513679896451663], [1624.5047927124563, 5.664887099755445], [1741.101126592234, 5.630790543194336], [1866.065983073597, 5.378796273613437], [1964.0408828528082, 5.0], [1999.9999999999777, 4.879673905026007], [2143.5469250725646, 4.197182653775429], [2176.4258594900275, 4.0], [2297.396709994046, 3.3574517521271856], [2357.1999996307386, 3.0], [2462.2888266898062, 2.4313727895914674], [2540.3308474290843, 2.0], [2639.01582154576, 1.4950384869020454], [2739.9437951291543, 1.0], [2828.427124746159, 0.5897536870890858], [2965.258118805749, 0.0], [3031.4331330207615, -0.27286208104653764], [3226.5208515844893, -1.0], [3249.0095854249043, -1.0802409957342811], [3482.2022531844555, -1.7623387854446775], [3583.076080479214, -2.0], [3732.1319661471844, -2.3083487528912654], [3999.9999999999504, -2.6423680136025256], [4287.093850145118, -2.7665550395472316], [4594.7934199880865, -2.688005237870653], [4924.577653379601, -2.4725059755618117], [5278.031643091506, -2.1984188060205163], [5541.528429007249, -2.0], [5656.854249492303, -1.904254741236155], [6062.866266041501, -1.6419045785692559], [6498.019170849792, -1.4840610635305875], [6964.4045063688845, -1.4220893096463043], [7464.2639322943505, -1.4105970964480252], [7999.999999999872, -1.3665570129273652]]}",,,,,,,,,,wfoooa,001,fr,0,0,2022-05-04_11h35.25.053,Cluster,2022.1.1,35.60301357442,
,,,,5,0,5,0,1,0,1,0,,,both,,,,,,,,,,,,,,,,,,,,,,,,,,,,,,,,,,,,,,,,,,,,,,,,,,,,,,,,,,,,,,,,,,,,,,,,,,,,,,,,,,,,,,,,,,,,,,,,,,,,,,,,,,,,,,,,,,,777.8028226000024,None,3031.4331330207992,-6.0,2.89679182090381e-05,0,"[0.6406785281890153, 0.6406785281890153, 0.6406785281890153, 0.6406785281890153]","[601.5125180410589, 901.2504626108312, 1350.3499461681913, 2023.238880603847]",Perfect_5th,"[9.006826678762522, 8.0, 9.554482866438688, 8.816716895979171]",False,778.8250793000916,781.7856083000079,781.7856083000079,783.0113801000407,None,0,,3.601534199900925,4.641895399894565,None,1,None,1,,,,,,,,,,,,wfoooa,001,fr,0,0,2022-05-04_11h35.25.053,Cluster,2022.1.1,35.60301357442,
,,,,5,0,5,0,2,0,2,0,,,time,,,,,,,,,,,,,,,,,,,,,,,,,,,,,,,,,,,,,,,,,,,,,,,,,,,,,,,,,,,,,,,,,,,,,,,,,,,,,,,,,,,,,,,,,,,,,,,,,,,,,,,,,,,,,,,,,,,783.5053805999923,None,772.9632811479275,1.8734158665789793,4.912895755870452e-05,0,"[0.47067905571827673, 0.47067905571827673, 0.47067905571827673, 0.47067905571827673]","[3840.5752826300845, 138.19241968338648, 943.2097993076992, 557.553408876831]",None,"[2.794586337472524, 8.0, 8.049372301284269, 10.0]",False,784.5255273000803,786.9778138000984,786.9778138000984,788.1807947000489,None,0,,2.889741699793376,3.9101914998609573,None,1,None,1,,,,,,,,,,,,wfoooa,001,fr,0,0,2022-05-04_11h35.25.053,Cluster,2022.1.1,35.60301357442,
,,,,5,0,5,0,3,0,3,0,,,frequency,,,,,,,,,,,,,,,,,,,,,,,,,,,,,,,,,,,,,,,,,,,,,,,,,,,,,,,,,,,,,,,,,,,,,,,,,,,,,,,,,,,,,,,,,,,,,,,,,,,,,,,,,,,,,,,,,,,788.4998021000065,None,,,,,"[0.7804660041119915, 0.7424060646430888, 0.5642174594389165, 0.7448943489123565]","[190.66034057779095, 214.00899641630988, 240.21697647408448, 269.63443945178534]",Tone,"[7.491982065261169, 8.0, 9.0, 10.047721615129088]",True,789.5260211999994,792.6343458000338,792.6343458000338,793.8467449001037,None,1,,3.8451822999631986,4.8688878999091685,None,1,None,1,0,,,,,,,,,,,wfoooa,001,fr,0,0,2022-05-04_11h35.25.053,Cluster,2022.1.1,35.60301357442,
,,,,5,0,5,0,4,0,4,0,,,time,,,,,,,,,,,,,,,,,,,,,,,,,,,,,,,,,,,,,,,,,,,,,,,,,,,,,,,,,,,,,,,,,,,,,,,,,,,,,,,,,,,,,,,,,,,,,,,,,,,,,,,,,,,,,,,,,,,794.4465861000353,None,535.8867312681471,2.0,8.289564896821243e-05,1,"[0.5327613518428794, 0.5327613518428794, 0.5327613518428794, 0.5327613518428794]","[293.14798555066443, 249.37452545701694, 1591.819681495795, 7949.944590415301]",None,"[11.0, 9.385401044056934, 9.748528716308854, 2.0]",False,795.4887580000795,798.102741300012,798.102741300012,799.3219769001007,['space'],1,[0.5256260000169277],3.148666799883358,4.158490999951027,None,1,None,1,,,,,,,,,,,,wfoooa,001,fr,0,0,2022-05-04_11h35.25.053,Cluster,2022.1.1,35.60301357442,
,,,,5,0,5,0,5,0,5,0,,,both,,,,,,,,,,,,,,,,,,,,,,,,,,,,,,,,,,,,,,,,,,,,,,,,,,,,,,,,,,,,,,,,,,,,,,,,,,,,,,,,,,,,,,,,,,,,,,,,,,,,,,,,,,,,,,,,,,,799.6951538000721,None,7222.015379855825,-3.0,0.00011182461030483246,1,"[0.4564542531841736, 0.4564542531841736, 0.4564542531841736, 0.4564542531841736]","[1433.0293514142068, 2147.118018595907, 3217.0421221516854, 4820.116978230248]",Perfect_5th,"[9.720261633119645, 8.201577190156675, 3.1903858144161164, 4.0]",False,800.7076320000924,803.1098598000826,803.1098598000826,804.3243733000709,['space'],1,[0.39624929998535663],2.8358340999111533,3.8400692999130115,None,1,None,1,,,,,,,,,,,,wfoooa,001,fr,0,0,2022-05-04_11h35.25.053,Cluster,2022.1.1,35.60301357442,
,,,,5,0,5,0,6,0,6,0,,,time,,,,,,,,,,,,,,,,,,,,,,,,,,,,,,,,,,,,,,,,,,,,,,,,,,,,,,,,,,,,,,,,,,,,,,,,,,,,,,,,,,,,,,,,,,,,,,,,,,,,,,,,,,,,,,,,,,,804.6140167000704,None,,,,,"[0.6720453509933936, 0.6720453509933936, 0.6720453509933936, 0.6720453509933936]","[516.4334358595738, 130.5753616444099, 3258.9995870182897, 3811.475688573382]",None,"[10.89226938530659, 8.301235408887216, 3.1903858144161164, 2.794586337472524]",True,805.6296055000275,808.66781610006,808.66781610006,809.884970700019,None,1,,3.7250887998379767,4.745017399895005,None,1,None,1,0,,,,,,,,,,,wfoooa,001,fr,0,0,2022-05-04_11h35.25.053,Cluster,2022.1.1,35.60301357442,
,,,,5,0,5,0,7,0,7,0,,,time,,,,,,,,,,,,,,,,,,,,,,,,,,,,,,,,,,,,,,,,,,,,,,,,,,,,,,,,,,,,,,,,,,,,,,,,,,,,,,,,,,,,,,,,,,,,,,,,,,,,,,,,,,,,,,,,,,,810.4375996000599,None,4545.866973112458,-2.1710820853386235,9.462780331952779e-05,1,"[0.6619167327584302, 0.6619167327584302, 0.6619167327584302, 0.6619167327584302]","[577.9716891242949, 5701.250090971898, 1349.1858040621817, 1422.7295107644363]",None,"[9.60681891020138, 4.399108917147118, 9.554482866438688, 9.720261633119645]",False,811.4569290000945,814.4822439000709,814.4822439000709,815.6869491999969,['space'],1,[0.4262875000713393],3.6722993998555467,4.689377599861473,None,1,None,1,,,,,,,,,,,,wfoooa,001,fr,0,0,2022-05-04_11h35.25.053,Cluster,2022.1.1,35.60301357442,
,,,,5,0,5,0,8,0,8,0,,,frequency,,,,,,,,,,,,,,,,,,,,,,,,,,,,,,,,,,,,,,,,,,,,,,,,,,,,,,,,,,,,,,,,,,,,,,,,,,,,,,,,,,,,,,,,,,,,,,,,,,,,,,,,,,,,,,,,,,,816.2091951000039,None,406.12619817811805,1.0,8.55441952378509e-05,0,"[0.43802990934471886, 0.415395354006577, 0.6607912023463909, 0.719895333136069]","[161.17128855494758, 203.06309908905908, 255.84347299919395, 322.34257710989505]",Major_3rd,"[7.443600666896941, 7.766580179906163, 9.385401044056934, 11.760367223652612]",False,817.2387772999937,819.7810852000257,819.7810852000257,821.006558699999,None,0,,3.270915500004776,4.273654099903069,None,1,None,1,,,,,,,,,,,,wfoooa,001,fr,0,0,2022-05-04_11h35.25.053,Cluster,2022.1.1,35.60301357442,
,,,,5,0,5,0,9,0,9,0,,,time,,,,,,,,,,,,,,,,,,,,,,,,,,,,,,,,,,,,,,,,,,,,,,,,,,,,,,,,,,,,,,,,,,,,,,,,,,,,,,,,,,,,,,,,,,,,,,,,,,,,,,,,,,,,,,,,,,,821.5514398000669,None,176.7766952966369,-5.0,0.00019683126003941905,1,"[0.733445104990947, 0.733445104990947, 0.733445104990947, 0.733445104990947]","[287.90645356861506, 679.0830626319769, 2119.624054848523, 127.22741957497358]",None,"[10.694876538956837, 8.494012819045984, 8.201577190156675, 8.62199949978356]",False,822.5817300000926,825.8154197999975,825.8154197999975,827.0511391001055,['space'],1,[0.45007619995158166],3.963488499983214,4.975941000040621,None,1,None,1,,,,,,,,,,,,wfoooa,001,fr,0,0,2022-05-04_11h35.25.053,Cluster,2022.1.1,35.60301357442,
,,,,5,0,5,0,10,0,10,0,,,frequency,,,,,,,,,,,,,,,,,,,,,,,,,,,,,,,,,,,,,,,,,,,,,,,,,,,,,,,,,,,,,,,,,,,,,,,,,,,,,,,,,,,,,,,,,,,,,,,,,,,,,,,,,,,,,,,,,,,827.6026744000847,None,305.75789218990195,5.28986005276826,0.000199329508378888,1,"[0.5773675508220635, 0.6165939569017869, 0.7049983108606399, 0.5323922016572087]","[1540.923218166179, 1028.442861912081, 686.4032599084676, 458.1192136790275]",Perfect_5th,"[9.790007724829989, 8.328435085231524, 8.114754943661183, 11.461726883648712]",False,828.5952451000921,831.5254971000832,831.5254971000832,832.7566765000811,['space'],1,[0.41392399999313056],3.4577050999505445,4.482306099962443,None,1,None,1,,,,,,,,,,,,wfoooa,001,fr,0,0,2022-05-04_11h35.25.053,Cluster,2022.1.1,35.60301357442,
,,,,5,0,5,0,11,0,11,0,,,time,,,,,,,,,,,,,,,,,,,,,,,,,,,,,,,,,,,,,,,,,,,,,,,,,,,,,,,,,,,,,,,,,,,,,,,,,,,,,,,,,,,,,,,,,,,,,,,,,,,,,,,,,,,,,,,,,,,833.1427190999966,None,237.3884426170238,3.0,0.00027147722547011713,1,"[0.5450102243449606, 0.5450102243449606, 0.5450102243449606, 0.5450102243449606]","[140.93269036776678, 171.836546466822, 3991.478971037718, 901.0483149202939]",None,"[8.0, 7.3852636021574884, 3.0, 8.0]",False,834.1639231001027,836.8142902000109,836.8142902000109,838.0301824000198,['space'],1,[0.47803130000829697],3.1851798999123275,4.219941799994558,None,1,None,1,,,,,,,,,,,,wfoooa,001,fr,0,0,2022-05-04_11h35.25.053,Cluster,2022.1.1,35.60301357442,
,,,,5,0,5,0,12,0,12,0,,,frequency,,,,,,,,,,,,,,,,,,,,,,,,,,,,,,,,,,,,,,,,,,,,,,,,,,,,,,,,,,,,,,,,,,,,,,,,,,,,,,,,,,,,,,,,,,,,,,,,,,,,,,,,,,,,,,,,,,,838.4493794000009,None,812.2523963562351,4.0,6.136121645635344e-05,0,"[0.6765228387632665, 0.5187988184150094, 0.6089251947919423, 0.4202673437644627]","[1289.3703084395788, 1148.6983549970346, 1023.3738919967744, 911.7224885582164]",Tone,"[9.554482866438688, 8.993365263396424, 8.328435085231524, 8.0]",False,839.4883467000909,842.3042477000272,842.3042477000272,843.5134850000031,None,0,,3.2609082999406382,4.288870199932717,None,1,None,1,,,,,,,,,,,,wfoooa,001,fr,0,0,2022-05-04_11h35.25.053,Cluster,2022.1.1,35.60301357442,
,,,,5,0,5,0,13,0,13,0,,,time,,,,,,,,,,,,,,,,,,,,,,,,,,,,,,,,,,,,,,,,,,,,,,,,,,,,,,,,,,,,,,,,,,,,,,,,,,,,,,,,,,,,,,,,,,,,,,,,,,,,,,,,,,,,,,,,,,,843.825552900089,None,1741.101126592249,-3.0,4.4686737719638414e-05,0,"[0.5732045443477216, 0.5732045443477216, 0.5732045443477216, 0.5732045443477216]","[227.33699045081858, 306.96582146994206, 2207.0398841966153, 1423.893407527911]",None,"[8.749208672221705, 11.28986005276826, 8.0, 9.720261633119645]",False,844.8958922000602,847.6386329000816,847.6386329000816,848.8453425000189,None,0,,3.327119199791923,4.338129099807702,None,1,None,1,,,,,,,,,,,,wfoooa,001,fr,0,0,2022-05-04_11h35.25.053,Cluster,2022.1.1,35.60301357442,
,,,,5,0,5,0,14,0,14,0,,,both,,,,,,,,,,,,,,,,,,,,,,,,,,,,,,,,,,,,,,,,,,,,,,,,,,,,,,,,,,,,,,,,,,,,,,,,,,,,,,,,,,,,,,,,,,,,,,,,,,,,,,,,,,,,,,,,,,,849.2825789999915,None,125.0,-6.0,0.00036221798003749513,0,"[0.45720566823788333, 0.45720566823788333, 0.45720566823788333, 0.45720566823788333]","[314.9802624737183, 250.00000000000003, 198.42513149602496, 157.49013123685916]",Major_3rd,"[11.28986005276826, 9.385401044056934, 7.766580179906163, 7.643464056059555]",False,850.3114206000464,852.700667600031,852.700667600031,853.915458100033,None,0,,2.8513103999430314,3.8732186999404803,None,1,None,1,,,,,,,,,,,,wfoooa,001,fr,0,0,2022-05-04_11h35.25.053,Cluster,2022.1.1,35.60301357442,
,,,,5,0,5,0,15,0,15,0,,,time,,,,,,,,,,,,,,,,,,,,,,,,,,,,,,,,,,,,,,,,,,,,,,,,,,,,,,,,,,,,,,,,,,,,,,,,,,,,,,,,,,,,,,,,,,,,,,,,,,,,,,,,,,,,,,,,,,,854.2322673000162,None,246.40108547120758,3.385401044056934,0.0002577206931954326,1,"[0.7988477853589969, 0.7988477853589969, 0.7988477853589969, 0.7988477853589969]","[1939.1680887571893, 310.62494408390586, 1886.8271129529232, 1035.6098242464805]",None,"[9.0, 11.28986005276826, 9.283066987268136, 8.328435085231524]",False,855.2336971000768,858.6504544999916,858.6504544999916,859.8589319000021,['space'],1,[0.484596399939619],4.207162599894218,5.2371079998556525,None,1,None,1,,,,,,,,,,,,wfoooa,001,fr,0,0,2022-05-04_11h35.25.053,Cluster,2022.1.1,35.60301357442,
,,,,5,0,5,0,16,0,16,0,,,frequency,,,,,,,,,,,,,,,,,,,,,,,,,,,,,,,,,,,,,,,,,,,,,,,,,,,,,,,,,,,,,,,,,,,,,,,,,,,,,,,,,,,,,,,,,,,,,,,,,,,,,,,,,,,,,,,,,,,860.5324490000494,None,6515.191551771864,-2.3560289802693855,0.00010409494797377729,0,"[0.5928445247207141, 0.6551779512862327, 0.44115798401212525, 0.6088444246644665]","[2585.5554807642466, 3257.595775885933, 4104.313490087308, 5171.110961528492]",Major_3rd,"[6.0, 3.1903858144161164, 3.0096827171514975, 4.4243819544679805]",False,861.5430363001069,864.2685958000366,864.2685958000366,865.4869904000079,None,0,,3.305487099918537,4.311871799873188,None,1,None,1,,,,,,,,,,,,wfoooa,001,fr,0,0,2022-05-04_11h35.25.053,Cluster,2022.1.1,35.60301357442,
