tTrials.thisRepN,tTrials.thisTrialN,tTrials.thisN,tTrials.thisIndex,blocks.thisRepN,blocks.thisTrialN,blocks.thisN,blocks.thisIndex,trials.thisRepN,trials.thisTrialN,trials.thisN,trials.thisIndex,tStart_text.started,tStart_text.stopped,Prediction,practice_Frequency,practice_Level,practice_Psychopy_Level,practice_isCatchTrial,Practice_trial_detection,practice_Cue_Delays,practice_Cue_Frequencies,practice_Interval,practice_Cue_Intensities,tCue_visual_cue.started,tCue_visual_cue.stopped,tProbe_visual_cue.started,tProbe_visual_cue.stopped,tFeedback.keys,tFeedback.corr,tFeedback.rt,tFeedback.started,tFeedback.stopped,tToo_late.keys,tToo_late.corr,tToo_early.keys,tToo_early.corr,more_instructions.started,more_instructions.stopped,readyy.keys,readyy.rt,readyy.started,readyy.stopped,txt_rhythm.started,txt_rhythm.stopped,sound_1.started,sound_1.stopped,sound_2.started,sound_2.stopped,sound_3.started,sound_3.stopped,sound_4.started,sound_4.stopped,cross.started,cross.stopped,sound_5.started,sound_5.stopped,circle.started,circle.stopped,rhythm_ready.keys,rhythm_ready.rt,rhythm_ready.started,rhythm_ready.stopped,rhytm_ready_txt.started,rhytm_ready_txt.stopped,txt_freq.started,txt_freq.stopped,sound_6.started,sound_6.stopped,sound_7.started,sound_7.stopped,sound_8.started,sound_8.stopped,sound_9.started,sound_9.stopped,cross_2.started,cross_2.stopped,sound_10.started,sound_10.stopped,circle_2.started,circle_2.stopped,freq_ready.keys,freq_ready.rt,freq_ready.started,freq_ready.stopped,freq_ready_txt.started,freq_ready_txt.stopped,txt_freq_2.started,txt_freq_2.stopped,sound_11.started,sound_11.stopped,sound_12.started,sound_12.stopped,sound_13.started,sound_13.stopped,sound_14.started,sound_14.stopped,cross_3.started,cross_3.stopped,sound_15.started,sound_15.stopped,circle_3.started,circle_3.stopped,freq_ready_2.keys,freq_ready_2.rt,freq_ready_2.started,freq_ready_2.stopped,freq_ready_txt_2.started,freq_ready_txt_2.stopped,txt_freq_3.started,txt_freq_3.stopped,sound_16.started,sound_16.stopped,sound_17.started,sound_17.stopped,sound_18.started,sound_18.stopped,sound_19.started,sound_19.stopped,cross_4.started,cross_4.stopped,sound_20.started,sound_20.stopped,circle_4.started,circle_4.stopped,freq_ready_txt_3.started,freq_ready_txt_3.stopped,tStart_text_2.started,tStart_text_2.stopped,this_trial_is.started,this_trial_is.stopped,Frequency,Level,Psychopy_Level,Real trial detection,Cue Delays,Cue Frequencies,Interval,Cue Intensities,Catch trial,cue_visual_cue.started,cue_visual_cue.stopped,probe_visual_cue.started,probe_visual_cue.stopped,feedback.keys,feedback.corr,feedback.started,feedback.stopped,answer_too_late.keys,answer_too_late.corr,answer_too_early.keys,answer_too_early.corr,answer_too_early.rt,feedback.rt,Catch trial answer,Audiogram_none,Audiogram_frequency,Audiogram_time,Audiogram_both,participant,session,Language (english or french),Skip training? (1 for yes),Resume previous experiment,date,expName,psychopyVersion,frameRate,
0,0,0,0,,,,,,,,,22.73740589991212,None,frequency,1000,30,0.0013930605843148849,False,1,"[0.7579010634283218, 0.41950057350043407, 0.6800680924533231, 0.5423233469231111]","[1587.4010519682001, 1414.2135623730956, 1259.9210498948735, 1122.4620483093731]",Tone,"[30, 30, 30, 30]",43.15104710008018,45.93118830001913,45.93118830001913,47.13928180001676,['space'],1,[0.5198262000922114],45.93118830001913,47.70035049994476,None,1,None,1,,,,,,,,,,,,,,,,,,,,,,,,,,,,,,,,,,,,,,,,,,,,,,,,,,,,,,,,,,,,,,,,,,,,,,,,,,,,,,,,,,,,,,,,,,,,,,,,,,,,,,,,,,,,,,,,,,,,,,,,,,,nunamh,001,fr,0,0,2022-05-17_11h14.45.197,Cluster,2022.1.1,None,
1,0,1,0,,,,,,,,,,,both,2500,30,0.002716251657462167,False,1,"[0.502588611597292, 0.502588611597292, 0.502588611597292, 0.502588611597292]","[6299.605249474367, 5000.000000000001, 3968.502629920499, 3149.802624737183]",Major_3rd,"[30, 30, 30, 30]",54.25758139998652,56.70663870009594,56.70663870009594,57.90944870002568,['space'],1,[0.3742588998284191],56.70663870009594,58.428608800051734,None,1,None,1,,,,,,,,,,,,,,,,,,,,,,,,,,,,,,,,,,,,,,,,,,,,,,,,,,,,,,,,,,,,,,,,,,,,,,,,,,,,,,,,,,,,,,,,,,,,,,,,,,,,,,,,,,,,,,,,,,,,,,,,,,,nunamh,001,fr,0,0,2022-05-17_11h14.45.197,Cluster,2022.1.1,None,
2,0,2,0,,,,,,,,,,,none,6000,30,0.003664122665694519,True,1,"[0.7484876497897321, 0.7299555532808595, 0.4949730844740962, 0.5057210243007007]","[252.27307683762984, 283.2732156119742, 7319.550648386844, 1014.9013695582211]",None,"[30, 30, 30, 30]",61.39332129992545,64.30361540010199,64.30361540010199,65.52995879994705,None,1,,64.30361540010199,66.02586579998024,None,1,None,1,,,,,,,,,,,,,,,,,,,,,,,,,,,,,,,,,,,,,,,,,,,,,,,,,,,,,,,,,,,,,,,,,,,,,,,,,,,,,,,,,,,,,,,,,,,,,,,,,,,,,,,,,,,,,,,,,,,,,,,,,,,nunamh,001,fr,0,0,2022-05-17_11h14.45.197,Cluster,2022.1.1,None,
3,0,3,0,,,,,,,,,,,both,440,30,0.0023562289915021436,False,1,"[0.677407915534167, 0.677407915534167, 0.677407915534167, 0.677407915534167]","[174.614115716502, 220.00000000000006, 277.18263097687213, 349.2282314330039]",Major_3rd,"[30, 30, 30, 30]",73.24840530008078,76.20076190005057,76.20076190005057,77.40680289990269,['space'],1,[0.9284606999717653],76.20076190005057,78.1025404999964,None,1,None,1,,,,,,,,,,,,,,,,,,,,,,,,,,,,,,,,,,,,,,,,,,,,,,,,,,,,,,,,,,,,,,,,,,,,,,,,,,,,,,,,,,,,,,,,,,,,,,,,,,,,,,,,,,,,,,,,,,,,,,,,,,,nunamh,001,fr,0,0,2022-05-17_11h14.45.197,Cluster,2022.1.1,None,
4,0,4,0,,,,,,,,,,,both,250,30,0.005296268625886445,True,1,"[0.5707001245442536, 0.5707001245442536, 0.5707001245442536, 0.5707001245442536]","[1259.9210498948732, 840.8964152537146, 561.2310241546866, 374.5767692191704]",Perfect_5th,"[30, 30, 30, 30]",80.86749400012195,83.48912960011512,83.48912960011512,84.69648299994878,None,1,,83.48912960011512,85.27356799994595,None,1,None,1,,,,,,,,,,,,,,,,,,,,,,,,,,,,,,,,,,,,,,,,,,,,,,,,,,,,,,,,,,,,,,,,,,,,,,,,,,,,,,,,,,,,,,,,,,,,,,,,,,,,,,,,,,,,,,,,,,,,,,,,,,,nunamh,001,fr,0,0,2022-05-17_11h14.45.197,Cluster,2022.1.1,None,
,,,,,,,,,,,,,,,,,,,,,,,,,,,,,,,,,,,,,88.31009229994379,None,space,49.467296099988744,88.31009229994379,None,,,,,,,,,,,,,,,,,,,,,,,,,,,,,,,,,,,,,,,,,,,,,,,,,,,,,,,,,,,,,,,,,,,,,,,,,,,,,,,,,,,,,,,,,,,,,,,,,,,,,,,,,,,,,,,,,,,,,nunamh,001,fr,0,0,2022-05-17_11h14.45.197,Cluster,2022.1.1,None,
,,,,,,,,,,,,,,,,,,,,,,,,,,,,,,,,,,,,,,,,,,,137.82650940003805,138.83336609997787,139.29261205000802,139.50460750004277,139.78607605006545,139.9971710999962,140.28244045008904,None,140.78095304993911,None,139.20629899995402,141.0031681000255,141.2870207499247,141.4984870001208,141.0031681000255,141.8059938000515,space,1.4550872000399977,141.98596749990247,None,,,,,,,,,,,,,,,,,,,,,,,,,,,,,,,,,,,,,,,,,,,,,,,,,,,,,,,,,,,,,,,,,,,,,,,,,,,,,,,,,,,,,,,,,,,,,,,,,nunamh,001,fr,0,0,2022-05-17_11h14.45.197,Cluster,2022.1.1,None,
,,,,,,,,,,,,,,,,,,,,,,,,,,,,,,,,,,,,,,,,,,,,,,,,,,,,,,,,,,,,,,,141.98596749990247,None,143.49545480008237,144.50782250007614,144.96810814999043,145.19452479993924,145.25347914993762,145.4693011001218,145.9618338500615,146.17501579993404,146.3742348500993,146.59120450005867,144.85575579991564,146.67567200004123,146.9600217501167,147.17197909997776,146.67567200004123,147.48549250001088,space,1.6875495000276715,147.65746170002967,None,,,,,,,,,,,,,,,,,,,,,,,,,,,,,,,,,,,,,,,,,,,,,,,,,,,,,,,,,,,,,,,,,,,,,,,,,,,nunamh,001,fr,0,0,2022-05-17_11h14.45.197,Cluster,2022.1.1,None,
,,,,,,,,,,,,,,,,,,,,,,,,,,,,,,,,,,,,,,,,,,,,,,,,,,,,,,,,,,,,,,,,,,,,,,,,,,,,,,,,,,,,,147.65746170002967,None,149.38863419997506,150.402985899942,150.8645480499137,151.08108390006237,151.36783974994904,151.58121669990942,151.86550244996323,152.08938680007122,152.3454264500644,152.5606883999426,150.7540770000778,152.5606883999426,152.84488295000045,153.06099610007368,152.5606883999426,153.37325559998862,space,1.8592061998788267,153.54967459989712,None,,,,,,,,,,,,,,,,,,,,,,,,,,,,,,,,,,,,,,,,,,,,,,,,,,,,,nunamh,001,fr,0,0,2022-05-17_11h14.45.197,Cluster,2022.1.1,None,
,,,,0,0,0,0,0,0,0,0,,,time,,,,,,,,,,,,,,,,,,,,,,,,,,,,,,,,,,,,,,,,,,,,,,,,,,,,,,,,,,,,,,,,,,,,,,,,,,,,,,,,,,,,,,,,,,,,,153.54967459989712,None,155.4644422000274,156.47157149994746,156.90763804996385,157.11884519993328,157.22809985005296,None,157.91800204995087,None,158.31216884991153,None,156.82208580011502,158.61697470000945,158.9311659499537,159.14650940010324,158.61697470000945,159.43515860009938,159.60767100006342,None,160.6422417999711,None,186.40964079997502,None,165.97737881842167,6.208275013174096,0.0007957121474083559,0,"[0.5746522002427529, 0.5746522002427529, 0.5746522002427529, 0.5746522002427529]","[1525.6170955744726, 717.7725929051032, 356.0774471892924, 843.1889964922439]",None,"[10.562014860488507, 5.236218676588652, 12.784698087435721, 5.81671246552616]",False,187.4197043001186,190.16680189990439,190.16680189990439,191.38906159996986,None,0,3.3361612500157207,4.339495550142601,None,1,['space'],0,[0.3941920001525432],,,,,,,nunamh,001,fr,0,0,2022-05-17_11h14.45.197,Cluster,2022.1.1,None,
,,,,0,0,0,0,1,0,1,0,,,none,,,,,,,,,,,,,,,,,,,,,,,,,,,,,,,,,,,,,,,,,,,,,,,,,,,,,,,,,,,,,,,,,,,,,,,,,,,,,,,,,,,,,,,,,,,,,,,,,,,,,,,,,,,,,,,,,,,191.79417119990103,None,262.52475959581466,6.652210799972767,0.00033169123514790197,0,"[0.7768706905270497, 0.48065406489486096, 0.5061073136580274, 0.46513789094749164]","[779.0838265833413, 243.64550503140964, 1124.0608907427181, 1096.5247907209207]",None,"[5.16241742518486, 12.341250460895301, 8.975157741519983, 8.162925942570439]",False,192.79804180003703,195.59321309998631,195.59321309998631,196.81880269991234,None,0,3.2701264501083642,4.288750450126827,None,1,['space'],0,[0.34337369981221855],,,,,,,nunamh,001,fr,0,0,2022-05-17_11h14.45.197,Cluster,2022.1.1,None,
,,,,0,0,0,0,2,0,2,0,,,frequency,,,,,,,,,,,,,,,,,,,,,,,,,,,,,,,,,,,,,,,,,,,,,,,,,,,,,,,,,,,,,,,,,,,,,,,,,,,,,,,,,,,,,,,,,,,,,,,,,,,,,,,,,,,,,,,,,,,197.11204160004854,None,5958.19853405341,-13.148902913724053,2.58383301696647e-05,0,"[0.40470129551999157, 0.7453008958632212, 0.40913939083625933, 0.726920319004376]","[1182.256327598971, 1771.3830223237744, 2654.075718206916, 3976.620431155983]",Perfect_5th,"[9.0, 10.841202016064528, 12.254883937865648, -2.0]",False,198.12551510008052,200.72309540002607,200.72309540002607,201.93277610000223,None,0,3.31769905006513,4.334022450027987,None,1,['space'],0,[0.3819597000256181],,,,,,,nunamh,001,fr,0,0,2022-05-17_11h14.45.197,Cluster,2022.1.1,None,
,,,,0,0,0,0,3,0,3,0,,,both,,,,,,,,,,,,,,,,,,,,,,,,,,,,,,,,,,,,,,,,,,,,,,,,,,,,,,,,,,,,,,,,,,,,,,,,,,,,,,,,,,,,,,,,,,,,,,,,,,,,,,,,,,,,,,,,,,,202.48603689996526,None,6091.604875636251,-13.0,2.6906481917313465e-05,1,"[0.6815990417310978, 0.6815990417310978, 0.6815990417310978, 0.6815990417310978]","[1208.7274984699495, 1811.0449649729735, 2713.501487560888, 4065.6584819278814]",Perfect_5th,"[9.649313447323593, 11.0, 12.0, -3.0]",False,203.48155510006472,206.56375809991732,206.56375809991732,207.7841789999511,['space'],1,3.76135704992339,4.775529050035402,None,1,None,1,,[0.02913709986023605],,,,,,nunamh,001,fr,0,0,2022-05-17_11h14.45.197,Cluster,2022.1.1,None,
,,,,0,0,0,0,4,0,4,0,,,time,,,,,,,,,,,,,,,,,,,,,,,,,,,,,,,,,,,,,,,,,,,,,,,,,,,,,,,,,,,,,,,,,,,,,,,,,,,,,,,,,,,,,,,,,,,,,,,,,,,,,,,,,,,,,,,,,,,208.28011799999513,None,353.5533905932738,-2.0,7.038727582816145e-05,1,"[0.7823849362175779, 0.7823849362175779, 0.7823849362175779, 0.7823849362175779]","[5419.477764871378, 156.5491463543163, 761.1309755343232, 281.01926455658236]",None,"[-8.44087783935553, 12.880741781152295, 5.16241742518486, 12.884343599480179]",False,209.30738719995134,212.67818420007825,212.67818420007825,213.89483770006336,['space'],1,4.137506450060755,5.147067449986935,None,1,None,1,,[0.062106600031256676],,,,,,nunamh,001,fr,0,0,2022-05-17_11h14.45.197,Cluster,2022.1.1,None,
,,,,0,0,0,0,5,0,5,0,,,both,,,,,,,,,,,,,,,,,,,,,,,,,,,,,,,,,,,,,,,,,,,,,,,,,,,,,,,,,,,,,,,,,,,,,,,,,,,,,,,,,,,,,,,,,,,,,,,,,,,,,,,,,,,,,,,,,,,214.5028280999977,None,,,,,"[0.4037019232332198, 0.4037019232332198, 0.4037019232332198, 0.4037019232332198]","[6657.7185799663275, 5931.352948631121, 5284.234738773387, 4707.717955125861]",Tone,"[-5.0, -7.1489029137240525, -8.44087783935553, -7.0]",True,215.4889996999409,217.7196289000567,217.7196289000567,218.94066309998743,['space'],0,2.6469143501017243,3.6643513501621783,None,1,None,1,,[0.0651738999877125],0,,,,,nunamh,001,fr,0,0,2022-05-17_11h14.45.197,Cluster,2022.1.1,None,
,,,,0,0,0,0,6,0,6,0,,,both,,,,,,,,,,,,,,,,,,,,,,,,,,,,,,,,,,,,,,,,,,,,,,,,,,,,,,,,,,,,,,,,,,,,,,,,,,,,,,,,,,,,,,,,,,,,,,,,,,,,,,,,,,,,,,,,,,,219.17503549996763,None,406.12619817811805,2.0,9.598216571527888e-05,1,"[0.44884211329239476, 0.44884211329239476, 0.44884211329239476, 0.44884211329239476]","[161.17128855494758, 203.06309908905908, 255.84347299919395, 322.34257710989505]",Major_3rd,"[12.208275013174095, 11.489678846650868, 12.341250460895301, 12.977149928426584]",False,220.20139060006477,222.5751944000367,222.5751944000367,223.7899758000858,['space'],1,2.824930150061846,3.839473450090736,None,1,None,1,,[0.2118387999944389],,,,,,nunamh,001,fr,0,0,2022-05-17_11h14.45.197,Cluster,2022.1.1,None,
,,,,0,0,0,0,7,0,7,0,,,none,,,,,,,,,,,,,,,,,,,,,,,,,,,,,,,,,,,,,,,,,,,,,,,,,,,,,,,,,,,,,,,,,,,,,,,,,,,,,,,,,,,,,,,,,,,,,,,,,,,,,,,,,,,,,,,,,,,224.08357760007493,None,378.9291416275994,2.0,0.00010326279949859523,1,"[0.4215240630928292, 0.5986741761854817, 0.7701933131117795, 0.4235537477164393]","[634.9051434198246, 790.1110340124843, 1250.5380383444758, 207.45816741304048]",None,"[6.0, 5.363737063009177, 9.649313447323593, 11.489678846650868]",False,225.10759230004624,227.92440099990927,227.92440099990927,229.12534740008414,['space'],1,3.2235662499442697,4.240839549805969,None,1,None,1,,[0.24227470019832253],,,,,,nunamh,001,fr,0,0,2022-05-17_11h14.45.197,Cluster,2022.1.1,None,
,,,,0,0,0,0,8,0,8,0,,,time,,,,,,,,,,,,,,,,,,,,,,,,,,,,,,,,,,,,,,,,,,,,,,,,,,,,,,,,,,,,,,,,,,,,,,,,,,,,,,,,,,,,,,,,,,,,,,,,,,,,,,,,,,,,,,,,,,,229.40118560008705,None,5378.829016888877,-14.44087783935553,2.631911047794334e-05,1,"[0.6281798602754496, 0.6281798602754496, 0.6281798602754496, 0.6281798602754496]","[236.81951571123153, 1032.9035290557417, 903.8706211047837, 868.7014723278509]",None,"[12.0, 8.0, 6.0, 5.81671246552616]",False,230.40942239994183,233.32004770007916,233.32004770007916,234.54709809995256,['space'],1,3.559725849889219,4.576886849943548,None,1,None,1,,[0.04759019985795021],,,,,,nunamh,001,fr,0,0,2022-05-17_11h14.45.197,Cluster,2022.1.1,None,
,,,,0,0,0,0,9,0,9,0,,,none,,,,,,,,,,,,,,,,,,,,,,,,,,,,,,,,,,,,,,,,,,,,,,,,,,,,,,,,,,,,,,,,,,,,,,,,,,,,,,,,,,,,,,,,,,,,,,,,,,,,,,,,,,,,,,,,,,,235.01947530009784,None,,,,,"[0.42444252360485685, 0.7492203974633711, 0.5421406710052374, 0.7333397940452233]","[1667.9894563393661, 171.10687682127235, 207.26941143586023, 226.29407127678525]",None,"[10.667652715985808, 12.0, 11.489678846650868, 11.994205410041342]",True,236.0202560001053,238.78029470006004,238.78029470006004,239.99753629998304,None,1,3.4966910500079393,4.502578750019893,None,1,['space'],0,[0.3963427001144737],,0,,,,,nunamh,001,fr,0,0,2022-05-17_11h14.45.197,Cluster,2022.1.1,None,
,,,,0,0,0,0,10,0,10,0,,,frequency,,,,,,,,,,,,,,,,,,,,,,,,,,,,,,,,,,,,,,,,,,,,,,,,,,,,,,,,,,,,,,,,,,,,,,,,,,,,,,,,,,,,,,,,,,,,,,,,,,,,,,,,,,,,,,,,,,,240.55046860012226,None,406.12619817811805,2.0,9.598216571527888e-05,1,"[0.728467560167178, 0.6440038503929404, 0.6071449421466251, 0.5130761394659772]","[644.6851542197901, 574.349177498518, 511.68694599838784, 455.86124427910875]",Tone,"[5.583743565933323, 7.0199997600909985, 9.0, 10.105712428777647]",False,241.5724764999468,244.57454670011066,244.57454670011066,245.7991963000968,['space'],1,3.5246888499241322,4.537820050027221,None,1,None,1,,[0.14412609999999404],,,,,,nunamh,001,fr,0,0,2022-05-17_11h14.45.197,Cluster,2022.1.1,None,
,,,,0,0,0,0,11,0,11,0,,,none,,,,,,,,,,,,,,,,,,,,,,,,,,,,,,,,,,,,,,,,,,,,,,,,,,,,,,,,,,,,,,,,,,,,,,,,,,,,,,,,,,,,,,,,,,,,,,,,,,,,,,,,,,,,,,,,,,,246.1515117001254,None,275.13071061385244,6.652210799972767,0.0003029669123017985,1,"[0.7590784757607925, 0.7551080463371843, 0.6520459949069821, 0.69507831875943]","[327.00140052616683, 5111.511989495174, 1682.2970253174317, 1601.2452156024283]",None,"[12.977149928426584, -8.44087783935553, 10.667652715985808, 10.667652715985808]",False,247.1629411999602,250.34163819998503,250.34163819998503,251.54708970012143,['space'],1,3.8848544501233846,4.893032350111753,None,1,None,1,,[0.13552280003204942],,,,,,nunamh,001,fr,0,0,2022-05-17_11h14.45.197,Cluster,2022.1.1,None,
,,,,0,0,0,0,12,0,12,0,,,both,,,,,,,,,,,,,,,,,,,,,,,,,,,,,,,,,,,,,,,,,,,,,,,,,,,,,,,,,,,,,,,,,,,,,,,,,,,,,,,,,,,,,,,,,,,,,,,,,,,,,,,,,,,,,,,,,,,252.09326480003074,None,1444.007846394714,4.417032437983572,8.263113933681005e-05,1,"[0.5651724161166276, 0.5651724161166276, 0.5651724161166276, 0.5651724161166276]","[2292.219574417303, 2042.1354805445696, 1819.335881886063, 1620.8440050390172]",Tone,"[12.55667241725619, 11.616156682525062, 11.0, 10.667652715985808]",False,253.09947660006583,255.8184873999562,255.8184873999562,257.01819199998863,['space'],1,3.2830399498343468,4.295681949937716,None,1,None,1,,[0.18408909998834133],,,,,,nunamh,001,fr,0,0,2022-05-17_11h14.45.197,Cluster,2022.1.1,None,
,,,,0,0,0,0,13,0,13,0,,,frequency,,,,,,,,,,,,,,,,,,,,,,,,,,,,,,,,,,,,,,,,,,,,,,,,,,,,,,,,,,,,,,,,,,,,,,,,,,,,,,,,,,,,,,,,,,,,,,,,,,,,,,,,,,,,,,,,,,,257.43273329990916,None,,,,,"[0.4109152844811274, 0.7894179583490615, 0.51119426977838, 0.6117113338514772]","[2836.5380746214373, 3183.9063373471035, 3573.8140290438237, 4011.4706153173033]",Tone,"[11.175891324766763, 8.0, 3.0, -2.1218966447230265]",True,258.44025090010837,261.16981410002336,261.16981410002336,262.3711208999157,['space'],0,3.3639367499854416,4.371011449955404,None,1,None,1,,[0.6433480000123382],0,,,,,nunamh,001,fr,0,0,2022-05-17_11h14.45.197,Cluster,2022.1.1,None,
,,,,0,0,0,0,14,0,14,0,,,none,,,,,,,,,,,,,,,,,,,,,,,,,,,,,,,,,,,,,,,,,,,,,,,,,,,,,,,,,,,,,,,,,,,,,,,,,,,,,,,,,,,,,,,,,,,,,,,,,,,,,,,,,,,,,,,,,,,262.83717789989896,None,5656.85424949238,-19.0,1.4420594760332665e-05,0,"[0.6205970919811874, 0.7416976100233553, 0.7971692747505521, 0.4577248710150348]","[2953.6985929258562, 271.8681771469517, 923.8552835169346, 343.3579202973664]",None,"[10.0, 12.652210799972767, 6.486717348887886, 12.784698087435721]",False,263.92407670011744,267.1007131000515,267.1007131000515,268.3087299000472,None,0,3.6570740996394306,4.684856599662453,None,1,None,1,,,,,,,,nunamh,001,fr,0,0,2022-05-17_11h14.45.197,Cluster,2022.1.1,None,
,,,,0,0,0,0,15,0,15,0,,,none,,,,,,,,,,,,,,,,,,,,,,,,,,,,,,,,,,,,,,,,,,,,,,,,,,,,,,,,,,,,,,,,,,,,,,,,,,,,,,,,,,,,,,,,,,,,,,,,,,,,,,,,,,,,,,,,,,,268.6260130999144,None,3712.6007891357417,-5.0,4.436601192619895e-05,1,"[0.4985761284035217, 0.5698773073153778, 0.42530806447976016, 0.6907273910882226]","[1130.151525275082, 175.2007406033787, 676.8988814184094, 1996.2668852075399]",None,"[8.975157741519983, 11.72279626284238, 5.583743565933323, 11.616156682525062]",False,269.63586689997464,272.13569279992953,272.13569279992953,273.34363160002977,['space'],1,3.219420050038025,4.229035150026903,None,1,None,1,,[0.08618959994055331],,,,,,nunamh,001,fr,0,0,2022-05-17_11h14.45.197,Cluster,2022.1.1,None,
,,,,0,0,0,0,16,0,16,0,,,none,,,,,,,,,,,,,,,,,,,,,,,,,,,,,,,,,,,,,,,,,,,,,,,,,,,,,,,,,,,,,,,,,,,,,,,,,,,,,,,,,,,,,,,,,,,,,,,,,,,,,,,,,,,,,,,,,,,273.90165330003947,None,615.5722066724584,-1.0,4.760651710325358e-05,1,"[0.6883280349826767, 0.4378038911370179, 0.7111811669942115, 0.5544052605705815]","[285.0595539850841, 614.1127452943654, 2031.732241923418, 4043.9787370915456]",None,"[12.884343599480179, 6.194639860553464, 11.616156682525062, -2.1218966447230265]",False,275.7487610001117,278.62295079999603,278.62295079999603,279.8539344999008,['space'],1,3.405243349960074,4.418825349770486,None,1,None,1,,[0.2432185998186469],,,,,,nunamh,001,fr,0,0,2022-05-17_11h14.45.197,Cluster,2022.1.1,None,
,,,,0,0,0,0,17,0,17,0,,,none,,,,,,,,,,,,,,,,,,,,,,,,,,,,,,,,,,,,,,,,,,,,,,,,,,,,,,,,,,,,,,,,,,,,,,,,,,,,,,,,,,,,,,,,,,,,,,,,,,,,,,,,,,,,,,,,,,,280.20059969997965,None,1643.9652007077864,4.667652715985808,0.00010052748787733567,0,"[0.5339135598828376, 0.47757269596354107, 0.6160722700394508, 0.7332636333616616]","[308.5113397282523, 171.96095783707295, 2531.095285838123, 465.15033522350126]",None,"[13.00264281714749, 12.0, 12.662837838969763, 10.105712428777647]",False,281.20165059994906,283.852493399987,283.852493399987,285.07464240002446,None,0,3.406462350161746,4.430683150188997,None,1,['space'],0,[0.5875442000105977],,,,,,,nunamh,001,fr,0,0,2022-05-17_11h14.45.197,Cluster,2022.1.1,None,
,,,,0,0,0,0,18,0,18,0,,,both,,,,,,,,,,,,,,,,,,,,,,,,,,,,,,,,,,,,,,,,,,,,,,,,,,,,,,,,,,,,,,,,,,,,,,,,,,,,,,,,,,,,,,,,,,,,,,,,,,,,,,,,,,,,,,,,,,,285.6650636999402,None,659.7539553864473,0.0,4.855544497866433e-05,1,"[0.4067438434891363, 0.4067438434891363, 0.4067438434891363, 0.4067438434891363]","[261.8235307051568, 329.87697769322375, 415.6189480713941, 523.6470614103135]",Major_3rd,"[12.652210799972767, 12.977149928426584, 11.823746365296673, 8.00339701779453]",False,286.68082759995013,288.94168419996276,288.94168419996276,290.1777755001094,['space'],1,2.6483462499454618,3.6819984500762075,None,1,None,1,,[0.195797799853608],,,,,,nunamh,001,fr,0,0,2022-05-17_11h14.45.197,Cluster,2022.1.1,None,
,,,,0,0,0,0,19,0,19,0,,,both,,,,,,,,,,,,,,,,,,,,,,,,,,,,,,,,,,,,,,,,,,,,,,,,,,,,,,,,,,,,,,,,,,,,,,,,,,,,,,,,,,,,,,,,,,,,,,,,,,,,,,,,,,,,,,,,,,,290.42008209996857,None,2118.2358389536353,6.0,0.00015449864589996156,1,"[0.5734475446221864, 0.5734475446221864, 0.5734475446221864, 0.5734475446221864]","[3362.4897990717427, 2995.6378517529824, 2668.809922139412, 2377.6393385942206]",Tone,"[5.0, 9.378506373774725, 12.0, 12.55667241725619]",False,291.42692080000415,294.1700683000963,294.1700683000963,295.3834935000632,['space'],1,3.319596150191501,4.339115650160238,None,1,None,1,,[0.13272930006496608],,,,,,nunamh,001,fr,0,0,2022-05-17_11h14.45.197,Cluster,2022.1.1,None,
,,,,1,0,1,0,0,0,0,0,,,frequency,,,,,,,,,,,,,,,,,,,,,,,,,,,,,,,,,,,,,,,,,,,,,,,,,,,,,,,,,,,,,,,,,,,,,,,,,,,,,,,,,,,,,,,,,,,,,,,,,,,,,,,,,,,,,,,,,,,303.58852329989895,None,,,,,"[0.6766441795396573, 0.4007838491644984, 0.5145527655293783, 0.5760474586480325]","[386.05528520248987, 578.4293658845362, 866.6648123780918, 1298.5300216660964]",Perfect_5th,"[12.408253094745191, 7.0, 5.81671246552616, 10.0]",True,304.55761869996786,307.17842740006745,307.17842740006745,308.3874816999305,['space'],0,3.2053373497910798,4.209696749923751,None,1,None,1,,[0.11588829988613725],0,,,,,nunamh,001,fr,0,0,2022-05-17_11h14.45.197,Cluster,2022.1.1,None,
,,,,1,0,1,0,1,0,1,0,,,time,,,,,,,,,,,,,,,,,,,,,,,,,,,,,,,,,,,,,,,,,,,,,,,,,,,,,,,,,,,,,,,,,,,,,,,,,,,,,,,,,,,,,,,,,,,,,,,,,,,,,,,,,,,,,,,,,,,308.8015854000114,None,8000.0,-17.0,2.564306919956824e-05,0,"[0.7319699461364745, 0.7319699461364745, 0.7319699461364745, 0.7319699461364745]","[7373.585561873606, 1920.9422755972528, 2544.8336217440783, 1174.8269425198905]",None,"[-2.063793475327099, 11.159676965648323, 12.662837838969763, 9.0]",False,309.80436519999057,313.029056499945,313.029056499945,314.2517671000678,None,0,3.9331078499089926,4.953753349836916,None,1,None,1,,,,,,,,nunamh,001,fr,0,0,2022-05-17_11h14.45.197,Cluster,2022.1.1,None,
,,,,1,0,1,0,2,0,2,0,,,both,,,,,,,,,,,,,,,,,,,,,,,,,,,,,,,,,,,,,,,,,,,,,,,,,,,,,,,,,,,,,,,,,,,,,,,,,,,,,,,,,,,,,,,,,,,,,,,,,,,,,,,,,,,,,,,,,,,314.8080714000389,None,125.0,3.0,0.001020868972334765,0,"[0.4276461389352666, 0.4276461389352666, 0.4276461389352666, 0.4276461389352666]","[314.9802624737183, 250.00000000000003, 198.42513149602496, 157.49013123685916]",Major_3rd,"[13.0, 12.341250460895301, 11.489678846650868, 12.880741781152295]",False,315.82765350001864,318.1493005999364,318.1493005999364,319.3657758999616,None,0,2.7467737996485084,3.779747399734333,None,1,None,1,,,,,,,,nunamh,001,fr,0,0,2022-05-17_11h14.45.197,Cluster,2022.1.1,None,
,,,,1,0,1,0,3,0,3,0,,,none,,,,,,,,,,,,,,,,,,,,,,,,,,,,,,,,,,,,,,,,,,,,,,,,,,,,,,,,,,,,,,,,,,,,,,,,,,,,,,,,,,,,,,,,,,,,,,,,,,,,,,,,,,,,,,,,,,,319.63102410011925,None,125.0,3.0,0.001020868972334765,0,"[0.647110398806405, 0.5096809825454467, 0.6951251513852936, 0.7639346950679902]","[564.3681392602685, 5472.017600193729, 448.0998761854405, 1043.6735755609611]",None,"[7.0199997600909985, -8.116298065300079, 11.0, 8.0]",False,320.67198870005086,323.55139819998294,323.55139819998294,324.7727540000342,None,0,3.6667387997731566,4.689820899860933,None,1,['space'],0,[0.6010428001172841],,,,,,,nunamh,001,fr,0,0,2022-05-17_11h14.45.197,Cluster,2022.1.1,None,
,,,,1,0,1,0,4,0,4,0,,,none,,,,,,,,,,,,,,,,,,,,,,,,,,,,,,,,,,,,,,,,,,,,,,,,,,,,,,,,,,,,,,,,,,,,,,,,,,,,,,,,,,,,,,,,,,,,,,,,,,,,,,,,,,,,,,,,,,,325.38444539997727,None,,,,,"[0.5128645973468329, 0.4267321681485139, 0.5199024626648598, 0.5470889056452906]","[1160.948402898519, 533.9539027010219, 5546.790807748712, 823.4127291049217]",None,"[9.0, 8.00339701779453, -8.116298065300079, 5.363737063009177]",True,326.3916623000987,328.8797812999692,328.8797812999692,330.107392600039,None,1,3.041603249963373,4.044284850126132,None,1,None,1,,,0,,,,,nunamh,001,fr,0,0,2022-05-17_11h14.45.197,Cluster,2022.1.1,None,
,,,,1,0,1,0,5,0,5,0,,,none,,,,,,,,,,,,,,,,,,,,,,,,,,,,,,,,,,,,,,,,,,,,,,,,,,,,,,,,,,,,,,,,,,,,,,,,,,,,,,,,,,,,,,,,,,,,,,,,,,,,,,,,,,,,,,,,,,,330.4595639000181,None,829.9223942580641,-0.6362629369908227,3.64483690373646e-05,0,"[0.6265203179647277, 0.7757098309119926, 0.7226416749271241, 0.7558218250427094]","[324.7758668083921, 5761.386056381898, 5997.788049770602, 3577.9896974935414]",None,"[12.977149928426584, -8.0, -7.1489029137240525, 3.0]",False,331.4768546000123,334.6463305999059,334.6463305999059,335.86031170003116,None,0,3.9120371497701854,4.943780749803409,None,1,None,1,,,,,,,,nunamh,001,fr,0,0,2022-05-17_11h14.45.197,Cluster,2022.1.1,None,
,,,,1,0,1,0,6,0,6,0,,,time,,,,,,,,,,,,,,,,,,,,,,,,,,,,,,,,,,,,,,,,,,,,,,,,,,,,,,,,,,,,,,,,,,,,,,,,,,,,,,,,,,,,,,,,,,,,,,,,,,,,,,,,,,,,,,,,,,,336.4594572999049,None,147.65464064821708,7.651682937384956,0.0012573225364812808,1,"[0.7654320799267363, 0.7654320799267363, 0.7654320799267363, 0.7654320799267363]","[2924.8774457964387, 3833.88348812351, 786.7711094569866, 265.44542046443655]",None,"[10.0, 0.0, 5.363737063009177, 12.652210799972767]",False,337.47493240004405,340.78964710002765,340.78964710002765,342.01413489994593,['space'],1,4.088100650114939,5.102741150185466,None,1,None,1,,[0.17842529993504286],,,,,,nunamh,001,fr,0,0,2022-05-17_11h14.45.197,Cluster,2022.1.1,None,
,,,,1,0,1,0,7,0,7,0,,,none,,,,,,,,,,,,,,,,,,,,,,,,,,,,,,,,,,,,,,,,,,,,,,,,,,,,,,,,,,,,,,,,,,,,,,,,,,,,,,,,,,,,,,,,,,,,,,,,,,,,,,,,,,,,,,,,,,,342.61205839994363,None,2462.2888266898335,0.0,8.505946547995337e-05,1,"[0.7196797309368956, 0.7826157588774556, 0.6608220475411388, 0.4811205760725672]","[186.31225182508842, 7061.077146083794, 141.10103937816774, 137.09065029727873]",None,"[11.48691210644989, -3.9464013012339674, 14.0, 14.0]",False,343.62493990012445,346.831422700081,346.831422700081,348.0394649999216,['space'],1,3.6849923997651786,4.691705099772662,None,1,None,1,,[0.6069740001112223],,,,,,nunamh,001,fr,0,0,2022-05-17_11h14.45.197,Cluster,2022.1.1,None,
,,,,1,0,1,0,8,0,8,0,,,both,,,,,,,,,,,,,,,,,,,,,,,,,,,,,,,,,,,,,,,,,,,,,,,,,,,,,,,,,,,,,,,,,,,,,,,,,,,,,,,,,,,,,,,,,,,,,,,,,,,,,,,,,,,,,,,,,,,348.3475804000627,None,1343.3124182680972,4.132798210540699,8.399408468621233e-05,0,"[0.717451654743553, 0.717451654743553, 0.717451654743553, 0.717451654743553]","[266.54694323509045, 399.36917136898313, 598.3776557485236, 896.5534762528915]",Perfect_5th,"[12.652210799972767, 12.0, 6.194639860553464, 6.0]",False,349.35496050002985,352.5405586999841,352.5405586999841,353.77304999995977,None,0,3.9211162498686463,4.955583549803123,None,1,None,1,,,,,,,,nunamh,001,fr,0,0,2022-05-17_11h14.45.197,Cluster,2022.1.1,None,
,,,,1,0,1,0,9,0,9,0,,,none,,,,,,,,,,,,,,,,,,,,,,,,,,,,,,,,,,,,,,,,,,,,,,,,,,,,,,,,,,,,,,,,,,,,,,,,,,,,,,,,,,,,,,,,,,,,,,,,,,,,,,,,,,,,,,,,,,,354.3593566000927,None,147.77857236476763,7.651682937384956,0.0012546600095451705,1,"[0.5418839845941976, 0.7778566950841789, 0.6270600185164007, 0.45232068370419976]","[1062.7678121375643, 350.941515055097, 7068.005607993107, 2475.2373204635137]",None,"[8.0, 12.784698087435721, -3.9464013012339674, 12.662837838969763]",False,355.35841190000065,358.34052659990266,358.34052659990266,359.54520300007425,['space'],1,3.4219071499537677,4.4549084501340985,None,1,None,1,,[0.24424799997359514],,,,,,nunamh,001,fr,0,0,2022-05-17_11h14.45.197,Cluster,2022.1.1,None,
,,,,1,0,1,0,10,0,10,0,,,frequency,,,,,,,,,,,,,,,,,,,,,,,,,,,,,,,,,,,,,,,,,,,,,,,,,,,,,,,,,,,,,,,,,,,,,,,,,,,,,,,,,,,,,,,,,,,,,,,,,,,,,,,,,,,,,,,,,,,359.8587551000528,None,3272.2258983282845,0.9287582751426191,7.919595867073564e-05,1,"[0.5943049671568484, 0.412807211577716, 0.6502030232655545, 0.5350666886777274]","[2061.3731446574834, 2313.813122282172, 2597.1674166419525, 2915.221858286289]",Tone,"[12.0, 12.55667241725619, 12.254883937865648, 10.0]",False,360.8748771001119,363.54906959994696,363.54906959994696,364.75769199989736,['space'],1,3.2183013500180095,4.233493150211871,None,1,None,1,,[0.19423560006543994],,,,,,nunamh,001,fr,0,0,2022-05-17_11h14.45.197,Cluster,2022.1.1,None,
,,,,1,0,1,0,11,0,11,0,,,none,,,,,,,,,,,,,,,,,,,,,,,,,,,,,,,,,,,,,,,,,,,,,,,,,,,,,,,,,,,,,,,,,,,,,,,,,,,,,,,,,,,,,,,,,,,,,,,,,,,,,,,,,,,,,,,,,,,365.14782209997065,None,8000.0,-14.0,3.622179800374953e-05,0,"[0.7251485115486311, 0.4520175784256852, 0.7214133846502235, 0.7384593251951929]","[219.24253101079404, 187.53770344260582, 2033.5002467359645, 1056.856602921197]",None,"[11.682205299554338, 11.48691210644989, 11.616156682525062, 8.0]",False,366.1871239000466,369.11621670005843,369.11621670005843,370.3311638000887,None,0,3.66239225002937,4.685943549964577,None,1,None,1,,,,,,,,nunamh,001,fr,0,0,2022-05-17_11h14.45.197,Cluster,2022.1.1,None,
,,,,1,0,1,0,12,0,12,0,,,time,,,,,,,,,,,,,,,,,,,,,,,,,,,,,,,,,,,,,,,,,,,,,,,,,,,,,,,,,,,,,,,,,,,,,,,,,,,,,,,,,,,,,,,,,,,,,,,,,,,,,,,,,,,,,,,,,,,370.92834610003047,None,,,,,"[0.611542790691155, 0.611542790691155, 0.611542790691155, 0.611542790691155]","[6476.62584867314, 769.2575532111157, 2256.440472127058, 6473.096415665058]",None,"[-5.697084775535606, 5.16241742518486, 12.55667241725619, -5.697084775535606]",True,371.9404319000896,374.79449869995005,374.79449869995005,376.01072230003774,None,1,3.4900521500967443,4.506536950124428,None,1,None,1,,,0,,,,,nunamh,001,fr,0,0,2022-05-17_11h14.45.197,Cluster,2022.1.1,None,
,,,,1,0,1,0,13,0,13,0,,,time,,,,,,,,,,,,,,,,,,,,,,,,,,,,,,,,,,,,,,,,,,,,,,,,,,,,,,,,,,,,,,,,,,,,,,,,,,,,,,,,,,,,,,,,,,,,,,,,,,,,,,,,,,,,,,,,,,,376.47413680003956,None,615.5722066724584,-1.0,4.760651710325358e-05,0,"[0.4456019952086334, 0.4456019952086334, 0.4456019952086334, 0.4456019952086334]","[2125.85189239562, 1700.6344394964353, 2670.8516604799684, 4364.78005831097]",None,"[12.140037333310634, 10.841202016064528, 12.0, -5.0]",False,377.5494166999124,379.9218671999406,379.9218671999406,381.14220080012456,None,0,2.8209792997222394,3.8485188998747617,None,1,None,1,,,,,,,,nunamh,001,fr,0,0,2022-05-17_11h14.45.197,Cluster,2022.1.1,None,
,,,,1,0,1,0,14,0,14,0,,,time,,,,,,,,,,,,,,,,,,,,,,,,,,,,,,,,,,,,,,,,,,,,,,,,,,,,,,,,,,,,,,,,,,,,,,,,,,,,,,,,,,,,,,,,,,,,,,,,,,,,,,,,,,,,,,,,,,,381.42502789990976,None,905.7774209137157,0.0,4.137446402622161e-05,1,"[0.4324583803615478, 0.4324583803615478, 0.4324583803615478, 0.4324583803615478]","[2740.906203863428, 2534.624456409132, 242.25319032928581, 133.6214725508052]",None,"[12.0, 12.662837838969763, 12.341250460895301, 14.392904251219491]",False,382.4253350000363,384.76211060001515,384.76211060001515,385.9827745000366,['space'],1,2.7785626500844955,3.7892565501388162,None,1,None,1,,[0.24388849991373718],,,,,,nunamh,001,fr,0,0,2022-05-17_11h14.45.197,Cluster,2022.1.1,None,
,,,,1,0,1,0,15,0,15,0,,,none,,,,,,,,,,,,,,,,,,,,,,,,,,,,,,,,,,,,,,,,,,,,,,,,,,,,,,,,,,,,,,,,,,,,,,,,,,,,,,,,,,,,,,,,,,,,,,,,,,,,,,,,,,,,,,,,,,,386.2544589000754,None,4677.259435937828,-13.0,2.9224179616242334e-05,1,"[0.6427263421826052, 0.6983984659844249, 0.725152398116986, 0.570588200987118]","[2322.70068937261, 6549.334568847147, 7723.365226566102, 4209.181598515213]",None,"[12.55667241725619, -5.697084775535606, -1.0, -4.0]",False,387.25418579997495,390.3622065000236,390.3622065000236,391.57871240004897,['space'],1,3.6765274500939995,4.696824050042778,None,1,None,1,,[0.1789537000004202],,,,,,nunamh,001,fr,0,0,2022-05-17_11h14.45.197,Cluster,2022.1.1,None,
,,,,1,0,1,0,16,0,16,0,,,time,,,,,,,,,,,,,,,,,,,,,,,,,,,,,,,,,,,,,,,,,,,,,,,,,,,,,,,,,,,,,,,,,,,,,,,,,,,,,,,,,,,,,,,,,,,,,,,,,,,,,,,,,,,,,,,,,,,391.99506539991125,None,,,,,"[0.4764008107026615, 0.4764008107026615, 0.4764008107026615, 0.4764008107026615]","[505.8288114150178, 4564.49639542296, 1365.568040689522, 775.0398713350842]",None,"[9.0, -6.756523176997062, 10.132798210540699, 5.16241742518486]",True,393.00222199992277,395.44908719998784,395.44908719998784,396.6722158999182,['space'],0,2.9290127498097718,3.954468049807474,None,1,None,1,,[0.12340350006707013],0,,,,,nunamh,001,fr,0,0,2022-05-17_11h14.45.197,Cluster,2022.1.1,None,
,,,,1,0,1,0,17,0,17,0,,,both,,,,,,,,,,,,,,,,,,,,,,,,,,,,,,,,,,,,,,,,,,,,,,,,,,,,,,,,,,,,,,,,,,,,,,,,,,,,,,,,,,,,,,,,,,,,,,,,,,,,,,,,,,,,,,,,,,,396.9937841000501,None,2462.2888266898335,-3.0,6.02174900085011e-05,0,"[0.5490375655683666, 0.5490375655683666, 0.5490375655683666, 0.5490375655683666]","[1551.144761833735, 1741.1011265922486, 1954.3199368684925, 2193.6499593892527]",Tone,"[10.562014860488507, 10.841202016064528, 11.616156682525062, 12.140037333310634]",False,398.0298856999725,400.6897732000798,400.6897732000798,401.9088268999476,None,0,3.2264648000709713,4.255193600198254,None,1,None,1,,,,,,,,nunamh,001,fr,0,0,2022-05-17_11h14.45.197,Cluster,2022.1.1,None,
,,,,1,0,1,0,18,0,18,0,,,time,,,,,,,,,,,,,,,,,,,,,,,,,,,,,,,,,,,,,,,,,,,,,,,,,,,,,,,,,,,,,,,,,,,,,,,,,,,,,,,,,,,,,,,,,,,,,,,,,,,,,,,,,,,,,,,,,,,402.31319150002673,None,2297.3967099940687,-1.0,7.255162032671163e-05,0,"[0.48890082659353146, 0.48890082659353146, 0.48890082659353146, 0.48890082659353146]","[1068.892954944927, 384.868973688398, 142.53169230800447, 330.7212700141797]",None,"[8.162925942570439, 12.408253094745191, 13.651682937384956, 12.977149928426584]",False,403.3450877999421,405.8365404000506,405.8365404000506,407.0671900000889,None,0,2.9750798500608653,3.9904723500367254,None,1,None,1,,,,,,,,nunamh,001,fr,0,0,2022-05-17_11h14.45.197,Cluster,2022.1.1,None,
,,,,1,0,1,0,19,0,19,0,,,both,,,,,,,,,,,,,,,,,,,,,,,,,,,,,,,,,,,,,,,,,,,,,,,,,,,,,,,,,,,,,,,,,,,,,,,,,,,,,,,,,,,,,,,,,,,,,,,,,,,,,,,,,,,,,,,,,,,407.38875530008227,None,1464.6611311632573,4.417032437983572,8.177851024227174e-05,0,"[0.6387320853527345, 0.6387320853527345, 0.6387320853527345, 0.6387320853527345]","[7381.4295604616955, 4926.513179026535, 3288.053066729266, 2194.5121380481137]",Perfect_5th,"[-2.063793475327099, -8.002661085914196, 6.0, 12.140037333310634]",False,408.40503849997185,411.3580233999528,411.3580233999528,412.5739935999736,None,0,3.590030049905181,4.625887649832293,None,1,None,1,,,,,,,,nunamh,001,fr,0,0,2022-05-17_11h14.45.197,Cluster,2022.1.1,None,
,,,,2,0,2,0,0,0,0,0,,,both,,,,,,,,,,,,,,,,,,,,,,,,,,,,,,,,,,,,,,,,,,,,,,,,,,,,,,,,,,,,,,,,,,,,,,,,,,,,,,,,,,,,,,,,,,,,,,,,,,,,,,,,,,,,,,,,,,,420.8539426000789,None,,,,,"[0.5156710753826246, 0.5156710753826246, 0.5156710753826246, 0.5156710753826246]","[3371.283602169951, 3784.1378975234843, 4247.5511755393345, 4767.714992794767]",Tone,"[5.0, 0.0, -4.747613271291577, -7.0]",True,421.8690200999845,424.43947140011005,424.43947140011005,425.6430315999314,None,1,3.1098930502776057,4.131947050103918,None,1,None,1,,,0,,,,,nunamh,001,fr,0,0,2022-05-17_11h14.45.197,Cluster,2022.1.1,None,
,,,,2,0,2,0,1,0,1,0,,,time,,,,,,,,,,,,,,,,,,,,,,,,,,,,,,,,,,,,,,,,,,,,,,,,,,,,,,,,,,,,,,,,,,,,,,,,,,,,,,,,,,,,,,,,,,,,,,,,,,,,,,,,,,,,,,,,,,,426.0317347999662,None,2099.1671061226075,6.0,0.0001536552449110786,1,"[0.46840169090111633, 0.46840169090111633, 0.46840169090111633, 0.46840169090111633]","[154.12650993559825, 5564.903558603573, 301.4293299343387, 1613.0567043429405]",None,"[12.880741781152295, -8.116298065300079, 13.0, 10.667652715985808]",False,427.02788230008446,429.4515599999577,429.4515599999577,430.67660199990496,['space'],1,2.9226490498986095,3.9532561500091106,None,1,None,1,,[0.2253318999428302],,,,,,nunamh,001,fr,0,0,2022-05-17_11h14.45.197,Cluster,2022.1.1,None,
,,,,2,0,2,0,2,0,2,0,,,frequency,,,,,,,,,,,,,,,,,,,,,,,,,,,,,,,,,,,,,,,,,,,,,,,,,,,,,,,,,,,,,,,,,,,,,,,,,,,,,,,,,,,,,,,,,,,,,,,,,,,,,,,,,,,,,,,,,,,431.02822720003314,None,659.7539553864473,0.0,4.855544497866433e-05,1,"[0.6073170534104502, 0.5797352817430469, 0.4880797042988123, 0.5617877970138552]","[1047.294122820627, 933.0329915368077, 831.237896142788, 740.5487761432823]",Tone,"[8.0, 6.486717348887886, 5.363737063009177, 5.16241742518486]",False,432.04386819992214,434.7482437998988,434.7482437998988,435.9636065000668,['space'],1,3.263825149741024,4.298568349797279,None,1,None,1,,[0.20651389984413981],,,,,,nunamh,001,fr,0,0,2022-05-17_11h14.45.197,Cluster,2022.1.1,None,
,,,,2,0,2,0,3,0,3,0,,,none,,,,,,,,,,,,,,,,,,,,,,,,,,,,,,,,,,,,,,,,,,,,,,,,,,,,,,,,,,,,,,,,,,,,,,,,,,,,,,,,,,,,,,,,,,,,,,,,,,,,,,,,,,,,,,,,,,,436.3975998000242,None,1148.6983549970344,7.0,0.00011254514168038452,1,"[0.680780052689312, 0.5542510202263076, 0.6012630287138894, 0.6016122879081192]","[1614.6515211432654, 3563.7401702871725, 135.91815014171166, 3464.5233441936953]",None,"[10.667652715985808, 3.0, 14.392904251219491, 4.015307980782382]",False,437.4165809999686,440.2896547000855,440.2896547000855,441.52109980001114,['space'],1,3.466864350019023,4.496152949985117,None,1,None,1,,[0.17595140007324517],,,,,,nunamh,001,fr,0,0,2022-05-17_11h14.45.197,Cluster,2022.1.1,None,
,,,,2,0,2,0,4,0,4,0,,,both,,,,,,,,,,,,,,,,,,,,,,,,,,,,,,,,,,,,,,,,,,,,,,,,,,,,,,,,,,,,,,,,,,,,,,,,,,,,,,,,,,,,,,,,,,,,,,,,,,,,,,,,,,,,,,,,,,,441.97042539995164,None,353.5533905932738,0.0,8.861233020703779e-05,1,"[0.6413551695547206, 0.6413551695547206, 0.6413551695547206, 0.6413551695547206]","[222.72467953508485, 250.00000000000003, 280.6155120773433, 314.9802624737183]",Tone,"[11.682205299554338, 12.341250460895301, 12.884343599480179, 13.0]",False,442.99024650012143,445.95884119998664,445.95884119998664,447.18913660012186,['space'],1,3.595546750118956,4.6241369501221925,None,1,None,1,,[0.2871592999435961],,,,,,nunamh,001,fr,0,0,2022-05-17_11h14.45.197,Cluster,2022.1.1,None,
,,,,2,0,2,0,5,0,5,0,,,both,,,,,,,,,,,,,,,,,,,,,,,,,,,,,,,,,,,,,,,,,,,,,,,,,,,,,,,,,,,,,,,,,,,,,,,,,,,,,,,,,,,,,,,,,,,,,,,,,,,,,,,,,,,,,,,,,,,447.6551854000427,None,7907.8737855561685,-6.191299965073462,8.763396404968214e-05,1,"[0.47832312517536757, 0.47832312517536757, 0.47832312517536757, 0.47832312517536757]","[4981.648321167036, 5591.7111785341, 6276.4835830118045, 7045.114618767583]",Tone,"[-8.002661085914196, -8.116298065300079, -6.0, -3.9464013012339674]",False,448.64612150005996,451.0957343999762,451.0957343999762,452.3005999000743,['space'],1,2.9611904500052333,3.9903894499875605,None,1,None,1,,[0.24039850011467934],,,,,,nunamh,001,fr,0,0,2022-05-17_11h14.45.197,Cluster,2022.1.1,None,
,,,,2,0,2,0,6,0,6,0,,,time,,,,,,,,,,,,,,,,,,,,,,,,,,,,,,,,,,,,,,,,,,,,,,,,,,,,,,,,,,,,,,,,,,,,,,,,,,,,,,,,,,,,,,,,,,,,,,,,,,,,,,,,,,,,,,,,,,,452.6835441000294,None,250.0,-1.0,0.00014926913094589803,0,"[0.5784016120404362, 0.5784016120404362, 0.5784016120404362, 0.5784016120404362]","[561.4010663892971, 342.15782634128004, 443.4700366079802, 2164.7822477913624]",None,"[7.0199997600909985, 12.784698087435721, 11.0, 12.140037333310634]",False,453.7006248999387,456.470699199941,456.470699199941,457.7057046000846,None,0,3.3301474500913173,4.363819649908692,None,1,None,1,,,,,,,,nunamh,001,fr,0,0,2022-05-17_11h14.45.197,Cluster,2022.1.1,None,
,,,,2,0,2,0,7,0,7,0,,,frequency,,,,,,,,,,,,,,,,,,,,,,,,,,,,,,,,,,,,,,,,,,,,,,,,,,,,,,,,,,,,,,,,,,,,,,,,,,,,,,,,,,,,,,,,,,,,,,,,,,,,,,,,,,,,,,,,,,,458.11857750010677,None,,,,,"[0.7853835442123738, 0.7232623489563385, 0.47632264189024365, 0.4338469718754473]","[3176.7717643152214, 2830.181892652855, 2521.405420268428, 2246.316856829246]",Tone,"[8.0, 11.175891324766763, 12.662837838969763, 12.55667241725619]",True,459.12515509990044,462.14045049995184,462.14045049995184,463.37700859992765,None,1,3.463538649957627,4.49103685002774,None,1,None,1,,,0,,,,,nunamh,001,fr,0,0,2022-05-17_11h14.45.197,Cluster,2022.1.1,None,
,,,,2,0,2,0,8,0,8,0,,,both,,,,,,,,,,,,,,,,,,,,,,,,,,,,,,,,,,,,,,,,,,,,,,,,,,,,,,,,,,,,,,,,,,,,,,,,,,,,,,,,,,,,,,,,,,,,,,,,,,,,,,,,,,,,,,,,,,,463.65818569995463,None,176.7766952966369,12.0,0.0013934586077992473,1,"[0.6982325958388838, 0.6982325958388838, 0.6982325958388838, 0.6982325958388838]","[280.61551207734334, 250.00000000000006, 222.72467953508487, 198.42513149602496]",Tone,"[12.884343599480179, 12.341250460895301, 11.682205299554338, 11.489678846650868]",False,464.6742755000014,467.79935660003684,467.79935660003684,469.0157113999594,['space'],1,3.802407450042665,4.833065849961713,None,1,None,1,,[0.1814484999049455],,,,,,nunamh,001,fr,0,0,2022-05-17_11h14.45.197,Cluster,2022.1.1,None,
,,,,2,0,2,0,9,0,9,0,,,both,,,,,,,,,,,,,,,,,,,,,,,,,,,,,,,,,,,,,,,,,,,,,,,,,,,,,,,,,,,,,,,,,,,,,,,,,,,,,,,,,,,,,,,,,,,,,,,,,,,,,,,,,,,,,,,,,,,469.561873300001,None,2469.433965270721,6.662837838969763,0.0001835153869960714,1,"[0.5839154525066088, 0.5839154525066088, 0.5839154525066088, 0.5839154525066088]","[6222.583668339893, 4938.867930541442, 3919.9820742367447, 3111.2918341699465]",Major_3rd,"[-7.0, -8.002661085914196, -1.0, 8.0]",False,470.5732785,473.35567560000345,473.35567560000345,474.57350590010174,['space'],1,3.3606590502895415,4.386862150160596,None,1,None,1,,[0.22501590009778738],,,,,,nunamh,001,fr,0,0,2022-05-17_11h14.45.197,Cluster,2022.1.1,None,
,,,,2,0,2,0,10,0,10,0,,,time,,,,,,,,,,,,,,,,,,,,,,,,,,,,,,,,,,,,,,,,,,,,,,,,,,,,,,,,,,,,,,,,,,,,,,,,,,,,,,,,,,,,,,,,,,,,,,,,,,,,,,,,,,,,,,,,,,,475.0082135000266,None,1292.78390295422,4.0,8.47078506860329e-05,1,"[0.5556895687709233, 0.5556895687709233, 0.5556895687709233, 0.5556895687709233]","[572.2462721210948, 275.2630749774805, 6004.3038311786095, 161.77452169006492]",None,"[7.0199997600909985, 12.652210799972767, -7.1489029137240525, 12.208275013174095]",False,476.0116258999333,478.72502709995024,478.72502709995024,479.95664589991793,['space'],1,3.2539423499256372,4.287969750119373,None,1,None,1,,[0.23061840003356338],,,,,,nunamh,001,fr,0,0,2022-05-17_11h14.45.197,Cluster,2022.1.1,None,
,,,,2,0,2,0,11,0,11,0,,,both,,,,,,,,,,,,,,,,,,,,,,,,,,,,,,,,,,,,,,,,,,,,,,,,,,,,,,,,,,,,,,,,,,,,,,,,,,,,,,,,,,,,,,,,,,,,,,,,,,,,,,,,,,,,,,,,,,,480.3464860001113,None,933.0329915368076,4.0,6.680184963918049e-05,1,"[0.6435065791807696, 0.6435065791807696, 0.6435065791807696, 0.6435065791807696]","[2351.0958125672178, 1866.0659830736151, 1481.0975522865645, 1175.5479062836089]",Major_3rd,"[12.55667241725619, 11.159676965648323, 10.562014860488507, 9.0]",False,481.4333752999082,484.3949045999907,484.3949045999907,485.63339630002156,['space'],1,3.6014436995610595,4.636092499596998,None,1,None,1,,[0.23367099999450147],,,,,,nunamh,001,fr,0,0,2022-05-17_11h14.45.197,Cluster,2022.1.1,None,
,,,,2,0,2,0,12,0,12,0,,,none,,,,,,,,,,,,,,,,,,,,,,,,,,,,,,,,,,,,,,,,,,,,,,,,,,,,,,,,,,,,,,,,,,,,,,,,,,,,,,,,,,,,,,,,,,,,,,,,,,,,,,,,,,,,,,,,,,,486.11292880005203,None,696.6641662834882,-0.7637813234113481,4.150383918147044e-05,1,"[0.775796145594815, 0.7273193290026008, 0.6257106007673721, 0.721239291811148]","[268.96922998431745, 5047.5473136833, 220.58861196939418, 2820.8220366620867]",None,"[12.652210799972767, -8.002661085914196, 11.682205299554338, 11.175891324766763]",False,487.12193630007096,490.27221570000984,490.27221570000984,491.50810500001535,['space'],1,3.877316349884495,4.890531650045887,None,1,None,1,,[0.3132563999388367],,,,,,nunamh,001,fr,0,0,2022-05-17_11h14.45.197,Cluster,2022.1.1,None,
,,,,2,0,2,0,13,0,13,0,,,frequency,,,,,,,,,,,,,,,,,,,,,,,,,,,,,,,,,,,,,,,,,,,,,,,,,,,,,,,,,,,,,,,,,,,,,,,,,,,,,,,,,,,,,,,,,,,,,,,,,,,,,,,,,,,,,,,,,,,492.0578465000726,None,708.1373863773456,-0.7637813234113481,4.058241481524372e-05,1,"[0.5177560081166133, 0.6572557071536982, 0.7792220861516741, 0.7516421284209837]","[446.09859965717834, 500.7287479191394, 562.0490160367049, 630.8786897908274]",Tone,"[11.0, 9.06280727391988, 7.0199997600909985, 6.0]",False,493.0629783999175,496.0475278000813,496.0475278000813,497.2522879000753,['space'],1,3.754064049804583,4.787485649809241,None,1,None,1,,[0.22098430013284087],,,,,,nunamh,001,fr,0,0,2022-05-17_11h14.45.197,Cluster,2022.1.1,None,
,,,,2,0,2,0,14,0,14,0,,,frequency,,,,,,,,,,,,,,,,,,,,,,,,,,,,,,,,,,,,,,,,,,,,,,,,,,,,,,,,,,,,,,,,,,,,,,,,,,,,,,,,,,,,,,,,,,,,,,,,,,,,,,,,,,,,,,,,,,,497.8942597999703,None,,,,,"[0.7877113781325273, 0.5881030270347635, 0.7789026323254228, 0.4873538266409779]","[7896.325817417116, 5270.16520130007, 3517.4132743776877, 2347.591711113028]",Perfect_5th,"[-0.19129996507346192, -8.44087783935553, 4.0, 12.55667241725619]",True,498.89867100003175,502.0842774999328,502.0842774999328,503.29161519999616,None,1,3.6796794501133263,4.690956050064415,None,1,None,1,,,0,,,,,nunamh,001,fr,0,0,2022-05-17_11h14.45.197,Cluster,2022.1.1,None,
,,,,2,0,2,0,15,0,15,0,,,time,,,,,,,,,,,,,,,,,,,,,,,,,,,,,,,,,,,,,,,,,,,,,,,,,,,,,,,,,,,,,,,,,,,,,,,,,,,,,,,,,,,,,,,,,,,,,,,,,,,,,,,,,,,,,,,,,,,503.63277900009416,None,406.12619817811805,-5.0,4.2873658564129765e-05,0,"[0.5300724226456373, 0.5300724226456373, 0.5300724226456373, 0.5300724226456373]","[690.1078159141512, 292.5591585920322, 2947.828746592308, 159.59140778859907]",None,"[5.236218676588652, 12.884343599480179, 10.0, 12.208275013174095]",False,504.6534144000616,507.2898395000957,507.2898395000957,508.5248640999198,None,0,3.12727454979904,4.160956349922344,None,1,None,1,,,,,,,,nunamh,001,fr,0,0,2022-05-17_11h14.45.197,Cluster,2022.1.1,None,
,,,,2,0,2,0,16,0,16,0,,,none,,,,,,,,,,,,,,,,,,,,,,,,,,,,,,,,,,,,,,,,,,,,,,,,,,,,,,,,,,,,,,,,,,,,,,,,,,,,,,,,,,,,,,,,,,,,,,,,,,,,,,,,,,,,,,,,,,,508.86991570005193,None,406.12619817811805,-4.0,4.810503611239506e-05,1,"[0.6856923229354863, 0.6702454683868144, 0.47507124625963765, 0.6543835159015391]","[1259.7202014189868, 490.3075046850439, 338.6550269738258, 838.7022109221883]",None,"[9.649313447323593, 9.06280727391988, 12.977149928426584, 5.363737063009177]",False,509.8971661000978,512.7624069000594,512.7624069000594,513.9985903000925,['space'],1,3.5200719500426203,4.544320149812847,None,1,None,1,,[0.7004915999714285],,,,,,nunamh,001,fr,0,0,2022-05-17_11h14.45.197,Cluster,2022.1.1,None,
,,,,2,0,2,0,17,0,17,0,,,none,,,,,,,,,,,,,,,,,,,,,,,,,,,,,,,,,,,,,,,,,,,,,,,,,,,,,,,,,,,,,,,,,,,,,,,,,,,,,,,,,,,,,,,,,,,,,,,,,,,,,,,,,,,,,,,,,,,514.4901797000784,None,139.0778807115631,8.0,0.0015005685598095306,1,"[0.5613464540700184, 0.5954965626914017, 0.4678606441537181, 0.7639633010785227]","[4576.620207425847, 348.16573100079523, 2165.5293545893255, 4819.1250681515485]",None,"[-6.756523176997062, 12.784698087435721, 12.140037333310634, -8.0]",False,515.4864250998944,518.1345428000204,518.1345428000204,519.3711616001092,['space'],1,3.421847550198436,4.452788850292563,None,1,None,1,,[0.25282480008900166],,,,,,nunamh,001,fr,0,0,2022-05-17_11h14.45.197,Cluster,2022.1.1,None,
,,,,2,0,2,0,18,0,18,0,,,both,,,,,,,,,,,,,,,,,,,,,,,,,,,,,,,,,,,,,,,,,,,,,,,,,,,,,,,,,,,,,,,,,,,,,,,,,,,,,,,,,,,,,,,,,,,,,,,,,,,,,,,,,,,,,,,,,,,519.9877665999811,None,,,,,"[0.6788649231461087, 0.6788649231461087, 0.6788649231461087, 0.6788649231461087]","[1486.2129759471143, 1324.065235154823, 1179.6080207336188, 1050.9112735796436]",Tone,"[10.562014860488507, 10.132798210540699, 9.0, 8.0]",True,520.9909491001163,524.071965900017,524.071965900017,525.296822699951,None,1,3.737623349763453,4.7416971498169005,None,1,None,1,,,0,,,,,nunamh,001,fr,0,0,2022-05-17_11h14.45.197,Cluster,2022.1.1,None,
,,,,2,0,2,0,19,0,19,0,,,time,,,,,,,,,,,,,,,,,,,,,,,,,,,,,,,,,,,,,,,,,,,,,,,,,,,,,,,,,,,,,,,,,,,,,,,,,,,,,,,,,,,,,,,,,,,,,,,,,,,,,,,,,,,,,,,,,,,525.7615899001248,None,1742.087921361827,4.841202016064529,0.00011029230338991319,1,"[0.5538807975096538, 0.5538807975096538, 0.5538807975096538, 0.5538807975096538]","[368.86448082059763, 3614.6484430471223, 4251.204437702739, 5093.722162058478]",None,"[12.408253094745191, 2.0, -4.747613271291577, -8.002661085914196]",False,526.7644402000587,529.4462093000766,529.4462093000766,530.6805171999149,['space'],1,3.2573846499435604,4.288722050143406,None,1,None,1,,[0.2255824999883771],,,,,,nunamh,001,fr,0,0,2022-05-17_11h14.45.197,Cluster,2022.1.1,None,
,,,,3,0,3,0,0,0,0,0,,,frequency,,,,,,,,,,,,,,,,,,,,,,,,,,,,,,,,,,,,,,,,,,,,,,,,,,,,,,,,,,,,,,,,,,,,,,,,,,,,,,,,,,,,,,,,,,,,,,,,,,,,,,,,,,,,,,,,,,,533.6063111999538,None,2143.5469250725882,-1.0,6.951207121178725e-05,0,"[0.5905744474038517, 0.4680598604197638, 0.7937102023482508, 0.559672014270312]","[3402.668643803426, 3031.4331330207992, 2700.6998923363826, 2406.0500721642356]",Tone,"[5.0, 9.378506373774725, 12.0, 12.662837838969763]",False,534.590465700021,537.4874505999032,537.4874505999032,538.69116139994,None,0,3.4217975502833724,4.460282150190324,None,1,None,1,,,,,,,,nunamh,001,fr,0,0,2022-05-17_11h14.45.197,Cluster,2022.1.1,None,
,,,,3,0,3,0,1,0,1,0,,,both,,,,,,,,,,,,,,,,,,,,,,,,,,,,,,,,,,,,,,,,,,,,,,,,,,,,,,,,,,,,,,,,,,,,,,,,,,,,,,,,,,,,,,,,,,,,,,,,,,,,,,,,,,,,,,,,,,,539.1042389001232,None,6894.539797765593,-10.0,4.681116317720101e-05,1,"[0.5534949297631991, 0.5534949297631991, 0.5534949297631991, 0.5534949297631991]","[2736.099931952431, 3447.2698988827974, 4343.287910271407, 5472.19986390486]",Major_3rd,"[12.0, 4.015307980782382, -5.0, -8.116298065300079]",False,540.1111655000132,542.7964063999243,542.7964063999243,544.0317450000439,['space'],1,3.252011349890381,4.291104350006208,None,1,None,1,,[0.19562690006569028],,,,,,nunamh,001,fr,0,0,2022-05-17_11h14.45.197,Cluster,2022.1.1,None,
,,,,3,0,3,0,2,0,2,0,,,frequency,,,,,,,,,,,,,,,,,,,,,,,,,,,,,,,,,,,,,,,,,,,,,,,,,,,,,,,,,,,,,,,,,,,,,,,,,,,,,,,,,,,,,,,,,,,,,,,,,,,,,,,,,,,,,,,,,,,544.451803999953,None,1628.795343355215,4.667652715985808,9.935515281617137e-05,1,"[0.5674892231872497, 0.6149863820240824, 0.6039592758427941, 0.7357237478878185]","[323.19393018537164, 484.24375280033047, 725.5458417540575, 1087.0904692985532]",Perfect_5th,"[12.977149928426584, 10.0, 5.236218676588652, 8.162925942570439]",False,545.4476685998961,548.2667402001098,548.2667402001098,549.471271000104,['space'],1,3.5547916498035192,4.562413249863312,None,1,None,1,,[0.3242420998867601],,,,,,nunamh,001,fr,0,0,2022-05-17_11h14.45.197,Cluster,2022.1.1,None,
,,,,3,0,3,0,3,0,3,0,,,both,,,,,,,,,,,,,,,,,,,,,,,,,,,,,,,,,,,,,,,,,,,,,,,,,,,,,,,,,,,,,,,,,,,,,,,,,,,,,,,,,,,,,,,,,,,,,,,,,,,,,,,,,,,,,,,,,,,550.0583576001227,None,,,,,"[0.4735970654254189, 0.4735970654254189, 0.4735970654254189, 0.4735970654254189]","[257.5769287465508, 229.4749556428276, 204.43894382750634, 182.13439299389023]",Tone,"[12.341250460895301, 11.994205410041342, 11.489678846650868, 11.72279626284238]",True,551.0531321999151,553.5056237000972,553.5056237000972,554.7083602999337,None,1,2.924428549828008,3.9607542499434203,None,1,None,1,,,0,,,,,nunamh,001,fr,0,0,2022-05-17_11h14.45.197,Cluster,2022.1.1,None,
,,,,3,0,3,0,4,0,4,0,,,both,,,,,,,,,,,,,,,,,,,,,,,,,,,,,,,,,,,,,,,,,,,,,,,,,,,,,,,,,,,,,,,,,,,,,,,,,,,,,,,,,,,,,,,,,,,,,,,,,,,,,,,,,,,,,,,,,,,555.0522890000138,None,3732.1319661472303,-10.0,2.5057261355584917e-05,0,"[0.6768534921864138, 0.6768534921864138, 0.6768534921864138, 0.6768534921864138]","[5924.390209146259, 5278.031643091578, 4702.1916251344355, 4189.176491282507]",Tone,"[-7.1489029137240525, -8.44087783935553, -7.0, -4.0]",False,556.0754466999788,559.1448745999951,559.1448745999951,560.3791513999458,None,0,3.7234562498051673,4.758611249970272,None,1,None,1,,,,,,,,nunamh,001,fr,0,0,2022-05-17_11h14.45.197,Cluster,2022.1.1,None,
,,,,3,0,3,0,5,0,5,0,,,both,,,,,,,,,,,,,,,,,,,,,,,,,,,,,,,,,,,,,,,,,,,,,,,,,,,,,,,,,,,,,,,,,,,,,,,,,,,,,,,,,,,,,,,,,,,,,,,,,,,,,,,,,,,,,,,,,,,560.8976588000078,None,739.4596415134863,-0.83758257481514,3.774482489045581e-05,0,"[0.7780377193069327, 0.7780377193069327, 0.7780377193069327, 0.7780377193069327]","[1173.8190128265362, 1045.7538538559195, 931.6607678905583, 830.0153838553425]",Tone,"[9.0, 8.0, 6.486717348887886, 5.363737063009177]",False,561.9054954000749,565.2795885000378,565.2795885000378,566.488156999927,None,0,4.153616750147194,5.185634850058705,None,1,None,1,,,,,,,,nunamh,001,fr,0,0,2022-05-17_11h14.45.197,Cluster,2022.1.1,None,
,,,,3,0,3,0,6,0,6,0,,,both,,,,,,,,,,,,,,,,,,,,,,,,,,,,,,,,,,,,,,,,,,,,,,,,,,,,,,,,,,,,,,,,,,,,,,,,,,,,,,,,,,,,,,,,,,,,,,,,,,,,,,,,,,,,,,,,,,,567.136381899938,None,8000.0,-15.0,3.228271145173278e-05,0,"[0.6935390756334352, 0.6935390756334352, 0.6935390756334352, 0.6935390756334352]","[3174.8021039364003, 4000.0000000000014, 5039.684199579494, 6349.604207872799]",Major_3rd,"[8.0, -2.1218966447230265, -8.002661085914196, -6.0]",False,568.9478416999336,572.0584128000773,572.0584128000773,573.2892849000636,None,0,3.809776799986139,4.841163799865171,None,1,None,1,,,,,,,,nunamh,001,fr,0,0,2022-05-17_11h14.45.197,Cluster,2022.1.1,None,
,,,,3,0,3,0,7,0,7,0,,,none,,,,,,,,,,,,,,,,,,,,,,,,,,,,,,,,,,,,,,,,,,,,,,,,,,,,,,,,,,,,,,,,,,,,,,,,,,,,,,,,,,,,,,,,,,,,,,,,,,,,,,,,,,,,,,,,,,,573.8376301000826,None,,,,,"[0.4321938847362957, 0.7612231930275891, 0.4032823849620439, 0.5161129326101501]","[2533.741328521839, 5598.015953964196, 3995.5706136614053, 1037.0384167048812]",None,"[12.662837838969763, -8.116298065300079, -2.1218966447230265, 8.0]",True,574.8481972999871,577.4630384999327,577.4630384999327,578.6977594001219,None,1,3.1596479499712586,4.188231850042939,None,1,None,1,,,0,,,,,nunamh,001,fr,0,0,2022-05-17_11h14.45.197,Cluster,2022.1.1,None,
,,,,3,0,3,0,8,0,8,0,,,time,,,,,,,,,,,,,,,,,,,,,,,,,,,,,,,,,,,,,,,,,,,,,,,,,,,,,,,,,,,,,,,,,,,,,,,,,,,,,,,,,,,,,,,,,,,,,,,,,,,,,,,,,,,,,,,,,,,579.0768228999805,None,125.0,1.0,0.0008109050486794653,0,"[0.7098691957395552, 0.7098691957395552, 0.7098691957395552, 0.7098691957395552]","[1114.0146659212796, 7146.1365942576695, 3259.465679921932, 2141.343409797283]",None,"[8.975157741519983, -3.0, 6.928758275142619, 12.140037333310634]",False,580.1045530999545,583.270976100117,583.270976100117,584.5045092999935,None,0,3.8542236499488354,4.885242949938402,None,1,None,1,,,,,,,,nunamh,001,fr,0,0,2022-05-17_11h14.45.197,Cluster,2022.1.1,None,
,,,,3,0,3,0,9,0,9,0,,,both,,,,,,,,,,,,,,,,,,,,,,,,,,,,,,,,,,,,,,,,,,,,,,,,,,,,,,,,,,,,,,,,,,,,,,,,,,,,,,,,,,,,,,,,,,,,,,,,,,,,,,,,,,,,,,,,,,,585.0519302999601,None,1482.5033226964335,4.562014860488508,8.240601329657503e-05,1,"[0.7185310837797854, 0.7185310837797854, 0.7185310837797854, 0.7185310837797854]","[588.3318334986676, 741.2516613482169, 933.9185714021644, 1176.663666997335]",Major_3rd,"[7.0, 5.16241742518486, 6.486717348887886, 9.0]",False,586.0608808000106,589.2417526999488,589.2417526999488,590.477510600118,['space'],1,3.92028214992024,4.953079750062898,None,1,None,1,,[0.22661360003985465],,,,,,nunamh,001,fr,0,0,2022-05-17_11h14.45.197,Cluster,2022.1.1,None,
,,,,3,0,3,0,10,0,10,0,,,time,,,,,,,,,,,,,,,,,,,,,,,,,,,,,,,,,,,,,,,,,,,,,,,,,,,,,,,,,,,,,,,,,,,,,,,,,,,,,,,,,,,,,,,,,,,,,,,,,,,,,,,,,,,,,,,,,,,591.0615147999488,None,5968.661650835384,-13.148902913724053,2.5753419251085047e-05,1,"[0.5350413066614572, 0.5350413066614572, 0.5350413066614572, 0.5350413066614572]","[603.6738113642929, 1019.1038584703366, 1403.4153360663338, 296.89246440629523]",None,"[6.194639860553464, 7.299366577576018, 10.417032437983572, 12.884343599480179]",False,592.065408699913,594.7146958000958,594.7146958000958,595.9496919999365,['space'],1,3.1870939501095563,4.224297849927098,None,1,None,1,,[0.4292866000905633],,,,,,nunamh,001,fr,0,0,2022-05-17_11h14.45.197,Cluster,2022.1.1,None,
,,,,3,0,3,0,11,0,11,0,,,time,,,,,,,,,,,,,,,,,,,,,,,,,,,,,,,,,,,,,,,,,,,,,,,,,,,,,,,,,,,,,,,,,,,,,,,,,,,,,,,,,,,,,,,,,,,,,,,,,,,,,,,,,,,,,,,,,,,596.3376426000614,None,,,,,"[0.42639283852228016, 0.42639283852228016, 0.42639283852228016, 0.42639283852228016]","[3575.90957466873, 1087.7702966968304, 761.1075356280786, 315.13239103479475]",None,"[3.0, 8.162925942570439, 5.16241742518486, 13.0]",True,597.3365176001098,599.6533671000507,599.6533671000507,600.886718200054,None,1,2.727215550141409,3.7559525500983,None,1,None,1,,,0,,,,,nunamh,001,fr,0,0,2022-05-17_11h14.45.197,Cluster,2022.1.1,None,
,,,,3,0,3,0,12,0,12,0,,,time,,,,,,,,,,,,,,,,,,,,,,,,,,,,,,,,,,,,,,,,,,,,,,,,,,,,,,,,,,,,,,,,,,,,,,,,,,,,,,,,,,,,,,,,,,,,,,,,,,,,,,,,,,,,,,,,,,,601.1282732998952,None,4594.793419988137,-18.0,1.5719631395728222e-05,1,"[0.6024309906495745, 0.6024309906495745, 0.6024309906495745, 0.6024309906495745]","[416.6318544048669, 4449.515025180987, 5049.077157450577, 167.54756942247275]",None,"[11.823746365296673, -6.0, -8.002661085914196, 12.0]",False,602.1572235000785,604.9946954001207,604.9946954001207,606.2272167999763,['space'],1,3.4229802498593926,4.452226949855685,None,1,None,1,,[0.3762127000372857],,,,,,nunamh,001,fr,0,0,2022-05-17_11h14.45.197,Cluster,2022.1.1,None,
,,,,3,0,3,0,13,0,13,0,,,both,,,,,,,,,,,,,,,,,,,,,,,,,,,,,,,,,,,,,,,,,,,,,,,,,,,,,,,,,,,,,,,,,,,,,,,,,,,,,,,,,,,,,,,,,,,,,,,,,,,,,,,,,,,,,,,,,,,606.6674560999963,None,466.5164957684038,-5.0,4.113841492540627e-05,0,"[0.584300801069512, 0.584300801069512, 0.584300801069512, 0.584300801069512]","[1175.5479062836089, 933.0329915368076, 740.5487761432822, 587.7739531418044]",Major_3rd,"[9.0, 6.486717348887886, 5.16241742518486, 7.0]",False,607.6968837000895,610.4667382999323,610.4667382999323,611.7017783999909,None,0,3.3580994501244277,4.388761850073934,None,1,None,1,,,,,,,,nunamh,001,fr,0,0,2022-05-17_11h14.45.197,Cluster,2022.1.1,None,
,,,,3,0,3,0,14,0,14,0,,,none,,,,,,,,,,,,,,,,,,,,,,,,,,,,,,,,,,,,,,,,,,,,,,,,,,,,,,,,,,,,,,,,,,,,,,,,,,,,,,,,,,,,,,,,,,,,,,,,,,,,,,,,,,,,,,,,,,,612.1419770999346,None,2000.0,2.0,9.418245447449e-05,0,"[0.7130186594489253, 0.7852950300642867, 0.7714410888688109, 0.7154290298754957]","[7351.418661220885, 1908.7735582841196, 645.3594174795593, 726.0498998844259]",None,"[-2.063793475327099, 11.159676965648323, 5.583743565933323, 5.236218676588652]",False,613.2370027001016,616.5470936000347,616.5470936000347,617.7707460999954,None,0,4.034777899971232,5.066574999829754,None,1,None,1,,,,,,,,nunamh,001,fr,0,0,2022-05-17_11h14.45.197,Cluster,2022.1.1,None,
,,,,3,0,3,0,15,0,15,0,,,none,,,,,,,,,,,,,,,,,,,,,,,,,,,,,,,,,,,,,,,,,,,,,,,,,,,,,,,,,,,,,,,,,,,,,,,,,,,,,,,,,,,,,,,,,,,,,,,,,,,,,,,,,,,,,,,,,,,618.3468418000266,None,,,,,"[0.4537091166746801, 0.4468961984977422, 0.6718593380617934, 0.7088270636169438]","[199.92398564834966, 2576.8875322808085, 4571.738551750431, 1782.7524249015246]",None,"[11.489678846650868, 12.254883937865648, -6.756523176997062, 11.0]",True,619.3573078999761,621.9447767001111,621.9447767001111,623.1825930001214,['space'],0,3.32792064989917,4.333586849970743,None,1,None,1,,[0.11551879998296499],0,,,,,nunamh,001,fr,0,0,2022-05-17_11h14.45.197,Cluster,2022.1.1,None,
,,,,3,0,3,0,16,0,16,0,,,time,,,,,,,,,,,,,,,,,,,,,,,,,,,,,,,,,,,,,,,,,,,,,,,,,,,,,,,,,,,,,,,,,,,,,,,,,,,,,,,,,,,,,,,,,,,,,,,,,,,,,,,,,,,,,,,,,,,623.7260080999695,None,4548.938327789952,-12.756523176997062,2.80221484916342e-05,1,"[0.4845742171799591, 0.4845742171799591, 0.4845742171799591, 0.4845742171799591]","[5378.740059232203, 1326.4945013502454, 1554.9792198212615, 5052.3208726943085]",None,"[-8.44087783935553, 10.132798210540699, 10.562014860488507, -8.002661085914196]",False,624.7345145000145,627.2141446000896,627.2141446000896,628.4490241000894,['space'],1,2.9866240499541163,4.015130850020796,None,1,None,1,,[0.31700449995696545],,,,,,nunamh,001,fr,0,0,2022-05-17_11h14.45.197,Cluster,2022.1.1,None,
,,,,3,0,3,0,17,0,17,0,,,none,,,,,,,,,,,,,,,,,,,,,,,,,,,,,,,,,,,,,,,,,,,,,,,,,,,,,,,,,,,,,,,,,,,,,,,,,,,,,,,,,,,,,,,,,,,,,,,,,,,,,,,,,,,,,,,,,,,628.7961301999167,None,481.1333821400436,4.0,0.00011476008868912728,1,"[0.4419893398942929, 0.7082171061022908, 0.7009820911677394, 0.7842987736386025]","[273.4735059818665, 1836.2907457776475, 3542.9056951874995, 1445.6799497344064]",None,"[12.652210799972767, 11.159676965648323, 3.0, 10.417032437983572]",False,629.8057101999875,632.6842912998982,632.6842912998982,633.9151963000186,['space'],1,3.6596828498877585,4.68970194994472,None,1,None,1,,[0.2546147999819368],,,,,,nunamh,001,fr,0,0,2022-05-17_11h14.45.197,Cluster,2022.1.1,None,
,,,,3,0,3,0,18,0,18,0,,,time,,,,,,,,,,,,,,,,,,,,,,,,,,,,,,,,,,,,,,,,,,,,,,,,,,,,,,,,,,,,,,,,,,,,,,,,,,,,,,,,,,,,,,,,,,,,,,,,,,,,,,,,,,,,,,,,,,,634.5476879000198,None,3249.0095854249403,-7.0,3.160609710890789e-05,0,"[0.4300111054049376, 0.4300111054049376, 0.4300111054049376, 0.4300111054049376]","[375.39170007176324, 3169.5047411248606, 6283.559398740151, 422.95447162896176]",None,"[12.408253094745191, 8.0, -6.0, 11.04734342328066]",False,635.5620790000539,637.8847682001069,637.8847682001069,639.0888263001107,None,0,2.7498965500853956,3.7547033501323313,None,1,None,1,,,,,,,,nunamh,001,fr,0,0,2022-05-17_11h14.45.197,Cluster,2022.1.1,None,
,,,,3,0,3,0,19,0,19,0,,,time,,,,,,,,,,,,,,,,,,,,,,,,,,,,,,,,,,,,,,,,,,,,,,,,,,,,,,,,,,,,,,,,,,,,,,,,,,,,,,,,,,,,,,,,,,,,,,,,,,,,,,,,,,,,,,,,,,,639.3719949000515,None,284.8773726442294,6.88434359948018,0.00028836235147856523,1,"[0.5007205197019862, 0.5007205197019862, 0.5007205197019862, 0.5007205197019862]","[2509.8390403018216, 372.78651732855707, 1443.2961649291499, 126.8125914104282]",None,"[12.662837838969763, 12.408253094745191, 10.417032437983572, 14.966314357149813]",False,640.3856893000193,642.9242642999161,642.9242642999161,644.1608688998967,['space'],1,3.0497983500827104,4.0782764500472695,None,1,None,1,,[0.2116658000741154],,,,,,nunamh,001,fr,0,0,2022-05-17_11h14.45.197,Cluster,2022.1.1,None,
,,,,4,0,4,0,0,0,0,0,,,both,,,,,,,,,,,,,,,,,,,,,,,,,,,,,,,,,,,,,,,,,,,,,,,,,,,,,,,,,,,,,,,,,,,,,,,,,,,,,,,,,,,,,,,,,,,,,,,,,,,,,,,,,,,,,,,,,,,647.6657688000705,None,,,,,"[0.5589014238227572, 0.5589014238227572, 0.5589014238227572, 0.5589014238227572]","[1624.5793797653982, 1289.429508222719, 1023.4208788957911, 812.289689882699]",Major_3rd,"[10.667652715985808, 10.0, 7.299366577576018, 5.363737063009177]",True,648.6521272000391,651.3559522998985,651.3559522998985,652.5720953000709,None,1,3.2640369499567896,4.285506549989805,None,1,None,1,,,0,,,,,nunamh,001,fr,0,0,2022-05-17_11h14.45.197,Cluster,2022.1.1,None,
,,,,4,0,4,0,1,0,1,0,,,frequency,,,,,,,,,,,,,,,,,,,,,,,,,,,,,,,,,,,,,,,,,,,,,,,,,,,,,,,,,,,,,,,,,,,,,,,,,,,,,,,,,,,,,,,,,,,,,,,,,,,,,,,,,,,,,,,,,,,652.9707559000235,None,125.0,3.0,0.001020868972334765,1,"[0.5812460071125106, 0.5638488174040348, 0.7322725640571786, 0.6466817098918471]","[314.9802624737183, 250.00000000000003, 198.42513149602496, 157.49013123685916]",Major_3rd,"[13.0, 12.341250460895301, 11.489678846650868, 12.880741781152295]",False,654.000298100058,656.9065865001176,656.9065865001176,658.1408389001153,['space'],1,3.5347554499749094,4.569781949976459,None,1,None,1,,[0.19479060010053217],,,,,,nunamh,001,fr,0,0,2022-05-17_11h14.45.197,Cluster,2022.1.1,None,
,,,,4,0,4,0,2,0,2,0,,,none,,,,,,,,,,,,,,,,,,,,,,,,,,,,,,,,,,,,,,,,,,,,,,,,,,,,,,,,,,,,,,,,,,,,,,,,,,,,,,,,,,,,,,,,,,,,,,,,,,,,,,,,,,,,,,,,,,,658.6210620999336,None,353.5533905932738,-4.0,5.591060055563459e-05,0,"[0.4566498066676931, 0.5713685525322802, 0.542189166235815, 0.7998337946071488]","[303.59901654309914, 5010.860064884975, 5724.489945207869, 354.1862176473581]",None,"[13.0, -8.002661085914196, -8.0, 12.784698087435721]",False,659.6538011000957,662.2480095000938,662.2480095000938,663.4774269000627,None,0,3.380383849842474,4.387102549895644,None,1,None,1,,,,,,,,nunamh,001,fr,0,0,2022-05-17_11h14.45.197,Cluster,2022.1.1,None,
,,,,4,0,4,0,3,0,3,0,,,time,,,,,,,,,,,,,,,,,,,,,,,,,,,,,,,,,,,,,,,,,,,,,,,,,,,,,,,,,,,,,,,,,,,,,,,,,,,,,,,,,,,,,,,,,,,,,,,,,,,,,,,,,,,,,,,,,,,664.0971083000768,None,6062.8662660415985,-21.0,1.0590954282987187e-05,0,"[0.7133874611526297, 0.7133874611526297, 0.7133874611526297, 0.7133874611526297]","[273.2716364239066, 7174.931214294198, 496.7196327051349, 871.8922308056393]",None,"[12.652210799972767, -3.0, 9.06280727391988, 5.81671246552616]",False,665.1332855999935,668.2912721999455,668.2912721999455,669.5300318999216,None,0,3.8914927998557687,4.928167999954894,None,1,None,1,,,,,,,,nunamh,001,fr,0,0,2022-05-17_11h14.45.197,Cluster,2022.1.1,None,
,,,,4,0,4,0,4,0,4,0,,,time,,,,,,,,,,,,,,,,,,,,,,,,,,,,,,,,,,,,,,,,,,,,,,,,,,,,,,,,,,,,,,,,,,,,,,,,,,,,,,,,,,,,,,,,,,,,,,,,,,,,,,,,,,,,,,,,,,,670.1057748000603,None,7529.362884492275,-8.0,6.65925390997191e-05,1,"[0.5207110625342267, 0.5207110625342267, 0.5207110625342267, 0.5207110625342267]","[843.3033071933299, 2122.757379645323, 3405.2051788099284, 5341.233184276642]",None,"[5.81671246552616, 12.0, 5.0, -8.44087783935553]",False,671.1202571000904,673.7205690999981,673.7205690999981,674.9337738000322,['space'],1,3.107621249742806,4.123898749938235,None,1,None,1,,[0.3300753999501467],,,,,,nunamh,001,fr,0,0,2022-05-17_11h14.45.197,Cluster,2022.1.1,None,
,,,,4,0,4,0,5,0,5,0,,,frequency,,,,,,,,,,,,,,,,,,,,,,,,,,,,,,,,,,,,,,,,,,,,,,,,,,,,,,,,,,,,,,,,,,,,,,,,,,,,,,,,,,,,,,,,,,,,,,,,,,,,,,,,,,,,,,,,,,,675.2896314000245,None,,,,,"[0.4581156396724977, 0.4459567825251199, 0.6650019951999182, 0.7988702864085894]","[181.59498234953426, 203.83347585076268, 228.7953408174662, 256.81408689761423]",Tone,"[11.72279626284238, 11.489678846650868, 11.994205410041342, 12.341250460895301]",True,676.3043353999965,678.9165517999791,678.9165517999791,680.1227492999751,None,1,3.415682749822736,4.4269667498301715,None,1,None,1,,,0,,,,,nunamh,001,fr,0,0,2022-05-17_11h14.45.197,Cluster,2022.1.1,None,
,,,,4,0,4,0,6,0,6,0,,,frequency,,,,,,,,,,,,,,,,,,,,,,,,,,,,,,,,,,,,,,,,,,,,,,,,,,,,,,,,,,,,,,,,,,,,,,,,,,,,,,,,,,,,,,,,,,,,,,,,,,,,,,,,,,,,,,,,,,,680.7715596000198,None,3409.595452310038,-1.0,6.55748381808712e-05,1,"[0.5738653021882119, 0.5319298195932524, 0.4965817100981245, 0.5358579354691609]","[5412.395407782944, 4821.896130862484, 4295.821081991248, 3827.1414953062485]",Tone,"[-8.44087783935553, -8.0, -4.747613271291577, 0.0]",False,681.7815763000399,684.4084755999502,684.4084755999502,685.6301859000232,['space'],1,3.163398750126362,4.174182650167495,None,1,None,1,,[0.2610150999389589],,,,,,nunamh,001,fr,0,0,2022-05-17_11h14.45.197,Cluster,2022.1.1,None,
,,,,4,0,4,0,7,0,7,0,,,none,,,,,,,,,,,,,,,,,,,,,,,,,,,,,,,,,,,,,,,,,,,,,,,,,,,,,,,,,,,,,,,,,,,,,,,,,,,,,,,,,,,,,,,,,,,,,,,,,,,,,,,,,,,,,,,,,,,686.0015797999222,None,1752.3487197650545,4.841202016064529,0.00011110126679634137,1,"[0.6222977353013056, 0.6737084766457229, 0.694498262888308, 0.534723271898514]","[1541.279272455401, 487.18394299250673, 271.09481470371185, 317.6992219375776]",None,"[10.562014860488507, 9.06280727391988, 12.652210799972767, 13.0]",False,687.0003235000186,690.0335838000756,690.0335838000756,691.2481933999807,['space'],1,3.565026249969378,4.593233250081539,None,1,None,1,,[0.2657939000055194],,,,,,nunamh,001,fr,0,0,2022-05-17_11h14.45.197,Cluster,2022.1.1,None,
,,,,4,0,4,0,8,0,8,0,,,none,,,,,,,,,,,,,,,,,,,,,,,,,,,,,,,,,,,,,,,,,,,,,,,,,,,,,,,,,,,,,,,,,,,,,,,,,,,,,,,,,,,,,,,,,,,,,,,,,,,,,,,,,,,,,,,,,,,691.6371889000293,None,3482.202253184498,-11.0,2.1095800812449082e-05,0,"[0.7258571076164901, 0.7237755215747587, 0.5017575718495627, 0.4298355329487704]","[1080.8284651616582, 1179.01569463958, 3197.522381214402, 2839.8609827907276]",None,"[8.162925942570439, 9.0, 7.0, 11.0]",False,693.6046859000344,696.5756759000942,696.5756759000942,697.8068005000241,None,0,3.400408299639821,4.414195799734443,None,1,None,1,,,,,,,,nunamh,001,fr,0,0,2022-05-17_11h14.45.197,Cluster,2022.1.1,None,
,,,,4,0,4,0,9,0,9,0,,,both,,,,,,,,,,,,,,,,,,,,,,,,,,,,,,,,,,,,,,,,,,,,,,,,,,,,,,,,,,,,,,,,,,,,,,,,,,,,,,,,,,,,,,,,,,,,,,,,,,,,,,,,,,,,,,,,,,,698.068220499903,None,,,,,"[0.7319383095382274, 0.7319383095382274, 0.7319383095382274, 0.7319383095382274]","[1012.6354096756655, 1517.2388006129672, 2273.2896322702973, 3406.085943820975]",Perfect_5th,"[7.299366577576018, 10.562014860488507, 12.55667241725619, 5.0]",True,699.0801448000129,702.3085553001147,702.3085553001147,703.5122245000675,None,1,3.967469350202009,4.973341750213876,None,1,None,1,,,0,,,,,nunamh,001,fr,0,0,2022-05-17_11h14.45.197,Cluster,2022.1.1,None,
,,,,4,0,4,0,10,0,10,0,,,frequency,,,,,,,,,,,,,,,,,,,,,,,,,,,,,,,,,,,,,,,,,,,,,,,,,,,,,,,,,,,,,,,,,,,,,,,,,,,,,,,,,,,,,,,,,,,,,,,,,,,,,,,,,,,,,,,,,,,704.0992481000721,None,1231.1444133449168,2.0,6.763016510314193e-05,1,"[0.4061236174197125, 0.5541850973177691, 0.7238900312921851, 0.5979770579271533]","[1954.319936868493, 1741.101126592249, 1551.1447618337354, 1381.9128799677767]",Tone,"[11.616156682525062, 10.841202016064528, 10.562014860488507, 10.417032437983572]",False,705.1308432999067,707.8274074001238,707.8274074001238,709.0532199000008,['space'],1,3.3092619499657303,4.332806549966335,None,1,None,1,,[0.295161799993366],,,,,,nunamh,001,fr,0,0,2022-05-17_11h14.45.197,Cluster,2022.1.1,None,
,,,,4,0,4,0,11,0,11,0,,,frequency,,,,,,,,,,,,,,,,,,,,,,,,,,,,,,,,,,,,,,,,,,,,,,,,,,,,,,,,,,,,,,,,,,,,,,,,,,,,,,,,,,,,,,,,,,,,,,,,,,,,,,,,,,,,,,,,,,,709.521682899911,None,334.6348586701122,6.977149928426585,0.0002088235207813617,1,"[0.792075346036775, 0.488125721433478, 0.5045406990318652, 0.610068942093037]","[843.2270049341405, 669.2697173402244, 531.1997266781658, 421.61350246707025]",Major_3rd,"[5.81671246552616, 5.583743565933323, 8.00339701779453, 11.04734342328066]",False,710.5383486000355,713.3569765000138,713.3569765000138,714.5920160000678,['space'],1,3.439022549893707,4.444400949869305,None,1,None,1,,[0.22021210007369518],,,,,,nunamh,001,fr,0,0,2022-05-17_11h14.45.197,Cluster,2022.1.1,None,
,,,,4,0,4,0,12,0,12,0,,,frequency,,,,,,,,,,,,,,,,,,,,,,,,,,,,,,,,,,,,,,,,,,,,,,,,,,,,,,,,,,,,,,,,,,,,,,,,,,,,,,,,,,,,,,,,,,,,,,,,,,,,,,,,,,,,,,,,,,,715.0354406998958,None,8000.0,-13.0,4.064152580820497e-05,0,"[0.43685647684860096, 0.5892428448299846, 0.7725428032340773, 0.7199505631432506]","[3174.8021039364003, 4000.0000000000014, 5039.684199579494, 6349.604207872799]",Major_3rd,"[8.0, -2.1218966447230265, -8.002661085914196, -6.0]",False,716.7112549999729,719.5304123999085,719.5304123999085,720.7345980999526,None,0,3.5564554498996586,4.587387249805033,None,1,None,1,,,,,,,,nunamh,001,fr,0,0,2022-05-17_11h14.45.197,Cluster,2022.1.1,None,
,,,,4,0,4,0,13,0,13,0,,,none,,,,,,,,,,,,,,,,,,,,,,,,,,,,,,,,,,,,,,,,,,,,,,,,,,,,,,,,,,,,,,,,,,,,,,,,,,,,,,,,,,,,,,,,,,,,,,,,,,,,,,,,,,,,,,,,,,,721.3498436999507,None,,,,,"[0.5500396035250772, 0.4958070222542308, 0.4659527146236232, 0.5119097364814018]","[125.0223313619064, 3169.130587349112, 2657.294960954256, 147.99185746885476]",None,"[14.966314357149813, 8.0, 12.254883937865648, 13.0]",True,722.3484642000403,724.8902038999368,724.8902038999368,726.1154370000586,None,1,3.0676154498942196,4.092209749855101,None,1,None,1,,,0,,,,,nunamh,001,fr,0,0,2022-05-17_11h14.45.197,Cluster,2022.1.1,None,
,,,,4,0,4,0,14,0,14,0,,,both,,,,,,,,,,,,,,,,,,,,,,,,,,,,,,,,,,,,,,,,,,,,,,,,,,,,,,,,,,,,,,,,,,,,,,,,,,,,,,,,,,,,,,,,,,,,,,,,,,,,,,,,,,,,,,,,,,,726.488126500044,None,3696.2961383416177,-5.0,4.4205062235042465e-05,1,"[0.706174269507386, 0.706174269507386, 0.706174269507386, 0.706174269507386]","[5867.504378389478, 5227.352129390014, 4657.041311341736, 4148.952134600958]",Tone,"[-8.0, -8.44087783935553, -7.0, -4.0]",False,727.4959128000773,730.6416585999541,730.6416585999541,731.8427716000006,['space'],1,3.853098350111395,4.865727450000122,None,1,None,1,,[0.2014754000119865],,,,,,nunamh,001,fr,0,0,2022-05-17_11h14.45.197,Cluster,2022.1.1,None,
,,,,4,0,4,0,15,0,15,0,,,frequency,,,,,,,,,,,,,,,,,,,,,,,,,,,,,,,,,,,,,,,,,,,,,,,,,,,,,,,,,,,,,,,,,,,,,,,,,,,,,,,,,,,,,,,,,,,,,,,,,,,,,,,,,,,,,,,,,,,732.4027398999315,None,2654.8246741297385,6.254883937865648,0.0001567189648874284,1,"[0.6903570742466325, 0.7849961431179933, 0.5195063601324776, 0.5401799946356228]","[4214.271480504679, 3754.4890598770085, 3344.8694907163544, 2979.93994162593]",Tone,"[-4.0, 0.8961737469595663, 6.0, 10.0]",False,733.4033981000539,736.4153585999738,736.4153585999738,737.6488900999539,['space'],1,3.585095850052312,4.61974014993757,None,1,None,1,,[0.25082649989053607],,,,,,nunamh,001,fr,0,0,2022-05-17_11h14.45.197,Cluster,2022.1.1,None,
,,,,4,0,4,0,16,0,16,0,,,both,,,,,,,,,,,,,,,,,,,,,,,,,,,,,,,,,,,,,,,,,,,,,,,,,,,,,,,,,,,,,,,,,,,,,,,,,,,,,,,,,,,,,,,,,,,,,,,,,,,,,,,,,,,,,,,,,,,738.0733312999364,None,217.63764082403114,8.0,0.0005799612485594465,1,"[0.428136738544419, 0.428136738544419, 0.428136738544419, 0.428136738544419]","[548.4124898473133, 435.27528164806233, 345.47821999194423, 274.20624492365664]",Major_3rd,"[8.0, 11.04734342328066, 12.784698087435721, 12.652210799972767]",False,739.1569119000342,741.4890550998971,741.4890550998971,742.722546499921,['space'],1,2.731172999832779,3.76580089982599,None,1,None,1,,[0.2417177997995168],,,,,,nunamh,001,fr,0,0,2022-05-17_11h14.45.197,Cluster,2022.1.1,None,
,,,,4,0,4,0,17,0,17,0,,,frequency,,,,,,,,,,,,,,,,,,,,,,,,,,,,,,,,,,,,,,,,,,,,,,,,,,,,,,,,,,,,,,,,,,,,,,,,,,,,,,,,,,,,,,,,,,,,,,,,,,,,,,,,,,,,,,,,,,,742.9739993000403,None,,,,,"[0.769000838399896, 0.5178590372298338, 0.45616225736773414, 0.7113634452581381]","[4896.947045026248, 5496.637210622694, 6169.766662249067, 6925.328925298972]",Tone,"[-8.0, -8.116298065300079, -7.0, -4.0]",True,743.9741020000074,746.7566627999768,746.7566627999768,747.9622615000699,None,1,3.4975560498423874,4.527649749768898,None,1,None,1,,,0,,,,,nunamh,001,fr,0,0,2022-05-17_11h14.45.197,Cluster,2022.1.1,None,
,,,,4,0,4,0,18,0,18,0,,,none,,,,,,,,,,,,,,,,,,,,,,,,,,,,,,,,,,,,,,,,,,,,,,,,,,,,,,,,,,,,,,,,,,,,,,,,,,,,,,,,,,,,,,,,,,,,,,,,,,,,,,,,,,,,,,,,,,,748.5438614999875,None,140.01977695567854,8.0,0.0014795050633858375,1,"[0.5319189197902006, 0.46577483379292894, 0.4420141669348507, 0.5010514199150554]","[360.57766482119956, 1010.1252995035597, 2668.582720012323, 179.4497936646622]",None,"[12.784698087435721, 7.299366577576018, 12.0, 11.72279626284238]",False,749.548240599921,752.0340609000996,752.0340609000996,753.2665671000723,['space'],1,2.9908619502093643,4.022602650104091,None,1,None,1,,[0.22644810006022453],,,,,,nunamh,001,fr,0,0,2022-05-17_11h14.45.197,Cluster,2022.1.1,None,
,,,,4,0,4,0,19,0,19,0,,,none,,,,,,,,,,,,,,,,,,,,,,,,,,,,,,,,,,,,,,,,,,,,,,,,,,,,,,,,,,,,,,,,,,,,,,,,,,,,,,,,,,,,,,,,,,,,,,,,,,,,,,,,,,,,,,,,,,,753.6209750999697,None,203.0630990890589,8.0,0.0006516864001597818,1,"[0.7349517200695432, 0.5839707676264034, 0.670201695751254, 0.44410905003464785]","[1439.8786861688457, 1319.7054942765915, 264.4051612863995, 6903.736496099107]",None,"[10.417032437983572, 10.132798210540699, 12.652210799972767, -4.0]",False,755.8731706999242,758.9078347000759,758.9078347000759,760.1358292999212,['space'],1,3.4541184999980032,4.468071599956602,None,1,None,1,,[0.23091899999417365],,,,,,nunamh,001,fr,0,0,2022-05-17_11h14.45.197,Cluster,2022.1.1,None,
,,,,5,0,5,0,0,0,0,0,,,time,,,,,,,,,,,,,,,,,,,,,,,,,,,,,,,,,,,,,,,,,,,,,,,,,,,,,,,,,,,,,,,,,,,,,,,,,,,,,,,,,,,,,,,,,,,,,,,,,,,,,,,,,,,,,,,,,,,763.5810124001,None,1414.213562373095,-2.0,4.005983164181629e-05,0,"[0.6609805911659994, 0.6609805911659994, 0.6609805911659994, 0.6609805911659994]","[1464.700006177717, 1836.350825509566, 343.9473908698606, 4027.7152856022108]",None,"[10.417032437983572, 11.159676965648323, 12.784698087435721, -2.1218966447230265]",False,764.546508600004,767.5468919998966,767.5468919998966,768.7725313000847,None,0,3.6603801497258246,4.675613649887964,None,1,None,1,,,,,,,,nunamh,001,fr,0,0,2022-05-17_11h14.45.197,Cluster,2022.1.1,None,
,,,,5,0,5,0,1,0,1,0,,,frequency,,,,,,,,,,,,,,,,,,,,,,,,,,,,,,,,,,,,,,,,,,,,,,,,,,,,,,,,,,,,,,,,,,,,,,,,,,,,,,,,,,,,,,,,,,,,,,,,,,,,,,,,,,,,,,,,,,,769.2732478000689,None,176.7766952966369,9.0,0.0009864931471052672,1,"[0.7082032733540273, 0.40154013949321504, 0.6681487595217863, 0.6709753480481889]","[280.61551207734334, 250.00000000000006, 222.72467953508487, 198.42513149602496]",Tone,"[12.884343599480179, 12.341250460895301, 11.682205299554338, 11.489678846650868]",False,770.2863225999754,773.0931921000592,773.0931921000592,774.3237147999462,['space'],1,3.462195649975911,4.472565650008619,None,1,None,1,,[0.21237000008113682],,,,,,nunamh,001,fr,0,0,2022-05-17_11h14.45.197,Cluster,2022.1.1,None,
,,,,5,0,5,0,2,0,2,0,,,time,,,,,,,,,,,,,,,,,,,,,,,,,,,,,,,,,,,,,,,,,,,,,,,,,,,,,,,,,,,,,,,,,,,,,,,,,,,,,,,,,,,,,,,,,,,,,,,,,,,,,,,,,,,,,,,,,,,774.8095553000458,None,4332.98104937157,-11.0,3.0114772967290055e-05,0,"[0.5698948209617595, 0.5698948209617595, 0.5698948209617595, 0.5698948209617595]","[907.1724344552844, 161.04075655907258, 241.1587017280593, 980.348540519306]",None,"[6.0, 12.208275013174095, 12.0, 7.0]",False,775.8122759999242,778.5616929999087,778.5616929999087,779.7962674999144,None,0,3.316159350099042,4.352660950040445,None,1,None,1,,,,,,,,nunamh,001,fr,0,0,2022-05-17_11h14.45.197,Cluster,2022.1.1,None,
,,,,5,0,5,0,3,0,3,0,,,none,,,,,,,,,,,,,,,,,,,,,,,,,,,,,,,,,,,,,,,,,,,,,,,,,,,,,,,,,,,,,,,,,,,,,,,,,,,,,,,,,,,,,,,,,,,,,,,,,,,,,,,,,,,,,,,,,,,780.2166705999989,None,285.9612671183678,6.88434359948018,0.0002858256589707886,1,"[0.7634763772879659, 0.7413271455471478, 0.4480370922141558, 0.72955989974739]","[477.1994927204589, 129.8523545765276, 2014.0545698655494, 5661.951430207366]",None,"[10.0, 14.392904251219491, 11.616156682525062, -8.116298065300079]",False,781.2183159000706,784.1989567999262,784.1989567999262,785.4372533999849,['space'],1,3.722214549779892,4.757273549912497,None,1,None,1,,[0.27470159996300936],,,,,,nunamh,001,fr,0,0,2022-05-17_11h14.45.197,Cluster,2022.1.1,None,
,,,,5,0,5,0,4,0,4,0,,,frequency,,,,,,,,,,,,,,,,,,,,,,,,,,,,,,,,,,,,,,,,,,,,,,,,,,,,,,,,,,,,,,,,,,,,,,,,,,,,,,,,,,,,,,,,,,,,,,,,,,,,,,,,,,,,,,,,,,,786.0354848001152,None,220.5736226434335,5.682205299554338,0.0004330643976391617,1,"[0.7982764359986285, 0.7870853091507604, 0.734342598333037, 0.5277052075222033]","[1111.6214008801214, 741.9182743215553, 495.1710405507342, 330.4870197789831]",Perfect_5th,"[8.975157741519983, 5.16241742518486, 9.06280727391988, 12.977149928426584]",False,787.0342031999025,790.3823768999428,790.3823768999428,791.6056123999879,['space'],1,3.8854391498025507,4.898634549928829,None,1,None,1,,[0.18555900012142956],,,,,,nunamh,001,fr,0,0,2022-05-17_11h14.45.197,Cluster,2022.1.1,None,
,,,,5,0,5,0,5,0,5,0,,,time,,,,,,,,,,,,,,,,,,,,,,,,,,,,,,,,,,,,,,,,,,,,,,,,,,,,,,,,,,,,,,,,,,,,,,,,,,,,,,,,,,,,,,,,,,,,,,,,,,,,,,,,,,,,,,,,,,,791.9808136001229,None,,,,,"[0.7501427441562645, 0.7501427441562645, 0.7501427441562645, 0.7501427441562645]","[419.8433068623484, 5534.77044147534, 6362.6967361562, 1765.549434269916]",None,"[11.823746365296673, -8.116298065300079, -6.0, 10.841202016064528]",True,792.9783443999477,796.2652205000632,796.2652205000632,797.477570499992,None,1,4.054828750202432,5.076104950159788,None,1,None,1,,,0,,,,,nunamh,001,fr,0,0,2022-05-17_11h14.45.197,Cluster,2022.1.1,None,
,,,,5,0,5,0,6,0,6,0,,,both,,,,,,,,,,,,,,,,,,,,,,,,,,,,,,,,,,,,,,,,,,,,,,,,,,,,,,,,,,,,,,,,,,,,,,,,,,,,,,,,,,,,,,,,,,,,,,,,,,,,,,,,,,,,,,,,,,,798.1004888999742,None,1570.261915171008,4.667652715985808,9.283002149838191e-05,0,"[0.49108249004287274, 0.49108249004287274, 0.49108249004287274, 0.49108249004287274]","[2492.635416008058, 2220.6856969127903, 1978.4060407721909, 1762.5594056850487]",Tone,"[12.662837838969763, 12.55667241725619, 11.616156682525062, 10.841202016064528]",False,799.1023387000896,801.6179357001092,801.6179357001092,802.8528791998979,None,0,3.0170856500044465,4.053271250100806,None,1,None,1,,,,,,,,nunamh,001,fr,0,0,2022-05-17_11h14.45.197,Cluster,2022.1.1,None,
,,,,5,0,5,0,7,0,7,0,,,frequency,,,,,,,,,,,,,,,,,,,,,,,,,,,,,,,,,,,,,,,,,,,,,,,,,,,,,,,,,,,,,,,,,,,,,,,,,,,,,,,,,,,,,,,,,,,,,,,,,,,,,,,,,,,,,,,,,,,803.2071650000289,None,329.87697769322364,1.0,0.00010632127908437066,0,"[0.5740866007952106, 0.4960742191776388, 0.7211036793455534, 0.43422242851842746]","[523.6470614103135, 466.51649576840384, 415.618948071394, 370.27438807164117]",Tone,"[8.00339701779453, 10.105712428777647, 11.823746365296673, 12.408253094745191]",False,804.2385042000096,807.057025999995,807.057025999995,808.2879143001046,None,0,3.2404693502467126,4.255350450053811,None,1,None,1,,,,,,,,nunamh,001,fr,0,0,2022-05-17_11h14.45.197,Cluster,2022.1.1,None,
,,,,5,0,5,0,8,0,8,0,,,time,,,,,,,,,,,,,,,,,,,,,,,,,,,,,,,,,,,,,,,,,,,,,,,,,,,,,,,,,,,,,,,,,,,,,,,,,,,,,,,,,,,,,,,,,,,,,,,,,,,,,,,,,,,,,,,,,,,808.5428355000913,None,574.3491774985172,3.0,8.45350024333888e-05,1,"[0.5240897843815399, 0.5240897843815399, 0.5240897843815399, 0.5240897843815399]","[3837.4233589551677, 792.2630104155041, 2796.066621010447, 5693.1154752496595]",None,"[0.0, 5.363737063009177, 11.175891324766763, -8.0]",False,809.5607336999383,812.158291199943,812.158291199943,813.3636125000194,['space'],1,3.126087649958208,4.158420250052586,None,1,None,1,,[0.22387939994223416],,,,,,nunamh,001,fr,0,0,2022-05-17_11h14.45.197,Cluster,2022.1.1,None,
,,,,5,0,5,0,9,0,9,0,,,both,,,,,,,,,,,,,,,,,,,,,,,,,,,,,,,,,,,,,,,,,,,,,,,,,,,,,,,,,,,,,,,,,,,,,,,,,,,,,,,,,,,,,,,,,,,,,,,,,,,,,,,,,,,,,,,,,,,813.7829952000175,None,287.17458874925893,2.0,0.0001612678756215627,1,"[0.4068846366609073, 0.4068846366609073, 0.4068846366609073, 0.4068846366609073]","[180.90865468004733, 203.06309908905897, 227.93062213955432, 255.84347299919386]",Tone,"[11.72279626284238, 11.489678846650868, 11.994205410041342, 12.341250460895301]",False,814.8024665000848,817.0688557000831,817.0688557000831,818.2991470000707,['space'],1,2.647888150298968,3.6836139501538128,None,1,None,1,,[0.25028280005790293],,,,,,nunamh,001,fr,0,0,2022-05-17_11h14.45.197,Cluster,2022.1.1,None,
,,,,5,0,5,0,10,0,10,0,,,time,,,,,,,,,,,,,,,,,,,,,,,,,,,,,,,,,,,,,,,,,,,,,,,,,,,,,,,,,,,,,,,,,,,,,,,,,,,,,,,,,,,,,,,,,,,,,,,,,,,,,,,,,,,,,,,,,,,818.5517597999424,None,,,,,"[0.782451205626244, 0.782451205626244, 0.782451205626244, 0.782451205626244]","[1234.395443600023, 145.34522926588318, 964.0039862952498, 2267.679739893171]",None,"[9.649313447323593, 13.651682937384956, 7.0, 12.55667241725619]",True,819.5516643000301,822.9410224000458,822.9410224000458,824.172081900062,['space'],0,4.1578556501772255,5.170824050204828,None,1,None,1,,[0.36950880009680986],0,,,,,nunamh,001,fr,0,0,2022-05-17_11h14.45.197,Cluster,2022.1.1,None,
,,,,5,0,5,0,11,0,11,0,,,frequency,,,,,,,,,,,,,,,,,,,,,,,,,,,,,,,,,,,,,,,,,,,,,,,,,,,,,,,,,,,,,,,,,,,,,,,,,,,,,,,,,,,,,,,,,,,,,,,,,,,,,,,,,,,,,,,,,,,824.7610438999254,None,130.47315464988677,8.392904251219491,0.0017713356122583746,1,"[0.7969669128383498, 0.7404268034128997, 0.5722946474885966, 0.5368821020651317]","[657.5434959583259, 438.8576321277332, 292.902328835395, 195.48885095435105]",Perfect_5th,"[5.583743565933323, 11.0, 12.884343599480179, 11.48691210644989]",False,825.7596724000759,828.9118461001199,828.9118461001199,830.1463570999913,['space'],1,3.6920780499931425,4.7237582500092685,None,1,None,1,,[0.25019420008175075],,,,,,nunamh,001,fr,0,0,2022-05-17_11h14.45.197,Cluster,2022.1.1,None,
,,,,5,0,5,0,12,0,12,0,,,both,,,,,,,,,,,,,,,,,,,,,,,,,,,,,,,,,,,,,,,,,,,,,,,,,,,,,,,,,,,,,,,,,,,,,,,,,,,,,,,,,,,,,,,,,,,,,,,,,,,,,,,,,,,,,,,,,,,830.5404715000186,None,4002.426159164129,-8.121896644723027,3.301703017164487e-05,0,"[0.7471950763673211, 0.7471950763673211, 0.7471950763673211, 0.7471950763673211]","[6353.45549548218, 5660.285356686768, 5042.740968580774, 4492.571464822385]",Tone,"[-6.0, -8.116298065300079, -8.002661085914196, -6.0]",False,831.5353153001051,834.8200519001111,834.8200519001111,836.0531824000645,None,0,4.025234749773517,5.041123649803922,None,1,None,1,,,,,,,,nunamh,001,fr,0,0,2022-05-17_11h14.45.197,Cluster,2022.1.1,None,
,,,,5,0,5,0,13,0,13,0,,,none,,,,,,,,,,,,,,,,,,,,,,,,,,,,,,,,,,,,,,,,,,,,,,,,,,,,,,,,,,,,,,,,,,,,,,,,,,,,,,,,,,,,,,,,,,,,,,,,,,,,,,,,,,,,,,,,,,,836.6219230999704,None,1231.1444133449168,4.0,8.51413334521805e-05,1,"[0.5512371303948799, 0.46877071971974527, 0.4721298473863985, 0.7145886217270603]","[2797.5753552822507, 4031.6197796040497, 1038.3123447126375, 248.35320451766734]",None,"[11.175891324766763, -2.1218966447230265, 8.0, 12.341250460895301]",False,837.6528853999916,840.1906536999159,840.1906536999159,841.4228574000299,['space'],1,3.223084550118074,4.227454249979928,None,1,None,1,,[0.21111119980923831],,,,,,nunamh,001,fr,0,0,2022-05-17_11h14.45.197,Cluster,2022.1.1,None,
,,,,5,0,5,0,14,0,14,0,,,time,,,,,,,,,,,,,,,,,,,,,,,,,,,,,,,,,,,,,,,,,,,,,,,,,,,,,,,,,,,,,,,,,,,,,,,,,,,,,,,,,,,,,,,,,,,,,,,,,,,,,,,,,,,,,,,,,,,841.9424481999595,None,,,,,"[0.4968382027052148, 0.4968382027052148, 0.4968382027052148, 0.4968382027052148]","[1336.0285353643808, 1457.5587281707105, 1231.332137678714, 294.7526490232942]",None,"[10.132798210540699, 10.417032437983572, 9.649313447323593, 12.884343599480179]",True,842.9412920000032,845.4641734000761,845.4641734000761,846.6976986001246,None,1,3.0270374501124024,4.059832450002432,None,1,None,1,,,0,,,,,nunamh,001,fr,0,0,2022-05-17_11h14.45.197,Cluster,2022.1.1,None,
,,,,5,0,5,0,15,0,15,0,,,none,,,,,,,,,,,,,,,,,,,,,,,,,,,,,,,,,,,,,,,,,,,,,,,,,,,,,,,,,,,,,,,,,,,,,,,,,,,,,,,,,,,,,,,,,,,,,,,,,,,,,,,,,,,,,,,,,,,847.0449149000924,None,251.96297002758936,6.341250460895301,0.0003432466052594966,1,"[0.4310755340630305, 0.523833294373554, 0.47651615511872025, 0.5479104596163336]","[1545.4021508519404, 848.1194564038109, 893.2709155320812, 276.1482827861878]",None,"[10.562014860488507, 5.81671246552616, 6.0, 12.652210799972767]",False,848.0507658999413,850.5051446999423,850.5051446999423,851.7348990000319,['space'],1,3.0255888500250876,4.057274949969724,None,1,None,1,,[0.2420901998411864],,,,,,nunamh,001,fr,0,0,2022-05-17_11h14.45.197,Cluster,2022.1.1,None,
,,,,5,0,5,0,16,0,16,0,,,both,,,,,,,,,,,,,,,,,,,,,,,,,,,,,,,,,,,,,,,,,,,,,,,,,,,,,,,,,,,,,,,,,,,,,,,,,,,,,,,,,,,,,,,,,,,,,,,,,,,,,,,,,,,,,,,,,,,852.1634788000956,None,125.0,6.0,0.0014420157515633036,1,"[0.6885732270997109, 0.6885732270997109, 0.6885732270997109, 0.6885732270997109]","[629.9605249474366, 420.4482076268573, 280.6155120773433, 187.2883846095852]",Perfect_5th,"[6.0, 11.823746365296673, 12.884343599480179, 11.48691210644989]",False,853.175028800033,856.2775560000446,856.2775560000446,857.5050115000922,['space'],1,3.786525750067085,4.816790950251743,None,1,None,1,,[0.15515460004098713],,,,,,nunamh,001,fr,0,0,2022-05-17_11h14.45.197,Cluster,2022.1.1,None,
,,,,5,0,5,0,17,0,17,0,,,time,,,,,,,,,,,,,,,,,,,,,,,,,,,,,,,,,,,,,,,,,,,,,,,,,,,,,,,,,,,,,,,,,,,,,,,,,,,,,,,,,,,,,,,,,,,,,,,,,,,,,,,,,,,,,,,,,,,858.110253199935,None,1943.2537859309898,5.616156682525062,0.00013792492943907132,1,"[0.6077224736455823, 0.6077224736455823, 0.6077224736455823, 0.6077224736455823]","[140.35175515895986, 323.19796341108395, 1172.9699926962992, 6360.512327853152]",None,"[14.0, 12.977149928426584, 9.0, -6.0]",False,859.0783786999527,861.9461308000609,861.9461308000609,863.1779422999825,['space'],1,3.4768671500496566,4.504501350224018,None,1,None,1,,[0.26768249995075166],,,,,,nunamh,001,fr,0,0,2022-05-17_11h14.45.197,Cluster,2022.1.1,None,
,,,,5,0,5,0,18,0,18,0,,,none,,,,,,,,,,,,,,,,,,,,,,,,,,,,,,,,,,,,,,,,,,,,,,,,,,,,,,,,,,,,,,,,,,,,,,,,,,,,,,,,,,,,,,,,,,,,,,,,,,,,,,,,,,,,,,,,,,,863.6368259999435,None,6062.8662660415985,-15.0,2.1131731960402576e-05,0,"[0.7085449175485015, 0.5536012277104023, 0.4835771139664944, 0.4908329547228173]","[280.31346068782784, 614.2080043326363, 1044.4227740995675, 216.93339384885627]",None,"[12.884343599480179, 6.194639860553464, 8.0, 11.682205299554338]",False,864.6506797000766,867.4159774000291,867.4159774000291,868.6232261999976,None,0,3.2647690498270094,4.298709749942645,None,1,None,1,,,,,,,,nunamh,001,fr,0,0,2022-05-17_11h14.45.197,Cluster,2022.1.1,None,
,,,,5,0,5,0,19,0,19,0,,,time,,,,,,,,,,,,,,,,,,,,,,,,,,,,,,,,,,,,,,,,,,,,,,,,,,,,,,,,,,,,,,,,,,,,,,,,,,,,,,,,,,,,,,,,,,,,,,,,,,,,,,,,,,,,,,,,,,,869.0073681999929,None,217.63764082403114,6.0,0.0004606795947767153,1,"[0.4810463087317543, 0.4810463087317543, 0.4810463087317543, 0.4810463087317543]","[3767.6099461656504, 5045.472524568453, 406.8350815947471, 4738.1177331579765]",None,"[0.8961737469595663, -8.002661085914196, 11.823746365296673, -7.0]",False,870.0237453000154,872.4912441999186,872.4912441999186,873.7239496000111,['space'],1,2.959446650231257,3.9882042503450066,None,1,None,1,,[0.21467559994198382],,,,,,nunamh,001,fr,0,0,2022-05-17_11h14.45.197,Cluster,2022.1.1,None,
,,,,6,0,6,0,0,0,0,0,,,both,,,,,,,,,,,,,,,,,,,,,,,,,,,,,,,,,,,,,,,,,,,,,,,,,,,,,,,,,,,,,,,,,,,,,,,,,,,,,,,,,,,,,,,,,,,,,,,,,,,,,,,,,,,,,,,,,,,878.37366069993,None,,,,,"[0.5766334547570593, 0.5766334547570593, 0.5766334547570593, 0.5766334547570593]","[2162.7449735118817, 2427.5991529389476, 2724.88791768195, 3058.583273494744]",Tone,"[12.140037333310634, 12.662837838969763, 12.0, 9.0]",True,879.3534965999424,882.1015258999541,882.1015258999541,883.335448600119,None,1,3.352981149684638,4.385849049780518,None,1,None,1,,,0,,,,,nunamh,001,fr,0,0,2022-05-17_11h14.45.197,Cluster,2022.1.1,None,
,,,,6,0,6,0,1,0,1,0,,,frequency,,,,,,,,,,,,,,,,,,,,,,,,,,,,,,,,,,,,,,,,,,,,,,,,,,,,,,,,,,,,,,,,,,,,,,,,,,,,,,,,,,,,,,,,,,,,,,,,,,,,,,,,,,,,,,,,,,,883.7840589000843,None,125.0,-1.0,0.000644124775846567,0,"[0.6781364594589965, 0.5740067800070106, 0.42299756089361507, 0.6815751794457463]","[629.9605249474366, 420.4482076268573, 280.6155120773433, 187.2883846095852]",Perfect_5th,"[6.0, 11.823746365296673, 12.884343599480179, 11.48691210644989]",False,884.809067599941,887.5107082999311,887.5107082999311,888.7433643001132,None,0,3.3831539500970393,4.4197782499250025,None,1,None,1,,,,,,,,nunamh,001,fr,0,0,2022-05-17_11h14.45.197,Cluster,2022.1.1,None,
,,,,6,0,6,0,2,0,2,0,,,both,,,,,,,,,,,,,,,,,,,,,,,,,,,,,,,,,,,,,,,,,,,,,,,,,,,,,,,,,,,,,,,,,,,,,,,,,,,,,,,,,,,,,,,,,,,,,,,,,,,,,,,,,,,,,,,,,,,889.2950536999851,None,3135.376639090075,2.0,8.514783096656891e-05,1,"[0.5833218443595664, 0.5833218443595664, 0.5833218443595664, 0.5833218443595664]","[4977.100175208103, 4434.0921661489565, 3950.327026938226, 3519.3412845344033]",Tone,"[-8.002661085914196, -6.0, -2.0, 4.0]",False,890.2953149001114,893.0804880999494,893.0804880999494,894.3141375998966,['space'],1,3.3617156497202814,4.388121949741617,None,1,None,1,,[0.1819209000095725],,,,,,nunamh,001,fr,0,0,2022-05-17_11h14.45.197,Cluster,2022.1.1,None,
,,,,6,0,6,0,3,0,3,0,,,time,,,,,,,,,,,,,,,,,,,,,,,,,,,,,,,,,,,,,,,,,,,,,,,,,,,,,,,,,,,,,,,,,,,,,,,,,,,,,,,,,,,,,,,,,,,,,,,,,,,,,,,,,,,,,,,,,,,894.7389923001174,None,767.9623161278367,-0.83758257481514,3.616383170779739e-05,0,"[0.6200675366598266, 0.6200675366598266, 0.6200675366598266, 0.6200675366598266]","[158.21702223924805, 1753.8079211165518, 2082.003743861913, 137.94157114815349]",None,"[12.880741781152295, 10.841202016064528, 12.0, 14.0]",False,895.7335671999026,898.6170997000299,898.6170997000299,899.8545449001249,None,0,3.5282451501116157,4.556585050188005,None,1,None,1,,,,,,,,nunamh,001,fr,0,0,2022-05-17_11h14.45.197,Cluster,2022.1.1,None,
,,,,6,0,6,0,4,0,4,0,,,frequency,,,,,,,,,,,,,,,,,,,,,,,,,,,,,,,,,,,,,,,,,,,,,,,,,,,,,,,,,,,,,,,,,,,,,,,,,,,,,,,,,,,,,,,,,,,,,,,,,,,,,,,,,,,,,,,,,,,900.3526576999575,None,176.21364966795215,5.72279626284238,0.0006804101414901551,1,"[0.4112166901388238, 0.6897906751853349, 0.5935732464105367, 0.5337080944550152]","[279.7217328540631, 249.2037332356792, 222.01528649545367, 197.79313414635985]",Tone,"[12.884343599480179, 12.341250460895301, 11.682205299554338, 11.489678846650868]",False,901.3720275000669,904.0922489999793,904.0922489999793,905.3281648000702,['space'],1,3.260713149793446,4.287854749942198,None,1,None,1,,[0.19783359998837113],,,,,,nunamh,001,fr,0,0,2022-05-17_11h14.45.197,Cluster,2022.1.1,None,
,,,,6,0,6,0,5,0,5,0,,,none,,,,,,,,,,,,,,,,,,,,,,,,,,,,,,,,,,,,,,,,,,,,,,,,,,,,,,,,,,,,,,,,,,,,,,,,,,,,,,,,,,,,,,,,,,,,,,,,,,,,,,,,,,,,,,,,,,,905.7126442999579,None,,,,,"[0.6234011845593526, 0.6059814451217698, 0.7971812340003862, 0.6977411427617435]","[986.1125554618186, 343.23553656574785, 130.65328717316174, 546.1624132942069]",None,"[7.0, 12.784698087435721, 14.392904251219491, 8.0]",True,906.7118190999608,909.7638640999794,909.7638640999794,911.0035178998951,None,1,3.7611486499663442,4.788715949980542,None,1,None,1,,,0,,,,,nunamh,001,fr,0,0,2022-05-17_11h14.45.197,Cluster,2022.1.1,None,
,,,,6,0,6,0,6,0,6,0,,,time,,,,,,,,,,,,,,,,,,,,,,,,,,,,,,,,,,,,,,,,,,,,,,,,,,,,,,,,,,,,,,,,,,,,,,,,,,,,,,,,,,,,,,,,,,,,,,,,,,,,,,,,,,,,,,,,,,,911.5432458999567,None,2828.42712474619,1.0,7.347646265424591e-05,0,"[0.7023146098806214, 0.7023146098806214, 0.7023146098806214, 0.7023146098806214]","[140.06375172752126, 232.99810248508197, 388.8549388439601, 438.4911003048467]",None,"[14.0, 11.994205410041342, 12.0, 11.0]",False,912.5694907000288,915.7045038000215,915.7045038000215,916.9392558999825,None,0,3.8276539500802755,4.861819250043482,None,1,None,1,,,,,,,,nunamh,001,fr,0,0,2022-05-17_11h14.45.197,Cluster,2022.1.1,None,
,,,,6,0,6,0,7,0,7,0,,,frequency,,,,,,,,,,,,,,,,,,,,,,,,,,,,,,,,,,,,,,,,,,,,,,,,,,,,,,,,,,,,,,,,,,,,,,,,,,,,,,,,,,,,,,,,,,,,,,,,,,,,,,,,,,,,,,,,,,,917.4940764999483,None,535.8867312681471,-6.0,3.3001352261930974e-05,0,"[0.624518421959367, 0.41193739080709335, 0.777670081621722, 0.4162232950324278]","[850.6671609508566, 757.8582832551998, 675.1749730840957, 601.5125180410589]",Tone,"[5.81671246552616, 5.16241742518486, 5.583743565933323, 6.194639860553464]",False,918.5151760000736,921.3418334999587,921.3418334999587,922.577021199977,None,0,3.246688349870965,4.280438149813563,None,1,None,1,,,,,,,,nunamh,001,fr,0,0,2022-05-17_11h14.45.197,Cluster,2022.1.1,None,
,,,,6,0,6,0,8,0,8,0,,,none,,,,,,,,,,,,,,,,,,,,,,,,,,,,,,,,,,,,,,,,,,,,,,,,,,,,,,,,,,,,,,,,,,,,,,,,,,,,,,,,,,,,,,,,,,,,,,,,,,,,,,,,,,,,,,,,,,,922.8602134000976,None,419.03460859039126,5.823746365296673,0.00014777615275828783,1,"[0.7368188521759413, 0.7086396854728381, 0.40924784354956834, 0.6180330245675614]","[253.9094821573032, 7175.495517235791, 2776.6262897067995, 320.5969519954809]",None,"[12.341250460895301, -3.0, 11.175891324766763, 12.977149928426584]",False,923.8651298000477,926.7489672999363,926.7489672999363,927.9824282999616,['space'],1,3.494228250114247,4.518091950332746,None,1,None,1,,[0.3287140999455005],,,,,,nunamh,001,fr,0,0,2022-05-17_11h14.45.197,Cluster,2022.1.1,None,
,,,,6,0,6,0,9,0,9,0,,,time,,,,,,,,,,,,,,,,,,,,,,,,,,,,,,,,,,,,,,,,,,,,,,,,,,,,,,,,,,,,,,,,,,,,,,,,,,,,,,,,,,,,,,,,,,,,,,,,,,,,,,,,,,,,,,,,,,,928.4376791999675,None,186.1500253880619,5.486912106449889,0.0005941178118073922,1,"[0.6841928984860044, 0.6841928984860044, 0.6841928984860044, 0.6841928984860044]","[7254.194368396545, 228.74612011848888, 5757.956717458623, 150.88004707035964]",None,"[-3.0, 11.994205410041342, -8.0, 13.0]",False,929.4385917000473,932.5198699000757,932.5198699000757,933.7497129000258,['space'],1,3.789017349947244,4.813030649907887,None,1,None,1,,[0.21051410003565252],,,,,,nunamh,001,fr,0,0,2022-05-17_11h14.45.197,Cluster,2022.1.1,None,
,,,,6,0,6,0,10,0,10,0,,,none,,,,,,,,,,,,,,,,,,,,,,,,,,,,,,,,,,,,,,,,,,,,,,,,,,,,,,,,,,,,,,,,,,,,,,,,,,,,,,,,,,,,,,,,,,,,,,,,,,,,,,,,,,,,,,,,,,,934.3038137000985,None,,,,,"[0.6677923290105199, 0.7261186154193741, 0.5728087044279931, 0.7533579947314479]","[239.14383017257947, 263.99935109415367, 427.6971882029378, 189.42853180453346]",None,"[12.0, 12.652210799972767, 11.04734342328066, 11.48691210644989]",True,935.3045747000724,938.2917492999695,938.2917492999695,939.4959166001063,None,1,3.7631323498208076,4.788734749890864,None,1,None,1,,,0,,,,,nunamh,001,fr,0,0,2022-05-17_11h14.45.197,Cluster,2022.1.1,None,
,,,,6,0,6,0,11,0,11,0,,,both,,,,,,,,,,,,,,,,,,,,,,,,,,,,,,,,,,,,,,,,,,,,,,,,,,,,,,,,,,,,,,,,,,,,,,,,,,,,,,,,,,,,,,,,,,,,,,,,,,,,,,,,,,,,,,,,,,,940.136855199933,None,535.8867312681471,-2.0,5.230361854194559e-05,0,"[0.4684622030452601, 0.4684622030452601, 0.4684622030452601, 0.4684622030452601]","[850.6671609508566, 757.8582832551998, 675.1749730840957, 601.5125180410589]",Tone,"[5.81671246552616, 5.16241742518486, 5.583743565933323, 6.194639860553464]",False,941.1655343000311,943.5924990000203,943.5924990000203,944.8284378999379,None,0,2.8809192499611527,3.9120883499272168,None,1,None,1,,,,,,,,nunamh,001,fr,0,0,2022-05-17_11h14.45.197,Cluster,2022.1.1,None,
,,,,6,0,6,0,12,0,12,0,,,frequency,,,,,,,,,,,,,,,,,,,,,,,,,,,,,,,,,,,,,,,,,,,,,,,,,,,,,,,,,,,,,,,,,,,,,,,,,,,,,,,,,,,,,,,,,,,,,,,,,,,,,,,,,,,,,,,,,,,945.1436781999655,None,2612.0169384844285,6.254883937865648,0.00016218482863864555,1,"[0.6643240541501563, 0.5797542130282888, 0.45761293005791237, 0.5798364350484917]","[1645.4675617392465, 1846.9748897764644, 2073.1592179544687, 2327.042542256631]",Tone,"[10.667652715985808, 11.159676965648323, 12.0, 12.55667241725619]",False,946.1569409999065,948.8824360000435,948.8824360000435,950.0900807001162,['space'],1,3.3184937501791865,4.333357850089669,None,1,None,1,,[0.20626560016535223],,,,,,nunamh,001,fr,0,0,2022-05-17_11h14.45.197,Cluster,2022.1.1,None,
,,,,6,0,6,0,13,0,13,0,,,frequency,,,,,,,,,,,,,,,,,,,,,,,,,,,,,,,,,,,,,,,,,,,,,,,,,,,,,,,,,,,,,,,,,,,,,,,,,,,,,,,,,,,,,,,,,,,,,,,,,,,,,,,,,,,,,,,,,,,950.5346687999554,None,1515.7165665103996,-1.0,4.4233032710320856e-05,0,"[0.5769759945361034, 0.6109851739577441, 0.6074245474991877, 0.43862696478804236]","[3819.3664156416708, 3031.4331330207997, 2406.050072164236, 1909.6832078208352]",Major_3rd,"[0.0, 9.378506373774725, 12.662837838969763, 11.159676965648323]",False,952.4821097999811,955.3043581999373,955.3043581999373,956.514145199908,None,0,3.241583699826151,4.278246299829334,None,1,None,1,,,,,,,,nunamh,001,fr,0,0,2022-05-17_11h14.45.197,Cluster,2022.1.1,None,
,,,,6,0,6,0,14,0,14,0,,,none,,,,,,,,,,,,,,,,,,,,,,,,,,,,,,,,,,,,,,,,,,,,,,,,,,,,,,,,,,,,,,,,,,,,,,,,,,,,,,,,,,,,,,,,,,,,,,,,,,,,,,,,,,,,,,,,,,,956.8289377000183,None,535.8867312681471,-7.0,2.94124861631282e-05,0,"[0.7620678456398827, 0.5834648721231819, 0.6317104184175499, 0.7454608679580815]","[982.8194131308879, 3883.1142698533486, 133.5865043140951, 189.7153844053889]",None,"[7.0, -1.0, 14.392904251219491, 11.48691210644989]",False,957.8599189999513,960.8819927000441,960.8819927000441,962.119187500095,None,0,3.767646700143814,4.796954000135884,None,1,None,1,,,,,,,,nunamh,001,fr,0,0,2022-05-17_11h14.45.197,Cluster,2022.1.1,None,
,,,,6,0,6,0,15,0,15,0,,,frequency,,,,,,,,,,,,,,,,,,,,,,,,,,,,,,,,,,,,,,,,,,,,,,,,,,,,,,,,,,,,,,,,,,,,,,,,,,,,,,,,,,,,,,,,,,,,,,,,,,,,,,,,,,,,,,,,,,,962.6958777999971,None,,,,,"[0.7168785693820667, 0.5612730411640954, 0.7807280997738111, 0.5936834433805686]","[132.619020968715, 167.0894961349336, 210.51957339673086, 265.23804193742995]",Major_3rd,"[14.392904251219491, 12.208275013174095, 11.682205299554338, 12.652210799972767]",True,963.69669719995,966.7932049999945,966.7932049999945,968.0146657999139,None,1,3.697866750182584,4.723270250018686,None,1,None,1,,,0,,,,,nunamh,001,fr,0,0,2022-05-17_11h14.45.197,Cluster,2022.1.1,None,
,,,,6,0,6,0,16,0,16,0,,,frequency,,,,,,,,,,,,,,,,,,,,,,,,,,,,,,,,,,,,,,,,,,,,,,,,,,,,,,,,,,,,,,,,,,,,,,,,,,,,,,,,,,,,,,,,,,,,,,,,,,,,,,,,,,,,,,,,,,,968.4587829001248,None,2279.2322042085343,6.556672417256189,0.00017231663881624393,1,"[0.7153567364762785, 0.6394163673865239, 0.696072460097658, 0.5210173751960337]","[3618.0555986404256, 3223.321094989233, 2871.6526316806226, 2558.3516485085984]",Tone,"[2.0, 7.0, 11.0, 12.254883937865648]",False,969.4652261000592,972.5352455999237,972.5352455999237,973.7638729999308,['space'],1,3.6022717501036823,4.608346350025386,None,1,None,1,,[0.2187554999254644],,,,,,nunamh,001,fr,0,0,2022-05-17_11h14.45.197,Cluster,2022.1.1,None,
,,,,6,0,6,0,17,0,17,0,,,time,,,,,,,,,,,,,,,,,,,,,,,,,,,,,,,,,,,,,,,,,,,,,,,,,,,,,,,,,,,,,,,,,,,,,,,,,,,,,,,,,,,,,,,,,,,,,,,,,,,,,,,,,,,,,,,,,,,974.1306501999497,None,125.0,4.0,0.0011454338263838868,1,"[0.4969845767973739, 0.4969845767973739, 0.4969845767973739, 0.4969845767973739]","[581.9720720391703, 5342.979810307612, 134.17951479826786, 485.36083752280143]",None,"[7.0, -8.44087783935553, 14.392904251219491, 9.06280727391988]",False,975.221914099995,977.7412632000633,977.7412632000633,978.9410993000492,['space'],1,3.009973099688068,4.014802899677306,None,1,None,1,,[0.2953839001711458],,,,,,nunamh,001,fr,0,0,2022-05-17_11h14.45.197,Cluster,2022.1.1,None,
