tTrials.thisRepN,tTrials.thisTrialN,tTrials.thisN,tTrials.thisIndex,blocks.thisRepN,blocks.thisTrialN,blocks.thisN,blocks.thisIndex,trials.thisRepN,trials.thisTrialN,trials.thisN,trials.thisIndex,tStart_text.started,tStart_text.stopped,Prediction,practice_Frequency,practice_Level,practice_Psychopy_Level,practice_isCatchTrial,Practice_trial_detection,practice_Cue_Delays,practice_Cue_Frequencies,practice_Interval,practice_Cue_Intensities,tCue_visual_cue.started,tCue_visual_cue.stopped,tProbe_visual_cue.started,tProbe_visual_cue.stopped,tFeedback.keys,tFeedback.corr,tFeedback.rt,tFeedback.started,tFeedback.stopped,tToo_late.keys,tToo_late.corr,tToo_early.keys,tToo_early.corr,more_instructions.started,more_instructions.stopped,readyy.keys,readyy.rt,readyy.started,readyy.stopped,txt_rhythm.started,txt_rhythm.stopped,sound_1.started,sound_1.stopped,sound_2.started,sound_2.stopped,sound_3.started,sound_3.stopped,sound_4.started,sound_4.stopped,cross.started,cross.stopped,sound_5.started,sound_5.stopped,circle.started,circle.stopped,rhythm_ready.keys,rhythm_ready.rt,rhythm_ready.started,rhythm_ready.stopped,rhytm_ready_txt.started,rhytm_ready_txt.stopped,txt_freq.started,txt_freq.stopped,sound_6.started,sound_6.stopped,sound_7.started,sound_7.stopped,sound_8.started,sound_8.stopped,sound_9.started,sound_9.stopped,cross_2.started,cross_2.stopped,sound_10.started,sound_10.stopped,circle_2.started,circle_2.stopped,freq_ready.keys,freq_ready.rt,freq_ready.started,freq_ready.stopped,freq_ready_txt.started,freq_ready_txt.stopped,txt_freq_2.started,txt_freq_2.stopped,sound_11.started,sound_11.stopped,sound_12.started,sound_12.stopped,sound_13.started,sound_13.stopped,sound_14.started,sound_14.stopped,cross_3.started,cross_3.stopped,sound_15.started,sound_15.stopped,circle_3.started,circle_3.stopped,freq_ready_2.keys,freq_ready_2.rt,freq_ready_2.started,freq_ready_2.stopped,freq_ready_txt_2.started,freq_ready_txt_2.stopped,txt_freq_3.started,txt_freq_3.stopped,sound_16.started,sound_16.stopped,sound_17.started,sound_17.stopped,sound_18.started,sound_18.stopped,sound_19.started,sound_19.stopped,cross_4.started,cross_4.stopped,sound_20.started,sound_20.stopped,circle_4.started,circle_4.stopped,freq_ready_txt_3.started,freq_ready_txt_3.stopped,tStart_text_2.started,tStart_text_2.stopped,this_trial_is.started,this_trial_is.stopped,Frequency,Level,Psychopy_Level,Real trial detection,Cue Delays,Cue Frequencies,Interval,Cue Intensities,Catch trial,cue_visual_cue.started,cue_visual_cue.stopped,probe_visual_cue.started,probe_visual_cue.stopped,feedback.keys,feedback.corr,feedback.rt,feedback.started,feedback.stopped,answer_too_late.keys,answer_too_late.corr,answer_too_early.keys,answer_too_early.corr,Catch trial answer,answer_too_early.rt,Audiogram_time,Audiogram_both,Audiogram_none,Audiogram_frequency,goodbye_text.started,goodbye_text.stopped,key_resp.keys,key_resp.rt,key_resp.started,key_resp.stopped,participant,session,Language (english or french),Skip training? (1 for yes),Resume previous experiment,date,expName,psychopyVersion,frameRate,
0,0,0,0,,,,,,,,,16.939575099997455,None,frequency,1000,30,0.0013930605843148849,False,1,"[0.6592361012365853, 0.4542614226290315, 0.7127568945182422, 0.5739255457353316]","[1587.4010519682001, 1414.2135623730956, 1259.9210498948735, 1122.4620483093731]",Tone,"[30, 30, 30, 30]",55.4337640000158,58.194576000008965,58.194576000008965,59.40952620000462,['space'],1,[0.5909385999839287],58.194576000008965,59.98275530000683,None,1,None,1,,,,,,,,,,,,,,,,,,,,,,,,,,,,,,,,,,,,,,,,,,,,,,,,,,,,,,,,,,,,,,,,,,,,,,,,,,,,,,,,,,,,,,,,,,,,,,,,,,,,,,,,,,,,,,,,,,,,,,,,,,,,,,,,,qmbami,001,fr,0,0,2022-04-27_15h01.28.884,Cluster,2022.1.1,36.05161293298902,
1,0,1,0,,,,,,,,,,,none,2500,30,0.002716251657462167,False,1,"[0.4503536365052107, 0.6039223447017205, 0.7030687439963739, 0.46715459996255776]","[905.7255378334585, 4173.606839576803, 1526.1558149864177, 5785.358614876449]",None,"[30, 30, 30, 30]",63.10832410000148,65.79201810000814,65.79201810000814,67.00141640001675,['space'],1,[0.8018816999974661],65.79201810000814,67.49011730001075,None,1,None,1,,,,,,,,,,,,,,,,,,,,,,,,,,,,,,,,,,,,,,,,,,,,,,,,,,,,,,,,,,,,,,,,,,,,,,,,,,,,,,,,,,,,,,,,,,,,,,,,,,,,,,,,,,,,,,,,,,,,,,,,,,,,,,,,,qmbami,001,fr,0,0,2022-04-27_15h01.28.884,Cluster,2022.1.1,36.05161293298902,
2,0,2,0,,,,,,,,,,,both,6000,30,0.003664122665694519,True,0,"[0.5113049184352781, 0.5113049184352781, 0.5113049184352781, 0.5113049184352781]","[3779.7631496846193, 4242.640687119285, 4762.203155904598, 5345.392308842036]",Tone,"[30, 30, 30, 30]",70.85880829999223,73.32823430001736,73.32823430001736,74.55304560001241,['space'],0,[0.49787239998113364],73.32823430001736,75.06513000000268,None,1,None,1,,,,,,,,,,,,,,,,,,,,,,,,,,,,,,,,,,,,,,,,,,,,,,,,,,,,,,,,,,,,,,,,,,,,,,,,,,,,,,,,,,,,,,,,,,,,,,,,,,,,,,,,,,,,,,,,,,,,,,,,,,,,,,,,,qmbami,001,fr,0,0,2022-04-27_15h01.28.884,Cluster,2022.1.1,36.05161293298902,
3,0,3,0,,,,,,,,,,,both,440,30,0.0023562289915021436,False,1,"[0.7599367505090644, 0.7599367505090644, 0.7599367505090644, 0.7599367505090644]","[277.182630976872, 311.12698372208087, 349.2282314330038, 391.99543598174927]",Tone,"[30, 30, 30, 30]",78.09289610001724,81.2997985999973,81.2997985999973,82.51372089999495,['space'],1,[1.1985604999936186],81.2997985999973,83.28756280001835,None,1,None,1,,,,,,,,,,,,,,,,,,,,,,,,,,,,,,,,,,,,,,,,,,,,,,,,,,,,,,,,,,,,,,,,,,,,,,,,,,,,,,,,,,,,,,,,,,,,,,,,,,,,,,,,,,,,,,,,,,,,,,,,,,,,,,,,,qmbami,001,fr,0,0,2022-04-27_15h01.28.884,Cluster,2022.1.1,36.05161293298902,
4,0,4,0,,,,,,,,,,,frequency,250,30,0.005296268625886445,True,1,"[0.6314180912186602, 0.6810272038969225, 0.6248525787121528, 0.6580991805867988]","[629.9605249474366, 500.00000000000006, 396.8502629920499, 314.9802624737183]",Major_3rd,"[30, 30, 30, 30]",86.81463290000102,89.68365880000056,89.68365880000056,90.920223299996,None,1,,89.68365880000056,91.55769310001051,None,1,None,1,,,,,,,,,,,,,,,,,,,,,,,,,,,,,,,,,,,,,,,,,,,,,,,,,,,,,,,,,,,,,,,,,,,,,,,,,,,,,,,,,,,,,,,,,,,,,,,,,,,,,,,,,,,,,,,,,,,,,,,,,,,,,,,,,qmbami,001,fr,0,0,2022-04-27_15h01.28.884,Cluster,2022.1.1,36.05161293298902,
,,,,,,,,,,,,,,,,,,,,,,,,,,,,,,,,,,,,,102.14341630000854,None,space,2.210642900026869,102.14341630000854,None,,,,,,,,,,,,,,,,,,,,,,,,,,,,,,,,,,,,,,,,,,,,,,,,,,,,,,,,,,,,,,,,,,,,,,,,,,,,,,,,,,,,,,,,,,,,,,,,,,,,,,,,,,,,,,,,,,,,,,,,,,,qmbami,001,fr,0,0,2022-04-27_15h01.28.884,Cluster,2022.1.1,36.05161293298902,
,,,,,,,,,,,,,,,,,,,,,,,,,,,,,,,,,,,,,,,,,,,104.40951550001046,105.4310281999933,105.8809625666802,None,106.39538166666559,None,106.88119086667236,None,107.39835196666924,None,105.80148900000495,107.58799329999601,107.89924006667958,None,107.58799329999601,108.41160670001409,space,1.72356850001961,108.59719749999931,None,,,,,,,,,,,,,,,,,,,,,,,,,,,,,,,,,,,,,,,,,,,,,,,,,,,,,,,,,,,,,,,,,,,,,,,,,,,,,,,,,,,,,,,,,,,,,,,,,,,,,,,qmbami,001,fr,0,0,2022-04-27_15h01.28.884,Cluster,2022.1.1,36.05161293298902,
,,,,,,,,,,,,,,,,,,,,,,,,,,,,,,,,,,,,,,,,,,,,,,,,,,,,,,,,,,,,,,,108.59719749999931,None,110.38429560000077,111.41193329999805,111.86784086667855,None,112.16785626666775,None,112.85901846667208,None,113.25055486668522,None,111.76423870000872,113.5760702000116,113.85988156666669,None,113.5760702000116,114.4125173999928,space,2.8100020000129007,114.56789390000631,None,,,,,,,,,,,,,,,,,,,,,,,,,,,,,,,,,,,,,,,,,,,,,,,,,,,,,,,,,,,,,,,,,,,,,,,,,,,,,,,,,qmbami,001,fr,0,0,2022-04-27_15h01.28.884,Cluster,2022.1.1,36.05161293298902,
,,,,,,,,,,,,,,,,,,,,,,,,,,,,,,,,,,,,,,,,,,,,,,,,,,,,,,,,,,,,,,,,,,,,,,,,,,,,,,,,,,,,,114.56789390000631,None,117.42496150001534,118.45409559999825,118.90251836667109,None,119.41453756665966,None,119.89096736666785,None,120.41618456665698,None,118.82943859999068,120.6063694000186,120.91195896667001,None,120.6063694000186,121.42334909999045,space,1.0025947999965865,121.62401050000335,None,,,,,,,,,,,,,,,,,,,,,,,,,,,,,,,,,,,,,,,,,,,,,,,,,,,,,,,,,,,qmbami,001,fr,0,0,2022-04-27_15h01.28.884,Cluster,2022.1.1,36.05161293298902,
,,,,0,0,0,0,0,0,0,0,,,both,,,,,,,,,,,,,,,,,,,,,,,,,,,,,,,,,,,,,,,,,,,,,,,,,,,,,,,,,,,,,,,,,,,,,,,,,,,,,,,,,,,,,,,,,,,,,121.62401050000335,None,122.68397469999036,123.70262640001602,124.15811016667091,None,124.45001036668351,None,125.137487366683,None,125.56335616668026,None,124.05173740000464,125.85537830000976,126.13865466666563,None,125.85537830000976,126.69083929999033,126.8607716000115,None,127.90207499999087,None,157.99882209999487,None,1103.0501121035268,-1.0,4.3103331562241384e-05,1,"[0.7744917749076571, 0.7744917749076571, 0.7744917749076571, 0.7744917749076571]","[5559.024221312532, 3710.2035404522544, 2476.263776439216, 1652.707789114331]",Perfect_5th,"[0.0, 1.5900489658360026, 6.781753329484543, 9.0]",False,158.98569830000633,162.3501695000159,162.3501695000159,163.5776901000063,['space'],1,[0.3173956999962684],4.122843866673065,5.138856966688763,None,1,None,1,,,,,,,,,,,,,qmbami,001,fr,0,0,2022-04-27_15h01.28.884,Cluster,2022.1.1,36.05161293298902,
,,,,0,0,0,0,1,0,1,0,,,none,,,,,,,,,,,,,,,,,,,,,,,,,,,,,,,,,,,,,,,,,,,,,,,,,,,,,,,,,,,,,,,,,,,,,,,,,,,,,,,,,,,,,,,,,,,,,,,,,,,,,,,,,,,,,,,,,,,164.15495160000864,None,6753.105417481032,-6.842698339097231,6.538089008619882e-05,0,"[0.44220976358192743, 0.43506691529765784, 0.7731095919950367, 0.4249712681388378]","[1287.7458880718734, 3731.6734731758784, 582.6144911982889, 590.4908123896291]",None,"[6.779769909718749, 1.5900489658360026, 6.263239677530973, 6.263239677530973]",False,165.1740579000034,167.84764399999403,167.84764399999403,169.05808079999406,None,0,,3.106855566671584,4.13949796668021,None,1,None,1,,,,,,,,,,,,,qmbami,001,fr,0,0,2022-04-27_15h01.28.884,Cluster,2022.1.1,36.05161293298902,
,,,,0,0,0,0,2,0,2,0,,,none,,,,,,,,,,,,,,,,,,,,,,,,,,,,,,,,,,,,,,,,,,,,,,,,,,,,,,,,,,,,,,,,,,,,,,,,,,,,,,,,,,,,,,,,,,,,,,,,,,,,,,,,,,,,,,,,,,,169.350927099993,None,353.5533905932738,-2.0,7.038727582816145e-05,1,"[0.553635237223566, 0.4662282683011928, 0.7438934134721169, 0.5445551258757808]","[7141.377438697402, 907.5973662992424, 219.170468382599, 370.37123501109517]",None,"[-1.0, 3.8546879595060357, 4.771495999328634, 6.350034686406117]",False,170.8593097999983,173.64528280001832,173.64528280001832,174.8666452000034,['space'],1,[0.24407620000420138],3.360333966673352,4.379062266671099,None,1,None,1,,,,,,,,,,,,,qmbami,001,fr,0,0,2022-04-27_15h01.28.884,Cluster,2022.1.1,36.05161293298902,
,,,,0,0,0,0,3,0,3,0,,,time,,,,,,,,,,,,,,,,,,,,,,,,,,,,,,,,,,,,,,,,,,,,,,,,,,,,,,,,,,,,,,,,,,,,,,,,,,,,,,,,,,,,,,,,,,,,,,,,,,,,,,,,,,,,,,,,,,,175.27209539999603,None,,,,,"[0.7190212211503091, 0.7190212211503091, 0.7190212211503091, 0.7190212211503091]","[376.95203795802377, 496.4232690076809, 1021.2835523050505, 236.29130814754936]",None,"[6.350034686406117, 6.541656715615594, 4.054859515048216, 5.070289962807075]",True,176.28739670000505,179.47247350000544,179.47247350000544,180.70927890000166,None,1,,3.9085057666525245,4.932031266653212,None,1,None,1,0,,,,,,,,,,,,qmbami,001,fr,0,0,2022-04-27_15h01.28.884,Cluster,2022.1.1,36.05161293298902,
,,,,0,0,0,0,4,0,4,0,,,both,,,,,,,,,,,,,,,,,,,,,,,,,,,,,,,,,,,,,,,,,,,,,,,,,,,,,,,,,,,,,,,,,,,,,,,,,,,,,,,,,,,,,,,,,,,,,,,,,,,,,,,,,,,,,,,,,,,181.25695159999304,None,353.5533905932738,-2.0,7.038727582816145e-05,1,"[0.5771872751371472, 0.5771872751371472, 0.5771872751371472, 0.5771872751371472]","[222.72467953508485, 250.00000000000003, 280.6155120773433, 314.9802624737183]",Tone,"[4.771495999328634, 5.347903196485904, 5.809202697236832, 6.0]",False,182.27397569999448,185.03964500001166,185.03964500001166,186.2505591000081,['space'],1,[0.3676319000078365],3.33020616666181,4.368890466663288,None,1,None,1,,,,,,,,,,,,,qmbami,001,fr,0,0,2022-04-27_15h01.28.884,Cluster,2022.1.1,36.05161293298902,
,,,,0,0,0,0,5,0,5,0,,,none,,,,,,,,,,,,,,,,,,,,,,,,,,,,,,,,,,,,,,,,,,,,,,,,,,,,,,,,,,,,,,,,,,,,,,,,,,,,,,,,,,,,,,,,,,,,,,,,,,,,,,,,,,,,,,,,,,,186.68392790001235,None,1249.304680684988,0.0,5.448014141213442e-05,1,"[0.7414685004142112, 0.6961208597378179, 0.5017275975361031, 0.6614273906864379]","[672.8839073416219, 3242.8760624618653, 1072.8897897918812, 767.2352096184504]",None,"[5.521429633254154, 3.0000000000000004, 4.482667266406526, 4.555734982903949]",False,187.69306550000329,190.66524160001427,190.66524160001427,191.8863355999929,['space'],1,[0.3931462000182364],3.6429574666544795,4.6818815666483715,None,1,None,1,,,,,,,,,,,,,qmbami,001,fr,0,0,2022-04-27_15h01.28.884,Cluster,2022.1.1,36.05161293298902,
,,,,0,0,0,0,6,0,6,0,,,none,,,,,,,,,,,,,,,,,,,,,,,,,,,,,,,,,,,,,,,,,,,,,,,,,,,,,,,,,,,,,,,,,,,,,,,,,,,,,,,,,,,,,,,,,,,,,,,,,,,,,,,,,,,,,,,,,,,192.40809169999557,None,189.4645708137998,-4.0,0.00019169242467719167,1,"[0.5811172928215123, 0.7037022735740225, 0.7819504158235121, 0.7406061565528832]","[1526.2497499284389, 160.54854745659537, 744.9225181045719, 2672.3281551520777]",None,"[8.38635033036424, 3.7753546007495498, 4.555734982903949, 5.811982983314229]",False,194.30920300001162,197.40446680001332,197.40446680001332,198.62088709999807,['space'],1,[0.38099249999504536],3.8141369999793824,4.836884499993175,None,1,None,1,,,,,,,,,,,,,qmbami,001,fr,0,0,2022-04-27_15h01.28.884,Cluster,2022.1.1,36.05161293298902,
,,,,0,0,0,0,7,0,7,0,,,time,,,,,,,,,,,,,,,,,,,,,,,,,,,,,,,,,,,,,,,,,,,,,,,,,,,,,,,,,,,,,,,,,,,,,,,,,,,,,,,,,,,,,,,,,,,,,,,,,,,,,,,,,,,,,,,,,,,199.18330979999155,None,,,,,"[0.43479067151330864, 0.43479067151330864, 0.43479067151330864, 0.43479067151330864]","[2789.5626021404582, 3269.125953359514, 249.1878382752044, 308.6034002294869]",None,"[5.0, 2.998486563333788, 5.347903196485904, 6.0]",True,200.18370389999473,202.51384450000478,202.51384450000478,203.73531170000206,None,1,,2.76186976666213,3.785673266655067,None,1,None,1,0,,,,,,,,,,,,qmbami,001,fr,0,0,2022-04-27_15h01.28.884,Cluster,2022.1.1,36.05161293298902,
,,,,0,0,0,0,8,0,8,0,,,none,,,,,,,,,,,,,,,,,,,,,,,,,,,,,,,,,,,,,,,,,,,,,,,,,,,,,,,,,,,,,,,,,,,,,,,,,,,,,,,,,,,,,,,,,,,,,,,,,,,,,,,,,,,,,,,,,,,203.9970386000059,None,835.3607104558247,-2.0,3.1275157974511315e-05,0,"[0.5700598805634526, 0.4756008001475358, 0.7676830096333956, 0.5739614055000646]","[236.4100615597376, 323.4950041418917, 142.51955982143096, 4478.547521064453]",None,"[5.070289962807075, 6.142930026355189, 3.6043672322220215, 0.48058042627284525]",False,205.006509800005,207.8367804000154,207.8367804000154,209.04941730000428,None,0,,3.409539266664069,4.442213066649856,None,1,None,1,,,,,,,,,,,,,qmbami,001,fr,0,0,2022-04-27_15h01.28.884,Cluster,2022.1.1,36.05161293298902,
,,,,0,0,0,0,9,0,9,0,,,both,,,,,,,,,,,,,,,,,,,,,,,,,,,,,,,,,,,,,,,,,,,,,,,,,,,,,,,,,,,,,,,,,,,,,,,,,,,,,,,,,,,,,,,,,,,,,,,,,,,,,,,,,,,,,,,,,,,209.4903883000079,None,1611.4838258394202,2.9336866976871354,8.027946589331113e-05,1,"[0.49904466518510615, 0.49904466518510615, 0.49904466518510615, 0.49904466518510615]","[2558.0711203672345, 2278.982282046991, 2030.3423937402094, 1808.8294359691406]",Tone,"[6.0, 7.674840210994211, 8.963804799751824, 9.250582882084911]",False,210.4941819999949,213.01641199999722,213.01641199999722,214.2268718999985,['space'],1,[0.4465139999811072],3.012684866669588,4.045082166674547,None,1,None,1,,,,,,,,,,,,,qmbami,001,fr,0,0,2022-04-27_15h01.28.884,Cluster,2022.1.1,36.05161293298902,
,,,,0,0,0,0,10,0,10,0,,,frequency,,,,,,,,,,,,,,,,,,,,,,,,,,,,,,,,,,,,,,,,,,,,,,,,,,,,,,,,,,,,,,,,,,,,,,,,,,,,,,,,,,,,,,,,,,,,,,,,,,,,,,,,,,,,,,,,,,,214.58598649999476,None,145.15787186554604,-2.3956327677779785,0.0004123106386177723,1,"[0.7130131680071111, 0.5603199266353543, 0.5873536701990574, 0.7630809564619592]","[365.7749166426885, 290.3157437310921, 230.4237585008329, 182.88745832134424]",Major_3rd,"[6.2570440306439075, 5.809202697236832, 5.0, 4.0]",False,215.59078640001826,218.45949549999204,218.45949549999204,219.68702360001043,['space'],1,[0.46464419999392703],3.6419146666303277,4.669766166654881,None,1,None,1,,,,,,,,,,,,,qmbami,001,fr,0,0,2022-04-27_15h01.28.884,Cluster,2022.1.1,36.05161293298902,
,,,,0,0,0,0,11,0,11,0,,,frequency,,,,,,,,,,,,,,,,,,,,,,,,,,,,,,,,,,,,,,,,,,,,,,,,,,,,,,,,,,,,,,,,,,,,,,,,,,,,,,,,,,,,,,,,,,,,,,,,,,,,,,,,,,,,,,,,,,,220.2880739000102,None,,,,,"[0.7948690815327403, 0.5250698688169244, 0.7353777816482877, 0.7818780837307571]","[3917.880730393416, 2614.8716714069674, 1745.217460267115, 1164.7929100789768]",Perfect_5th,"[1.101626449771853, 6.0, 9.240647661617327, 5.127535793346383]",True,221.2968913000077,224.36533600001712,224.36533600001712,225.5906251000124,None,1,,3.8649483666813467,4.8883983666601125,None,1,None,1,0,,,,,,,,,,,,qmbami,001,fr,0,0,2022-04-27_15h01.28.884,Cluster,2022.1.1,36.05161293298902,
,,,,0,0,0,0,12,0,12,0,,,none,,,,,,,,,,,,,,,,,,,,,,,,,,,,,,,,,,,,,,,,,,,,,,,,,,,,,,,,,,,,,,,,,,,,,,,,,,,,,,,,,,,,,,,,,,,,,,,,,,,,,,,,,,,,,,,,,,,226.2112741000019,None,4000.0,-2.0,6.667607160816621e-05,1,"[0.7331430594124395, 0.4318775561970127, 0.424762043144848, 0.783890295845148]","[1131.1997502033657, 877.6446279637456, 7582.003943909041, 1137.9654230315996]",None,"[5.0, 3.9001281672132606, -1.069734284184654, 5.0]",False,227.22623070000554,229.8423283000011,229.8423283000011,231.08218240001588,['space'],1,[0.3891379999986384],3.3816597666882444,4.4173463666811585,None,1,None,1,,,,,,,,,,,,,qmbami,001,fr,0,0,2022-04-27_15h01.28.884,Cluster,2022.1.1,36.05161293298902,
,,,,0,0,0,0,13,0,13,0,,,both,,,,,,,,,,,,,,,,,,,,,,,,,,,,,,,,,,,,,,,,,,,,,,,,,,,,,,,,,,,,,,,,,,,,,,,,,,,,,,,,,,,,,,,,,,,,,,,,,,,,,,,,,,,,,,,,,,,231.6966713000147,None,189.4645708137998,-4.0,0.00019169242467719167,1,"[0.76660725073047, 0.76660725073047, 0.76660725073047, 0.76660725073047]","[300.7562590205293, 267.9433656340734, 238.71040097760422, 212.666790237714]",Tone,"[5.994234888331151, 5.5936566629773345, 5.070289962807075, 4.771495999328634]",False,232.7776886000065,236.10398169999826,236.10398169999826,237.31597799999872,['space'],1,[0.3657375999900978],4.099287133343751,5.1281339333509095,None,1,None,1,,,,,,,,,,,,,qmbami,001,fr,0,0,2022-04-27_15h01.28.884,Cluster,2022.1.1,36.05161293298902,
,,,,0,0,0,0,14,0,14,0,,,both,,,,,,,,,,,,,,,,,,,,,,,,,,,,,,,,,,,,,,,,,,,,,,,,,,,,,,,,,,,,,,,,,,,,,,,,,,,,,,,,,,,,,,,,,,,,,,,,,,,,,,,,,,,,,,,,,,,237.94642180000665,None,3556.0172383737654,-4.0,4.804518189283565e-05,1,"[0.4255690969183703, 0.4255690969183703, 0.4255690969183703, 0.4255690969183703]","[2240.15048620807, 2514.4839032703485, 2822.412752505783, 3168.051199352137]",Tone,"[8.0, 6.781753329484543, 4.824661604593502, 3.0000000000000004]",False,238.9361026000115,241.25126910000108,241.25126910000108,242.47423870000057,['space'],1,[0.36568840002291836],2.717056366673205,3.7414614666777197,None,1,None,1,,,,,,,,,,,,,qmbami,001,fr,0,0,2022-04-27_15h01.28.884,Cluster,2022.1.1,36.05161293298902,
,,,,0,0,0,0,15,0,15,0,,,both,,,,,,,,,,,,,,,,,,,,,,,,,,,,,,,,,,,,,,,,,,,,,,,,,,,,,,,,,,,,,,,,,,,,,,,,,,,,,,,,,,,,,,,,,,,,,,,,,,,,,,,,,,,,,,,,,,,242.71174379999866,None,615.5722066724584,-5.0,3.0037681611419803e-05,1,"[0.41132554916370156, 0.41132554916370156, 0.41132554916370156, 0.41132554916370156]","[387.78619045843374, 435.27528164806216, 488.5799842171231, 548.4124898473132]",Tone,"[6.350034686406117, 6.50084471269436, 6.541656715615594, 6.456672943607029]",False,244.4143093000166,246.6673570999992,246.6673570999992,247.90421000000788,['space'],1,[0.3399004000239074],2.675126400019508,3.706809900002554,None,1,None,1,,,,,,,,,,,,,qmbami,001,fr,0,0,2022-04-27_15h01.28.884,Cluster,2022.1.1,36.05161293298902,
,,,,0,0,0,0,16,0,16,0,,,time,,,,,,,,,,,,,,,,,,,,,,,,,,,,,,,,,,,,,,,,,,,,,,,,,,,,,,,,,,,,,,,,,,,,,,,,,,,,,,,,,,,,,,,,,,,,,,,,,,,,,,,,,,,,,,,,,,,248.16570599999977,None,,,,,"[0.6703529748252932, 0.6703529748252932, 0.6703529748252932, 0.6703529748252932]","[1036.2918560526764, 7321.608670376627, 677.0143349954105, 581.2425748702772]",None,"[4.482667266406526, -1.0, 5.521429633254154, 6.263239677530973]",True,249.16832769999746,252.19576210001833,252.19576210001833,253.4161529999983,['space'],0,[0.48357530002249405],3.7102847666537855,4.726366166636581,None,1,None,1,0,,,,,,,,,,,,qmbami,001,fr,0,0,2022-04-27_15h01.28.884,Cluster,2022.1.1,36.05161293298902,
,,,,0,0,0,0,17,0,17,0,,,time,,,,,,,,,,,,,,,,,,,,,,,,,,,,,,,,,,,,,,,,,,,,,,,,,,,,,,,,,,,,,,,,,,,,,,,,,,,,,,,,,,,,,,,,,,,,,,,,,,,,,,,,,,,,,,,,,,,253.93518240001868,None,323.64446284189853,0.14293002635518903,9.797600099119798e-05,1,"[0.4576274563121668, 0.4576274563121668, 0.4576274563121668, 0.4576274563121668]","[1304.919075998108, 2391.465464174955, 1431.6714166188442, 145.09048170040012]",None,"[6.779769909718749, 7.0, 7.634769891063657, 3.6043672322220215]",False,254.94087260001106,257.34182490000967,257.34182490000967,258.574475100002,['space'],1,[0.5476577999943402],2.864566466654651,3.887282966665225,None,1,None,1,,,,,,,,,,,,,qmbami,001,fr,0,0,2022-04-27_15h01.28.884,Cluster,2022.1.1,36.05161293298902,
,,,,0,0,0,0,18,0,18,0,,,time,,,,,,,,,,,,,,,,,,,,,,,,,,,,,,,,,,,,,,,,,,,,,,,,,,,,,,,,,,,,,,,,,,,,,,,,,,,,,,,,,,,,,,,,,,,,,,,,,,,,,,,,,,,,,,,,,,,258.86027500001364,None,2639.015821545789,-3.0,5.4693453493152915e-05,1,"[0.5333496946883265, 0.5333496946883265, 0.5333496946883265, 0.5333496946883265]","[1313.039100872856, 485.00712747187794, 6010.4469552560295, 1903.305632899424]",None,"[6.779769909718749, 6.541656715615594, -0.3114093269817442, 9.250582882084911]",False,260.49069530001725,263.12743729999056,263.12743729999056,264.34162210000795,['space'],1,[0.5137780999939423],3.148758233350236,4.159503233327996,None,1,None,1,,,,,,,,,,,,,qmbami,001,fr,0,0,2022-04-27_15h01.28.884,Cluster,2022.1.1,36.05161293298902,
,,,,0,0,0,0,19,0,19,0,,,time,,,,,,,,,,,,,,,,,,,,,,,,,,,,,,,,,,,,,,,,,,,,,,,,,,,,,,,,,,,,,,,,,,,,,,,,,,,,,,,,,,,,,,,,,,,,,,,,,,,,,,,,,,,,,,,,,,,264.6887959000014,None,6376.876779764799,-6.575082696514484,6.207709783458842e-05,1,"[0.42319225269426036, 0.42319225269426036, 0.42319225269426036, 0.42319225269426036]","[836.9975833201742, 2744.4957796807043, 6642.902536102588, 175.90190810612447]",None,"[4.0, 5.0, -0.5750826965144844, 3.968951410952849]",False,265.7003720999928,267.99029630000587,267.99029630000587,269.2053280000109,['space'],1,[0.36071950002224185],2.7257167666684836,3.7689344666723628,None,1,None,1,,,,,,,,,,,,,qmbami,001,fr,0,0,2022-04-27_15h01.28.884,Cluster,2022.1.1,36.05161293298902,
,,,,1,0,1,0,0,0,0,0,,,both,,,,,,,,,,,,,,,,,,,,,,,,,,,,,,,,,,,,,,,,,,,,,,,,,,,,,,,,,,,,,,,,,,,,,,,,,,,,,,,,,,,,,,,,,,,,,,,,,,,,,,,,,,,,,,,,,,,272.41012919999775,None,,,,,"[0.5853767024231694, 0.5853767024231694, 0.5853767024231694, 0.5853767024231694]","[439.92454440590603, 349.16834228828304, 277.1350969312064, 219.962272202953]",Major_3rd,"[6.50084471269436, 6.2570440306439075, 5.5936566629773345, 4.771495999328634]",True,273.41392730001826,276.189784599992,276.189784599992,277.4290212999913,['space'],0,[0.6218649999937043],3.358109966677148,4.387365366681479,None,1,None,1,0,,,,,,,,,,,,qmbami,001,fr,0,0,2022-04-27_15h01.28.884,Cluster,2022.1.1,36.05161293298902,
,,,,1,0,1,0,1,0,1,0,,,time,,,,,,,,,,,,,,,,,,,,,,,,,,,,,,,,,,,,,,,,,,,,,,,,,,,,,,,,,,,,,,,,,,,,,,,,,,,,,,,,,,,,,,,,,,,,,,,,,,,,,,,,,,,,,,,,,,,277.8315769000037,None,500.0,-4.0,4.507855688029785e-05,1,"[0.5471121599487205, 0.5471121599487205, 0.5471121599487205, 0.5471121599487205]","[2258.9712932292964, 320.74440527225596, 320.47186927861344, 419.2951370062931]",None,"[8.0, 6.142930026355189, 6.142930026355189, 6.431249782034804]",False,278.8539099000045,281.52664399999776,281.52664399999776,282.74167789999046,['space'],1,[0.37137609999626875],3.208169266668847,4.2438050666532945,None,1,None,1,,,,,,,,,,,,,qmbami,001,fr,0,0,2022-04-27_15h01.28.884,Cluster,2022.1.1,36.05161293298902,
,,,,1,0,1,0,2,0,2,0,,,frequency,,,,,,,,,,,,,,,,,,,,,,,,,,,,,,,,,,,,,,,,,,,,,,,,,,,,,,,,,,,,,,,,,,,,,,,,,,,,,,,,,,,,,,,,,,,,,,,,,,,,,,,,,,,,,,,,,,,283.14980010001455,None,353.5533905932738,-3.0,6.273272561452762e-05,1,"[0.5438542258415286, 0.7726240768348821, 0.711890380902618, 0.5795622105183604]","[561.2310241546867, 500.0000000000001, 445.44935907016975, 396.8502629920499]",Tone,"[6.263239677530973, 6.541656715615594, 6.50084471269436, 6.431249782034804]",False,284.17910080001457,287.243080300017,287.243080300017,288.479153399996,['space'],1,[0.33772970002610236],3.640921033307677,4.6656782333157025,None,1,None,1,,,,,,,,,,,,,qmbami,001,fr,0,0,2022-04-27_15h01.28.884,Cluster,2022.1.1,36.05161293298902,
,,,,1,0,1,0,3,0,3,0,,,time,,,,,,,,,,,,,,,,,,,,,,,,,,,,,,,,,,,,,,,,,,,,,,,,,,,,,,,,,,,,,,,,,,,,,,,,,,,,,,,,,,,,,,,,,,,,,,,,,,,,,,,,,,,,,,,,,,,288.88509019999765,None,884.9729189417075,-2.0998718327867394,3.202486438964188e-05,1,"[0.5941213477523608, 0.5941213477523608, 0.5941213477523608, 0.5941213477523608]","[944.0496306689902, 130.24859815437247, 266.4903793895071, 1372.3185680590025]",None,"[3.8546879595060357, 3.625080899236946, 5.5936566629773345, 7.0]",False,289.88920420000795,292.6924422000011,292.6924422000011,293.93025659999694,['space'],1,[0.26778910000575706],3.414411266683601,4.444510466681095,None,1,None,1,,,,,,,,,,,,,qmbami,001,fr,0,0,2022-04-27_15h01.28.884,Cluster,2022.1.1,36.05161293298902,
,,,,1,0,1,0,4,0,4,0,,,both,,,,,,,,,,,,,,,,,,,,,,,,,,,,,,,,,,,,,,,,,,,,,,,,,,,,,,,,,,,,,,,,,,,,,,,,,,,,,,,,,,,,,,,,,,,,,,,,,,,,,,,,,,,,,,,,,,,294.3719764999987,None,,,,,"[0.5650168364425744, 0.5650168364425744, 0.5650168364425744, 0.5650168364425744]","[1280.2903959895211, 1613.0648198854403, 2032.3343214185484, 2560.580791979042]",Major_3rd,"[6.779769909718749, 8.933686697687136, 8.963804799751824, 6.0]",True,295.3781275000074,298.10254550000536,298.10254550000536,299.32459400000516,['space'],0,[0.3828083999978844],3.2822022666805424,4.319957666681148,None,1,None,1,0,,,,,,,,,,,,qmbami,001,fr,0,0,2022-04-27_15h01.28.884,Cluster,2022.1.1,36.05161293298902,
,,,,1,0,1,0,5,0,5,0,,,frequency,,,,,,,,,,,,,,,,,,,,,,,,,,,,,,,,,,,,,,,,,,,,,,,,,,,,,,,,,,,,,,,,,,,,,,,,,,,,,,,,,,,,,,,,,,,,,,,,,,,,,,,,,,,,,,,,,,,299.73461370001314,None,2247.0879744579865,2.0,0.00010107792459837114,1,"[0.5195032793754707, 0.6635599304283912, 0.572119315289876, 0.6944676352904506]","[3567.0298145196994, 3177.862289323972, 2831.1534399852508, 2522.270970541472]",Tone,"[2.0, 3.0000000000000004, 4.824661604593502, 6.781753329484543]",False,300.7440436000179,303.52961270001833,303.52961270001833,304.7448100000038,['space'],1,[0.3475848000089172],3.485092466667993,4.502450866682921,None,1,None,1,,,,,,,,,,,,,qmbami,001,fr,0,0,2022-04-27_15h01.28.884,Cluster,2022.1.1,36.05161293298902,
,,,,1,0,1,0,6,0,6,0,,,time,,,,,,,,,,,,,,,,,,,,,,,,,,,,,,,,,,,,,,,,,,,,,,,,,,,,,,,,,,,,,,,,,,,,,,,,,,,,,,,,,,,,,,,,,,,,,,,,,,,,,,,,,,,,,,,,,,,305.302371400001,None,203.0630990890589,-6.0,0.0001300285315416542,0,"[0.46266503482265237, 0.46266503482265237, 0.46266503482265237, 0.46266503482265237]","[5619.999417562574, 2866.972404376592, 126.55607939617101, 2717.7060276620928]",None,"[-0.07547171544746334, 4.824661604593502, 3.7025364759474657, 5.0]",False,306.324445700011,308.7474166000029,308.7474166000029,309.95334090001415,None,0,,2.8890986333426554,3.928273633326171,None,1,None,1,,,,,,,,,,,,,qmbami,001,fr,0,0,2022-04-27_15h01.28.884,Cluster,2022.1.1,36.05161293298902,
,,,,1,0,1,0,7,0,7,0,,,none,,,,,,,,,,,,,,,,,,,,,,,,,,,,,,,,,,,,,,,,,,,,,,,,,,,,,,,,,,,,,,,,,,,,,,,,,,,,,,,,,,,,,,,,,,,,,,,,,,,,,,,,,,,,,,,,,,,310.2893285000173,None,3838.7135238642777,-4.409951034163997,4.881702272650561e-05,0,"[0.5467243645932804, 0.5908985337224062, 0.7810042263956085, 0.6076986734998108]","[566.2122100921506, 4479.283415477722, 5630.532000771083, 148.57239129079505]",None,"[6.263239677530973, 0.48058042627284525, -0.07547171544746334, 3.6043672322220215]",False,311.2981709000014,314.24120970000513,314.24120970000513,315.46354530000826,None,0,,3.561464366648579,4.59546866666642,None,1,None,1,,,,,,,,,,,,,qmbami,001,fr,0,0,2022-04-27_15h01.28.884,Cluster,2022.1.1,36.05161293298902,
,,,,1,0,1,0,8,0,8,0,,,none,,,,,,,,,,,,,,,,,,,,,,,,,,,,,,,,,,,,,,,,,,,,,,,,,,,,,,,,,,,,,,,,,,,,,,,,,,,,,,,,,,,,,,,,,,,,,,,,,,,,,,,,,,,,,,,,,,,315.9329235999903,None,2297.3967099940687,-3.0,5.762980050050316e-05,1,"[0.5151488423779583, 0.48650231422982615, 0.5141220544108672, 0.6544984780652983]","[152.93193607866692, 778.383182833062, 751.0232152254426, 608.8276951684223]",None,"[3.653092974283964, 4.555734982903949, 4.555734982903949, 6.0]",False,317.6961721999978,320.2449833000137,320.2449833000137,321.46545660000993,['space'],1,[0.43053160002455115],3.173977966653183,4.197085266670911,None,1,None,1,,,,,,,,,,,,,qmbami,001,fr,0,0,2022-04-27_15h01.28.884,Cluster,2022.1.1,36.05161293298902,
,,,,1,0,1,0,9,0,9,0,,,time,,,,,,,,,,,,,,,,,,,,,,,,,,,,,,,,,,,,,,,,,,,,,,,,,,,,,,,,,,,,,,,,,,,,,,,,,,,,,,,,,,,,,,,,,,,,,,,,,,,,,,,,,,,,,,,,,,,321.9394234000065,None,1708.4695859199346,3.2406476616173263,8.952685801228814e-05,1,"[0.7882207558226417, 0.7882207558226417, 0.7882207558226417, 0.7882207558226417]","[4292.905953027565, 179.24256638191196, 2299.1932528769744, 1823.0234478388086]",None,"[0.7306426957260639, 4.0, 7.674840210994211, 9.250582882084911]",False,322.9519889999938,326.34944130000076,326.34944130000076,327.567541299999,['space'],1,[0.4227203000045847],4.179619266651571,5.217987566662487,None,1,None,1,,,,,,,,,,,,,qmbami,001,fr,0,0,2022-04-27_15h01.28.884,Cluster,2022.1.1,36.05161293298902,
,,,,1,0,1,0,10,0,10,0,,,both,,,,,,,,,,,,,,,,,,,,,,,,,,,,,,,,,,,,,,,,,,,,,,,,,,,,,,,,,,,,,,,,,,,,,,,,,,,,,,,,,,,,,,,,,,,,,,,,,,,,,,,,,,,,,,,,,,,328.2106915000186,None,1066.8140646636161,-1.517332733593474,3.933833051879762e-05,1,"[0.5176669661380775, 0.5176669661380775, 0.5176669661380775, 0.5176669661380775]","[1693.4617685014953, 1508.702918777654, 1344.1014963936004, 1197.4583001875706]",Tone,"[9.0, 8.38635033036424, 7.0, 5.913495259209107]",False,329.22049189999234,331.7869322000188,331.7869322000188,333.014614899992,['space'],1,[0.3545465999923181],3.0974179666372947,4.109397666645236,None,1,None,1,,,,,,,,,,,,,qmbami,001,fr,0,0,2022-04-27_15h01.28.884,Cluster,2022.1.1,36.05161293298902,
,,,,1,0,1,0,11,0,11,0,,,both,,,,,,,,,,,,,,,,,,,,,,,,,,,,,,,,,,,,,,,,,,,,,,,,,,,,,,,,,,,,,,,,,,,,,,,,,,,,,,,,,,,,,,,,,,,,,,,,,,,,,,,,,,,,,,,,,,,333.37251330001163,None,,,,,"[0.7778624992751769, 0.7778624992751769, 0.7778624992751769, 0.7778624992751769]","[650.6727079710967, 819.7962413648843, 1032.8785411203157, 1301.345415942193]",Major_3rd,"[5.521429633254154, 4.159855742261785, 4.054859515048216, 6.779769909718749]",True,334.3850236000144,337.73969330001273,337.73969330001273,338.97174929999164,None,1,,4.153569566668011,5.191968566679861,None,1,None,1,0,,,,,,,,,,,,qmbami,001,fr,0,0,2022-04-27_15h01.28.884,Cluster,2022.1.1,36.05161293298902,
,,,,1,0,1,0,12,0,12,0,,,frequency,,,,,,,,,,,,,,,,,,,,,,,,,,,,,,,,,,,,,,,,,,,,,,,,,,,,,,,,,,,,,,,,,,,,,,,,,,,,,,,,,,,,,,,,,,,,,,,,,,,,,,,,,,,,,,,,,,,339.6156136000063,None,4287.0938501451765,-3.0,7.340968674065446e-05,1,"[0.7016524125060213, 0.5603824372412163, 0.7954660786268639, 0.4145797375803639]","[850.6671609508566, 1274.5606273192634, 1909.683207820835, 2861.2918648705195]",Perfect_5th,"[4.0, 6.0, 9.250582882084911, 4.824661604593502]",False,340.62438130000373,343.69293230000767,343.69293230000767,344.9201897000021,['space'],1,[0.43747209999128245],3.513520133361453,4.552932733349735,None,1,None,1,,,,,,,,,,,,,qmbami,001,fr,0,0,2022-04-27_15h01.28.884,Cluster,2022.1.1,36.05161293298902,
,,,,1,0,1,0,13,0,13,0,,,none,,,,,,,,,,,,,,,,,,,,,,,,,,,,,,,,,,,,,,,,,,,,,,,,,,,,,,,,,,,,,,,,,,,,,,,,,,,,,,,,,,,,,,,,,,,,,,,,,,,,,,,,,,,,,,,,,,,345.2160831000074,None,3891.131922273871,-4.898373550228147,4.667124347125772e-05,1,"[0.680365623884186, 0.5469618202696427, 0.5546108215149818, 0.40463027842888544]","[408.86006054729603, 6728.406210075238, 295.7258527359576, 3550.992923307113]",None,"[6.431249782034804, -0.5750826965144844, 5.809202697236832, 2.0]",False,346.22757429999183,349.04091300000437,349.04091300000437,350.2742474999977,['space'],1,[0.3550671999983024],3.2278219666623045,4.249087766656885,None,1,None,1,,,,,,,,,,,,,qmbami,001,fr,0,0,2022-04-27_15h01.28.884,Cluster,2022.1.1,36.05161293298902,
,,,,1,0,1,0,14,0,14,0,,,none,,,,,,,,,,,,,,,,,,,,,,,,,,,,,,,,,,,,,,,,,,,,,,,,,,,,,,,,,,,,,,,,,,,,,,,,,,,,,,,,,,,,,,,,,,,,,,,,,,,,,,,,,,,,,,,,,,,350.51704730000347,None,500.0,-3.0,5.057897271299494e-05,1,"[0.5957526571313763, 0.5405304320427371, 0.7857982699194205, 0.45463784615333724]","[146.8660622183345, 942.5631663238344, 2027.0594502284418, 797.8446038723861]",None,"[3.6043672322220215, 3.8546879595060357, 8.963804799751824, 4.159855742261785]",False,352.2911429000087,355.2482241000107,355.2482241000107,356.4817694000085,['space'],1,[0.4242686999787111],3.385427366680233,4.4089714666770305,None,1,None,1,,,,,,,,,,,,,qmbami,001,fr,0,0,2022-04-27_15h01.28.884,Cluster,2022.1.1,36.05161293298902,
,,,,1,0,1,0,15,0,15,0,,,none,,,,,,,,,,,,,,,,,,,,,,,,,,,,,,,,,,,,,,,,,,,,,,,,,,,,,,,,,,,,,,,,,,,,,,,,,,,,,,,,,,,,,,,,,,,,,,,,,,,,,,,,,,,,,,,,,,,356.74682249999023,None,,,,,"[0.600734076865138, 0.7642255180070583, 0.4936882970214628, 0.5374072482563985]","[6121.052631623461, 137.4964970449958, 125.4438609443395, 210.14597987635761]",None,"[-0.3114093269817442, 3.625080899236946, 3.7025364759474657, 4.485511131365423]",True,357.76629679999314,360.64355179999257,360.64355179999257,361.8728291000007,None,1,,3.433718566666357,4.4562752666533925,None,1,None,1,0,,,,,,,,,,,,qmbami,001,fr,0,0,2022-04-27_15h01.28.884,Cluster,2022.1.1,36.05161293298902,
,,,,1,0,1,0,16,0,16,0,,,time,,,,,,,,,,,,,,,,,,,,,,,,,,,,,,,,,,,,,,,,,,,,,,,,,,,,,,,,,,,,,,,,,,,,,,,,,,,,,,,,,,,,,,,,,,,,,,,,,,,,,,,,,,,,,,,,,,,362.2692769000132,None,307.7861033362292,-5.0,5.975641567313955e-05,1,"[0.42750997438525734, 0.42750997438525734, 0.42750997438525734, 0.42750997438525734]","[3117.530231316011, 3187.766280094481, 316.7662280589267, 261.2830012734845]",None,"[3.871695893082623, 3.0000000000000004, 6.0, 5.5936566629773345]",False,363.26747839999734,365.5858026999922,365.5858026999922,366.82337160001043,['space'],1,[0.4519045999913942],2.716275366663467,3.746240566659253,None,1,None,1,,,,,,,,,,,,,qmbami,001,fr,0,0,2022-04-27_15h01.28.884,Cluster,2022.1.1,36.05161293298902,
,,,,1,0,1,0,17,0,17,0,,,none,,,,,,,,,,,,,,,,,,,,,,,,,,,,,,,,,,,,,,,,,,,,,,,,,,,,,,,,,,,,,,,,,,,,,,,,,,,,,,,,,,,,,,,,,,,,,,,,,,,,,,,,,,,,,,,,,,,367.0649885000021,None,6548.543643716955,-6.575082696514484,6.451801140829856e-05,1,"[0.5297702112392315, 0.7102859964424668, 0.769387873616656, 0.6828973609986821]","[241.22348228374895, 495.2799133952604, 5803.976514868183, 2834.9929623234384]",None,"[5.070289962807075, 6.541656715615594, -0.07547171544746334, 4.824661604593502]",False,368.06931730001816,371.10083949999535,371.10083949999535,372.3332783000078,['space'],1,[0.4227559000137262],3.733493866660865,4.759520266670734,None,1,None,1,,,,,,,,,,,,,qmbami,001,fr,0,0,2022-04-27_15h01.28.884,Cluster,2022.1.1,36.05161293298902,
,,,,1,0,1,0,18,0,18,0,,,both,,,,,,,,,,,,,,,,,,,,,,,,,,,,,,,,,,,,,,,,,,,,,,,,,,,,,,,,,,,,,,,,,,,,,,,,,,,,,,,,,,,,,,,,,,,,,,,,,,,,,,,,,,,,,,,,,,,372.87371990000247,None,2143.5469250725882,-5.0,4.385915186110737e-05,0,"[0.7274581416356181, 0.7274581416356181, 0.7274581416356181, 0.7274581416356181]","[5401.399784672766, 4287.093850145177, 3402.668643803426, 2700.6998923363826]",Major_3rd,"[0.0, 0.7306426957260639, 2.2340571828013855, 5.811982983314229]",False,373.90368200000376,377.11860909999814,377.11860909999814,378.3458041000122,None,0,,3.9502865333051886,4.9857084333198145,None,1,None,1,,,,,,,,,,,,,qmbami,001,fr,0,0,2022-04-27_15h01.28.884,Cluster,2022.1.1,36.05161293298902,
,,,,1,0,1,0,19,0,19,0,,,both,,,,,,,,,,,,,,,,,,,,,,,,,,,,,,,,,,,,,,,,,,,,,,,,,,,,,,,,,,,,,,,,,,,,,,,,,,,,,,,,,,,,,,,,,,,,,,,,,,,,,,,,,,,,,,,,,,,378.929326100013,None,,,,,"[0.5702419604449729, 0.5702419604449729, 0.5702419604449729, 0.5702419604449729]","[4563.33919711017, 3621.924720990201, 2874.723556124736, 2281.6695985550846]",Major_3rd,"[0.48058042627284525, 2.0, 4.824661604593502, 7.674840210994211]",True,379.9377258000022,382.6829207999981,382.6829207999981,383.91616059999797,['space'],0,[0.5813505000260193],3.307156966679031,4.32882576668635,None,1,None,1,0,,,,,,,,,,,,qmbami,001,fr,0,0,2022-04-27_15h01.28.884,Cluster,2022.1.1,36.05161293298902,
,,,,2,0,2,0,0,0,0,0,,,time,,,,,,,,,,,,,,,,,,,,,,,,,,,,,,,,,,,,,,,,,,,,,,,,,,,,,,,,,,,,,,,,,,,,,,,,,,,,,,,,,,,,,,,,,,,,,,,,,,,,,,,,,,,,,,,,,,,386.4780626000138,None,1084.5586516949809,-1.517332733593474,3.996157330782759e-05,1,"[0.66772603074848, 0.66772603074848, 0.66772603074848, 0.66772603074848]","[1150.0319420211188, 3836.8143140636266, 182.4005234503748, 130.99237108486153]",None,"[5.127535793346383, 1.5900489658360026, 4.0, 3.625080899236946]",False,387.4636572000163,390.4820648000168,390.4820648000168,391.6982236999902,['space'],1,[0.3933827000146266],3.6953453666938003,4.722495566675207,None,1,None,1,,,,,,,,,,,,,qmbami,001,fr,0,0,2022-04-27_15h01.28.884,Cluster,2022.1.1,36.05161293298902,
,,,,2,0,2,0,1,0,1,0,,,both,,,,,,,,,,,,,,,,,,,,,,,,,,,,,,,,,,,,,,,,,,,,,,,,,,,,,,,,,,,,,,,,,,,,,,,,,,,,,,,,,,,,,,,,,,,,,,,,,,,,,,,,,,,,,,,,,,,392.23629000000074,None,467.5524104776469,0.5460312043078765,7.784572470075403e-05,1,"[0.5730192798510255, 0.5730192798510255, 0.5730192798510255, 0.5730192798510255]","[294.5395619449377, 330.60948000886026, 371.096594121242, 416.54184315796135]",Tone,"[5.809202697236832, 6.142930026355189, 6.350034686406117, 6.431249782034804]",False,393.2285084000032,395.98628630000167,395.98628630000167,397.2226314000145,['space'],1,[0.30568240000866354],3.3163248666678555,4.343969166686293,None,1,None,1,,,,,,,,,,,,,qmbami,001,fr,0,0,2022-04-27_15h01.28.884,Cluster,2022.1.1,36.05161293298902,
,,,,2,0,2,0,2,0,2,0,,,time,,,,,,,,,,,,,,,,,,,,,,,,,,,,,,,,,,,,,,,,,,,,,,,,,,,,,,,,,,,,,,,,,,,,,,,,,,,,,,,,,,,,,,,,,,,,,,,,,,,,,,,,,,,,,,,,,,,397.6180038000166,None,1319.5079107728945,-6.0,2.645445192770051e-05,0,"[0.6912588530433004, 0.6912588530433004, 0.6912588530433004, 0.6912588530433004]","[810.8732896015379, 504.3605746849485, 1572.4243766249137, 2494.3038993676773]",None,"[4.159855742261785, 6.541656715615594, 8.933686697687136, 6.781753329484543]",False,398.66008780000266,401.74707109999144,401.74707109999144,402.9752950000111,None,0,,3.789697033324046,4.810967933328357,None,1,None,1,,,,,,,,,,,,,qmbami,001,fr,0,0,2022-04-27_15h01.28.884,Cluster,2022.1.1,36.05161293298902,
,,,,2,0,2,0,3,0,3,0,,,time,,,,,,,,,,,,,,,,,,,,,,,,,,,,,,,,,,,,,,,,,,,,,,,,,,,,,,,,,,,,,,,,,,,,,,,,,,,,,,,,,,,,,,,,,,,,,,,,,,,,,,,,,,,,,,,,,,,403.5096223000146,None,,,,,"[0.4376382179827719, 0.4376382179827719, 0.4376382179827719, 0.4376382179827719]","[1957.0198395699824, 1846.8305699856014, 534.5725686038891, 148.74755036217184]",None,"[9.0, 9.250582882084911, 6.456672943607029, 3.653092974283964]",True,404.513598599995,406.84209890000056,406.84209890000056,408.0631593000144,None,1,,2.785885966673959,3.8173387666756753,None,1,None,1,0,,,,,,,,,,,,qmbami,001,fr,0,0,2022-04-27_15h01.28.884,Cluster,2022.1.1,36.05161293298902,
,,,,2,0,2,0,4,0,4,0,,,none,,,,,,,,,,,,,,,,,,,,,,,,,,,,,,,,,,,,,,,,,,,,,,,,,,,,,,,,,,,,,,,,,,,,,,,,,,,,,,,,,,,,,,,,,,,,,,,,,,,,,,,,,,,,,,,,,,,408.3653658000112,None,329.87697769322364,-7.0,4.232726358590751e-05,1,"[0.6449209889166887, 0.440715321439653, 0.5157886722324226, 0.7760295892777933]","[5009.3495956965035, 2210.5201890793637, 658.5064179702733, 3874.851442691908]",None,"[0.29520897195786056, 8.0, 5.521429633254154, 1.101626449771853]",False,409.4042638000101,412.0308994000079,412.0308994000079,413.2654133000178,['space'],1,[0.2867273000010755],3.4115689333120827,4.438307333301054,None,1,None,1,,,,,,,,,,,,,qmbami,001,fr,0,0,2022-04-27_15h01.28.884,Cluster,2022.1.1,36.05161293298902,
,,,,2,0,2,0,5,0,5,0,,,none,,,,,,,,,,,,,,,,,,,,,,,,,,,,,,,,,,,,,,,,,,,,,,,,,,,,,,,,,,,,,,,,,,,,,,,,,,,,,,,,,,,,,,,,,,,,,,,,,,,,,,,,,,,,,,,,,,,413.88437899999553,None,365.50173019648946,0.25704403064390713,8.807878428878116e-05,1,"[0.532583846764151, 0.4667320066322661, 0.5610200870007399, 0.7967879802525908]","[787.8132522472933, 390.9555689912315, 892.922851104594, 675.7399609291291]",None,"[4.159855742261785, 6.350034686406117, 3.9001281672132606, 5.521429633254154]",False,414.8978743000189,417.4709458000143,417.4709458000143,418.7127476000169,['space'],1,[0.5207463999977335],3.384171266661724,4.400640366657171,None,1,None,1,,,,,,,,,,,,,qmbami,001,fr,0,0,2022-04-27_15h01.28.884,Cluster,2022.1.1,36.05161293298902,
,,,,2,0,2,0,6,0,6,0,,,time,,,,,,,,,,,,,,,,,,,,,,,,,,,,,,,,,,,,,,,,,,,,,,,,,,,,,,,,,,,,,,,,,,,,,,,,,,,,,,,,,,,,,,,,,,,,,,,,,,,,,,,,,,,,,,,,,,,419.34369840001455,None,270.35815779304096,-0.4063433370226657,0.00013924611407535427,1,"[0.5468902393190291, 0.5468902393190291, 0.5468902393190291, 0.5468902393190291]","[3382.2278667184737, 6408.427701871924, 1047.6053904125615, 645.1287841258611]",None,"[2.2340571828013855, -0.5750826965144844, 4.482667266406526, 5.521429633254154]",False,420.3621103000187,423.01724939999986,423.01724939999986,424.2449659999984,['space'],1,[0.3127736000169534],3.2039384666713886,4.228810166678159,None,1,None,1,,,,,,,,,,,,,qmbami,001,fr,0,0,2022-04-27_15h01.28.884,Cluster,2022.1.1,36.05161293298902,
,,,,2,0,2,0,7,0,7,0,,,both,,,,,,,,,,,,,,,,,,,,,,,,,,,,,,,,,,,,,,,,,,,,,,,,,,,,,,,,,,,,,,,,,,,,,,,,,,,,,,,,,,,,,,,,,,,,,,,,,,,,,,,,,,,,,,,,,,,424.6392172999913,None,,,,,"[0.6221256924762538, 0.6221256924762538, 0.6221256924762538, 0.6221256924762538]","[281.2197615280366, 250.53832506105968, 223.2042726419257, 198.85240038013842]",Tone,"[5.809202697236832, 5.347903196485904, 4.771495999328634, 4.485511131365423]",True,425.6523003000184,428.5502945999906,428.5502945999906,429.7701085000008,['space'],0,[0.3028102999960538],3.508166066632839,4.550748766632751,None,1,None,1,0,,,,,,,,,,,,qmbami,001,fr,0,0,2022-04-27_15h01.28.884,Cluster,2022.1.1,36.05161293298902,
,,,,2,0,2,0,8,0,8,0,,,time,,,,,,,,,,,,,,,,,,,,,,,,,,,,,,,,,,,,,,,,,,,,,,,,,,,,,,,,,,,,,,,,,,,,,,,,,,,,,,,,,,,,,,,,,,,,,,,,,,,,,,,,,,,,,,,,,,,430.2378686000011,None,4000.0,-6.0,4.206975708225974e-05,1,"[0.5947426179523577, 0.5947426179523577, 0.5947426179523577, 0.5947426179523577]","[6131.043183213074, 181.0156690550704, 6137.676038749175, 1124.4646542919477]",None,"[-0.3114093269817442, 4.0, -0.3114093269817442, 5.0]",False,431.2645443000074,434.06546250000247,434.06546250000247,435.2905376999988,['space'],1,[0.5114785000041593],3.3939587333297823,4.414716633327771,None,1,None,1,,,,,,,,,,,,,qmbami,001,fr,0,0,2022-04-27_15h01.28.884,Cluster,2022.1.1,36.05161293298902,
,,,,2,0,2,0,9,0,9,0,,,time,,,,,,,,,,,,,,,,,,,,,,,,,,,,,,,,,,,,,,,,,,,,,,,,,,,,,,,,,,,,,,,,,,,,,,,,,,,,,,,,,,,,,,,,,,,,,,,,,,,,,,,,,,,,,,,,,,,435.7123978000018,None,2391.0994255407913,1.0,9.366766082425137e-05,1,"[0.48761071206681944, 0.48761071206681944, 0.48761071206681944, 0.48761071206681944]","[202.24011421137772, 235.42980289282434, 159.69893675465255, 3594.576221372053]",None,"[4.485511131365423, 5.070289962807075, 3.7753546007495498, 2.0]",False,436.71542160000536,439.18139549999614,439.18139549999614,440.3997198000143,['space'],1,[0.284598600002937],2.9690545666671824,3.9844689666642807,None,1,None,1,,,,,,,,,,,,,qmbami,001,fr,0,0,2022-04-27_15h01.28.884,Cluster,2022.1.1,36.05161293298902,
,,,,2,0,2,0,10,0,10,0,,,frequency,,,,,,,,,,,,,,,,,,,,,,,,,,,,,,,,,,,,,,,,,,,,,,,,,,,,,,,,,,,,,,,,,,,,,,,,,,,,,,,,,,,,,,,,,,,,,,,,,,,,,,,,,,,,,,,,,,,440.75128450000193,None,1531.1427011891465,2.3863503303642393,6.70379696664728e-05,0,"[0.7168540036642952, 0.5024079648270847, 0.7478078805384214, 0.6343861155368901]","[607.6343836452705, 765.5713505945733, 964.5594598105508, 1215.2687672905408]",Major_3rd,"[6.0, 4.555734982903949, 4.0, 5.913495259209107]",False,441.7537805000029,444.7355964000162,444.7355964000162,445.9667041999928,None,0,,3.632525066641392,4.656820666656131,None,1,None,1,,,,,,,,,,,,,qmbami,001,fr,0,0,2022-04-27_15h01.28.884,Cluster,2022.1.1,36.05161293298902,
,,,,2,0,2,0,11,0,11,0,,,both,,,,,,,,,,,,,,,,,,,,,,,,,,,,,,,,,,,,,,,,,,,,,,,,,,,,,,,,,,,,,,,,,,,,,,,,,,,,,,,,,,,,,,,,,,,,,,,,,,,,,,,,,,,,,,,,,,,446.4547715999943,None,,,,,"[0.41693647977460513, 0.41693647977460513, 0.41693647977460513, 0.41693647977460513]","[150.11496684838977, 224.91831717405083, 336.9967063410744, 504.92454999496465]",Perfect_5th,"[3.653092974283964, 5.0, 6.142930026355189, 6.541656715615594]",True,447.4681686999975,449.7349099999992,449.7349099999992,450.95938760001445,None,1,,2.685195066675078,3.725510366668459,None,1,None,1,0,,,,,,,,,,,,qmbami,001,fr,0,0,2022-04-27_15h01.28.884,Cluster,2022.1.1,36.05161293298902,
,,,,2,0,2,0,12,0,12,0,,,time,,,,,,,,,,,,,,,,,,,,,,,,,,,,,,,,,,,,,,,,,,,,,,,,,,,,,,,,,,,,,,,,,,,,,,,,,,,,,,,,,,,,,,,,,,,,,,,,,,,,,,,,,,,,,,,,,,,451.22774780000327,None,2000.0,-5.0,4.206975708225974e-05,0,"[0.6311214897170407, 0.6311214897170407, 0.6311214897170407, 0.6311214897170407]","[420.90775916738636, 2643.7239298434924, 2828.0577832141657, 3635.4311832874914]",None,"[6.50084471269436, 5.811982983314229, 4.824661604593502, 2.0]",False,452.2454915000126,455.15521830000216,455.15521830000216,456.38005279999925,None,0,,3.5415759666648228,4.558111666643526,None,1,['space'],0,,[0.10975449997931719],,,,,,,,,,,qmbami,001,fr,0,0,2022-04-27_15h01.28.884,Cluster,2022.1.1,36.05161293298902,
,,,,2,0,2,0,13,0,13,0,,,frequency,,,,,,,,,,,,,,,,,,,,,,,,,,,,,,,,,,,,,,,,,,,,,,,,,,,,,,,,,,,,,,,,,,,,,,,,,,,,,,,,,,,,,,,,,,,,,,,,,,,,,,,,,,,,,,,,,,,456.8513299000042,None,203.0630990890589,-5.0,0.00014589441197552095,1,"[0.4519517132478661, 0.47587336245398126, 0.6196273565826386, 0.7935212220481944]","[127.92173649959686, 143.58729437462938, 161.1712885549474, 180.90865468004728]",Tone,"[3.7025364759474657, 3.6043672322220215, 3.7753546007495498, 4.0]",False,457.859903900011,460.44505800001207,460.44505800001207,461.67290800000774,['space'],1,[0.4142211000144016],3.375581233325647,4.390431633335538,None,1,None,1,,,,,,,,,,,,,qmbami,001,fr,0,0,2022-04-27_15h01.28.884,Cluster,2022.1.1,36.05161293298902,
,,,,2,0,2,0,14,0,14,0,,,none,,,,,,,,,,,,,,,,,,,,,,,,,,,,,,,,,,,,,,,,,,,,,,,,,,,,,,,,,,,,,,,,,,,,,,,,,,,,,,,,,,,,,,,,,,,,,,,,,,,,,,,,,,,,,,,,,,,462.2811129000038,None,125.0,-6.0,0.00036221798003749513,0,"[0.608272312703708, 0.4612374851570254, 0.6445215718419534, 0.44208422531811814]","[634.4843549253029, 7409.6899589906125, 169.2432800141202, 1759.7268445373295]",None,"[5.938948445846544, -1.069734284184654, 3.7753546007495498, 9.240647661617327]",False,463.36655820001033,466.09533430001466,466.09533430001466,467.3312096000009,None,0,,3.1899014333612286,4.21800443335087,None,1,None,1,,,,,,,,,,,,,qmbami,001,fr,0,0,2022-04-27_15h01.28.884,Cluster,2022.1.1,36.05161293298902,
,,,,2,0,2,0,15,0,15,0,,,both,,,,,,,,,,,,,,,,,,,,,,,,,,,,,,,,,,,,,,,,,,,,,,,,,,,,,,,,,,,,,,,,,,,,,,,,,,,,,,,,,,,,,,,,,,,,,,,,,,,,,,,,,,,,,,,,,,,467.630453699996,None,5656.85424949238,-5.0,7.227417995191064e-05,0,"[0.4845469173678864, 0.4845469173678864, 0.4845469173678864, 0.4845469173678864]","[3563.5948725613575, 4000.0000000000005, 4489.8481932374925, 5039.684199579493]",Tone,"[2.0, 1.101626449771853, 0.48058042627284525, 0.29520897195786056]",False,468.6557204000128,471.14235370000824,471.14235370000824,472.3749797999917,None,0,,2.9441731666447595,3.9660327666497324,None,1,None,1,,,,,,,,,,,,,qmbami,001,fr,0,0,2022-04-27_15h01.28.884,Cluster,2022.1.1,36.05161293298902,
,,,,2,0,2,0,16,0,16,0,,,time,,,,,,,,,,,,,,,,,,,,,,,,,,,,,,,,,,,,,,,,,,,,,,,,,,,,,,,,,,,,,,,,,,,,,,,,,,,,,,,,,,,,,,,,,,,,,,,,,,,,,,,,,,,,,,,,,,,472.6733401000092,None,155.87322898401098,-2.346907025716036,0.0003418204927794216,1,"[0.7429709769368398, 0.7429709769368398, 0.7429709769368398, 0.7429709769368398]","[3510.3203484483142, 446.49609363042435, 273.61146378171844, 3145.2404719977994]",None,"[2.2340571828013855, 6.50084471269436, 5.5936566629773345, 3.0000000000000004]",False,473.6598774000013,476.9211053000181,476.9211053000181,478.1513790000172,['space'],1,[0.283684699999867],4.009337766648969,5.026810266630491,None,1,None,1,,,,,,,,,,,,,qmbami,001,fr,0,0,2022-04-27_15h01.28.884,Cluster,2022.1.1,36.05161293298902,
,,,,2,0,2,0,17,0,17,0,,,time,,,,,,,,,,,,,,,,,,,,,,,,,,,,,,,,,,,,,,,,,,,,,,,,,,,,,,,,,,,,,,,,,,,,,,,,,,,,,,,,,,,,,,,,,,,,,,,,,,,,,,,,,,,,,,,,,,,478.73703610000666,None,707.1067811865476,-6.0,2.225419062702849e-05,1,"[0.6839835196995179, 0.6839835196995179, 0.6839835196995179, 0.6839835196995179]","[4764.120468117857, 3542.2307630183095, 3782.4140102002298, 6024.957070393537]",None,"[0.29520897195786056, 2.0, 1.5900489658360026, -0.3114093269817442]",False,480.75730779999867,483.84789720000117,483.84789720000117,485.061451400019,['space'],1,[0.3916736000101082],3.751163066655863,4.767398766678525,None,1,None,1,,,,,,,,,,,,,qmbami,001,fr,0,0,2022-04-27_15h01.28.884,Cluster,2022.1.1,36.05161293298902,
,,,,2,0,2,0,18,0,18,0,,,none,,,,,,,,,,,,,,,,,,,,,,,,,,,,,,,,,,,,,,,,,,,,,,,,,,,,,,,,,,,,,,,,,,,,,,,,,,,,,,,,,,,,,,,,,,,,,,,,,,,,,,,,,,,,,,,,,,,485.5704444000148,None,,,,,"[0.6156405278860914, 0.7035222410313733, 0.6954906151176647, 0.6599829831684653]","[5066.942501753744, 293.22081918276206, 358.2927035141786, 1382.9497918376505]",None,"[0.29520897195786056, 5.809202697236832, 6.2570440306439075, 7.634769891063657]",True,486.5730534000031,489.5947836000123,489.5947836000123,490.82020859999466,None,1,,3.703603566653328,4.722937866637949,None,1,None,1,0,,,,,,,,,,,,qmbami,001,fr,0,0,2022-04-27_15h01.28.884,Cluster,2022.1.1,36.05161293298902,
,,,,2,0,2,0,19,0,19,0,,,time,,,,,,,,,,,,,,,,,,,,,,,,,,,,,,,,,,,,,,,,,,,,,,,,,,,,,,,,,,,,,,,,,,,,,,,,,,,,,,,,,,,,,,,,,,,,,,,,,,,,,,,,,,,,,,,,,,,491.33391020001727,None,160.32879814846834,-2.2246453992504502,0.0003173006169063685,1,"[0.45099701060306646, 0.45099701060306646, 0.45099701060306646, 0.45099701060306646]","[7189.440057398912, 163.21308636963545, 471.3535114101718, 768.2189160292619]",None,"[-1.0, 3.7753546007495498, 6.5460312043078765, 4.555734982903949]",False,492.3372656000138,494.7029310000071,494.7029310000071,495.92993600000045,['space'],1,[0.24592680000932887],2.841107166663278,3.877819166664267,None,1,None,1,,,,,,,,,,,,,qmbami,001,fr,0,0,2022-04-27_15h01.28.884,Cluster,2022.1.1,36.05161293298902,
,,,,3,0,3,0,0,0,0,0,,,time,,,,,,,,,,,,,,,,,,,,,,,,,,,,,,,,,,,,,,,,,,,,,,,,,,,,,,,,,,,,,,,,,,,,,,,,,,,,,,,,,,,,,,,,,,,,,,,,,,,,,,,,,,,,,,,,,,,498.92078750001383,None,125.0,-6.0,0.00036221798003749513,1,"[0.7729089763211663, 0.7729089763211663, 0.7729089763211663, 0.7729089763211663]","[318.06977649686513, 2884.9596691415018, 1349.1766420383974, 5184.388573047935]",None,"[6.0, 4.824661604593502, 7.0, 0.12414104234400192]",False,499.9197966000065,503.27191969999694,503.27191969999694,504.50285900000017,['space'],1,[0.4486034000001382],4.118728033325169,5.141591333318502,None,1,None,1,,,,,,,,,,,,,qmbami,001,fr,0,0,2022-04-27_15h01.28.884,Cluster,2022.1.1,36.05161293298902,
,,,,3,0,3,0,1,0,1,0,,,both,,,,,,,,,,,,,,,,,,,,,,,,,,,,,,,,,,,,,,,,,,,,,,,,,,,,,,,,,,,,,,,,,,,,,,,,,,,,,,,,,,,,,,,,,,,,,,,,,,,,,,,,,,,,,,,,,,,505.10890680001467,None,1642.2778486753496,3.0,8.285877000777438e-05,1,"[0.7564327898318046, 0.7564327898318046, 0.7564327898318046, 0.7564327898318046]","[1034.57021566107, 1161.2658033907944, 1303.4767923056606, 1463.103230215143]",Tone,"[4.054859515048216, 5.127535793346383, 6.779769909718749, 8.0]",False,506.11954000001424,509.4158516000025,509.4158516000025,510.6515877000056,['space'],1,[0.36544389999471605],4.045162366674049,5.0477503666770644,None,1,None,1,,,,,,,,,,,,,qmbami,001,fr,0,0,2022-04-27_15h01.28.884,Cluster,2022.1.1,36.05161293298902,
,,,,3,0,3,0,2,0,2,0,,,time,,,,,,,,,,,,,,,,,,,,,,,,,,,,,,,,,,,,,,,,,,,,,,,,,,,,,,,,,,,,,,,,,,,,,,,,,,,,,,,,,,,,,,,,,,,,,,,,,,,,,,,,,,,,,,,,,,,511.20864480000455,None,,,,,"[0.5053904771873866, 0.5053904771873866, 0.5053904771873866, 0.5053904771873866]","[6587.428742115889, 683.3741788423189, 4281.885097979611, 444.50981146844714]",None,"[-0.5750826965144844, 5.521429633254154, 0.7306426957260639, 6.50084471269436]",True,512.2090001000033,514.738148000004,514.738148000004,515.9715285999991,['space'],0,[0.5446792999864556],3.0549076666648034,4.077954166656127,None,1,None,1,0,,,,,,,,,,,,qmbami,001,fr,0,0,2022-04-27_15h01.28.884,Cluster,2022.1.1,36.05161293298902,
,,,,3,0,3,0,3,0,3,0,,,frequency,,,,,,,,,,,,,,,,,,,,,,,,,,,,,,,,,,,,,,,,,,,,,,,,,,,,,,,,,,,,,,,,,,,,,,,,,,,,,,,,,,,,,,,,,,,,,,,,,,,,,,,,,,,,,,,,,,,516.3257744000002,None,7636.309180270337,-7.069734284184654,7.555706711197019e-05,1,"[0.6945861330855492, 0.428694594117748, 0.5549732143219148, 0.6096327949934488]","[4810.5733398640305, 5399.686004606241, 6060.942612957776, 6803.178060026148]",Tone,"[0.29520897195786056, 0.0, -0.3114093269817442, -0.8426983390972307]",False,517.3312032000103,520.0487826000026,520.0487826000026,521.274828900001,['space'],1,[0.31109319999814034],3.302553066663677,4.331498166662641,None,1,None,1,,,,,,,,,,,,,qmbami,001,fr,0,0,2022-04-27_15h01.28.884,Cluster,2022.1.1,36.05161293298902,
,,,,3,0,3,0,4,0,4,0,,,both,,,,,,,,,,,,,,,,,,,,,,,,,,,,,,,,,,,,,,,,,,,,,,,,,,,,,,,,,,,,,,,,,,,,,,,,,,,,,,,,,,,,,,,,,,,,,,,,,,,,,,,,,,,,,,,,,,,521.7182866999938,None,125.0,-6.0,0.00036221798003749513,1,"[0.7995626313173791, 0.7995626313173791, 0.7995626313173791, 0.7995626313173791]","[198.42513149602502, 176.77669529663694, 157.49013123685918, 140.30775603867164]",Tone,"[4.485511131365423, 3.968951410952849, 3.653092974283964, 3.6043672322220215]",False,522.7528175000043,526.1790738000127,526.1790738000127,527.3903467000055,['space'],1,[0.49690160001046024],4.2259159666718915,5.247360966663109,None,1,None,1,,,,,,,,,,,,,qmbami,001,fr,0,0,2022-04-27_15h01.28.884,Cluster,2022.1.1,36.05161293298902,
,,,,3,0,3,0,5,0,5,0,,,both,,,,,,,,,,,,,,,,,,,,,,,,,,,,,,,,,,,,,,,,,,,,,,,,,,,,,,,,,,,,,,,,,,,,,,,,,,,,,,,,,,,,,,,,,,,,,,,,,,,,,,,,,,,,,,,,,,,528.0488760000153,None,4001.5393344776626,-4.898373550228147,4.7818832818342747e-05,1,"[0.46660976576064533, 0.46660976576064533, 0.46660976576064533, 0.46660976576064533]","[6352.047749041972, 5659.03119718772, 5041.623639490729, 4491.576037768323]",Tone,"[-0.5750826965144844, -0.07547171544746334, 0.29520897195786056, 0.48058042627284525]",False,529.0527917,531.4797056000098,531.4797056000098,532.6919144999993,['space'],1,[0.8787640999944415],2.884475766652031,3.9250089666456915,None,1,None,1,,,,,,,,,,,,,qmbami,001,fr,0,0,2022-04-27_15h01.28.884,Cluster,2022.1.1,36.05161293298902,
,,,,3,0,3,0,6,0,6,0,,,frequency,,,,,,,,,,,,,,,,,,,,,,,,,,,,,,,,,,,,,,,,,,,,,,,,,,,,,,,,,,,,,,,,,,,,,,,,,,,,,,,,,,,,,,,,,,,,,,,,,,,,,,,,,,,,,,,,,,,533.0238709000114,None,1624.5047927124701,1.0,6.491663098207682e-05,0,"[0.7261831695032874, 0.5323272754388764, 0.4579878934772778, 0.6643408192351146]","[4093.4955679870973, 3249.0095854249403, 2578.7406168791567, 2046.7477839935486]",Major_3rd,"[1.0, 2.998486563333788, 6.0, 8.963804799751824]",False,534.0419999000151,536.7925188000081,536.7925188000081,538.0258268000034,None,0,,3.4182072333060205,4.43558063331875,None,1,None,1,,,,,,,,,,,,,qmbami,001,fr,0,0,2022-04-27_15h01.28.884,Cluster,2022.1.1,36.05161293298902,
,,,,3,0,3,0,7,0,7,0,,,none,,,,,,,,,,,,,,,,,,,,,,,,,,,,,,,,,,,,,,,,,,,,,,,,,,,,,,,,,,,,,,,,,,,,,,,,,,,,,,,,,,,,,,,,,,,,,,,,,,,,,,,,,,,,,,,,,,,538.5167288999946,None,663.7685338038209,-0.47857036674584563,4.561935236669793e-05,1,"[0.5246496479563219, 0.53240746320206, 0.7873522505120596, 0.6935924480212909]","[1731.7323717713914, 1155.272261777558, 315.76063839132036, 1752.3549813188758]",None,"[9.240647661617327, 5.127535793346383, 6.0, 9.240647661617327]",False,539.514975099999,542.3698049999948,542.3698049999948,543.6029300999944,['space'],1,[0.3173022999835666],3.5793462666333653,4.595244566648034,None,1,None,1,,,,,,,,,,,,,qmbami,001,fr,0,0,2022-04-27_15h01.28.884,Cluster,2022.1.1,36.05161293298902,
,,,,3,0,3,0,8,0,8,0,,,none,,,,,,,,,,,,,,,,,,,,,,,,,,,,,,,,,,,,,,,,,,,,,,,,,,,,,,,,,,,,,,,,,,,,,,,,,,,,,,,,,,,,,,,,,,,,,,,,,,,,,,,,,,,,,,,,,,,544.1469452000165,None,,,,,"[0.5944171629404899, 0.6108410840135832, 0.7120412686618219, 0.7760215012938889]","[584.1338739197774, 7181.698486258995, 2100.721330616416, 1936.2080630541657]",None,"[6.263239677530973, -1.0, 8.428561809022453, 9.0]",True,545.1578009999939,548.0924626000051,548.0924626000051,549.3068346999935,None,1,,3.720979066682048,4.746355166687863,None,1,None,1,0,,,,,,,,,,,,qmbami,001,fr,0,0,2022-04-27_15h01.28.884,Cluster,2022.1.1,36.05161293298902,
,,,,3,0,3,0,9,0,9,0,,,time,,,,,,,,,,,,,,,,,,,,,,,,,,,,,,,,,,,,,,,,,,,,,,,,,,,,,,,,,,,,,,,,,,,,,,,,,,,,,,,,,,,,,,,,,,,,,,,,,,,,,,,,,,,,,,,,,,,549.9391172000032,None,479.85804373990794,0.5460312043078765,7.717615033378322e-05,1,"[0.4308276274339904, 0.4308276274339904, 0.4308276274339904, 0.4308276274339904]","[126.5211408726037, 7563.430987418733, 2019.500461086154, 2337.44033916029]",None,"[3.7025364759474657, -1.069734284184654, 8.963804799751824, 7.674840210994211]",False,550.9422133000044,553.2639393999998,553.2639393999998,554.4974745000072,['space'],1,[0.36939039998105727],2.754160166688962,3.7845920666877646,None,1,None,1,,,,,,,,,,,,,qmbami,001,fr,0,0,2022-04-27_15h01.28.884,Cluster,2022.1.1,36.05161293298902,
,,,,3,0,3,0,10,0,10,0,,,frequency,,,,,,,,,,,,,,,,,,,,,,,,,,,,,,,,,,,,,,,,,,,,,,,,,,,,,,,,,,,,,,,,,,,,,,,,,,,,,,,,,,,,,,,,,,,,,,,,,,,,,,,,,,,,,,,,,,,554.7714410999906,None,1140.4233971698382,-1.0,4.449655020147722e-05,1,"[0.4656876873338134, 0.7368505305058595, 0.6591675135302191, 0.6485155829671213]","[2873.6868877738007, 2280.8467943396763, 1810.3093003565489, 1436.8434438869003]",Major_3rd,"[4.824661604593502, 7.674840210994211, 9.250582882084911, 7.634769891063657]",False,555.7703591000172,558.6694029000064,558.6694029000064,559.880702800001,['space'],1,[0.37763790000462905],3.532963966659736,4.559167566680117,None,1,None,1,,,,,,,,,,,,,qmbami,001,fr,0,0,2022-04-27_15h01.28.884,Cluster,2022.1.1,36.05161293298902,
,,,,3,0,3,0,11,0,11,0,,,time,,,,,,,,,,,,,,,,,,,,,,,,,,,,,,,,,,,,,,,,,,,,,,,,,,,,,,,,,,,,,,,,,,,,,,,,,,,,,,,,,,,,,,,,,,,,,,,,,,,,,,,,,,,,,,,,,,,560.3736231999937,None,378.9291416275994,-8.0,3.2654564398085426e-05,0,"[0.5687738786156615, 0.5687738786156615, 0.5687738786156615, 0.5687738786156615]","[565.2363282441852, 1490.1172636719523, 1181.8020647782944, 130.89418949393541]",None,"[6.263239677530973, 8.38635033036424, 5.127535793346383, 3.625080899236946]",False,561.3862272000115,564.1273366000096,564.1273366000096,565.3450454999984,None,0,,3.308244266663678,4.322588366660057,None,1,['space'],0,,[0.4349724000203423],,,,,,,,,,,qmbami,001,fr,0,0,2022-04-27_15h01.28.884,Cluster,2022.1.1,36.05161293298902,
,,,,3,0,3,0,12,0,12,0,,,none,,,,,,,,,,,,,,,,,,,,,,,,,,,,,,,,,,,,,,,,,,,,,,,,,,,,,,,,,,,,,,,,,,,,,,,,,,,,,,,,,,,,,,,,,,,,,,,,,,,,,,,,,,,,,,,,,,,565.7565732999938,None,,,,,"[0.47622466588400403, 0.5652644910006857, 0.45678491386102765, 0.41668456316716473]","[1791.8854305522127, 2103.914620804527, 3289.778486430037, 3018.356387670337]",None,"[9.240647661617327, 8.428561809022453, 2.998486563333788, 3.871695893082623]",True,566.7559035000158,569.2714824000141,569.2714824000141,570.5145660999988,None,1,,2.955225266632624,3.989937166625168,None,1,None,1,0,,,,,,,,,,,,qmbami,001,fr,0,0,2022-04-27_15h01.28.884,Cluster,2022.1.1,36.05161293298902,
,,,,3,0,3,0,13,0,13,0,,,time,,,,,,,,,,,,,,,,,,,,,,,,,,,,,,,,,,,,,,,,,,,,,,,,,,,,,,,,,,,,,,,,,,,,,,,,,,,,,,,,,,,,,,,,,,,,,,,,,,,,,,,,,,,,,,,,,,,570.7854523000133,None,2379.3815604850497,1.0,9.337621303575593e-05,1,"[0.45145410400184, 0.45145410400184, 0.45145410400184, 0.45145410400184]","[1340.5363134188456, 181.91311899254583, 397.28335695502585, 2374.304187858863]",None,"[7.0, 4.0, 6.431249782034804, 7.0]",False,571.7844296999974,574.160990000004,574.160990000004,575.397029899992,['space'],1,[0.276336100010667],2.8363721666682977,3.8734386666619685,None,1,None,1,,,,,,,,,,,,,qmbami,001,fr,0,0,2022-04-27_15h01.28.884,Cluster,2022.1.1,36.05161293298902,
,,,,3,0,3,0,14,0,14,0,,,frequency,,,,,,,,,,,,,,,,,,,,,,,,,,,,,,,,,,,,,,,,,,,,,,,,,,,,,,,,,,,,,,,,,,,,,,,,,,,,,,,,,,,,,,,,,,,,,,,,,,,,,,,,,,,,,,,,,,,575.7038592000026,None,574.3491774985172,-4.0,3.7760398549436506e-05,1,"[0.43943328977865076, 0.7554865500158581, 0.7635967666263361, 0.760808425567591]","[361.81730936009427, 406.1261981781175, 455.8612442791081, 511.68694599838716]",Tone,"[6.2570440306439075, 6.431249782034804, 6.5460312043078765, 6.541656715615594]",False,576.742810900003,579.7286347000045,579.7286347000045,580.939715400018,['space'],1,[0.3543612000066787],3.721685966680525,4.735336766694672,None,1,None,1,,,,,,,,,,,,,qmbami,001,fr,0,0,2022-04-27_15h01.28.884,Cluster,2022.1.1,36.05161293298902,
,,,,3,0,3,0,15,0,15,0,,,both,,,,,,,,,,,,,,,,,,,,,,,,,,,,,,,,,,,,,,,,,,,,,,,,,,,,,,,,,,,,,,,,,,,,,,,,,,,,,,,,,,,,,,,,,,,,,,,,,,,,,,,,,,,,,,,,,,,581.5317682000168,None,1319.5079107728945,-5.0,2.9682383261324144e-05,1,"[0.6114364544699735, 0.6114364544699735, 0.6114364544699735, 0.6114364544699735]","[523.6470614103137, 659.7539553864475, 831.2378961427881, 1047.294122820627]",Major_3rd,"[6.456672943607029, 5.521429633254154, 4.0, 4.482667266406526]",False,582.5468113000097,585.4166139000154,585.4166139000154,586.6323063000164,['space'],1,[0.33912610000697896],3.4698717666615266,4.504547266667942,None,1,None,1,,,,,,,,,,,,,qmbami,001,fr,0,0,2022-04-27_15h01.28.884,Cluster,2022.1.1,36.05161293298902,
,,,,3,0,3,0,16,0,16,0,,,none,,,,,,,,,,,,,,,,,,,,,,,,,,,,,,,,,,,,,,,,,,,,,,,,,,,,,,,,,,,,,,,,,,,,,,,,,,,,,,,,,,,,,,,,,,,,,,,,,,,,,,,,,,,,,,,,,,,587.1022055000067,None,,,,,"[0.4291817081975615, 0.6179705403488158, 0.4643281202660814, 0.47958004044277774]","[7473.704736855421, 187.6141980367019, 569.9351817527158, 161.54920383143198]",None,"[-1.069734284184654, 4.215283354364277, 6.263239677530973, 3.7753546007495498]",True,588.1013396999915,590.6262157000019,590.6262157000019,591.8386553000018,None,1,,3.018762666673865,4.052143666660413,None,1,None,1,0,,,,,,,,,,,,qmbami,001,fr,0,0,2022-04-27_15h01.28.884,Cluster,2022.1.1,36.05161293298902,
,,,,3,0,3,0,17,0,17,0,,,time,,,,,,,,,,,,,,,,,,,,,,,,,,,,,,,,,,,,,,,,,,,,,,,,,,,,,,,,,,,,,,,,,,,,,,,,,,,,,,,,,,,,,,,,,,,,,,,,,,,,,,,,,,,,,,,,,,,592.2481369000161,None,1515.7165665103996,-3.0,3.5135546789290564e-05,1,"[0.4477548902896125, 0.4477548902896125, 0.4477548902896125, 0.4477548902896125]","[1388.7169756096375, 781.954559838083, 470.66695938495513, 1812.9110260986104]",None,"[7.634769891063657, 4.555734982903949, 6.5460312043078765, 9.250582882084911]",False,593.1985369000176,595.5741545000055,595.5741545000055,596.7897249000089,['space'],1,[0.5533813000074588],2.794834666652605,3.8098930666456,None,1,None,1,,,,,,,,,,,,,qmbami,001,fr,0,0,2022-04-27_15h01.28.884,Cluster,2022.1.1,36.05161293298902,
,,,,3,0,3,0,18,0,18,0,,,time,,,,,,,,,,,,,,,,,,,,,,,,,,,,,,,,,,,,,,,,,,,,,,,,,,,,,,,,,,,,,,,,,,,,,,,,,,,,,,,,,,,,,,,,,,,,,,,,,,,,,,,,,,,,,,,,,,,597.0610490000108,None,849.6076866357089,-2.0,3.1596801622257764e-05,1,"[0.721311783431636, 0.721311783431636, 0.721311783431636, 0.721311783431636]","[630.1657485370237, 1598.3071187880914, 580.269399973812, 481.5087766907313]",None,"[5.938948445846544, 8.933686697687136, 6.263239677530973, 6.5460312043078765]",False,598.0688789999986,601.2705774999922,601.2705774999922,602.4830421000079,['space'],1,[0.31123870000010356],3.9261498666601256,4.956876566662686,None,1,None,1,,,,,,,,,,,,,qmbami,001,fr,0,0,2022-04-27_15h01.28.884,Cluster,2022.1.1,36.05161293298902,
,,,,3,0,3,0,19,0,19,0,,,time,,,,,,,,,,,,,,,,,,,,,,,,,,,,,,,,,,,,,,,,,,,,,,,,,,,,,,,,,,,,,,,,,,,,,,,,,,,,,,,,,,,,,,,,,,,,,,,,,,,,,,,,,,,,,,,,,,,603.0697424999962,None,8000.0,-6.0,9.098504293049921e-05,1,"[0.718918691721876, 0.718918691721876, 0.718918691721876, 0.718918691721876]","[2513.0177381888684, 3881.690967929256, 143.78257503484664, 1584.3898403443322]",None,"[6.781753329484543, 1.101626449771853, 3.6043672322220215, 8.933686697687136]",False,605.2403434000153,608.4090744999994,608.4090744999994,609.6288717999996,['space'],1,[0.4349293000122998],3.891032333311159,4.925403833301971,None,1,None,1,,,"{'estimation': [[125.0, -7.520734161047116], [133.9716828170366, -7.1753911570713775], [137.47527834591799, -7.0], [143.5872943746293, -6.707236622764235], [153.89305166811442, -6.194014694070384], [157.89372122930575, -6.0], [164.93848884661162, -5.668188488869355], [176.77669529663666, -5.230325863127977], [185.87326790634472, -5.0], [189.46457081379947, -4.910986834447744], [203.0630990890585, -4.769058801841453], [217.6376408240306, -4.806097115423009], [233.25824788420132, -4.998801882817314], [233.32250810241408, -5.0], [249.99999999999923, -5.292476421334459], [267.94336563407256, -5.61196842894703], [287.1745887492579, -5.9111523261195], [294.4981217951676, -6.0], [307.78610333622805, -6.15184649880774], [329.87697769322244, -6.301104893246133], [353.55339059327247, -6.3756243966463275], [378.929141627598, -6.409267288388025], [406.12619817811606, -6.442402526619231], [435.2752816480601, -6.510711611054617], [466.5164957684015, -6.635403726165055], [499.9999999999975, -6.819304901451393], [528.1839257856644, -7.000000000000001], [535.8867312681438, -7.048728517322694], [574.3491774985143, -7.280403954360537], [615.5722066724546, -7.471072839545782], [659.7539553864432, -7.589287276937222], [707.1067811865431, -7.6103477829705515], [757.8582832551941, -7.522499348414829], [812.2523963562301, -7.327583269549066], [870.5505632961181, -7.03304754499732], [876.0989610791479, -7.0], [933.0329915368008, -6.674219164534688], [999.9999999999926, -6.284693956582461], [1048.2354404096277, -6.0], [1071.773462536285, -5.868855701491877], [1148.698354997026, -5.47300103877477], [1231.1444133449063, -5.094671649092919], [1252.6881601580415, -5.0], [1319.5079107728832, -4.737805952998386], [1414.2135623730828, -4.433861489554702], [1515.7165665103846, -4.1739124992712275], [1606.8242650660286, -4.0], [1624.5047927124563, -3.966314177371021], [1741.1011265922318, -3.8439463654159054], [1866.065983073597, -3.8253199039994], [1999.9999999999802, -3.9242464624319506], [2047.4302002735506, -4.0], [2143.546925072562, -4.149663650724983], [2297.396709994046, -4.477910601348327], [2462.2888266898062, -4.897242102284588], [2498.4499395149287, -5.0], [2639.01582154576, -5.387895816584314], [2828.427124746159, -5.889264960420109], [2871.593190606555, -6.0], [3031.4331330207615, -6.390759320948262], [3249.0095854249043, -6.834699088673245], [3344.1590285763255, -7.0], [3482.2022531844596, -7.226656956332203], [3732.1319661471844, -7.521427049526286], [3999.9999999999504, -7.7219347292733564], [4287.093850145118, -7.826464603610823], [4594.793419988081, -7.829840605861881], [4924.577653379601, -7.733661780306859], [5278.031643091506, -7.548421639958317], [5656.854249492303, -7.288680041499276], [6010.973397600377, -7.0], [6062.866266041508, -6.960753044736352], [6498.019170849792, -6.612080576434646], [6964.404506368894, -6.280293201183911], [7417.538028872681, -6.0], [7464.2639322943505, -5.967938424498636], [7999.999999999882, -5.722846915964789]], 'plus_line': [[125.0, -9.334495021096718], [131.6530568511628, -9.0], [133.9716828170366, -8.904081200533655], [143.5872943746293, -8.486920389431784], [153.30401152874285, -8.0], [153.89305166811442, -7.973258374147991], [164.93848884661162, -7.516921954502982], [176.77669529663666, -7.064067729855516], [179.0393932933656, -7.0], [189.46457081379947, -6.763064343074717], [203.0630990890585, -6.636847855843265], [217.6376408240306, -6.683347982946641], [233.25824788420132, -6.869640200907861], [241.13736807874443, -7.0], [249.99999999999937, -7.1664120074373105], [267.94336563407256, -7.474956704470895], [287.1745887492579, -7.717517757847292], [307.78610333622805, -7.88786456254703], [329.87697769322244, -7.995913804035154], [331.2737881025646, -8.0], [353.55339059327247, -8.07786750466203], [378.929141627598, -8.140218572602892], [406.12619817811606, -8.217195035604593], [435.2752816480601, -8.33391080010237], [466.5164957684015, -8.498691880211206], [499.9999999999975, -8.701504674035016], [535.8867312681438, -8.919630520279462], [550.5845221368844, -9.0], [574.3491774985143, -9.148765121305676], [615.5722066724546, -9.320461016387323], [659.7539553864432, -9.406445102624204], [707.1067811865431, -9.413761783361746], [757.8582832551941, -9.351280650828139], [812.2523963562301, -9.214760863902685], [865.8331939407075, -9.0], [870.5505632961181, -8.983828872826741], [933.0329915368008, -8.706646187289856], [999.9999999999914, -8.328778481946546], [1046.8186154097682, -8.0], [1071.773462536285, -7.852097187611426], [1148.698354997026, -7.374972282116424], [1204.7864355190125, -7.0], [1231.1444133449063, -6.856086702557187], [1319.5079107728832, -6.431386757741386], [1414.2135623730828, -6.0311406253374455], [1423.7237865524296, -6.000000000000001], [1515.7165665103864, -5.770284792857139], [1624.5047927124563, -5.606659811370576], [1741.1011265922318, -5.527285714136163], [1866.065983073597, -5.541949575187385], [1999.9999999999802, -5.662505944642856], [2143.5469250725646, -5.895475536356585], [2187.979531625312, -6.0], [2297.396709994046, -6.290071616878085], [2462.2888266898062, -6.746153695143826], [2550.3848467757607, -7.0], [2639.015821545763, -7.282611468527707], [2828.427124746159, -7.800400041429233], [2912.0245029292746, -8.0], [3031.4331330207615, -8.307760962564696], [3249.0095854249043, -8.716253311370703], [3460.37643485461, -9.0], [3482.2022531844555, -9.033438991775618], [3732.1319661471844, -9.31650757371997], [3999.9999999999504, -9.5090112149989], [4287.093850145118, -9.62715484665623], [4594.793419988081, -9.65397904088196], [4924.577653379601, -9.558515539589195], [5278.0316430915, -9.314250113407581], [5558.996083831153, -9.0], [5656.854249492303, -8.912579709506339], [6062.866266041508, -8.504900124350897], [6498.019170849792, -8.077363038746723], [6609.846489491749, -8.0], [6964.404506368902, -7.803403873785045], [7464.2639322943505, -7.704510459292819], [7999.999999999882, -7.736532796422797]], 'minus_line': [[125.0, -5.795751365783783], [133.9716828170366, -5.483381123904158], [143.5872943746293, -5.0253318267189515], [144.04011904250157, -5.0], [153.89305166811442, -4.424167345330308], [162.60195529958588, -4.0], [164.93848884661162, -3.871383825671722], [176.77669529663666, -3.392887994688099], [189.46457081379947, -3.089705648882005], [197.8906381414081, -3.0], [203.0630990890585, -2.9349047808456303], [217.6376408240306, -2.9646637079870013], [220.17429288255585, -3.0], [233.25824788420132, -3.144391134856309], [249.99999999999952, -3.427239842898899], [267.94336563407256, -3.7897447293038375], [277.98191627015854, -4.0], [287.1745887492579, -4.156634857205213], [307.78610333622805, -4.421041857300484], [329.87697769322244, -4.594373147110765], [353.55339059327247, -4.671522461156819], [378.929141627598, -4.680580218183151], [406.12619817811606, -4.674169605259283], [435.2752816480601, -4.702602926853766], [466.5164957684015, -4.7998011088878245], [499.9999999999975, -4.984087518948757], [502.1546451984949, -5.0], [535.8867312681438, -5.196757184399205], [574.3491774985143, -5.434183487981578], [615.5722066724546, -5.668003410447931], [659.7539553864432, -5.846229794761333], [707.1067811865431, -5.896047457749112], [757.8582832551941, -5.77229192397996], [812.2523963562301, -5.505925290409844], [870.5505632961181, -5.155078802287538], [894.3225293711679, -5.0], [933.0329915368008, -4.719474749188181], [999.9999999999926, -4.317292391429712], [1065.2871260007391, -4.0], [1071.773462536285, -3.964805436995267], [1148.698354997026, -3.625917764703024], [1231.1444133449063, -3.3583078406269458], [1319.5079107728848, -3.1156077827131075], [1360.9966115826148, -3.0], [1414.2135623730828, -2.832835840914772], [1515.7165665103846, -2.5570572153464415], [1624.5047927124563, -2.3367640962109784], [1741.1011265922298, -2.189826799565785], [1866.065983073597, -2.1410791393380366], [1999.9999999999777, -2.2067297945978277], [2143.5469250725646, -2.38742488573439], [2297.396709994046, -2.684971861690725], [2418.564680326023, -3.0], [2462.2888266898062, -3.0994171787992437], [2639.01582154576, -3.5265936414462096], [2810.8178663324957, -4.0], [2828.427124746159, -4.0440593825738365], [3031.4331330207615, -4.518810753666011], [3233.9657441402333, -5.0], [3249.0095854249043, -5.0316846388327665], [3482.2022531844555, -5.437371416650455], [3732.1319661471844, -5.776872342169407], [3979.376936557573, -6.0], [3999.999999999946, -6.015469552329833], [4287.093850145124, -6.090941952476282], [4594.793419988081, -6.063175145414553], [4812.030743704281, -6.0], [4924.577653379601, -5.960871253007027], [5278.031643091506, -5.8049293357232585], [5656.854249492303, -5.630628719187662], [6062.866266041508, -5.426730790672261], [6498.019170849792, -5.158798696668745], [6686.995393883454, -5.0], [6964.404506368894, -4.728087087290642], [7464.2639322943505, -4.251102571774215], [7753.048801280293, -4.0], [7999.999999999872, -3.7345993482114777]]}",,,,,,,,,,qmbami,001,fr,0,0,2022-04-27_15h01.28.884,Cluster,2022.1.1,36.05161293298902,
,,,,4,0,4,0,0,0,0,0,,,frequency,,,,,,,,,,,,,,,,,,,,,,,,,,,,,,,,,,,,,,,,,,,,,,,,,,,,,,,,,,,,,,,,,,,,,,,,,,,,,,,,,,,,,,,,,,,,,,,,,,,,,,,,,,,,,,,,,,,618.4940698000137,None,1363.6502025841112,1.0,5.799451124900228e-05,1,"[0.7442613306619636, 0.4349623454431134, 0.5701555426325895, 0.722482694760517]","[270.58247076233334, 405.4156308219818, 607.4371087369993, 910.1273187781565]",Perfect_5th,"[5.5936566629773345, 6.431249782034804, 6.0, 3.8546879595060357]",False,619.4750856000173,622.2559980000078,622.2559980000078,623.4671755000018,['space'],1,[0.2599425000080373],3.5142928666900843,4.539127266674768,None,1,None,1,,,,,,,,,,,,,qmbami,001,fr,0,0,2022-04-27_15h01.28.884,Cluster,2022.1.1,36.05161293298902,
,,,,4,0,4,0,1,0,1,0,,,frequency,,,,,,,,,,,,,,,,,,,,,,,,,,,,,,,,,,,,,,,,,,,,,,,,,,,,,,,,,,,,,,,,,,,,,,,,,,,,,,,,,,,,,,,,,,,,,,,,,,,,,,,,,,,,,,,,,,,624.0645541000122,None,,,,,"[0.5516054961214973, 0.4638313443536407, 0.690757162041701, 0.6227694919653847]","[245.31997699668716, 275.36236387090975, 309.08380297785226, 346.9348385897707]",Tone,"[5.347903196485904, 5.5936566629773345, 6.0, 6.2570440306439075]",True,625.068270000018,627.8073728000163,627.8073728000163,629.0288391000067,None,1,,3.3548042666516267,4.367820766667137,None,1,None,1,0,,,,,,,,,,,,qmbami,001,fr,0,0,2022-04-27_15h01.28.884,Cluster,2022.1.1,36.05161293298902,
,,,,4,0,4,0,2,0,2,0,,,none,,,,,,,,,,,,,,,,,,,,,,,,,,,,,,,,,,,,,,,,,,,,,,,,,,,,,,,,,,,,,,,,,,,,,,,,,,,,,,,,,,,,,,,,,,,,,,,,,,,,,,,,,,,,,,,,,,,629.4759256000107,None,1624.5047927124701,-6.0,2.8997193917412574e-05,0,"[0.7755741701294384, 0.7882016674733442, 0.5243386614321099, 0.7514298586808958]","[1444.6429687587308, 3412.2662694609676, 540.5379537347816, 1096.1174868373512]",None,"[8.0, 2.2340571828013855, 6.456672943607029, 4.482667266406526]",False,630.5005070999905,633.6198226000124,633.6198226000124,634.8590277000039,None,0,,3.846212166652549,4.887889666657429,None,1,None,1,,,,,,,,,,,,,qmbami,001,fr,0,0,2022-04-27_15h01.28.884,Cluster,2022.1.1,36.05161293298902,
,,,,4,0,4,0,3,0,3,0,,,frequency,,,,,,,,,,,,,,,,,,,,,,,,,,,,,,,,,,,,,,,,,,,,,,,,,,,,,,,,,,,,,,,,,,,,,,,,,,,,,,,,,,,,,,,,,,,,,,,,,,,,,,,,,,,,,,,,,,,635.4432831000013,None,353.5533905932738,-7.0,3.9581673965746926e-05,1,"[0.4558478038821665, 0.45129712236988184, 0.42533306505921126, 0.7253946444802779]","[222.72467953508485, 250.00000000000003, 280.6155120773433, 314.9802624737183]",Tone,"[4.771495999328634, 5.347903196485904, 5.809202697236832, 6.0]",False,636.4463838000083,638.8043108000129,638.8043108000129,640.0304268000182,['space'],1,[0.10080470002139919],3.0720246666751336,4.114947866677539,None,1,None,1,,,,,,,,,,,,,qmbami,001,fr,0,0,2022-04-27_15h01.28.884,Cluster,2022.1.1,36.05161293298902,
,,,,4,0,4,0,4,0,4,0,,,frequency,,,,,,,,,,,,,,,,,,,,,,,,,,,,,,,,,,,,,,,,,,,,,,,,,,,,,,,,,,,,,,,,,,,,,,,,,,,,,,,,,,,,,,,,,,,,,,,,,,,,,,,,,,,,,,,,,,,640.6138672000088,None,6723.381977667304,-6.575082696514484,6.700401978941059e-05,1,"[0.7533679811421821, 0.5636139806620727, 0.7935537075597461, 0.532714428922231]","[2668.1759060332793, 3361.690988833653, 4235.46524007343, 5336.351812066557]",Major_3rd,"[5.811982983314229, 2.998486563333788, 0.7306426957260639, 0.12414104234400192]",False,641.631756000017,644.7700375000131,644.7700375000131,646.004872599995,['space'],1,[0.37823559998651035],3.671068566647591,4.69318296664278,None,1,None,1,,,,,,,,,,,,,qmbami,001,fr,0,0,2022-04-27_15h01.28.884,Cluster,2022.1.1,36.05161293298902,
,,,,4,0,4,0,5,0,5,0,,,none,,,,,,,,,,,,,,,,,,,,,,,,,,,,,,,,,,,,,,,,,,,,,,,,,,,,,,,,,,,,,,,,,,,,,,,,,,,,,,,,,,,,,,,,,,,,,,,,,,,,,,,,,,,,,,,,,,,646.3701086000074,None,,,,,"[0.7907116134053594, 0.41538355287266393, 0.4856354689201393, 0.5176170248171609]","[789.3581157941367, 5014.942052913951, 538.2649640722844, 1238.1522171570098]",None,"[4.159855742261785, 0.29520897195786056, 6.456672943607029, 6.0]",True,647.3794542000105,650.1093584000191,650.1093584000191,651.3196939000045,None,1,,3.2332846666977275,4.259725566691486,None,1,None,1,0,,,,,,,,,,,,qmbami,001,fr,0,0,2022-04-27_15h01.28.884,Cluster,2022.1.1,36.05161293298902,
,,,,4,0,4,0,6,0,6,0,,,both,,,,,,,,,,,,,,,,,,,,,,,,,,,,,,,,,,,,,,,,,,,,,,,,,,,,,,,,,,,,,,,,,,,,,,,,,,,,,,,,,,,,,,,,,,,,,,,,,,,,,,,,,,,,,,,,,,,651.6847651000135,None,4980.802109319385,-5.7047910280421394,7.851604208714481e-05,1,"[0.47512114599273203, 0.47512114599273203, 0.47512114599273203, 0.47512114599273203]","[3137.7087114461383, 3521.958947247996, 3953.265253989509, 4437.390214503338]",Tone,"[3.871695893082623, 2.2340571828013855, 1.101626449771853, 0.7306426957260639]",False,652.6947072000185,655.1549434000044,655.1549434000044,656.3858053000004,['space'],1,[0.48176380002405494],2.935356366651831,3.9534778666566126,None,1,None,1,,,,,,,,,,,,,qmbami,001,fr,0,0,2022-04-27_15h01.28.884,Cluster,2022.1.1,36.05161293298902,
,,,,4,0,4,0,7,0,7,0,,,frequency,,,,,,,,,,,,,,,,,,,,,,,,,,,,,,,,,,,,,,,,,,,,,,,,,,,,,,,,,,,,,,,,,,,,,,,,,,,,,,,,,,,,,,,,,,,,,,,,,,,,,,,,,,,,,,,,,,,656.6980666000163,None,3031.4331330207992,-5.0,3.250253881325064e-05,1,"[0.42823491295824956, 0.65300031470029, 0.6578777740286035, 0.6054971072360907]","[1203.0250360821183, 1515.7165665104, 1909.6832078208354, 2406.050072164236]",Major_3rd,"[5.913495259209107, 8.38635033036424, 9.250582882084911, 7.0]",False,657.7204254000098,660.4698542999977,660.4698542999977,661.692827699997,['space'],1,[0.40454300001147203],3.3594412333332,4.396168733335799,None,1,None,1,,,,,,,,,,,,,qmbami,001,fr,0,0,2022-04-27_15h01.28.884,Cluster,2022.1.1,36.05161293298902,
,,,,4,0,4,0,8,0,8,0,,,both,,,,,,,,,,,,,,,,,,,,,,,,,,,,,,,,,,,,,,,,,,,,,,,,,,,,,,,,,,,,,,,,,,,,,,,,,,,,,,,,,,,,,,,,,,,,,,,,,,,,,,,,,,,,,,,,,,,662.1678105000174,None,329.87697769322364,-6.0,4.749197086349176e-05,1,"[0.6960512245296169, 0.6960512245296169, 0.6960512245296169, 0.6960512245296169]","[831.2378961427881, 659.7539553864474, 523.6470614103135, 415.618948071394]",Major_3rd,"[4.0, 5.521429633254154, 6.456672943607029, 6.431249782034804]",False,663.1899519000144,666.2942607000005,666.2942607000005,667.5302238000149,['space'],1,[0.44002340000588447],3.7980763666855637,4.820408366678748,None,1,None,1,,,,,,,,,,,,,qmbami,001,fr,0,0,2022-04-27_15h01.28.884,Cluster,2022.1.1,36.05161293298902,
,,,,4,0,4,0,9,0,9,0,,,both,,,,,,,,,,,,,,,,,,,,,,,,,,,,,,,,,,,,,,,,,,,,,,,,,,,,,,,,,,,,,,,,,,,,,,,,,,,,,,,,,,,,,,,,,,,,,,,,,,,,,,,,,,,,,,,,,,,668.0631280000089,None,1828.2508048770112,3.2505828820849114,9.74926322492646e-05,1,"[0.4111083609815194, 0.4111083609815194, 0.4111083609815194, 0.4111083609815194]","[2902.1672509234754, 2585.5370836765965, 2303.451673551791, 2052.1421432655097]",Tone,"[4.824661604593502, 6.0, 7.674840210994211, 8.963804799751824]",False,669.0818695999915,671.347413600015,671.347413600015,672.5696768999915,['space'],1,[0.5425045000156388],2.6803785666415934,3.6951767666323576,None,1,None,1,,,,,,,,,,,,,qmbami,001,fr,0,0,2022-04-27_15h01.28.884,Cluster,2022.1.1,36.05161293298902,
,,,,4,0,4,0,10,0,10,0,,,both,,,,,,,,,,,,,,,,,,,,,,,,,,,,,,,,,,,,,,,,,,,,,,,,,,,,,,,,,,,,,,,,,,,,,,,,,,,,,,,,,,,,,,,,,,,,,,,,,,,,,,,,,,,,,,,,,,,672.8232387000171,None,,,,,"[0.48583682906503683, 0.48583682906503683, 0.48583682906503683, 0.48583682906503683]","[2083.9865864153544, 2339.195852437037, 2625.6585679232667, 2947.202094312205]",Tone,"[8.428561809022453, 7.674840210994211, 5.811982983314229, 4.0]",True,673.8347686000052,676.3094638000184,676.3094638000184,677.5348157999979,None,1,,2.977584966691211,3.989460366690764,None,1,None,1,0,,,,,,,,,,,,qmbami,001,fr,0,0,2022-04-27_15h01.28.884,Cluster,2022.1.1,36.05161293298902,
,,,,4,0,4,0,11,0,11,0,,,both,,,,,,,,,,,,,,,,,,,,,,,,,,,,,,,,,,,,,,,,,,,,,,,,,,,,,,,,,,,,,,,,,,,,,,,,,,,,,,,,,,,,,,,,,,,,,,,,,,,,,,,,,,,,,,,,,,,677.8619553000026,None,1000.0,-8.0,1.7537593697628398e-05,1,"[0.7347490671622695, 0.7347490671622695, 0.7347490671622695, 0.7347490671622695]","[2519.8420997897465, 2000.0000000000002, 1587.4010519681997, 1259.9210498948732]",Major_3rd,"[6.781753329484543, 8.963804799751824, 8.933686697687136, 6.0]",False,678.8850318000186,682.1067706000176,682.1067706000176,683.3448255000112,['space'],1,[0.3907362000027206],3.944184366671834,4.970804766664514,None,1,None,1,,,,,,,,,,,,,qmbami,001,fr,0,0,2022-04-27_15h01.28.884,Cluster,2022.1.1,36.05161293298902,
,,,,4,0,4,0,12,0,12,0,,,both,,,,,,,,,,,,,,,,,,,,,,,,,,,,,,,,,,,,,,,,,,,,,,,,,,,,,,,,,,,,,,,,,,,,,,,,,,,,,,,,,,,,,,,,,,,,,,,,,,,,,,,,,,,,,,,,,,,683.9071921000141,None,344.69915360961846,0.25704403064390713,9.364152798506738e-05,1,"[0.5174194941954688, 0.5174194941954688, 0.5174194941954688, 0.5174194941954688]","[1737.1748780548187, 1159.4251304452707, 773.8234360223191, 516.4651812466936]",Perfect_5th,"[9.240647661617327, 5.127535793346383, 4.555734982903949, 6.541656715615594]",False,684.9172247000097,687.507838199992,687.507838199992,688.7423254000023,['space'],1,[0.3739886000112165],3.093138766649645,4.11821786663495,None,1,None,1,,,,,,,,,,,,,qmbami,001,fr,0,0,2022-04-27_15h01.28.884,Cluster,2022.1.1,36.05161293298902,
,,,,4,0,4,0,13,0,13,0,,,both,,,,,,,,,,,,,,,,,,,,,,,,,,,,,,,,,,,,,,,,,,,,,,,,,,,,,,,,,,,,,,,,,,,,,,,,,,,,,,,,,,,,,,,,,,,,,,,,,,,,,,,,,,,,,,,,,,,689.0798120000109,None,8000.0,-5.0,0.00010208689723347648,1,"[0.7111631062528213, 0.7111631062528213, 0.7111631062528213, 0.7111631062528213]","[3174.8021039364003, 4000.0000000000014, 5039.684199579494, 6349.604207872799]",Major_3rd,"[3.0000000000000004, 1.101626449771853, 0.29520897195786056, -0.5750826965144844]",False,691.0986540000013,694.2710213999962,694.2710213999962,695.4956069000182,['space'],1,[0.2772312000161037],3.865705366653856,4.882037266652333,None,1,None,1,,,,,,,,,,,,,qmbami,001,fr,0,0,2022-04-27_15h01.28.884,Cluster,2022.1.1,36.05161293298902,
,,,,4,0,4,0,14,0,14,0,,,none,,,,,,,,,,,,,,,,,,,,,,,,,,,,,,,,,,,,,,,,,,,,,,,,,,,,,,,,,,,,,,,,,,,,,,,,,,,,,,,,,,,,,,,,,,,,,,,,,,,,,,,,,,,,,,,,,,,696.0352245999966,None,1995.434738115452,2.963804799751823,0.00010494504578346951,1,"[0.4755403708471021, 0.7977741418513906, 0.7028172336933729, 0.4028422466276329]","[716.1009543118431, 335.1285643333099, 3239.5944351119756, 6807.759536733118]",None,"[5.0, 6.142930026355189, 3.0000000000000004, -0.8426983390972307]",False,697.0446438000072,700.0488423999923,700.0488423999923,701.2683449000178,['space'],1,[0.29432509999605827],3.41338036666275,4.4305650666647125,None,1,None,1,,,,,,,,,,,,,qmbami,001,fr,0,0,2022-04-27_15h01.28.884,Cluster,2022.1.1,36.05161293298902,
,,,,4,0,4,0,15,0,15,0,,,frequency,,,,,,,,,,,,,,,,,,,,,,,,,,,,,,,,,,,,,,,,,,,,,,,,,,,,,,,,,,,,,,,,,,,,,,,,,,,,,,,,,,,,,,,,,,,,,,,,,,,,,,,,,,,,,,,,,,,701.5277860999922,None,,,,,"[0.6083486057981131, 0.7277974993552986, 0.6812360318272661, 0.56322586326142]","[3137.4294316130386, 2795.1318588798295, 2490.1793901092637, 2218.497626587835]",Tone,"[3.871695893082623, 5.0, 6.781753329484543, 8.0]",True,702.5479585000139,705.5893252000096,705.5893252000096,706.8125192000007,None,1,,3.6179963666654658,4.644641266670078,None,1,None,1,0,,,,,,,,,,,,qmbami,001,fr,0,0,2022-04-27_15h01.28.884,Cluster,2022.1.1,36.05161293298902,
,,,,4,0,4,0,16,0,16,0,,,none,,,,,,,,,,,,,,,,,,,,,,,,,,,,,,,,,,,,,,,,,,,,,,,,,,,,,,,,,,,,,,,,,,,,,,,,,,,,,,,,,,,,,,,,,,,,,,,,,,,,,,,,,,,,,,,,,,,707.2314198999957,None,435.2752816480623,-8.0,2.975927567541308e-05,1,"[0.5577649650788077, 0.7890038617335471, 0.7805451937290202, 0.6057358976454106]","[484.5434089057461, 4983.510945307324, 220.57058968924372, 137.543988399369]",None,"[6.541656715615594, 0.29520897195786056, 4.771495999328634, 3.625080899236946]",False,708.312705999997,711.4638705000107,711.4638705000107,712.7053071999981,['space'],1,[0.47748470000806265],3.765450933336979,4.787321833340684,None,1,None,1,,,,,,,,,,,,,qmbami,001,fr,0,0,2022-04-27_15h01.28.884,Cluster,2022.1.1,36.05161293298902,
,,,,4,0,4,0,17,0,17,0,,,both,,,,,,,,,,,,,,,,,,,,,,,,,,,,,,,,,,,,,,,,,,,,,,,,,,,,,,,,,,,,,,,,,,,,,,,,,,,,,,,,,,,,,,,,,,,,,,,,,,,,,,,,,,,,,,,,,,,713.1572872000106,None,830.3091832532405,-2.0,3.1161113308779116e-05,1,"[0.703584070710394, 0.703584070710394, 0.703584070710394, 0.703584070710394]","[523.0620089508886, 587.1172539598301, 659.0168354775252, 739.721387020464]",Tone,"[6.456672943607029, 6.263239677530973, 5.521429633254154, 4.555734982903949]",False,714.152067499992,717.3099808999978,717.3099808999978,718.5525639000116,['space'],1,[0.2970971000031568],3.854633766633924,4.87363976665074,None,1,None,1,,,,,,,,,,,,,qmbami,001,fr,0,0,2022-04-27_15h01.28.884,Cluster,2022.1.1,36.05161293298902,
,,,,4,0,4,0,18,0,18,0,,,frequency,,,,,,,,,,,,,,,,,,,,,,,,,,,,,,,,,,,,,,,,,,,,,,,,,,,,,,,,,,,,,,,,,,,,,,,,,,,,,,,,,,,,,,,,,,,,,,,,,,,,,,,,,,,,,,,,,,,719.0787016999966,None,,,,,"[0.4952402151614007, 0.6929872317643602, 0.5783170730654991, 0.6958168453710536]","[219.0630102462569, 328.2236585338757, 491.7798303796614, 736.8372001230607]",Perfect_5th,"[4.771495999328634, 6.142930026355189, 6.541656715615594, 4.555734982903949]",True,720.1016604000179,722.8848514000128,722.8848514000128,724.0972726000182,None,1,,3.493021766684251,4.51701736668474,None,1,None,1,0,,,,,,,,,,,,qmbami,001,fr,0,0,2022-04-27_15h01.28.884,Cluster,2022.1.1,36.05161293298902,
,,,,4,0,4,0,19,0,19,0,,,none,,,,,,,,,,,,,,,,,,,,,,,,,,,,,,,,,,,,,,,,,,,,,,,,,,,,,,,,,,,,,,,,,,,,,,,,,,,,,,,,,,,,,,,,,,,,,,,,,,,,,,,,,,,,,,,,,,,724.6625544000126,None,2859.807585243067,-1.175338395406498,5.5494787930473886e-05,1,"[0.6692973888470704, 0.5281350948670465, 0.5986072212636508, 0.5881610011324423]","[132.70452037073622, 131.31984585314174, 133.31745975765753, 226.78523904994753]",None,"[3.625080899236946, 3.625080899236946, 3.625080899236946, 5.0]",False,725.6748341000057,728.4906116999919,728.4906116999919,729.7202905000013,['space'],1,[0.3406308999983594],3.409384066675557,4.420748266653391,None,1,None,1,,,,,,,,,,,,,qmbami,001,fr,0,0,2022-04-27_15h01.28.884,Cluster,2022.1.1,36.05161293298902,
,,,,5,0,5,0,0,0,0,0,,,both,,,,,,,,,,,,,,,,,,,,,,,,,,,,,,,,,,,,,,,,,,,,,,,,,,,,,,,,,,,,,,,,,,,,,,,,,,,,,,,,,,,,,,,,,,,,,,,,,,,,,,,,,,,,,,,,,,,733.7103406999959,None,176.7766952966369,-8.0,0.00013934586077992474,1,"[0.7904148932717124, 0.7904148932717124, 0.7904148932717124, 0.7904148932717124]","[280.61551207734334, 250.00000000000006, 222.72467953508487, 198.42513149602496]",Tone,"[5.809202697236832, 5.347903196485904, 4.771495999328634, 4.485511131365423]",False,734.7083244000096,738.1095484000107,738.1095484000107,739.3334073000005,['space'],1,[0.5447295999911148],4.190009166661184,5.227383566641947,None,1,None,1,,,,,,,,,,,,,qmbami,001,fr,0,0,2022-04-27_15h01.28.884,Cluster,2022.1.1,36.05161293298902,
,,,,5,0,5,0,1,0,1,0,,,none,,,,,,,,,,,,,,,,,,,,,,,,,,,,,,,,,,,,,,,,,,,,,,,,,,,,,,,,,,,,,,,,,,,,,,,,,,,,,,,,,,,,,,,,,,,,,,,,,,,,,,,,,,,,,,,,,,,739.9882616999967,None,176.7766952966369,-6.0,0.0001754260451641794,0,"[0.5716339150949024, 0.43056116189843907, 0.606308147645961, 0.43785558959709925]","[153.44425877988903, 573.5112573298661, 3113.7029766665587, 1528.289558467041]",None,"[3.653092974283964, 6.263239677530973, 3.871695893082623, 8.38635033036424]",False,741.0076317999919,743.6536758000148,743.6536758000148,744.8752082000137,None,0,,3.0674804666778073,4.086674766673241,None,1,None,1,,,,,,,,,,,,,qmbami,001,fr,0,0,2022-04-27_15h01.28.884,Cluster,2022.1.1,36.05161293298902,
,,,,5,0,5,0,2,0,2,0,,,both,,,,,,,,,,,,,,,,,,,,,,,,,,,,,,,,,,,,,,,,,,,,,,,,,,,,,,,,,,,,,,,,,,,,,,,,,,,,,,,,,,,,,,,,,,,,,,,,,,,,,,,,,,,,,,,,,,,745.1545218999963,None,,,,,"[0.4393885441650942, 0.4393885441650942, 0.4393885441650942, 0.4393885441650942]","[2317.9826491446747, 2920.475132948458, 3679.56809569629, 4635.9652982893485]",Major_3rd,"[7.674840210994211, 4.0, 1.5900489658360026, 0.48058042627284525]",True,746.1631993000046,748.5035934000043,748.5035934000043,749.7312485000002,['space'],0,[0.44482289999723434],2.7859927666722797,3.801399266667431,None,1,None,1,0,,,,,,,,,,,,qmbami,001,fr,0,0,2022-04-27_15h01.28.884,Cluster,2022.1.1,36.05161293298902,
,,,,5,0,5,0,3,0,3,0,,,frequency,,,,,,,,,,,,,,,,,,,,,,,,,,,,,,,,,,,,,,,,,,,,,,,,,,,,,,,,,,,,,,,,,,,,,,,,,,,,,,,,,,,,,,,,,,,,,,,,,,,,,,,,,,,,,,,,,,,750.0049581000058,None,621.4085758596864,-0.06105155415345653,5.2137161331328185e-05,1,"[0.7393073491631712, 0.7019066031647485, 0.7391929193452809, 0.7879201720311796]","[1565.851490621628, 1242.8171517193728, 986.4246270217269, 782.925745310814]",Major_3rd,"[8.38635033036424, 6.0, 4.0, 4.555734982903949]",False,751.0142550000164,754.2237446999934,754.2237446999934,755.4466536999971,['space'],1,[0.316924700018717],3.997605466633104,5.010720066638896,None,1,None,1,,,,,,,,,,,,,qmbami,001,fr,0,0,2022-04-27_15h01.28.884,Cluster,2022.1.1,36.05161293298902,
,,,,5,0,5,0,4,0,4,0,,,both,,,,,,,,,,,,,,,,,,,,,,,,,,,,,,,,,,,,,,,,,,,,,,,,,,,,,,,,,,,,,,,,,,,,,,,,,,,,,,,,,,,,,,,,,,,,,,,,,,,,,,,,,,,,,,,,,,,756.0783859000076,None,,,,,"[0.5533202106521521, 0.5533202106521521, 0.5533202106521521, 0.5533202106521521]","[305.5200706441489, 272.18743930301815, 242.49144076896027, 216.03531374107072]",Tone,"[5.994234888331151, 5.5936566629773345, 5.347903196485904, 4.771495999328634]",True,757.0880277999968,759.7723431999912,759.7723431999912,761.0093342000037,None,1,,3.245040866662748,4.2630942666728515,None,1,None,1,0,,,,,,,,,,,,qmbami,001,fr,0,0,2022-04-27_15h01.28.884,Cluster,2022.1.1,36.05161293298902,
,,,,5,0,5,0,5,0,5,0,,,none,,,,,,,,,,,,,,,,,,,,,,,,,,,,,,,,,,,,,,,,,,,,,,,,,,,,,,,,,,,,,,,,,,,,,,,,,,,,,,,,,,,,,,,,,,,,,,,,,,,,,,,,,,,,,,,,,,,761.3888727000158,None,4844.491682945094,-5.7047910280421394,7.365292283687405e-05,1,"[0.7962961712554345, 0.7410293336776917, 0.7479932424416631, 0.6709574065415649]","[316.9308984764785, 458.32592950767594, 7370.380967105485, 3276.1567618639074]",None,"[6.0, 6.5460312043078765, -1.0, 2.998486563333788]",False,762.4082319000154,765.7450632000109,765.7450632000109,766.9725126000121,['space'],1,[0.327207400026964],3.9857373666600324,4.997250066662673,None,1,None,1,,,,,,,,,,,,,qmbami,001,fr,0,0,2022-04-27_15h01.28.884,Cluster,2022.1.1,36.05161293298902,
,,,,5,0,5,0,6,0,6,0,,,both,,,,,,,,,,,,,,,,,,,,,,,,,,,,,,,,,,,,,,,,,,,,,,,,,,,,,,,,,,,,,,,,,,,,,,,,,,,,,,,,,,,,,,,,,,,,,,,,,,,,,,,,,,,,,,,,,,,767.459921600006,None,853.7181670009086,-2.0,3.168960095609253e-05,1,"[0.6333717630342172, 0.6333717630342172, 0.6333717630342172, 0.6333717630342172]","[2151.2349785642227, 1707.4363340018172, 1355.1931163816053, 1075.6174892821114]",Major_3rd,"[8.428561809022453, 9.240647661617327, 7.0, 4.482667266406526]",False,768.4646558999957,771.4030665000028,771.4030665000028,772.6249076999957,['space'],1,[0.3999302000156604],3.5528475666651502,4.56968236665125,None,1,None,1,,,,,,,,,,,,,qmbami,001,fr,0,0,2022-04-27_15h01.28.884,Cluster,2022.1.1,36.05161293298902,
,,,,5,0,5,0,7,0,7,0,,,none,,,,,,,,,,,,,,,,,,,,,,,,,,,,,,,,,,,,,,,,,,,,,,,,,,,,,,,,,,,,,,,,,,,,,,,,,,,,,,,,,,,,,,,,,,,,,,,,,,,,,,,,,,,,,,,,,,,773.0873468999926,None,,,,,"[0.7120964352114304, 0.5406165235953948, 0.7444349565462207, 0.5663583659631881]","[408.7273490094808, 1446.8980038762438, 285.0806458498969, 183.0724224996684]",None,"[6.431249782034804, 8.0, 5.809202697236832, 4.0]",True,774.0942471000017,777.1159377000004,777.1159377000004,778.3329389000137,None,1,,3.6073817666620016,4.643377166648861,None,1,['space'],0,0,[-2.3946737999795005],,,,,,,,,,,qmbami,001,fr,0,0,2022-04-27_15h01.28.884,Cluster,2022.1.1,36.05161293298902,
,,,,5,0,5,0,8,0,8,0,,,none,,,,,,,,,,,,,,,,,,,,,,,,,,,,,,,,,,,,,,,,,,,,,,,,,,,,,,,,,,,,,,,,,,,,,,,,,,,,,,,,,,,,,,,,,,,,,,,,,,,,,,,,,,,,,,,,,,,778.781000100018,None,307.7861033362292,-9.0,3.7703749348778715e-05,0,"[0.4250745242977888, 0.7482467417571845, 0.5822705243751644, 0.7138999541563743]","[1130.228370982684, 1729.1974606733988, 159.03486699978362, 3213.3915738970977]",None,"[5.0, 9.240647661617327, 3.653092974283964, 3.0000000000000004]",False,779.8019030000141,782.5985210000072,782.5985210000072,783.8144567999989,None,0,,3.513450766680762,4.53970986668719,None,1,None,1,,,,,,,,,,,,,qmbami,001,fr,0,0,2022-04-27_15h01.28.884,Cluster,2022.1.1,36.05161293298902,
,,,,5,0,5,0,9,0,9,0,,,frequency,,,,,,,,,,,,,,,,,,,,,,,,,,,,,,,,,,,,,,,,,,,,,,,,,,,,,,,,,,,,,,,,,,,,,,,,,,,,,,,,,,,,,,,,,,,,,,,,,,,,,,,,,,,,,,,,,,,784.3971883000049,None,125.0,-6.0,0.00036221798003749513,0,"[0.5566625291274165, 0.7158780839677422, 0.6775446230947315, 0.6086867985374574]","[629.9605249474366, 420.4482076268573, 280.6155120773433, 187.2883846095852]",Perfect_5th,"[5.938948445846544, 6.431249782034804, 5.809202697236832, 4.215283354364277]",False,785.4202367000107,788.3857275000191,788.3857275000191,789.5935503999935,None,0,,3.562523066648282,4.591323266649852,None,1,None,1,,,,,,,,,,,,,qmbami,001,fr,0,0,2022-04-27_15h01.28.884,Cluster,2022.1.1,36.05161293298902,
,,,,5,0,5,0,10,0,10,0,,,frequency,,,,,,,,,,,,,,,,,,,,,,,,,,,,,,,,,,,,,,,,,,,,,,,,,,,,,,,,,,,,,,,,,,,,,,,,,,,,,,,,,,,,,,,,,,,,,,,,,,,,,,,,,,,,,,,,,,,790.0767320000159,None,7118.085644372777,-6.842698339097231,7.041305057839879e-05,1,"[0.644058202089862, 0.494749853437476, 0.7273698984895469, 0.5778775925417198]","[2824.814159969272, 3559.0428221863895, 4484.112969149888, 5649.628319938543]",Major_3rd,"[4.824661604593502, 2.0, 0.48058042627284525, -0.07547171544746334]",False,791.0902211999928,794.0020074000058,794.0020074000058,795.2146694000112,['space'],1,[0.31928500000503846],3.4884809666255023,4.5008519666444045,None,1,None,1,,,,,,,,,,,,,qmbami,001,fr,0,0,2022-04-27_15h01.28.884,Cluster,2022.1.1,36.05161293298902,
,,,,5,0,5,0,11,0,11,0,,,frequency,,,,,,,,,,,,,,,,,,,,,,,,,,,,,,,,,,,,,,,,,,,,,,,,,,,,,,,,,,,,,,,,,,,,,,,,,,,,,,,,,,,,,,,,,,,,,,,,,,,,,,,,,,,,,,,,,,,795.6359565000166,None,812.2523963562351,-7.0,1.7293940510221002e-05,1,"[0.4703959751754646, 0.6779655109906795, 0.7246023438426624, 0.5929324957007753]","[2046.7477839935486, 1624.5047927124701, 1289.3703084395784, 1023.3738919967743]",Major_3rd,"[8.963804799751824, 8.933686697687136, 6.779769909718749, 4.054859515048216]",False,797.6182303999958,800.5094088999904,800.5094088999904,801.7419616999978,['space'],1,[0.18466349999653175],3.483858333347598,4.519501533330185,None,1,None,1,,,,,,,,,,,,,qmbami,001,fr,0,0,2022-04-27_15h01.28.884,Cluster,2022.1.1,36.05161293298902,
,,,,5,0,5,0,12,0,12,0,,,frequency,,,,,,,,,,,,,,,,,,,,,,,,,,,,,,,,,,,,,,,,,,,,,,,,,,,,,,,,,,,,,,,,,,,,,,,,,,,,,,,,,,,,,,,,,,,,,,,,,,,,,,,,,,,,,,,,,,,802.1845294999948,None,4201.911942053832,-5.269357304273936,5.3335598336385595e-05,1,"[0.7585456599880598, 0.7243855289024737, 0.4495300801444635, 0.7957347449189875]","[6670.119437093992, 5942.400856349999, 5294.077305598269, 4716.486685293359]",Tone,"[-0.5750826965144844, -0.3114093269817442, 0.12414104234400192, 0.48058042627284525]",False,803.1850879999984,806.1403344999999,806.1403344999999,807.373697300005,['space'],1,[0.41164440001011826],3.7639973666809965,4.780207766685635,None,1,None,1,,,,,,,,,,,,,qmbami,001,fr,0,0,2022-04-27_15h01.28.884,Cluster,2022.1.1,36.05161293298902,
,,,,5,0,5,0,13,0,13,0,,,both,,,,,,,,,,,,,,,,,,,,,,,,,,,,,,,,,,,,,,,,,,,,,,,,,,,,,,,,,,,,,,,,,,,,,,,,,,,,,,,,,,,,,,,,,,,,,,,,,,,,,,,,,,,,,,,,,,,808.0194922999945,None,406.12619817811805,-8.0,3.0352225841600565e-05,1,"[0.63179011376715, 0.63179011376715, 0.63179011376715, 0.63179011376715]","[255.84347299919392, 287.174588749259, 322.34257710989505, 361.8173093600948]",Tone,"[5.347903196485904, 5.809202697236832, 6.142930026355189, 6.2570440306439075]",False,809.0251997000014,811.9459685000184,811.9459685000184,813.1777987999958,['space'],1,[0.4000864999834448],3.5389282666437794,4.570623266656185,None,1,None,1,,,,,,,,,,,,,qmbami,001,fr,0,0,2022-04-27_15h01.28.884,Cluster,2022.1.1,36.05161293298902,
,,,,5,0,5,0,14,0,14,0,,,frequency,,,,,,,,,,,,,,,,,,,,,,,,,,,,,,,,,,,,,,,,,,,,,,,,,,,,,,,,,,,,,,,,,,,,,,,,,,,,,,,,,,,,,,,,,,,,,,,,,,,,,,,,,,,,,,,,,,,813.6528606000065,None,176.7766952966369,-7.0,0.00015634862732566779,1,"[0.4732744784598206, 0.4114965718391781, 0.40360317502179327, 0.5193338322220818]","[280.61551207734334, 250.00000000000006, 222.72467953508487, 198.42513149602496]",Tone,"[5.809202697236832, 5.347903196485904, 4.771495999328634, 4.485511131365423]",False,814.6737656999903,817.0049524999922,817.0049524999922,818.2224722999963,['space'],1,[0.3575133999984246],2.845372466632398,3.871070166642312,None,1,None,1,,,,,,,,,,,,,qmbami,001,fr,0,0,2022-04-27_15h01.28.884,Cluster,2022.1.1,36.05161293298902,
,,,,5,0,5,0,15,0,15,0,,,none,,,,,,,,,,,,,,,,,,,,,,,,,,,,,,,,,,,,,,,,,,,,,,,,,,,,,,,,,,,,,,,,,,,,,,,,,,,,,,,,,,,,,,,,,,,,,,,,,,,,,,,,,,,,,,,,,,,818.6097956000012,None,,,,,"[0.5534936580847394, 0.7057177000522686, 0.47112225067451574, 0.5067900775688071]","[302.8121243007717, 4413.308640824765, 250.93855076624519, 3870.9247507133573]",None,"[5.994234888331151, 0.7306426957260639, 5.347903196485904, 1.101626449771853]",True,819.610242099996,822.3630689000129,822.3630689000129,823.591522200004,None,1,,3.267967766674701,4.286732466658577,None,1,['space'],0,0,[-0.16955279998364858],,,,,,,,,,,qmbami,001,fr,0,0,2022-04-27_15h01.28.884,Cluster,2022.1.1,36.05161293298902,
,,,,5,0,5,0,16,0,16,0,,,frequency,,,,,,,,,,,,,,,,,,,,,,,,,,,,,,,,,,,,,,,,,,,,,,,,,,,,,,,,,,,,,,,,,,,,,,,,,,,,,,,,,,,,,,,,,,,,,,,,,,,,,,,,,,,,,,,,,,,823.950563099992,None,559.1159504079791,0.2632396775309729,6.413720827834336e-05,1,"[0.7947501970521968, 0.47651173984303324, 0.44573452060993374, 0.6325142459806588]","[1408.8839105019817, 1118.2319008159582, 887.5412478498257, 704.4419552509909]",Major_3rd,"[7.634769891063657, 5.0, 3.9001281672132606, 5.039200845240891]",False,824.9500339000078,827.7004451999965,827.7004451999965,828.9282902000123,['space'],1,[0.5517529000062495],3.380925566656515,4.4110180666611996,None,1,None,1,,,,,,,,,,,,,qmbami,001,fr,0,0,2022-04-27_15h01.28.884,Cluster,2022.1.1,36.05161293298902,
,,,,5,0,5,0,17,0,17,0,,,frequency,,,,,,,,,,,,,,,,,,,,,,,,,,,,,,,,,,,,,,,,,,,,,,,,,,,,,,,,,,,,,,,,,,,,,,,,,,,,,,,,,,,,,,,,,,,,,,,,,,,,,,,,,,,,,,,,,,,829.4056557000149,None,2297.3967099940687,-2.0,6.466169967930508e-05,1,"[0.6841766175307581, 0.4892609554174502, 0.5674636121682685, 0.6458889873760763]","[3646.8899542328663, 3249.009585424941, 2894.538474880755, 2578.740616879157]",Tone,"[2.0, 2.998486563333788, 4.824661604593502, 6.0]",False,831.488371799991,834.2423225000093,834.2423225000093,835.480409300013,['space'],1,[0.4666301000106614],3.4085487333359197,4.433347533340566,None,1,None,1,,,,,,,,,,,,,qmbami,001,fr,0,0,2022-04-27_15h01.28.884,Cluster,2022.1.1,36.05161293298902,
,,,,5,0,5,0,18,0,18,0,,,both,,,,,,,,,,,,,,,,,,,,,,,,,,,,,,,,,,,,,,,,,,,,,,,,,,,,,,,,,,,,,,,,,,,,,,,,,,,,,,,,,,,,,,,,,,,,,,,,,,,,,,,,,,,,,,,,,,,835.9805633999931,None,1301.31647802247,0.7797699097187494,5.823544835264266e-05,1,"[0.5937028952263458, 0.5937028952263458, 0.5937028952263458, 0.5937028952263458]","[516.4277865391055, 650.6582390112351, 819.7780116177846, 1032.8555730782107]",Major_3rd,"[6.541656715615594, 5.521429633254154, 4.159855742261785, 4.054859515048216]",False,836.9944298999908,839.7930181999982,839.7930181999982,841.0285851999943,['space'],1,[0.3072439999959897],3.4036762666655704,4.433716466650367,None,1,None,1,,,,,,,,,,,,,qmbami,001,fr,0,0,2022-04-27_15h01.28.884,Cluster,2022.1.1,36.05161293298902,
