frequencies,training_trials.thisRepN,training_trials.thisTrialN,training_trials.thisN,training_trials.thisIndex,frequencies.thisRepN,frequencies.thisTrialN,frequencies.thisN,frequencies.thisIndex,trials.thisRepN,trials.thisTrialN,trials.thisN,trials.thisIndex,tFrequency,tLevel,tCorrect,Tprobe.started,Tprobe.stopped,tTriangle_cue.started,tTriangle_cue.stopped,Tfeedback.keys,Tfeedback.corr,Tfeedback.rt,Tfeedback.started,Tfeedback.stopped,reversals_nTrials.routineEndVal,track_dir.routineEndVal,step_up.routineEndVal,Correct,Frequency,Level,Psychopy_Level,Direction,Reversals,Track_dir,Step,probe.started,probe.stopped,cross_cue.started,cross_cue.stopped,circle_cue.started,circle_cue.stopped,triangle_cue.started,triangle_cue.stopped,feedback.keys,feedback.corr,feedback.rt,feedback.started,feedback.stopped,memo.started,memo.stopped,key_resp.keys,key_resp.rt,key_resp.started,key_resp.stopped,text.started,text.stopped,participant,session,skip_training,language (english or french),date,expName,psychopyVersion,frameRate,
1300,0,0,0,3,,,,,,,,,1300,30,up,64.83053623003653,None,None,None,left,0,2.027996400021948,63.335551299969666,None,,,,,,,,,,,,,,,,,,,,,,,,,,,,,,,,,tsbvqq,001,0,fr,2022-05-04_16h37.56.149,3-AFC_adaptive_staircase_mess,2022.1.1,36.32703192029937,
5000,0,1,1,4,,,,,,,,,5000,30,up,None,None,None,None,left,0,1.3231010000454262,68.50464199995622,None,,,,,,,,,,,,,,,,,,,,,,,,,,,,,,,,,tsbvqq,001,0,fr,2022-05-04_16h37.56.149,3-AFC_adaptive_staircase_mess,2022.1.1,36.32703192029937,
200,0,2,2,0,,,,,,,,,200,30,left,77.92927862998332,None,None,None,left,1,1.392287600087002,77.4602158999769,None,,,,,,,,,,,,,,,,,,,,,,,,,,,,,,,,,tsbvqq,001,0,fr,2022-05-04_16h37.56.149,3-AFC_adaptive_staircase_mess,2022.1.1,36.32703192029937,
450,0,3,3,1,,,,,,,,,450,30,right,87.05653413004475,None,87.00073359999806,87.32395560003351,right,1,3.308613899978809,84.58341920003295,None,,,,,,,,,,,,,,,,,,,,,,,,,,,,,,,,,tsbvqq,001,0,fr,2022-05-04_16h37.56.149,3-AFC_adaptive_staircase_mess,2022.1.1,36.32703192029937,
850,0,4,4,2,,,,,,,,,850,30,right,93.77526493001497,None,93.74775450001471,94.06894809997175,right,1,3.2840622999938205,91.327906099963,None,,,,,,,,,,,,,,,,,,,,,,,,,,,,,,,,,tsbvqq,001,0,fr,2022-05-04_16h37.56.149,3-AFC_adaptive_staircase_mess,2022.1.1,36.32703192029937,
,,,,,0,0,0,0,0,0,0,0,,,,,,,,,,,,,[],[],10,up,1000,30,0.0013930605843148849,0,0,-1,10,106.43919013001724,None,105.37131700001191,105.67764979996718,106.3780826999573,106.70903939998243,107.38290830003098,None,up,1,2.060698000015691,105.43168779998086,None,None,None,,,,,,,tsbvqq,001,0,fr,2022-05-04_16h37.56.149,3-AFC_adaptive_staircase_mess,2022.1.1,36.32703192029937,
,,,,,0,0,0,0,1,0,1,0,,,,,,,,,,,,,,,,left,1000,30,0.0013930605843148849,0,0,-1,10,109.04201332995436,109.25580879999325,108.98150410002563,109.28847400005907,109.97850590001326,None,None,None,left,1,1.1312106000259519,109.04863440000918,None,None,None,,,,,,,tsbvqq,001,0,fr,2022-05-04_16h37.56.149,3-AFC_adaptive_staircase_mess,2022.1.1,36.32703192029937,
,,,,,0,0,0,0,2,0,2,0,,,,,,,,,,,,,,,,right,1000,10,0.00013930605843148847,-1,0,-1,-10,113.73445052994649,None,111.67762680002488,111.98361350002233,112.67347399995197,112.98470859997906,113.67515959998127,113.99596149998251,right,1,2.7772675999440253,111.73870989994612,None,114.23751530004665,None,,,,,,,tsbvqq,001,0,fr,2022-05-04_16h37.56.149,3-AFC_adaptive_staircase_mess,2022.1.1,36.32703192029937,
,,,,,0,0,0,0,3,0,3,0,,,,,,,,,,,,,,,,left,1000,10,0.00013930605843148847,-1,0,-1,-10,116.05552143001697,116.26648969994858,115.99306270002853,116.29949250002392,116.99460029997863,None,None,None,left,1,0.9975756000494584,116.06215230003,None,None,None,,,,,,,tsbvqq,001,0,fr,2022-05-04_16h37.56.149,3-AFC_adaptive_staircase_mess,2022.1.1,36.32703192029937,
,,,,,0,0,0,0,4,0,4,0,,,,,,,,,,,,,,,,left,1000,0,4.405244365040069e-05,-1,0,-1,-10,118.58438963004156,None,118.5568792000413,118.86889459996019,119.56831969995983,119.89572360005695,120.56357660004869,120.89830510003958,up,0,2.979199600056745,118.592279399978,None,121.10373029997572,None,,,,,,,tsbvqq,001,0,fr,2022-05-04_16h37.56.149,3-AFC_adaptive_staircase_mess,2022.1.1,36.32703192029937,
,,,,,0,0,0,0,5,0,5,0,,,,,,,,,,,,,,,,up,1000,5,7.833755350540742e-05,1,1,1,5,124.10143163000467,124.3211865000194,123.07404029997997,123.40776289999485,124.04301280004438,124.3388222999638,125.07585969998036,125.41191539994907,up,1,2.448842199984938,123.10684320004657,None,125.59988703000127,None,,,,,,,tsbvqq,001,0,fr,2022-05-04_16h37.56.149,3-AFC_adaptive_staircase_mess,2022.1.1,36.32703192029937,
,,,,,0,0,0,0,6,0,6,0,,,,,,,,,,,,,,,,up,1000,5,7.833755350540742e-05,1,1,1,5,128.09734292995418,None,127.0495020999806,127.36243920004927,128.0366962000262,128.366722799954,None,None,up,1,1.6935248000081629,127.10975409997627,None,None,None,,,,,,,tsbvqq,001,0,fr,2022-05-04_16h37.56.149,3-AFC_adaptive_staircase_mess,2022.1.1,36.32703192029937,
,,,,,0,0,0,0,7,0,7,0,,,,,,,,,,,,,,,,right,1000,-5,2.4772509540239506e-05,-1,2,-1,-5.0,132.36154093003134,132.57984929997474,130.31408789998386,130.64562840003055,131.31405919999816,131.6466668000212,132.33403050003108,132.66703739995137,right,1,3.6269543999806046,130.37723480002023,None,132.87954959995113,None,,,,,,,tsbvqq,001,0,fr,2022-05-04_16h37.56.149,3-AFC_adaptive_staircase_mess,2022.1.1,36.32703192029937,
,,,,,0,0,0,0,8,0,8,0,,,,,,,,,,,,,,,,left,1000,-5,2.4772509540239506e-05,-1,2,-1,-5.0,135.54510883000913,None,135.48243520001415,135.81509769998956,136.51155789999757,136.81399060005788,137.4800245000515,137.81004769995343,right,0,2.7537706000730395,135.55347749998327,None,138.04969130002428,None,,,,,,,tsbvqq,001,0,fr,2022-05-04_16h37.56.149,3-AFC_adaptive_staircase_mess,2022.1.1,36.32703192029937,
,,,,,0,0,0,0,9,0,9,0,,,,,,,,,,,,,,,,up,1000,-2.5,3.303467240037979e-05,1,3,1,2.5,140.84829753000523,141.06793879996985,139.79757000005338,140.131869200035,140.7843210999854,141.09609370003454,141.782337200013,142.09240600001067,right,0,3.0194298999849707,139.83193510002457,None,142.35422770003788,None,,,,,,,tsbvqq,001,0,fr,2022-05-04_16h37.56.149,3-AFC_adaptive_staircase_mess,2022.1.1,36.32703192029937,
,,,,,0,0,0,0,10,0,10,0,,,,,,,,,,,,,,,,right,1000,0.0,4.405244365040069e-05,1,3,1,2.5,146.38111283004983,146.60512009996455,144.3175369000528,144.65819009998813,145.3259256000165,145.65900430001784,146.31947910005692,146.632879300043,left,0,3.509421000024304,144.3824885999784,None,146.88687799999025,None,,,,,,,tsbvqq,001,0,fr,2022-05-04_16h37.56.149,3-AFC_adaptive_staircase_mess,2022.1.1,36.32703192029937,
,,,,,0,0,0,0,11,0,11,0,,,,,,,,,,,,,,,,up,1000,2.5,5.874487774697646e-05,1,3,1,2.5,150.43626492997865,None,149.38782409997657,149.71989970002323,150.379028400057,150.6994078999851,151.3875334999757,151.7034950000234,right,0,2.9351022000191733,149.42057950003073,None,151.92335820000153,None,,,,,,,tsbvqq,001,0,fr,2022-05-04_16h37.56.149,3-AFC_adaptive_staircase_mess,2022.1.1,36.32703192029937,
,,,,,0,0,0,0,12,0,12,0,,,,,,,,,,,,,,,,up,1000,5.0,7.833755350540742e-05,1,3,1,2.5,154.881253129954,155.1051314000506,153.8527326999465,154.15844829997513,154.85374269995373,155.16665919998195,None,None,up,1,1.8665466000093147,153.88171969994437,None,None,None,,,,,,,tsbvqq,001,0,fr,2022-05-04_16h37.56.149,3-AFC_adaptive_staircase_mess,2022.1.1,36.32703192029937,
,,,,,0,0,0,0,13,0,13,0,,,,,,,,,,,,,,,,right,1000,5.0,7.833755350540742e-05,1,3,1,2.5,159.26593682999956,None,157.22875759995077,157.5522146000294,158.23051110003144,158.5606640999904,159.2098071000073,159.5308817999903,right,1,2.7261950001120567,157.26117199996952,None,159.78483689995483,None,,,,,,,tsbvqq,001,0,fr,2022-05-04_16h37.56.149,3-AFC_adaptive_staircase_mess,2022.1.1,36.32703192029937,
,,,,,0,0,0,0,14,0,14,0,,,,,,,,,,,,,,,,up,1000,0.0,4.405244365040069e-05,-1,4,-1,-5.0,162.52669852998807,162.74683479999658,161.46838500001468,161.7975750999758,162.4660908000078,162.77904709998984,163.46692679997068,163.77775550005026,left,0,2.934092100011185,161.53380430000834,None,164.0337881000014,None,,,,,,,tsbvqq,001,0,fr,2022-05-04_16h37.56.149,3-AFC_adaptive_staircase_mess,2022.1.1,36.32703192029937,
,,,,,0,0,0,0,15,0,15,0,,,,,,,,,,,,,,,,up,1000,2.5,5.874487774697646e-05,1,5,1,2.5,167.00024253005395,None,165.93883620004635,166.27118689997587,166.94170850003138,167.25871500000358,167.92611310002394,168.22954520001076,up,1,3.232042699935846,166.00392259994987,None,168.49870879994705,None,,,,,,,tsbvqq,001,0,fr,2022-05-04_16h37.56.149,3-AFC_adaptive_staircase_mess,2022.1.1,36.32703192029937,
,,,,,0,0,0,0,16,0,16,0,,,,,,,,,,,,,,,,up,1000,2.5,5.874487774697646e-05,1,5,1,2.5,171.7577661299496,None,170.72470879997127,171.04920580005273,171.73025569994934,172.05098729999736,172.71160429995507,173.04277449997608,up,1,2.8204668998951092,170.78326840000227,None,173.25859630003106,None,,,,,,,tsbvqq,001,0,fr,2022-05-04_16h37.56.149,3-AFC_adaptive_staircase_mess,2022.1.1,36.32703192029937,
,,,,,0,0,0,0,17,0,17,0,,,,,,,,,,,,,,,,left,1000,-2.5,3.303467240037979e-05,-1,6,-1,-5.0,175.1290086299763,175.35780050000176,175.10149819997605,175.41875870001968,176.0919608999975,176.40060479997192,177.08650129998568,177.38693040004,right,0,2.856996199931018,175.1310449000448,None,177.6416572999442,None,,,,,,,tsbvqq,001,0,fr,2022-05-04_16h37.56.149,3-AFC_adaptive_staircase_mess,2022.1.1,36.32703192029937,
,,,,,1,0,1,0,0,0,0,0,,,,,,,,,,,,,[],[],10,right,1500,30,0.001527460556607757,0,0,-1,10,184.01372962995666,None,181.9542379999766,182.2670771999983,182.95291590003762,183.27502539998386,183.95598880003672,184.26475630002096,right,1,2.7860246000345796,182.0176301000174,None,184.51528679998592,None,up,2.4501041000476107,179.0576872000238,None,179.0576872000238,None,tsbvqq,001,0,fr,2022-05-04_16h37.56.149,3-AFC_adaptive_staircase_mess,2022.1.1,36.32703192029937,
,,,,,1,0,1,0,1,0,1,0,,,,,,,,,,,,,,,,right,1500,30,0.001527460556607757,0,0,-1,10,188.384864929982,188.60477159998845,186.31906899996102,186.63074669998605,187.32824159995653,187.66270790004637,188.32415839994792,188.63452389999293,right,1,2.327974300016649,186.37967729999218,None,None,None,,,,,,,tsbvqq,001,0,fr,2022-05-04_16h37.56.149,3-AFC_adaptive_staircase_mess,2022.1.1,36.32703192029937,
,,,,,1,0,1,0,2,0,2,0,,,,,,,,,,,,,,,,right,1500,10,0.0001527460556607757,-1,0,-1,-10,192.26785273003625,None,190.21011250000447,190.53997509996407,191.2219726999756,191.53451070003211,192.21091040002648,192.53048499999568,right,1,2.4536891999887303,190.2707867999561,None,192.76563723004656,None,,,,,,,tsbvqq,001,0,fr,2022-05-04_16h37.56.149,3-AFC_adaptive_staircase_mess,2022.1.1,36.32703192029937,
,,,,,1,0,1,0,3,0,3,0,,,,,,,,,,,,,,,,left,1500,10,0.0001527460556607757,-1,0,-1,-10,194.2756824300508,194.49334140005521,194.21690570004284,194.5210254000267,195.22706760000437,None,None,None,left,1,1.0700647999765351,194.2787677999586,None,None,None,,,,,,,tsbvqq,001,0,fr,2022-05-04_16h37.56.149,3-AFC_adaptive_staircase_mess,2022.1.1,36.32703192029937,
,,,,,1,0,1,0,4,0,4,0,,,,,,,,,,,,,,,,up,1500,0,4.830254394949071e-05,-1,0,-1,-10,197.89871462996817,198.11676410003565,196.86112769995816,197.19405799999367,197.84145029995125,198.1459743999876,198.85983730002772,None,up,1,1.9451719999779016,196.89071850001346,None,None,None,,,,,,,tsbvqq,001,0,fr,2022-05-04_16h37.56.149,3-AFC_adaptive_staircase_mess,2022.1.1,36.32703192029937,
,,,,,1,0,1,0,5,0,5,0,,,,,,,,,,,,,,,,right,1500,0,4.830254394949071e-05,-1,0,-1,-10,202.38897472996032,None,200.32786920003127,200.61832170002162,201.3266337000532,201.61920810001902,202.33206549996976,202.64804310002364,right,1,3.296267200028524,200.38824590004515,None,202.89099270000588,None,,,,,,,tsbvqq,001,0,fr,2022-05-04_16h37.56.149,3-AFC_adaptive_staircase_mess,2022.1.1,36.32703192029937,
,,,,,1,0,1,0,6,0,6,0,,,,,,,,,,,,,,,,left,1500,-10,1.527460556607758e-05,-1,0,-1,-10,205.2257425299962,None,205.16624669998419,205.48388890002389,206.17555210005958,206.4918579000514,207.17341170005966,207.4752302999841,right,0,2.6951737999916077,205.2294230000116,None,207.71619019994978,None,,,,,,,tsbvqq,001,0,fr,2022-05-04_16h37.56.149,3-AFC_adaptive_staircase_mess,2022.1.1,36.32703192029937,
,,,,,1,0,1,0,7,0,7,0,,,,,,,,,,,,,,,,up,1500,-5,2.716251657462168e-05,1,1,1,5,210.45970362998779,210.67775669996627,209.4108648999827,209.7401370999869,210.39999770000577,210.70942049997393,211.4202564000152,None,up,1,2.2131189999636263,209.47104580001906,None,None,None,,,,,,,tsbvqq,001,0,fr,2022-05-04_16h37.56.149,3-AFC_adaptive_staircase_mess,2022.1.1,36.32703192029937,
,,,,,1,0,1,0,8,0,8,0,,,,,,,,,,,,,,,,left,1500,-5,2.716251657462168e-05,1,1,1,5,213.25285653005122,None,213.1959777000593,213.5188081000233,214.20472050004173,214.53364070004318,215.1800690999953,215.49843409995083,right,0,3.035014000022784,213.2572337000165,None,215.7442568000406,None,,,,,,,tsbvqq,001,0,fr,2022-05-04_16h37.56.149,3-AFC_adaptive_staircase_mess,2022.1.1,36.32703192029937,
,,,,,1,0,1,0,9,0,9,0,,,,,,,,,,,,,,,,up,1500,0,4.830254394949071e-05,1,1,1,5,218.84249483005843,None,217.7831501000328,218.08951820002403,218.78476589999627,219.0995989999501,219.78644589998294,220.09715409995988,right,0,2.3773286999203265,217.83370069996454,None,None,None,,,,,,,tsbvqq,001,0,fr,2022-05-04_16h37.56.149,3-AFC_adaptive_staircase_mess,2022.1.1,36.32703192029937,
,,,,,1,0,1,0,10,0,10,0,,,,,,,,,,,,,,,,left,1500,5,8.589541935787943e-05,1,1,1,5,221.73304802997737,None,221.68452040001284,221.99257540004328,222.7085888000438,223.0391104000155,223.69525290001184,224.00164180004504,up,0,2.5596863999962807,221.74796810001135,None,224.241177399992,None,,,,,,,tsbvqq,001,0,fr,2022-05-04_16h37.56.149,3-AFC_adaptive_staircase_mess,2022.1.1,36.32703192029937,
,,,,,1,0,1,0,11,0,11,0,,,,,,,,,,,,,,,,up,1500,10,0.0001527460556607757,1,1,1,5,226.82859283002327,None,225.78946660005022,226.11993599997368,226.801082400023,227.11104410002008,None,None,up,1,1.8087013999465853,225.84256230003666,None,None,None,,,,,,,tsbvqq,001,0,fr,2022-05-04_16h37.56.149,3-AFC_adaptive_staircase_mess,2022.1.1,36.32703192029937,
,,,,,1,0,1,0,12,0,12,0,,,,,,,,,,,,,,,,left,1500,10,0.0001527460556607757,1,1,1,5,229.1987522299518,None,229.13944769999944,229.46364400000311,230.16424650000408,230.5006969999522,None,None,left,1,1.521785099990666,229.20145299995784,None,None,None,,,,,,,tsbvqq,001,0,fr,2022-05-04_16h37.56.149,3-AFC_adaptive_staircase_mess,2022.1.1,36.32703192029937,
,,,,,1,0,1,0,13,0,13,0,,,,,,,,,,,,,,,,left,1500,0,4.830254394949071e-05,-1,2,-1,-5.0,232.27155353004346,None,232.2157973999856,232.53676120005548,233.218824999989,233.51769859995693,234.21266570000444,234.51215359999333,up,0,2.8362819999456406,232.2716889999574,None,234.77405430004,None,,,,,,,tsbvqq,001,0,fr,2022-05-04_16h37.56.149,3-AFC_adaptive_staircase_mess,2022.1.1,36.32703192029937,
,,,,,1,0,1,0,14,0,14,0,,,,,,,,,,,,,,,,up,1500,2.5,6.441247758465671e-05,1,3,1,2.5,237.61880443004193,None,236.58183729997836,236.9039700999856,237.59129400004167,237.9108480999712,238.57086089998484,238.90401239995845,up,1,2.73788340005558,236.6425030999817,None,239.122894500033,None,,,,,,,tsbvqq,001,0,fr,2022-05-04_16h37.56.149,3-AFC_adaptive_staircase_mess,2022.1.1,36.32703192029937,
,,,,,1,0,1,0,15,0,15,0,,,,,,,,,,,,,,,,left,1500,2.5,6.441247758465671e-05,1,3,1,2.5,240.91298443000997,None,240.8854740000097,241.20711850002408,241.86444200004917,242.16042189998552,242.866165000014,243.19014540000353,left,1,2.7055437000235543,240.91479409998283,None,243.42458959994838,None,,,,,,,tsbvqq,001,0,fr,2022-05-04_16h37.56.149,3-AFC_adaptive_staircase_mess,2022.1.1,36.32703192029937,
,,,,,1,0,1,0,16,0,16,0,,,,,,,,,,,,,,,,right,1500,-2.5,3.622179800374953e-05,-1,4,-1,-5.0,247.17837142994395,None,245.13073690002784,245.44486899999902,246.0967344000237,246.41064719995484,247.12104760005604,247.44785560003947,left,0,3.353656699997373,245.16232759994455,None,247.67705489997752,None,,,,,,,tsbvqq,001,0,fr,2022-05-04_16h37.56.149,3-AFC_adaptive_staircase_mess,2022.1.1,36.32703192029937,
,,,,,1,0,1,0,17,0,17,0,,,,,,,,,,,,,,,,left,1500,0.0,4.830254394949071e-05,1,5,1,2.5,250.1088135299855,250.33290899998974,250.04867120005656,250.36326919996645,251.0720355999656,251.3979595999699,252.04968569998164,252.38413849996869,right,0,2.8498711000429466,250.1142996000126,None,252.60410800005775,None,,,,,,,tsbvqq,001,0,fr,2022-05-04_16h37.56.149,3-AFC_adaptive_staircase_mess,2022.1.1,36.32703192029937,
,,,,,1,0,1,0,18,0,18,0,,,,,,,,,,,,,,,,right,1500,2.5,6.441247758465671e-05,1,5,1,2.5,256.5022223299951,None,254.45563079998828,254.78626790002454,255.484487800044,255.82151020003948,256.454077100032,256.76029200002085,left,0,3.0977017000550404,254.50588219997007,None,257.02280679997057,None,,,,,,,tsbvqq,001,0,fr,2022-05-04_16h37.56.149,3-AFC_adaptive_staircase_mess,2022.1.1,36.32703192029937,
,,,,,1,0,1,0,19,0,19,0,,,,,,,,,,,,,,,,left,1500,5.0,8.589541935787943e-05,1,5,1,2.5,259.1525514299632,259.37556279997807,259.12504099996295,259.43860650004353,260.1260501999641,None,None,None,up,0,1.0520042999414727,259.15963270002976,None,None,None,,,,,,,tsbvqq,001,0,fr,2022-05-04_16h37.56.149,3-AFC_adaptive_staircase_mess,2022.1.1,36.32703192029937,
,,,,,1,0,1,0,20,0,20,0,,,,,,,,,,,,,,,,up,1500,7.5,0.00011454338263838867,1,5,1,2.5,262.7428270300501,None,261.70497890003026,262.03052769997157,262.71531660004985,263.0371880000457,None,None,up,1,1.696443699998781,261.76326609996613,None,None,None,,,,,,,tsbvqq,001,0,fr,2022-05-04_16h37.56.149,3-AFC_adaptive_staircase_mess,2022.1.1,36.32703192029937,
,,,,,1,0,1,0,21,0,21,0,,,,,,,,,,,,,,,,left,1500,7.5,0.00011454338263838867,1,5,1,2.5,264.9856211300124,None,264.9581107000122,265.2725942999823,265.94958370004315,None,None,None,left,1,0.9384410000639036,264.98582169995643,None,None,None,,,,,,,tsbvqq,001,0,fr,2022-05-04_16h37.56.149,3-AFC_adaptive_staircase_mess,2022.1.1,36.32703192029937,
,,,,,1,0,1,0,22,0,22,0,,,,,,,,,,,,,,,,up,1500,2.5,6.441247758465671e-05,-1,6,-1,-5.0,268.4745852300315,None,267.42015669995453,267.7354297999991,268.41621239995584,268.73981820000336,None,None,up,1,1.7443696999689564,267.475527600036,None,None,None,,,,,,,tsbvqq,001,0,fr,2022-05-04_16h37.56.149,3-AFC_adaptive_staircase_mess,2022.1.1,36.32703192029937,
,,,,,2,0,2,0,0,0,0,0,,,,,,,,,,,,,[],[],10,left,2000,30,0.0023657562948074026,0,0,-1,10,271.71389893003504,271.936627499992,271.6567824999802,271.9639503000071,272.6576277000131,None,None,None,left,1,1.00709110009484,271.7159818999935,None,None,None,up,0.9028179000597447,270.2849797999952,None,270.2849797999952,None,tsbvqq,001,0,fr,2022-05-04_16h37.56.149,3-AFC_adaptive_staircase_mess,2022.1.1,36.32703192029937,
,,,,,2,0,2,0,1,0,1,0,,,,,,,,,,,,,,,,up,2000,30,0.0023657562948074026,0,0,-1,10,275.2703764300444,275.4913506000303,274.2310123000061,274.55667980003636,275.20940469997004,275.5211009000195,None,None,up,1,1.3447797999251634,274.2599921999499,None,None,None,,,,,,,tsbvqq,001,0,fr,2022-05-04_16h37.56.149,3-AFC_adaptive_staircase_mess,2022.1.1,36.32703192029937,
,,,,,2,0,2,0,2,0,2,0,,,,,,,,,,,,,,,,right,2000,10,0.00023657562948074026,-1,0,-1,-10,279.14110623000886,279.3618414000375,277.07798509998247,277.39490730001125,278.06212959997356,278.3748055000324,279.0804263999453,279.3916806000052,right,1,2.313848599907942,277.1462065000087,None,None,None,,,,,,,tsbvqq,001,0,fr,2022-05-04_16h37.56.149,3-AFC_adaptive_staircase_mess,2022.1.1,36.32703192029937,
,,,,,2,0,2,0,3,0,3,0,,,,,,,,,,,,,,,,right,2000,10,0.00023657562948074026,-1,0,-1,-10,283.00842053004305,None,280.96608859999105,281.2967387000099,281.9828620000044,282.31749869999476,282.9809101000428,283.2864257999463,right,1,2.465478099999018,281.02648979995865,None,283.5206974300439,None,,,,,,,tsbvqq,001,0,fr,2022-05-04_16h37.56.149,3-AFC_adaptive_staircase_mess,2022.1.1,36.32703192029937,
,,,,,2,0,2,0,4,0,4,0,,,,,,,,,,,,,,,,up,2000,0,7.481178280472168e-05,-1,0,-1,-10,285.9998043299769,None,284.9492892000126,285.2866206000326,285.9434747999767,286.24560180003755,286.97726249997504,287.2868410999654,right,0,2.3583669000072405,285.00512580003124,None,None,None,,,,,,,tsbvqq,001,0,fr,2022-05-04_16h37.56.149,3-AFC_adaptive_staircase_mess,2022.1.1,36.32703192029937,
,,,,,2,0,2,0,5,0,5,0,,,,,,,,,,,,,,,,right,2000,5,0.0001330362529899405,1,1,1,5,290.90396052998256,None,288.84997219999786,289.1564868000569,289.8670217000181,290.1944171000505,290.8475010000402,291.16888140002266,right,1,2.4235355999553576,288.90731579996645,None,None,None,,,,,,,tsbvqq,001,0,fr,2022-05-04_16h37.56.149,3-AFC_adaptive_staircase_mess,2022.1.1,36.32703192029937,
,,,,,2,0,2,0,6,0,6,0,,,,,,,,,,,,,,,,up,2000,5,0.0001330362529899405,1,1,1,5,293.8707999299862,None,292.82788939995226,293.1612074000295,293.81641600001603,294.1360315999482,294.81890780001413,295.1480948999524,up,1,2.6766187000321224,292.8623444000259,None,295.36100310005713,None,,,,,,,tsbvqq,001,0,fr,2022-05-04_16h37.56.149,3-AFC_adaptive_staircase_mess,2022.1.1,36.32703192029937,
,,,,,2,0,2,0,7,0,7,0,,,,,,,,,,,,,,,,left,2000,-5,4.206975708225974e-05,-1,2,-1,-5.0,297.06804042999863,None,297.01216589997057,297.3131293000188,298.033051699982,298.3664605000522,299.0080769000342,299.33523540000897,up,0,2.4527599998982623,297.07050330005586,None,299.55911142999537,None,,,,,,,tsbvqq,001,0,fr,2022-05-04_16h37.56.149,3-AFC_adaptive_staircase_mess,2022.1.1,36.32703192029937,
,,,,,2,0,2,0,8,0,8,0,,,,,,,,,,,,,,,,up,2000,-2.5,5.610092271509818e-05,1,3,1,2.5,302.0726647300529,None,300.9979869000381,301.30233710003085,302.01587450003717,302.3254992000293,303.0077995000174,303.3355361999711,up,1,2.7400314999977127,301.05482760001905,None,303.57281709997915,None,,,,,,,tsbvqq,001,0,fr,2022-05-04_16h37.56.149,3-AFC_adaptive_staircase_mess,2022.1.1,36.32703192029937,
,,,,,2,0,2,0,9,0,9,0,,,,,,,,,,,,,,,,up,2000,-2.5,5.610092271509818e-05,1,3,1,2.5,306.33624822999116,306.55610859999433,305.3007832999574,305.62590850004926,306.27579360001255,306.58668039995246,307.2940515000373,307.6196019999916,up,1,2.3709686999209225,305.3284095999552,None,None,None,,,,,,,tsbvqq,001,0,fr,2022-05-04_16h37.56.149,3-AFC_adaptive_staircase_mess,2022.1.1,36.32703192029937,
,,,,,2,0,2,0,10,0,10,0,,,,,,,,,,,,,,,,up,2000,-7.5,3.154786722400965e-05,-1,4,-1,-5.0,310.25351483005795,310.4675479000434,309.18322110001463,309.5104450000217,310.1977305000182,310.5256419000216,311.20364459999837,311.50317609997,right,0,2.902974999975413,309.24459020001814,None,311.7480003000237,None,,,,,,,tsbvqq,001,0,fr,2022-05-04_16h37.56.149,3-AFC_adaptive_staircase_mess,2022.1.1,36.32703192029937,
,,,,,2,0,2,0,11,0,11,0,,,,,,,,,,,,,,,,left,2000,-5.0,4.206975708225974e-05,1,5,1,2.5,313.69003832995656,313.9129203000339,313.6331591999624,313.9400123000378,314.6466388000408,None,None,None,left,1,1.0473001999780536,313.6922583000269,None,None,None,,,,,,,tsbvqq,001,0,fr,2022-05-04_16h37.56.149,3-AFC_adaptive_staircase_mess,2022.1.1,36.32703192029937,
,,,,,2,0,2,0,12,0,12,0,,,,,,,,,,,,,,,,left,2000,-5.0,4.206975708225974e-05,1,5,1,2.5,316.299117330031,316.53142380004283,316.24273659999017,316.5675696999533,317.24845680000726,317.5821169000119,318.2538477999624,318.5879310000455,left,1,2.6268796999938786,316.3040742999874,None,318.7854342999635,None,,,,,,,tsbvqq,001,0,fr,2022-05-04_16h37.56.149,3-AFC_adaptive_staircase_mess,2022.1.1,36.32703192029937,
,,,,,2,0,2,0,13,0,13,0,,,,,,,,,,,,,,,,right,2000,-10.0,2.3657562948074015e-05,-1,6,-1,-5.0,322.46050183001205,None,320.409440599964,320.72395929996856,321.3902046000585,321.7239438999677,322.4035792000359,322.72670829994604,left,0,2.537737699924037,320.441509700031,None,322.950795999961,None,,,,,,,tsbvqq,001,0,fr,2022-05-04_16h37.56.149,3-AFC_adaptive_staircase_mess,2022.1.1,36.32703192029937,
,,,,,3,0,3,0,0,0,0,0,,,,,,,,,,,,,[],[],10,left,3000,30,0.001733684252262658,0,0,-1,10,325.1458108299761,None,325.11830039997585,325.4362988000503,None,None,None,None,left,1,0.695661999983713,325.1473853000207,None,None,None,left,0.6230021000374109,324.03678299998865,None,324.03678299998865,None,tsbvqq,001,0,fr,2022-05-04_16h37.56.149,3-AFC_adaptive_staircase_mess,2022.1.1,36.32703192029937,
,,,,,3,0,3,0,1,0,1,0,,,,,,,,,,,,,,,,up,3000,30,0.001733684252262658,0,0,-1,10,328.35923123002283,None,327.310841999948,327.6391603000229,328.3317208000226,328.65532879997045,329.3008151999675,None,up,1,1.9131275999825448,327.3699933999451,None,None,None,,,,,,,tsbvqq,001,0,fr,2022-05-04_16h37.56.149,3-AFC_adaptive_staircase_mess,2022.1.1,36.32703192029937,
,,,,,3,0,3,0,2,0,2,0,,,,,,,,,,,,,,,,left,3000,10,0.00017336842522626576,-1,0,-1,-10,330.82695322999496,None,330.7668501000153,331.0807805999648,None,None,None,None,left,1,0.8673304999247193,330.83236770005897,None,None,None,,,,,,,tsbvqq,001,0,fr,2022-05-04_16h37.56.149,3-AFC_adaptive_staircase_mess,2022.1.1,36.32703192029937,
,,,,,3,0,3,0,3,0,3,0,,,,,,,,,,,,,,,,left,3000,10,0.00017336842522626576,-1,0,-1,-10,333.2211452300311,333.4477674999507,333.19363480003085,333.50898389995564,None,None,None,None,left,1,0.6692954000318423,333.22194409999065,None,None,None,,,,,,,tsbvqq,001,0,fr,2022-05-04_16h37.56.149,3-AFC_adaptive_staircase_mess,2022.1.1,36.32703192029937,
,,,,,3,0,3,0,4,0,4,0,,,,,,,,,,,,,,,,up,3000,0,5.482390980715923e-05,-1,0,-1,-10,336.4099343299516,None,335.3659995000344,335.6706050999928,336.3824238999514,336.7084388999501,337.3699571000179,337.693687699968,right,0,2.355024000047706,335.4245191999944,None,None,None,,,,,,,tsbvqq,001,0,fr,2022-05-04_16h37.56.149,3-AFC_adaptive_staircase_mess,2022.1.1,36.32703192029937,
,,,,,3,0,3,0,5,0,5,0,,,,,,,,,,,,,,,,right,3000,5,9.749222998790222e-05,1,1,1,5,341.30677413000956,341.52561280003283,339.27036450000014,339.57663509994745,340.2580567999976,340.5860982000595,341.24500260001514,341.55620580003597,right,1,2.577003600075841,339.2986388000427,None,341.79736079997383,None,,,,,,,tsbvqq,001,0,fr,2022-05-04_16h37.56.149,3-AFC_adaptive_staircase_mess,2022.1.1,36.32703192029937,
,,,,,3,0,3,0,6,0,6,0,,,,,,,,,,,,,,,,right,3000,5,9.749222998790222e-05,1,1,1,5,345.4164292300469,345.6365538999671,343.347338499967,343.6756702000275,344.33744959998876,344.6488490999909,345.35221230005845,345.66399719996843,right,1,2.303134100046009,343.4127518000314,None,None,None,,,,,,,tsbvqq,001,0,fr,2022-05-04_16h37.56.149,3-AFC_adaptive_staircase_mess,2022.1.1,36.32703192029937,
,,,,,3,0,3,0,7,0,7,0,,,,,,,,,,,,,,,,left,3000,-5,3.082975009307411e-05,-1,2,-1,-5.0,347.23632373000726,None,347.1807651000563,347.4938920000568,348.1954525000183,348.52184129995294,349.19322400004603,349.52364609995857,right,0,2.3507418000372127,347.23700690001715,None,None,None,,,,,,,tsbvqq,001,0,fr,2022-05-04_16h37.56.149,3-AFC_adaptive_staircase_mess,2022.1.1,36.32703192029937,
,,,,,3,0,3,0,8,0,8,0,,,,,,,,,,,,,,,,up,3000,-2.5,4.1112132497353565e-05,1,3,1,2.5,352.14035803001605,352.3682155000279,351.08667210000567,351.4203835000517,352.08455959998537,352.3991817999631,353.0875034000492,353.4156504999846,right,0,2.374181699939072,351.1494099999545,None,None,None,,,,,,,tsbvqq,001,0,fr,2022-05-04_16h37.56.149,3-AFC_adaptive_staircase_mess,2022.1.1,36.32703192029937,
,,,,,3,0,3,0,9,0,9,0,,,,,,,,,,,,,,,,left,3000,0.0,5.482390980715923e-05,1,3,1,2.5,355.0409990300308,None,355.01348860003054,355.3352858000435,355.99563470005523,356.3284442999866,356.9927296000533,357.3044603000162,right,0,2.38191250001546,355.0452903000405,None,None,None,,,,,,,tsbvqq,001,0,fr,2022-05-04_16h37.56.149,3-AFC_adaptive_staircase_mess,2022.1.1,36.32703192029937,
,,,,,3,0,3,0,10,0,10,0,,,,,,,,,,,,,,,,left,3000,2.5,7.310885872283589e-05,1,3,1,2.5,358.9483420299715,359.17444480000995,358.9208315999713,359.2358978999546,359.8975350999972,None,None,None,left,1,1.1509361999342218,358.94927690003533,None,None,None,,,,,,,tsbvqq,001,0,fr,2022-05-04_16h37.56.149,3-AFC_adaptive_staircase_mess,2022.1.1,36.32703192029937,
,,,,,3,0,3,0,11,0,11,0,,,,,,,,,,,,,,,,right,3000,2.5,7.310885872283589e-05,1,3,1,2.5,363.6281995299854,363.8465294999769,361.5906774000032,361.899085400044,362.581565600005,362.8948127999902,363.6006890999852,363.90792929998133,left,0,2.5147589000407606,361.6488543000305,None,364.15395680000074,None,,,,,,,tsbvqq,001,0,fr,2022-05-04_16h37.56.149,3-AFC_adaptive_staircase_mess,2022.1.1,36.32703192029937,
,,,,,3,0,3,0,12,0,12,0,,,,,,,,,,,,,,,,left,3000,5.0,9.749222998790222e-05,1,3,1,2.5,365.683229630033,None,365.65571920003276,365.9748415000504,None,None,None,None,left,1,0.7679978999076411,365.6843292999547,None,None,None,,,,,,,tsbvqq,001,0,fr,2022-05-04_16h37.56.149,3-AFC_adaptive_staircase_mess,2022.1.1,36.32703192029937,
,,,,,3,0,3,0,13,0,13,0,,,,,,,,,,,,,,,,up,3000,5.0,9.749222998790222e-05,1,3,1,2.5,368.9730137300561,None,367.9051304999739,368.22403949999716,368.91579610004555,369.2213984000264,None,None,up,1,1.7937361999647692,367.9703177999472,None,None,None,,,,,,,tsbvqq,001,0,fr,2022-05-04_16h37.56.149,3-AFC_adaptive_staircase_mess,2022.1.1,36.32703192029937,
,,,,,3,0,3,0,14,0,14,0,,,,,,,,,,,,,,,,right,3000,0.0,5.482390980715923e-05,-1,4,-1,-5.0,373.3028018300305,None,371.241191899986,371.5417011999525,372.26690809999127,372.5751140000066,373.24333249998745,373.5546019000467,up,0,2.7774091999744996,371.30632279999554,None,373.798141199979,None,,,,,,,tsbvqq,001,0,fr,2022-05-04_16h37.56.149,3-AFC_adaptive_staircase_mess,2022.1.1,36.32703192029937,
,,,,,3,0,3,0,15,0,15,0,,,,,,,,,,,,,,,,up,3000,2.5,7.310885872283589e-05,1,5,1,2.5,376.61337233000665,None,375.5589268000331,375.87709059996996,376.5495231000241,376.88170919998083,None,None,up,1,1.5870402000145987,375.61708899994846,None,None,None,,,,,,,tsbvqq,001,0,fr,2022-05-04_16h37.56.149,3-AFC_adaptive_staircase_mess,2022.1.1,36.32703192029937,
,,,,,3,0,3,0,16,0,16,0,,,,,,,,,,,,,,,,up,3000,2.5,7.310885872283589e-05,1,5,1,2.5,379.7449576299754,379.963103499962,378.69331839994993,379.0129648000002,379.71744719997514,380.0237043000525,None,None,up,1,1.461403000052087,378.75031859998126,None,None,None,,,,,,,tsbvqq,001,0,fr,2022-05-04_16h37.56.149,3-AFC_adaptive_staircase_mess,2022.1.1,36.32703192029937,
,,,,,3,0,3,0,17,0,17,0,,,,,,,,,,,,,,,,left,3000,-2.5,4.1112132497353565e-05,-1,6,-1,-5.0,381.7350753300474,381.9646791999694,381.70756490004715,382.0258180999663,382.7032391000539,383.0186405000277,None,None,up,0,1.452273500035517,381.73575600003824,None,None,None,,,,,,,tsbvqq,001,0,fr,2022-05-04_16h37.56.149,3-AFC_adaptive_staircase_mess,2022.1.1,36.32703192029937,
,,,,,4,0,4,0,0,0,0,0,,,,,,,,,,,,,[],[],10,right,4000,30,0.0026544222211549416,0,0,-1,10,387.5512629299541,387.7735132999951,385.5113817000529,385.82382149994373,386.49174780002795,386.8236359000439,387.52375249995384,387.83855049998965,right,1,2.645059200003743,385.56681280001067,None,388.06247320002876,None,up,0.7654409999959171,384.2614022999769,None,384.2614022999769,None,tsbvqq,001,0,fr,2022-05-04_16h37.56.149,3-AFC_adaptive_staircase_mess,2022.1.1,36.32703192029937,
,,,,,4,0,4,0,1,0,1,0,,,,,,,,,,,,,,,,up,4000,30,0.0026544222211549416,0,0,-1,10,390.7567839300376,390.9734456000151,389.6943161999807,390.02726730005816,390.7000565000344,391.00617750000674,None,None,up,1,1.714481999981217,389.76105810003355,None,None,None,,,,,,,tsbvqq,001,0,fr,2022-05-04_16h37.56.149,3-AFC_adaptive_staircase_mess,2022.1.1,36.32703192029937,
,,,,,4,0,4,0,2,0,2,0,,,,,,,,,,,,,,,,up,4000,10,0.00026544222211549425,-1,0,-1,-10,394.0276461299858,394.2444432999473,392.96469479997177,393.29478130000643,393.9667201000266,394.2756963999709,None,None,up,1,1.3428281999658793,393.02954230003525,None,None,None,,,,,,,tsbvqq,001,0,fr,2022-05-04_16h37.56.149,3-AFC_adaptive_staircase_mess,2022.1.1,36.32703192029937,
,,,,,4,0,4,0,3,0,3,0,,,,,,,,,,,,,,,,left,4000,10,0.00026544222211549425,-1,0,-1,-10,395.92785652998134,None,395.86652250005864,396.19885589997284,None,None,None,None,left,1,0.7256141999969259,395.9334383000387,None,None,None,,,,,,,tsbvqq,001,0,fr,2022-05-04_16h37.56.149,3-AFC_adaptive_staircase_mess,2022.1.1,36.32703192029937,
,,,,,4,0,4,0,4,0,4,0,,,,,,,,,,,,,,,,left,4000,0,8.394020090612804e-05,-1,0,-1,-10,398.19408173001136,None,398.1665713000111,398.47517270001117,399.13463710004,399.46157409995794,400.13771110004745,400.460775500047,left,1,2.6680395000148565,398.1995733999647,None,400.70614290004596,None,,,,,,,tsbvqq,001,0,fr,2022-05-04_16h37.56.149,3-AFC_adaptive_staircase_mess,2022.1.1,36.32703192029937,
,,,,,4,0,4,0,5,0,5,0,,,,,,,,,,,,,,,,right,4000,0,8.394020090612804e-05,-1,0,-1,-10,404.4013622299884,None,402.35033729998395,402.6726429000264,403.36860929999966,403.67801549995784,404.3738517999882,404.6819947999902,right,1,2.716504400013946,402.40766949998215,None,404.908782399958,None,,,,,,,tsbvqq,001,0,fr,2022-05-04_16h37.56.149,3-AFC_adaptive_staircase_mess,2022.1.1,36.32703192029937,
,,,,,4,0,4,0,6,0,6,0,,,,,,,,,,,,,,,,left,4000,-10,2.6544222211549425e-05,-1,0,-1,-10,406.6690985299996,406.88947850000113,406.64158809999935,406.9503384999698,407.63315670005977,407.94834819994867,408.61025689996313,408.91283990000375,up,0,2.5952795000048354,406.6724661999615,None,409.1629011000041,None,,,,,,,tsbvqq,001,0,fr,2022-05-04_16h37.56.149,3-AFC_adaptive_staircase_mess,2022.1.1,36.32703192029937,
,,,,,4,0,4,0,7,0,7,0,,,,,,,,,,,,,,,,right,4000,-5,4.720304381429618e-05,1,1,1,5,412.8145231299917,None,410.74610989994835,411.0601681000553,411.75754120002966,412.08482690004166,412.7569323000498,413.0838159000268,up,0,2.6621291000628844,410.8129273999948,None,413.3026057999814,None,,,,,,,tsbvqq,001,0,fr,2022-05-04_16h37.56.149,3-AFC_adaptive_staircase_mess,2022.1.1,36.32703192029937,
,,,,,4,0,4,0,8,0,8,0,,,,,,,,,,,,,,,,left,4000,0,8.394020090612804e-05,1,1,1,5,415.00898243001427,415.2307839000132,414.98147200001404,415.2920001000166,415.9683615999529,None,None,None,left,1,1.1538909999653697,415.00939519994427,None,None,None,,,,,,,tsbvqq,001,0,fr,2022-05-04_16h37.56.149,3-AFC_adaptive_staircase_mess,2022.1.1,36.32703192029937,
,,,,,4,0,4,0,9,0,9,0,,,,,,,,,,,,,,,,left,4000,0,8.394020090612804e-05,1,1,1,5,417.7323909299797,None,417.6742473000195,417.99787469999865,418.68700489995535,418.9919667999493,419.6695326999761,419.98863150004763,left,1,2.812786699971184,417.73448720003944,None,420.22753050003666,None,,,,,,,tsbvqq,001,0,fr,2022-05-04_16h37.56.149,3-AFC_adaptive_staircase_mess,2022.1.1,36.32703192029937,
,,,,,4,0,4,0,10,0,10,0,,,,,,,,,,,,,,,,left,4000,-10,2.6544222211549425e-05,-1,2,-1,-5.0,422.0918999299523,None,422.0643894999521,422.39832819998264,423.0326863999944,423.3652720999671,424.0525889999699,424.36353159998544,up,0,2.402182999998331,422.09695959999226,None,None,None,,,,,,,tsbvqq,001,0,fr,2022-05-04_16h37.56.149,3-AFC_adaptive_staircase_mess,2022.1.1,36.32703192029937,
,,,,,4,0,4,0,11,0,11,0,,,,,,,,,,,,,,,,up,4000,-7.5,3.53972892192069e-05,1,3,1,2.5,427.07112963000543,None,426.02541170001496,426.33033080003224,427.0132495999569,427.3367351000197,428.0000975000439,428.3321006000042,up,1,2.4946943999966606,426.05367109994404,None,428.54971259995364,None,,,,,,,tsbvqq,001,0,fr,2022-05-04_16h37.56.149,3-AFC_adaptive_staircase_mess,2022.1.1,36.32703192029937,
,,,,,4,0,4,0,12,0,12,0,,,,,,,,,,,,,,,,right,4000,-7.5,3.53972892192069e-05,1,3,1,2.5,432.07583843000464,None,430.0118670000229,430.33845399995334,431.033372099977,431.36910809995607,432.01801760005765,432.3414771000389,up,0,2.5221143999369815,430.07335790002253,None,432.5742796000559,None,,,,,,,tsbvqq,001,0,fr,2022-05-04_16h37.56.149,3-AFC_adaptive_staircase_mess,2022.1.1,36.32703192029937,
,,,,,4,0,4,0,13,0,13,0,,,,,,,,,,,,,,,,left,4000,-5.0,4.720304381429618e-05,1,3,1,2.5,434.1345179300173,434.35075540002435,434.0738094999688,434.38329130003694,435.07924670004286,435.4065450000344,436.0712985000573,436.37795889994595,up,0,2.583606299944222,434.1395512999734,None,436.6464644999942,None,,,,,,,tsbvqq,001,0,fr,2022-05-04_16h37.56.149,3-AFC_adaptive_staircase_mess,2022.1.1,36.32703192029937,
,,,,,4,0,4,0,14,0,14,0,,,,,,,,,,,,,,,,left,4000,-2.5,6.294627058970837e-05,1,3,1,2.5,438.27362222996305,438.488720000023,438.21283119998407,438.5206807999639,439.20983079995494,None,None,None,left,1,1.1481278999708593,438.2790623999899,None,None,None,,,,,,,tsbvqq,001,0,fr,2022-05-04_16h37.56.149,3-AFC_adaptive_staircase_mess,2022.1.1,36.32703192029937,
,,,,,4,0,4,0,15,0,15,0,,,,,,,,,,,,,,,,left,4000,-2.5,6.294627058970837e-05,1,3,1,2.5,440.9718413299764,None,440.911475299974,441.2425196999684,None,None,None,None,left,1,0.8658244999824092,440.9779112000251,None,None,None,,,,,,,tsbvqq,001,0,fr,2022-05-04_16h37.56.149,3-AFC_adaptive_staircase_mess,2022.1.1,36.32703192029937,
,,,,,4,0,4,0,16,0,16,0,,,,,,,,,,,,,,,,up,4000,-7.5,3.53972892192069e-05,-1,4,-1,-5.0,444.3776813299977,444.59348339994904,443.31874140002765,443.6506242000032,444.31698080000933,444.6271646999521,445.31905569997616,445.65502689999994,left,0,2.347743700025603,443.38503540004604,None,None,None,,,,,,,tsbvqq,001,0,fr,2022-05-04_16h37.56.149,3-AFC_adaptive_staircase_mess,2022.1.1,36.32703192029937,
,,,,,4,0,4,0,17,0,17,0,,,,,,,,,,,,,,,,left,4000,-5.0,4.720304381429618e-05,1,5,1,2.5,447.26563922994535,None,447.2381287999451,447.5589364999905,448.2479439000599,448.55392850004137,449.22290789999533,449.5540823000483,left,1,2.287697600084357,447.26721499999985,None,None,None,,,,,,,tsbvqq,001,0,fr,2022-05-04_16h37.56.149,3-AFC_adaptive_staircase_mess,2022.1.1,36.32703192029937,
,,,,,4,0,4,0,18,0,18,0,,,,,,,,,,,,,,,,up,4000,-5.0,4.720304381429618e-05,1,5,1,2.5,None,None,451.0564739999827,451.3864630999742,None,None,None,None,left,0,0.41690700000617653,451.121790300007,None,None,None,,,,,,,tsbvqq,001,0,fr,2022-05-04_16h37.56.149,3-AFC_adaptive_staircase_mess,2022.1.1,36.32703192029937,
,,,,,4,0,4,0,19,0,19,0,,,,,,,,,,,,,,,,up,4000,-2.5,6.294627058970837e-05,1,5,1,2.5,454.0590278300573,None,452.99409569997806,453.3234653000254,453.9979413000401,454.32714429998305,455.0237060999498,455.3400808000006,left,0,2.6075713000027463,453.05880989995785,None,455.56069970002864,None,,,,,,,tsbvqq,001,0,fr,2022-05-04_16h37.56.149,3-AFC_adaptive_staircase_mess,2022.1.1,36.32703192029937,
,,,,,4,0,4,0,20,0,20,0,,,,,,,,,,,,,,,,right,4000,0.0,8.394020090612804e-05,1,5,1,2.5,459.229866629967,459.45518819999415,457.1619364999933,457.4933144999668,458.1631156000076,458.49422200000845,459.1688332000049,459.48356319998857,left,0,2.4559498000890017,457.2273973999545,None,459.7259901300189,None,,,,,,,tsbvqq,001,0,fr,2022-05-04_16h37.56.149,3-AFC_adaptive_staircase_mess,2022.1.1,36.32703192029937,
,,,,,4,0,4,0,21,0,21,0,,,,,,,,,,,,,,,,right,4000,2.5,0.000111936056928417,1,5,1,2.5,None,None,461.20347800001036,461.5324419999961,462.2092565000057,462.5362303999718,None,None,up,0,1.8732021000469103,461.23485610005446,None,None,None,,,,,,,tsbvqq,001,0,fr,2022-05-04_16h37.56.149,3-AFC_adaptive_staircase_mess,2022.1.1,36.32703192029937,
,,,,,4,0,4,0,22,0,22,0,,,,,,,,,,,,,,,,left,4000,5.0,0.00014926913094589803,1,5,1,2.5,464.634625830024,None,464.60711540002376,464.91920590004884,465.61381280003116,None,None,None,left,1,0.9771717999828979,464.64289560006,None,None,None,,,,,,,tsbvqq,001,0,fr,2022-05-04_16h37.56.149,3-AFC_adaptive_staircase_mess,2022.1.1,36.32703192029937,
,,,,,4,0,4,0,23,0,23,0,,,,,,,,,,,,,,,,right,4000,5.0,0.00014926913094589803,1,5,1,2.5,469.16132103003326,None,467.14163049997296,467.4761980000185,468.1444834000431,468.47684689995367,469.13381060003303,469.4553754000226,right,1,2.6062679999740794,467.1743776999647,None,469.6846732000122,None,,,,,,,tsbvqq,001,0,fr,2022-05-04_16h37.56.149,3-AFC_adaptive_staircase_mess,2022.1.1,36.32703192029937,
,,,,,4,0,4,0,24,0,24,0,,,,,,,,,,,,,,,,right,4000,0.0,8.394020090612804e-05,-1,6,-1,-5.0,473.31733512998323,473.53960569994524,471.2817261000164,471.60830560000613,472.286564799957,472.6200895999791,473.289824699983,473.62792250001803,right,1,2.4646838000044227,471.3138487000251,None,473.817443429993,None,,,,,,,tsbvqq,001,0,fr,2022-05-04_16h37.56.149,3-AFC_adaptive_staircase_mess,2022.1.1,36.32703192029937,
,,,,,5,0,5,0,0,0,0,0,,,,,,,,,,,,,[],[],10,up,6000,30,0.003664122665694519,0,0,-1,10,477.0286906300229,None,475.9879377000034,476.3171830000356,476.9695617000107,477.29452570003923,None,None,up,1,1.8074708000058308,476.01963330002036,None,None,None,right,0.6476143999025226,474.8597674999619,None,474.8597674999619,None,tsbvqq,001,0,fr,2022-05-04_16h37.56.149,3-AFC_adaptive_staircase_mess,2022.1.1,36.32703192029937,
,,,,,5,0,5,0,1,0,1,0,,,,,,,,,,,,,,,,left,6000,30,0.003664122665694519,0,0,-1,10,479.379239629989,479.5973511999473,479.35172919998877,479.6634158999659,None,None,None,None,left,1,0.8251648000441492,479.38575899996795,None,None,None,,,,,,,tsbvqq,001,0,fr,2022-05-04_16h37.56.149,3-AFC_adaptive_staircase_mess,2022.1.1,36.32703192029937,
,,,,,5,0,5,0,2,0,2,0,,,,,,,,,,,,,,,,left,6000,10,0.00036641226656945183,-1,0,-1,-10,481.7534552299534,None,481.72594479995314,482.05791400000453,None,None,None,None,left,1,0.7728361000772566,481.75813339999877,None,None,None,,,,,,,tsbvqq,001,0,fr,2022-05-04_16h37.56.149,3-AFC_adaptive_staircase_mess,2022.1.1,36.32703192029937,
,,,,,5,0,5,0,3,0,3,0,,,,,,,,,,,,,,,,left,6000,10,0.00036641226656945183,-1,0,-1,-10,484.11313043002735,None,484.05498849996366,484.37649040005635,None,None,None,None,left,1,0.3181795999407768,484.1171520999633,None,None,None,,,,,,,tsbvqq,001,0,fr,2022-05-04_16h37.56.149,3-AFC_adaptive_staircase_mess,2022.1.1,36.32703192029937,
,,,,,5,0,5,0,4,0,4,0,,,,,,,,,,,,,,,,left,6000,0,0.00011586973249842387,-1,0,-1,-10,485.9652822299744,None,485.93777179997414,486.266526899999,None,None,None,None,left,1,0.44616719998884946,485.97253220004495,None,None,None,,,,,,,tsbvqq,001,0,fr,2022-05-04_16h37.56.149,3-AFC_adaptive_staircase_mess,2022.1.1,36.32703192029937,
,,,,,5,0,5,0,5,0,5,0,,,,,,,,,,,,,,,,right,6000,0,0.00011586973249842387,-1,0,-1,-10,None,None,487.9163928000489,488.2361469999887,None,None,None,None,left,0,0.42519009998068213,487.97787229996175,None,None,None,,,,,,,tsbvqq,001,0,fr,2022-05-04_16h37.56.149,3-AFC_adaptive_staircase_mess,2022.1.1,36.32703192029937,
,,,,,5,0,5,0,6,0,6,0,,,,,,,,,,,,,,,,right,6000,5,0.000206048759548665,1,1,1,5,491.96729133002225,492.1792114999844,489.9041174000595,490.20790559996385,490.9371510000201,491.27158589998726,491.9064495000057,492.20971650001593,right,1,2.699679599958472,489.9750407000538,None,492.47058399999514,None,,,,,,,tsbvqq,001,0,fr,2022-05-04_16h37.56.149,3-AFC_adaptive_staircase_mess,2022.1.1,36.32703192029937,
,,,,,5,0,5,0,7,0,7,0,,,,,,,,,,,,,,,,left,6000,5,0.000206048759548665,1,1,1,5,494.24781532996565,None,494.18800179997925,494.5093141000252,None,None,None,None,left,1,0.6948243000078946,494.25214470003266,None,None,None,,,,,,,tsbvqq,001,0,fr,2022-05-04_16h37.56.149,3-AFC_adaptive_staircase_mess,2022.1.1,36.32703192029937,
,,,,,5,0,5,0,8,0,8,0,,,,,,,,,,,,,,,,left,6000,-5,6.515833892261494e-05,-1,2,-1,-5.0,496.4664511300274,None,496.43894070002716,496.76118639996275,497.42802250001114,497.7509213000303,None,None,left,1,1.4527915000217035,496.47053719998803,None,None,None,,,,,,,tsbvqq,001,0,fr,2022-05-04_16h37.56.149,3-AFC_adaptive_staircase_mess,2022.1.1,36.32703192029937,
,,,,,5,0,5,0,9,0,9,0,,,,,,,,,,,,,,,,up,6000,-5,6.515833892261494e-05,-1,2,-1,-5.0,500.4796663299552,None,499.4302828999935,499.75459919997957,500.415320900036,500.75220500002615,501.4397382000461,501.7570719999494,left,0,2.857887899968773,499.4971823999658,None,501.9804301999975,None,,,,,,,tsbvqq,001,0,fr,2022-05-04_16h37.56.149,3-AFC_adaptive_staircase_mess,2022.1.1,36.32703192029937,
,,,,,5,0,5,0,10,0,10,0,,,,,,,,,,,,,,,,right,6000,-2.5,8.689004143746872e-05,1,3,1,2.5,505.9155883300467,None,503.86695559998043,504.18468339997344,504.885064400034,505.21786560001783,505.8880779000465,506.2206862999592,right,1,2.7456627000356093,503.92954919999465,None,506.43831460003275,None,,,,,,,tsbvqq,001,0,fr,2022-05-04_16h37.56.149,3-AFC_adaptive_staircase_mess,2022.1.1,36.32703192029937,
,,,,,5,0,5,0,11,0,11,0,,,,,,,,,,,,,,,,right,6000,-2.5,8.689004143746872e-05,1,3,1,2.5,510.2387983299908,510.4614523999626,508.17900330002885,508.5072946000146,509.1897504000226,509.50987700000405,510.1780239000218,510.49246710003354,right,1,2.2721886999206617,508.24246940005105,None,None,None,,,,,,,tsbvqq,001,0,fr,2022-05-04_16h37.56.149,3-AFC_adaptive_staircase_mess,2022.1.1,36.32703192029937,
,,,,,5,0,5,0,12,0,12,0,,,,,,,,,,,,,,,,up,6000,-7.5,4.886186104779051e-05,-1,4,-1,-5.0,513.0419504300575,None,511.99894660001155,512.3125701999525,513.0144400000572,513.3515200000256,514.0014674999984,514.3164550999645,right,0,2.262678000028245,512.0454755000537,None,None,None,,,,,,,tsbvqq,001,0,fr,2022-05-04_16h37.56.149,3-AFC_adaptive_staircase_mess,2022.1.1,36.32703192029937,
,,,,,5,0,5,0,13,0,13,0,,,,,,,,,,,,,,,,left,6000,-5.0,6.515833892261494e-05,1,5,1,2.5,515.829164829955,None,515.8016543999547,516.1272454999853,516.7837104999926,517.1173508999636,517.7848432000028,518.1156831999542,right,0,2.682435799972154,515.8483103000326,None,518.3524391000392,None,,,,,,,tsbvqq,001,0,fr,2022-05-04_16h37.56.149,3-AFC_adaptive_staircase_mess,2022.1.1,36.32703192029937,
,,,,,5,0,5,0,14,0,14,0,,,,,,,,,,,,,,,,up,6000,-2.5,8.689004143746872e-05,1,5,1,2.5,521.0924096299917,521.3091000999557,520.0316290999763,520.3665273999795,521.0312968000071,521.3363580000587,522.0577781000175,522.3764452999458,up,1,2.3851198999909684,520.098296900047,None,None,None,,,,,,,tsbvqq,001,0,fr,2022-05-04_16h37.56.149,3-AFC_adaptive_staircase_mess,2022.1.1,36.32703192029937,
,,,,,5,0,5,0,15,0,15,0,,,,,,,,,,,,,,,,left,6000,-2.5,8.689004143746872e-05,1,5,1,2.5,524.0044964299653,None,523.958625099971,524.2632880000165,None,None,None,None,left,1,0.8432300999993458,524.0239149000263,None,None,None,,,,,,,tsbvqq,001,0,fr,2022-05-04_16h37.56.149,3-AFC_adaptive_staircase_mess,2022.1.1,36.32703192029937,
,,,,,5,0,5,0,16,0,16,0,,,,,,,,,,,,,,,,right,6000,-7.5,4.886186104779051e-05,-1,6,-1,-5.0,528.4235291299759,528.6407732999651,526.360984900035,526.6972653999692,527.3806790000526,527.7311393000418,528.348719600006,528.6728176999604,right,1,2.8343129999702796,526.4321977000218,None,528.9329542999621,None,,,,,,,tsbvqq,001,0,fr,2022-05-04_16h37.56.149,3-AFC_adaptive_staircase_mess,2022.1.1,36.32703192029937,
,,,,,6,0,6,0,0,0,0,0,,,,,,,,,,,,,[],[],10,right,8000,30,0.005740768107484416,0,0,-1,10,533.5298157299752,533.7468593999511,531.5038984999992,531.8337680000113,532.5029842000222,532.8331284000305,533.502305299975,533.8098376999842,right,1,2.3531340999761596,531.5374823999591,None,None,None,right,0.6783427000045776,530.3328482999932,None,530.3328482999932,None,tsbvqq,001,0,fr,2022-05-04_16h37.56.149,3-AFC_adaptive_staircase_mess,2022.1.1,36.32703192029937,
,,,,,6,0,6,0,1,0,1,0,,,,,,,,,,,,,,,,right,8000,30,0.005740768107484416,0,0,-1,10,537.4331242300453,None,535.3787953000283,535.6895257000579,536.3567956000334,536.6761852999916,537.3580949000316,537.6571392000187,right,1,2.2098759000655264,535.4409594000317,None,None,None,,,,,,,tsbvqq,001,0,fr,2022-05-04_16h37.56.149,3-AFC_adaptive_staircase_mess,2022.1.1,36.32703192029937,
,,,,,6,0,6,0,2,0,2,0,,,,,,,,,,,,,,,,left,8000,10,0.0005740768107484417,-1,0,-1,-10,539.2056048299768,None,539.1780943999765,539.5068250000477,540.1763184999581,None,None,None,left,1,1.0346411999780685,539.2081623000558,None,None,None,,,,,,,tsbvqq,001,0,fr,2022-05-04_16h37.56.149,3-AFC_adaptive_staircase_mess,2022.1.1,36.32703192029937,
,,,,,6,0,6,0,3,0,3,0,,,,,,,,,,,,,,,,up,8000,10,0.0005740768107484417,-1,0,-1,-10,542.7598357299925,None,541.7448440999724,542.0789280999452,542.7323252999922,543.0499359000241,None,None,up,1,1.4863392999395728,541.7807509000413,None,None,None,,,,,,,tsbvqq,001,0,fr,2022-05-04_16h37.56.149,3-AFC_adaptive_staircase_mess,2022.1.1,36.32703192029937,
,,,,,6,0,6,0,4,0,4,0,,,,,,,,,,,,,,,,right,8000,0,0.0001815390273850507,-1,0,-1,-10,546.7687658300041,546.9917069999501,544.7255474999547,545.0449138999684,545.7431227000197,546.0780986000318,546.7412554000039,547.0519181999844,right,1,2.4025443999562413,544.7840352000203,None,None,None,,,,,,,tsbvqq,001,0,fr,2022-05-04_16h37.56.149,3-AFC_adaptive_staircase_mess,2022.1.1,36.32703192029937,
,,,,,6,0,6,0,5,0,5,0,,,,,,,,,,,,,,,,left,8000,0,0.0001815390273850507,-1,0,-1,-10,548.7270673299557,None,548.6995568999555,549.0201290999539,549.7054605999729,550.0147924999474,None,None,right,0,1.875667699961923,548.7350507000228,None,None,None,,,,,,,tsbvqq,001,0,fr,2022-05-04_16h37.56.149,3-AFC_adaptive_staircase_mess,2022.1.1,36.32703192029937,
,,,,,6,0,6,0,6,0,6,0,,,,,,,,,,,,,,,,up,8000,5,0.00032282711451732784,1,1,1,5,553.1643657300505,None,552.1149556000018,552.450146600022,553.1368553000502,None,None,None,right,0,1.0709722999017686,552.1806893999455,None,None,None,,,,,,,tsbvqq,001,0,fr,2022-05-04_16h37.56.149,3-AFC_adaptive_staircase_mess,2022.1.1,36.32703192029937,
,,,,,6,0,6,0,7,0,7,0,,,,,,,,,,,,,,,,left,8000,10,0.0005740768107484417,1,1,1,5,554.7633142300532,None,554.735803800053,555.0564712999621,555.7230830000481,556.0551995000569,None,None,up,0,1.3500884000677615,554.7653061000165,None,None,None,,,,,,,tsbvqq,001,0,fr,2022-05-04_16h37.56.149,3-AFC_adaptive_staircase_mess,2022.1.1,36.32703192029937,
,,,,,6,0,6,0,8,0,8,0,,,,,,,,,,,,,,,,up,8000,15,0.001020868972334765,1,1,1,5,558.6534040300525,558.8746039000107,557.5852944999933,557.8896815000335,558.5923533999594,558.9047492999816,None,None,up,1,1.2416114000370726,557.6415850999765,None,None,None,,,,,,,tsbvqq,001,0,fr,2022-05-04_16h37.56.149,3-AFC_adaptive_staircase_mess,2022.1.1,36.32703192029937,
,,,,,6,0,6,0,9,0,9,0,,,,,,,,,,,,,,,,up,8000,15,0.001020868972334765,1,1,1,5,561.4223292300361,561.6372942000162,560.3570437000599,560.6758042000001,561.3616301000584,None,None,None,up,1,1.2124139000661671,560.4222695999779,None,None,None,,,,,,,tsbvqq,001,0,fr,2022-05-04_16h37.56.149,3-AFC_adaptive_staircase_mess,2022.1.1,36.32703192029937,
,,,,,6,0,6,0,10,0,10,0,,,,,,,,,,,,,,,,up,8000,5,0.00032282711451732784,-1,2,-1,-5.0,564.1588934300584,None,563.1199891000288,563.4458213000325,564.1029430000344,None,None,None,up,1,1.0305630000075325,563.1486610999564,None,None,None,,,,,,,tsbvqq,001,0,fr,2022-05-04_16h37.56.149,3-AFC_adaptive_staircase_mess,2022.1.1,36.32703192029937,
,,,,,6,0,6,0,11,0,11,0,,,,,,,,,,,,,,,,left,8000,5,0.00032282711451732784,-1,2,-1,-5.0,565.7486591299879,565.9790109000169,565.7211486999877,566.0401939000003,566.6975915000075,None,None,None,left,1,0.9249533999245614,565.7500533000566,None,None,None,,,,,,,tsbvqq,001,0,fr,2022-05-04_16h37.56.149,3-AFC_adaptive_staircase_mess,2022.1.1,36.32703192029937,
,,,,,6,0,6,0,12,0,12,0,,,,,,,,,,,,,,,,right,8000,0.0,0.0001815390273850507,-1,2,-1,-5.0,570.2198336300556,570.4507491999539,568.1596481000306,568.4872750999639,569.1689637999516,569.5026373000583,570.1923232000554,570.5114113000454,up,0,2.6158260999945924,568.2194260000251,None,570.7237107000547,None,,,,,,,tsbvqq,001,0,fr,2022-05-04_16h37.56.149,3-AFC_adaptive_staircase_mess,2022.1.1,36.32703192029937,
,,,,,6,0,6,0,13,0,13,0,,,,,,,,,,,,,,,,up,8000,2.5,0.00024208618379204972,1,3,1,2.5,573.3522872300003,None,572.3230515000178,572.6393424000125,573.3247768000001,573.6463877999922,574.3111742000328,574.6182637000456,up,1,2.3690668999915943,572.353653499973,None,None,None,,,,,,,tsbvqq,001,0,fr,2022-05-04_16h37.56.149,3-AFC_adaptive_staircase_mess,2022.1.1,36.32703192029937,
,,,,,6,0,6,0,14,0,14,0,,,,,,,,,,,,,,,,left,8000,2.5,0.00024208618379204972,1,3,1,2.5,576.2543350300169,None,576.1974906000542,576.5144245000556,577.2045516000362,577.534194399952,578.2094849999994,578.5434038999956,up,0,2.5289889000123367,576.2572601999855,None,578.7519454000285,None,,,,,,,tsbvqq,001,0,fr,2022-05-04_16h37.56.149,3-AFC_adaptive_staircase_mess,2022.1.1,36.32703192029937,
,,,,,6,0,6,0,15,0,15,0,,,,,,,,,,,,,,,,up,8000,5.0,0.00032282711451732784,1,3,1,2.5,581.3408018299727,581.5670918000396,580.3029535999522,580.6330262999982,581.2838185,581.5947229999583,None,None,up,1,1.3024534999858588,580.3323955000378,None,None,None,,,,,,,tsbvqq,001,0,fr,2022-05-04_16h37.56.149,3-AFC_adaptive_staircase_mess,2022.1.1,36.32703192029937,
,,,,,6,0,6,0,16,0,16,0,,,,,,,,,,,,,,,,left,8000,5.0,0.00032282711451732784,1,3,1,2.5,583.1754951300449,None,583.1154648000374,583.4246187000535,584.1150247999467,584.4414627000224,585.1153452000581,None,left,1,2.008143899962306,583.1789261000231,None,None,None,,,,,,,tsbvqq,001,0,fr,2022-05-04_16h37.56.149,3-AFC_adaptive_staircase_mess,2022.1.1,36.32703192029937,
,,,,,6,0,6,0,17,0,17,0,,,,,,,,,,,,,,,,up,8000,0.0,0.0001815390273850507,-1,4,-1,-5.0,587.7157295300043,587.9372739000246,586.6720077999635,586.987960999948,587.6550376999658,587.9671391999582,588.647816700046,588.9570818999782,right,0,2.5012715000193566,586.7014273999957,None,589.2237628999865,None,,,,,,,tsbvqq,001,0,fr,2022-05-04_16h37.56.149,3-AFC_adaptive_staircase_mess,2022.1.1,36.32703192029937,
,,,,,6,0,6,0,18,0,18,0,,,,,,,,,,,,,,,,left,8000,2.5,0.00024208618379204972,1,5,1,2.5,590.7536571299773,590.9726455999771,590.6924316999502,591.0027430000482,591.6772159000393,None,None,None,left,1,0.9873384999809787,590.7591972999508,None,None,None,,,,,,,tsbvqq,001,0,fr,2022-05-04_16h37.56.149,3-AFC_adaptive_staircase_mess,2022.1.1,36.32703192029937,
,,,,,6,0,6,0,19,0,19,0,,,,,,,,,,,,,,,,right,8000,2.5,0.00024208618379204972,1,5,1,2.5,595.2881955299875,595.5149946999736,593.2455603999551,593.5698972999817,594.2499268000247,594.5766771000344,595.2308875999879,595.542467799969,right,1,2.8419284999836236,593.2737688999623,None,595.7842429999728,None,,,,,,,tsbvqq,001,0,fr,2022-05-04_16h37.56.149,3-AFC_adaptive_staircase_mess,2022.1.1,36.32703192029937,
,,,,,6,0,6,0,20,0,20,0,,,,,,,,,,,,,,,,right,8000,-2.5,0.00013613506540389563,-1,6,-1,-5.0,599.6379014300531,599.855557700037,597.5956004000036,597.9311328999465,598.5855340999551,598.9001387000317,599.6103910000529,599.914687499986,right,1,2.82828600006178,597.6548018000321,None,600.1596544999629,None,,,,,,,tsbvqq,001,0,fr,2022-05-04_16h37.56.149,3-AFC_adaptive_staircase_mess,2022.1.1,36.32703192029937,
,,,,,7,0,7,0,0,0,0,0,,,,,,,,,,,,,[],[],10,up,750,30,0.0012851978913844323,0,0,-1,10,603.9294314299826,604.1532209999859,602.8897424000315,603.2127732000081,603.9019209999824,604.2134214000544,None,None,up,1,1.757844900013879,602.9490794000449,None,None,None,right,0.8720076000317931,601.5641377000138,None,601.5641377000138,None,tsbvqq,001,0,fr,2022-05-04_16h37.56.149,3-AFC_adaptive_staircase_mess,2022.1.1,36.32703192029937,
,,,,,7,0,7,0,1,0,1,0,,,,,,,,,,,,,,,,right,750,30,0.0012851978913844323,0,0,-1,10,608.237510429963,None,606.1927726999857,606.5068191000028,607.1988859999692,607.5197759000584,608.2099999999627,608.527114000055,right,1,2.9374484999570996,606.2492076000199,None,608.7524393999483,None,,,,,,,tsbvqq,001,0,fr,2022-05-04_16h37.56.149,3-AFC_adaptive_staircase_mess,2022.1.1,36.32703192029937,
,,,,,7,0,7,0,2,0,2,0,,,,,,,,,,,,,,,,right,750,10,0.00012851978913844324,-1,0,-1,-10,612.7322524299728,None,610.7093099999474,611.0446964000585,611.710775100044,612.0422155000269,612.7047419999726,613.0214720000513,up,0,2.9585219000000507,610.7411877999548,None,613.229461299954,None,,,,,,,tsbvqq,001,0,fr,2022-05-04_16h37.56.149,3-AFC_adaptive_staircase_mess,2022.1.1,36.32703192029937,
,,,,,7,0,7,0,3,0,3,0,,,,,,,,,,,,,,,,right,750,15,0.0002285440948074376,1,1,1,5,617.2574674300034,617.4751311000437,615.1920615000417,615.5160163999535,616.193777199951,616.5182483999524,617.2004578999477,617.4917020000285,right,1,3.6502994999755174,615.2490519999992,None,617.7386784000555,None,,,,,,,tsbvqq,001,0,fr,2022-05-04_16h37.56.149,3-AFC_adaptive_staircase_mess,2022.1.1,36.32703192029937,
,,,,,7,0,7,0,4,0,4,0,,,,,,,,,,,,,,,,right,750,15,0.0002285440948074376,1,1,1,5,622.4520274299779,None,620.3973812999902,620.7254884999711,621.3988507000031,621.7198238000274,622.3904667999595,622.708316699951,right,1,2.551755400025286,620.4589616999729,None,622.9439045999898,None,,,,,,,tsbvqq,001,0,fr,2022-05-04_16h37.56.149,3-AFC_adaptive_staircase_mess,2022.1.1,36.32703192029937,
,,,,,7,0,7,0,5,0,5,0,,,,,,,,,,,,,,,,left,750,5,7.22719885372964e-05,-1,2,-1,-5.0,624.5504937300342,624.7686616999563,624.4916269000387,624.8008222000208,625.5032010000432,625.8289045999991,626.5038754000561,626.8280409000581,right,0,2.9213532001012936,624.5534136999631,None,627.0348700999748,None,,,,,,,tsbvqq,001,0,fr,2022-05-04_16h37.56.149,3-AFC_adaptive_staircase_mess,2022.1.1,36.32703192029937,
,,,,,7,0,7,0,6,0,6,0,,,,,,,,,,,,,,,,left,750,7.5,9.637624565954684e-05,1,3,1,2.5,629.0220813299878,None,628.9626302999677,629.2741839999799,629.9801248000003,630.3064050000394,630.9784845999675,631.3082365000155,right,0,3.249824700062163,629.025607699994,None,631.5150465000188,None,,,,,,,tsbvqq,001,0,fr,2022-05-04_16h37.56.149,3-AFC_adaptive_staircase_mess,2022.1.1,36.32703192029937,
,,,,,7,0,7,0,7,0,7,0,,,,,,,,,,,,,,,,left,750,10.0,0.00012851978913844324,1,3,1,2.5,633.8301998300361,None,633.7732578000287,634.0788906000089,634.7819912000559,635.1077249000082,635.7826708999928,636.1074937999947,right,0,3.04808109998703,633.8351236999733,None,636.3429161000531,None,,,,,,,tsbvqq,001,0,fr,2022-05-04_16h37.56.149,3-AFC_adaptive_staircase_mess,2022.1.1,36.32703192029937,
,,,,,7,0,7,0,8,0,8,0,,,,,,,,,,,,,,,,right,750,12.5,0.00017138389327322524,1,3,1,2.5,640.4237159300013,640.6550357999513,638.386373699992,638.7117735999636,639.3889007000253,639.7138610000256,640.3672896999633,640.6859401999973,right,1,2.469845699961297,638.444475300028,None,640.9293333999813,None,,,,,,,tsbvqq,001,0,fr,2022-05-04_16h37.56.149,3-AFC_adaptive_staircase_mess,2022.1.1,36.32703192029937,
,,,,,7,0,7,0,9,0,9,0,,,,,,,,,,,,,,,,right,750,12.5,0.00017138389327322524,1,3,1,2.5,644.475366330042,644.6931143000256,642.4172447000165,642.7494999000337,643.4225124999648,643.7319671000587,644.4146083999658,644.7241309999954,right,1,2.550287500023842,642.4775601000292,None,644.9822785999859,None,,,,,,,tsbvqq,001,0,fr,2022-05-04_16h37.56.149,3-AFC_adaptive_staircase_mess,2022.1.1,36.32703192029937,
,,,,,7,0,7,0,10,0,10,0,,,,,,,,,,,,,,,,right,750,7.5,9.637624565954684e-05,-1,4,-1,-5.0,648.5622288299841,None,646.5076396999648,646.8159273000201,647.5207582999719,647.8224338999717,648.5046623999951,648.8273582999827,right,1,2.5738206000532955,646.565788900014,None,649.0636149999918,None,,,,,,,tsbvqq,001,0,fr,2022-05-04_16h37.56.149,3-AFC_adaptive_staircase_mess,2022.1.1,36.32703192029937,
,,,,,7,0,7,0,11,0,11,0,,,,,,,,,,,,,,,,left,750,7.5,9.637624565954684e-05,-1,4,-1,-5.0,650.6769174300483,650.8995375999948,650.618156200042,650.9305809000507,651.6433174000122,651.9699789000442,652.6278081999626,652.9510335000232,right,0,2.427676700055599,650.6797202000162,None,None,None,,,,,,,tsbvqq,001,0,fr,2022-05-04_16h37.56.149,3-AFC_adaptive_staircase_mess,2022.1.1,36.32703192029937,
,,,,,7,0,7,0,12,0,12,0,,,,,,,,,,,,,,,,right,750,10.0,0.00012851978913844324,1,5,1,2.5,656.6648374300333,None,654.5899112999905,654.923651900026,655.6010321000358,655.9209250999847,656.607631699997,656.9301081000594,up,0,2.678060800069943,654.653146800003,None,657.1560360000003,None,,,,,,,tsbvqq,001,0,fr,2022-05-04_16h37.56.149,3-AFC_adaptive_staircase_mess,2022.1.1,36.32703192029937,
,,,,,7,0,7,0,13,0,13,0,,,,,,,,,,,,,,,,left,750,12.5,0.00017138389327322524,1,5,1,2.5,658.8861969299963,659.1077730000252,658.8272741000401,659.1386727000354,659.8353572000051,660.1579046000261,None,None,left,1,1.4656808000290766,658.8887808000436,None,None,None,,,,,,,tsbvqq,001,0,fr,2022-05-04_16h37.56.149,3-AFC_adaptive_staircase_mess,2022.1.1,36.32703192029937,
,,,,,7,0,7,0,14,0,14,0,,,,,,,,,,,,,,,,right,750,12.5,0.00017138389327322524,1,5,1,2.5,663.8930624300032,None,661.8302429999458,662.13446630002,662.8264458000194,663.164295900031,663.8340080999769,664.1478549999883,right,1,3.2587920000078157,661.8958739000373,None,664.382758700056,None,,,,,,,tsbvqq,001,0,fr,2022-05-04_16h37.56.149,3-AFC_adaptive_staircase_mess,2022.1.1,36.32703192029937,
,,,,,7,0,7,0,15,0,15,0,,,,,,,,,,,,,,,,right,750,7.5,9.637624565954684e-05,-1,6,-1,-5.0,668.6825297300587,None,666.6590193000156,666.9847878,667.6371819999767,667.9687639999902,668.6550193000585,668.9764191999566,right,1,2.658482800005004,666.6885520999786,None,669.187976700021,None,,,,,,,tsbvqq,001,0,fr,2022-05-04_16h37.56.149,3-AFC_adaptive_staircase_mess,2022.1.1,36.32703192029937,
,,,,,8,0,8,0,0,0,0,0,,,,,,,,,,,,,[],[],10,left,500,30,0.002259279721874612,0,0,-1,10,671.5298509300104,671.7520821000217,671.5023405000102,671.8127765000099,672.4919460000237,None,None,None,left,1,1.1123167000478134,671.5311527999584,None,None,None,right,0.5708344000158831,670.440275699948,None,670.440275699948,None,tsbvqq,001,0,fr,2022-05-04_16h37.56.149,3-AFC_adaptive_staircase_mess,2022.1.1,36.32703192029937,
,,,,,8,0,8,0,1,0,1,0,,,,,,,,,,,,,,,,left,500,30,0.002259279721874612,0,0,-1,10,674.2043454300496,None,674.1445233999984,674.4756469000131,None,None,None,None,left,1,0.3207733000162989,674.2102975000162,None,None,None,,,,,,,tsbvqq,001,0,fr,2022-05-04_16h37.56.149,3-AFC_adaptive_staircase_mess,2022.1.1,36.32703192029937,
,,,,,8,0,8,0,2,0,2,0,,,,,,,,,,,,,,,,left,500,10,0.0002259279721874612,-1,0,-1,-10,676.0725246300339,None,676.0124427999835,676.3311337999767,None,None,None,None,left,1,0.453326900023967,676.0773377000587,None,None,None,,,,,,,tsbvqq,001,0,fr,2022-05-04_16h37.56.149,3-AFC_adaptive_staircase_mess,2022.1.1,36.32703192029937,
,,,,,8,0,8,0,3,0,3,0,,,,,,,,,,,,,,,,right,500,10,0.0002259279721874612,-1,0,-1,-10,680.0880531299975,None,678.0473156999797,678.348112000036,679.0267727000173,679.3461946999887,680.032373300055,680.3525117000099,left,0,2.562889000051655,678.0796355999773,None,680.5720701999962,None,,,,,,,tsbvqq,001,0,fr,2022-05-04_16h37.56.149,3-AFC_adaptive_staircase_mess,2022.1.1,36.32703192029937,
,,,,,8,0,8,0,4,0,4,0,,,,,,,,,,,,,,,,up,500,15,0.0004017630610928086,1,1,1,5,683.1793921300326,683.397861000034,682.1322851000587,682.4470006000483,683.1203007999575,683.4300639999565,None,None,up,1,1.777494200039655,682.1621946999803,None,None,None,,,,,,,tsbvqq,001,0,fr,2022-05-04_16h37.56.149,3-AFC_adaptive_staircase_mess,2022.1.1,36.32703192029937,
,,,,,8,0,8,0,5,0,5,0,,,,,,,,,,,,,,,,up,500,15,0.0004017630610928086,1,1,1,5,686.4828992300085,None,685.4344741000095,685.7620654000202,686.4226212999783,686.7457878000569,687.4352784999646,687.7555583999492,up,1,2.4943205000599846,685.492578299949,None,687.9945757000241,None,,,,,,,tsbvqq,001,0,fr,2022-05-04_16h37.56.149,3-AFC_adaptive_staircase_mess,2022.1.1,36.32703192029937,
,,,,,8,0,8,0,6,0,6,0,,,,,,,,,,,,,,,,right,500,5,0.00012704863527746526,-1,2,-1,-5.0,None,None,689.4553302000277,689.7616840000264,690.4736516999546,690.7921532000182,None,None,up,0,1.3713217000477016,689.5121590000344,None,None,None,,,,,,,tsbvqq,001,0,fr,2022-05-04_16h37.56.149,3-AFC_adaptive_staircase_mess,2022.1.1,36.32703192029937,
,,,,,8,0,8,0,7,0,7,0,,,,,,,,,,,,,,,,left,500,7.5,0.00016942207806960129,1,3,1,2.5,692.4244179299916,None,692.3645393999759,692.6934419999598,693.3614541999996,693.6685119000031,694.3633551000385,694.6681443999987,up,0,2.4375949000241235,692.4295675000176,None,None,None,,,,,,,tsbvqq,001,0,fr,2022-05-04_16h37.56.149,3-AFC_adaptive_staircase_mess,2022.1.1,36.32703192029937,
,,,,,8,0,8,0,8,0,8,0,,,,,,,,,,,,,,,,right,500,10.0,0.0002259279721874612,1,3,1,2.5,698.4006817300454,None,696.355596999987,696.6638216000283,697.34776220005,697.6646040000487,698.344805700006,698.6572230999591,right,1,2.670646799961105,696.387709200033,None,698.8971776999533,None,,,,,,,tsbvqq,001,0,fr,2022-05-04_16h37.56.149,3-AFC_adaptive_staircase_mess,2022.1.1,36.32703192029937,
,,,,,8,0,8,0,9,0,9,0,,,,,,,,,,,,,,,,right,500,10.0,0.0002259279721874612,1,3,1,2.5,702.5950499299564,None,700.5454156999476,700.8755003999686,701.5489500999684,701.8705838000169,702.5675394999562,702.8785580999684,right,1,2.418030499946326,700.6087818000233,None,None,None,,,,,,,tsbvqq,001,0,fr,2022-05-04_16h37.56.149,3-AFC_adaptive_staircase_mess,2022.1.1,36.32703192029937,
,,,,,8,0,8,0,10,0,10,0,,,,,,,,,,,,,,,,up,500,5.0,0.00012704863527746526,-1,4,-1,-5.0,705.5378842299455,705.7550210000481,704.5057896999642,704.840692800004,705.4777427000226,705.7872764000203,None,None,right,0,1.6091419999720529,704.5387687999755,None,None,None,,,,,,,tsbvqq,001,0,fr,2022-05-04_16h37.56.149,3-AFC_adaptive_staircase_mess,2022.1.1,36.32703192029937,
,,,,,8,0,8,0,11,0,11,0,,,,,,,,,,,,,,,,right,500,7.5,0.00016942207806960129,1,5,1,2.5,709.6919043299625,None,707.6571738000493,707.9794856000226,708.6423938999651,708.9790748000378,709.6643938999623,709.9866985999979,up,0,2.9591318999882787,707.7151659999508,None,710.2081901000347,None,,,,,,,tsbvqq,001,0,fr,2022-05-04_16h37.56.149,3-AFC_adaptive_staircase_mess,2022.1.1,36.32703192029937,
,,,,,8,0,8,0,12,0,12,0,,,,,,,,,,,,,,,,left,500,10.0,0.0002259279721874612,1,5,1,2.5,712.2094297299976,None,712.1819192999974,712.4989241999574,None,None,None,None,left,1,0.4125501000089571,712.2154304999858,None,None,None,,,,,,,tsbvqq,001,0,fr,2022-05-04_16h37.56.149,3-AFC_adaptive_staircase_mess,2022.1.1,36.32703192029937,
,,,,,8,0,8,0,13,0,13,0,,,,,,,,,,,,,,,,up,500,10.0,0.0002259279721874612,1,5,1,2.5,715.1768659300054,715.3981961000245,714.1486801999854,714.4829939999618,715.1493555000052,715.4633230000036,716.1246835000347,716.4392363999505,up,1,2.623688699910417,714.1790713999653,None,716.6867257000413,None,,,,,,,tsbvqq,001,0,fr,2022-05-04_16h37.56.149,3-AFC_adaptive_staircase_mess,2022.1.1,36.32703192029937,
,,,,,8,0,8,0,14,0,14,0,,,,,,,,,,,,,,,,right,500,5.0,0.00012704863527746526,-1,6,-1,-5.0,720.3458110300475,None,718.301871099975,718.6233034000034,719.2995418000501,719.6240825999994,720.3183006000472,720.6312323999591,left,0,2.682701399899088,718.3601030999562,None,720.8494202999864,None,,,,,,,tsbvqq,001,0,fr,2022-05-04_16h37.56.149,3-AFC_adaptive_staircase_mess,2022.1.1,36.32703192029937,
,,,,,9,0,9,0,0,0,0,0,,,,,,,,,,,,,[],[],10,left,250,30,0.005296268625886445,0,0,-1,10,724.1557797299814,None,724.1282692999812,724.4588463000255,None,None,None,None,left,1,0.8337848000228405,724.161752199987,None,None,None,left,1.5285507999360561,722.1068309999537,None,722.1068309999537,None,tsbvqq,001,0,fr,2022-05-04_16h37.56.149,3-AFC_adaptive_staircase_mess,2022.1.1,36.32703192029937,
,,,,,9,0,9,0,1,0,1,0,,,,,,,,,,,,,,,,left,250,30,0.005296268625886445,0,0,-1,10,726.5278721299604,None,726.4672929999651,726.7987169000553,None,None,None,None,left,1,0.446192100062035,726.5330272000283,None,None,None,,,,,,,tsbvqq,001,0,fr,2022-05-04_16h37.56.149,3-AFC_adaptive_staircase_mess,2022.1.1,36.32703192029937,
,,,,,9,0,9,0,2,0,2,0,,,,,,,,,,,,,,,,right,250,10,0.0005296268625886444,-1,0,-1,-10,730.501254929963,None,728.4745894999942,728.8018411999801,729.478530399967,729.7984780999832,730.4737444999628,730.8004467999563,left,0,2.5719542000442743,728.5029333999846,None,731.013965500053,None,,,,,,,tsbvqq,001,0,fr,2022-05-04_16h37.56.149,3-AFC_adaptive_staircase_mess,2022.1.1,36.32703192029937,
,,,,,9,0,9,0,3,0,3,0,,,,,,,,,,,,,,,,right,250,15,0.0009418245447449003,1,1,1,5,734.6071964300121,734.8303716999944,732.5640683999518,732.8721966999583,733.5641813999973,733.870608999976,734.5467139000539,734.8578538000584,left,0,3.2356335000367835,732.5923293000087,None,735.1039679000387,None,,,,,,,tsbvqq,001,0,fr,2022-05-04_16h37.56.149,3-AFC_adaptive_staircase_mess,2022.1.1,36.32703192029937,
,,,,,9,0,9,0,4,0,4,0,,,,,,,,,,,,,,,,left,250,20,0.0016748271957891384,1,1,1,5,737.3655048299464,737.5864594000159,737.304931199993,737.6189718999667,None,None,None,None,left,1,0.6351706000277773,737.3685616999865,None,None,None,,,,,,,tsbvqq,001,0,fr,2022-05-04_16h37.56.149,3-AFC_adaptive_staircase_mess,2022.1.1,36.32703192029937,
,,,,,9,0,9,0,5,0,5,0,,,,,,,,,,,,,,,,right,250,20,0.0016748271957891384,1,1,1,5,741.5509350300184,None,739.4904709999682,739.8109928000486,740.4956162000308,740.8102361999918,741.4933404000476,741.817067099968,right,1,2.8867872999981046,739.5482139999513,None,742.0464497000212,None,,,,,,,tsbvqq,001,0,fr,2022-05-04_16h37.56.149,3-AFC_adaptive_staircase_mess,2022.1.1,36.32703192029937,
,,,,,9,0,9,0,6,0,6,0,,,,,,,,,,,,,,,,left,250,10,0.0005296268625886444,-1,2,-1,-5.0,743.9768219299498,None,743.9167206999846,744.2451671999879,744.918963199947,745.2503127000527,745.9315396000165,746.2487546999473,up,0,3.6690828000428155,743.9822181999916,None,746.4702386000426,None,,,,,,,tsbvqq,001,0,fr,2022-05-04_16h37.56.149,3-AFC_adaptive_staircase_mess,2022.1.1,36.32703192029937,
,,,,,9,0,9,0,7,0,7,0,,,,,,,,,,,,,,,,right,250,12.5,0.0007062687723113773,1,3,1,2.5,751.1863026300329,None,749.1556479999563,749.4847382999724,750.1396452999907,750.4527475000359,751.1587922000326,751.4747607000172,up,0,3.1173408000031486,749.1896355999634,None,751.688833400025,None,,,,,,,tsbvqq,001,0,fr,2022-05-04_16h37.56.149,3-AFC_adaptive_staircase_mess,2022.1.1,36.32703192029937,
,,,,,9,0,9,0,8,0,8,0,,,,,,,,,,,,,,,,right,250,15.0,0.0009418245447449003,1,3,1,2.5,755.8516803300357,None,753.8239749999484,754.139990500058,754.8198960999725,755.1255997000262,755.8241699000355,756.1385933000129,up,0,3.2188050999538973,753.8566433000378,None,756.3842409000499,None,,,,,,,tsbvqq,001,0,fr,2022-05-04_16h37.56.149,3-AFC_adaptive_staircase_mess,2022.1.1,36.32703192029937,
,,,,,9,0,9,0,9,0,9,0,,,,,,,,,,,,,,,,left,250,17.5,0.0012559432157547902,1,3,1,2.5,758.6321351300343,758.8516768000554,758.5749506000429,758.87975740002,759.5672997999936,759.8774852999486,None,None,left,1,1.827436099993065,758.6390831000172,None,None,None,,,,,,,tsbvqq,001,0,fr,2022-05-04_16h37.56.149,3-AFC_adaptive_staircase_mess,2022.1.1,36.32703192029937,
,,,,,9,0,9,0,10,0,10,0,,,,,,,,,,,,,,,,up,250,17.5,0.0012559432157547902,1,3,1,2.5,763.0138978299568,763.2428117999807,761.9706430999795,762.3020138000138,762.9559415000258,763.2749920999631,763.9550980000058,764.2644688000437,left,0,2.655885100015439,762.003222099971,None,764.4989105999703,None,,,,,,,tsbvqq,001,0,fr,2022-05-04_16h37.56.149,3-AFC_adaptive_staircase_mess,2022.1.1,36.32703192029937,
,,,,,9,0,9,0,11,0,11,0,,,,,,,,,,,,,,,,right,250,20.0,0.0016748271957891384,1,3,1,2.5,768.1945089300046,768.4169468999607,766.1314916999545,766.4616322000511,767.1397918000584,767.4697124999948,768.1352284000022,768.4454733999446,right,1,2.579490799922496,766.1911613000557,None,768.6810910999775,None,,,,,,,tsbvqq,001,0,fr,2022-05-04_16h37.56.149,3-AFC_adaptive_staircase_mess,2022.1.1,36.32703192029937,
,,,,,9,0,9,0,12,0,12,0,,,,,,,,,,,,,,,,left,250,20.0,0.0016748271957891384,1,3,1,2.5,770.313402629958,770.5329085000558,770.2560162000591,770.5604104000377,771.2649754999438,771.5637438000413,772.2521640999475,772.5722720000194,right,0,2.536769300000742,770.3145790999988,None,772.8112494000234,None,,,,,,,tsbvqq,001,0,fr,2022-05-04_16h37.56.149,3-AFC_adaptive_staircase_mess,2022.1.1,36.32703192029937,
,,,,,9,0,9,0,13,0,13,0,,,,,,,,,,,,,,,,left,250,22.5,0.0022334179607548157,1,3,1,2.5,774.4018560300232,None,774.3743456000229,774.6862020000117,None,None,None,None,left,1,0.7347339999396354,774.4048671999481,None,None,None,,,,,,,tsbvqq,001,0,fr,2022-05-04_16h37.56.149,3-AFC_adaptive_staircase_mess,2022.1.1,36.32703192029937,
,,,,,9,0,9,0,14,0,14,0,,,,,,,,,,,,,,,,left,250,22.5,0.0022334179607548157,1,3,1,2.5,776.6578142299899,None,776.6303037999896,776.953249800019,None,None,None,None,left,1,0.4438757000025362,776.6628650999628,None,None,None,,,,,,,tsbvqq,001,0,fr,2022-05-04_16h37.56.149,3-AFC_adaptive_staircase_mess,2022.1.1,36.32703192029937,
,,,,,9,0,9,0,15,0,15,0,,,,,,,,,,,,,,,,up,250,17.5,0.0012559432157547902,-1,4,-1,-5.0,779.6409708300256,779.8619232999627,778.6142601999454,778.9198691999773,779.6134604000254,779.9228407000192,None,None,up,1,1.7281782999634743,778.6438123000553,None,None,None,,,,,,,tsbvqq,001,0,fr,2022-05-04_16h37.56.149,3-AFC_adaptive_staircase_mess,2022.1.1,36.32703192029937,
,,,,,9,0,9,0,16,0,16,0,,,,,,,,,,,,,,,,right,250,17.5,0.0012559432157547902,-1,4,-1,-5.0,783.9244491299963,None,781.8619835999561,782.1754759999458,782.8588425000198,783.1691681999946,783.8638032999588,784.1827009000117,right,1,2.3522742999484763,781.9228239000076,None,None,None,,,,,,,tsbvqq,001,0,fr,2022-05-04_16h37.56.149,3-AFC_adaptive_staircase_mess,2022.1.1,36.32703192029937,
,,,,,9,0,9,0,17,0,17,0,,,,,,,,,,,,,,,,left,250,12.5,0.0007062687723113773,-1,4,-1,-5.0,785.8188765299623,None,785.7606715000002,786.0717553000432,786.7463120999746,787.0777987999609,787.7382716999855,788.0382215999998,right,0,2.4527091999771073,785.8222448000452,None,788.3172716299654,None,,,,,,,tsbvqq,001,0,fr,2022-05-04_16h37.56.149,3-AFC_adaptive_staircase_mess,2022.1.1,36.32703192029937,
,,,,,9,0,9,0,18,0,18,0,,,,,,,,,,,,,,,,left,250,15.0,0.0009418245447449003,1,5,1,2.5,789.8204349299543,790.0397397000343,789.7628586000064,790.068379299948,790.7775070000207,791.1064050999703,791.7615141000133,None,left,1,2.118036900064908,789.8208273999626,None,None,None,,,,,,,tsbvqq,001,0,fr,2022-05-04_16h37.56.149,3-AFC_adaptive_staircase_mess,2022.1.1,36.32703192029937,
,,,,,9,0,9,0,19,0,19,0,,,,,,,,,,,,,,,,up,250,15.0,0.0009418245447449003,1,5,1,2.5,794.4547324299696,794.6764236999443,793.4074942000443,793.7075174000347,794.4272219999693,794.7385261999443,None,None,up,1,1.3193527000257745,793.4682171000168,None,None,None,,,,,,,tsbvqq,001,0,fr,2022-05-04_16h37.56.149,3-AFC_adaptive_staircase_mess,2022.1.1,36.32703192029937,
,,,,,9,0,9,0,20,0,20,0,,,,,,,,,,,,,,,,right,250,10.0,0.0005296268625886444,-1,6,-1,-5.0,None,None,796.2824940000428,796.5839430999476,None,None,None,None,right,1,0.49505050003062934,796.3398296999512,None,None,None,,,,,,,tsbvqq,001,0,fr,2022-05-04_16h37.56.149,3-AFC_adaptive_staircase_mess,2022.1.1,36.32703192029937,
,,,,,10,0,10,0,0,0,0,0,,,,,,,,,,,,,[],[],10,right,125,30,0.02285440948074376,0,0,-1,10,801.2491423300584,801.4656742999796,799.2013663999969,799.5303916999837,800.2091178999981,800.5399892999558,801.2216319000581,801.521461199969,right,1,2.4385849999962375,799.259958300041,None,None,None,left,0.8350600000703707,797.9046285999939,None,797.9046285999939,None,tsbvqq,001,0,fr,2022-05-04_16h37.56.149,3-AFC_adaptive_staircase_mess,2022.1.1,36.32703192029937,
,,,,,10,0,10,0,1,0,1,0,,,,,,,,,,,,,,,,up,125,30,0.02285440948074376,0,0,-1,10,804.2227304299944,804.4471765999915,803.1898998999968,803.5175857000286,804.1952199999942,804.5091138000134,None,None,up,1,1.6796838999725878,803.2199733000016,None,None,None,,,,,,,tsbvqq,001,0,fr,2022-05-04_16h37.56.149,3-AFC_adaptive_staircase_mess,2022.1.1,36.32703192029937,
,,,,,10,0,10,0,2,0,2,0,,,,,,,,,,,,,,,,up,125,10,0.002285440948074376,-1,0,-1,-10,None,None,806.3896016000072,806.6892441000091,None,None,None,None,left,0,0.6291845999658108,806.4627027000533,None,None,None,,,,,,,tsbvqq,001,0,fr,2022-05-04_16h37.56.149,3-AFC_adaptive_staircase_mess,2022.1.1,36.32703192029937,
,,,,,10,0,10,0,3,0,3,0,,,,,,,,,,,,,,,,right,125,15,0.004064152580820497,1,1,1,5,810.6115235300152,None,808.5592720999848,808.8789523000596,809.5946785999695,809.8972626000177,810.584013100015,810.8927989000222,right,1,2.5035946000134572,808.6347165999468,None,811.1373255000217,None,,,,,,,tsbvqq,001,0,fr,2022-05-04_16h37.56.149,3-AFC_adaptive_staircase_mess,2022.1.1,36.32703192029937,
,,,,,10,0,10,0,4,0,4,0,,,,,,,,,,,,,,,,right,125,15,0.004064152580820497,1,1,1,5,814.6730138300103,None,812.6417726000072,812.9553533999715,813.6331979000242,813.9431746000191,814.64550340001,814.958571300027,right,1,2.460223500034772,812.6946132000303,None,815.1919679299812,None,,,,,,,tsbvqq,001,0,fr,2022-05-04_16h37.56.149,3-AFC_adaptive_staircase_mess,2022.1.1,36.32703192029937,
,,,,,10,0,10,0,5,0,5,0,,,,,,,,,,,,,,,,right,125,5,0.0012851978913844323,-1,2,-1,-5.0,818.6823854300077,None,816.6272926999955,816.9279163000174,817.6349071000004,817.9482192000141,818.6245886000106,818.9195905999513,right,1,2.341310500050895,816.6862484000158,None,None,None,,,,,,,tsbvqq,001,0,fr,2022-05-04_16h37.56.149,3-AFC_adaptive_staircase_mess,2022.1.1,36.32703192029937,
,,,,,10,0,10,0,6,0,6,0,,,,,,,,,,,,,,,,left,125,5,0.0012851978913844323,-1,2,-1,-5.0,820.5775376300211,None,820.5215754000237,820.8257555000018,821.5345478999661,821.8600785000017,822.5324807000579,822.8551454000408,right,0,2.475323299993761,820.5830904999748,None,823.0639410000294,None,,,,,,,tsbvqq,001,0,fr,2022-05-04_16h37.56.149,3-AFC_adaptive_staircase_mess,2022.1.1,36.32703192029937,
,,,,,10,0,10,0,7,0,7,0,,,,,,,,,,,,,,,,right,125,7.5,0.0017138389327322524,1,3,1,2.5,826.5637721299776,None,824.5238253000425,824.8552073000465,825.5361448000185,825.8638083999977,826.5061331000179,826.8302822000114,right,1,2.6608864000299945,824.5740338000469,None,827.066490199999,None,,,,,,,tsbvqq,001,0,fr,2022-05-04_16h37.56.149,3-AFC_adaptive_staircase_mess,2022.1.1,36.32703192029937,
,,,,,10,0,10,0,8,0,8,0,,,,,,,,,,,,,,,,up,125,7.5,0.0017138389327322524,1,3,1,2.5,829.785721330007,None,828.7329151999438,829.046025800053,829.7281188999768,830.0347234000219,830.7345409999834,None,up,1,2.2052508000051603,828.7904108000221,None,None,None,,,,,,,tsbvqq,001,0,fr,2022-05-04_16h37.56.149,3-AFC_adaptive_staircase_mess,2022.1.1,36.32703192029937,
,,,,,10,0,10,0,9,0,9,0,,,,,,,,,,,,,,,,left,125,2.5,0.0009637624565954683,-1,4,-1,-5.0,832.5181366299861,832.7466321999673,832.4458976000315,832.7762648999924,833.4790325999493,833.7985566999996,834.4541876000585,834.7798801000463,up,0,2.475988599937409,832.5189482000424,None,835.0176695999689,None,,,,,,,tsbvqq,001,0,fr,2022-05-04_16h37.56.149,3-AFC_adaptive_staircase_mess,2022.1.1,36.32703192029937,
,,,,,10,0,10,0,10,0,10,0,,,,,,,,,,,,,,,,up,125,5.0,0.0012851978913844323,1,5,1,2.5,837.5242920300574,837.7446045000106,836.481405199971,836.8091856000246,837.4967816000571,837.8072007000446,838.4975506999763,838.8210749999853,up,1,3.046941800042987,836.5405315000098,None,839.0279096000595,None,,,,,,,tsbvqq,001,0,fr,2022-05-04_16h37.56.149,3-AFC_adaptive_staircase_mess,2022.1.1,36.32703192029937,
,,,,,10,0,10,0,11,0,11,0,,,,,,,,,,,,,,,,left,125,5.0,0.0012851978913844323,1,5,1,2.5,841.1201450300053,None,841.0926346000051,841.4122955000494,842.0717438999563,842.4048865999794,843.0640862999717,843.3637756999815,up,0,3.201096900040284,841.1221680999734,None,843.6451318999752,None,,,,,,,tsbvqq,001,0,fr,2022-05-04_16h37.56.149,3-AFC_adaptive_staircase_mess,2022.1.1,36.32703192029937,
,,,,,10,0,10,0,12,0,12,0,,,,,,,,,,,,,,,,left,125,7.5,0.0017138389327322524,1,5,1,2.5,845.860887030058,846.0752703000326,845.8333766000578,846.1576777000446,846.8345989000518,847.1602502999594,847.8117599999532,848.1311950000236,up,0,3.4535837000003085,845.8617915000068,None,848.3800400999608,None,,,,,,,tsbvqq,001,0,fr,2022-05-04_16h37.56.149,3-AFC_adaptive_staircase_mess,2022.1.1,36.32703192029937,
,,,,,10,0,10,0,13,0,13,0,,,,,,,,,,,,,,,,right,125,10.0,0.002285440948074376,1,5,1,2.5,852.8252576300059,853.0488370000385,850.7974498999538,851.1146084000356,851.7931630000239,852.119003699976,852.7977472000057,853.104069699999,right,1,3.654839599970728,850.8282926999964,None,853.341733600013,None,,,,,,,tsbvqq,001,0,fr,2022-05-04_16h37.56.149,3-AFC_adaptive_staircase_mess,2022.1.1,36.32703192029937,
,,,,,10,0,10,0,14,0,14,0,,,,,,,,,,,,,,,,left,125,10.0,0.002285440948074376,1,5,1,2.5,856.0339763299911,None,855.9862535999855,856.2945137999486,856.9781657999847,857.303215199965,858.0111154000042,858.3381487999577,right,0,2.4669107000809163,856.0478697000071,None,858.5445024300483,None,,,,,,,tsbvqq,001,0,fr,2022-05-04_16h37.56.149,3-AFC_adaptive_staircase_mess,2022.1.1,36.32703192029937,
,,,,,10,0,10,0,15,0,15,0,,,,,,,,,,,,,,,,up,125,12.5,0.0030476844862008467,1,5,1,2.5,861.0530840299674,None,860.0118574999506,860.3403048999608,860.9922654000111,861.3008713000454,862.0016095299856,None,up,1,1.9260297999717295,860.0440018000081,None,None,None,,,,,,,tsbvqq,001,0,fr,2022-05-04_16h37.56.149,3-AFC_adaptive_staircase_mess,2022.1.1,36.32703192029937,
,,,,,10,0,10,0,16,0,16,0,,,,,,,,,,,,,,,,up,125,12.5,0.0030476844862008467,1,5,1,2.5,864.5015376300202,None,863.470242899959,863.794334199978,864.4740272000199,864.777444700012,None,None,up,1,1.5150036999257281,863.527282300056,None,None,None,,,,,,,tsbvqq,001,0,fr,2022-05-04_16h37.56.149,3-AFC_adaptive_staircase_mess,2022.1.1,36.32703192029937,
,,,,,10,0,10,0,17,0,17,0,,,,,,,,,,,,,,,,right,125,7.5,0.0017138389327322524,-1,6,-1,-5.0,868.563257230015,868.7831072000554,866.4973133000312,866.8279394999845,867.4997189999558,867.807705800049,868.5020004999824,868.8128460999578,right,1,3.0240532000316307,866.5622719000094,None,869.0492627000203,None,,,,,,,tsbvqq,001,0,fr,2022-05-04_16h37.56.149,3-AFC_adaptive_staircase_mess,2022.1.1,36.32703192029937,
,,,,,,,,,,,,,,,,,,,,,,,,,,,,,,,,,,,,,,,,,,,,,,,,,,,up,1.4594343999633566,870.671587800025,None,870.671587800025,None,,,,,,,,,
