tTrials.thisRepN,tTrials.thisTrialN,tTrials.thisN,tTrials.thisIndex,blocks.thisRepN,blocks.thisTrialN,blocks.thisN,blocks.thisIndex,trials.thisRepN,trials.thisTrialN,trials.thisN,trials.thisIndex,tStart_text.started,tStart_text.stopped,Prediction,practice_Frequency,practice_Level,practice_Psychopy_Level,practice_isCatchTrial,Practice_trial_detection,practice_Cue_Delays,practice_Cue_Frequencies,practice_Interval,practice_Cue_Intensities,tCue_visual_cue.started,tCue_visual_cue.stopped,tProbe_visual_cue.started,tProbe_visual_cue.stopped,tFeedback.keys,tFeedback.corr,tFeedback.rt,tFeedback.started,tFeedback.stopped,tToo_late.keys,tToo_late.corr,tToo_early.keys,tToo_early.corr,more_instructions.started,more_instructions.stopped,readyy.keys,readyy.rt,readyy.started,readyy.stopped,txt_rhythm.started,txt_rhythm.stopped,sound_1.started,sound_1.stopped,sound_2.started,sound_2.stopped,sound_3.started,sound_3.stopped,sound_4.started,sound_4.stopped,cross.started,cross.stopped,sound_5.started,sound_5.stopped,circle.started,circle.stopped,rhythm_ready.keys,rhythm_ready.rt,rhythm_ready.started,rhythm_ready.stopped,rhytm_ready_txt.started,rhytm_ready_txt.stopped,txt_freq.started,txt_freq.stopped,sound_6.started,sound_6.stopped,sound_7.started,sound_7.stopped,sound_8.started,sound_8.stopped,sound_9.started,sound_9.stopped,cross_2.started,cross_2.stopped,sound_10.started,sound_10.stopped,circle_2.started,circle_2.stopped,freq_ready.keys,freq_ready.rt,freq_ready.started,freq_ready.stopped,freq_ready_txt.started,freq_ready_txt.stopped,txt_freq_2.started,txt_freq_2.stopped,sound_11.started,sound_11.stopped,sound_12.started,sound_12.stopped,sound_13.started,sound_13.stopped,sound_14.started,sound_14.stopped,cross_3.started,cross_3.stopped,sound_15.started,sound_15.stopped,circle_3.started,circle_3.stopped,freq_ready_2.keys,freq_ready_2.rt,freq_ready_2.started,freq_ready_2.stopped,freq_ready_txt_2.started,freq_ready_txt_2.stopped,txt_freq_3.started,txt_freq_3.stopped,sound_16.started,sound_16.stopped,sound_17.started,sound_17.stopped,sound_18.started,sound_18.stopped,sound_19.started,sound_19.stopped,cross_4.started,cross_4.stopped,sound_20.started,sound_20.stopped,circle_4.started,circle_4.stopped,freq_ready_txt_3.started,freq_ready_txt_3.stopped,tStart_text_2.started,tStart_text_2.stopped,this_trial_is.started,this_trial_is.stopped,Frequency,Level,Psychopy_Level,Real trial detection,Cue Delays,Cue Frequencies,Interval,Cue Intensities,Catch trial,cue_visual_cue.started,cue_visual_cue.stopped,probe_visual_cue.started,probe_visual_cue.stopped,feedback.keys,feedback.corr,feedback.rt,feedback.started,feedback.stopped,answer_too_late.keys,answer_too_late.corr,answer_too_early.keys,answer_too_early.corr,Catch trial answer,answer_too_early.rt,Audiogram_both,Audiogram_frequency,Audiogram_time,Audiogram_none,goodbye_text.started,goodbye_text.stopped,key_resp.keys,key_resp.rt,key_resp.started,key_resp.stopped,participant,session,Language (english or french),Skip training? (1 for yes),Resume previous experiment,date,expName,psychopyVersion,frameRate,
0,0,0,0,,,,,,,,,18.215076900087297,None,both,1000,30,0.0013930605843148849,False,1,"[0.696938616956349, 0.696938616956349, 0.696938616956349, 0.696938616956349]","[1587.4010519682001, 1414.2135623730956, 1259.9210498948735, 1122.4620483093731]",Tone,"[30, 30, 30, 30]",32.352303600055166,35.37951190001331,35.37951190001331,36.596192600089125,['space'],1,[0.5436405000509694],35.37951190001331,37.30522270000074,None,1,None,1,,,,,,,,,,,,,,,,,,,,,,,,,,,,,,,,,,,,,,,,,,,,,,,,,,,,,,,,,,,,,,,,,,,,,,,,,,,,,,,,,,,,,,,,,,,,,,,,,,,,,,,,,,,,,,,,,,,,,,,,,,,,,,,,,cmzntn,001,fr,0,0,2022-05-02_14h47.17.868,Cluster,2022.1.1,None,
1,0,1,0,,,,,,,,,,,both,2500,30,0.002716251657462167,False,1,"[0.6967950362386863, 0.6967950362386863, 0.6967950362386863, 0.6967950362386863]","[992.1256574801249, 1250.0000000000002, 1574.9013123685916, 1984.2513149602494]",Major_3rd,"[30, 30, 30, 30]",40.415681099984795,43.43201420002151,43.43201420002151,44.663994700065814,['space'],1,[0.4759329999797046],43.43201420002151,45.34754990006331,None,1,None,1,,,,,,,,,,,,,,,,,,,,,,,,,,,,,,,,,,,,,,,,,,,,,,,,,,,,,,,,,,,,,,,,,,,,,,,,,,,,,,,,,,,,,,,,,,,,,,,,,,,,,,,,,,,,,,,,,,,,,,,,,,,,,,,,,cmzntn,001,fr,0,0,2022-05-02_14h47.17.868,Cluster,2022.1.1,None,
2,0,2,0,,,,,,,,,,,both,6000,30,0.003664122665694519,True,0,"[0.7463577119684733, 0.7463577119684733, 0.7463577119684733, 0.7463577119684733]","[2381.1015779523, 3000.000000000001, 3779.76314968462, 4762.203155904599]",Major_3rd,"[30, 30, 30, 30]",50.088920400012285,53.26152220007498,53.26152220007498,54.497068600030616,['space'],0,[0.4551287000067532],53.26152220007498,55.22972599999048,None,1,None,1,,,,,,,,,,,,,,,,,,,,,,,,,,,,,,,,,,,,,,,,,,,,,,,,,,,,,,,,,,,,,,,,,,,,,,,,,,,,,,,,,,,,,,,,,,,,,,,,,,,,,,,,,,,,,,,,,,,,,,,,,,,,,,,,,cmzntn,001,fr,0,0,2022-05-02_14h47.17.868,Cluster,2022.1.1,None,
3,0,3,0,,,,,,,,,,,both,440,30,0.0023562289915021436,False,1,"[0.6884444979811041, 0.6884444979811041, 0.6884444979811041, 0.6884444979811041]","[174.614115716502, 220.00000000000006, 277.18263097687213, 349.2282314330039]",Major_3rd,"[30, 30, 30, 30]",59.66340379999019,62.65599730005488,62.65599730005488,63.8824653000338,['space'],1,[1.1876112000318244],62.65599730005488,64.57336250005756,None,1,None,1,,,,,,,,,,,,,,,,,,,,,,,,,,,,,,,,,,,,,,,,,,,,,,,,,,,,,,,,,,,,,,,,,,,,,,,,,,,,,,,,,,,,,,,,,,,,,,,,,,,,,,,,,,,,,,,,,,,,,,,,,,,,,,,,,cmzntn,001,fr,0,0,2022-05-02_14h47.17.868,Cluster,2022.1.1,None,
4,0,4,0,,,,,,,,,,,both,250,30,0.005296268625886445,True,1,"[0.5375511375747186, 0.5375511375747186, 0.5375511375747186, 0.5375511375747186]","[629.9605249474366, 500.00000000000006, 396.8502629920499, 314.9802624737183]",Major_3rd,"[30, 30, 30, 30]",68.07175950007513,70.60796350007877,70.60796350007877,71.82507840008475,None,1,,70.60796350007877,72.3675443000393,None,1,None,1,,,,,,,,,,,,,,,,,,,,,,,,,,,,,,,,,,,,,,,,,,,,,,,,,,,,,,,,,,,,,,,,,,,,,,,,,,,,,,,,,,,,,,,,,,,,,,,,,,,,,,,,,,,,,,,,,,,,,,,,,,,,,,,,,cmzntn,001,fr,0,0,2022-05-02_14h47.17.868,Cluster,2022.1.1,None,
,,,,,,,,,,,,,,,,,,,,,,,,,,,,,,,,,,,,,76.00438110006507,None,space,10.81480399996508,76.00438110006507,None,,,,,,,,,,,,,,,,,,,,,,,,,,,,,,,,,,,,,,,,,,,,,,,,,,,,,,,,,,,,,,,,,,,,,,,,,,,,,,,,,,,,,,,,,,,,,,,,,,,,,,,,,,,,,,,,,,,,,,,,,,,cmzntn,001,fr,0,0,2022-05-02_14h47.17.868,Cluster,2022.1.1,None,
,,,,,,,,,,,,,,,,,,,,,,,,,,,,,,,,,,,,,,,,,,,86.86163540009875,87.88169650000054,88.32461346668812,None,88.82391996676257,None,89.32485866669255,None,89.82812296675208,None,88.24160420009866,90.04149370000232,90.32633506675872,None,90.04149370000232,90.87448009999935,space,1.530032099923119,91.04944070009515,None,,,,,,,,,,,,,,,,,,,,,,,,,,,,,,,,,,,,,,,,,,,,,,,,,,,,,,,,,,,,,,,,,,,,,,,,,,,,,,,,,,,,,,,,,,,,,,,,,,,,,,,cmzntn,001,fr,0,0,2022-05-02_14h47.17.868,Cluster,2022.1.1,None,
,,,,,,,,,,,,,,,,,,,,,,,,,,,,,,,,,,,,,,,,,,,,,,,,,,,,,,,,,,,,,,,91.04944070009515,None,92.62370980007108,93.64229290001094,94.08025046665377,None,94.39512086665879,None,95.09590956668059,None,95.49816156673866,None,94.00400130008347,95.81765600002836,96.09691926668553,None,95.81765600002836,96.64727590000257,space,1.4180656999815255,96.79401200008579,None,,,,,,,,,,,,,,,,,,,,,,,,,,,,,,,,,,,,,,,,,,,,,,,,,,,,,,,,,,,,,,,,,,,,,,,,,,,,,,,,,cmzntn,001,fr,0,0,2022-05-02_14h47.17.868,Cluster,2022.1.1,None,
,,,,,,,,,,,,,,,,,,,,,,,,,,,,,,,,,,,,,,,,,,,,,,,,,,,,,,,,,,,,,,,,,,,,,,,,,,,,,,,,,,,,,96.79401200008579,None,98.26180560002103,99.2829276000848,99.74185276666346,None,100.21933716669834,None,100.72303116665377,None,101.22827666666514,None,99.63795660005417,101.45892400003504,101.73699106666415,None,101.45892400003504,102.28454770008102,space,0.869247299968265,102.46222890005447,None,,,,,,,,,,,,,,,,,,,,,,,,,,,,,,,,,,,,,,,,,,,,,,,,,,,,,,,,,,,cmzntn,001,fr,0,0,2022-05-02_14h47.17.868,Cluster,2022.1.1,None,
,,,,0,0,0,0,0,0,0,0,,,frequency,,,,,,,,,,,,,,,,,,,,,,,,,,,,,,,,,,,,,,,,,,,,,,,,,,,,,,,,,,,,,,,,,,,,,,,,,,,,,,,,,,,,,,,,,,,,,102.46222890005447,None,103.3693021000363,104.39861460006796,104.8476101667077,None,105.158167366699,None,105.84246966668094,None,106.24456546671378,None,104.74355430004653,106.56717100006063,106.83753056667435,None,106.56717100006063,107.39847850007936,107.55855770001654,None,108.57592130010016,None,120.47546520002652,None,204.6530389115239,0.0,0.00025632603457436954,1,"[0.7950234092423719, 0.7420626731099078, 0.7723642464987162, 0.4800634593106468]","[128.92333582479176, 144.71155160477292, 162.43322462832094, 182.3251300298016]",Tone,"[6.0, 6.784655761813158, 7.314859589979637, 7.0]",False,121.46394400007557,124.80625440005679,124.80625440005679,126.04767090000678,['space'],1,[0.13968519994523376],3.8048876667162403,4.829948466736823,None,1,None,1,,,,,,,,,,,,,cmzntn,001,fr,0,0,2022-05-02_14h47.17.868,Cluster,2022.1.1,None,
,,,,0,0,0,0,1,0,1,0,,,both,,,,,,,,,,,,,,,,,,,,,,,,,,,,,,,,,,,,,,,,,,,,,,,,,,,,,,,,,,,,,,,,,,,,,,,,,,,,,,,,,,,,,,,,,,,,,,,,,,,,,,,,,,,,,,,,,,,126.33650010009296,None,248.57927624016617,-1.6602460559522887,0.0001406423481439217,1,"[0.6860030226069511, 0.6860030226069511, 0.6860030226069511, 0.6860030226069511]","[1252.7610508104715, 836.1176891868744, 558.0416071515967, 372.4480887555245]",Perfect_5th,"[7.0, 6.567802545951723, 10.29197494321869, 7.0]",False,127.33064100006595,130.41791050008032,130.41791050008032,131.65271360008046,['space'],1,[0.2961081999819726],3.789793466567062,4.825235266587697,None,1,None,1,,,,,,,,,,,,,cmzntn,001,fr,0,0,2022-05-02_14h47.17.868,Cluster,2022.1.1,None,
,,,,0,0,0,0,2,0,2,0,,,both,,,,,,,,,,,,,,,,,,,,,,,,,,,,,,,,,,,,,,,,,,,,,,,,,,,,,,,,,,,,,,,,,,,,,,,,,,,,,,,,,,,,,,,,,,,,,,,,,,,,,,,,,,,,,,,,,,,132.19043250009418,None,406.12619817811805,-3.0,5.3974738262969606e-05,1,"[0.48198853184199875, 0.48198853184199875, 0.48198853184199875, 0.48198853184199875]","[161.17128855494758, 203.06309908905908, 255.84347299919395, 322.34257710989505]",Major_3rd,"[7.314859589979637, 6.091034987671367, 4.339753944047711, 5.0]",False,133.70616729999892,136.18936429999303,136.18936429999303,137.4187755000312,['space'],1,[0.0707956999540329],2.939713566796854,3.971848566783592,None,1,None,1,,,,,,,,,,,,,cmzntn,001,fr,0,0,2022-05-02_14h47.17.868,Cluster,2022.1.1,None,
,,,,0,0,0,0,3,0,3,0,,,frequency,,,,,,,,,,,,,,,,,,,,,,,,,,,,,,,,,,,,,,,,,,,,,,,,,,,,,,,,,,,,,,,,,,,,,,,,,,,,,,,,,,,,,,,,,,,,,,,,,,,,,,,,,,,,,,,,,,,137.72181560005993,None,,,,,"[0.49294558920726994, 0.7274715771541409, 0.6935042681522172, 0.6064946127376771]","[607.0062522424438, 909.4817634432455, 1362.6829624572988, 2041.717526189052]",Perfect_5th,"[9.728343920540128, 5.794435681114329, 7.352140834021614, 9.289393373675585]",True,138.74601600004826,141.68198400002439,141.68198400002439,142.89837740000803,['space'],0,[0.34228370001073927],3.554925366654061,4.570084766717628,None,1,None,1,0,,,,,,,,,,,,cmzntn,001,fr,0,0,2022-05-02_14h47.17.868,Cluster,2022.1.1,None,
,,,,0,0,0,0,4,0,4,0,,,both,,,,,,,,,,,,,,,,,,,,,,,,,,,,,,,,,,,,,,,,,,,,,,,,,,,,,,,,,,,,,,,,,,,,,,,,,,,,,,,,,,,,,,,,,,,,,,,,,,,,,,,,,,,,,,,,,,,143.35031120001804,None,3813.6310361942737,-8.218954191854056,3.131534048662961e-05,1,"[0.6566790155746118, 0.6566790155746118, 0.6566790155746118, 0.6566790155746118]","[756.7202398341707, 1133.7992905593576, 1698.7795008028463, 2545.293348105941]",Perfect_5th,"[7.283414805690885, 6.386062410243027, 8.884424055216082, 8.0]",False,144.34727920009755,147.35442700004205,147.35442700004205,148.59228860004805,['space'],1,[0.11683970002923161],3.6522088666679338,4.688315866747871,None,1,None,1,,,,,,,,,,,,,cmzntn,001,fr,0,0,2022-05-02_14h47.17.868,Cluster,2022.1.1,None,
,,,,0,0,0,0,5,0,5,0,,,none,,,,,,,,,,,,,,,,,,,,,,,,,,,,,,,,,,,,,,,,,,,,,,,,,,,,,,,,,,,,,,,,,,,,,,,,,,,,,,,,,,,,,,,,,,,,,,,,,,,,,,,,,,,,,,,,,,,149.08101720002014,None,132.65590841510618,0.19942613278023336,0.0006697631676675637,1,"[0.43290314950220843, 0.4279225299770912, 0.7721989599899038, 0.5164824771527146]","[254.32278649670425, 531.9591801938257, 504.36035707345104, 515.799946201118]",None,"[4.339753944047711, 10.563290713616208, 10.506260120300766, 10.506260120300766]",False,150.11097310006153,152.76793680002447,152.76793680002447,154.00296830001753,['space'],1,[0.8329245999921113],3.173528666724451,4.197105266735889,None,1,None,1,,,,,,,,,,,,,cmzntn,001,fr,0,0,2022-05-02_14h47.17.868,Cluster,2022.1.1,None,
,,,,0,0,0,0,6,0,6,0,,,none,,,,,,,,,,,,,,,,,,,,,,,,,,,,,,,,,,,,,,,,,,,,,,,,,,,,,,,,,,,,,,,,,,,,,,,,,,,,,,,,,,,,,,,,,,,,,,,,,,,,,,,,,,,,,,,,,,,154.33965010009706,None,406.12619817811805,-3.0,5.3974738262969606e-05,0,"[0.6470054550242301, 0.46448786362446204, 0.7046182131091467, 0.7570876681151755]","[666.8228386695945, 312.13787791657734, 150.06791849939074, 418.6072154533436]",None,"[8.969791673775818, 5.0, 7.0, 9.0]",False,155.888090500026,158.72892020002473,158.72892020002473,159.94943859998602,None,0,,3.5998704000376165,4.642171900020912,None,1,None,1,,,,,,,,,,,,,cmzntn,001,fr,0,0,2022-05-02_14h47.17.868,Cluster,2022.1.1,None,
,,,,0,0,0,0,7,0,7,0,,,both,,,,,,,,,,,,,,,,,,,,,,,,,,,,,,,,,,,,,,,,,,,,,,,,,,,,,,,,,,,,,,,,,,,,,,,,,,,,,,,,,,,,,,,,,,,,,,,,,,,,,,,,,,,,,,,,,,,160.58263210009318,None,1866.0659830736151,-2.0,5.462138219158348e-05,0,"[0.6152721566513062, 0.6152721566513062, 0.6152721566513062, 0.6152721566513062]","[1175.5479062836087, 1319.5079107728943, 1481.0975522865645, 1662.4757922855758]",Tone,"[6.386062410243027, 7.352140834021614, 8.0, 8.583577695568755]",False,161.61263069999404,164.49785150005482,164.49785150005482,165.73543820006307,None,0,,3.481559266685508,4.496598266647197,None,1,None,1,,,,,,,,,,,,,cmzntn,001,fr,0,0,2022-05-02_14h47.17.868,Cluster,2022.1.1,None,
,,,,0,0,0,0,8,0,8,0,,,frequency,,,,,,,,,,,,,,,,,,,,,,,,,,,,,,,,,,,,,,,,,,,,,,,,,,,,,,,,,,,,,,,,,,,,,,,,,,,,,,,,,,,,,,,,,,,,,,,,,,,,,,,,,,,,,,,,,,,166.1549538000254,None,,,,,"[0.43304602619363985, 0.487209631197264, 0.7891794796179993, 0.40084069641761944]","[2706.9513573682966, 1806.6732775574367, 1205.8097471738333, 804.7814535371629]",Perfect_5th,"[7.0, 9.0, 6.852407138679844, 6.567802545951723]",True,167.1568155999994,169.88388400000986,169.88388400000986,171.11529370001517,None,1,,3.1540825667325407,4.172374266781844,None,1,None,1,0,,,,,,,,,,,,cmzntn,001,fr,0,0,2022-05-02_14h47.17.868,Cluster,2022.1.1,None,
,,,,0,0,0,0,9,0,9,0,,,frequency,,,,,,,,,,,,,,,,,,,,,,,,,,,,,,,,,,,,,,,,,,,,,,,,,,,,,,,,,,,,,,,,,,,,,,,,,,,,,,,,,,,,,,,,,,,,,,,,,,,,,,,,,,,,,,,,,,,171.36075930006336,None,378.9291416275994,-2.0,6.515442175522428e-05,1,"[0.6090554503556602, 0.5231306793286816, 0.6371741644371435, 0.6941554698905301]","[1909.6832078208326, 1274.5606273192618, 850.6671609508554, 567.7522145354385]",Perfect_5th,"[9.133831670886767, 7.0, 6.060043595139046, 10.29197494321869]",False,172.3755620000884,175.16956800001208,175.16956800001208,176.39705630007666,['space'],1,[0.4431297000264749],3.4857894332380965,4.522630933322944,None,1,None,1,,,,,,,,,,,,,cmzntn,001,fr,0,0,2022-05-02_14h47.17.868,Cluster,2022.1.1,None,
,,,,0,0,0,0,10,0,10,0,,,time,,,,,,,,,,,,,,,,,,,,,,,,,,,,,,,,,,,,,,,,,,,,,,,,,,,,,,,,,,,,,,,,,,,,,,,,,,,,,,,,,,,,,,,,,,,,,,,,,,,,,,,,,,,,,,,,,,,176.93818450008985,None,833.4059302902858,0.5678025459517234,4.197361586714395e-05,1,"[0.7641724868833523, 0.7641724868833523, 0.7641724868833523, 0.7641724868833523]","[223.0954509200866, 2763.643044373475, 857.7597489816524, 2917.5133731496153]",None,"[5.0, 6.0, 6.060043595139046, 5.0]",False,177.936554600019,181.25876400002744,181.25876400002744,182.497686500079,['space'],1,[0.2390633000759408],4.084245566744357,5.1128578666830435,None,1,None,1,,,,,,,,,,,,,cmzntn,001,fr,0,0,2022-05-02_14h47.17.868,Cluster,2022.1.1,None,
,,,,0,0,0,0,11,0,11,0,,,both,,,,,,,,,,,,,,,,,,,,,,,,,,,,,,,,,,,,,,,,,,,,,,,,,,,,,,,,,,,,,,,,,,,,,,,,,,,,,,,,,,,,,,,,,,,,,,,,,,,,,,,,,,,,,,,,,,,183.09429240005556,None,221.64440570902738,-0.595488938186178,0.0002082581079653036,1,"[0.6449187724192801, 0.6449187724192801, 0.6449187724192801, 0.6449187724192801]","[1117.017809376972, 745.5199448870443, 497.5748672569371, 332.0913816239621]",Perfect_5th,"[6.386062410243027, 7.283414805690885, 10.506260120300766, 5.489819512384157]",False,184.0954853000585,187.06943800009321,187.06943800009321,188.30799670005217,['space'],1,[0.3156199000077322],3.6092377668246627,4.626314566819929,None,1,None,1,,,,,,,,,,,,,cmzntn,001,fr,0,0,2022-05-02_14h47.17.868,Cluster,2022.1.1,None,
,,,,0,0,0,0,12,0,12,0,,,none,,,,,,,,,,,,,,,,,,,,,,,,,,,,,,,,,,,,,,,,,,,,,,,,,,,,,,,,,,,,,,,,,,,,,,,,,,,,,,,,,,,,,,,,,,,,,,,,,,,,,,,,,,,,,,,,,,,188.7738657000009,None,,,,,"[0.7132915175234434, 0.4605213753031256, 0.6373537966240238, 0.7026499019858758]","[6064.121160162923, 1227.707463051564, 3871.4842689735924, 582.3448430119405]",None,"[3.2849684731018804, 6.852407138679844, -3.0, 10.29197494321869]",True,189.7847255000379,192.6329740000656,192.6329740000656,193.8433989000041,None,1,,3.5318240666529164,4.555706066661514,None,1,None,1,0,,,,,,,,,,,,cmzntn,001,fr,0,0,2022-05-02_14h47.17.868,Cluster,2022.1.1,None,
,,,,0,0,0,0,13,0,13,0,,,both,,,,,,,,,,,,,,,,,,,,,,,,,,,,,,,,,,,,,,,,,,,,,,,,,,,,,,,,,,,,,,,,,,,,,,,,,,,,,,,,,,,,,,,,,,,,,,,,,,,,,,,,,,,,,,,,,,,194.37841300002765,None,1231.1444133449168,-3.0,3.8031236666942956e-05,1,"[0.5587636312736161, 0.5587636312736161, 0.5587636312736161, 0.5587636312736161]","[488.5799842171233, 615.5722066724585, 775.5723809168677, 977.1599684342464]",Major_3rd,"[10.506260120300766, 9.728343920540128, 7.0, 5.786718495687481]",False,195.47231910005212,198.16457150003407,198.16457150003407,199.38967850001063,['space'],1,[0.3476946000009775],3.2574938333127648,4.296743133338168,None,1,None,1,,,,,,,,,,,,,cmzntn,001,fr,0,0,2022-05-02_14h47.17.868,Cluster,2022.1.1,None,
,,,,0,0,0,0,14,0,14,0,,,both,,,,,,,,,,,,,,,,,,,,,,,,,,,,,,,,,,,,,,,,,,,,,,,,,,,,,,,,,,,,,,,,,,,,,,,,,,,,,,,,,,,,,,,,,,,,,,,,,,,,,,,,,,,,,,,,,,,199.8188605000032,None,534.0247893992617,4.563290713616209,0.00011184274889177604,1,"[0.5190480523342806, 0.5190480523342806, 0.5190480523342806, 0.5190480523342806]","[336.41453666490315, 377.61254990593585, 423.8557562347421, 475.76200033096694]",Tone,"[6.0, 7.468817621763936, 9.0, 10.11333014808455]",False,200.83272529998794,203.44096170004923,203.44096170004923,204.65440130000934,['space'],1,[0.5783232999965549],3.104013866861351,4.146302766865119,None,1,None,1,,,,,,,,,,,,,cmzntn,001,fr,0,0,2022-05-02_14h47.17.868,Cluster,2022.1.1,None,
,,,,0,0,0,0,15,0,15,0,,,none,,,,,,,,,,,,,,,,,,,,,,,,,,,,,,,,,,,,,,,,,,,,,,,,,,,,,,,,,,,,,,,,,,,,,,,,,,,,,,,,,,,,,,,,,,,,,,,,,,,,,,,,,,,,,,,,,,,205.0182964000851,None,942.3105290380444,-0.20556431888567062,4.1420825806261006e-05,1,"[0.6925649507112744, 0.5681811888273357, 0.4484304961474346, 0.5730371966953913]","[255.60964534150455, 964.0279362065716, 4545.848103906095, 4925.828836555287]",None,"[4.339753944047711, 5.794435681114329, -3.5669840555213455, -2.4511633178272483]",False,206.01798520004377,208.7418574000476,208.7418574000476,209.97056380007416,['space'],1,[0.5856138999806717],3.304202466737479,4.338315866771154,None,1,None,1,,,,,,,,,,,,,cmzntn,001,fr,0,0,2022-05-02_14h47.17.868,Cluster,2022.1.1,None,
,,,,0,0,0,0,16,0,16,0,,,time,,,,,,,,,,,,,,,,,,,,,,,,,,,,,,,,,,,,,,,,,,,,,,,,,,,,,,,,,,,,,,,,,,,,,,,,,,,,,,,,,,,,,,,,,,,,,,,,,,,,,,,,,,,,,,,,,,,210.40218269999605,None,406.12619817811805,-3.0,5.3974738262969606e-05,1,"[0.69913174699697, 0.69913174699697, 0.69913174699697, 0.69913174699697]","[4337.255033535281, 2979.7985172752556, 514.6846081727473, 231.02247361321406]",None,"[-3.9208068451520646, 4.0, 10.506260120300766, 4.777367351145056]",False,211.43102680006996,214.56488409999292,214.56488409999292,215.78298940008972,['space'],1,[0.33443210006225854],3.809930966817774,4.8474062668392435,None,1,None,1,,,,,,,,,,,,,cmzntn,001,fr,0,0,2022-05-02_14h47.17.868,Cluster,2022.1.1,None,
,,,,0,0,0,0,17,0,17,0,,,none,,,,,,,,,,,,,,,,,,,,,,,,,,,,,,,,,,,,,,,,,,,,,,,,,,,,,,,,,,,,,,,,,,,,,,,,,,,,,,,,,,,,,,,,,,,,,,,,,,,,,,,,,,,,,,,,,,,216.32290690008085,None,4594.793419988137,-9.0,4.430394081148925e-05,1,"[0.7214525983295348, 0.7728639726226072, 0.6652804846404365, 0.5990404840448029]","[1050.499492018192, 218.47908227661406, 856.4105309092623, 183.37166121893685]",None,"[6.0, 5.404511061813822, 6.060043595139046, 7.0]",False,217.3384081000695,220.5203085000394,220.5203085000394,221.76800780009944,['space'],1,[0.36011469992809],3.7649351668078452,4.7970017668558285,None,1,None,1,,,,,,,,,,,,,cmzntn,001,fr,0,0,2022-05-02_14h47.17.868,Cluster,2022.1.1,None,
,,,,0,0,0,0,18,0,18,0,,,time,,,,,,,,,,,,,,,,,,,,,,,,,,,,,,,,,,,,,,,,,,,,,,,,,,,,,,,,,,,,,,,,,,,,,,,,,,,,,,,,,,,,,,,,,,,,,,,,,,,,,,,,,,,,,,,,,,,222.18890559999272,None,,,,,"[0.5468822724696556, 0.5468822724696556, 0.5468822724696556, 0.5468822724696556]","[721.4289644718126, 276.6188731163876, 2943.643599543817, 1527.423262678694]",None,"[8.0, 4.166112115179603, 5.0, 8.232537979003954]",True,223.17903340002522,225.84805939998478,225.84805939998478,227.07381060009357,None,1,,3.210789666743949,4.226720766746439,None,1,None,1,0,,,,,,,,,,,,cmzntn,001,fr,0,0,2022-05-02_14h47.17.868,Cluster,2022.1.1,None,
,,,,0,0,0,0,19,0,19,0,,,both,,,,,,,,,,,,,,,,,,,,,,,,,,,,,,,,,,,,,,,,,,,,,,,,,,,,,,,,,,,,,,,,,,,,,,,,,,,,,,,,,,,,,,,,,,,,,,,,,,,,,,,,,,,,,,,,,,,227.4389414000325,None,707.1067811865476,-4.0,2.801636609927772e-05,1,"[0.7241266290117591, 0.7241266290117591, 0.7241266290117591, 0.7241266290117591]","[1781.797436280679, 1414.2135623730953, 1122.4620483093731, 890.8987181403394]",Major_3rd,"[9.0, 7.813764485311658, 6.386062410243027, 6.0]",False,228.44102580007166,231.64996370009612,231.64996370009612,232.86737400002312,['space'],1,[0.37501129996962845],3.9122208666522056,4.945018666679971,None,1,None,1,,,,,,,,,,,,,cmzntn,001,fr,0,0,2022-05-02_14h47.17.868,Cluster,2022.1.1,None,
,,,,1,0,1,0,0,0,0,0,,,time,,,,,,,,,,,,,,,,,,,,,,,,,,,,,,,,,,,,,,,,,,,,,,,,,,,,,,,,,,,,,,,,,,,,,,,,,,,,,,,,,,,,,,,,,,,,,,,,,,,,,,,,,,,,,,,,,,,239.279829600011,None,1212.72929138044,0.852407138679844,5.841020979982945e-05,1,"[0.6945250726254835, 0.6945250726254835, 0.6945250726254835, 0.6945250726254835]","[473.0806156653582, 289.62478667194546, 2240.4864375083907, 6335.519013735495]",None,"[10.11333014808455, 4.304480393994884, 9.026465128783554, 4.0]",False,240.2732039000839,243.39159620006103,243.39159620006103,244.61731240001973,['space'],1,[0.19053110003005713],3.7953650667332113,4.820769866695628,None,1,None,1,,,,,,,,,,,,,cmzntn,001,fr,0,0,2022-05-02_14h47.17.868,Cluster,2022.1.1,None,
,,,,1,0,1,0,1,0,1,0,,,none,,,,,,,,,,,,,,,,,,,,,,,,,,,,,,,,,,,,,,,,,,,,,,,,,,,,,,,,,,,,,,,,,,,,,,,,,,,,,,,,,,,,,,,,,,,,,,,,,,,,,,,,,,,,,,,,,,,245.14388490002602,None,618.3572864785231,3.7283439205401283,8.138355727157114e-05,1,"[0.6050650796018602, 0.7485970536073686, 0.7216209393938032, 0.5929893321240137]","[143.81301400252042, 350.25175864191124, 804.2204700709751, 956.1408430978944]",None,"[6.784655761813158, 6.427211407105848, 6.567802545951723, 5.794435681114329]",False,246.14144090004265,249.25926180009264,249.25926180009264,250.47728009999264,['space'],1,[0.04895670001860708],3.6862510666251183,4.709160166676156,None,1,None,1,,,,,,,,,,,,,cmzntn,001,fr,0,0,2022-05-02_14h47.17.868,Cluster,2022.1.1,None,
,,,,1,0,1,0,2,0,2,0,,,frequency,,,,,,,,,,,,,,,,,,,,,,,,,,,,,,,,,,,,,,,,,,,,,,,,,,,,,,,,,,,,,,,,,,,,,,,,,,,,,,,,,,,,,,,,,,,,,,,,,,,,,,,,,,,,,,,,,,,250.90332130005118,None,,,,,"[0.760432041382342, 0.43142782138691227, 0.5540919610896529, 0.569365051412628]","[3342.6142602703817, 3751.9576492912124, 4211.430068193435, 4727.170420656085]",Tone,"[1.0, -2.2189541918540563, -3.9208068451520646, -3.0]",True,251.91637079999782,254.70074070000555,254.70074070000555,255.92055170005187,None,1,,3.351309766760096,4.387490666820668,None,1,['space'],0,0,[0.4382022999925539],,,,,,,,,,,cmzntn,001,fr,0,0,2022-05-02_14h47.17.868,Cluster,2022.1.1,None,
,,,,1,0,1,0,3,0,3,0,,,frequency,,,,,,,,,,,,,,,,,,,,,,,,,,,,,,,,,,,,,,,,,,,,,,,,,,,,,,,,,,,,,,,,,,,,,,,,,,,,,,,,,,,,,,,,,,,,,,,,,,,,,,,,,,,,,,,,,,,256.3368996999925,None,220.44430119590695,-0.595488938186178,0.0002104535460246592,1,"[0.7589063314939584, 0.43584058918177043, 0.4673043197199627, 0.4405777311598029]","[138.87120770304435, 155.87766024955553, 174.96675780938864, 196.39354535677637]",Tone,"[6.784655761813158, 7.187234213785111, 7.145550616388114, 6.091034987671367]",False,257.336391900084,260.0421535000205,260.0421535000205,261.27257999998983,['space'],1,[0.4102143000345677],3.120585466735065,4.139144066721201,None,1,None,1,,,,,,,,,,,,,cmzntn,001,fr,0,0,2022-05-02_14h47.17.868,Cluster,2022.1.1,None,
,,,,1,0,1,0,4,0,4,0,,,both,,,,,,,,,,,,,,,,,,,,,,,,,,,,,,,,,,,,,,,,,,,,,,,,,,,,,,,,,,,,,,,,,,,,,,,,,,,,,,,,,,,,,,,,,,,,,,,,,,,,,,,,,,,,,,,,,,,261.5213638000423,None,3325.6696808014453,-5.0,4.054646110161552e-05,1,"[0.5628431122106552, 0.5628431122106552, 0.5628431122106552, 0.5628431122106552]","[5279.171549802961, 4703.207166562406, 4190.081235838905, 3732.938001912769]",Tone,"[-0.7565566727376387, -3.0, -3.9208068451520646, -2.2189541918540563]",False,262.53752580005676,265.26057220005896,265.26057220005896,266.493908500066,['space'],1,[0.5419187999796122],3.2773307667812333,4.310872366768308,None,1,None,1,,,,,,,,,,,,,cmzntn,001,fr,0,0,2022-05-02_14h47.17.868,Cluster,2022.1.1,None,
,,,,1,0,1,0,5,0,5,0,,,none,,,,,,,,,,,,,,,,,,,,,,,,,,,,,,,,,,,,,,,,,,,,,,,,,,,,,,,,,,,,,,,,,,,,,,,,,,,,,,,,,,,,,,,,,,,,,,,,,,,,,,,,,,,,,,,,,,,266.88825730001554,None,2000.0,-1.0,6.667607160816621e-05,0,"[0.579756638831248, 0.7878066431501141, 0.7650909755545643, 0.6362822556234854]","[457.86146930966976, 636.8722045357423, 281.9985475048518, 903.0196596848378]",None,"[10.0, 9.0, 4.304480393994884, 6.0]",False,267.9174406999955,271.0641945000971,271.0641945000971,272.2770746999886,None,0,,3.7720759665826336,4.818484866642393,None,1,None,1,,,,,,,,,,,,,cmzntn,001,fr,0,0,2022-05-02_14h47.17.868,Cluster,2022.1.1,None,
,,,,1,0,1,0,6,0,6,0,,,time,,,,,,,,,,,,,,,,,,,,,,,,,,,,,,,,,,,,,,,,,,,,,,,,,,,,,,,,,,,,,,,,,,,,,,,,,,,,,,,,,,,,,,,,,,,,,,,,,,,,,,,,,,,,,,,,,,,272.7836725000525,None,,,,,"[0.5521973459598204, 0.5521973459598204, 0.5521973459598204, 0.5521973459598204]","[270.07754521816986, 339.9391122471176, 5075.066084623896, 642.7768205013609]",None,"[4.166112115179603, 6.0, -2.0, 9.0]",True,273.8027414000826,276.5007826000219,276.5007826000219,277.7256789000239,['space'],0,[0.35456800006795675],3.2380348667502403,4.276414166786708,None,1,None,1,0,,,,,,,,,,,,cmzntn,001,fr,0,0,2022-05-02_14h47.17.868,Cluster,2022.1.1,None,
,,,,1,0,1,0,7,0,7,0,,,both,,,,,,,,,,,,,,,,,,,,,,,,,,,,,,,,,,,,,,,,,,,,,,,,,,,,,,,,,,,,,,,,,,,,,,,,,,,,,,,,,,,,,,,,,,,,,,,,,,,,,,,,,,,,,,,,,,,278.1162497000769,None,164.93848884661182,-6.0,0.00019703447331607919,0,"[0.4592570369137893, 0.4592570369137893, 0.4592570369137893, 0.4592570369137893]","[261.82353070515677, 233.25824788420192, 207.809474035697, 185.13719403582058]",Tone,"[4.166112115179603, 4.777367351145056, 6.0, 7.0]",False,279.1271775000496,281.54397970007267,281.54397970007267,282.76089180004783,None,0,,2.854164066724479,3.8847988666966558,None,1,None,1,,,,,,,,,,,,,cmzntn,001,fr,0,0,2022-05-02_14h47.17.868,Cluster,2022.1.1,None,
,,,,1,0,1,0,8,0,8,0,,,time,,,,,,,,,,,,,,,,,,,,,,,,,,,,,,,,,,,,,,,,,,,,,,,,,,,,,,,,,,,,,,,,,,,,,,,,,,,,,,,,,,,,,,,,,,,,,,,,,,,,,,,,,,,,,,,,,,,283.06008359999396,None,4924.577653379667,-8.0,5.874332325816365e-05,1,"[0.5938429474281066, 0.5938429474281066, 0.5938429474281066, 0.5938429474281066]","[1310.325001779404, 3085.686447728949, 2009.7901963223828, 2449.4958664917376]",None,"[7.352140834021614, 3.0, 9.289393373675585, 8.406063001497593]",False,284.0699069000548,286.87126570008695,286.87126570008695,288.10418870009016,['space'],1,[0.46970609994605184],3.4022429666947573,4.4328912667697296,None,1,None,1,,,,,,,,,,,,,cmzntn,001,fr,0,0,2022-05-02_14h47.17.868,Cluster,2022.1.1,None,
,,,,1,0,1,0,9,0,9,0,,,none,,,,,,,,,,,,,,,,,,,,,,,,,,,,,,,,,,,,,,,,,,,,,,,,,,,,,,,,,,,,,,,,,,,,,,,,,,,,,,,,,,,,,,,,,,,,,,,,,,,,,,,,,,,,,,,,,,,288.5525401000632,None,164.59457876451484,1.3148595899796374,0.00045884567353175174,1,"[0.7390334290014832, 0.7948303349575805, 0.4808892382697063, 0.763864429734552]","[223.79872041206474, 253.9650767157509, 6566.959052831943, 969.8163610950239]",None,"[5.0, 4.339753944047711, 5.108345794833322, 5.786718495687481]",False,289.55793700006325,292.5929201000836,292.5929201000836,293.8084569000639,['space'],1,[0.4602020001038909],3.8104709667386487,4.839630566770211,None,1,None,1,,,,,,,,,,,,,cmzntn,001,fr,0,0,2022-05-02_14h47.17.868,Cluster,2022.1.1,None,
,,,,1,0,1,0,10,0,10,0,,,time,,,,,,,,,,,,,,,,,,,,,,,,,,,,,,,,,,,,,,,,,,,,,,,,,,,,,,,,,,,,,,,,,,,,,,,,,,,,,,,,,,,,,,,,,,,,,,,,,,,,,,,,,,,,,,,,,,,294.43980590009596,None,,,,,"[0.6785495590400166, 0.6785495590400166, 0.6785495590400166, 0.6785495590400166]","[6111.005866170224, 1570.9732212565557, 921.7048071477706, 4446.346673721604]",None,"[3.2849684731018804, 8.583577695568755, 5.794435681114329, -3.5669840555213455]",True,295.44074270001147,298.49116510001477,298.49116510001477,299.7164247999899,None,1,,3.7441074666567147,4.784612466697581,None,1,None,1,0,,,,,,,,,,,,cmzntn,001,fr,0,0,2022-05-02_14h47.17.868,Cluster,2022.1.1,None,
,,,,1,0,1,0,11,0,11,0,,,both,,,,,,,,,,,,,,,,,,,,,,,,,,,,,,,,,,,,,,,,,,,,,,,,,,,,,,,,,,,,,,,,,,,,,,,,,,,,,,,,,,,,,,,,,,,,,,,,,,,,,,,,,,,,,,,,,,,300.26360529998783,None,214.86878898968703,-0.595488938186178,0.0002206532341052494,1,"[0.7558034430519354, 0.7558034430519354, 0.7558034430519354, 0.7558034430519354]","[541.4354204270529, 429.73757797937407, 341.08294167736227, 270.71771021352646]",Major_3rd,"[10.563290713616208, 9.420043459014051, 6.0, 4.166112115179603]",False,301.26973840000574,304.56589800002985,304.56589800002985,305.7907029000344,['space'],1,[0.19510600005742162],4.042912166682072,5.08494916674681,None,1,None,1,,,,,,,,,,,,,cmzntn,001,fr,0,0,2022-05-02_14h47.17.868,Cluster,2022.1.1,None,
,,,,1,0,1,0,12,0,12,0,,,time,,,,,,,,,,,,,,,,,,,,,,,,,,,,,,,,,,,,,,,,,,,,,,,,,,,,,,,,,,,,,,,,,,,,,,,,,,,,,,,,,,,,,,,,,,,,,,,,,,,,,,,,,,,,,,,,,,,306.3996119000949,None,7497.831574348304,1.51960721370386,0.00019811496446791774,1,"[0.5020557484483968, 0.5020557484483968, 0.5020557484483968, 0.5020557484483968]","[7370.179065925892, 178.34159826370288, 206.3631465987368, 3046.5975420279983]",None,"[7.5196072137038605, 7.145550616388114, 6.0, 3.870210701214482]",False,307.4119967999868,309.94770800007973,309.94770800007973,311.18258690007497,['space'],1,[0.571191499941051],3.0455259666778147,4.069856166723184,None,1,None,1,,,,,,,,,,,,,cmzntn,001,fr,0,0,2022-05-02_14h47.17.868,Cluster,2022.1.1,None,
,,,,1,0,1,0,13,0,13,0,,,none,,,,,,,,,,,,,,,,,,,,,,,,,,,,,,,,,,,,,,,,,,,,,,,,,,,,,,,,,,,,,,,,,,,,,,,,,,,,,,,,,,,,,,,,,,,,,,,,,,,,,,,,,,,,,,,,,,,311.52650460007135,None,1319.5079107728945,-3.0,3.7367906570294796e-05,0,"[0.745214000537461, 0.5484840294573613, 0.4197378249810214, 0.5109497663935518]","[6653.575268582363, 6680.261696816898, 3572.521295074468, 687.2908036861306]",None,"[6.0, 6.0, -1.0, 8.118394698341916]",False,312.55260050005745,315.29936950001866,315.29936950001866,316.51697440003045,None,0,,3.249550066771917,4.2772203667555,None,1,None,1,,,,,,,,,,,,,cmzntn,001,fr,0,0,2022-05-02_14h47.17.868,Cluster,2022.1.1,None,
,,,,1,0,1,0,14,0,14,0,,,none,,,,,,,,,,,,,,,,,,,,,,,,,,,,,,,,,,,,,,,,,,,,,,,,,,,,,,,,,,,,,,,,,,,,,,,,,,,,,,,,,,,,,,,,,,,,,,,,,,,,,,,,,,,,,,,,,,,316.87699310004245,None,,,,,"[0.5782675304195966, 0.5326692806619453, 0.7773678738052651, 0.737523210051361]","[1774.160270675192, 1609.2499278876187, 1754.376607639289, 625.8950098923915]",None,"[9.0, 8.583577695568755, 8.884424055216082, 9.728343920540128]",True,317.86952700000256,320.8013434000313,320.8013434000313,322.01695780002046,None,1,,3.669361066771671,4.703941066749394,None,1,None,1,0,,,,,,,,,,,,cmzntn,001,fr,0,0,2022-05-02_14h47.17.868,Cluster,2022.1.1,None,
,,,,1,0,1,0,15,0,15,0,,,frequency,,,,,,,,,,,,,,,,,,,,,,,,,,,,,,,,,,,,,,,,,,,,,,,,,,,,,,,,,,,,,,,,,,,,,,,,,,,,,,,,,,,,,,,,,,,,,,,,,,,,,,,,,,,,,,,,,,,322.6150197000243,None,4594.793419988137,-9.0,4.430394081148925e-05,0,"[0.5652521617361363, 0.7313767382399331, 0.6666011025760681, 0.4560636122461692]","[7293.779908465733, 6498.019170849882, 5789.07694976151, 5157.481233758314]",Tone,"[7.0, 5.108345794833322, 2.0, -1.0]",False,323.70101080008317,326.7040450000204,326.7040450000204,327.9321896000765,None,0,,3.444364233291708,4.463202333310619,None,1,None,1,,,,,,,,,,,,,cmzntn,001,fr,0,0,2022-05-02_14h47.17.868,Cluster,2022.1.1,None,
,,,,1,0,1,0,16,0,16,0,,,none,,,,,,,,,,,,,,,,,,,,,,,,,,,,,,,,,,,,,,,,,,,,,,,,,,,,,,,,,,,,,,,,,,,,,,,,,,,,,,,,,,,,,,,,,,,,,,,,,,,,,,,,,,,,,,,,,,,328.2096881000325,None,891.9516515750804,0.0,4.0981510140470305e-05,1,"[0.6515737867778184, 0.4490316342472425, 0.48256078477088404, 0.7158741268120039]","[1691.854492303019, 3519.302631227882, 470.525359092784, 3025.663880038023]",None,"[8.884424055216082, -0.4054413165435573, 10.11333014808455, 3.870210701214482]",False,329.23217130010016,331.83628540008795,331.83628540008795,333.06361730000935,['space'],1,[0.4070417999755591],3.341332166804932,4.36760526674334,None,1,None,1,,,,,,,,,,,,,cmzntn,001,fr,0,0,2022-05-02_14h47.17.868,Cluster,2022.1.1,None,
,,,,1,0,1,0,17,0,17,0,,,none,,,,,,,,,,,,,,,,,,,,,,,,,,,,,,,,,,,,,,,,,,,,,,,,,,,,,,,,,,,,,,,,,,,,,,,,,,,,,,,,,,,,,,,,,,,,,,,,,,,,,,,,,,,,,,,,,,,333.6427777000936,None,176.7766952966369,-7.0,0.00015634862732566779,1,"[0.6667296682826024, 0.795543466243423, 0.7538187329871571, 0.4453335952302587]","[2980.0728792170858, 721.8978837755242, 2730.6119645522163, 7716.925627344287]",None,"[4.0, 8.0, 7.0, 8.0]",False,335.40898340009153,338.6577102000592,338.6577102000592,339.87004890001845,['space'],1,[0.6457770999986678],3.6668310668319464,4.699585666763596,None,1,None,1,,,,,,,,,,,,,cmzntn,001,fr,0,0,2022-05-02_14h47.17.868,Cluster,2022.1.1,None,
,,,,1,0,1,0,18,0,18,0,,,frequency,,,,,,,,,,,,,,,,,,,,,,,,,,,,,,,,,,,,,,,,,,,,,,,,,,,,,,,,,,,,,,,,,,,,,,,,,,,,,,,,,,,,,,,,,,,,,,,,,,,,,,,,,,,,,,,,,,,340.1593059999868,None,233.60447319588067,-1.2226326488549435,0.00017339599855565615,1,"[0.5893623675767773, 0.49577559774660307, 0.6871495452702554, 0.555424608090242]","[147.16159656454636, 165.1833071123183, 185.41199324780902, 208.11792572205934]",Tone,"[7.0, 7.314859589979637, 6.705302221717382, 6.0]",False,341.1794464000268,343.96358290000353,343.96358290000353,345.19660260004457,['space'],1,[0.2551258000312373],3.3702886666869745,4.400005966774188,None,1,None,1,,,,,,,,,,,,,cmzntn,001,fr,0,0,2022-05-02_14h47.17.868,Cluster,2022.1.1,None,
,,,,1,0,1,0,19,0,19,0,,,frequency,,,,,,,,,,,,,,,,,,,,,,,,,,,,,,,,,,,,,,,,,,,,,,,,,,,,,,,,,,,,,,,,,,,,,,,,,,,,,,,,,,,,,,,,,,,,,,,,,,,,,,,,,,,,,,,,,,,345.618045500014,None,2000.0,-2.0,5.942511137185092e-05,1,"[0.6764500963545533, 0.6809832389850614, 0.4832551017026997, 0.4620651813708012]","[3174.8021039364003, 2828.427124746191, 2519.842099789747, 2244.9240966187463]",Tone,"[2.0, 5.79814450588637, 8.0, 9.026465128783554]",False,347.4002718999982,350.2704831000883,350.2704831000883,351.4985354000237,['space'],1,[0.14914330001920462],3.333306399988942,4.3632942000404,None,1,None,1,,,,,,,,,,,,,cmzntn,001,fr,0,0,2022-05-02_14h47.17.868,Cluster,2022.1.1,None,
,,,,2,0,2,0,0,0,0,0,,,both,,,,,,,,,,,,,,,,,,,,,,,,,,,,,,,,,,,,,,,,,,,,,,,,,,,,,,,,,,,,,,,,,,,,,,,,,,,,,,,,,,,,,,,,,,,,,,,,,,,,,,,,,,,,,,,,,,,356.86718460009433,None,,,,,"[0.4436384778251308, 0.4436384778251308, 0.4436384778251308, 0.4436384778251308]","[142.18230714236805, 159.59424370837485, 179.1384816912877, 201.07614709023392]",Tone,"[6.784655761813158, 7.314859589979637, 7.0, 6.091034987671367]",True,357.8525275000138,360.22070950001944,360.22070950001944,361.4496646000771,None,1,,2.8148113667266443,3.8469029667321593,None,1,None,1,0,,,,,,,,,,,,cmzntn,001,fr,0,0,2022-05-02_14h47.17.868,Cluster,2022.1.1,None,
,,,,2,0,2,0,1,0,1,0,,,time,,,,,,,,,,,,,,,,,,,,,,,,,,,,,,,,,,,,,,,,,,,,,,,,,,,,,,,,,,,,,,,,,,,,,,,,,,,,,,,,,,,,,,,,,,,,,,,,,,,,,,,,,,,,,,,,,,,361.7382080000825,None,2000.0,-3.0,5.296268625886443e-05,1,"[0.7452101406441602, 0.7452101406441602, 0.7452101406441602, 0.7452101406441602]","[2348.257354424256, 2647.222412073398, 332.5475529648524, 129.31446769385875]",None,"[9.0, 7.337878925839407, 5.489819512384157, 6.0]",False,362.740578200086,366.0155296000885,366.0155296000885,367.2265653000213,['space'],1,[0.3334321000147611],4.003516866709106,5.03885116672609,None,1,None,1,,,,,,,,,,,,,cmzntn,001,fr,0,0,2022-05-02_14h47.17.868,Cluster,2022.1.1,None,
,,,,2,0,2,0,2,0,2,0,,,time,,,,,,,,,,,,,,,,,,,,,,,,,,,,,,,,,,,,,,,,,,,,,,,,,,,,,,,,,,,,,,,,,,,,,,,,,,,,,,,,,,,,,,,,,,,,,,,,,,,,,,,,,,,,,,,,,,,367.8434706000844,None,696.5665535168773,2.1183946983419153,5.784676754602791e-05,1,"[0.7657446350152816, 0.7657446350152816, 0.7657446350152816, 0.7657446350152816]","[1480.8973734088602, 1151.8810120477683, 1251.1691463226296, 181.25401444158194]",None,"[8.0, 6.386062410243027, 7.0, 7.0]",False,368.8468678999925,372.1648627000395,372.1648627000395,373.4000851000892,['space'],1,[0.3009530999697745],4.088970266631804,5.122216166579165,None,1,None,1,,,,,,,,,,,,,cmzntn,001,fr,0,0,2022-05-02_14h47.17.868,Cluster,2022.1.1,None,
,,,,2,0,2,0,3,0,3,0,,,none,,,,,,,,,,,,,,,,,,,,,,,,,,,,,,,,,,,,,,,,,,,,,,,,,,,,,,,,,,,,,,,,,,,,,,,,,,,,,,,,,,,,,,,,,,,,,,,,,,,,,,,,,,,,,,,,,,,374.0196317000082,None,483.99290160139475,4.506260120300766,0.00012140222362155812,1,"[0.7530843732358593, 0.4030485871305809, 0.4886359325810634, 0.6697045494518747]","[1049.5282535236704, 710.0504252160272, 3147.234346522878, 1728.1543830685864]",None,"[6.0, 8.118394698341916, 3.0, 8.884424055216082]",False,375.02166379999835,377.70313080004416,377.70313080004416,378.9393378000241,['space'],1,[0.2866840000497177],3.35270376666449,4.384895066730678,None,1,None,1,,,,,,,,,,,,,cmzntn,001,fr,0,0,2022-05-02_14h47.17.868,Cluster,2022.1.1,None,
,,,,2,0,2,0,4,0,4,0,,,frequency,,,,,,,,,,,,,,,,,,,,,,,,,,,,,,,,,,,,,,,,,,,,,,,,,,,,,,,,,,,,,,,,,,,,,,,,,,,,,,,,,,,,,,,,,,,,,,,,,,,,,,,,,,,,,,,,,,,379.4607132000383,None,,,,,"[0.44989295986807826, 0.599913543442034, 0.4920470177368896, 0.7111007877517099]","[1293.1085725283374, 1629.2147103279635, 2052.6819083405794, 2586.2171450566743]",Major_3rd,"[7.352140834021614, 8.583577695568755, 9.289393373675585, 7.337878925839407]",True,380.46045120002236,383.0416629000101,383.0416629000101,384.27796219999436,None,1,,3.28688566677738,4.317666666815057,None,1,['space'],0,0,[0.5296554999658838],,,,,,,,,,,cmzntn,001,fr,0,0,2022-05-02_14h47.17.868,Cluster,2022.1.1,None,
,,,,2,0,2,0,5,0,5,0,,,time,,,,,,,,,,,,,,,,,,,,,,,,,,,,,,,,,,,,,,,,,,,,,,,,,,,,,,,,,,,,,,,,,,,,,,,,,,,,,,,,,,,,,,,,,,,,,,,,,,,,,,,,,,,,,,,,,,,384.82003579998855,None,176.7766952966369,-6.0,0.0001754260451641794,1,"[0.6352661817309533, 0.6352661817309533, 0.6352661817309533, 0.6352661817309533]","[141.88357285108242, 374.98434970781426, 966.1496892218621, 557.4056375483386]",None,"[6.784655761813158, 7.468817621763936, 5.794435681114329, 10.29197494321869]",False,385.853884799988,388.7851909000892,388.7851909000892,390.01606450008694,['space'],1,[0.9342472999123856],3.563744733342901,4.5881203333847225,None,1,None,1,,,,,,,,,,,,,cmzntn,001,fr,0,0,2022-05-02_14h47.17.868,Cluster,2022.1.1,None,
,,,,2,0,2,0,6,0,6,0,,,frequency,,,,,,,,,,,,,,,,,,,,,,,,,,,,,,,,,,,,,,,,,,,,,,,,,,,,,,,,,,,,,,,,,,,,,,,,,,,,,,,,,,,,,,,,,,,,,,,,,,,,,,,,,,,,,,,,,,,390.49301299999934,None,1541.6243169197612,2.2325379790039537,6.70062992752828e-05,1,"[0.4861142361186191, 0.43421825754000665, 0.6970114389102693, 0.45727174767999856]","[971.162463958506, 1090.0930085360424, 1223.5880312090928, 1373.4311277977913]",Tone,"[5.786718495687481, 6.003534794823851, 6.852407138679844, 7.813764485311658]",False,391.5064097000286,394.1554247000022,394.1554247000022,395.384755600011,['space'],1,[0.3751472000731155],3.1146259667584673,4.147957566776313,None,1,None,1,,,,,,,,,,,,,cmzntn,001,fr,0,0,2022-05-02_14h47.17.868,Cluster,2022.1.1,None,
,,,,2,0,2,0,7,0,7,0,,,frequency,,,,,,,,,,,,,,,,,,,,,,,,,,,,,,,,,,,,,,,,,,,,,,,,,,,,,,,,,,,,,,,,,,,,,,,,,,,,,,,,,,,,,,,,,,,,,,,,,,,,,,,,,,,,,,,,,,,395.70666500006337,None,615.5722066724584,-3.0,3.781520069199877e-05,0,"[0.6723557299075662, 0.7894672591860701, 0.7457210605544745, 0.6309439053632213]","[3102.289523667471, 2070.529847682756, 1381.9128799677767, 922.3161935859396]",Perfect_5th,"[3.0, 9.289393373675585, 7.813764485311658, 5.794435681114329]",False,397.66234580008313,400.89359790005255,400.89359790005255,402.1212291000411,None,0,,3.860415466595441,4.890924666658975,None,1,None,1,,,,,,,,,,,,,cmzntn,001,fr,0,0,2022-05-02_14h47.17.868,Cluster,2022.1.1,None,
,,,,2,0,2,0,8,0,8,0,,,both,,,,,,,,,,,,,,,,,,,,,,,,,,,,,,,,,,,,,,,,,,,,,,,,,,,,,,,,,,,,,,,,,,,,,,,,,,,,,,,,,,,,,,,,,,,,,,,,,,,,,,,,,,,,,,,,,,,402.59903949999716,None,,,,,"[0.7199978854737505, 0.7199978854737505, 0.7199978854737505, 0.7199978854737505]","[657.6589207036361, 985.3750150613383, 1476.3943584438698, 2212.092115517258]",Perfect_5th,"[9.0, 5.786718495687481, 8.0, 9.287558113264184]",True,403.6063375000376,406.80025950004347,406.80025950004347,408.02490379998926,None,1,,3.9267506666947156,4.967372466693632,None,1,None,1,0,,,,,,,,,,,,cmzntn,001,fr,0,0,2022-05-02_14h47.17.868,Cluster,2022.1.1,None,
,,,,2,0,2,0,9,0,9,0,,,frequency,,,,,,,,,,,,,,,,,,,,,,,,,,,,,,,,,,,,,,,,,,,,,,,,,,,,,,,,,,,,,,,,,,,,,,,,,,,,,,,,,,,,,,,,,,,,,,,,,,,,,,,,,,,,,,,,,,,408.60907270002645,None,803.6760159811732,0.5678025459517234,4.107155453785521e-05,1,"[0.7488083161187986, 0.7467999780720385, 0.5501851559336159, 0.5721952384619919]","[1275.756153210126, 1136.5695215545516, 1012.5683298303287, 902.0958270753441]",Tone,"[7.0, 6.386062410243027, 5.786718495687481, 6.0]",False,409.62653930007946,412.6955716999946,412.6955716999946,413.9313913000515,['space'],1,[0.41976189997512847],3.6368536667432636,4.671954166726209,None,1,None,1,,,,,,,,,,,,,cmzntn,001,fr,0,0,2022-05-02_14h47.17.868,Cluster,2022.1.1,None,
,,,,2,0,2,0,10,0,10,0,,,frequency,,,,,,,,,,,,,,,,,,,,,,,,,,,,,,,,,,,,,,,,,,,,,,,,,,,,,,,,,,,,,,,,,,,,,,,,,,,,,,,,,,,,,,,,,,,,,,,,,,,,,,,,,,,,,,,,,,,414.345887600095,None,164.93848884661182,-6.0,0.00019703447331607919,0,"[0.7235390655437578, 0.686135110922655, 0.5146414794068553, 0.6372985777310655]","[261.82353070515677, 233.25824788420192, 207.809474035697, 185.13719403582058]",Tone,"[4.166112115179603, 4.777367351145056, 6.0, 7.0]",False,416.30033870006446,419.25370300002396,419.25370300002396,420.47458849998657,None,0,,3.5796859000111,4.618910399964079,None,1,None,1,,,,,,,,,,,,,cmzntn,001,fr,0,0,2022-05-02_14h47.17.868,Cluster,2022.1.1,None,
,,,,2,0,2,0,11,0,11,0,,,none,,,,,,,,,,,,,,,,,,,,,,,,,,,,,,,,,,,,,,,,,,,,,,,,,,,,,,,,,,,,,,,,,,,,,,,,,,,,,,,,,,,,,,,,,,,,,,,,,,,,,,,,,,,,,,,,,,,420.96875010000076,None,2639.015821545789,-2.0,6.136706414882377e-05,1,"[0.6677655453670579, 0.7835168585120282, 0.4491910936889165, 0.7908131819175049]","[127.34409268845818, 347.6740882089614, 1300.2943219821316, 227.24086707718806]",None,"[5.519069313787341, 6.0, 7.352140834021614, 5.0]",False,422.0122896000976,424.9462887000991,424.9462887000991,426.17610090004746,['space'],1,[0.4858298000181094],3.730477733304724,4.764009733335115,None,1,None,1,,,,,,,,,,,,,cmzntn,001,fr,0,0,2022-05-02_14h47.17.868,Cluster,2022.1.1,None,
,,,,2,0,2,0,12,0,12,0,,,both,,,,,,,,,,,,,,,,,,,,,,,,,,,,,,,,,,,,,,,,,,,,,,,,,,,,,,,,,,,,,,,,,,,,,,,,,,,,,,,,,,,,,,,,,,,,,,,,,,,,,,,,,,,,,,,,,,,426.81153230008204,None,,,,,"[0.7012924450311077, 0.7012924450311077, 0.7012924450311077, 0.7012924450311077]","[3855.469399448252, 3434.832745797751, 3060.0880902576782, 2726.2285570070844]",Tone,"[-3.0, 0.0, 3.870210701214482, 7.0]",True,427.8315739000682,430.95210460003,430.95210460003,432.195350300055,None,1,,3.848762566689402,4.873293966753408,None,1,None,1,0,,,,,,,,,,,,cmzntn,001,fr,0,0,2022-05-02_14h47.17.868,Cluster,2022.1.1,None,
,,,,2,0,2,0,13,0,13,0,,,none,,,,,,,,,,,,,,,,,,,,,,,,,,,,,,,,,,,,,,,,,,,,,,,,,,,,,,,,,,,,,,,,,,,,,,,,,,,,,,,,,,,,,,,,,,,,,,,,,,,,,,,,,,,,,,,,,,,432.7451654000906,None,1956.2652437495085,3.2893933736755847,0.00010637066007505268,0,"[0.4520189603749897, 0.4082795665921426, 0.6697212911533272, 0.4415659280608223]","[1011.9382789802688, 2160.3333236572503, 156.26253913567194, 1201.7747525108184]",None,"[5.786718495687481, 9.287558113264184, 7.187234213785111, 6.852407138679844]",False,433.74493710009847,436.3191408000421,436.3191408000421,437.5436599000823,None,0,,2.993514566682279,4.033797166659497,None,1,None,1,,,,,,,,,,,,,cmzntn,001,fr,0,0,2022-05-02_14h47.17.868,Cluster,2022.1.1,None,
,,,,2,0,2,0,14,0,14,0,,,time,,,,,,,,,,,,,,,,,,,,,,,,,,,,,,,,,,,,,,,,,,,,,,,,,,,,,,,,,,,,,,,,,,,,,,,,,,,,,,,,,,,,,,,,,,,,,,,,,,,,,,,,,,,,,,,,,,,437.82238190004136,None,855.7822019502512,0.06004359513904567,4.023065402099157e-05,1,"[0.4288115586953069, 0.4288115586953069, 0.4288115586953069, 0.4288115586953069]","[842.7565820287202, 4950.513483558556, 3887.7998007917718, 905.8565714604662]",None,"[6.060043595139046, -2.4511633178272483, -3.0, 6.0]",False,438.845708000008,441.1566828000359,441.1566828000359,442.3755007000873,['space'],1,[0.3112555999541655],2.735087366658263,3.771359366714023,None,1,['space'],0,,[-1.1054755999939516],,,,,,,,,,,cmzntn,001,fr,0,0,2022-05-02_14h47.17.868,Cluster,2022.1.1,None,
,,,,2,0,2,0,15,0,15,0,,,frequency,,,,,,,,,,,,,,,,,,,,,,,,,,,,,,,,,,,,,,,,,,,,,,,,,,,,,,,,,,,,,,,,,,,,,,,,,,,,,,,,,,,,,,,,,,,,,,,,,,,,,,,,,,,,,,,,,,,442.6634830000112,None,1772.9767649974171,3.0,9.119480650823419e-05,1,"[0.7157718233516563, 0.5623783893575467, 0.7677309724117958, 0.7009731263156072]","[351.8031477340094, 527.109145917359, 789.7713636144023, 1183.3200232180059]",Perfect_5th,"[6.427211407105848, 10.563290713616208, 7.0, 6.386062410243027]",False,443.6762998000486,446.73499610007275,446.73499610007275,447.97036040003877,['space'],1,[0.336901200003922],3.783688166644424,4.799575566663407,None,1,None,1,,,,,,,,,,,,,cmzntn,001,fr,0,0,2022-05-02_14h47.17.868,Cluster,2022.1.1,None,
,,,,2,0,2,0,16,0,16,0,,,frequency,,,,,,,,,,,,,,,,,,,,,,,,,,,,,,,,,,,,,,,,,,,,,,,,,,,,,,,,,,,,,,,,,,,,,,,,,,,,,,,,,,,,,,,,,,,,,,,,,,,,,,,,,,,,,,,,,,,448.518974000006,None,,,,,"[0.6066825626593932, 0.6685148761361572, 0.647443596146606, 0.6187039999562095]","[4839.373597209455, 5432.013200458023, 6097.228663429665, 6843.907774563882]",Tone,"[-3.0, 0.0, 3.2849684731018804, 6.0]",True,449.5365272000199,452.4838778000558,452.4838778000558,453.7055446000304,None,1,,3.5678115667542443,4.592725166701712,None,1,None,1,0,,,,,,,,,,,,cmzntn,001,fr,0,0,2022-05-02_14h47.17.868,Cluster,2022.1.1,None,
,,,,2,0,2,0,17,0,17,0,,,both,,,,,,,,,,,,,,,,,,,,,,,,,,,,,,,,,,,,,,,,,,,,,,,,,,,,,,,,,,,,,,,,,,,,,,,,,,,,,,,,,,,,,,,,,,,,,,,,,,,,,,,,,,,,,,,,,,,454.1710975000169,None,5656.85424949238,-5.0,7.227417995191064e-05,1,"[0.6959085892003858, 0.6959085892003858, 0.6959085892003858, 0.6959085892003858]","[3563.5948725613575, 4000.0000000000005, 4489.8481932374925, 5039.684199579493]",Tone,"[-1.0, -3.4533741550294863, -3.5669840555213455, -2.0]",False,455.243023200077,458.36787170008756,458.36787170008756,459.59715500008315,['space'],1,[0.6605360999237746],3.7967265334445983,4.8138403333723545,None,1,None,1,,,,,,,,,,,,,cmzntn,001,fr,0,0,2022-05-02_14h47.17.868,Cluster,2022.1.1,None,
,,,,2,0,2,0,18,0,18,0,,,frequency,,,,,,,,,,,,,,,,,,,,,,,,,,,,,,,,,,,,,,,,,,,,,,,,,,,,,,,,,,,,,,,,,,,,,,,,,,,,,,,,,,,,,,,,,,,,,,,,,,,,,,,,,,,,,,,,,,,460.1095949000446,None,1231.1444133449168,-5.0,3.020928508603416e-05,0,"[0.7559398052531974, 0.5311932552505382, 0.4321552556205633, 0.7417738777801332]","[1954.319936868493, 1741.101126592249, 1551.1447618337354, 1381.9128799677767]",Tone,"[9.289393373675585, 8.884424055216082, 8.232537979003954, 7.813764485311658]",False,461.1494367000414,463.88663900003303,463.88663900003303,465.11642780003604,None,0,,3.484220933401957,4.526129633421078,None,1,['space'],0,,[0.5646657000761479],,,,,,,,,,,cmzntn,001,fr,0,0,2022-05-02_14h47.17.868,Cluster,2022.1.1,None,
,,,,2,0,2,0,19,0,19,0,,,none,,,,,,,,,,,,,,,,,,,,,,,,,,,,,,,,,,,,,,,,,,,,,,,,,,,,,,,,,,,,,,,,,,,,,,,,,,,,,,,,,,,,,,,,,,,,,,,,,,,,,,,,,,,,,,,,,,,465.71458730008453,None,329.87697769322364,-1.0,8.44539939287158e-05,0,"[0.41320124252662815, 0.5027480310884903, 0.43648484781097996, 0.794849765870406]","[760.9977004259034, 321.00987736794997, 1048.5388625034393, 1129.0436958815133]",None,"[7.283414805690885, 5.0, 6.0, 6.386062410243027]",False,466.7293061000528,469.1121274000034,469.1121274000034,470.33408960001543,None,0,,3.1904400333296508,4.227009233320132,None,1,None,1,,,,,,,,,,,,,cmzntn,001,fr,0,0,2022-05-02_14h47.17.868,Cluster,2022.1.1,None,
,,,,3,0,3,0,0,0,0,0,,,time,,,,,,,,,,,,,,,,,,,,,,,,,,,,,,,,,,,,,,,,,,,,,,,,,,,,,,,,,,,,,,,,,,,,,,,,,,,,,,,,,,,,,,,,,,,,,,,,,,,,,,,,,,,,,,,,,,,474.111513699987,None,,,,,"[0.730778241898474, 0.730778241898474, 0.730778241898474, 0.730778241898474]","[1970.6988869068198, 2376.9032499613445, 503.6176658316441, 1165.7049808773002]",None,"[9.289393373675585, 9.0, 10.506260120300766, 6.386062410243027]",True,475.1065534000518,478.32147399999667,478.32147399999667,479.5571154000936,None,1,,3.940786666702479,4.957323866779916,None,1,None,1,0,,,,,,,,,,,,cmzntn,001,fr,0,0,2022-05-02_14h47.17.868,Cluster,2022.1.1,None,
,,,,3,0,3,0,1,0,1,0,,,frequency,,,,,,,,,,,,,,,,,,,,,,,,,,,,,,,,,,,,,,,,,,,,,,,,,,,,,,,,,,,,,,,,,,,,,,,,,,,,,,,,,,,,,,,,,,,,,,,,,,,,,,,,,,,,,,,,,,,480.106755200075,None,338.5178322936975,0.0,9.251569623550498e-05,1,"[0.7892237144349319, 0.4101546627775245, 0.4489878636778332, 0.5182458652142443]","[1706.022970686448, 1138.6337267009135, 759.946838851265, 507.2036637746006]",Perfect_5th,"[8.884424055216082, 6.386062410243027, 7.283414805690885, 10.506260120300766]",False,481.1018203999847,483.78633130004164,483.78633130004164,485.0079059000127,['space'],1,[0.4144784000236541],3.2237642667023465,4.260275366716087,None,1,None,1,,,,,,,,,,,,,cmzntn,001,fr,0,0,2022-05-02_14h47.17.868,Cluster,2022.1.1,None,
,,,,3,0,3,0,2,0,2,0,,,frequency,,,,,,,,,,,,,,,,,,,,,,,,,,,,,,,,,,,,,,,,,,,,,,,,,,,,,,,,,,,,,,,,,,,,,,,,,,,,,,,,,,,,,,,,,,,,,,,,,,,,,,,,,,,,,,,,,,,485.40685480006505,None,6062.8662660415985,-1.0,0.00010590954282987185,1,"[0.48133965958616676, 0.5873478083422559, 0.4148002041700566, 0.6434180405652344]","[3819.3664156416694, 4287.0938501451765, 4812.100144328471, 5401.399784672765]",Tone,"[-3.0, -3.9208068451520646, -3.0, 0.0]",False,487.53769870009273,490.0747562000761,490.0747562000761,491.28937570005655,['space'],1,[0.4458879000740126],3.156180266640149,4.185557766701095,None,1,None,1,,,,,,,,,,,,,cmzntn,001,fr,0,0,2022-05-02_14h47.17.868,Cluster,2022.1.1,None,
,,,,3,0,3,0,3,0,3,0,,,both,,,,,,,,,,,,,,,,,,,,,,,,,,,,,,,,,,,,,,,,,,,,,,,,,,,,,,,,,,,,,,,,,,,,,,,,,,,,,,,,,,,,,,,,,,,,,,,,,,,,,,,,,,,,,,,,,,,491.7854178000707,None,1351.0819290356278,1.3521408340216137,6.0758607181336734e-05,1,"[0.7934088773053515, 0.7934088773053515, 0.7934088773053515, 0.7934088773053515]","[851.1282812622793, 955.3591939596942, 1072.35443772319, 1203.6771586804177]",Tone,"[6.060043595139046, 5.794435681114329, 6.003534794823851, 6.852407138679844]",False,492.7819070999976,496.1936223000521,496.1936223000521,497.411611400079,['space'],1,[0.4133392999647185],4.216398366726935,5.230863666627556,None,1,None,1,,,,,,,,,,,,,cmzntn,001,fr,0,0,2022-05-02_14h47.17.868,Cluster,2022.1.1,None,
,,,,3,0,3,0,4,0,4,0,,,both,,,,,,,,,,,,,,,,,,,,,,,,,,,,,,,,,,,,,,,,,,,,,,,,,,,,,,,,,,,,,,,,,,,,,,,,,,,,,,,,,,,,,,,,,,,,,,,,,,,,,,,,,,,,,,,,,,,498.06194310006686,None,,,,,"[0.6642343044782204, 0.6642343044782204, 0.6642343044782204, 0.6642343044782204]","[244.30492586217738, 366.0437993351334, 548.4460149906582, 821.7405455453178]",Perfect_5th,"[4.339753944047711, 7.0, 10.563290713616208, 6.567802545951723]",True,499.06283439998515,502.082030700054,502.082030700054,503.318019600003,None,1,,3.6935867668362334,4.728633166756481,None,1,None,1,0,,,,,,,,,,,,cmzntn,001,fr,0,0,2022-05-02_14h47.17.868,Cluster,2022.1.1,None,
,,,,3,0,3,0,5,0,5,0,,,both,,,,,,,,,,,,,,,,,,,,,,,,,,,,,,,,,,,,,,,,,,,,,,,,,,,,,,,,,,,,,,,,,,,,,,,,,,,,,,,,,,,,,,,,,,,,,,,,,,,,,,,,,,,,,,,,,,,503.826990300091,None,329.87697769322364,-7.0,4.232726358590751e-05,0,"[0.5989183276646872, 0.5989183276646872, 0.5989183276646872, 0.5989183276646872]","[130.9117653525784, 164.93848884661188, 207.80947403569704, 261.82353070515677]",Major_3rd,"[6.0, 7.314859589979637, 6.0, 4.166112115179603]",False,504.8395462000044,507.63855200004764,507.63855200004764,508.8659871000564,None,0,,3.424106466700323,4.455966666806489,None,1,None,1,,,,,,,,,,,,,cmzntn,001,fr,0,0,2022-05-02_14h47.17.868,Cluster,2022.1.1,None,
,,,,3,0,3,0,6,0,6,0,,,none,,,,,,,,,,,,,,,,,,,,,,,,,,,,,,,,,,,,,,,,,,,,,,,,,,,,,,,,,,,,,,,,,,,,,,,,,,,,,,,,,,,,,,,,,,,,,,,,,,,,,,,,,,,,,,,,,,,509.3452629999956,None,125.91009170218098,-0.480930686212659,0.0006761251905520114,1,"[0.4077497248588353, 0.7143033011195379, 0.7083635130822138, 0.5122077144044994]","[229.75297193775162, 1760.309715171459, 7933.338342091521, 4743.386130378909]",None,"[5.0, 8.884424055216082, 8.0, -3.0]",False,510.3649353000801,513.2260055000661,513.2260055000661,514.4470027000643,['space'],1,[0.5378551000030711],3.3739811667473987,4.412278366740793,None,1,None,1,,,,,,,,,,,,,cmzntn,001,fr,0,0,2022-05-02_14h47.17.868,Cluster,2022.1.1,None,
,,,,3,0,3,0,7,0,7,0,,,both,,,,,,,,,,,,,,,,,,,,,,,,,,,,,,,,,,,,,,,,,,,,,,,,,,,,,,,,,,,,,,,,,,,,,,,,,,,,,,,,,,,,,,,,,,,,,,,,,,,,,,,,,,,,,,,,,,,514.8215773000848,None,3175.30637736379,-4.0,4.38284701575562e-05,1,"[0.5065071232602305, 0.5065071232602305, 0.5065071232602305, 0.5065071232602305]","[5040.484683748614, 4490.561343557653, 4000.635344706073, 3564.1609003455746]",Tone,"[-2.0, -3.5669840555213455, -3.4533741550294863, -1.0]",False,515.8424373000162,518.3935108000878,518.3935108000878,519.6096415000502,['space'],1,[0.35459280002396554],3.0550369668053463,4.0600064668105915,None,1,None,1,,,,,,,,,,,,,cmzntn,001,fr,0,0,2022-05-02_14h47.17.868,Cluster,2022.1.1,None,
,,,,3,0,3,0,8,0,8,0,,,none,,,,,,,,,,,,,,,,,,,,,,,,,,,,,,,,,,,,,,,,,,,,,,,,,,,,,,,,,,,,,,,,,,,,,,,,,,,,,,,,,,,,,,,,,,,,,,,,,,,,,,,,,,,,,,,,,,,519.9520421000198,None,615.5722066724584,-4.0,3.370283309245974e-05,1,"[0.7517180415275561, 0.41115808682244837, 0.5253569963872499, 0.7200344579658979]","[1597.0318675386015, 671.1468425831374, 2668.2811951006374, 890.3348632549136]",None,"[8.583577695568755, 8.969791673775818, 7.0, 6.0]",False,520.9658305000048,523.6711037000641,523.6711037000641,524.8821786000626,['space'],1,[0.4563111999304965],3.432014866732061,4.4630919666960835,None,1,None,1,,,,,,,,,,,,,cmzntn,001,fr,0,0,2022-05-02_14h47.17.868,Cluster,2022.1.1,None,
,,,,3,0,3,0,9,0,9,0,,,time,,,,,,,,,,,,,,,,,,,,,,,,,,,,,,,,,,,,,,,,,,,,,,,,,,,,,,,,,,,,,,,,,,,,,,,,,,,,,,,,,,,,,,,,,,,,,,,,,,,,,,,,,,,,,,,,,,,525.4910932000494,None,,,,,"[0.4414381592382641, 0.4414381592382641, 0.4414381592382641, 0.4414381592382641]","[856.943020275173, 301.2745848378226, 3264.6377383793774, 151.0724256755442]",None,"[6.060043595139046, 4.754544511099742, 1.7189995720140203, 7.0]",True,526.4868300000671,528.8427257000003,528.8427257000003,530.063791600056,None,1,,2.804535166709684,3.824627266731113,None,1,None,1,0,,,,,,,,,,,,cmzntn,001,fr,0,0,2022-05-02_14h47.17.868,Cluster,2022.1.1,None,
,,,,3,0,3,0,10,0,10,0,,,none,,,,,,,,,,,,,,,,,,,,,,,,,,,,,,,,,,,,,,,,,,,,,,,,,,,,,,,,,,,,,,,,,,,,,,,,,,,,,,,,,,,,,,,,,,,,,,,,,,,,,,,,,,,,,,,,,,,530.3545817000559,None,360.959972480775,1.0,9.726723562582983e-05,1,"[0.5801473534279098, 0.6011931515486684, 0.6000337767385019, 0.7413638321111252]","[2521.648837839533, 420.8006846789866, 3125.5644122745084, 391.71300329717826]",None,"[8.0, 9.0, 3.0, 8.0]",False,531.3662203000858,534.1819897000678,534.1819897000678,535.4173172999872,['space'],1,[0.5146917999954894],3.5465800667880103,4.567533266847022,None,1,None,1,,,,,,,,,,,,,cmzntn,001,fr,0,0,2022-05-02_14h47.17.868,Cluster,2022.1.1,None,
,,,,3,0,3,0,11,0,11,0,,,none,,,,,,,,,,,,,,,,,,,,,,,,,,,,,,,,,,,,,,,,,,,,,,,,,,,,,,,,,,,,,,,,,,,,,,,,,,,,,,,,,,,,,,,,,,,,,,,,,,,,,,,,,,,,,,,,,,,535.9813859000569,None,6062.8662660415985,-4.0,7.497821437245907e-05,1,"[0.7179859925933505, 0.43973915080177495, 0.7611968735341574, 0.5353625140707755]","[392.41146403091767, 1305.2697305166632, 577.1803433340875, 2202.8399852200364]",None,"[8.0, 7.352140834021614, 10.29197494321869, 9.287558113264184]",False,537.8880267000059,540.8400901000714,540.8400901000714,542.0841726000654,['space'],1,[0.06890229997225106],3.481681766686961,4.516356666688807,None,1,None,1,,,,,,,,,,,,,cmzntn,001,fr,0,0,2022-05-02_14h47.17.868,Cluster,2022.1.1,None,
,,,,3,0,3,0,12,0,12,0,,,none,,,,,,,,,,,,,,,,,,,,,,,,,,,,,,,,,,,,,,,,,,,,,,,,,,,,,,,,,,,,,,,,,,,,,,,,,,,,,,,,,,,,,,,,,,,,,,,,,,,,,,,,,,,,,,,,,,,542.4417408000445,None,1660.426176457209,2.583577695568755,8.008336733626241e-05,0,"[0.7514636008757224, 0.5218392982308349, 0.5349764694673849, 0.40262899810113173]","[1887.7071597744318, 7039.5748964132945, 311.06413875461516, 251.02733665221552]",None,"[9.133831670886767, 6.546509291340277, 4.754544511099742, 4.339753944047711]",False,543.4430762000848,546.284713900066,546.284713900066,547.5189646000508,None,0,,3.2304504667408764,4.2514421667438,None,1,None,1,,,,,,,,,,,,,cmzntn,001,fr,0,0,2022-05-02_14h47.17.868,Cluster,2022.1.1,None,
,,,,3,0,3,0,13,0,13,0,,,none,,,,,,,,,,,,,,,,,,,,,,,,,,,,,,,,,,,,,,,,,,,,,,,,,,,,,,,,,,,,,,,,,,,,,,,,,,,,,,,,,,,,,,,,,,,,,,,,,,,,,,,,,,,,,,,,,,,547.7418991000159,None,,,,,"[0.7066348894833714, 0.6836531877126424, 0.4572731866841873, 0.6973860335783735]","[5078.535821428935, 4726.968280579832, 504.51338265989483, 539.7010010093544]",None,"[-2.0, -3.0, 10.506260120300766, 10.563290713616208]",True,548.764346800046,551.6179302000673,551.6179302000673,552.8343336000107,None,1,,3.584315766696818,4.629631266696379,None,1,['space'],0,0,[0.4821064999559894],,,,,,,,,,,cmzntn,001,fr,0,0,2022-05-02_14h47.17.868,Cluster,2022.1.1,None,
,,,,3,0,3,0,14,0,14,0,,,both,,,,,,,,,,,,,,,,,,,,,,,,,,,,,,,,,,,,,,,,,,,,,,,,,,,,,,,,,,,,,,,,,,,,,,,,,,,,,,,,,,,,,,,,,,,,,,,,,,,,,,,,,,,,,,,,,,,553.4350875000237,None,1000.0,-8.0,1.7537593697628398e-05,0,"[0.6938638651323008, 0.6938638651323008, 0.6938638651323008, 0.6938638651323008]","[396.85026299205003, 500.00000000000017, 629.9605249474367, 793.7005259840998]",Major_3rd,"[8.0, 10.506260120300766, 9.728343920540128, 7.0]",False,554.4668449000455,557.5718156000366,557.5718156000366,558.8031128000002,None,0,,3.7829527666326612,4.820999466697685,None,1,None,1,,,,,,,,,,,,,cmzntn,001,fr,0,0,2022-05-02_14h47.17.868,Cluster,2022.1.1,None,
,,,,3,0,3,0,15,0,15,0,,,none,,,,,,,,,,,,,,,,,,,,,,,,,,,,,,,,,,,,,,,,,,,,,,,,,,,,,,,,,,,,,,,,,,,,,,,,,,,,,,,,,,,,,,,,,,,,,,,,,,,,,,,,,,,,,,,,,,,559.3386204000562,None,176.7766952966369,-10.0,0.00011068635160945309,0,"[0.48863744577067814, 0.5897553897341858, 0.6001288920338763, 0.46561705657160474]","[3339.829908176457, 6291.571089447325, 6011.92771185819, 254.4317696307218]",None,"[1.0, 4.0, 3.0, 4.339753944047711]",False,560.4326208999846,563.1280368000735,563.1280368000735,564.3537504000124,None,0,,3.1696833334863186,4.208875033422373,None,1,None,1,,,,,,,,,,,,,cmzntn,001,fr,0,0,2022-05-02_14h47.17.868,Cluster,2022.1.1,None,
,,,,3,0,3,0,16,0,16,0,,,frequency,,,,,,,,,,,,,,,,,,,,,,,,,,,,,,,,,,,,,,,,,,,,,,,,,,,,,,,,,,,,,,,,,,,,,,,,,,,,,,,,,,,,,,,,,,,,,,,,,,,,,,,,,,,,,,,,,,,564.695502000046,None,489.2506948445459,4.506260120300766,0.00012095087741026707,1,"[0.5859543169953558, 0.6143495051541397, 0.5061377418040782, 0.7740670389348523]","[776.6370676724049, 691.9049680496174, 616.4172491103366, 549.165337071993]",Tone,"[7.0, 8.118394698341916, 9.728343920540128, 10.563290713616208]",False,565.6876615000656,568.4153362000361,568.4153362000361,569.6346879000776,['space'],1,[0.4465768999652937],3.5010536668123677,4.534346966771409,None,1,None,1,,,,,,,,,,,,,cmzntn,001,fr,0,0,2022-05-02_14h47.17.868,Cluster,2022.1.1,None,
,,,,3,0,3,0,17,0,17,0,,,frequency,,,,,,,,,,,,,,,,,,,,,,,,,,,,,,,,,,,,,,,,,,,,,,,,,,,,,,,,,,,,,,,,,,,,,,,,,,,,,,,,,,,,,,,,,,,,,,,,,,,,,,,,,,,,,,,,,,,570.2698559000855,None,,,,,"[0.4527749584891628, 0.42819053188273976, 0.5984170283415784, 0.42472815147358184]","[135.71906466860116, 152.33949932255032, 170.9953064480142, 191.93574192692694]",Tone,"[6.199426132780234, 7.187234213785111, 7.145550616388114, 6.705302221717382]",True,571.2736706000287,573.7875354000134,573.7875354000134,575.0003976000007,None,1,,2.9289874667301774,3.9639335667015985,None,1,None,1,0,,,,,,,,,,,,cmzntn,001,fr,0,0,2022-05-02_14h47.17.868,Cluster,2022.1.1,None,
,,,,3,0,3,0,18,0,18,0,,,none,,,,,,,,,,,,,,,,,,,,,,,,,,,,,,,,,,,,,,,,,,,,,,,,,,,,,,,,,,,,,,,,,,,,,,,,,,,,,,,,,,,,,,,,,,,,,,,,,,,,,,,,,,,,,,,,,,,575.2796249000821,None,315.33260011572963,-1.0,8.781922476364382e-05,0,"[0.6201439694316819, 0.5670368645703308, 0.4840112180988386, 0.7754501521706291]","[4184.682715160353, 2120.3008056254284, 383.2357892189787, 384.0577995303688]",None,"[-3.9208068451520646, 9.287558113264184, 7.468817621763936, 7.468817621763936]",False,576.297771200072,578.9951567000244,578.9951567000244,580.2111403000308,None,0,,3.4728524666279554,4.496224766597152,None,1,None,1,,,,,,,,,,,,,cmzntn,001,fr,0,0,2022-05-02_14h47.17.868,Cluster,2022.1.1,None,
,,,,3,0,3,0,19,0,19,0,,,both,,,,,,,,,,,,,,,,,,,,,,,,,,,,,,,,,,,,,,,,,,,,,,,,,,,,,,,,,,,,,,,,,,,,,,,,,,,,,,,,,,,,,,,,,,,,,,,,,,,,,,,,,,,,,,,,,,,580.8438328000484,None,2350.184439998893,3.0,0.00011663946413014258,1,"[0.4015952462756145, 0.4015952462756145, 0.4015952462756145, 0.4015952462756145]","[932.6713130933845, 1175.0922199994468, 1480.5234235450002, 1865.3426261867685]",Major_3rd,"[5.794435681114329, 6.386062410243027, 8.0, 9.133831670886767]",False,581.8587056000251,584.1001433000201,584.1001433000201,585.3218024000525,['space'],1,[0.3606362999416888],2.6341152667300776,3.676980866701342,None,1,None,1,,,,,,,,,,,,,cmzntn,001,fr,0,0,2022-05-02_14h47.17.868,Cluster,2022.1.1,None,
,,,,4,0,4,0,0,0,0,0,,,both,,,,,,,,,,,,,,,,,,,,,,,,,,,,,,,,,,,,,,,,,,,,,,,,,,,,,,,,,,,,,,,,,,,,,,,,,,,,,,,,,,,,,,,,,,,,,,,,,,,,,,,,,,,,,,,,,,,589.4604021999985,None,125.0,-4.0,0.00045600541967795504,1,"[0.6400683628727264, 0.6400683628727264, 0.6400683628727264, 0.6400683628727264]","[314.9802624737183, 250.00000000000003, 198.42513149602496, 157.49013123685916]",Major_3rd,"[5.0, 4.339753944047711, 6.091034987671367, 7.187234213785111]",False,590.4624019000912,593.3965328000486,593.3965328000486,594.6208456000313,['space'],1,[0.3925347999902442],3.583567366702482,4.614240966620855,None,1,None,1,,,,,,,,,,,,,cmzntn,001,fr,0,0,2022-05-02_14h47.17.868,Cluster,2022.1.1,None,
,,,,4,0,4,0,1,0,1,0,,,time,,,,,,,,,,,,,,,,,,,,,,,,,,,,,,,,,,,,,,,,,,,,,,,,,,,,,,,,,,,,,,,,,,,,,,,,,,,,,,,,,,,,,,,,,,,,,,,,,,,,,,,,,,,,,,,,,,,595.1327476000879,None,1148.6983549970344,-6.0,2.5195718772304546e-05,1,"[0.5915021914665425, 0.5915021914665425, 0.5915021914665425, 0.5915021914665425]","[671.6189392452171, 1073.6240035528256, 128.3123585936226, 1128.9343450127224]",None,"[8.969791673775818, 6.003534794823851, 6.0, 6.386062410243027]",False,596.1495786000742,598.9487091000192,598.9487091000192,600.1753864000784,['space'],1,[0.10264579998329282],3.3951449333690107,4.436502533382736,None,1,None,1,,,,,,,,,,,,,cmzntn,001,fr,0,0,2022-05-02_14h47.17.868,Cluster,2022.1.1,None,
,,,,4,0,4,0,2,0,2,0,,,frequency,,,,,,,,,,,,,,,,,,,,,,,,,,,,,,,,,,,,,,,,,,,,,,,,,,,,,,,,,,,,,,,,,,,,,,,,,,,,,,,,,,,,,,,,,,,,,,,,,,,,,,,,,,,,,,,,,,,600.6348317000084,None,353.5533905932738,-6.0,4.441136864173166e-05,0,"[0.7316433861076632, 0.7671756642105569, 0.47857462338065343, 0.579635238715213]","[222.72467953508485, 250.00000000000003, 280.6155120773433, 314.9802624737183]",Tone,"[5.0, 4.339753944047711, 4.304480393994884, 5.0]",False,601.6497492000926,604.6419072999852,604.6419072999852,605.8855790999951,None,0,,3.572422066819854,4.603361766785383,None,1,None,1,,,,,,,,,,,,,cmzntn,001,fr,0,0,2022-05-02_14h47.17.868,Cluster,2022.1.1,None,
,,,,4,0,4,0,3,0,3,0,,,none,,,,,,,,,,,,,,,,,,,,,,,,,,,,,,,,,,,,,,,,,,,,,,,,,,,,,,,,,,,,,,,,,,,,,,,,,,,,,,,,,,,,,,,,,,,,,,,,,,,,,,,,,,,,,,,,,,,606.3029976000544,None,,,,,"[0.7977199071978163, 0.47524969668916084, 0.44810245735054116, 0.4056630513532694]","[150.55206612433201, 7840.628753837007, 2094.22280740041, 2549.326488070833]",None,"[7.0, 8.0, 9.287558113264184, 8.0]",True,607.3089965000981,610.062405200093,610.062405200093,611.2990286999848,None,1,,3.160682066809386,4.172548666712828,None,1,None,1,0,,,,,,,,,,,,cmzntn,001,fr,0,0,2022-05-02_14h47.17.868,Cluster,2022.1.1,None,
,,,,4,0,4,0,4,0,4,0,,,both,,,,,,,,,,,,,,,,,,,,,,,,,,,,,,,,,,,,,,,,,,,,,,,,,,,,,,,,,,,,,,,,,,,,,,,,,,,,,,,,,,,,,,,,,,,,,,,,,,,,,,,,,,,,,,,,,,,611.5176425999962,None,343.02476762889256,0.0,9.134565532785244e-05,1,"[0.4150988753969372, 0.4150988753969372, 0.4150988753969372, 0.4150988753969372]","[864.3682507418786, 686.0495352577852, 544.5178769852513, 432.1841253709392]",Major_3rd,"[6.060043595139046, 8.118394698341916, 10.563290713616208, 9.420043459014051]",False,612.530502300011,614.8077863000799,614.8077863000799,616.0339064000873,['space'],1,[0.5968596000457183],2.7000882666325197,3.7388466666452587,None,1,None,1,,,,,,,,,,,,,cmzntn,001,fr,0,0,2022-05-02_14h47.17.868,Cluster,2022.1.1,None,
,,,,4,0,4,0,5,0,5,0,,,time,,,,,,,,,,,,,,,,,,,,,,,,,,,,,,,,,,,,,,,,,,,,,,,,,,,,,,,,,,,,,,,,,,,,,,,,,,,,,,,,,,,,,,,,,,,,,,,,,,,,,,,,,,,,,,,,,,,616.3206049000146,None,522.7376613179396,4.563290713616209,0.00011482039870978185,1,"[0.5377959801099804, 0.5377959801099804, 0.5377959801099804, 0.5377959801099804]","[232.27313312867562, 1548.1104368941824, 5126.279610379403, 5645.410358007736]",None,"[4.777367351145056, 8.232537979003954, -1.0, 1.2477101506038695]",False,617.3194290000247,619.9496048000874,619.9496048000874,621.1620373000624,['space'],1,[0.7446264999452978],3.1720555666834116,4.196172066731378,None,1,None,1,,,,,,,,,,,,,cmzntn,001,fr,0,0,2022-05-02_14h47.17.868,Cluster,2022.1.1,None,
,,,,4,0,4,0,6,0,6,0,,,time,,,,,,,,,,,,,,,,,,,,,,,,,,,,,,,,,,,,,,,,,,,,,,,,,,,,,,,,,,,,,,,,,,,,,,,,,,,,,,,,,,,,,,,,,,,,,,,,,,,,,,,,,,,,,,,,,,,621.5634336000076,None,329.87697769322364,-7.0,4.232726358590751e-05,1,"[0.6258312869877365, 0.6258312869877365, 0.6258312869877365, 0.6258312869877365]","[5429.2098556374485, 3167.383479273884, 606.3925298961577, 1517.932291930397]",None,"[0.0, 3.0, 9.728343920540128, 8.232537979003954]",False,623.5278240999905,626.4433145000366,626.4433145000366,627.6770524000749,['space'],1,[0.17608310002833605],3.5446529666660354,4.585257266648114,None,1,None,1,,,,,,,,,,,,,cmzntn,001,fr,0,0,2022-05-02_14h47.17.868,Cluster,2022.1.1,None,
,,,,4,0,4,0,7,0,7,0,,,frequency,,,,,,,,,,,,,,,,,,,,,,,,,,,,,,,,,,,,,,,,,,,,,,,,,,,,,,,,,,,,,,,,,,,,,,,,,,,,,,,,,,,,,,,,,,,,,,,,,,,,,,,,,,,,,,,,,,,628.1617716000183,None,7795.840468274977,2.0,0.00022075315722867164,1,"[0.7537352340423767, 0.744415041662365, 0.7191304035340731, 0.7119114115436106]","[3093.7813400789905, 3897.9202341374894, 4911.071753800975, 6187.56268015798]",Major_3rd,"[3.0, -3.0, -2.4511633178272483, 4.0]",False,629.1611018000403,632.4071049999911,632.4071049999911,633.6467139000306,['space'],1,[0.3574139999691397],3.956959166796878,4.984876966685988,None,1,None,1,,,,,,,,,,,,,cmzntn,001,fr,0,0,2022-05-02_14h47.17.868,Cluster,2022.1.1,None,
,,,,4,0,4,0,8,0,8,0,,,frequency,,,,,,,,,,,,,,,,,,,,,,,,,,,,,,,,,,,,,,,,,,,,,,,,,,,,,,,,,,,,,,,,,,,,,,,,,,,,,,,,,,,,,,,,,,,,,,,,,,,,,,,,,,,,,,,,,,,634.1885928000556,None,3249.0095854249403,-8.0,2.8168963699060408e-05,0,"[0.7816770231437498, 0.48103538807978574, 0.6285649598503893, 0.6247995841730093]","[5157.481233758315, 4594.793419988138, 4093.4955679870977, 3646.8899542328654]",Tone,"[-1.0, -3.5669840555213455, -3.4533741550294863, -2.0]",False,636.6023923000321,639.5208295000484,639.5208295000484,640.7334155000281,None,0,,3.5506156999617815,4.581516499980353,None,1,None,1,,,,,,,,,,,,,cmzntn,001,fr,0,0,2022-05-02_14h47.17.868,Cluster,2022.1.1,None,
,,,,4,0,4,0,9,0,9,0,,,none,,,,,,,,,,,,,,,,,,,,,,,,,,,,,,,,,,,,,,,,,,,,,,,,,,,,,,,,,,,,,,,,,,,,,,,,,,,,,,,,,,,,,,,,,,,,,,,,,,,,,,,,,,,,,,,,,,,641.2262756000273,None,1231.1444133449168,0.0,5.372054966049046e-05,0,"[0.7369709760437869, 0.4311606472137952, 0.4489044689130808, 0.6020139040571418]","[1096.9723838046048, 296.87207254935447, 3313.3403992932167, 4817.499821530475]",None,"[6.003534794823851, 4.304480393994884, 1.0, -3.0]",False,642.2632413000101,644.9048082000809,644.9048082000809,646.1215890999883,None,0,,3.2265493667218834,4.257605466642417,None,1,None,1,,,,,,,,,,,,,cmzntn,001,fr,0,0,2022-05-02_14h47.17.868,Cluster,2022.1.1,None,
,,,,4,0,4,0,10,0,10,0,,,both,,,,,,,,,,,,,,,,,,,,,,,,,,,,,,,,,,,,,,,,,,,,,,,,,,,,,,,,,,,,,,,,,,,,,,,,,,,,,,,,,,,,,,,,,,,,,,,,,,,,,,,,,,,,,,,,,,,646.5798480000813,None,,,,,"[0.4112126364243236, 0.4112126364243236, 0.4112126364243236, 0.4112126364243236]","[472.70518552269044, 375.1863543847708, 297.78560681724946, 236.35259276134522]",Major_3rd,"[10.11333014808455, 7.468817621763936, 4.754544511099742, 4.777367351145056]",True,647.5834543000674,649.8508117999882,649.8508117999882,651.085433900007,None,1,,2.684317566687241,3.7229173666564748,None,1,None,1,0,,,,,,,,,,,,cmzntn,001,fr,0,0,2022-05-02_14h47.17.868,Cluster,2022.1.1,None,
,,,,4,0,4,0,11,0,11,0,,,frequency,,,,,,,,,,,,,,,,,,,,,,,,,,,,,,,,,,,,,,,,,,,,,,,,,,,,,,,,,,,,,,,,,,,,,,,,,,,,,,,,,,,,,,,,,,,,,,,,,,,,,,,,,,,,,,,,,,,651.3527743000304,None,6200.463016844548,-2.0,9.95428714446474e-05,1,"[0.7817871592107157, 0.715442729721874, 0.6488575570456703, 0.6071726090362117]","[2460.6553789072386, 3100.2315084222746, 3906.0469370085584, 4921.310757814476]",Major_3rd,"[8.406063001497593, 3.0, -3.0, -2.4511633178272483]",False,652.3593816000503,655.5391866000136,655.5391866000136,656.7747476000804,['space'],1,[0.28440939995925874],3.7762698668520898,4.813977466779761,None,1,None,1,,,,,,,,,,,,,cmzntn,001,fr,0,0,2022-05-02_14h47.17.868,Cluster,2022.1.1,None,
,,,,4,0,4,0,12,0,12,0,,,none,,,,,,,,,,,,,,,,,,,,,,,,,,,,,,,,,,,,,,,,,,,,,,,,,,,,,,,,,,,,,,,,,,,,,,,,,,,,,,,,,,,,,,,,,,,,,,,,,,,,,,,,,,,,,,,,,,,657.2206258000806,None,134.26082350505703,0.19942613278023336,0.0006551430534571813,1,"[0.40820801740571805, 0.7126204473838065, 0.7071541637466365, 0.4258533414973792]","[481.0060922742779, 204.52382525495364, 266.98242202381965, 191.86981617999254]",None,"[10.11333014808455, 6.0, 4.166112115179603, 6.705302221717382]",False,658.2287549000466,661.0778284000698,661.0778284000698,662.3127913000062,['space'],1,[0.42764709994662553],3.2821223667124286,4.322743566706777,None,1,None,1,,,,,,,,,,,,,cmzntn,001,fr,0,0,2022-05-02_14h47.17.868,Cluster,2022.1.1,None,
,,,,4,0,4,0,13,0,13,0,,,time,,,,,,,,,,,,,,,,,,,,,,,,,,,,,,,,,,,,,,,,,,,,,,,,,,,,,,,,,,,,,,,,,,,,,,,,,,,,,,,,,,,,,,,,,,,,,,,,,,,,,,,,,,,,,,,,,,,662.6007049999898,None,1543.9765463087306,2.2325379790039537,6.72632561924379e-05,1,"[0.44395187908463285, 0.44395187908463285, 0.44395187908463285, 0.44395187908463285]","[143.42634129242282, 6330.504747983099, 3286.458424617285, 235.57747502887406]",None,"[6.784655761813158, 4.0, 1.7189995720140203, 4.777367351145056]",False,663.6007972999942,665.9514101000968,665.9514101000968,667.1757696000859,['space'],1,[0.3519676000578329],2.8189036666881293,3.8400499667041004,None,1,None,1,,,,,,,,,,,,,cmzntn,001,fr,0,0,2022-05-02_14h47.17.868,Cluster,2022.1.1,None,
,,,,4,0,4,0,14,0,14,0,,,none,,,,,,,,,,,,,,,,,,,,,,,,,,,,,,,,,,,,,,,,,,,,,,,,,,,,,,,,,,,,,,,,,,,,,,,,,,,,,,,,,,,,,,,,,,,,,,,,,,,,,,,,,,,,,,,,,,,667.4917335000355,None,8000.0,2.0,0.0002285440948074376,1,"[0.6927125593314584, 0.7891047542337566, 0.43156667087188816, 0.5816664804728465]","[764.6401099311978, 1415.4744674674491, 4606.9010566869265, 314.53255422325617]",None,"[7.283414805690885, 7.813764485311658, -3.5669840555213455, 5.0]",False,668.5237507000566,671.456033000024,671.456033000024,672.6912264000857,['space'],1,[0.30209600005764514],3.525759033393115,4.561874933424406,None,1,None,1,,,,,,,,,,,,,cmzntn,001,fr,0,0,2022-05-02_14h47.17.868,Cluster,2022.1.1,None,
,,,,4,0,4,0,15,0,15,0,,,frequency,,,,,,,,,,,,,,,,,,,,,,,,,,,,,,,,,,,,,,,,,,,,,,,,,,,,,,,,,,,,,,,,,,,,,,,,,,,,,,,,,,,,,,,,,,,,,,,,,,,,,,,,,,,,,,,,,,,673.1378875999944,None,125.0,-3.0,0.0005116464961403772,1,"[0.6061554850600145, 0.722765573105975, 0.46125309957675414, 0.6326830913626039]","[629.9605249474366, 420.4482076268573, 280.6155120773433, 187.2883846095852]",Perfect_5th,"[9.728343920540128, 9.0, 4.304480393994884, 6.705302221717382]",False,674.1533312000101,676.9588577999966,676.9588577999966,678.1954290000722,['space'],1,[0.6141684999456629],3.4302082668291405,4.462577066733502,None,1,None,1,,,,,,,,,,,,,cmzntn,001,fr,0,0,2022-05-02_14h47.17.868,Cluster,2022.1.1,None,
,,,,4,0,4,0,16,0,16,0,,,time,,,,,,,,,,,,,,,,,,,,,,,,,,,,,,,,,,,,,,,,,,,,,,,,,,,,,,,,,,,,,,,,,,,,,,,,,,,,,,,,,,,,,,,,,,,,,,,,,,,,,,,,,,,,,,,,,,,678.6794538000831,None,615.5722066724584,-5.0,3.0037681611419803e-05,0,"[0.6414240927424515, 0.6414240927424515, 0.6414240927424515, 0.6414240927424515]","[4163.395843129973, 2108.0722591236076, 2419.2590789693563, 2744.8956387652865]",None,"[-3.9208068451520646, 9.287558113264184, 8.406063001497593, 6.0]",False,679.7642952000024,682.7250575000653,682.7250575000653,683.9669436000986,None,0,,3.5745983333326876,4.589941433281638,None,1,None,1,,,,,,,,,,,,,cmzntn,001,fr,0,0,2022-05-02_14h47.17.868,Cluster,2022.1.1,None,
,,,,4,0,4,0,17,0,17,0,,,time,,,,,,,,,,,,,,,,,,,,,,,,,,,,,,,,,,,,,,,,,,,,,,,,,,,,,,,,,,,,,,,,,,,,,,,,,,,,,,,,,,,,,,,,,,,,,,,,,,,,,,,,,,,,,,,,,,,684.4172042000573,None,,,,,"[0.6146095408385595, 0.6146095408385595, 0.6146095408385595, 0.6146095408385595]","[1008.6275075340839, 1162.5995430937917, 744.3163509211021, 339.85301208081046]",None,"[5.786718495687481, 6.386062410243027, 7.283414805690885, 6.0]",True,685.4198261999991,688.306345500052,688.306345500052,689.5300322000403,None,1,,3.486135666607879,4.517988466657698,None,1,None,1,0,,,,,,,,,,,,cmzntn,001,fr,0,0,2022-05-02_14h47.17.868,Cluster,2022.1.1,None,
,,,,4,0,4,0,18,0,18,0,,,both,,,,,,,,,,,,,,,,,,,,,,,,,,,,,,,,,,,,,,,,,,,,,,,,,,,,,,,,,,,,,,,,,,,,,,,,,,,,,,,,,,,,,,,,,,,,,,,,,,,,,,,,,,,,,,,,,,,689.9826033000136,None,8000.0,1.0,0.0002036901389020564,1,"[0.48167900081311404, 0.48167900081311404, 0.48167900081311404, 0.48167900081311404]","[1587.4010519681997, 2378.4142300054423, 3563.5948725613575, 5339.359416680138]",Perfect_5th,"[8.583577695568755, 9.0, -1.0, -0.7565566727376387]",False,691.0180151000386,693.4786192000611,693.4786192000611,694.6933660000795,['space'],1,[0.40708069992251694],2.9621241332497448,4.0043802332365885,None,1,None,1,,,,,,,,,,,,,cmzntn,001,fr,0,0,2022-05-02_14h47.17.868,Cluster,2022.1.1,None,
,,,,4,0,4,0,19,0,19,0,,,frequency,,,,,,,,,,,,,,,,,,,,,,,,,,,,,,,,,,,,,,,,,,,,,,,,,,,,,,,,,,,,,,,,,,,,,,,,,,,,,,,,,,,,,,,,,,,,,,,,,,,,,,,,,,,,,,,,,,,695.064291800023,None,591.2546194103902,4.0,9.067006491853982e-05,1,"[0.5302195904819478, 0.4474925170770156, 0.47290737352667933, 0.710482319334945]","[1489.868281685465, 1182.5092388207804, 938.5582048331108, 744.9341408427325]",Major_3rd,"[8.232537979003954, 6.386062410243027, 5.794435681114329, 7.283414805690885]",False,696.0631740000099,698.5288073000265,698.5288073000265,699.754161400022,['space'],1,[0.73723909992259],3.1898388667032123,4.222527066711336,None,1,None,1,,,,,,,,,,,,,cmzntn,001,fr,0,0,2022-05-02_14h47.17.868,Cluster,2022.1.1,None,
,,,,5,0,5,0,0,0,0,0,,,none,,,,,,,,,,,,,,,,,,,,,,,,,,,,,,,,,,,,,,,,,,,,,,,,,,,,,,,,,,,,,,,,,,,,,,,,,,,,,,,,,,,,,,,,,,,,,,,,,,,,,,,,,,,,,,,,,,,706.1607648000354,None,3271.1750896740496,-4.28100042798598,4.346127880793825e-05,0,"[0.7724947301472062, 0.5919893879620741, 0.45745506492934723, 0.44857491032180985]","[1103.7081710124382, 1624.3706095296252, 2082.879706375347, 2834.337451134972]",None,"[6.003534794823851, 8.583577695568755, 9.287558113264184, 5.79814450588637]",False,707.1443999999901,710.000452700071,710.000452700071,711.2344625000842,None,0,,3.2872042667586356,4.304844366735779,None,1,None,1,,,,,,,,,,,,,cmzntn,001,fr,0,0,2022-05-02_14h47.17.868,Cluster,2022.1.1,None,
,,,,5,0,5,0,1,0,1,0,,,both,,,,,,,,,,,,,,,,,,,,,,,,,,,,,,,,,,,,,,,,,,,,,,,,,,,,,,,,,,,,,,,,,,,,,,,,,,,,,,,,,,,,,,,,,,,,,,,,,,,,,,,,,,,,,,,,,,,711.4986131000333,None,235.70634169680756,-1.2226326488549435,0.000169818738805824,1,"[0.5326779352791371, 0.5326779352791371, 0.5326779352791371, 0.5326779352791371]","[148.48569074876073, 166.6695525824861, 187.0802473825441, 209.99047767523464]",Tone,"[7.0, 7.314859589979637, 6.705302221717382, 6.0]",False,712.5149495000951,715.1454314000439,715.1454314000439,716.381213100045,['space'],1,[0.5556679000146687],3.1709305667318404,4.184198066825047,None,1,None,1,,,,,,,,,,,,,cmzntn,001,fr,0,0,2022-05-02_14h47.17.868,Cluster,2022.1.1,None,
,,,,5,0,5,0,2,0,2,0,,,none,,,,,,,,,,,,,,,,,,,,,,,,,,,,,,,,,,,,,,,,,,,,,,,,,,,,,,,,,,,,,,,,,,,,,,,,,,,,,,,,,,,,,,,,,,,,,,,,,,,,,,,,,,,,,,,,,,,716.7546208000276,None,2828.42712474619,-3.0,4.636051375812108e-05,0,"[0.6466489509444524, 0.5197878897344272, 0.6885399101132021, 0.5913409976078865]","[1023.9218922912435, 599.0937309759094, 6065.249163221904, 1771.6527404474077]",None,"[5.786718495687481, 10.0, 3.2849684731018804, 9.0]",False,717.796036100015,720.6699331999989,720.6699331999989,721.8969253000105,None,0,,3.4774384333286434,4.513649433385581,None,1,None,1,,,,,,,,,,,,,cmzntn,001,fr,0,0,2022-05-02_14h47.17.868,Cluster,2022.1.1,None,
,,,,5,0,5,0,3,0,3,0,,,both,,,,,,,,,,,,,,,,,,,,,,,,,,,,,,,,,,,,,,,,,,,,,,,,,,,,,,,,,,,,,,,,,,,,,,,,,,,,,,,,,,,,,,,,,,,,,,,,,,,,,,,,,,,,,,,,,,,722.3602684000507,None,535.8867312681471,-6.0,3.3001352261930974e-05,0,"[0.5335783383414828, 0.5335783383414828, 0.5335783383414828, 0.5335783383414828]","[212.66679023771422, 267.94336563407364, 337.5874865420479, 425.3335804754283]",Major_3rd,"[5.404511061813822, 4.166112115179603, 6.0, 9.0]",False,723.3971952000866,726.0141743000131,726.0141743000131,727.2541695000837,None,0,,3.163110633380711,4.18681063328404,None,1,None,1,,,,,,,,,,,,,cmzntn,001,fr,0,0,2022-05-02_14h47.17.868,Cluster,2022.1.1,None,
,,,,5,0,5,0,4,0,4,0,,,none,,,,,,,,,,,,,,,,,,,,,,,,,,,,,,,,,,,,,,,,,,,,,,,,,,,,,,,,,,,,,,,,,,,,,,,,,,,,,,,,,,,,,,,,,,,,,,,,,,,,,,,,,,,,,,,,,,,727.6269001000328,None,1609.5907218136003,2.583577695568755,7.699283552881248e-05,0,"[0.45087880958576126, 0.45751027273953365, 0.6481632335704779, 0.7714167628993395]","[6950.219892602181, 652.105395718804, 7305.49515924688, 650.4197788854998]",None,"[6.546509291340277, 9.0, 7.0, 9.0]",False,728.6289328000275,731.2064339000499,731.2064339000499,732.4432085000444,None,0,,3.362079966813326,4.377127466723323,None,1,None,1,,,,,,,,,,,,,cmzntn,001,fr,0,0,2022-05-02_14h47.17.868,Cluster,2022.1.1,None,
,,,,5,0,5,0,5,0,5,0,,,frequency,,,,,,,,,,,,,,,,,,,,,,,,,,,,,,,,,,,,,,,,,,,,,,,,,,,,,,,,,,,,,,,,,,,,,,,,,,,,,,,,,,,,,,,,,,,,,,,,,,,,,,,,,,,,,,,,,,,733.0595057000173,None,,,,,"[0.6885744995492142, 0.5560492278670023, 0.41738130923232053, 0.6431674531952151]","[2067.130220920932, 2320.2752218971164, 2604.4208782121223, 2923.3635936176747]",Tone,"[9.289393373675585, 9.0, 7.337878925839407, 5.0]",True,734.0669189000037,736.7706548999995,736.7706548999995,738.0000802000286,None,1,,3.352837866754271,4.376041666837409,None,1,"['space', 'space']",0,0,"[-1.8384937999071553, 0.46436890005134046]",,,,,,,,,,,cmzntn,001,fr,0,0,2022-05-02_14h47.17.868,Cluster,2022.1.1,None,
,,,,5,0,5,0,6,0,6,0,,,frequency,,,,,,,,,,,,,,,,,,,,,,,,,,,,,,,,,,,,,,,,,,,,,,,,,,,,,,,,,,,,,,,,,,,,,,,,,,,,,,,,,,,,,,,,,,,,,,,,,,,,,,,,,,,,,,,,,,,738.4807696000207,None,2462.2888266898335,-5.0,4.783245253797975e-05,0,"[0.6034024057933783, 0.698904199822726, 0.42529574290643063, 0.6368314849465888]","[488.5799842171232, 732.042847972813, 1096.8249796946263, 1643.3806291715812]",Perfect_5th,"[10.506260120300766, 8.0, 6.003534794823851, 8.583577695568755]",False,739.5242133000866,742.2764042000053,742.2764042000053,743.4848371000262,None,0,,3.3916592333698645,4.428130733314902,None,1,None,1,,,,,,,,,,,,,cmzntn,001,fr,0,0,2022-05-02_14h47.17.868,Cluster,2022.1.1,None,
,,,,5,0,5,0,7,0,7,0,,,frequency,,,,,,,,,,,,,,,,,,,,,,,,,,,,,,,,,,,,,,,,,,,,,,,,,,,,,,,,,,,,,,,,,,,,,,,,,,,,,,,,,,,,,,,,,,,,,,,,,,,,,,,,,,,,,,,,,,,744.0012059999863,None,1797.3638397147715,3.0,9.27502252577084e-05,0,"[0.5285747177430719, 0.7602737984616503, 0.7672230439106502, 0.7279960563480838]","[356.64215624160386, 534.3594666093542, 800.6345704168441, 1199.5964428476793]",Perfect_5th,"[6.427211407105848, 10.563290713616208, 6.567802545951723, 6.852407138679844]",False,745.0040591000579,748.082746900036,748.082746900036,749.3012755000964,None,0,,3.813012266648002,4.829942866694182,None,1,None,1,,,,,,,,,,,,,cmzntn,001,fr,0,0,2022-05-02_14h47.17.868,Cluster,2022.1.1,None,
,,,,5,0,5,0,8,0,8,0,,,none,,,,,,,,,,,,,,,,,,,,,,,,,,,,,,,,,,,,,,,,,,,,,,,,,,,,,,,,,,,,,,,,,,,,,,,,,,,,,,,,,,,,,,,,,,,,,,,,,,,,,,,,,,,,,,,,,,,749.8833479000023,None,535.8867312681471,-5.0,3.702812625480642e-05,1,"[0.7164109367217169, 0.538814071279225, 0.46576454548200763, 0.491545094000715]","[148.89696267814577, 374.4562502596078, 1521.7278008092624, 1107.9362105995992]",None,"[7.0, 7.468817621763936, 8.232537979003954, 6.003534794823851]",False,750.921276200097,753.6772806000663,753.6772806000663,754.9097003000788,['space'],1,[0.5757905999198556],3.239703133353032,4.281541633303277,None,1,None,1,,,,,,,,,,,,,cmzntn,001,fr,0,0,2022-05-02_14h47.17.868,Cluster,2022.1.1,None,
,,,,5,0,5,0,9,0,9,0,,,time,,,,,,,,,,,,,,,,,,,,,,,,,,,,,,,,,,,,,,,,,,,,,,,,,,,,,,,,,,,,,,,,,,,,,,,,,,,,,,,,,,,,,,,,,,,,,,,,,,,,,,,,,,,,,,,,,,,755.2469455000246,None,,,,,"[0.5414151987550987, 0.5414151987550987, 0.5414151987550987, 0.5414151987550987]","[1546.0185376329753, 664.6373683705915, 1640.7298718761763, 2024.269294148815]",None,"[8.232537979003954, 8.969791673775818, 8.583577695568755, 9.289393373675585]",True,756.267728600069,758.911247100099,758.911247100099,760.1394309999887,None,1,,3.1837083667051047,4.201079766731709,None,1,None,1,0,,,,,,,,,,,,cmzntn,001,fr,0,0,2022-05-02_14h47.17.868,Cluster,2022.1.1,None,
,,,,5,0,5,0,10,0,10,0,,,time,,,,,,,,,,,,,,,,,,,,,,,,,,,,,,,,,,,,,,,,,,,,,,,,,,,,,,,,,,,,,,,,,,,,,,,,,,,,,,,,,,,,,,,,,,,,,,,,,,,,,,,,,,,,,,,,,,,760.5125885000452,None,368.5149495788632,1.0,9.506657602266423e-05,1,"[0.67426882741791, 0.67426882741791, 0.67426882741791, 0.67426882741791]","[454.58980834114834, 668.2724968836924, 206.3707832754279, 426.07755358392916]",None,"[10.0, 8.969791673775818, 6.0, 9.0]",False,761.5338797000004,764.5709747000365,764.5709747000365,765.7835736999987,['space'],1,[0.39797389996238053],3.735083566745743,4.753561366698705,None,1,None,1,,,,,,,,,,,,,cmzntn,001,fr,0,0,2022-05-02_14h47.17.868,Cluster,2022.1.1,None,
,,,,5,0,5,0,11,0,11,0,,,both,,,,,,,,,,,,,,,,,,,,,,,,,,,,,,,,,,,,,,,,,,,,,,,,,,,,,,,,,,,,,,,,,,,,,,,,,,,,,,,,,,,,,,,,,,,,,,,,,,,,,,,,,,,,,,,,,,,766.3434705000836,None,2025.8138098268169,3.2893933736755847,0.00011009025385679886,1,"[0.4290313663723294, 0.4290313663723294, 0.4290313663723294, 0.4290313663723294]","[803.944743202699, 1012.9069049134087, 1276.1827310842682, 1607.8894864053977]",Major_3rd,"[6.567802545951723, 5.786718495687481, 7.0, 8.583577695568755]",False,767.3612649000715,769.6827405000804,769.6827405000804,770.9038758000825,['space'],1,[0.5787061000009999],2.7508189666550606,3.7661771667189896,None,1,None,1,,,,,,,,,,,,,cmzntn,001,fr,0,0,2022-05-02_14h47.17.868,Cluster,2022.1.1,None,
,,,,5,0,5,0,12,0,12,0,,,time,,,,,,,,,,,,,,,,,,,,,,,,,,,,,,,,,,,,,,,,,,,,,,,,,,,,,,,,,,,,,,,,,,,,,,,,,,,,,,,,,,,,,,,,,,,,,,,,,,,,,,,,,,,,,,,,,,,771.1820975000737,None,125.0,-7.0,0.00032282711451732784,1,"[0.606603045421698, 0.606603045421698, 0.606603045421698, 0.606603045421698]","[477.1917843521459, 975.6324658456688, 276.3356692472577, 1104.7176187191465]",None,"[10.11333014808455, 5.786718495687481, 4.166112115179603, 6.003534794823851]",False,772.1897217000369,775.0381270000944,775.0381270000944,776.2418545000255,['space'],1,[0.49054390005767345],3.4367754666600376,4.486862666672096,None,1,None,1,,,,,,,,,,,,,cmzntn,001,fr,0,0,2022-05-02_14h47.17.868,Cluster,2022.1.1,None,
,,,,5,0,5,0,13,0,13,0,,,both,,,,,,,,,,,,,,,,,,,,,,,,,,,,,,,,,,,,,,,,,,,,,,,,,,,,,,,,,,,,,,,,,,,,,,,,,,,,,,,,,,,,,,,,,,,,,,,,,,,,,,,,,,,,,,,,,,,776.7396888000658,None,,,,,"[0.7918740470048897, 0.7918740470048897, 0.7918740470048897, 0.7918740470048897]","[202.8512975282936, 227.6928829258225, 255.57661975438498, 286.87505610949273]",Tone,"[6.091034987671367, 5.0, 4.339753944047711, 4.304480393994884]",True,777.7261333999922,781.1413508000551,781.1413508000551,782.3721681000898,None,1,,4.202971966820769,5.2316585667431355,None,1,None,1,0,,,,,,,,,,,,cmzntn,001,fr,0,0,2022-05-02_14h47.17.868,Cluster,2022.1.1,None,
,,,,5,0,5,0,14,0,14,0,,,both,,,,,,,,,,,,,,,,,,,,,,,,,,,,,,,,,,,,,,,,,,,,,,,,,,,,,,,,,,,,,,,,,,,,,,,,,,,,,,,,,,,,,,,,,,,,,,,,,,,,,,,,,,,,,,,,,,,782.9942804999882,None,2462.2888266898335,-3.0,6.02174900085011e-05,0,"[0.5014407643028764, 0.5014407643028764, 0.5014407643028764, 0.5014407643028764]","[6204.579047334941, 4924.577653379667, 3908.6398737369855, 3102.2895236674703]",Major_3rd,"[4.0, -2.4511633178272483, -3.0, 3.0]",False,784.0084857000038,786.5516675000545,786.5516675000545,787.7646352000302,None,0,,3.0361985665513203,4.0649791666073725,None,1,None,1,,,,,,,,,,,,,cmzntn,001,fr,0,0,2022-05-02_14h47.17.868,Cluster,2022.1.1,None,
,,,,5,0,5,0,15,0,15,0,,,time,,,,,,,,,,,,,,,,,,,,,,,,,,,,,,,,,,,,,,,,,,,,,,,,,,,,,,,,,,,,,,,,,,,,,,,,,,,,,,,,,,,,,,,,,,,,,,,,,,,,,,,,,,,,,,,,,,,788.1397015000694,None,169.62002402341767,1.3148595899796374,0.00043755179398287446,1,"[0.4776907940671148, 0.4776907940671148, 0.4776907940671148, 0.4776907940671148]","[137.67837460099008, 1572.0944250215082, 479.460295959875, 457.3271237347169]",None,"[6.199426132780234, 8.583577695568755, 10.11333014808455, 10.0]",False,789.1512607000768,791.6106204000534,791.6106204000534,792.8255960000679,['space'],1,[0.43838419998064637],2.942066766670905,3.969391966704279,None,1,None,1,,,,,,,,,,,,,cmzntn,001,fr,0,0,2022-05-02_14h47.17.868,Cluster,2022.1.1,None,
,,,,5,0,5,0,16,0,16,0,,,time,,,,,,,,,,,,,,,,,,,,,,,,,,,,,,,,,,,,,,,,,,,,,,,,,,,,,,,,,,,,,,,,,,,,,,,,,,,,,,,,,,,,,,,,,,,,,,,,,,,,,,,,,,,,,,,,,,,793.1808643999975,None,933.0329915368076,-8.0,1.677986597084006e-05,0,"[0.6068707100845816, 0.6068707100845816, 0.6068707100845816, 0.6068707100845816]","[147.94087281055172, 6746.302844624449, 209.27512552256087, 1819.1194517378456]",None,"[7.0, 6.0, 6.0, 9.0]",False,795.213126800023,798.0732216000324,798.0732216000324,799.2894318000181,None,0,,3.4466329667484388,4.479196366737597,None,1,None,1,,,,,,,,,,,,,cmzntn,001,fr,0,0,2022-05-02_14h47.17.868,Cluster,2022.1.1,None,
,,,,5,0,5,0,17,0,17,0,,,both,,,,,,,,,,,,,,,,,,,,,,,,,,,,,,,,,,,,,,,,,,,,,,,,,,,,,,,,,,,,,,,,,,,,,,,,,,,,,,,,,,,,,,,,,,,,,,,,,,,,,,,,,,,,,,,,,,,799.7494254000485,None,1272.1968992897969,1.0,6.054203821567959e-05,1,"[0.7892117341347411, 0.7892117341347411, 0.7892117341347411, 0.7892117341347411]","[801.4338265131014, 899.5790544923145, 1009.7433481216524, 1133.3985867993943]",Tone,"[6.567802545951723, 6.0, 5.786718495687481, 6.386062410243027]",False,800.7560379999923,804.1558232000098,804.1558232000098,805.3866011000937,['space'],1,[0.17486089991871268],4.176294466713443,5.209638666710816,None,1,None,1,,,,,,,,,,,,,cmzntn,001,fr,0,0,2022-05-02_14h47.17.868,Cluster,2022.1.1,None,
,,,,5,0,5,0,18,0,18,0,,,both,,,,,,,,,,,,,,,,,,,,,,,,,,,,,,,,,,,,,,,,,,,,,,,,,,,,,,,,,,,,,,,,,,,,,,,,,,,,,,,,,,,,,,,,,,,,,,,,,,,,,,,,,,,,,,,,,,,806.0152913000202,None,4924.577653379667,-11.0,4.1587088061331624e-05,1,"[0.45842100000360686, 0.45842100000360686, 0.45842100000360686, 0.45842100000360686]","[7817.279747473972, 6964.404506368996, 6204.579047334942, 5527.651519871107]",Tone,"[8.0, 6.546509291340277, 4.0, 1.0]",False,808.1338237000164,810.5306533999974,810.5306533999974,811.7689813000616,['space'],1,[0.2093929999973625],2.8681830000132322,3.8932049000868574,None,1,None,1,,,"{'estimation': [[124.99999999999991, -5.783615088176823], [133.9716828170366, -5.386266834251947], [143.4156447934436, -5.0], [143.5872943746293, -4.993129352169289], [153.89305166811442, -4.674294925892101], [164.93848884661162, -4.479582620489562], [176.77669529663666, -4.422093465814955], [189.46457081379947, -4.491191535683285], [203.0630990890585, -4.650823666164638], [217.6376408240306, -4.852276977849126], [229.3833500124017, -5.0], [233.25824788420132, -5.048495427957647], [249.99999999999937, -5.1950199942342845], [267.94336563407256, -5.266096388283387], [287.1745887492579, -5.259552108782773], [307.78610333622805, -5.184526758765942], [329.87697769322244, -5.056225762605293], [337.79851487549615, -5.0], [353.55339059327247, -4.89482047825418], [378.929141627598, -4.725905373766591], [406.12619817811606, -4.570340721254025], [435.2752816480601, -4.449617100462628], [466.5164957684015, -4.3856910698444045], [499.99999999999693, -4.396795698190902], [535.8867312681438, -4.49105016584995], [574.3491774985143, -4.663076203868961], [615.5722066724546, -4.896483187812299], [632.2867217217225, -5.0], [659.7539553864432, -5.163811758514176], [707.1067811865431, -5.420458917104751], [757.8582832551941, -5.64328146974337], [812.2523963562301, -5.816159211615047], [870.5505632961181, -5.926085237054684], [933.0329915368008, -5.960924085040892], [999.9999999999926, -5.906111555394018], [1071.773462536285, -5.743150698210151], [1148.698354997026, -5.449256044636658], [1228.9895815911423, -5.0], [1231.1444133449063, -4.988034246862023], [1319.5079107728832, -4.364801503161841], [1363.0488166863925, -4.0], [1414.2135623730828, -3.57949639949487], [1479.569373051726, -3.0], [1515.7165665103846, -2.688523304073953], [1596.5350704972514, -2.0], [1624.5047927124563, -1.7725643386836425], [1732.2468428778245, -1.0], [1741.1011265922318, -0.9399544339397347], [1866.065983073597, -0.31222779189369826], [1996.9401855116976, 0.0], [1999.9999999999802, 0.006967286585124022], [2010.3046768695788, 0.0], [2143.546925072562, -0.08405895013828033], [2297.396709994046, -0.6224553741688146], [2358.7557125032636, -1.0], [2462.2888266898062, -1.619827142795733], [2510.499251070387, -2.0], [2636.8435668306392, -3.0], [2639.01582154576, -3.016279654546081], [2747.9667153053488, -4.0], [2828.427124746159, -4.693448679070952], [2863.3097301198627, -5.0], [2970.6349808780724, -6.0], [3031.4331330207615, -6.513195672307872], [3091.007982355663, -7.0], [3210.1094704352045, -8.0], [3249.0095854249084, -8.293932606452465], [3352.676070098902, -9.0], [3482.2022531844555, -9.848484219415493], [3513.731914072842, -10.0], [3723.821141746091, -11.0], [3732.1319661471844, -11.038314967961306], [3999.999999999946, -11.733611887473966], [4287.093850145118, -11.869582686986764], [4594.7934199880865, -11.448615347391176], [4750.063111865014, -11.0], [4924.577653379601, -10.507877763338989], [5056.068402439172, -10.0], [5278.031643091506, -9.156788546675676], [5314.4040352337925, -8.999999999999998], [5542.144595598979, -8.0], [5656.854249492303, -7.529262342156969], [5778.603897236774, -7.0], [6007.650806665035, -6.0], [6062.866266041508, -5.78184413965015], [6257.493132067269, -5.0], [6498.019170849792, -4.082196162700768], [6522.476878774609, -4.0], [6819.841145862057, -3.0], [6964.404506368894, -2.5589435914407996], [7186.023192975586, -2.0], [7464.2639322943505, -1.3360353723400147], [7670.378440400357, -1.0], [7999.999999999882, -0.47303883014825354]], 'plus_line': [[125.0, -8.1545174650918], [127.35128070776726, -8.0], [133.9716828170366, -7.644168873416479], [143.5872943746293, -7.229839328664408], [150.84873815309015, -7.0], [153.89305166811442, -6.917776509769121], [164.93848884661162, -6.75839962435151], [176.77669529663666, -6.717452217249102], [189.46457081379947, -6.783754619770337], [203.0630990890585, -6.9292637039634375], [208.3799833603097, -7.0], [217.6376408240306, -7.14086549736808], [233.25824788420132, -7.35505829291011], [249.99999999999937, -7.515130869816154], [267.94336563407256, -7.5955403277228175], [287.1745887492579, -7.583868693718586], [307.78610333622805, -7.483761043733671], [329.87697769322284, -7.313751317797115], [353.55339059327247, -7.1012154377309376], [365.12332767657085, -7.0], [378.929141627598, -6.902991202410654], [406.12619817811606, -6.752672220030861], [435.2752816480601, -6.647442531997356], [466.5164957684015, -6.599532280352555], [499.9999999999975, -6.619553443426635], [535.8867312681438, -6.712097610384323], [574.3491774985143, -6.8724812237659485], [598.0208858560774, -7.0], [615.5722066724546, -7.107003196750787], [659.7539553864432, -7.390340941580337], [707.1067811865431, -7.663282069894322], [757.8582832551941, -7.9071028921459945], [783.4132721055075, -8.0], [812.2523963562301, -8.120170109063833], [870.5505632961181, -8.255264323520063], [933.0329915368008, -8.285339708350648], [999.9999999999914, -8.206478599699627], [1071.773462536285, -8.008441852000972], [1073.7548460383648, -8.0], [1148.698354997026, -7.737929511153591], [1231.1444133449063, -7.332817035713806], [1280.111781825524, -7.0], [1319.5079107728832, -6.756688316489473], [1414.2135623730828, -6.004730669281303], [1414.7266446596839, -5.999999999999999], [1515.7165665103846, -5.131895284181447], [1529.7777731399233, -5.0], [1624.5047927124563, -4.17049479776779], [1644.4533737891943, -4.0], [1741.1011265922318, -3.2508294993085904], [1779.6494984202564, -3.0], [1866.065983073597, -2.515794669137992], [1999.9999999999802, -2.0925806826563553], [2143.5469250725646, -2.132074439289399], [2297.396709994046, -2.6704494611305662], [2349.8761576452143, -3.0], [2462.2888266898062, -3.6891026445433184], [2499.8185919025614, -4.0], [2623.444394560489, -5.0], [2639.01582154576, -5.115127207238318], [2728.5745734973484, -6.0], [2828.427124746159, -6.83298731289978], [2846.6613539582763, -7.0], [2945.785965995992, -8.0], [3031.4331330207615, -8.69289514742952], [3067.215984524369, -9.0], [3179.344991806046, -10.0], [3249.0095854249043, -10.508902022523799], [3317.1341547243364, -11.0], [3467.375623890285, -12.0], [3482.2022531844555, -12.09064541908749], [3658.6036802642648, -13.0], [3732.1319661471844, -13.351753905788144], [3964.99899276573, -14.0], [3999.9999999999504, -14.103721979305604], [4287.093850145118, -14.32933331009447], [4538.1296505509545, -14.0], [4594.793419988081, -13.935013974076675], [4924.577653379601, -13.009244558321056], [4926.97684035939, -13.0], [5188.513772198113, -12.0], [5278.031643091513, -11.65724262581709], [5432.800589277928, -11.0], [5647.050253329326, -10.0], [5656.854249492303, -9.958887776917795], [5880.394170365161, -9.0], [6062.866266041516, -8.149147404815263], [6101.411577844473, -8.0], [6344.217261965308, -7.0], [6498.019170849792, -6.36162812670183], [6606.382717118725, -6.0], [6884.04002926932, -5.0], [6964.404506368894, -4.736092829096467], [7252.580843274564, -4.0], [7464.2639322943505, -3.4640699769874286], [7758.457425409174, -3.0], [7999.999999999872, -2.638338922735492]], 'minus_line': [[125.0, -3.486248798545083], [133.97168281703654, -3.1781565148345052], [138.4773309945847, -3.0], [143.5872943746293, -2.779005479759873], [153.8930516681143, -2.4306058502350183], [164.93848884661162, -2.2244149556385544], [176.77669529663666, -2.1755382249835393], [189.46457081379947, -2.268526976429637], [203.0630990890585, -2.457665752567432], [217.6376408240306, -2.6853998548449916], [233.25824788420132, -2.895350597204353], [245.38995821914258, -3.0], [249.99999999999937, -3.033212924120535], [267.94336563407256, -3.0793370581222224], [287.1745887492579, -3.0612321944113075], [306.3750492857426, -3.0], [307.78610333622805, -2.9947756821506055], [329.87697769322244, -2.875083634086812], [353.55339059327247, -2.72666631631404], [378.929141627598, -2.5606269057881166], [406.12619817811606, -2.3953929902749937], [435.2752816480601, -2.257014699418916], [466.5164957684015, -2.1744670032959736], [499.9999999999975, -2.1717079280065614], [535.8867312681438, -2.259254952539857], [574.3491774985143, -2.4313799891601757], [615.5722066724546, -2.670469449933375], [659.7539553864432, -2.951341390212898], [668.0524494011433, -3.0], [707.1067811865431, -3.188059822666607], [757.8582832551941, -3.3770575694544225], [812.2523963562301, -3.521892567085895], [870.5505632961181, -3.623680076512811], [933.0329915368008, -3.677796974079327], [999.9999999999926, -3.6609526665416077], [1071.773462536285, -3.531960337114781], [1148.698354997026, -3.2515797898573924], [1192.0406451245572, -3.0], [1231.1444133449063, -2.7551865201722974], [1319.5079107728848, -2.0877856616999884], [1329.4084905615284, -2.0], [1414.2135623730828, -1.244287825341043], [1441.1153799183137, -1.0], [1515.7165665103864, -0.3300242700949481], [1555.2236125830718, 0.0], [1624.5047927124563, 0.5656969329439087], [1689.7029423904517, 1.0], [1741.1011265922318, 1.3401106661505173], [1866.065983073597, 1.877752962883014], [1932.8047641830974, 2.0], [1999.9999999999802, 2.1359395831271266], [2135.5414354177333, 2.0], [2143.5469250725646, 1.9935728420159142], [2297.396709994046, 1.4709727227377885], [2374.5394694426395, 1.0], [2462.2888266898062, 0.48333464331787646], [2526.1767309077186, 0.0], [2639.01582154576, -0.9165641631904367], [2649.2956525546374, -1.0], [2764.256692282829, -2.0], [2828.427124746159, -2.5774339532255888], [2880.121718792989, -3.0], [2984.8994920666332, -4.0], [3031.4331330207615, -4.41033769243589], [3108.720445026671, -5.0], [3221.098011561161, -6.0], [3249.0095854249043, -6.216742935332487], [3369.8180148126135, -7.0], [3482.2022531844555, -7.774965010056477], [3530.3630196438817, -8.0], [3732.1319661471844, -8.95739733335164], [3748.5865171263595, -9.0], [3999.9999999999504, -9.582464427242403], [4287.093850145118, -9.651702340174818], [4594.793419988076, -9.174563227854323], [4652.812526152688, -9.0], [4924.577653379601, -8.190116974788555], [4972.710690498684, -8.0], [5226.959747856571, -7.0], [5278.031643091506, -6.816390389130089], [5456.936460911888, -6.0], [5656.854249492303, -5.208814204202053], [5704.717362829067, -5.0], [5926.100548235175, -4.0], [6062.866266041516, -3.4910224086795427], [6184.206634841418, -3.0], [6454.352183984247, -2.0], [6498.019170849792, -1.8587102904063486], [6753.66954127794, -1.0], [6964.404506368894, -0.4019921533278773], [7126.770703271379, 0.0], [7464.2639322943505, 0.7684511773033866], [7601.2148345819205, 1.0], [7999.999999999892, 1.6728011843644586]]}",,,,,,,,,,cmzntn,001,fr,0,0,2022-05-02_14h47.17.868,Cluster,2022.1.1,None,
,,,,5,0,5,0,19,0,19,0,,,none,,,,,,,,,,,,,,,,,,,,,,,,,,,,,,,,,,,,,,,,,,,,,,,,,,,,,,,,,,,,,,,,,,,,,,,,,,,,,,,,,,,,,,,,,,,,,,,,,,,,,,,,,,,,,,,,,,,812.0773253000807,None,4798.134504966975,-9.0,4.9268155220930554e-05,1,"[0.5717611107778234, 0.6980286365055506, 0.48973678874461046, 0.482427420861678]","[2663.5646466950143, 6634.2376880638, 1002.965704118296, 1807.66545886751]",None,"[7.0, 5.108345794833322, 5.786718495687481, 9.0]",False,813.0764855000889,815.8638816000894,815.8638816000894,817.0970196000999,['space'],1,[0.36420309997629374],3.266364666633308,4.288957266602665,None,1,None,1,,,,,,,,,,,,,cmzntn,001,fr,0,0,2022-05-02_14h47.17.868,Cluster,2022.1.1,None,
,,,,6,0,6,0,0,0,0,0,,,time,,,,,,,,,,,,,,,,,,,,,,,,,,,,,,,,,,,,,,,,,,,,,,,,,,,,,,,,,,,,,,,,,,,,,,,,,,,,,,,,,,,,,,,,,,,,,,,,,,,,,,,,,,,,,,,,,,,820.6587387000909,None,7769.206528810552,2.0,0.0002197367787226539,1,"[0.5895370842614007, 0.5895370842614007, 0.5895370842614007, 0.5895370842614007]","[900.0712717266089, 6398.733051754974, 415.93540899754083, 2645.6357653151026]",None,"[6.0, 5.0, 9.0, 7.337878925839407]",False,821.6514914000873,824.4368809000589,824.4368809000589,825.6524709000951,['space'],1,[0.12190600007306784],3.4157958667492494,4.442557566682808,None,1,None,1,,,,,,,,,,,,,cmzntn,001,fr,0,0,2022-05-02_14h47.17.868,Cluster,2022.1.1,None,
