sweeps.thisRepN,sweeps.thisTrialN,sweeps.thisN,sweeps.thisIndex,trials.thisRepN,trials.thisTrialN,trials.thisN,trials.thisIndex,instructions.started,instructions.stopped,blank_text.started,blank_text.stopped,Intervals,text.started,text.stopped,Delay,Prediction,Frequency,Volume,Psychopy_level,isCatchTrial,len(y),finished_audiograms,probe.started,probe.stopped,feedback.keys,feedback.started,feedback.stopped,ISI.started,ISI.stopped,text_2.started,text_2.stopped,feedback.rt,break_txt.started,break_txt.stopped,,Audiogram_time,Audiogram_frequency,Audiogram_none,Audiogram_both,participant,session,language (english or french),Resume previous experiment,date,expName,psychopyVersion,frameRate,
0,0,0,0,0,0,0,0,42.352143600001,None,50.700541500002146,None,"[0.3333333333333333, 0.3333333333333333, 0.5833333333333334, 0.16666666666666666, 0.5833333333333334, 0.3333333333333333, 0.5833333333333334, 0.3333333333333333, 0.3333333333333333, 0.5833333333333334, 0.5833333333333334, 0.16666666666666666, 0.3333333333333333, 0.5833333333333334, 0.3333333333333333]",52.86294790008105,None,1.6660882492565283,none,794.0,-0.04852021628814718,3.842563866573322e-05,0,28,[],0.005821466795168817,0.19791716674808413,None,53.90491220005788,None,0.19791716674808413,1.8640054160046124,54.11929369997233,None,,,,,,,,,ddmfvc,001,fr,0,2022-05-05_11h06.59.144,Continuous,2022.1.1,None,
0,0,0,0,1,0,1,0,,,,,,,,2.9403244480445654,none,149.0,1.3775727537294822,0.0005965420229647023,0,29,[],0.011942366720177233,None,['space'],55.81085210002493,55.81085210002493,0.214053766685538,3.1543782147301034,56.03028690000065,55.81085210002493,[-0.9789917999878526],,,,,,,,ddmfvc,001,fr,0,2022-05-05_11h06.59.144,Continuous,2022.1.1,None,
0,0,0,0,2,0,2,0,,,,,,,,1.2292414833852081,none,530.0,-0.20498821183212568,6.520747826398278e-05,0,30,[],0.01201676670461893,None,None,58.99375060002785,58.99375060002785,0.2177930666366592,1.4470345500218673,59.20588150003459,58.99375060002785,,,,,,,,,ddmfvc,001,fr,0,2022-05-05_11h06.59.144,Continuous,2022.1.1,None,
0,0,0,0,3,0,3,0,,,,,,,,1.3617944019011143,none,354.0,0.0,8.849638639228378e-05,0,31,[],0.01224206667393446,None,None,60.461332999984734,60.461332999984734,0.21297216671518981,1.5747665686163042,60.67695570003707,60.461332999984734,,,,,,,,,ddmfvc,001,fr,0,2022-05-05_11h06.59.144,Continuous,2022.1.1,None,
0,0,0,0,4,0,4,0,,,,,,,,1.3197043818089023,none,223.0,1.2112454109069335,0.0002533588774799564,0,32,[],0.012239766656421125,None,['space'],62.06601269997191,62.06601269997191,0.21660256676841527,1.5363069485773175,62.27442270005122,62.06601269997191,[-0.8189991000108421],,,,,,,,ddmfvc,001,fr,0,2022-05-05_11h06.59.144,Continuous,2022.1.1,None,
0,0,0,0,5,0,5,0,,,,,,,,2.5999230468415426,none,1123.0,-1.5244606343029838,4.1277860296075776e-05,0,33,[],0.012094066827557981,None,None,63.62592949997634,63.62592949997634,0.2152544668642804,2.815177513705823,63.841314700082876,63.62592949997634,,,,,,,,,ddmfvc,001,fr,0,2022-05-05_11h06.59.144,Continuous,2022.1.1,None,
0,0,0,0,6,0,6,0,,,,,,,,1.59033760016519,none,891.0,-0.11177253971485895,4.0430824964894903e-05,0,34,[],0.005083666765131056,0.1984854667680338,['space'],66.46536470006686,66.46536470006686,0.1984854667680338,1.788823066933224,66.68257040006574,66.46536470006686,[-2.321083499933593],,,,,,,,ddmfvc,001,fr,0,2022-05-05_11h06.59.144,Continuous,2022.1.1,None,
0,0,0,0,7,0,7,0,,,,,,,,1.2432992303993315,none,281.0,1.8213072200776543,0.0001660515079492369,0,35,[],0.011922566802240908,None,['space'],68.29688530007843,68.29688530007843,0.21332056680694222,1.4566197972062738,68.51577579998411,68.29688530007843,[-1.3211109000258148],,,,,,,,ddmfvc,001,fr,0,2022-05-05_11h06.59.144,Continuous,2022.1.1,None,
0,0,0,0,8,0,8,0,,,,,,,,1.800571714262401,none,,,,1,35,[],0.012111266725696623,None,['space'],69.77543809998315,69.77543809998315,0.2173852666746825,2.0179569809370834,69.98672599997371,69.77543809998315,[-0.8951393999159336],,,,,,,,ddmfvc,001,fr,0,2022-05-05_11h06.59.144,Continuous,2022.1.1,None,
0,0,0,0,9,0,9,0,,,,,,,,1.1530767186533257,none,1683.0,-2.0430793421164513,4.781771666748348e-05,0,36,[],0.013072266709059477,None,None,71.8150812999811,71.8150812999811,0.2197944667423144,1.3728711853956401,72.02897870005108,71.8150812999811,,,,,,,,,ddmfvc,001,fr,0,2022-05-05_11h06.59.144,Continuous,2022.1.1,None,
0,0,0,0,10,0,10,0,,,,,,,,2.533322404950351,none,2120.0,-1.1894981192658738,6.755679724184423e-05,0,37,[],0.004140366800129414,0.196626266813837,['space'],73.20767869998235,73.20767869998235,0.196626266813837,2.729948671764188,73.42222489998676,73.20767869998235,[-0.9680265999631956],,,,,,,,ddmfvc,001,fr,0,2022-05-05_11h06.59.144,Continuous,2022.1.1,None,
1,0,1,0,0,0,0,0,,,,,,80.52938910003286,None,2.13316075850784,frequency,1416.0,-3.7095878137920506,3.2873627687098555e-05,0,28,[],0.012814066605642438,None,None,81.56767050002236,None,0.20552116667386144,2.3386819251817013,81.77464169997256,None,,75.97897870000452,None,0.3333333333333333,,,,,ddmfvc,001,fr,0,2022-05-05_11h06.59.144,Continuous,2022.1.1,None,
1,0,1,0,1,0,1,0,,,,,,,,2.5560235683078,frequency,1124.0,-1.735735034327173,4.032018669289856e-05,0,29,[],0.011486166738905013,None,['space'],83.93475900008343,83.93475900008343,0.21531826676800847,2.7713418350758086,84.14645150001161,83.93475900008343,[-1.7424135999754071],,,,,,,,ddmfvc,001,fr,0,2022-05-05_11h06.59.144,Continuous,2022.1.1,None,
1,0,1,0,2,0,2,0,,,,,,,,2.065103207860919,frequency,892.0,-0.11974791670210272,4.042175114874619e-05,0,30,[],0.011554166791029274,None,['space'],86.73275530000683,86.73275530000683,0.21320656675379723,2.278309774614716,86.94421530002728,86.73275530000683,[-2.332187799969688],,,,,,,,ddmfvc,001,fr,0,2022-05-05_11h06.59.144,Continuous,2022.1.1,None,
1,0,1,0,3,0,3,0,,,,,,,,1.7135745848047688,frequency,708.0,-0.04281056376837222,4.4106691744916e-05,0,31,[],0.0035233667585998774,None,['space'],89.0433094999753,89.0433094999753,0.21724656666629016,1.930821151471059,89.26725140004419,89.0433094999753,[-1.8910587000427768],,,,,,,,ddmfvc,001,fr,0,2022-05-05_11h06.59.144,Continuous,2022.1.1,None,
1,0,1,0,4,0,4,0,,,,,,,,1.8398248156398336,frequency,562.0,-0.7920052448271332,5.638922754013408e-05,0,32,[],0.011562866740860045,None,['space'],90.9980271999957,90.9980271999957,0.21824226679746062,2.058067082437294,91.21909190004226,90.9980271999957,[-1.4461555000161752],,,,,,,,ddmfvc,001,fr,0,2022-05-05_11h06.59.144,Continuous,2022.1.1,None,
1,0,1,0,5,0,5,0,,,,,,,,1.7224291034358565,frequency,446.0,1.2275279995242034,8.546794526410053e-05,0,33,[],0.010733966599218547,None,['space'],93.08430700004101,93.08430700004101,0.22575806663371623,1.9481871700695728,93.30191070004366,93.08430700004101,[-1.5806143999798223],,,,,,,,ddmfvc,001,fr,0,2022-05-05_11h06.59.144,Continuous,2022.1.1,None,
1,0,1,0,6,0,6,0,,,,,,,,1.325701594715724,frequency,354.0,0.0,8.849638639228378e-05,0,34,[],0.0023339667823165655,None,['space'],95.04996630002279,95.04996630002279,0.20310766680631787,1.5288092615220419,95.25930669996887,95.04996630002279,[-1.5295815999852493],,,,,,,,ddmfvc,001,fr,0,2022-05-05_11h06.59.144,Continuous,2022.1.1,None,
1,0,1,0,7,0,7,0,,,,,,,,2.0971531911961434,frequency,,,,1,34,[],0.01130576676223427,None,['space'],96.61811749998014,96.61811749998014,0.2204595668008551,2.3176127579969985,96.83259760006331,96.61811749998014,[-1.1625470999861136],,,,,,,,ddmfvc,001,fr,0,2022-05-05_11h06.59.144,Continuous,2022.1.1,None,
1,0,1,0,8,0,8,0,,,,,,,,1.3311485762576518,frequency,223.0,0.9344495896819178,0.00024541230535707066,0,35,[],0.008456466835923493,None,None,98.96332720003556,98.96332720003556,0.2108411667868495,1.5419897430445013,99.17858890001662,98.96332720003556,,,,,,,,,ddmfvc,001,fr,0,2022-05-05_11h06.59.144,Continuous,2022.1.1,None,
1,0,1,0,9,0,9,0,,,,,,,,1.460845923892851,frequency,177.0,0.5664806737299906,0.00037274158941661583,0,36,[],0.009586566593497992,None,['space'],100.53190339996945,100.53190339996945,0.20663386664818972,1.6674797905410408,100.74883499997668,100.53190339996945,[-1.0916140999179333],,,,,,,,ddmfvc,001,fr,0,2022-05-05_11h06.59.144,Continuous,2022.1.1,None,
1,0,1,0,10,0,10,0,,,,,,,,2.925748891363594,frequency,140.0,0.6256145019239847,0.0006331797038797382,0,37,[],0.01113836676813662,None,None,102.23189080005977,102.23189080005977,0.2137435667682439,3.139492458131838,102.44954980001785,102.23189080005977,,,,,,,,,ddmfvc,001,fr,0,2022-05-05_11h06.59.144,Continuous,2022.1.1,None,
2,0,2,0,0,0,0,0,,,,,"[0.5833333333333334, 0.3333333333333333, 0.16666666666666666, 0.5833333333333334, 0.3333333333333333, 0.5833333333333334, 0.3333333333333333, 0.3333333333333333, 0.16666666666666666, 0.5833333333333334, 0.3333333333333333, 0.16666666666666666, 0.3333333333333333, 0.3333333333333333, 0.5833333333333334]",118.48544530000072,None,1.3884896817651626,time,1784.0,-0.8681180951567558,5.887074843068101e-05,0,28,[],0.01283336675260216,None,None,119.52330510003958,None,0.2042542666895315,1.5927439484546941,119.73404430004302,None,,105.39494330005255,None,,,,,,ddmfvc,001,fr,0,2022-05-05_11h06.59.144,Continuous,2022.1.1,None,
2,0,2,0,1,0,1,0,,,,,,,,1.3884896817651626,time,315.0,2.3406033988501878,0.00012912197917684936,0,29,[],0.010583466733805835,None,['space'],121.15079280000646,121.15079280000646,0.21296146663371474,1.6014511483988774,121.36479240003973,121.15079280000646,[-1.0709822999779135],,,,,,,,ddmfvc,001,fr,0,2022-05-05_11h06.59.144,Continuous,2022.1.1,None,
2,0,2,0,2,0,2,0,,,,,,,,1.3884896817651626,time,132.0,3.231042683500461,0.0009579863317118914,0,30,[],0.010961566818878055,None,None,122.77605079999194,122.77605079999194,0.21462486684322357,1.6031145486083862,122.99332750006579,122.77605079999194,,,,,,,,,ddmfvc,001,fr,0,2022-05-05_11h06.59.144,Continuous,2022.1.1,None,
2,0,2,0,3,0,3,0,,,,,,,,1.3884896817651626,time,945.0,-0.3405926806570203,4.0855389069094326e-05,0,31,[],0.010128966765478253,None,None,124.40816490002908,124.40816490002908,0.21236986678559333,1.600859548550756,124.62639210000634,124.40816490002908,,,,,,,,,ddmfvc,001,fr,0,2022-05-05_11h06.59.144,Continuous,2022.1.1,None,
2,0,2,0,4,0,4,0,,,,,,,,1.3884896817651626,time,198.0,0.2797357711750108,0.00028165250208215484,0,32,[],0.010941166779957712,None,['space'],126.04109319997951,126.04109319997951,0.21293506678193808,1.6014247485471007,126.24791310005821,126.04109319997951,[-1.1451290999539196],,,,,,,,ddmfvc,001,fr,0,2022-05-05_11h06.59.144,Continuous,2022.1.1,None,
2,0,2,0,5,0,5,0,,,,,,,,1.3884896817651626,time,,,,1,32,[],0.011076666763983667,None,None,127.6650673999684,127.6650673999684,0.21706926671322435,1.605558948478387,127.87852250004653,127.6650673999684,,,,,,,,,ddmfvc,001,fr,0,2022-05-05_11h06.59.144,Continuous,2022.1.1,None,
2,0,2,0,6,0,6,0,,,,,,,,1.3884896817651626,time,1191.0,-0.9939191458506695,4.6414450891013484e-05,0,33,[],0.01033816672861576,None,None,129.29446180001833,129.29446180001833,0.20876526669599116,1.5972549484611538,129.5112638999708,129.29446180001833,,,,,,,,,ddmfvc,001,fr,0,2022-05-05_11h06.59.144,Continuous,2022.1.1,None,
2,0,2,0,7,0,7,0,,,,,,,,1.3884896817651626,time,668.0,-0.05105468011746783,4.7551998725514486e-05,0,34,[],0.010903766611590981,None,['space'],130.92757359996904,130.92757359996904,0.21335216669831425,1.6018418484634769,131.14193579996936,130.92757359996904,[-1.2478734999895096],,,,,,,,ddmfvc,001,fr,0,2022-05-05_11h06.59.144,Continuous,2022.1.1,None,
2,0,2,0,8,0,8,0,,,,,,,,1.3884896817651626,time,530.0,-0.22198336422568055,6.508001549406334e-05,0,35,[],0.010689966613426805,None,['space'],132.55964039999526,132.55964039999526,0.21523496659938246,1.603724648364545,132.77727800002322,132.55964039999526,[-1.1193375999573618],,,,,,,,ddmfvc,001,fr,0,2022-05-05_11h06.59.144,Continuous,2022.1.1,None,
2,0,2,0,9,0,9,0,,,,,,,,1.3884896817651626,time,750.0,-0.16227934883440442,3.9889265259494495e-05,0,36,[],0.010493066743947566,None,['space'],134.19326400000136,134.19326400000136,0.2236101666931063,1.612099848458269,134.4084964999929,134.19326400000136,[-1.2173767000203952],,,,,,,,ddmfvc,001,fr,0,2022-05-05_11h06.59.144,Continuous,2022.1.1,None,
2,0,2,0,10,0,10,0,,,,,,,,1.3884896817651626,time,354.0,0.0,8.849638639228378e-05,0,37,[],0.008998266654089093,None,['space'],135.82198690006044,135.82198690006044,0.21100826666224748,1.59949794842741,136.03680140001234,135.82198690006044,[-1.1823685999261215],,,,,,,,ddmfvc,001,fr,0,2022-05-05_11h06.59.144,Continuous,2022.1.1,None,
3,0,3,0,0,0,0,0,,,,,,146.37895010004286,None,2.519420092382547,frequency,5924.0,-1.9414504073556769,9.490234857487631e-05,0,38,[],0.011905166786164045,None,None,147.42516900005285,None,0.20641856675501913,2.7258386591375663,147.62863390007988,None,,137.4473241000669,None,0.5833333333333334,,,,,ddmfvc,001,fr,0,2022-05-05_11h06.59.144,Continuous,2022.1.1,None,
3,0,3,0,1,0,1,0,,,,,,,,2.961235365637953,frequency,3954.0,-1.4748385288346197,7.015037919341081e-05,0,39,[],0.00891166680958122,None,['space'],150.18519160000142,150.18519160000142,0.23154306679498404,3.192778432432937,150.40757540008053,150.18519160000142,[-2.2975744999712333],,,,,,,,ddmfvc,001,fr,0,2022-05-05_11h06.59.144,Continuous,2022.1.1,None,
3,0,3,0,2,0,2,0,,,,,,,,1.695605716656773,frequency,2639.0,0.0,7.725753970277922e-05,0,40,[],0.002841666806489229,None,['space'],153.39507660001982,153.39507660001982,0.21104966674465686,1.90665538340143,153.61618400004227,153.39507660001982,[-2.836214500013739],,,,,,,,ddmfvc,001,fr,0,2022-05-05_11h06.59.144,Continuous,2022.1.1,None,
3,0,3,0,3,0,3,0,,,,,,,,2.4947887629862118,frequency,,,,1,40,[],0.009975766763091087,None,['space'],155.33598319999874,155.33598319999874,0.22679416672326624,2.721582929709478,155.55775430006906,155.33598319999874,[-1.609143599984236],,,,,,,,ddmfvc,001,fr,0,2022-05-05_11h06.59.144,Continuous,2022.1.1,None,
3,0,3,0,4,0,4,0,,,,,,,,2.974404665913662,frequency,1175.0,-1.9002787205679963,4.127757231014035e-05,0,41,[],0.011211866745725274,0.2074507666984573,None,158.0766085999785,158.0766085999785,0.2074507666984573,3.181855432612119,158.28231350006536,158.0766085999785,,,,,,,,,ddmfvc,001,fr,0,2022-05-05_11h06.59.144,Continuous,2022.1.1,None,
3,0,3,0,5,0,5,0,,,,,,,,1.8991564893003463,frequency,784.0,-0.25187227338421103,3.7978170031818284e-05,0,42,[],0.0035298666916787624,None,['space'],161.2852687999839,161.2852687999839,0.20710526674520224,2.1062617560455488,161.50453939998988,161.2852687999839,[-2.7740681999130175],,,,,,,,ddmfvc,001,fr,0,2022-05-05_11h06.59.144,Continuous,2022.1.1,None,
3,0,3,0,6,0,6,0,,,,,,,,1.9585725924976543,frequency,523.0,-0.2435808983708581,6.598019919600908e-05,0,43,[],0.00935326679609716,None,['space'],163.4305112999864,163.4305112999864,0.23188786674290895,2.190460459240563,163.65451540006325,163.4305112999864,[-1.670410000020638],,,,,,,,ddmfvc,001,fr,0,2022-05-05_11h06.59.144,Continuous,2022.1.1,None,
3,0,3,0,7,0,7,0,,,,,,,,2.8439691564684146,frequency,349.0,3.570248968627525,0.0001354446492166965,0,44,[],0.004466466838493943,None,['space'],165.63855949998833,165.63855949998833,0.20741766679566354,3.051386823264078,165.85857200005557,165.63855949998833,[-1.0950242999242619],,,,,,,,ddmfvc,001,fr,0,2022-05-05_11h06.59.144,Continuous,2022.1.1,None,
3,0,3,0,8,0,8,0,,,,,,,,1.2154194102449938,frequency,233.0,0.7304868888322043,0.00021840579330999706,0,45,[],0.009389366838149726,None,['space'],168.73206170008052,168.73206170008052,0.22151126677636057,1.4369306770213544,168.9560186000308,168.73206170008052,[-2.5874743999447674],,,,,,,,ddmfvc,001,fr,0,2022-05-05_11h06.59.144,Continuous,2022.1.1,None,
3,0,3,0,9,0,9,0,,,,,,,,2.6849850540312987,frequency,156.0,2.057569830671264,0.0005661429803372902,0,46,[],0.005422166781499982,None,None,170.1912210000446,170.1912210000446,0.2217912666965276,2.9067763207278263,170.41699350008275,170.1912210000446,,,,,,,,,ddmfvc,001,fr,0,2022-05-05_11h06.59.144,Continuous,2022.1.1,None,
4,0,4,0,0,0,0,0,,,,,"[0.5833333333333334, 0.3333333333333333, 0.3333333333333333, 0.3333333333333333, 0.5833333333333334, 0.16666666666666666, 0.16666666666666666, 0.5833333333333334, 0.3333333333333333, 0.3333333333333333, 0.3333333333333333, 0.5833333333333334, 0.3333333333333333, 0.5833333333333334, 0.16666666666666666]",182.39965400006622,None,2.6200152797498975,none,2434.0,0.2696447827363876,8.709460766771219e-05,0,38,[],0.010042666806839406,None,None,183.43668559996877,None,0.21630556671880186,2.8363208464686993,183.66651900007855,None,,173.12574270006735,None,,,,,,ddmfvc,001,fr,0,2022-05-05_11h06.59.144,Continuous,2022.1.1,None,
4,0,4,0,1,0,1,0,,,,,,,,1.4330286010792563,none,644.0,-0.39758150335781606,4.770269924957848e-05,0,39,[],0.002567066694609821,None,None,186.31259980006143,186.31259980006143,0.20875696674920619,1.6417855678284625,186.53276139998343,186.31259980006143,,,,,,,,,ddmfvc,001,fr,0,2022-05-05_11h06.59.144,Continuous,2022.1.1,None,
4,0,4,0,2,0,2,0,,,,,,,,2.725098645405869,none,,,,1,39,[],0.00942406675312668,None,['space'],187.99082499998622,187.99082499998622,0.22033056674990803,2.9454292121557772,188.21203020005487,187.99082499998622,[-1.1108682000776753],,,,,,,,ddmfvc,001,fr,0,2022-05-05_11h06.59.144,Continuous,2022.1.1,None,
4,0,4,0,3,0,3,0,,,,,,,,1.504285375106774,none,2168.0,-0.16144921319486993,7.708958001880879e-05,0,40,[],0.009685766650363803,None,None,190.96191559999716,190.96191559999716,0.21912126673851162,1.7234066418452856,191.17838779999875,190.96191559999716,,,,,,,,,ddmfvc,001,fr,0,2022-05-05_11h06.59.144,Continuous,2022.1.1,None,
4,0,4,0,4,0,4,0,,,,,,,,1.3265786201297467,none,1023.0,-0.2479096099272371,4.3747842157743484e-05,0,41,[],0.008371966774575412,None,None,192.71176059998106,192.71176059998106,0.20962836674880236,1.536206986878549,192.932395300013,192.71176059998106,,,,,,,,,ddmfvc,001,fr,0,2022-05-05_11h06.59.144,Continuous,2022.1.1,None,
4,0,4,0,5,0,5,0,,,,,,,,2.796647315338415,none,812.0,-0.13026285980676222,3.8132944538625374e-05,0,42,[],0.007338766707107425,None,"['space', 'space']",194.28155010007322,194.28155010007322,0.21312306670006365,3.0097703820384787,194.49625169998035,194.28155010007322,"[-1.114791699917987, -0.026490099960938096]",,,,,,,,ddmfvc,001,fr,0,2022-05-05_11h06.59.144,Continuous,2022.1.1,None,
4,0,4,0,6,0,6,0,,,,,,,,1.8838475754564006,none,7294.0,-3.1058355950035406,0.0001119963677300385,0,43,[],0.004527866723947227,None,None,197.31933720002417,197.31933720002417,0.2077095666900277,2.0915571421464283,197.53479519998655,197.31933720002417,,,,,,,,,ddmfvc,001,fr,0,2022-05-05_11h06.59.144,Continuous,2022.1.1,None,
4,0,4,0,7,0,7,0,,,,,,,,2.7142359244667724,none,5789.0,-7.254019504546564,5.3640816721536675e-05,0,44,[],0.00936056673526764,None,['space'],199.44964830006938,199.44964830006938,0.21385466679930687,2.9280905912660793,199.65884649998043,199.44964830006938,[-1.80302709992975],,,,,,,,ddmfvc,001,fr,0,2022-05-05_11h06.59.144,Continuous,2022.1.1,None,
4,0,4,0,8,0,8,0,,,,,,,,2.9586485848916477,none,4595.0,0.0,0.0001248796844851434,0,45,[],0.009538166574202478,None,None,202.39880010008346,202.39880010008346,0.21495706657879055,3.1736056514704383,202.61405700002797,202.39880010008346,,,,,,,,,ddmfvc,001,fr,0,2022-05-05_11h06.59.144,Continuous,2022.1.1,None,
4,0,4,0,9,0,9,0,,,,,,,,2.780417500416903,none,3647.0,0.0,7.774360249480771e-05,0,46,[],0.009387666825205088,None,['space'],205.604078900069,205.604078900069,0.21687996678519994,2.997297467202103,205.8192349000601,205.604078900069,[-2.7884009999688715],,,,,,,,ddmfvc,001,fr,0,2022-05-05_11h06.59.144,Continuous,2022.1.1,None,
4,0,4,0,10,0,10,0,,,,,,,,1.006436344836991,none,1289.0,-1.0323974425442457,4.754079760794396e-05,0,47,[],0.009403366828337312,None,['space'],208.62331459997222,208.62331459997222,0.21785086684394628,1.2242872116809373,208.8390690999804,208.62331459997222,[-2.5443857999052852],,,,,,,,ddmfvc,001,fr,0,2022-05-05_11h06.59.144,Continuous,2022.1.1,None,
5,0,5,0,0,0,0,0,,,,,,220.35660649999045,None,1.711473996202145,both,708.0,-0.3320262048330475,4.266224469843651e-05,0,28,[],0.012742766761220992,None,None,221.39622210001107,None,0.21128196676727384,1.9227559629694189,221.60366330004763,None,,209.86937680002302,None,0.16666666666666666,,,,,ddmfvc,001,fr,0,2022-05-05_11h06.59.144,Continuous,2022.1.1,None,
5,0,5,0,1,0,1,0,,,,,,,,1.711473996202145,both,631.0,-0.2729101786161604,4.9497071641622285e-05,0,29,[],0.00872026663273573,None,None,223.34536769997794,223.34536769997794,0.21215706667862833,1.9236310628807733,223.56187680002768,223.34536769997794,,,,,,,,,ddmfvc,001,fr,0,2022-05-05_11h06.59.144,Continuous,2022.1.1,None,
5,0,5,0,2,0,2,0,,,,,,,,1.711473996202145,both,562.0,-0.8159503796436598,5.623398861247727e-05,0,30,[],0.009296666830778122,None,['space'],225.29747770004906,225.29747770004906,0.21703056676778942,1.9285045629699344,225.50886589998845,225.29747770004906,[-1.4581307000480592],,,,,,,,ddmfvc,001,fr,0,2022-05-05_11h06.59.144,Continuous,2022.1.1,None,
5,0,5,0,3,0,3,0,,,,,,,,1.711473996202145,both,501.0,0.04513424781461516,7.166009715008011e-05,0,31,[],0.009217166574671865,None,['space'],227.24365870002657,227.24365870002657,0.21668206667527556,1.9281560628774206,227.45903030002955,227.24365870002657,[-1.5482660999987274],,,,,,,,ddmfvc,001,fr,0,2022-05-05_11h06.59.144,Continuous,2022.1.1,None,
5,0,5,0,4,0,4,0,,,,,,,,1.711473996202145,both,446.0,1.3468785037037734,8.665044320561811e-05,0,32,[],0.00914856675080955,None,['space'],229.1946194000775,229.1946194000775,0.21926316677127033,1.9307371629734154,229.40945919998921,229.1946194000775,[-1.54751139995642],,,,,,,,ddmfvc,001,fr,0,2022-05-05_11h06.59.144,Continuous,2022.1.1,None,
5,0,5,0,5,0,5,0,,,,,,,,1.711473996202145,both,,,,1,32,[],0.001823666738346219,None,None,231.14398940000683,231.14398940000683,0.2022056666901335,1.9136796628922785,231.3605663999915,231.14398940000683,,,,,,,,,ddmfvc,001,fr,0,2022-05-05_11h06.59.144,Continuous,2022.1.1,None,
5,0,5,0,6,0,6,0,,,,,,,,1.711473996202145,both,354.0,0.0,8.849638639228378e-05,0,33,[],0.010439166682772338,None,['space'],233.10366660007276,233.10366660007276,0.21723396668676287,1.928707962888908,233.31728700001258,233.10366660007276,[-1.408802599995397],,,,,,,,ddmfvc,001,fr,0,2022-05-05_11h06.59.144,Continuous,2022.1.1,None,
5,0,5,0,7,0,7,0,,,,,,,,1.711473996202145,both,315.0,4.642720197018251,0.00016830848631976635,0,34,[],0.00808926671743393,None,['space'],235.0568400999764,235.0568400999764,0.2118073666933924,1.9232813628955374,235.27716020005755,235.0568400999764,[-1.5372903000097722],,,,,,,,ddmfvc,001,fr,0,2022-05-05_11h06.59.144,Continuous,2022.1.1,None,
5,0,5,0,8,0,8,0,,,,,,,,1.711473996202145,both,281.0,2.5234006410499195,0.00018003108336244605,0,35,[],0.008809266611933708,None,['space'],237.01744169997983,237.01744169997983,0.2147778666112572,1.9262518628134022,237.2259744000621,237.01744169997983,[-1.5301364000188187],,,,,,,,ddmfvc,001,fr,0,2022-05-05_11h06.59.144,Continuous,2022.1.1,None,
5,0,5,0,9,0,9,0,,,,,,,,1.711473996202145,both,250.0,1.3343365688021769,0.00019529307009490422,0,36,[],0.006168666761368513,None,['space'],238.96270550007466,238.96270550007466,0.2094759667525068,1.9209499629546518,239.1822634000564,238.96270550007466,[-1.491700999904424],,,,,,,,ddmfvc,001,fr,0,2022-05-05_11h06.59.144,Continuous,2022.1.1,None,
5,0,5,0,10,0,10,0,,,,,,,,1.711473996202145,both,223.0,0.7930305087400273,0.00024144898335212917,0,37,[],0.008764566737227142,None,['space'],240.92462790000718,240.92462790000718,0.21605716680642217,1.9275311630085672,241.13851499999873,240.92462790000718,[-1.46985210001003],,,,,,,,ddmfvc,001,fr,0,2022-05-05_11h06.59.144,Continuous,2022.1.1,None,
5,0,5,0,11,0,11,0,,,,,,,,1.711473996202145,both,199.0,0.19618877125580902,0.00027523118235556594,0,38,[],0.00846566678956151,None,None,242.8745656000683,242.8745656000683,0.21529036678839475,1.9267643629905398,243.08605969999917,242.8745656000683,,,,,,,,,ddmfvc,001,fr,0,2022-05-05_11h06.59.144,Continuous,2022.1.1,None,
5,0,5,0,12,0,12,0,,,,,,,,1.711473996202145,both,177.0,0.6917266115814488,0.0003781552634902232,0,39,[],0.003919166629202664,0.19812006666325033,None,244.8225800000364,244.8225800000364,0.19812006666325033,1.9095940628653953,245.03953740000725,244.8225800000364,,,,,,,,,ddmfvc,001,fr,0,2022-05-05_11h06.59.144,Continuous,2022.1.1,None,
5,0,5,0,13,0,13,0,,,,,,,,1.711473996202145,both,158.0,0.09197745472611829,0.0004334931250073941,0,40,[],0.0052422668086364865,None,None,246.769807600067,246.769807600067,0.20776316686533391,1.919237163067479,246.99118430004455,246.769807600067,,,,,,,,,ddmfvc,001,fr,0,2022-05-05_11h06.59.144,Continuous,2022.1.1,None,
5,0,5,0,14,0,14,0,,,,,,,,1.711473996202145,both,141.0,1.238314078286165,0.0006691899905067822,0,41,[],0.00810126680880785,None,None,248.73204949998762,248.73204949998762,0.21253476676065475,1.9240087629627998,248.9537479999708,248.73204949998762,,,,,,,,,ddmfvc,001,fr,0,2022-05-05_11h06.59.144,Continuous,2022.1.1,None,
6,0,6,0,0,0,0,0,,,,,"[0.16666666666666666, 0.5833333333333334, 0.3333333333333333, 0.16666666666666666, 0.16666666666666666, 0.5833333333333334, 0.16666666666666666, 0.3333333333333333, 0.3333333333333333, 0.16666666666666666, 0.16666666666666666, 0.16666666666666666, 0.5833333333333334, 0.5833333333333334, 0.16666666666666666]",265.9377179000294,None,1.4707215150270432,time,2895.0,0.6595054822711988,6.61884550521307e-05,0,38,[],0.012671566801145673,None,None,266.97655640006997,None,0.21492566680535674,1.6856471818324,267.18324000004213,None,,250.69077820004895,None,,,,,,ddmfvc,001,fr,0,2022-05-05_11h06.59.144,Continuous,2022.1.1,None,
6,0,6,0,1,0,1,0,,,,,,,,1.4707215150270432,time,4595.0,0.0,0.0001248796844851434,0,39,[],0.008177566574886441,None,None,268.68583860003855,268.68583860003855,0.21717446658294648,1.6878959816099897,268.90538080001716,268.68583860003855,,,,,,,,,ddmfvc,001,fr,0,2022-05-05_11h06.59.144,Continuous,2022.1.1,None,
6,0,6,0,2,0,2,0,,,,,,,,1.4707215150270432,time,1084.0,-1.1843343130021013,4.150297265595763e-05,0,40,[],0.008513866690918803,None,['space'],270.40471620007884,270.40471620007884,0.21589306672103703,1.6866145817480802,270.61869240005035,270.40471620007884,[-1.3177063000621274],,,,,,,,ddmfvc,001,fr,0,2022-05-05_11h06.59.144,Continuous,2022.1.1,None,
6,0,6,0,3,0,3,0,,,,,,,,1.4707215150270432,time,3647.0,0.0,7.774360249480771e-05,0,41,[],0.008222966687753797,None,None,272.12224060005974,272.12224060005974,0.21306186669971794,1.6837833817267611,272.3343128999695,272.12224060005974,,,,,,,,,ddmfvc,001,fr,0,2022-05-05_11h06.59.144,Continuous,2022.1.1,None,
6,0,6,0,4,0,4,0,,,,,,,,1.4707215150270432,time,1721.0,-1.099799181175444,5.481490048317958e-05,0,42,[],0.004321666667237878,None,['space'],273.83306239999365,273.83306239999365,0.20320236671250314,1.6739238817395463,274.0530435000546,273.83306239999365,[-1.2904307000571862],,,,,,,,ddmfvc,001,fr,0,2022-05-05_11h06.59.144,Continuous,2022.1.1,None,
6,0,6,0,5,0,5,0,,,,,,,,1.4707215150270432,time,5158.0,-2.3031482729383317,0.00011269958415878875,0,43,[],0.003971566795371473,None,['space'],275.5506747000618,275.5506747000618,0.19907976675312966,1.6698012817801728,275.7670190000208,275.5506747000618,[-1.247798900003545],,,,,,,,ddmfvc,001,fr,0,2022-05-05_11h06.59.144,Continuous,2022.1.1,None,
6,0,6,0,6,0,6,0,,,,,,,,1.4707215150270432,time,5790.0,-1.2685127305554937,0.00010681719799076041,0,44,[],0.015528833377175033,None,['space'],277.27751280006487,277.27751280006487,0.21495013334788382,1.685671648374927,277.49532730004285,277.27751280006487,[-1.374855300062336],,,,,,,,ddmfvc,001,fr,0,2022-05-05_11h06.59.144,Continuous,2022.1.1,None,
6,0,6,0,7,0,7,0,,,,,,,,1.4707215150270432,time,,,,1,44,[],0.008371066651307046,None,['space'],278.9984026000602,278.9984026000602,0.21208716661203653,1.6828086816390797,279.2090728000039,278.9984026000602,[-1.4152357000857592],,,,,,,,ddmfvc,001,fr,0,2022-05-05_11h06.59.144,Continuous,2022.1.1,None,
6,0,6,0,8,0,8,0,,,,,,,,1.4707215150270432,time,2579.0,0.2826447676926489,8.366481124648942e-05,0,45,[],0.004723666585050523,0.20073266664985567,['space'],280.7077898000134,280.7077898000134,0.20073266664985567,1.6714541816768989,280.9246849999763,280.7077898000134,[-0.836781800026074],,,,,,,,ddmfvc,001,fr,0,2022-05-05_11h06.59.144,Continuous,2022.1.1,None,
6,0,6,0,9,0,9,0,,,,,,,,1.4707215150270432,time,1533.0,-4.0198887154059495,3.21621239851898e-05,0,46,[],0.008091866737231612,None,None,282.4217942999676,282.4217942999676,0.21150716673582792,1.682228681762871,282.63584340002853,282.4217942999676,,,,,,,,,ddmfvc,001,fr,0,2022-05-05_11h06.59.144,Continuous,2022.1.1,None,
6,0,6,0,10,0,10,0,,,,,,,,1.4707215150270432,time,723.0,-0.7397215846073961,3.949804267259882e-05,0,47,[],0.0006927666254341602,None,['space'],284.1337470000144,284.1337470000144,0.20237086666747928,1.6730923816945225,284.3486886000028,284.1337470000144,[-1.0462597999721766],,,,,,,,ddmfvc,001,fr,0,2022-05-05_11h06.59.144,Continuous,2022.1.1,None,
7,0,7,0,0,0,0,0,,,,,,290.37854160007555,None,2.808509734451908,frequency,6276.0,-3.7730756297765096,8.34682603306287e-05,0,47,[],0.012519366689957678,None,None,291.4099710000446,None,0.2341772667132318,3.04268700116514,291.6383142999839,None,,285.85287150007207,None,0.5833333333333334,,,,,ddmfvc,001,fr,0,2022-05-05_11h06.59.144,Continuous,2022.1.1,None,
7,0,7,0,1,0,1,0,,,,,,,,2.6863365502910526,frequency,4189.0,-2.5813686843221664,7.20202748202331e-05,0,48,[],0.007213266799226403,None,"['space', 'space']",294.4737622999819,294.4737622999819,0.20565816678572446,2.891994717076777,294.6776818999788,294.4737622999819,"[-2.666811599978246, -0.05867189995478839]",,,,,,,,ddmfvc,001,fr,0,2022-05-05_11h06.59.144,Continuous,2022.1.1,None,
7,0,7,0,2,0,2,0,,,,,,,,1.8116606784842013,frequency,2796.0,2.3415038339423124,8.838650268363487e-05,0,49,[],0.0027354665799066424,None,None,297.393672300037,297.393672300037,0.19253266660962254,2.0041933450938236,297.610182799981,297.393672300037,,,,,,,,,ddmfvc,001,fr,0,2022-05-05_11h06.59.144,Continuous,2022.1.1,None,
7,0,7,0,3,0,3,0,,,,,,,,2.4479460160222737,frequency,1866.0,0.0,6.876126672765121e-05,0,50,[],0.008180266828276217,None,None,299.4505461000372,299.4505461000372,0.21584406681358814,2.663790082835862,299.6698248999892,299.4505461000372,,,,,,,,,ddmfvc,001,fr,0,2022-05-05_11h06.59.144,Continuous,2022.1.1,None,
7,0,7,0,4,0,4,0,,,,,,,,2.3900655198399567,frequency,1245.0,-0.5859962056064556,5.075755935308365e-05,0,51,[],0.004820266622118652,0.1958150666905567,['space'],302.1471371999942,302.1471371999942,0.1958150666905567,2.5858805865305134,302.3548477999866,302.1471371999942,[-2.2598285999847576],,,,,,,,ddmfvc,001,fr,0,2022-05-05_11h06.59.144,Continuous,2022.1.1,None,
7,0,7,0,5,0,5,0,,,,,,,,2.268566481354851,frequency,831.0,-0.2031683729787377,3.8341743362067476e-05,0,52,[],0.0031410667579621077,None,['space'],304.768354000058,304.768354000058,0.20257386669982225,2.471140348054673,304.98315550002735,304.768354000058,[-2.097472000052221],,,,,,,,ddmfvc,001,fr,0,2022-05-05_11h06.59.144,Continuous,2022.1.1,None,
7,0,7,0,6,0,6,0,,,,,,,,1.2796119045894978,frequency,555.0,-0.5500674384828237,5.900697076996482e-05,0,53,[],0.0014653665712103248,None,['space'],307.28994340007193,307.28994340007193,0.20536906667985022,1.484980971269348,307.50531210005283,307.28994340007193,[-2.0269859000109136],,,,,,,,ddmfvc,001,fr,0,2022-05-05_11h06.59.144,Continuous,2022.1.1,None,
7,0,7,0,7,0,7,0,,,,,,,,2.6775598141822474,frequency,370.0,2.1962435086625236,0.00010860739065528676,0,54,[],0.007542866747826338,None,['space'],308.8156533000292,308.8156533000292,0.2066660667769611,2.8842258809592085,309.0243698999984,308.8156533000292,[-0.9761739000678062],,,,,,,,ddmfvc,001,fr,0,2022-05-05_11h06.59.144,Continuous,2022.1.1,None,
7,0,7,0,8,0,8,0,,,,,,,,2.3950832336875285,frequency,247.0,2.4802982446938744,0.00023065588319814306,0,55,[],0.007399466703645885,None,['space'],311.7378299999982,311.7378299999982,0.21390586672350764,2.608989100411036,311.9538950000424,311.7378299999982,[-2.395133899990469],,,,,,,,ddmfvc,001,fr,0,2022-05-05_11h06.59.144,Continuous,2022.1.1,None,
7,0,7,0,9,0,9,0,,,,,,,,1.6552981701600624,frequency,,,,1,55,[],0.007699966779910028,None,['space'],314.3707828000188,314.3707828000188,0.20653996674809605,1.8618381369081585,314.58331290003844,314.3707828000188,[-2.4035021000308916],,,,,,,,ddmfvc,001,fr,0,2022-05-05_11h06.59.144,Continuous,2022.1.1,None,
8,0,8,0,0,0,0,0,,,,,"[0.5833333333333334, 0.5833333333333334, 0.16666666666666666, 0.16666666666666666, 0.16666666666666666, 0.3333333333333333, 0.3333333333333333, 0.16666666666666666, 0.16666666666666666, 0.16666666666666666, 0.5833333333333334, 0.3333333333333333, 0.3333333333333333, 0.16666666666666666, 0.16666666666666666]",324.7399927000515,None,2.8704101183916393,time,158.0,-3.0418797596373794,0.00030219644666870557,0,48,[],0.012486966792494059,None,None,325.76208060001954,None,0.22727326676249504,3.0976833851541343,325.97224220004864,None,,316.26999499998055,None,,,,,,ddmfvc,001,fr,0,2022-05-05_11h06.59.144,Continuous,2022.1.1,None,
8,0,8,0,1,0,1,0,,,,,,,,2.8704101183916393,time,354.0,-5.0,4.976517519839404e-05,0,49,[],0.005700366687960923,None,None,328.87330730003305,328.87330730003305,0.2155006667599082,3.0859107851515475,329.08942219999153,328.87330730003305,,,,,,,,,ddmfvc,001,fr,0,2022-05-05_11h06.59.144,Continuous,2022.1.1,None,
8,0,8,0,2,0,2,0,,,,,,,,2.8704101183916393,time,223.0,0.15893504719990847,0.00022445051592699238,0,50,[],0.007541366736404598,None,None,331.9926264000824,331.9926264000824,0.22416046680882573,3.094570585200465,332.2146456000628,331.9926264000824,,,,,,,,,ddmfvc,001,fr,0,2022-05-05_11h06.59.144,Continuous,2022.1.1,None,
8,0,8,0,3,0,3,0,,,,,,,,2.8704101183916393,time,397.0,-2.825199239239927,5.586065447050031e-05,0,51,[],0.0073173666605725884,None,['space'],335.1104557000799,335.1104557000799,0.2166028666542843,3.0870129850459236,335.32338239997625,335.1104557000799,[-2.6153205999871716],,,,,,,,ddmfvc,001,fr,0,2022-05-05_11h06.59.144,Continuous,2022.1.1,None,
8,0,8,0,4,0,4,0,,,,,,,,2.8704101183916393,time,1061.0,-3.972565165241597,2.9498096139461485e-05,0,52,[],0.005310166743583977,None,['space'],338.215178500046,338.215178500046,0.2068972666747868,3.077307385066426,338.4367818000028,338.215178500046,[-2.4555797000648454],,,,,,,,ddmfvc,001,fr,0,2022-05-05_11h06.59.144,Continuous,2022.1.1,None,
8,0,8,0,5,0,5,0,,,,,,,,2.8704101183916393,time,315.0,1.6416149935255464,0.00011913812311744333,0,53,[],0.002660266705788672,None,['space'],341.33897609997075,341.33897609997075,0.20677146664820611,3.0771815850398454,341.5578324000817,341.33897609997075,[-2.4916341999778524],,,,,,,,ddmfvc,001,fr,0,2022-05-05_11h06.59.144,Continuous,2022.1.1,None,
8,0,8,0,6,0,6,0,,,,,,,,2.8704101183916393,time,595.0,-3.646123770523465,3.7213407521767306e-05,0,54,[],0.004720566677860916,None,['space'],344.4563812999986,344.4563812999986,0.20835826674010605,3.0787683851317453,344.67695550003555,344.4563812999986,[-2.521312900003977],,,,,,,,ddmfvc,001,fr,0,2022-05-05_11h06.59.144,Continuous,2022.1.1,None,
8,0,8,0,7,0,7,0,,,,,,,,2.8704101183916393,time,750.0,-2.1308233265920906,3.180012579760819e-05,0,55,[],0.0050830666441470385,None,None,347.57542820007075,347.57542820007075,0.21612506662495434,3.0865351850165936,347.79725000006147,347.57542820007075,,,,,,,,,ddmfvc,001,fr,0,2022-05-05_11h06.59.144,Continuous,2022.1.1,None,
8,0,8,0,8,0,8,0,,,,,,,,2.8704101183916393,time,945.0,-4.8993705102615515,2.417188164996367e-05,0,56,[],0.002871966687962413,None,None,350.69777490000706,350.69777490000706,0.2086006667232141,3.0790107851148534,350.9167796999682,350.69777490000706,,,,,,,,,ddmfvc,001,fr,0,2022-05-05_11h06.59.144,Continuous,2022.1.1,None,
8,0,8,0,9,0,9,0,,,,,,,,2.8704101183916393,time,126.0,3.850079788281501,0.001111964489618294,0,57,[],0.001650566584430635,0.1928927666740492,None,353.8225143000018,353.8225143000018,0.1928927666740492,3.0633028850656885,354.0282309000613,353.8225143000018,,,,,,,,,ddmfvc,001,fr,0,2022-05-05_11h06.59.144,Continuous,2022.1.1,None,
8,0,8,0,10,0,10,0,,,,,,,,2.8704101183916393,time,1191.0,-3.8098385897591633,3.3562727331702944e-05,0,58,[],0.00034676678478717804,None,['space'],356.92770350002684,356.92770350002684,0.20778856670949608,3.0781986851011354,357.1471928000683,356.92770350002684,[-2.5761310000671074],,,,,,,,ddmfvc,001,fr,0,2022-05-05_11h06.59.144,Continuous,2022.1.1,None,
8,0,8,0,11,0,11,0,,,,,,,,2.8704101183916393,time,281.0,2.640912872409482,0.00018248329177933937,0,59,[],0.002098666736856103,None,None,360.04502389999107,360.04502389999107,0.20561466668732464,3.076024785078964,360.25946039997507,360.04502389999107,,,,,,,,,ddmfvc,001,fr,0,2022-05-05_11h06.59.144,Continuous,2022.1.1,None,
8,0,8,0,12,0,12,0,,,,,,,,2.8704101183916393,time,177.0,-4.885943872309032,0.00019896955354682642,0,60,[],0.014138333383016288,None,['space'],363.1717094000196,363.1717094000196,0.21469873329624534,3.0851088516878846,363.37931019999087,363.1717094000196,[-2.6606475000735372],,,,,,,,ddmfvc,001,fr,0,2022-05-05_11h06.59.144,Continuous,2022.1.1,None,
8,0,8,0,13,0,13,0,,,,,,,,2.8704101183916393,time,,,,1,60,[],0.002382466569542885,None,None,366.28391430003103,366.28391430003103,0.2038373666582629,3.074247485049902,366.5015640000347,366.28391430003103,,,,,,,,,ddmfvc,001,fr,0,2022-05-05_11h06.59.144,Continuous,2022.1.1,None,
9,0,9,0,0,0,0,0,,,,,"[0.16666666666666666, 0.3333333333333333, 0.3333333333333333, 0.16666666666666666, 0.3333333333333333, 0.16666666666666666, 0.3333333333333333, 0.5833333333333334, 0.3333333333333333, 0.5833333333333334, 0.3333333333333333, 0.5833333333333334, 0.16666666666666666, 0.3333333333333333, 0.16666666666666666]",377.129397300072,None,1.5470116355986636,none,757.0,-3.5267215643156797,2.6867012087330505e-05,0,48,[],0.012525666737928987,0.20789766672533005,None,378.14618899999186,None,0.20789766672533005,1.7549093023239937,378.35672370006796,None,,369.4023003000766,None,,,,,,ddmfvc,001,fr,0,2022-05-05_11h06.59.144,Continuous,2022.1.1,None,
9,0,9,0,1,0,1,0,,,,,,,,2.7107011940291583,none,,,,1,48,[],0.001685166615061462,None,None,379.92935620003846,379.92935620003846,0.20392816665116698,2.9146293606803253,380.14755880006123,379.92935620003846,,,,,,,,,ddmfvc,001,fr,0,2022-05-05_11h06.59.144,Continuous,2022.1.1,None,
9,0,9,0,2,0,2,0,,,,,,,,2.223733786437929,none,601.0,-5.462091889253344,2.9693553682669502e-05,0,49,[],0.007931866683065891,None,None,382.8917455000337,382.8917455000337,0.21956386673264205,2.4432976531705712,383.1084843999706,382.8917455000337,,,,,,,,,ddmfvc,001,fr,0,2022-05-05_11h06.59.144,Continuous,2022.1.1,None,
9,0,9,0,3,0,3,0,,,,,,,,2.7483266362383367,none,850.0,-1.881402244072539,3.2040164145035534e-05,0,50,[],0.006547366734594107,None,None,385.358919100021,385.358919100021,0.21584346669260412,2.964170102930941,385.57401009998284,385.358919100021,,,,,,,,,ddmfvc,001,fr,0,2022-05-05_11h06.59.144,Continuous,2022.1.1,None,
9,0,9,0,4,0,4,0,,,,,,,,2.6937499789836608,none,357.0,3.3219599282192473,0.00012858329076049263,0,51,[],0.0017306667286902666,None,['space'],388.3528794000158,388.3528794000158,0.20383576664607972,2.8975857456297405,388.5733153000474,388.3528794000158,[-2.466173299937509],,,,,,,,ddmfvc,001,fr,0,2022-05-05_11h06.59.144,Continuous,2022.1.1,None,
9,0,9,0,5,0,5,0,,,,,,,,1.5126996591888502,none,189.0,-6.0,0.00015311469229358974,0,52,[],0.015337133314460516,0.21311423333827406,['space'],391.2988438999746,391.2988438999746,0.21311423333827406,1.7258138925271242,391.5097134000389,391.2988438999746,[-2.4517437999602407],,,,,,,,ddmfvc,001,fr,0,2022-05-05_11h06.59.144,Continuous,2022.1.1,None,
9,0,9,0,6,0,6,0,,,,,,,,1.3596397547271304,none,535.0,-1.5725581790004945,5.505734163829329e-05,0,53,[],0.005541966645978391,None,None,393.0567024999764,393.0567024999764,0.21635806665290147,1.5759978213800319,393.2783619000111,393.0567024999764,,,,,,,,,ddmfvc,001,fr,0,2022-05-05_11h06.59.144,Continuous,2022.1.1,None,
9,0,9,0,7,0,7,0,,,,,,,,2.792818373630179,none,283.0,-4.166803090447088,8.202543838776432e-05,0,54,[],0.0012915667612105608,None,['space'],394.6646007000236,394.6646007000236,0.2051943667465821,2.998012740376761,394.8772148999851,394.6646007000236,[-1.0493055999977514],,,,,,,,ddmfvc,001,fr,0,2022-05-05_11h06.59.144,Continuous,2022.1.1,None,
9,0,9,0,8,0,8,0,,,,,,,,1.3125911180397727,none,150.0,2.3454672598727972,0.0006551989443494281,0,55,[],0.006229666760191321,None,None,397.70573360007256,397.70573360007256,0.21648356667719781,1.5290746847169705,397.9259466000367,397.70573360007256,,,,,,,,,ddmfvc,001,fr,0,2022-05-05_11h06.59.144,Continuous,2022.1.1,None,
10,0,10,0,0,0,0,0,,,,,"[0.16666666666666666, 0.5833333333333334, 0.16666666666666666, 0.3333333333333333, 0.5833333333333334, 0.16666666666666666, 0.16666666666666666, 0.5833333333333334, 0.5833333333333334, 0.16666666666666666, 0.5833333333333334, 0.5833333333333334, 0.3333333333333333, 0.3333333333333333, 0.16666666666666666]",404.20760239998344,None,1.9527396390417755,time,1498.0,-4.804847825506699,2.7808260578806402e-05,0,61,[],0.012469666660763323,None,None,405.2288274000166,None,0.2151709666941315,2.1679106057359068,405.4460861000698,None,,399.2647830999922,None,,,,,,ddmfvc,001,fr,0,2022-05-05_11h06.59.144,Continuous,2022.1.1,None,
10,0,10,0,1,0,1,0,,,,,,,,1.9527396390417755,time,8000.0,-5.0,0.00010208689723347648,0,62,[],0.005181166692636907,0.2011203666916117,None,407.4208303000778,407.4208303000778,0.2011203666916117,2.153860005733387,407.62695659999736,407.4208303000778,,,,,,,,,ddmfvc,001,fr,0,2022-05-05_11h06.59.144,Continuous,2022.1.1,None,
10,0,10,0,2,0,2,0,,,,,,,,1.9527396390417755,time,891.0,-3.587564541701783,2.7097111776943775e-05,0,63,[],0.0027260667411610484,0.19505756674334407,['space'],409.6104429999832,409.6104429999832,0.19505756674334407,2.1477972057851193,409.82143940008245,409.6104429999832,[-1.723281699931249],,,,,,,,ddmfvc,001,fr,0,2022-05-05_11h06.59.144,Continuous,2022.1.1,None,
10,0,10,0,3,0,3,0,,,,,,,,1.9527396390417755,time,3174.0,-4.544398596693604,4.115219289942413e-05,0,64,[],0.005981066729873419,None,['space'],411.80296270002145,411.80296270002145,0.20527476666029543,2.1580144057020707,412.0250020000385,411.80296270002145,[-1.7399634000612423],,,,,,,,ddmfvc,001,fr,0,2022-05-05_11h06.59.144,Continuous,2022.1.1,None,
10,0,10,0,4,0,4,0,,,,,,,,1.9527396390417755,time,5339.0,-5.763569847633038,7.222854045083544e-05,0,65,[],0.002319066785275936,0.19421496673021466,None,414.0003800999839,414.0003800999839,0.19421496673021466,2.14695460577199,414.2151892000111,414.0003800999839,,,,,,,,,ddmfvc,001,fr,0,2022-05-05_11h06.59.144,Continuous,2022.1.1,None,
10,0,10,0,5,0,5,0,,,,,,,,1.9527396390417755,time,1335.0,-4.69964331493272,3.0502851831031202e-05,0,66,[],0.005967266741208732,None,['space'],416.19777049997356,416.19777049997356,0.20499766676221043,2.1577373058039857,416.4073395000305,416.19777049997356,[-1.7334458000259474],,,,,,,,ddmfvc,001,fr,0,2022-05-05_11h06.59.144,Continuous,2022.1.1,None,
10,0,10,0,6,0,6,0,,,,,,,,1.9527396390417755,time,3563.0,-4.330360705355654,4.6326591313013206e-05,0,67,[],0.005930166807956994,0.2026836668374017,None,418.3946882999735,418.3946882999735,0.2026836668374017,2.155423305879177,418.6033213000046,418.3946882999735,,,,,,,,,ddmfvc,001,fr,0,2022-05-05_11h06.59.144,Continuous,2022.1.1,None,
10,0,10,0,7,0,7,0,,,,,,,,1.9527396390417755,time,2828.0,-2.7624710075410985,4.766511910950495e-05,0,68,[],0.006063666776753962,None,None,420.58388930000365,420.58388930000365,0.2042210667859763,2.1569607058277516,420.7968856000807,420.58388930000365,,,,,,,,,ddmfvc,001,fr,0,2022-05-05_11h06.59.144,Continuous,2022.1.1,None,
10,0,10,0,8,0,8,0,,,,,,,,1.9527396390417755,time,,,,1,68,[],0.00603586679790169,None,None,422.78647410008125,422.78647410008125,0.22510126675479114,2.1778409057965664,423.01404609996825,422.78647410008125,,,,,,,,,ddmfvc,001,fr,0,2022-05-05_11h06.59.144,Continuous,2022.1.1,None,
11,0,11,0,0,0,0,0,,,,,"[0.5833333333333334, 0.3333333333333333, 0.3333333333333333, 0.3333333333333333, 0.16666666666666666, 0.16666666666666666, 0.5833333333333334, 0.5833333333333334, 0.3333333333333333, 0.5833333333333334, 0.16666666666666666, 0.16666666666666666, 0.16666666666666666, 0.16666666666666666, 0.16666666666666666]",431.91807260003407,None,1.8711500407479427,time,236.0,8.081341212085174,0.0004942017257358955,0,69,[],0.012727066758088768,None,None,432.94185270008165,None,0.21844976674765348,2.0895998074955964,433.15154470002744,None,,424.99020970007405,None,,,,,,ddmfvc,001,fr,0,2022-05-05_11h06.59.144,Continuous,2022.1.1,None,
11,0,11,0,1,0,1,0,,,,,,,,1.8711500407479427,time,,,,1,69,[],0.005893666646443307,None,['space'],435.0506433000555,435.0506433000555,0.2067431666655466,2.0778932074134895,435.2647104000207,435.0506433000555,[-1.7066668000770733],,,,,,,,ddmfvc,001,fr,0,2022-05-05_11h06.59.144,Continuous,2022.1.1,None,
11,0,11,0,2,0,2,0,,,,,,,,1.8711500407479427,time,210.0,3.5192789172747334,0.0003686673919236146,0,70,[],0.00723136670421809,None,None,437.16862480004784,437.16862480004784,0.2088458666112274,2.0799959073591703,437.38369030004833,437.16862480004784,,,,,,,,,ddmfvc,001,fr,0,2022-05-05_11h06.59.144,Continuous,2022.1.1,None,
11,0,11,0,3,0,3,0,,,,,,,,1.8711500407479427,time,265.0,11.191756531910636,0.0005498736651444046,0,71,[],0.014957633335143328,None,['space'],439.2825538000325,439.2825538000325,0.24024423328228295,2.111394274030226,439.51576430001296,439.2825538000325,[-1.6344337000045925],,,,,,,,ddmfvc,001,fr,0,2022-05-05_11h06.59.144,Continuous,2022.1.1,None,
11,0,11,0,4,0,4,0,,,,,,,,1.8711500407479427,time,297.0,12.811793826043296,0.0005144356918211636,0,72,[],0.001416466780938208,None,['space'],441.4145228000125,441.4145228000125,0.19551266671624035,2.0666627074641832,441.62743370002136,441.4145228000125,[-1.6544636000180617],,,,,,,,ddmfvc,001,fr,0,2022-05-05_11h06.59.144,Continuous,2022.1.1,None,
11,0,11,0,5,0,5,0,,,,,,,,1.8711500407479427,time,187.0,8.824138523568063,0.0008638869487204868,0,73,[],0.0018407667521387339,None,['space'],443.5280983999837,443.5280983999837,0.19728176668286324,2.068431807430806,443.74329010001384,443.5280983999837,[-1.8005324000259861],,,,,,,,ddmfvc,001,fr,0,2022-05-05_11h06.59.144,Continuous,2022.1.1,None,
11,0,11,0,6,0,6,0,,,,,,,,1.8711500407479427,time,125.0,13.0,0.003228271145173279,0,74,[],0.0024836667580530047,None,['space'],445.6484784000786,445.6484784000786,0.19594366673845798,2.067093707486401,445.8622269000625,445.6484784000786,[-1.7766696000471711],,,,,,,,ddmfvc,001,fr,0,2022-05-05_11h06.59.144,Continuous,2022.1.1,None,
11,0,11,0,7,0,7,0,,,,,,,,1.8711500407479427,time,333.0,11.032238779479599,0.0003345802392764111,0,75,[],0.0019493666477501392,None,['space'],447.7682547000004,447.7682547000004,0.20322986668907106,2.074379907437014,447.98289210000075,447.7682547000004,[-1.7532525999704376],,,,,,,,ddmfvc,001,fr,0,2022-05-05_11h06.59.144,Continuous,2022.1.1,None,
12,0,12,0,0,0,0,0,,,,,,461.80473239999264,None,2.2274734017008138,frequency,5924.0,-3.888791556042859,7.584202194084772e-05,0,56,[],0.012677066726610065,None,None,462.83812640002,None,0.23431216669268906,2.461785568393503,463.06513420003466,None,,449.8853389000287,None,0.5833333333333334,,,,,ddmfvc,001,fr,0,2022-05-05_11h06.59.144,Continuous,2022.1.1,None,
12,0,12,0,1,0,1,0,,,,,,,,1.7110318843203811,frequency,3954.0,-1.4912955410307562,7.001759225840797e-05,0,57,[],0.004880466847680509,None,None,465.31559740006924,465.31559740006924,0.20387746684718877,1.9149093511675699,465.53171330003534,465.31559740006924,,,,,,,,,ddmfvc,001,fr,0,2022-05-05_11h06.59.144,Continuous,2022.1.1,None,
12,0,12,0,2,0,2,0,,,,,,,,1.022818250693383,frequency,2639.0,1.0,8.668438528048491e-05,0,58,[],0.01572793337982148,None,['space'],467.2775681000203,467.2775681000203,0.2096134334569797,1.2324316841503626,467.4919971000636,467.2775681000203,[-1.4703149000415578],,,,,,,,ddmfvc,001,fr,0,2022-05-05_11h06.59.144,Continuous,2022.1.1,None,
12,0,12,0,3,0,3,0,,,,,,,,1.9625302240177442,frequency,1761.0,-0.4210379955225365,6.09909030451614e-05,0,59,[],0.003884966718032956,0.19163006672170013,['space'],468.5576774000656,468.5576774000656,0.19163006672170013,2.154160290739444,468.7601668999996,468.5576774000656,[-0.7664455999620259],,,,,,,,ddmfvc,001,fr,0,2022-05-05_11h06.59.144,Continuous,2022.1.1,None,
12,0,12,0,4,0,4,0,,,,,,,,2.321106046675604,frequency,1175.0,0.2966068627433085,5.3156750696424e-05,0,60,[],0.004400266683660448,None,['space'],470.7547875000164,470.7547875000164,0.21667516673915088,2.537781213414755,470.9795462000184,470.7547875000164,[-1.764380200067535],,,,,,,,ddmfvc,001,fr,0,2022-05-05_11h06.59.144,Continuous,2022.1.1,None,
12,0,12,0,5,0,5,0,,,,,,,,1.471271575576589,frequency,,,,1,60,[],0.005118366680108011,None,['space'],473.3245494000148,473.3245494000148,0.22030726668890566,1.6915788422654947,473.54104010004085,473.3245494000148,[-2.094078400055878],,,,,,,,ddmfvc,001,fr,0,2022-05-05_11h06.59.144,Continuous,2022.1.1,None,
12,0,12,0,6,0,6,0,,,,,,,,2.1294889192656465,frequency,523.0,-0.29709553079861595,6.557493831591438e-05,0,61,[],0.005302966805174947,0.19947066681925207,None,475.0442391000688,475.0442391000688,0.19947066681925207,2.3289595860848986,475.2560936000664,475.0442391000688,,,,,,,,,ddmfvc,001,fr,0,2022-05-05_11h06.59.144,Continuous,2022.1.1,None,
12,0,12,0,7,0,7,0,,,,,,,,1.9490002936755844,frequency,349.0,3.2995716808095272,0.00013128889357853714,0,62,[],0.0025121666258201003,None,['space'],477.41495500004385,477.41495500004385,0.1973951666150242,2.1463954602906083,477.629217299982,477.41495500004385,[-1.368163299979642],,,,,,,,ddmfvc,001,fr,0,2022-05-05_11h06.59.144,Continuous,2022.1.1,None,
12,0,12,0,8,0,8,0,,,,,,,,2.5070942867143344,frequency,233.0,2.3754966605561694,0.00026394573125142136,0,63,[],0.015181233291514218,None,['space'],479.60720930004027,479.60720930004027,0.21888193336781114,2.7259762200821456,479.8264999000821,479.60720930004027,[-1.6563172000460327],,,,,,,,ddmfvc,001,fr,0,2022-05-05_11h06.59.144,Continuous,2022.1.1,None,
12,0,12,0,9,0,9,0,,,,,,,,2.153456199874972,frequency,156.0,1.2628996545859519,0.0005166454607396391,0,64,[],0.003302066819742322,None,['space'],482.3667858999688,482.3667858999688,0.20509326679166406,2.358549466666636,482.5793145999778,482.3667858999688,[-2.320395499933511],,,,,,,,ddmfvc,001,fr,0,2022-05-05_11h06.59.144,Continuous,2022.1.1,None,
13,0,13,0,0,0,0,0,,,,,,493.0137742999941,None,1.3957796373305582,frequency,659.0,-3.1163972878187485,3.396323394551126e-05,0,65,[],0.012875666725449264,None,None,494.0410845000297,None,0.21655536675825715,1.6123350040888154,494.251445800066,None,,484.7696182000218,None,0.16666666666666666,,,,,ddmfvc,001,fr,0,2022-05-05_11h06.59.144,Continuous,2022.1.1,None,
13,0,13,0,1,0,1,0,,,,,,,,1.0705791882905114,frequency,,,,1,65,[],0.002356466604396701,None,['space'],495.6815971999895,495.6815971999895,0.20153266668785363,1.272111854978365,495.89960840006825,495.6815971999895,[-1.1383207000326365],,,,,,,,ddmfvc,001,fr,0,2022-05-05_11h06.59.144,Continuous,2022.1.1,None,
13,0,13,0,2,0,2,0,,,,,,,,2.15979740725074,frequency,523.0,-2.5817027106346817,5.0408936118833345e-05,0,66,[],0.003249066765420139,0.19656076678074896,None,497.00315370003227,497.00315370003227,0.19656076678074896,2.356358174031489,497.2158215000527,497.00315370003227,,,,,,,,,ddmfvc,001,fr,0,2022-05-05_11h06.59.144,Continuous,2022.1.1,None,
13,0,13,0,3,0,3,0,,,,,,,,1.6390194331890717,frequency,466.0,-4.524393114897506,4.346948992342006e-05,0,67,[],0.004279166692867875,None,None,499.4015929000452,499.4015929000452,0.20292256667744368,1.8419419998665154,499.611674600048,499.4015929000452,,,,,,,,,ddmfvc,001,fr,0,2022-05-05_11h06.59.144,Continuous,2022.1.1,None,
13,0,13,0,4,0,4,0,,,,,,,,2.587109603054416,frequency,415.0,0.6041398859603557,8.124693617267843e-05,0,68,[],0.00507226656191051,None,None,501.2859027000377,501.2859027000377,0.2074924665503204,2.7946020696047364,501.49164040002506,501.2859027000377,,,,,,,,,ddmfvc,001,fr,0,2022-05-05_11h06.59.144,Continuous,2022.1.1,None,
13,0,13,0,5,0,5,0,,,,,,,,1.5986866055201068,frequency,370.0,-1.4604116901325837,7.128967252461788e-05,0,69,[],0.0011758666951209307,0.19677906669676304,['space'],504.108450400061,504.108450400061,0.19677906669676304,1.7954656722168698,504.3270530999871,504.108450400061,[-2.3491749999811873],,,,,,,,ddmfvc,001,fr,0,2022-05-05_11h06.59.144,Continuous,2022.1.1,None,
13,0,13,0,6,0,6,0,,,,,,,,1.8193447712195374,frequency,330.0,-6.0,4.747596409789002e-05,0,70,[],0.004723566584289074,None,['space'],505.9571237000637,505.9571237000637,0.2060522666433826,2.02539703786292,506.1674206000753,505.9571237000637,[-1.2691874000011012],,,,,,,,ddmfvc,001,fr,0,2022-05-05_11h06.59.144,Continuous,2022.1.1,None,
13,0,13,0,7,0,7,0,,,,,,,,2.174764938343336,frequency,294.0,2.455887703630543,0.00016036453393113178,0,71,[],0.004877666826359928,None,None,508.0238412000472,508.0238412000472,0.20933236682321876,2.384097305166555,508.22785240004305,508.0238412000472,,,,,,,,,ddmfvc,001,fr,0,2022-05-05_11h06.59.144,Continuous,2022.1.1,None,
13,0,13,0,8,0,8,0,,,,,,,,1.1985805681896469,frequency,262.0,-2.4656280771388532,0.00011652117386313349,0,72,[],0.003152966732159257,0.19147466670256108,['space'],510.4462527000578,510.4462527000578,0.19147466670256108,1.390055234892208,510.6511459000176,510.4462527000578,[-1.870746299973689],,,,,,,,ddmfvc,001,fr,0,2022-05-05_11h06.59.144,Continuous,2022.1.1,None,
13,0,13,0,9,0,9,0,,,,,,,,2.972655507494694,frequency,233.0,-1.751735724451767,0.0001641167935774599,0,73,[],0.0158654332626611,None,['space'],511.87375440006144,511.87375440006144,0.2203487332444638,3.1930042407391577,512.0924747000681,511.87375440006144,[-0.8349004000192508],,,,,,,,ddmfvc,001,fr,0,2022-05-05_11h06.59.144,Continuous,2022.1.1,None,
13,0,13,0,10,0,10,0,,,,,,,,2.2720848037184584,frequency,208.0,-3.896979232548837,0.00015947369420629912,0,74,[],0.01397363340947777,None,None,515.0961154999677,515.0961154999677,0.2100511334137991,2.4821359371322576,515.3069595000707,515.0961154999677,,,,,,,,,ddmfvc,001,fr,0,2022-05-05_11h06.59.144,Continuous,2022.1.1,None,
13,0,13,0,11,0,11,0,,,,,,,,1.295449559082465,frequency,185.0,-0.7631716694695581,0.000293149356375818,0,75,[],0.004545966628938913,None,None,517.6147439000197,517.6147439000197,0.2077542666811496,1.5032038257636147,517.8319164999994,517.6147439000197,,,,,,,,,ddmfvc,001,fr,0,2022-05-05_11h06.59.144,Continuous,2022.1.1,None,
13,0,13,0,12,0,12,0,,,,,,,,2.2083627839884725,frequency,165.0,-0.9454073947523909,0.0003523905885311621,0,76,[],0.0009403667645528913,None,['space'],519.1570218000561,519.1570218000561,0.19699606683570892,2.4053588508241814,519.3715902999975,519.1570218000561,[-0.8693336000433192],,,,,,,,ddmfvc,001,fr,0,2022-05-05_11h06.59.144,Continuous,2022.1.1,None,
13,0,13,0,13,0,13,0,,,,,,,,2.4270297974214277,frequency,147.0,3.6206505671189824,0.0007993298880544958,0,77,[],0.0006230665603652596,None,None,521.6102192000253,521.6102192000253,0.1963346665725112,2.623364463993939,521.8294572000159,521.6102192000253,,,,,,,,,ddmfvc,001,fr,0,2022-05-05_11h06.59.144,Continuous,2022.1.1,None,
13,0,13,0,14,0,14,0,,,,,,,,1.664887092079767,frequency,131.0,-5.639903179988657,0.0003496452283075973,0,78,[],0.004526266711764038,None,['space'],524.2923709000461,524.2923709000461,0.20746646670158952,1.8723535587813565,524.5024355000351,524.2923709000461,[-2.084670400014147],,,,,,,,ddmfvc,001,fr,0,2022-05-05_11h06.59.144,Continuous,2022.1.1,None,
14,0,14,0,0,0,0,0,,,,,"[0.16666666666666666, 0.5833333333333334, 0.3333333333333333, 0.16666666666666666, 0.3333333333333333, 0.16666666666666666, 0.3333333333333333, 0.16666666666666666, 0.5833333333333334, 0.3333333333333333, 0.5833333333333334, 0.16666666666666666, 0.5833333333333334, 0.3333333333333333, 0.5833333333333334]",537.5989149999805,None,2.5110643330716984,none,831.0,-0.3348109720871645,3.776502060478763e-05,0,56,[],0.012420566752552986,None,None,538.6196156999795,None,0.2371824667789042,2.7482467998506026,538.8451064999681,None,,526.1971542000538,None,,,,,,ddmfvc,001,fr,0,2022-05-05_11h06.59.144,Continuous,2022.1.1,None,
14,0,14,0,1,0,1,0,,,,,,,,2.927436192888589,none,3139.0,1.6324377092145963,8.203358691411638e-05,0,57,[],0.016477633267641068,None,['space'],541.3830298000248,541.3830298000248,0.2279244331875816,3.1553606260761704,541.6069744999986,541.3830298000248,[-2.215871199965477],,,,,,,,ddmfvc,001,fr,0,2022-05-05_11h06.59.144,Continuous,2022.1.1,None,
14,0,14,0,2,0,2,0,,,,,,,,1.572071936759188,none,1569.0,-4.145958044681712,3.358562675723086e-05,0,58,[],0.01483573333825916,None,None,544.5596326000523,544.5596326000523,0.21249033336061984,1.7845622701198078,544.7748042000458,544.5596326000523,,,,,,,,,ddmfvc,001,fr,0,2022-05-05_11h06.59.144,Continuous,2022.1.1,None,
14,0,14,0,3,0,3,0,,,,,,,,1.8224284379495375,none,1761.0,-3.5699406273091205,4.244435439494335e-05,0,59,[],0.004144566715694964,None,None,546.383981400053,546.383981400053,0.2087895666481927,2.03121800459773,546.6004668000387,546.383981400053,,,,,,,,,ddmfvc,001,fr,0,2022-05-05_11h06.59.144,Continuous,2022.1.1,None,
14,0,14,0,4,0,4,0,,,,,,,,1.2394090348793836,none,5278.0,-3.0,0.00010087833655401906,0,60,[],0.0002940667327493429,None,['space'],548.4566944000544,548.4566944000544,0.20525776676367968,1.4446668016430633,548.6767747000558,548.4566944000544,[-1.5296522000571713],,,,,,,,ddmfvc,001,fr,0,2022-05-05_11h06.59.144,Continuous,2022.1.1,None,
14,0,14,0,5,0,5,0,,,,,,,,1.9830684563619587,none,3523.0,-0.7693104923674183,6.916176145259515e-05,0,61,[],0.00395386666059494,None,['space'],549.952283199993,549.952283199993,0.20666506665293127,2.18973352301489,550.1616019000066,549.952283199993,[-1.073251000023447],,,,,,,,ddmfvc,001,fr,0,2022-05-05_11h06.59.144,Continuous,2022.1.1,None,
14,0,14,0,6,0,6,0,,,,,,,,2.6972590245127694,none,2219.0,-2.654320667981324,5.868934251757851e-05,0,62,[],0.016128233401104808,None,['space'],552.1827070000581,552.1827070000581,0.24395233334507793,2.9412113578578474,552.4232570000459,552.1827070000581,[-1.8314010000322014],,,,,,,,ddmfvc,001,fr,0,2022-05-05_11h06.59.144,Continuous,2022.1.1,None,
14,0,14,0,7,0,7,0,,,,,,,,2.606981459994179,none,1245.0,-2.7790223635366558,3.9432056119929475e-05,0,63,[],0.002069066744297743,0.19773956679273397,None,555.143424800015,555.143424800015,0.19773956679273397,2.804721026786913,555.3547153000254,555.143424800015,,,,,,,,,ddmfvc,001,fr,0,2022-05-05_11h06.59.144,Continuous,2022.1.1,None,
14,0,14,0,8,0,8,0,,,,,,,,2.8068111651930434,none,6650.0,-4.888193836779164,8.009936984732489e-05,0,64,[],0.001202866667881608,0.19779186672531068,None,557.997881700052,557.997881700052,0.19779186672531068,3.004603031918354,558.2093553000595,557.997881700052,,,,,,,,,ddmfvc,001,fr,0,2022-05-05_11h06.59.144,Continuous,2022.1.1,None,
14,0,14,0,9,0,9,0,,,,,,,,1.0493391223393136,none,,,,1,64,[],0.004287766758352518,None,['space'],561.0449918999802,561.0449918999802,0.2067628666991368,1.2561019890384504,561.2553038999904,561.0449918999802,[-2.6932253999402747],,,,,,,,ddmfvc,001,fr,0,2022-05-05_11h06.59.144,Continuous,2022.1.1,None,
15,0,15,0,0,0,0,0,,,,,"[0.16666666666666666, 0.5833333333333334, 0.16666666666666666, 0.5833333333333334, 0.5833333333333334, 0.16666666666666666, 0.16666666666666666, 0.3333333333333333, 0.3333333333333333, 0.5833333333333334, 0.3333333333333333, 0.16666666666666666, 0.5833333333333334, 0.3333333333333333, 0.3333333333333333]",570.6560390000232,None,2.070649247524467,time,4490.0,-5.56966906182023,6.196225183097459e-05,0,76,[],0.012781266705133021,None,None,571.6836722000735,None,0.23091676668263972,2.301566014207107,571.906790100038,None,,562.335677199997,None,,,,,,ddmfvc,001,fr,0,2022-05-05_11h06.59.144,Continuous,2022.1.1,None,
15,0,15,0,1,0,1,0,,,,,,,,2.070649247524467,time,2670.0,-1.788289388668138,6.131403182139688e-05,0,77,[],0.00046656676568090916,None,None,574.0014349999838,574.0014349999838,0.19649406673852354,2.2671433142629906,574.2171095000813,574.0014349999838,,,,,,,,,ddmfvc,001,fr,0,2022-05-05_11h06.59.144,Continuous,2022.1.1,None,
15,0,15,0,2,0,2,0,,,,,,,,2.070649247524467,time,6350.0,-3.9777408255924023,8.319871856713091e-05,0,78,[],0.00036456657107919455,None,None,576.3176291000564,576.3176291000564,0.19702186656650156,2.2676711140909687,576.5323697000276,576.3176291000564,,,,,,,,,ddmfvc,001,fr,0,2022-05-05_11h06.59.144,Continuous,2022.1.1,None,
15,0,15,0,3,0,3,0,,,,,,,,2.070649247524467,time,8000.0,-2.0,0.00014420157515633036,0,79,[],0.016651133191771805,None,['space'],578.6373443000484,578.6373443000484,0.21115373319480568,2.281802980719273,578.8526130000828,578.6373443000484,[-1.9183014000300318],,,,,,,,ddmfvc,001,fr,0,2022-05-05_11h06.59.144,Continuous,2022.1.1,None,
15,0,15,0,4,0,4,0,,,,,,,,2.070649247524467,time,1060.0,-1.7521015122572796,3.8056357124839246e-05,0,80,[],0.016322833253070712,None,['space'],580.9574479999719,580.9574479999719,0.21069073327817023,2.2813399808026373,581.1748434000183,580.9574479999719,[-1.9981075999094173],,,,,,,,ddmfvc,001,fr,0,2022-05-05_11h06.59.144,Continuous,2022.1.1,None,
15,0,15,0,5,0,5,0,,,,,,,,2.070649247524467,time,1588.0,-4.582224072038787,3.288748633961167e-05,0,81,[],0.00010566669516265392,None,['space'],583.2771108000306,583.2771108000306,0.19816356664523482,2.268812814169702,583.4907064000145,583.2771108000306,[-1.9339798000873998],,,,,,,,ddmfvc,001,fr,0,2022-05-05_11h06.59.144,Continuous,2022.1.1,None,
15,0,15,0,6,0,6,0,,,,,,,,2.070649247524467,time,1782.0,-3.4293399672427616,4.3775912987937876e-05,0,82,[],0.0005187668139114976,None,['space'],585.5955440000398,585.5955440000398,0.19521216675639153,2.2658614142808586,585.8100506999763,585.5955440000398,[-1.9157364000566304],,,,,,,,ddmfvc,001,fr,0,2022-05-05_11h06.59.144,Continuous,2022.1.1,None,
15,0,15,0,7,0,7,0,,,,,,,,2.070649247524467,time,,,,1,82,[],0.0005074667278677225,0.193966866703704,['space'],587.9158065000083,587.9158065000083,0.193966866703704,2.264616114228171,588.13147760008,587.9158065000083,[-1.9808617000235245],,,,,,,,ddmfvc,001,fr,0,2022-05-05_11h06.59.144,Continuous,2022.1.1,None,
15,0,15,0,8,0,8,0,,,,,,,,2.070649247524467,time,5040.0,-5.56822742202758,7.967908067573708e-05,0,83,[],0.004120566765777767,None,None,590.2305395000149,590.2305395000149,0.20368386677000672,2.274333114294474,590.4432442999678,590.2305395000149,,,,,,,,,ddmfvc,001,fr,0,2022-05-05_11h06.59.144,Continuous,2022.1.1,None,
16,0,16,0,0,0,0,0,,,,,"[0.16666666666666666, 0.3333333333333333, 0.3333333333333333, 0.5833333333333334, 0.3333333333333333, 0.3333333333333333, 0.16666666666666666, 0.3333333333333333, 0.5833333333333334, 0.5833333333333334, 0.5833333333333334, 0.3333333333333333, 0.16666666666666666, 0.3333333333333333, 0.3333333333333333]",599.1768252999755,None,2.7402251960103126,time,248.0,1.9575709068155271,0.00021472971579669764,0,84,[],0.012868966674432158,0.20859626668971032,None,600.204320400022,None,0.20859626668971032,2.948821462700023,600.410573399975,None,,592.549039500067,None,,,,,,ddmfvc,001,fr,0,2022-05-05_11h06.59.144,Continuous,2022.1.1,None,
16,0,16,0,1,0,1,0,,,,,,,,2.7402251960103126,time,175.0,-7.107018213956021,0.00015728904122541093,0,85,[],0.0032840666826814413,None,None,603.1773353000171,603.1773353000171,0.20767636667005718,2.9479015626803697,603.3932404000079,603.1773353000171,,,,,,,,,ddmfvc,001,fr,0,2022-05-05_11h06.59.144,Continuous,2022.1.1,None,
16,0,16,0,2,0,2,0,,,,,,,,2.7402251960103126,time,1049.0,-4.890444610682307,2.6254108690987884e-05,0,86,[],0.01636793336365372,None,None,606.1664930999978,606.1664930999978,0.21174223336856812,2.9519674293788807,606.3813752999995,606.1664930999978,,,,,,,,,ddmfvc,001,fr,0,2022-05-05_11h06.59.144,Continuous,2022.1.1,None,
16,0,16,0,3,0,3,0,,,,,,,,2.7402251960103126,time,,,,1,86,[],0.0006983666680753231,0.19408526667393744,['space'],609.155345999985,609.155345999985,0.19408526667393744,2.93431046268425,609.3683257000521,609.155345999985,[-2.324044600012712],,,,,,,,ddmfvc,001,fr,0,2022-05-05_11h06.59.144,Continuous,2022.1.1,None,
16,0,16,0,4,0,4,0,,,,,,,,2.7402251960103126,time,1484.0,-6.787592788858126,2.2291910163092016e-05,0,87,['time'],0.004432666697539389,None,['space'],612.1369303000392,612.1369303000392,0.21123186661861837,2.951457062628931,612.3479653000832,612.1369303000392,[-2.5698545000050217],,,,"{'estimation': [[125.0, 10.274039769505858], [125.9056525175209, 10.0], [129.15010786511263, 9.0], [132.46819367111632, 8.0], [133.9716828170366, 7.5750729725737145], [136.01048289948943, 7.0], [139.39847256097573, 6.0], [142.81425920104655, 5.0], [143.5872943746293, 4.7822518504060385], [147.0203590013891, 4.0], [151.30494662407756, 3.0], [153.89305166811442, 2.41118048865338], [156.83192395126832, 2.0], [164.1110197902638, 1.0], [164.9384888466115, 0.8894559462910174], [176.77669529663666, 0.4452436158626686], [188.7911414857499, 1.0], [189.46457081379947, 1.0289070893127226], [199.4725840308085, 2.0], [203.0630990890585, 2.322223738213206], [209.437792171398, 3.0], [217.6376408240306, 3.8235325649722154], [219.92280032997465, 4.0], [233.25824788420132, 4.991248810216466], [233.6180314044605, 5.0], [249.99999999999937, 5.383790261080012], [261.2234584076153, 5.0], [267.94336563407256, 4.777234309026726], [277.3080870109531, 4.0], [287.1745887492579, 3.212511466604763], [289.0838079580879, 3.0], [297.959685809883, 2.0], [307.24403402768803, 1.0], [307.78610333622805, 0.9442326807664048], [315.75875614413434, 0.0], [324.1823356473995, -1.0], [329.87697769322244, -1.6353313166617776], [333.3815086432, -2.0], [342.70772560596373, -3.0], [352.31623241969123, -4.0], [353.55339059327247, -4.123490338351562], [364.2524729196109, -5.0], [376.4457160860512, -6.0], [378.929141627598, -6.198087385050442], [393.6859061604069, -7.0], [406.12619817811606, -7.672192446266084], [417.592806467115, -8.0], [435.2752816480601, -8.501236533381846], [466.5164957684015, -8.739145083106289], [499.9999999999975, -8.500939946182253], [530.1313252955321, -8.0], [535.8867312681438, -7.909178228499762], [574.3491774985143, -7.087887091304914], [577.980231883838, -6.999999999999999], [615.5722066724546, -6.1474830899629085], [622.0932133082242, -5.999999999999999], [659.7539553864432, -5.201555595378583], [670.6551975303291, -5.0], [707.1067811865431, -4.366237295834094], [736.5537184038127, -4.0], [757.8582832551941, -3.7486464759706157], [812.2523963562301, -3.4311006181854444], [870.550563296117, -3.4330778709954384], [933.0329915368008, -3.7097457481735296], [975.866647957266, -4.0], [999.9999999999926, -4.157888129716829], [1071.773462536285, -4.630838136439452], [1148.698354997026, -4.992204387322474], [1152.8786110792898, -5.0], [1231.1444133449063, -5.1426986404300825], [1319.5079107728832, -5.038340154547389], [1329.8118070459982, -5.0], [1414.2135623730828, -4.70145403570987], [1515.7165665103846, -4.198456231086551], [1551.255402884084, -4.0], [1624.5047927124563, -3.606444373603415], [1741.1011265922318, -3.004396773645734], [1742.0734292783193, -3.0], [1866.065983073597, -2.439503724444365], [1981.8250977002235, -2.0], [1999.9999999999802, -1.9302187667689588], [2143.5469250725646, -1.4686129668256362], [2297.396709994046, -1.0249831220833698], [2305.803365323029, -1.0], [2462.2888266898062, -0.5635539731997241], [2639.01582154576, -0.05752322144190255], [2657.5200082741426, 0.0], [2828.427124746159, 0.5042218054750368], [2997.5680483424926, 1.0], [3031.4331330207615, 1.097427092590212], [3249.0095854249043, 1.6640106558709924], [3420.479333833375, 2.0], [3482.2022531844555, 2.1203128027757305], [3732.1319661471844, 2.3685042487592547], [3999.9999999999504, 2.3284005666015752], [4254.812866837535, 2.0], [4287.093850145118, 1.9606054233907495], [4594.7934199880865, 1.2913282663618664], [4697.766758752418, 1.0], [4924.577653379601, 0.39432384550665267], [5059.898085849587, 0.0], [5278.031643091506, -0.6084130310749526], [5427.331823799169, -1.0], [5656.854249492303, -1.5853479198794813], [5855.642492303136, -2.0], [6062.866266041508, -2.4238908523902922], [6462.402401917431, -2.9999999999999996], [6498.019170849792, -3.0503397406602617], [6964.404506368894, -3.4385305987201815], [7464.2639322943505, -3.603374769176874], [7999.999999999882, -3.584741859885072]], 'plus_line': [[125.0, 5.6141576888833855], [126.91113310103991, 5.0], [130.07793585736312, 4.0], [133.78198106232563, 3.0], [133.9716828170366, 2.9518099681923826], [136.8144237489598, 2.0], [139.84736356565134, 1.0], [143.31621450357355, 0.0], [143.58729437462938, -0.07412347005089462], [147.0576101318081, -1.0], [150.96306165077144, -2.0], [153.89305166811442, -2.680195890541038], [156.0356908191503, -3.0], [162.94714826816733, -4.0], [164.93848884661162, -4.273472473142378], [176.77669529663666, -4.614377240442506], [186.30465673598144, -4.0], [189.46457081379947, -3.815243463703344], [196.74616196257875, -3.0], [203.0630990890585, -2.314671461284508], [205.83845904145275, -2.0], [214.67757221466778, -1.0], [217.6376408240306, -0.6779114543220607], [226.33769729683905, 0.0], [233.25824788420132, 0.5262604961135655], [249.99999999999937, 0.9122536884700528], [267.94336563407256, 0.2780003706120968], [271.1808629078686, 0.0], [283.228576049817, -1.0], [287.1745887492579, -1.3055578233438299], [292.9740343425467, -2.0], [301.81995762016714, -2.9999999999999996], [307.78610333622805, -3.5986732257475875], [310.92520640441415, -4.0], [318.670259508786, -5.0], [327.5246012584488, -6.0], [329.87697769322244, -6.244909455383896], [336.22082217375555, -7.0], [344.94527809646024, -8.0], [353.55339059327247, -8.858648090865046], [355.09713040148165, -9.0], [365.73337727782047, -10.0], [377.59817769316686, -11.0], [378.929141627598, -11.107426470910202], [393.1534170633803, -12.0], [406.12619817811606, -12.757637652873594], [413.51764865729336, -13.0], [435.2752816480601, -13.707997061888467], [466.5164957684015, -13.982030134103052], [499.9999999999975, -13.720935704253488], [535.8867312681444, -13.03372207804166], [537.1742354578428, -13.0], [574.3491774985143, -12.087337244252977], [577.4918878322343, -12.000000000000002], [615.4134191111614, -11.0], [615.5722066724546, -10.99606649477022], [655.8676505188783, -10.0], [659.7539553864432, -9.909474348513871], [704.5693744962947, -9.0], [707.1067811865431, -8.951838629277981], [757.8582832551941, -8.25969565795097], [793.3743850217, -8.0], [812.2523963562301, -7.877225007633776], [870.550563296117, -7.835107310520352], [914.9946193939124, -8.0], [933.0329915368008, -8.0701890648293], [999.9999999999926, -8.505451168825145], [1071.773462536285, -8.97564019562487], [1076.4917150329966, -9.0], [1148.698354997026, -9.386572565996698], [1231.1444133449063, -9.566826868772157], [1319.5079107728832, -9.455960176872441], [1414.2135623730828, -9.053024380203778], [1422.8622652495012, -9.0], [1515.7165665103864, -8.489922237386295], [1600.3080849395171, -8.0], [1624.5047927124563, -7.870856969994447], [1741.1011265922318, -7.359627561289043], [1852.7146496994753, -7.0], [1866.065983073597, -6.9592862270062446], [1999.9999999999802, -6.652158453359991], [2143.5469250725646, -6.305082596855765], [2241.827974719718, -6.0], [2297.396709994046, -5.842291727643763], [2462.2888266898062, -5.265401060021107], [2530.0019616864447, -5.0], [2639.01582154576, -4.61532759862294], [2818.250599374762, -4.0], [2828.427124746159, -3.9679285781791944], [3031.4331330207615, -3.4163147396523983], [3217.2543869131655, -3.0], [3249.0095854249043, -2.933351827029553], [3482.2022531844555, -2.5759042013169404], [3732.1319661471844, -2.3617655897889334], [3999.999999999946, -2.3678872710250967], [4287.093850145118, -2.6465919633149317], [4479.206506252683, -3.0], [4594.7934199880865, -3.2099885891986], [4918.943226843692, -4.0], [4924.577653379601, -4.0133744268586105], [5278.031643091506, -4.991827929747092], [5280.98334811757, -5.0], [5648.9725160078015, -6.0], [5656.85424949231, -6.020970342699873], [6062.866266041508, -6.952383088727697], [6092.572489594927, -7.0], [6498.019170849792, -7.6562496370676], [6918.105404951779, -8.0], [6964.404506368894, -8.03936889601102], [7464.2639322943505, -8.198666812022918], [7999.999999999872, -8.316405891965587]], 'minus_line': [[125.0, 15.130496755377608], [125.44915530664579, 15.0], [128.7915778245458, 14.0], [131.8535969813889, 13.000000000000002], [133.9716828170366, 12.325258739517928], [135.2745019547098, 12.0], [139.02314049704012, 11.0], [142.4381059474903, 10.0], [143.5872943746293, 9.672859566953925], [146.9007915426265, 9.0], [151.44034688748926, 8.0], [153.89305166811442, 7.452384139610645], [157.23546656477552, 7.0], [164.51281329751117, 6.0], [164.93848884661162, 5.943337716236754], [176.77669529663666, 5.389007706703325], [189.46457081379947, 5.7745982437179775], [192.04339942010282, 6.0], [203.06309908905865, 6.889521806066336], [204.1384865230115, 7.0], [214.26173641075465, 8.0], [217.6376408240306, 8.305540423009667], [226.85645813070533, 9.0], [233.25824788420132, 9.457281751593234], [249.99999999999937, 9.851791231561196], [267.94336563407256, 9.241068011126234], [270.8334410363486, 9.0], [282.7556812676759, 8.0], [287.1745887492579, 7.636758710045727], [293.16523774530725, 7.0], [301.9125914972292, 6.0], [307.78610333622805, 5.3339934977952455], [310.92154426361174, 5.0], [319.6794363383247, 4.0], [327.8486200013116, 3.0], [329.87697769322244, 2.766228598874473], [338.0286835132019, 2.0], [347.6075033888784, 1.0], [353.55339059327247, 0.3789133314646481], [358.8749723238963, 0.0], [372.0599278443051, -1.0], [378.929141627598, -1.5348204357044957], [388.8245672159508, -2.0], [406.12619817811606, -2.8414736161756267], [412.59574774698484, -3.0], [435.2752816480601, -3.53501996842763], [466.5164957684015, -3.721479698296331], [499.9999999999975, -3.5056075657294192], [535.8867312681438, -3.011401530217233], [536.4818207819371, -3.0], [574.3491774985143, -2.302002560506926], [589.297312982588, -2.0], [615.5722066724546, -1.492717423072229], [641.6444093734062, -1.0], [659.7539553864432, -0.6715801412360345], [703.1811828870984, 0.0], [707.1067811865431, 0.05946865116751976], [757.8582832551951, 0.6224603424463802], [812.252396356229, 0.8921068248782189], [870.5505632961181, 0.8503087573008612], [933.0329915368008, 0.5339806610278215], [999.9999999999926, 0.042924704562228744], [1006.0922435664007, 0.0], [1071.773462536285, -0.4184920355907778], [1148.698354997026, -0.7430162104083641], [1231.1444133449063, -0.8473422993084725], [1319.5079107728832, -0.7177952511693303], [1414.2135623730828, -0.4001323372346747], [1502.8175170884099, 0.0], [1515.7165665103846, 0.05987515184261705], [1624.5047927124563, 0.6665382843792684], [1680.4320179864221, 1.0], [1741.1011265922318, 1.3703601122441604], [1848.1356276472836, 2.0], [1866.065983073597, 2.1094942995044113], [1999.9999999999802, 2.8106781979256628], [2047.8740812355118, 3.0], [2143.5469250725646, 3.3896966672781903], [2297.3967099940432, 3.8141795533701317], [2385.9568167244515, 4.0], [2462.2888266898062, 4.161759710385697], [2639.0158215457564, 4.544984302212927], [2811.667884060683, 5.0], [2828.427124746159, 5.044918313699662], [3031.4331330207615, 5.708666253104709], [3123.1078678791932, 6.0], [3249.0095854249043, 6.411911165094626], [3482.2022531844555, 6.983036086815403], [3495.8125178172254, 7.0], [3732.1319661471844, 7.309356317391886], [3999.9999999999504, 7.2570884958731], [4157.467502662874, 7.0], [4287.093850145118, 6.810018002088224], [4594.793419988081, 6.017594083118317], [4600.243718669864, 6.0], [4924.577653379601, 5.011971312440248], [4928.390120932836, 5.0], [5261.625308862478, 4.0], [5278.031643091513, 3.9529846869461878], [5651.497295321098, 3.0], [5656.854249492303, 2.9868448217946852], [6062.866266041508, 2.211751296605075], [6211.2288792546315, 2.0], [6498.019170849792, 1.6212245153848623], [6964.404506368902, 1.203546185728817], [7443.217341384235, 1.0], [7464.2639322943505, 0.9921012978144393], [7496.736054065306, 1.0], [7999.999999999882, 1.1318993455862993]]}",,,,ddmfvc,001,fr,0,2022-05-05_11h06.59.144,Continuous,2022.1.1,None,
16,0,16,0,5,0,5,0,,,,,,,,2.7402251960103126,time,139.0,-2.0448521013734053,0.0004726253473379877,0,88,['time'],0.01036133337765932,0.2076356332981959,['space'],615.1189464000054,615.1189464000054,0.2076356332981959,2.9478608293085085,615.3317183000036,615.1189464000054,[-2.2231041999766603],,,,,,,,ddmfvc,001,fr,0,2022-05-05_11h06.59.144,Continuous,2022.1.1,None,
16,0,16,0,6,0,6,0,,,,,,,,2.7402251960103126,time,467.0,-9.0,2.5947819196827758e-05,0,89,['time'],0.0020775666926056147,None,None,618.1095454000169,618.1095454000169,0.2023316667182371,2.9425568627285497,618.3259538999991,618.1095454000169,,,,,,,,,ddmfvc,001,fr,0,2022-05-05_11h06.59.144,Continuous,2022.1.1,None,
16,0,16,0,7,0,7,0,,,,,,,,2.7402251960103126,time,700.0,-1.9312181789967229,3.604989535071356e-05,0,90,['time'],0.0015687666600570083,None,None,621.0963316999841,621.0963316999841,0.1995896666776389,2.9398148626879514,621.3070909000235,621.0963316999841,,,,,,,,,ddmfvc,001,fr,0,2022-05-05_11h06.59.144,Continuous,2022.1.1,None,
16,0,16,0,8,0,8,0,,,,,,,,2.7402251960103126,time,221.0,-4.193685489871768,0.0001384023646439834,0,91,['time'],0.016138933366164565,None,['space'],624.0834470000118,624.0834470000118,0.21239743335172534,2.952622629362038,624.2997761999723,624.0834470000118,[-2.419704800006002],,,,,,,,ddmfvc,001,fr,0,2022-05-05_11h06.59.144,Continuous,2022.1.1,None,
16,0,16,0,9,0,9,0,,,,,,,,2.7402251960103126,time,312.0,2.159452908762837,0.00013053221538324863,0,92,['time'],0.015434833359904587,None,None,627.0772752000485,627.0772752000485,0.20989173336420208,2.9501169293745146,627.2870828000596,627.0772752000485,,,,,,,,,ddmfvc,001,fr,0,2022-05-05_11h06.59.144,Continuous,2022.1.1,None,
16,0,16,0,10,0,10,0,,,,,,,,2.7402251960103126,time,1870.0,-7.878223500938403,2.7833764075064994e-05,0,93,['time'],0.015455533284693956,None,['space'],630.0647722000722,630.0647722000722,0.2085241333115846,2.948749329321897,630.279223300051,630.0647722000722,[-2.2735802000388503],,,,,,,,ddmfvc,001,fr,0,2022-05-05_11h06.59.144,Continuous,2022.1.1,None,
16,0,16,0,11,0,11,0,,,,,,,,2.7402251960103126,time,2356.0,-1.4477560659821478,7.0005990362995e-05,0,94,['time'],0.0020387667464092374,None,None,633.0602226000046,633.0602226000046,0.208035166724585,2.9482603627348976,633.2791610000422,633.0602226000046,,,,,,,,,ddmfvc,001,fr,0,2022-05-05_11h06.59.144,Continuous,2022.1.1,None,
16,0,16,0,12,0,12,0,,,,,,,,2.7402251960103126,time,1322.0,-5.907863873239011,2.6705223482624946e-05,0,95,['time'],0.0009196667233482003,None,None,636.0473459999776,636.0473459999776,0.2022688667057082,2.9424940627160208,636.2616035999963,636.0473459999776,,,,,,,,,ddmfvc,001,fr,0,2022-05-05_11h06.59.144,Continuous,2022.1.1,None,
17,0,17,0,0,0,0,0,,,,,,653.1424242000794,None,2.141355951812945,both,6204.0,-1.8885509211230858,0.0001009624559935416,0,42,['time'],0.01279506681021303,None,None,654.1749022000004,None,0.21764326677657664,2.3589992185895214,654.3861246000743,None,,639.0351714000572,None,0.3333333333333333,,,,,ddmfvc,001,fr,0,2022-05-05_11h06.59.144,Continuous,2022.1.1,None,
17,0,17,0,1,0,1,0,,,,,,,,2.141355951812945,both,4924.0,-0.7526989949279272,0.00013527158060759885,0,43,['time'],0.014170733280479908,None,['space'],656.5534691000357,656.5534691000357,0.2087406333303079,2.3500965851432527,656.7680165000493,656.5534691000357,[-1.7861418999964371],,,,,,,,ddmfvc,001,fr,0,2022-05-05_11h06.59.144,Continuous,2022.1.1,None,
17,0,17,0,2,0,2,0,,,,,,,,2.141355951812945,both,3908.0,-0.2162491138119198,8.030090914966288e-05,0,44,['time'],0.013528633397072554,0.21006813331041485,['space'],658.9469052000204,658.9469052000204,0.21006813331041485,2.3514240851233597,659.1539374999702,658.9469052000204,[-2.0358830000041053],,,,,,,,ddmfvc,001,fr,0,2022-05-05_11h06.59.144,Continuous,2022.1.1,None,
17,0,17,0,3,0,3,0,,,,,,,,2.141355951812945,both,3102.0,0.35081773360444135,6.713419674351922e-05,0,45,['time'],0.0019293666118755937,None,['space'],661.338886499987,661.338886499987,0.2041629666928202,2.345518918505765,661.547608199995,661.338886499987,[-2.092127399984747],,,,,,,,ddmfvc,001,fr,0,2022-05-05_11h06.59.144,Continuous,2022.1.1,None,
17,0,17,0,4,0,4,0,,,,,,,,2.141355951812945,both,2462.0,0.0,8.505306297983944e-05,0,46,['time'],0.01561493321787566,None,['space'],663.725245699985,663.725245699985,0.21188313327729702,2.353239085090242,663.9408208000241,663.725245699985,[-1.1974382000043988],,,,,,,,ddmfvc,001,fr,0,2022-05-05_11h06.59.144,Continuous,2022.1.1,None,
17,0,17,0,5,0,5,0,,,,,,,,2.141355951812945,both,1954.0,-1.4443251402176094,6.159218818707382e-05,0,47,['time'],0.013537333346903324,None,None,666.1159550000448,666.1159550000448,0.23673203331418335,2.378087985127128,666.3445724999765,666.1159550000448,,,,,,,,,ddmfvc,001,fr,0,2022-05-05_11h06.59.144,Continuous,2022.1.1,None,
17,0,17,0,6,0,6,0,,,,,,,,2.141355951812945,both,1551.0,-3.741632957766636,3.419755787255567e-05,0,48,['time'],0.014939333312213421,None,['space'],668.5173187999753,668.5173187999753,0.2393033333355561,2.380659285148501,668.7504056000616,668.5173187999753,[-1.9580305999843404],,,,,,,,ddmfvc,001,fr,0,2022-05-05_11h06.59.144,Continuous,2022.1.1,None,
17,0,17,0,7,0,7,0,,,,,,,,2.141355951812945,both,1231.0,-1.3158449995381467,4.616356738055168e-05,0,49,['time'],0.014728933339938521,None,"['space', 'space']",670.9197683000239,670.9197683000239,0.251437533297576,2.392793485110521,671.1648572999984,670.9197683000239,"[-1.9445816000225022, 0.1989620999665931]",,,,,,,,ddmfvc,001,fr,0,2022-05-05_11h06.59.144,Continuous,2022.1.1,None,
17,0,17,0,8,0,8,0,,,,,,,,2.141355951812945,both,977.0,-0.48787581436907534,4.1028282956079656e-05,0,50,['time'],0.014940633322112262,None,None,673.3359333999688,673.3359333999688,0.23981893330346793,2.3811748851164127,673.5695922999876,673.3359333999688,,,,,,,,,ddmfvc,001,fr,0,2022-05-05_11h06.59.144,Continuous,2022.1.1,None,
17,0,17,0,9,0,9,0,,,,,,,,2.141355951812945,both,775.0,-0.3293086959375259,3.803508876794982e-05,0,51,['time'],0.014340733410790563,None,None,675.7386585000204,675.7386585000204,0.21106343332212418,2.352419385135069,675.9587013999699,675.7386585000204,,,,,,,,,ddmfvc,001,fr,0,2022-05-05_11h06.59.144,Continuous,2022.1.1,None,
17,0,17,0,10,0,10,0,,,,,,,,2.141355951812945,both,615.0,-0.3923566893789654,5.1141532173086676e-05,0,52,['time'],0.01047993334941566,None,['space'],678.1376385000767,678.1376385000767,0.23310843331273645,2.3744643851256813,678.3706394999754,678.1376385000767,[-1.801948199979961],,,,,,,,ddmfvc,001,fr,0,2022-05-05_11h06.59.144,Continuous,2022.1.1,None,
17,0,17,0,11,0,11,0,,,,,,,,2.141355951812945,both,488.0,0.02530238351099899,7.226807273059603e-05,0,53,['time'],0.0013129665749147534,None,None,680.5420252999756,680.5420252999756,0.20130036666523665,2.3426563184781815,680.7598919000011,680.5420252999756,,,,,,,,,ddmfvc,001,fr,0,2022-05-05_11h06.59.144,Continuous,2022.1.1,None,
17,0,17,0,12,0,12,0,,,,,,,,2.141355951812945,both,,,,1,53,['time'],0.015331733389757574,None,['space'],682.9352845000103,682.9352845000103,0.23888473340775818,2.380240685220703,683.1665373999858,682.9352845000103,[-1.9276323000667617],,,,,,,,ddmfvc,001,fr,0,2022-05-05_11h06.59.144,Continuous,2022.1.1,None,
18,0,18,0,0,0,0,0,,,,,,694.3360216000583,None,1.7069002853174553,frequency,8000.0,-2.0,0.00014420157515633036,0,79,['time'],0.012728666770271957,None,None,695.360591600067,None,0.2059141667559743,1.9128144520734296,695.5620343000628,None,,685.335705799982,None,0.3333333333333333,,,,,ddmfvc,001,fr,0,2022-05-05_11h06.59.144,Continuous,2022.1.1,None,
18,0,18,0,1,0,1,0,,,,,,,,2.1416213414569842,frequency,6350.0,-4.391336283055633,7.932989225510072e-05,0,80,['time'],0.0006017667474225163,None,['space'],697.3102610000642,697.3102610000642,0.20334096672013402,2.3449623081771183,697.5264121000655,697.3102610000642,[-1.4226840999908745],,,,,,,,ddmfvc,001,fr,0,2022-05-05_11h06.59.144,Continuous,2022.1.1,None,
18,0,18,0,2,0,2,0,,,,,,,,2.2263023261916555,frequency,5040.0,-5.5580596088577074,7.977240863841114e-05,0,81,['time'],0.006396933342330158,None,['space'],699.708977799979,699.708977799979,0.20688693330157548,2.433189259493231,699.9339424000354,699.708977799979,[-1.9659612000687048],,,,,,,,ddmfvc,001,fr,0,2022-05-05_11h06.59.144,Continuous,2022.1.1,None,
18,0,18,0,3,0,3,0,,,,,,,,2.1082903085862528,frequency,4000.0,-2.313284749191916,6.43140363661931e-05,0,82,['time'],0.0005744666559621692,None,['space'],702.1984141999856,702.1984141999856,0.20016776665579528,2.308458075242048,702.4155341000296,702.1984141999856,[-1.1112060999730602],,,,,,,,ddmfvc,001,fr,0,2022-05-05_11h06.59.144,Continuous,2022.1.1,None,
18,0,18,0,4,0,4,0,,,,,,,,2.1767644486916513,frequency,3175.0,2.189002830457394,8.936610442127165e-05,0,83,['time'],0.014436633326113224,None,['space'],704.5586433999706,704.5586433999706,0.20786303328350186,2.384627481975153,704.7730860000011,704.5586433999706,[-1.791694700019434],,,,,,,,ddmfvc,001,fr,0,2022-05-05_11h06.59.144,Continuous,2022.1.1,None,
18,0,18,0,5,0,5,0,,,,,,,,2.320981108887624,frequency,2520.0,0.3914184333720936,8.855457695419906e-05,0,84,['time'],0.014928533229976892,None,['space'],706.9884167000419,706.9884167000419,0.21201413334347308,2.532995242231097,707.2045204000315,706.9884167000419,[-1.9167113000294194],,,,,,,,ddmfvc,001,fr,0,2022-05-05_11h06.59.144,Continuous,2022.1.1,None,
18,0,18,0,6,0,6,0,,,,,,,,2.3998892420481197,frequency,2000.0,-2.6402152387318285,5.520256304347457e-05,0,85,['time'],0.014491733396425843,None,['space'],709.5628054999979,709.5628054999979,0.23564463341608644,2.635533875464206,709.7893686000025,709.5628054999979,[-2.10783240001183],,,,,,,,ddmfvc,001,fr,0,2022-05-05_11h06.59.144,Continuous,2022.1.1,None,
18,0,18,0,7,0,7,0,,,,,,,,1.5642087008504022,frequency,1587.0,-2.1535653720432726,4.343150293910428e-05,0,86,['time'],0.0001606667647138238,0.19713076681364328,['space'],712.2257675000001,712.2257675000001,0.19713076681364328,1.7613394676640455,712.4312569000758,712.2257675000001,[-2.1149833999807015],,,,,,,,ddmfvc,001,fr,0,2022-05-05_11h06.59.144,Continuous,2022.1.1,None,
18,0,18,0,8,0,8,0,,,,,,,,1.1654505789964484,frequency,,,,1,86,['time'],0.014302733354270458,0.21100803336594254,['space'],714.0320025000256,714.0320025000256,0.21100803336594254,1.376458612362391,714.2482683999697,714.0320025000256,[-1.3123570999596268],,,,,,,,ddmfvc,001,fr,0,2022-05-05_11h06.59.144,Continuous,2022.1.1,None,
19,0,19,0,0,0,0,0,,,,,"[0.3333333333333333, 0.16666666666666666, 0.5833333333333334, 0.16666666666666666, 0.5833333333333334, 0.5833333333333334, 0.5833333333333334, 0.16666666666666666, 0.3333333333333333, 0.16666666666666666, 0.5833333333333334, 0.5833333333333334, 0.16666666666666666, 0.3333333333333333, 0.5833333333333334]",722.591796200024,None,1.738208816885716,none,315.0,8.062584672746917,0.00024951648166437925,0,65,['time'],0.012788566760718822,None,None,723.6132360000629,None,0.21508116670884192,1.9532899835945579,723.8310017000185,None,,715.4457918000408,None,,,,,,ddmfvc,001,fr,0,2022-05-05_11h06.59.144,Continuous,2022.1.1,None,
19,0,19,0,1,0,1,0,,,,,,,,2.461760553222135,none,140.0,6.537091559077967,0.0012505493599482055,0,66,['time'],0.01358953327871859,None,['space'],725.5935013999697,725.5935013999697,0.21777423331514,2.679534786537275,725.8129398999736,725.5935013999697,[-1.418141599977389],,,,,,,,ddmfvc,001,fr,0,2022-05-05_11h06.59.144,Continuous,2022.1.1,None,
19,0,19,0,2,0,2,0,,,,,,,,1.5783731322772319,none,446.0,9.57979898964939,0.0002235716915500225,0,67,['time'],0.012979733408428729,None,['space'],728.3107184000546,728.3107184000546,0.23708443343639374,1.8154575657136256,728.5464726000791,728.3107184000546,[-2.247603700030595],,,,,,,,ddmfvc,001,fr,0,2022-05-05_11h06.59.144,Continuous,2022.1.1,None,
19,0,19,0,3,0,3,0,,,,,,,,1.034848014491378,none,354.0,7.345499323345301,0.0002061581477096155,0,68,['time'],0.014491333276964724,None,['space'],730.1519795000786,730.1519795000786,0.23802733328193426,1.2728753477733123,730.3834649000783,730.1519795000786,[-1.4645403999602422],,,,,,,,ddmfvc,001,fr,0,2022-05-05_11h06.59.144,Continuous,2022.1.1,None,
19,0,19,0,4,0,4,0,,,,,,,,1.8665315949457906,none,,,,1,68,['time'],0.013789533404633403,None,['space'],731.448261499987,731.448261499987,0.20872323331423104,2.0752548282600216,731.6665079999948,731.448261499987,[-0.8566964999772608],,,,,,,,ddmfvc,001,fr,0,2022-05-05_11h06.59.144,Continuous,2022.1.1,None,
19,0,19,0,5,0,5,0,,,,,,,,1.0775730707395341,none,125.0,11.0,0.0025643069199568253,0,69,['time'],0.001067766803316772,None,None,733.5647714000661,733.5647714000661,0.19934316677972674,1.2769162375192609,733.7799931999762,733.5647714000661,,,,,,,,,ddmfvc,001,fr,0,2022-05-05_11h06.59.144,Continuous,2022.1.1,None,
19,0,19,0,6,0,6,0,,,,,,,,1.5375880562251527,none,210.0,1.1463874616078298,0.0002805370034864045,0,70,['time'],0.012936333194375038,None,['space'],734.8947914000601,734.8947914000601,0.23635543324053288,1.7739434894656856,735.1271007000469,734.8947914000601,[-0.9279031000332907],,,,,,,,ddmfvc,001,fr,0,2022-05-05_11h06.59.144,Continuous,2022.1.1,None,
19,0,19,0,7,0,7,0,,,,,,,,2.1596142602886808,none,668.0,1.137420270241579,5.4524604444933946e-05,0,71,['time'],0.01402983337175101,None,None,736.6940287000034,736.6940287000034,0.21010143333114684,2.3697156936198276,736.9176347000757,736.6940287000034,,,,,,,,,ddmfvc,001,fr,0,2022-05-05_11h06.59.144,Continuous,2022.1.1,None,
20,0,20,0,0,0,0,0,,,,,,744.1299753000494,None,2.1686943677566397,both,1320.0,-5.032062668613662,2.9566172350787716e-05,0,54,['time'],0.01280366675928235,None,None,745.1554012000561,None,0.21682526683434844,2.385519634590988,745.3640372999944,None,,739.1097305000294,None,0.3333333333333333,,,,,ddmfvc,001,fr,0,2022-05-05_11h06.59.144,Continuous,2022.1.1,None,
20,0,20,0,1,0,1,0,,,,,,,,2.1686943677566397,both,1048.0,-2.340671152357502,3.517966899095568e-05,0,55,['time'],0.012665533344261348,None,None,747.567011200008,747.567011200008,0.2342243333114311,2.402918701068071,747.7997973000165,747.567011200008,,,,,,,,,ddmfvc,001,fr,0,2022-05-05_11h06.59.144,Continuous,2022.1.1,None,
20,0,20,0,2,0,2,0,,,,,,,,2.1686943677566397,both,832.0,-1.4010628759961705,3.34265462919107e-05,0,56,['time'],0.0003081667236983776,None,['space'],749.9989433999872,749.9989433999872,0.19920046662446111,2.367894834381101,750.2066545999842,749.9989433999872,[-1.936296600033529],,,,,,,,ddmfvc,001,fr,0,2022-05-05_11h06.59.144,Continuous,2022.1.1,None,
20,0,20,0,3,0,3,0,,,,,,,,2.1686943677566397,both,660.0,-5.026345346242049,2.7209943703907225e-05,0,57,['time'],0.010671933414414525,None,['space'],752.4149189000018,752.4149189000018,0.20133613341022283,2.3700305011668625,752.6326583999908,752.4149189000018,[-1.8563995000440627],,,,,,,,ddmfvc,001,fr,0,2022-05-05_11h06.59.144,Continuous,2022.1.1,None,
20,0,20,0,4,0,4,0,,,,,,,,2.1686943677566397,both,524.0,-5.635195418530568,3.538615029115344e-05,0,58,['time'],0.0003086667275056243,None,['space'],754.836970500066,754.836970500066,0.20377746678423136,2.372471834540871,755.0535824000835,754.836970500066,[-1.526741800014861],,,,,,,,ddmfvc,001,fr,0,2022-05-05_11h06.59.144,Continuous,2022.1.1,None,
20,0,20,0,5,0,5,0,,,,,,,,2.1686943677566397,both,416.0,-2.909991816212351,5.4176070854514345e-05,0,59,['time'],0.009296333300881088,None,None,757.2552255999763,757.2552255999763,0.20172813325189054,2.3704225010085302,757.4673475000309,757.2552255999763,,,,,,,,,ddmfvc,001,fr,0,2022-05-05_11h06.59.144,Continuous,2022.1.1,None,
20,0,20,0,6,0,6,0,,,,,,,,2.1686943677566397,both,330.0,-6.0,4.747596409789002e-05,0,60,['time'],0.015149733168072999,None,None,759.6761498000706,759.6761498000706,0.21344483317807317,2.382139200934713,759.8920699000591,759.6761498000706,,,,,,,,,ddmfvc,001,fr,0,2022-05-05_11h06.59.144,Continuous,2022.1.1,None,
20,0,20,0,7,0,7,0,,,,,,,,2.1686943677566397,both,262.0,-3.7283324976606727,0.00010075570127989889,0,61,['time'],0.015091533423401415,None,None,762.0948921000818,762.0948921000818,0.21268783346749842,2.381382201224138,762.3088268999709,762.0948921000818,,,,,,,,,ddmfvc,001,fr,0,2022-05-05_11h06.59.144,Continuous,2022.1.1,None,
20,0,20,0,8,0,8,0,,,,,,,,2.1686943677566397,both,208.0,-1.3831704867114496,0.00021299994537561857,0,62,['time'],0.012878933339379728,None,None,764.5156971000833,764.5156971000833,0.20918403333052993,2.3778784010871696,764.7301003000466,764.5156971000833,,,,,,,,,ddmfvc,001,fr,0,2022-05-05_11h06.59.144,Continuous,2022.1.1,None,
20,0,20,0,9,0,9,0,,,,,,,,2.1686943677566397,both,165.0,-2.2733761843166373,0.000302430690827141,0,63,['time'],0.012757333344779909,None,None,766.9360808000201,766.9360808000201,0.20788123330567032,2.37657560106231,767.1545936000766,766.9360808000201,,,,,,,,,ddmfvc,001,fr,0,2022-05-05_11h06.59.144,Continuous,2022.1.1,None,
20,0,20,0,10,0,10,0,,,,,,,,2.1686943677566397,both,131.0,-5.046858239189106,0.0003743517371131269,0,64,['time'],0.012512833345681429,None,None,769.3551900000311,769.3551900000311,0.20673033338971436,2.375424701146354,769.5687402000185,769.3551900000311,,,,,,,,,ddmfvc,001,fr,0,2022-05-05_11h06.59.144,Continuous,2022.1.1,None,
20,0,20,0,11,0,11,0,,,,,,,,2.1686943677566397,both,,,,1,64,['time'],0.01280743326060474,None,None,771.7740852000425,771.7740852000425,0.23726723331492394,2.4059616010715636,772.0067694999743,771.7740852000425,,,,,,,,,ddmfvc,001,fr,0,2022-05-05_11h06.59.144,Continuous,2022.1.1,None,
21,0,21,0,0,0,0,0,,,,,"[0.5833333333333334, 0.3333333333333333, 0.5833333333333334, 0.3333333333333333, 0.3333333333333333, 0.5833333333333334, 0.16666666666666666, 0.5833333333333334, 0.3333333333333333, 0.3333333333333333, 0.3333333333333333, 0.5833333333333334, 0.16666666666666666, 0.5833333333333334, 0.16666666666666666]",782.0805845999857,None,1.4107524599853996,none,323.0,-11.274901881367397,2.6362183952801416e-05,0,72,['time'],0.0073085668263956904,None,None,783.1125903000357,None,0.20429456676356494,1.6150470267489645,783.325792800053,None,,774.2073792000301,None,,,,,,ddmfvc,001,fr,0,2022-05-05_11h06.59.144,Continuous,2022.1.1,None,
21,0,21,0,1,0,1,0,,,,,,,,1.3201554003936198,none,914.0,-10.000933381886313,1.315624319494159e-05,0,73,['time'],0.01299723342526704,None,None,784.7772748999996,784.7772748999996,0.21097813337109983,1.5311335337647196,784.9987724000821,784.7772748999996,,,,,,,,,ddmfvc,001,fr,0,2022-05-05_11h06.59.144,Continuous,2022.1.1,None,
21,0,21,0,2,0,2,0,,,,,,,,1.5349126694772113,none,161.0,-10.585008737137224,0.00012046341342604167,0,74,['time'],0.012930833268910646,0.20901273330673575,None,786.3554553000722,786.3554553000722,0.20901273330673575,1.743925402783947,786.5741523000179,786.3554553000722,,,,,,,,,ddmfvc,001,fr,0,2022-05-05_11h06.59.144,Continuous,2022.1.1,None,
21,0,21,0,3,0,3,0,,,,,,,,1.437572633751313,none,256.0,-0.0007860090805493769,0.0001611116857030739,0,75,['time'],0.012573033338412642,None,None,788.1415066000773,788.1415066000773,0.20781313336919993,1.645385767120513,788.3558539000805,788.1415066000773,,,,,,,,,ddmfvc,001,fr,0,2022-05-05_11h06.59.144,Continuous,2022.1.1,None,
21,0,21,0,4,0,4,0,,,,,,,,1.0449130890115554,none,814.0,-10.70696687660977,1.1300624049846018e-05,0,76,['time'],0.012916133273392916,None,None,789.8326632999815,789.8326632999815,0.20658153330441564,1.251494622315971,790.0471473999787,789.8326632999815,,,,,,,,,ddmfvc,001,fr,0,2022-05-05_11h06.59.144,Continuous,2022.1.1,None,
21,0,21,0,5,0,5,0,,,,,,,,2.44589856034625,none,203.0,-12.0,6.519969273661182e-05,0,77,['time'],0.013184233335778117,None,None,791.1320010999916,791.1320010999916,0.2375157333444804,2.6834142936907304,791.3648439000826,791.1320010999916,,,,,,,,,ddmfvc,001,fr,0,2022-05-05_11h06.59.144,Continuous,2022.1.1,None,
21,0,21,0,6,0,6,0,,,,,,,,2.809431881551323,none,,,,1,77,['time'],0.010430333204567432,None,None,793.8423865999794,793.8423865999794,0.2061550332000479,3.015586914751371,794.0553139999975,793.8423865999794,,,,,,,,,ddmfvc,001,fr,0,2022-05-05_11h06.59.144,Continuous,2022.1.1,None,
21,0,21,0,7,0,7,0,,,,,,,,1.8821754340401267,none,484.0,-0.9995568748758241,6.440708024604997e-05,0,78,['time'],0.013975333422422409,None,None,796.9014224000275,796.9014224000275,0.23695283336564898,2.1191282674057756,797.1339044000488,796.9014224000275,,,,,,,,,ddmfvc,001,fr,0,2022-05-05_11h06.59.144,Continuous,2022.1.1,None,
