sweeps.thisRepN,sweeps.thisTrialN,sweeps.thisN,sweeps.thisIndex,trials.thisRepN,trials.thisTrialN,trials.thisN,trials.thisIndex,instructions.started,instructions.stopped,blank_text.started,blank_text.stopped,Intervals,text.started,text.stopped,Delay,Prediction,isCatchTrial,len(y),finished_audiograms,probe.started,probe.stopped,feedback.keys,feedback.started,feedback.stopped,ISI.started,ISI.stopped,text_2.started,text_2.stopped,Frequency,Volume,Psychopy_level,break_txt.started,break_txt.stopped,feedback.rt,,Audiogram_none,Audiogram_time,Audiogram_frequency,Audiogram_both,participant,session,language (english or french),Resume previous experiment,date,expName,psychopyVersion,frameRate,
0,0,0,0,0,0,0,0,21.552854700013995,None,61.69685780000873,None,"[0.16666666666666666, 0.3333333333333333, 0.3333333333333333, 0.5833333333333334, 0.5833333333333334, 0.5833333333333334, 0.5833333333333334, 0.5833333333333334, 0.3333333333333333, 0.3333333333333333, 0.16666666666666666, 0.3333333333333333, 0.16666666666666666, 0.5833333333333334, 0.5833333333333334]",63.986777799902484,None,2.79444957702258,time,1,26,[],0.005785266635939479,0.19979536649771035,None,65.00770580000244,None,0.19979536649771035,2.9942449435202905,65.2191310999915,None,,,,,,,,,,,,erfnpg,001,fr,0,2022-05-10_15h18.09.142,Continuous,2022.1.1,36.311361206170105,
0,0,0,0,1,0,1,0,,,,,,,,2.79444957702258,time,0,27,[],0.010569966863840818,None,None,68.01173499994911,68.01173499994911,0.20900816679932177,3.003457743821902,68.22847980004735,68.01173499994911,354.0,-1.0,7.887248739356936e-05,,,,,,,,,erfnpg,001,fr,0,2022-05-10_15h18.09.142,Continuous,2022.1.1,36.311361206170105,
0,0,0,0,2,0,2,0,,,,,,,,2.79444957702258,time,0,28,[],0.011987666599452496,None,None,71.02424920001067,71.02424920001067,0.2148226664867252,3.0092722435093053,71.23553829989396,71.02424920001067,708.0,-0.9588275425471977,3.969205966202949e-05,,,,,,,,,erfnpg,001,fr,0,2022-05-10_15h18.09.142,Continuous,2022.1.1,36.311361206170105,
0,0,0,0,3,0,3,0,,,,,,,,2.79444957702258,time,0,29,[],0.012091766344383359,None,None,74.03220089990646,74.03220089990646,0.21379856625571847,3.0082481432782986,74.24328149994835,74.03220089990646,1590.0,-0.977392147635896,4.995590161043638e-05,,,,,,,,,erfnpg,001,fr,0,2022-05-10_15h18.09.142,Continuous,2022.1.1,36.311361206170105,
0,0,0,0,4,0,4,0,,,,,,,,2.79444957702258,time,0,30,[],0.009016966447234154,None,None,77.03796790004708,77.03796790004708,0.20844196644611657,3.0028915434686967,77.26130499993451,77.03796790004708,281.0,2.0875190127893535,0.0001712195745252079,,,,,,,,,erfnpg,001,fr,0,2022-05-10_15h18.09.142,Continuous,2022.1.1,36.311361206170105,
0,0,0,0,5,0,5,0,,,,,,,,2.79444957702258,time,0,31,[],0.012078666593879461,None,None,80.05557659990154,80.05557659990154,0.21415986656211317,3.0086094435846933,80.2672309000045,80.05557659990154,125.0,-0.25915557238417364,0.000701475045192955,,,,,,,,,erfnpg,001,fr,0,2022-05-10_15h18.09.142,Continuous,2022.1.1,36.311361206170105,
0,0,0,0,6,0,6,0,,,,,,,,2.79444957702258,time,0,32,[],0.010127266636118293,0.20686156651936471,None,83.0602178000845,83.0602178000845,0.20686156651936471,3.001311143541945,83.27285649999976,83.0602178000845,631.0,-0.4094136874248034,4.872527853481061e-05,,,,,,,,,erfnpg,001,fr,0,2022-05-10_15h18.09.142,Continuous,2022.1.1,36.311361206170105,
0,0,0,0,7,0,7,0,,,,,,,,2.79444957702258,time,0,33,[],0.012086866423487663,None,None,86.05847789999098,86.05847789999098,0.21507006650790572,3.009519643530486,86.27087450004183,86.05847789999098,446.0,0.17635172883321354,7.572590105649046e-05,,,,,,,,,erfnpg,001,fr,0,2022-05-10_15h18.09.142,Continuous,2022.1.1,36.311361206170105,
0,0,0,0,8,0,8,0,,,,,,,,2.79444957702258,time,0,34,[],0.011754966573789716,None,None,89.06012569996528,89.06012569996528,0.21769156656228006,3.01214114358486,89.27151619992219,89.06012569996528,188.0,-0.8675725440155191,0.0002797595613356642,,,,,,,,,erfnpg,001,fr,0,2022-05-10_15h18.09.142,Continuous,2022.1.1,36.311361206170105,
0,0,0,0,9,0,9,0,,,,,,,,2.79444957702258,time,0,35,[],0.011920766439288855,None,None,92.0587120000273,92.0587120000273,0.21715576644055545,3.0116053434631356,92.27515250002034,92.0587120000273,501.0,-0.5944249258756137,6.657320016342463e-05,,,,,,,,,erfnpg,001,fr,0,2022-05-10_15h18.09.142,Continuous,2022.1.1,36.311361206170105,
1,0,1,0,0,0,0,0,,,,,"[0.3333333333333333, 0.5833333333333334, 0.5833333333333334, 0.5833333333333334, 0.5833333333333334, 0.16666666666666666, 0.16666666666666666, 0.5833333333333334, 0.3333333333333333, 0.5833333333333334, 0.16666666666666666, 0.3333333333333333, 0.3333333333333333, 0.16666666666666666, 0.3333333333333333]",96.28755300003104,None,2.35449392857731,none,0,27,[],0.012933266814798117,None,None,97.31177220004611,None,0.228184666717425,2.582678595294735,97.53098229994066,None,1061.0,-1.0,4.1535767997501404e-05,95.06089439988136,None,,,,,,,erfnpg,001,fr,0,2022-05-10_15h18.09.142,Continuous,2022.1.1,36.311361206170105,
1,0,1,0,1,0,1,0,,,,,,,,2.4771127854335493,none,0,28,[],0.00745766656473279,None,None,99.88043150003068,99.88043150003068,0.20447016647085547,2.6815829519044048,100.09477799991146,99.88043150003068,750.0,-1.2679504906543761,3.512145341402791e-05,,,,,,,,,erfnpg,001,fr,0,2022-05-10_15h18.09.142,Continuous,2022.1.1,36.311361206170105,
1,0,1,0,2,0,2,0,,,,,,,,2.542165368423947,none,0,29,[],0.011668666498735547,None,['space'],102.57183999987319,102.57183999987319,0.2130254665389657,2.755190834962913,102.79344459995627,102.57183999987319,1337.0,-0.831081315715442,4.757259158738621e-05,,,[-1.8911454000044614],,,,,,erfnpg,001,fr,0,2022-05-10_15h18.09.142,Continuous,2022.1.1,36.311361206170105,
1,0,1,0,3,0,3,0,,,,,,,,1.530166320942954,none,0,30,[],0.011638266500085592,None,None,105.32677869987674,105.32677869987674,0.215518266428262,1.745684587371216,105.53336860006675,105.32677869987674,167.0,0.46366623300223553,0.00040677222241188824,,,,,,,,,erfnpg,001,fr,0,2022-05-10_15h18.09.142,Continuous,2022.1.1,36.311361206170105,
1,0,1,0,4,0,4,0,,,,,,,,1.455117652650446,none,0,31,[],0.011705366428941488,None,None,107.06399689987302,107.06399689987302,0.21476866654120386,1.6698863191916498,107.27394909993745,107.06399689987302,945.0,-1.5291250575490312,3.563056686585802e-05,,,,,,,,,erfnpg,001,fr,0,2022-05-10_15h18.09.142,Continuous,2022.1.1,36.311361206170105,
1,0,1,0,5,0,5,0,,,,,,,,2.3059220158301104,none,0,32,[],0.01157146692276001,None,None,108.73052600002848,108.73052600002848,0.21571196685545146,2.521633982685562,108.94406039989553,108.73052600002848,281.0,1.4539462160213943,0.00015917496889566174,,,,,,,,,erfnpg,001,fr,0,2022-05-10_15h18.09.142,Continuous,2022.1.1,36.311361206170105,
1,0,1,0,6,0,6,0,,,,,,,,2.1076214235938417,none,0,33,[],0.011588366469368339,None,['space'],111.25028349994682,111.25028349994682,0.21234806650318205,2.319969490097024,111.46948010008782,111.25028349994682,530.0,-0.17006608488050323,6.547017648440716e-05,,,[-1.9941185999196023],,,,,,erfnpg,001,fr,0,2022-05-10_15h18.09.142,Continuous,2022.1.1,36.311361206170105,
1,0,1,0,7,0,7,0,,,,,,,,2.8951999580426437,none,1,33,[],0.011080366559326649,None,None,113.57518679997884,113.57518679997884,0.21217766660265625,3.1073776246453,113.7842999000568,113.57518679997884,,,,,,,,,,,,erfnpg,001,fr,0,2022-05-10_15h18.09.142,Continuous,2022.1.1,36.311361206170105,
1,0,1,0,8,0,8,0,,,,,,,,1.2695804261242933,none,0,34,[],0.012434366624802351,None,None,116.67852209997363,116.67852209997363,0.21513376664370298,1.4847141927679963,116.89511310006492,116.67852209997363,188.0,-0.4324102908142671,0.00029413252486283083,,,,,,,,,erfnpg,001,fr,0,2022-05-10_15h18.09.142,Continuous,2022.1.1,36.311361206170105,
1,0,1,0,9,0,9,0,,,,,,,,1.2894456219407888,none,0,35,[],0.01061066659167409,None,['space'],118.16548069985583,118.16548069985583,0.2121170663740486,1.5015626883148374,118.38060660008341,118.16548069985583,354.0,-1.0,7.887248739356936e-05,,,[-0.6374506999272853],,,,,,erfnpg,001,fr,0,2022-05-10_15h18.09.142,Continuous,2022.1.1,36.311361206170105,
2,0,2,0,0,0,0,0,,,,,"[0.16666666666666666, 0.16666666666666666, 0.5833333333333334, 0.3333333333333333, 0.16666666666666666, 0.3333333333333333, 0.3333333333333333, 0.16666666666666666, 0.5833333333333334, 0.5833333333333334, 0.3333333333333333, 0.5833333333333334, 0.5833333333333334, 0.5833333333333334, 0.5833333333333334]",139.52575869997963,None,1.5769470100457204,time,0,36,[],0.013007866684347391,None,None,140.56517000007443,None,0.2276084665209055,1.8045554765666258,140.79102219990455,None,4287.0,1.0,0.00011633926740972701,119.66373999998905,None,,,,,,,erfnpg,001,fr,0,2022-05-10_15h18.09.142,Continuous,2022.1.1,36.311361206170105,
2,0,2,0,1,0,1,0,,,,,,,,1.5769470100457204,time,0,37,[],0.006496466463431716,None,['space'],142.35766049986705,142.35766049986705,0.20269096666015685,1.7796379767058772,142.57310709985904,142.35766049986705,2861.0,1.0,7.120529891968098e-05,,,[-0.7651140997186303],,,,,,erfnpg,001,fr,0,2022-05-10_15h18.09.142,Continuous,2022.1.1,36.311361206170105,
2,0,2,0,2,0,2,0,,,,,,,,1.5769470100457204,time,0,38,[],0.011034366441890597,None,['space'],144.1519748000428,144.1519748000428,0.21504106651991606,1.7919880765656364,144.36936219991185,144.1519748000428,6423.0,-2.8079087863985146,9.679528274511386e-05,,,[-0.5441112997941673],,,,,,erfnpg,001,fr,0,2022-05-10_15h18.09.142,Continuous,2022.1.1,36.311361206170105,
2,0,2,0,3,0,3,0,,,,,,,,1.5769470100457204,time,0,39,[],0.011109166778624058,None,['space'],145.94135769992135,145.94135769992135,0.2129287668503821,1.7898757768961024,146.1519734999165,145.94135769992135,1431.0,1.2059752939908754,5.74650967154909e-05,,,[-1.3415007998701185],,,,,,erfnpg,001,fr,0,2022-05-10_15h18.09.142,Continuous,2022.1.1,36.311361206170105,
2,0,2,0,4,0,4,0,,,,,,,,1.5769470100457204,time,0,40,[],0.007023366400972009,0.20333506632596254,None,147.72949699987657,147.72949699987657,0.20333506632596254,1.780282076371683,147.94500029995106,147.72949699987657,1136.0,0.8851874135699958,5.5077382601353575e-05,,,,,,,,,erfnpg,001,fr,0,2022-05-10_15h18.09.142,Continuous,2022.1.1,36.311361206170105,
2,0,2,0,5,0,5,0,,,,,,,,1.5769470100457204,time,0,41,[],0.010767166502773762,None,None,149.52017479995266,149.52017479995266,0.22327856649644673,1.800225576542167,149.73524549999274,149.52017479995266,758.0,0.8433101835506318,4.438446256439708e-05,,,,,,,,,erfnpg,001,fr,0,2022-05-10_15h18.09.142,Continuous,2022.1.1,36.311361206170105,
2,0,2,0,6,0,6,0,,,,,,,,1.5769470100457204,time,0,42,[],0.01095846644602716,None,['space'],151.30774040007964,151.30774040007964,0.21308136638253927,1.7900283764282596,151.52056990005076,151.30774040007964,2549.0,2.067735026298566,0.00010511904839286142,,,[-1.2363821999169886],,,,,,erfnpg,001,fr,0,2022-05-10_15h18.09.142,Continuous,2022.1.1,36.311361206170105,
2,0,2,0,7,0,7,0,,,,,,,,1.5769470100457204,time,1,42,[],0.011148166609928012,None,None,153.0995390000753,153.0995390000753,0.2139855665154755,1.7909325765611959,153.3098994998727,153.0995390000753,,,,,,,,,,,,erfnpg,001,fr,0,2022-05-10_15h18.09.142,Continuous,2022.1.1,36.311361206170105,
2,0,2,0,8,0,8,0,,,,,,,,1.5769470100457204,time,0,43,[],0.01035466673783958,None,None,154.88605579989962,154.88605579989962,0.2081908667460084,1.7851378767917288,155.1023325000424,154.88605579989962,2023.0,1.7860651376901568,9.251730367268109e-05,,,,,,,,,erfnpg,001,fr,0,2022-05-10_15h18.09.142,Continuous,2022.1.1,36.311361206170105,
2,0,2,0,9,0,9,0,,,,,,,,1.5769470100457204,time,0,44,[],0.010802366537973285,None,None,156.6815176999662,156.6815176999662,0.21481136651709676,1.7917583765628171,156.8921234998852,156.6815176999662,1606.0,2.1591026211192648,7.311280726631605e-05,,,,,,,,,erfnpg,001,fr,0,2022-05-10_15h18.09.142,Continuous,2022.1.1,36.311361206170105,
2,0,2,0,10,0,10,0,,,,,,,,1.5769470100457204,time,0,45,[],0.010677666636183858,None,None,158.46775679988787,158.46775679988787,0.21469416678883135,1.7916411768345517,158.67923330003396,158.46775679988787,675.0,0.17842300283399454,4.819845710712758e-05,,,,,,,,,erfnpg,001,fr,0,2022-05-10_15h18.09.142,Continuous,2022.1.1,36.311361206170105,
3,0,3,0,0,0,0,0,,,,,"[0.3333333333333333, 0.5833333333333334, 0.16666666666666666, 0.16666666666666666, 0.5833333333333334, 0.5833333333333334, 0.16666666666666666, 0.5833333333333334, 0.16666666666666666, 0.5833333333333334, 0.16666666666666666, 0.16666666666666666, 0.3333333333333333, 0.16666666666666666, 0.3333333333333333]",162.60265449993312,None,2.1700874358100855,time,0,46,[],0.012811266584321856,None,None,163.64490649988875,None,0.2083755664061755,2.378463002216261,163.85586600005627,None,1414.0,3.9825749723392256,7.977806974999574e-05,160.2615388999693,None,,,,,,,erfnpg,001,fr,0,2022-05-10_15h18.09.142,Continuous,2022.1.1,36.311361206170105,
3,0,3,0,1,0,1,0,,,,,,,,2.1700874358100855,time,0,47,[],0.010571966646239161,None,None,166.0208395998925,166.0208395998925,0.2130806667264551,2.3831681025365405,166.2357552999165,166.0208395998925,177.0,5.0,0.000620988873867065,,,,,,,,,erfnpg,001,fr,0,2022-05-10_15h18.09.142,Continuous,2022.1.1,36.311361206170105,
3,0,3,0,2,0,2,0,,,,,,,,2.1700874358100855,time,1,47,[],0.003769566537812352,None,['space'],168.4064283000771,168.4064283000771,0.209723666543141,2.3798111023532265,168.61973119992763,168.4064283000771,,,,,,[-1.8861071998253465],,,,,,erfnpg,001,fr,0,2022-05-10_15h18.09.142,Continuous,2022.1.1,36.311361206170105,
3,0,3,0,3,0,3,0,,,,,,,,2.1700874358100855,time,0,48,[],0.01170646632090211,None,None,170.79162969999015,170.79162969999015,0.21288756653666496,2.3829750023467504,171.00667349994183,170.79162969999015,841.0,0.14112031880579634,4.018091799980064e-05,,,,,,,,,erfnpg,001,fr,0,2022-05-10_15h18.09.142,Continuous,2022.1.1,36.311361206170105,
3,0,3,0,4,0,4,0,,,,,,,,2.1700874358100855,time,0,49,[],0.009694366715848446,None,['space'],173.17222739988938,173.17222739988938,0.2109930666629225,2.381080502473008,173.39030069997534,173.17222739988938,1781.0,3.827374043744922,0.0001008716147360987,,,[-1.8685339000076056],,,,,,erfnpg,001,fr,0,2022-05-10_15h18.09.142,Continuous,2022.1.1,36.311361206170105,
3,0,3,0,5,0,5,0,,,,,,,,2.1700874358100855,time,0,50,[],0.006181866629049182,None,['space'],175.55963879986666,175.55963879986666,0.20237666671164334,2.372464102521729,175.77610939997248,175.55963879986666,1587.0,2.9671196929549466,7.831394676889257e-05,,,[-1.9040436998475343],,,,,,erfnpg,001,fr,0,2022-05-10_15h18.09.142,Continuous,2022.1.1,36.311361206170105,
3,0,3,0,6,0,6,0,,,,,,,,2.1700874358100855,time,0,51,[],0.010322666959837079,None,None,177.94863980007358,177.94863980007358,0.2133444668725133,2.3834319026825987,178.16713309986517,177.94863980007358,199.0,4.145483049302326,0.0004336729654596032,,,,,,,,,erfnpg,001,fr,0,2022-05-10_15h18.09.142,Continuous,2022.1.1,36.311361206170105,
3,0,3,0,7,0,7,0,,,,,,,,2.1700874358100855,time,0,52,[],0.0103752666618675,None,['space'],180.32961819996126,180.32961819996126,0.21200416656211019,2.3820916023721956,180.5371103999205,180.32961819996126,2244.0,3.303178668746248,0.00011733966000508807,,,[-1.7614348998758942],,,,,,erfnpg,001,fr,0,2022-05-10_15h18.09.142,Continuous,2022.1.1,36.311361206170105,
3,0,3,0,8,0,8,0,,,,,,,,2.1700874358100855,time,0,53,[],0.010285366792231798,None,None,182.70985800004564,182.70985800004564,0.21411386667750776,2.384201302487593,182.9196339000482,182.70985800004564,2519.0,3.762892024871529,0.00013064818738120588,,,,,,,,,erfnpg,001,fr,0,2022-05-10_15h18.09.142,Continuous,2022.1.1,36.311361206170105,
3,0,3,0,9,0,9,0,,,,,,,,2.1700874358100855,time,0,54,[],0.0032370665576308966,None,['space'],185.09143100003712,185.09143100003712,0.1986281666904688,2.3687156025005542,185.310585899977,185.09143100003712,500.0,0.8172432680636504,7.84932240447809e-05,,,[-0.6994887997861952],,,,,,erfnpg,001,fr,0,2022-05-10_15h18.09.142,Continuous,2022.1.1,36.311361206170105,
3,0,3,0,10,0,10,0,,,,,,,,2.1700874358100855,time,0,55,[],0.010113766649737954,None,['space'],187.4823159999214,187.4823159999214,0.21473056660033762,2.384818002410423,187.69622349995188,187.4823159999214,944.0,3.994574692202737,6.725384435091922e-05,,,[-1.3773593998048455],,,,,,erfnpg,001,fr,0,2022-05-10_15h18.09.142,Continuous,2022.1.1,36.311361206170105,
3,0,3,0,11,0,11,0,,,,,,,,2.1700874358100855,time,0,56,[],0.01007686648517847,None,['space'],189.871382500045,189.871382500045,0.2128768665716052,2.3829643023816907,190.08149129990488,189.871382500045,561.0,1.1634595704660713,7.080513716528325e-05,,,[-1.7831868999637663],,,,,,erfnpg,001,fr,0,2022-05-10_15h18.09.142,Continuous,2022.1.1,36.311361206170105,
3,0,3,0,12,0,12,0,,,,,,,,2.1700874358100855,time,0,57,[],0.009881066624075174,None,['space'],192.25057829986326,192.25057829986326,0.21384806651622057,2.383935502326306,192.45800310000777,192.25057829986326,3174.0,0.8980746893223799,7.700459604435578e-05,,,[-2.0031391999218613],,,,,,erfnpg,001,fr,0,2022-05-10_15h18.09.142,Continuous,2022.1.1,36.311361206170105,
3,0,3,0,13,0,13,0,,,,,,,,2.1700874358100855,time,0,58,[],0.0064431666396558285,0.20411796658299863,None,194.6288091999013,194.6288091999013,0.20411796658299863,2.374205402393084,194.84249230008572,194.6288091999013,334.0,2.6133756632595477,0.00012657716817257637,,,,,,,,,erfnpg,001,fr,0,2022-05-10_15h18.09.142,Continuous,2022.1.1,36.311361206170105,
4,0,4,0,0,0,0,0,,,,,"[0.16666666666666666, 0.5833333333333334, 0.3333333333333333, 0.5833333333333334, 0.16666666666666666, 0.5833333333333334, 0.16666666666666666, 0.3333333333333333, 0.3333333333333333, 0.16666666666666666, 0.5833333333333334, 0.5833333333333334, 0.5833333333333334, 0.3333333333333333, 0.16666666666666666]",200.67883479990996,None,2.3503894861916383,none,0,36,[],0.012780766701325774,0.20923036662861705,None,201.71502580004744,None,0.20923036662861705,2.5596198528202554,201.92609329987317,None,6649.0,-3.2936396534631585,9.62195184761379e-05,197.0079359000083,None,,,,,,,erfnpg,001,fr,0,2022-05-10_15h18.09.142,Continuous,2022.1.1,36.311361206170105,
4,0,4,0,1,0,1,0,,,,,,,,2.5151959930754106,none,0,37,[],0.009387066587805748,None,['space'],204.27079309988767,204.27079309988767,0.20968476659618318,2.724880759671594,204.48545200005174,204.27079309988767,1482.0,1.564857728216538,5.8373049696301814e-05,,,[-1.7499450996983796],,,,,,erfnpg,001,fr,0,2022-05-10_15h18.09.142,Continuous,2022.1.1,36.311361206170105,
4,0,4,0,2,0,2,0,,,,,,,,1.1603138844210457,none,0,38,[],0.00957406684756279,None,None,207.00163630000316,207.00163630000316,0.21343746688216925,1.373751351303215,207.21591049991548,207.00163630000316,467.0,0.4586136922885771,7.709594705713322e-05,,,,,,,,,erfnpg,001,fr,0,2022-05-10_15h18.09.142,Continuous,2022.1.1,36.311361206170105,
4,0,4,0,3,0,3,0,,,,,,,,1.0625681524378243,none,0,39,[],0.00563776632770896,None,None,208.37665980006568,208.37665980006568,0.20784676633775234,1.2704149187755767,208.59701130003668,208.37665980006568,881.0,-0.24416036673094466,3.954292212617836e-05,,,,,,,,,erfnpg,001,fr,0,2022-05-10_15h18.09.142,Continuous,2022.1.1,36.311361206170105,
4,0,4,0,4,0,4,0,,,,,,,,2.2486408776736106,none,0,40,[],0.00624686642549932,None,None,209.66123109986074,209.66123109986074,0.2044445665087551,2.4530854441823657,209.87735159997828,209.66123109986074,2095.0,2.0594864948810665,9.749906838358854e-05,,,,,,,,,erfnpg,001,fr,0,2022-05-10_15h18.09.142,Continuous,2022.1.1,36.311361206170105,
4,0,4,0,5,0,5,0,,,,,,,,1.2886116787273902,none,0,41,[],0.0095422666054219,None,['space'],212.12913869996555,212.12913869996555,0.2090298666153103,1.4976415453427006,212.3442867998965,212.12913869996555,588.0,0.02485064503200768,5.788203113937315e-05,,,[-1.8963965997099876],,,,,,erfnpg,001,fr,0,2022-05-10_15h18.09.142,Continuous,2022.1.1,36.311361206170105,
4,0,4,0,6,0,6,0,,,,,,,,1.7117381422424311,none,0,42,[],0.015806433279067278,None,['space'],213.64151700004004,213.64151700004004,0.21718943328596652,1.9289275755283977,213.85641240002587,213.64151700004004,2639.0,0.0,7.725753970277922e-05,,,[-0.9458673999179155],,,,,,erfnpg,001,fr,0,2022-05-10_15h18.09.142,Continuous,2022.1.1,36.311361206170105,
4,0,4,0,7,0,7,0,,,,,,,,1.833048865179958,none,0,43,[],0.005164466565474868,None,None,215.56872059986927,215.56872059986927,0.1998980666976422,2.0329469318776,215.7839941000566,215.56872059986927,2962.0,0.5107330344908513,6.0648685685999624e-05,,,,,,,,,erfnpg,001,fr,0,2022-05-10_15h18.09.142,Continuous,2022.1.1,36.311361206170105,
4,0,4,0,8,0,8,0,,,,,,,,1.9350232478382887,none,0,44,[],0.005451766541227698,None,['space'],217.6216460999567,217.6216460999567,0.20159816672094166,2.1366214145592304,217.83741339994594,217.6216460999567,312.0,0.13320369502469154,0.00010337255442616032,,,[-1.5984042997006327],,,,,,erfnpg,001,fr,0,2022-05-10_15h18.09.142,Continuous,2022.1.1,36.311361206170105,
4,0,4,0,9,0,9,0,,,,,,,,2.8927909824615616,none,1,44,[],0.0047154666390269995,None,['space'],219.77430039993487,219.77430039993487,0.199848766438663,3.0926397489002246,219.99169189995155,219.77430039993487,,,,,,[-1.2710436000488698],,,,,,erfnpg,001,fr,0,2022-05-10_15h18.09.142,Continuous,2022.1.1,36.311361206170105,
4,0,4,0,10,0,10,0,,,,,,,,1.9139678151013726,none,0,45,[],0.010684366570785642,None,None,222.8801480999682,222.8801480999682,0.21247996645979583,2.1264477815611684,223.09490739996545,222.8801480999682,1663.0,1.0317442341040512,6.711172382522831e-05,,,,,,,,,erfnpg,001,fr,0,2022-05-10_15h18.09.142,Continuous,2022.1.1,36.311361206170105,
4,0,4,0,11,0,11,0,,,,,,,,1.1104215965378523,none,0,46,[],0.009332766523584723,None,None,224.99896880006418,224.99896880006418,0.21458976645953953,1.3250113629973919,225.21604550001211,224.99896880006418,4438.0,-2.5214161992944204,8.53351410886263e-05,,,,,,,,,erfnpg,001,fr,0,2022-05-10_15h18.09.142,Continuous,2022.1.1,36.311361206170105,
4,0,4,0,12,0,12,0,,,,,,,,1.1308957813456382,none,0,47,[],0.008673166623339057,None,['space'],226.32799270004034,226.32799270004034,0.21224616654217243,1.3431419478878106,226.54534309986047,226.32799270004034,989.0,-0.07748385459151752,4.335135070278171e-05,,,[-0.7367048000451177],,,,,,erfnpg,001,fr,0,2022-05-10_15h18.09.142,Continuous,2022.1.1,36.311361206170105,
5,0,5,0,0,0,0,0,,,,,"[0.5833333333333334, 0.5833333333333334, 0.5833333333333334, 0.16666666666666666, 0.16666666666666666, 0.3333333333333333, 0.16666666666666666, 0.3333333333333333, 0.3333333333333333, 0.5833333333333334, 0.3333333333333333, 0.5833333333333334, 0.5833333333333334, 0.16666666666666666, 0.3333333333333333]",230.29299389990047,None,2.8221445823139013,none,0,48,[],0.012957666767761111,None,None,231.32873439998366,None,0.2222859668545425,3.044430549168444,231.5427566000726,None,283.0,4.919273818938203,0.0002334814628332472,227.67955340002663,None,,,,,,,erfnpg,001,fr,0,2022-05-10_15h18.09.142,Continuous,2022.1.1,36.311361206170105,
5,0,5,0,1,0,1,0,,,,,,,,2.6691714916103924,none,0,49,[],0.0009255667682737112,None,['space'],234.36092119989917,234.36092119989917,0.1950383665971458,2.864209858207538,234.5775903998874,234.36092119989917,357.0,3.6005335785762416,0.0001327740548984132,,,[-2.305515900021419],,,,,,erfnpg,001,fr,0,2022-05-10_15h18.09.142,Continuous,2022.1.1,36.311361206170105,
5,0,5,0,2,0,2,0,,,,,,,,1.4905961726273202,none,1,49,[],0.009301966754719615,None,['space'],237.24741359986365,237.24741359986365,0.21296476665884256,1.7035609392861628,237.46135580004193,237.24741359986365,,,,,,[-2.2963613998144865],,,,,,erfnpg,001,fr,0,2022-05-10_15h18.09.142,Continuous,2022.1.1,36.311361206170105,
5,0,5,0,3,0,3,0,,,,,,,,2.6347230916019537,none,0,50,[],0.00508286664262414,0.19791026669554412,None,238.9456138999667,238.9456138999667,0.19791026669554412,2.832633358297498,239.15951159992255,238.9456138999667,189.0,7.0,0.0006839382076479004,,,,,,,,,erfnpg,001,fr,0,2022-05-10_15h18.09.142,Continuous,2022.1.1,36.311361206170105,
5,0,5,0,4,0,4,0,,,,,,,,2.300044948183207,none,0,51,[],0.008526766672730446,None,['space'],241.79343309998512,241.79343309998512,0.214527866570279,2.514572814753486,242.01020770007744,241.79343309998512,150.0,5.748568254651847,0.0009694563033832515,,,[-2.409633399685845],,,,,,erfnpg,001,fr,0,2022-05-10_15h18.09.142,Continuous,2022.1.1,36.311361206170105,
5,0,5,0,5,0,5,0,,,,,,,,1.796742328617163,none,0,52,[],0.00886826659552753,None,['space'],244.30694480007514,244.30694480007514,0.21233036648482084,2.0090726951019837,244.51673089992255,244.30694480007514,802.0,2.4897869614630497,5.118023777950203e-05,,,[-2.011928599793464],,,,,,erfnpg,001,fr,0,2022-05-10_15h18.09.142,Continuous,2022.1.1,36.311361206170105,
5,0,5,0,6,0,6,0,,,,,,,,1.597924753043593,none,0,53,[],0.009019766701385379,None,['space'],246.31575049995445,246.31575049995445,0.20893306657671928,1.8068578196203122,246.5236648998689,246.31575049995445,900.0,1.7757229072863985,5.055818677863709e-05,,,[-1.4926829999312758],,,,,,erfnpg,001,fr,0,2022-05-10_15h18.09.142,Continuous,2022.1.1,36.311361206170105,
5,0,5,0,7,0,7,0,,,,,,,,1.4278067833142838,none,0,54,[],0.009036566829308867,None,['space'],248.12539179995656,248.12539179995656,0.21104246680624783,1.6388492501205316,248.3395722999703,248.12539179995656,1134.0,0.1628654187858059,5.059716490371447e-05,,,[0.058729799930006266],,,,,,erfnpg,001,fr,0,2022-05-10_15h18.09.142,Continuous,2022.1.1,36.311361206170105,
6,0,6,0,0,0,0,0,,,,,,251.94338799989782,None,2.899230906175095,both,0,27,[],0.012633966514840722,None,None,252.98568050004542,None,0.22037876653485,3.119609672709945,253.19892059988342,None,158.0,0.2241811448153025,0.00044014158054888854,249.7632432000246,None,,0.5833333333333334,,,,,erfnpg,001,fr,0,2022-05-10_15h18.09.142,Continuous,2022.1.1,36.311361206170105,
6,0,6,0,1,0,1,0,,,,,,,,2.899230906175095,both,0,28,[],0.001889766426756978,0.1951627666130662,['space'],256.0968112000264,256.0968112000264,0.1951627666130662,3.0943936727881614,256.308508399874,256.0968112000264,236.0,-0.07119313684768258,0.00019332033549778247,,,[-2.4567243999335915],,,,,,erfnpg,001,fr,0,2022-05-10_15h18.09.142,Continuous,2022.1.1,36.311361206170105,
6,0,6,0,2,0,2,0,,,,,,,,2.899230906175095,both,0,29,[],0.001385566545650363,None,['space'],259.20386689994484,259.20386689994484,0.19824096653610468,3.0974718727112,259.42105260002427,259.20386689994484,354.0,-1.0,7.887248739356936e-05,,,[-2.5713720000348985],,,,,,erfnpg,001,fr,0,2022-05-10_15h18.09.142,Continuous,2022.1.1,36.311361206170105,
6,0,6,0,3,0,3,0,,,,,,,,2.899230906175095,both,0,30,[],0.00870336638763547,None,None,262.3234031999018,262.3234031999018,0.21420356654562056,3.1134344727207157,262.5325819000136,262.3234031999018,530.0,0.18147675247720702,6.817429467963547e-05,,,,,,,,,erfnpg,001,fr,0,2022-05-10_15h18.09.142,Continuous,2022.1.1,36.311361206170105,
6,0,6,0,4,0,4,0,,,,,,,,2.899230906175095,both,0,31,[],0.007698066299781203,None,['space'],265.43619929999113,265.43619929999113,0.20997196645475924,3.1092028726298544,265.65671840007417,265.43619929999113,794.0,-1.5008841344445847,3.250894671557133e-05,,,[-2.1967686999123544],,,,,,erfnpg,001,fr,0,2022-05-10_15h18.09.142,Continuous,2022.1.1,36.311361206170105,
6,0,6,0,5,0,5,0,,,,,,,,2.899230906175095,both,0,32,[],0.006679766811430454,0.2039207669440657,['space'],268.55602080002427,268.55602080002427,0.2039207669440657,3.103151673119161,268.7680536999833,268.55602080002427,1190.0,-0.6362104797775946,4.83269576231037e-05,,,[-2.5796321998350322],,,,,,erfnpg,001,fr,0,2022-05-10_15h18.09.142,Continuous,2022.1.1,36.311361206170105,
6,0,6,0,6,0,6,0,,,,,,,,2.899230906175095,both,1,32,[],0.004594966536387801,None,None,271.661010999931,271.661010999931,0.2022607666440308,3.101491672819126,271.88101710006595,271.661010999931,,,,,,,,,,,,erfnpg,001,fr,0,2022-05-10_15h18.09.142,Continuous,2022.1.1,36.311361206170105,
6,0,6,0,7,0,7,0,,,,,,,,2.899230906175095,both,0,33,[],0.0051386666018515825,0.20115666673518717,None,274.7821688000113,274.7821688000113,0.20115666673518717,3.1003875729102823,274.9955275999382,274.7821688000113,2671.0,0.6570058236319203,8.118321093243828e-05,,,,,,,,,erfnpg,001,fr,0,2022-05-10_15h18.09.142,Continuous,2022.1.1,36.311361206170105,
6,0,6,0,8,0,8,0,,,,,,,,2.899230906175095,both,0,34,[],0.008556666783988476,None,None,277.89103289996274,277.89103289996274,0.21400836668908596,3.113239272864181,278.10346239991486,277.89103289996274,4002.0,-2.437522056598677,6.350461707821243e-05,,,,,,,,,erfnpg,001,fr,0,2022-05-10_15h18.09.142,Continuous,2022.1.1,36.311361206170105,
7,0,7,0,0,0,0,0,,,,,"[0.16666666666666666, 0.5833333333333334, 0.5833333333333334, 0.3333333333333333, 0.3333333333333333, 0.5833333333333334, 0.3333333333333333, 0.16666666666666666, 0.5833333333333334, 0.5833333333333334, 0.5833333333333334, 0.16666666666666666, 0.16666666666666666, 0.3333333333333333, 0.3333333333333333]",284.46127730002627,None,1.3483797546165923,time,0,59,[],0.011186966672539711,None,None,285.47757109999657,None,0.20788816665299237,1.5562679212695847,285.6894543999806,None,977.0,-0.6112249864051377,4.0449753876114094e-05,281.00269660004415,None,,,,,,,erfnpg,001,fr,0,2022-05-10_15h18.09.142,Continuous,2022.1.1,36.311361206170105,
7,0,7,0,1,0,1,0,,,,,,,,1.3483797546165923,time,0,60,[],0.007160066626966,None,None,287.04313090001233,287.04313090001233,0.20962376659736037,1.5580035212139527,287.2561039000284,287.04313090001233,7379.0,-1.389446157587452,0.00013866133739776898,,,,,,,,,erfnpg,001,fr,0,2022-05-10_15h18.09.142,Continuous,2022.1.1,36.311361206170105,
7,0,7,0,2,0,2,0,,,,,,,,1.3483797546165923,time,0,61,[],0.0008508665487170219,None,['space'],288.6028338999022,288.6028338999022,0.20206976658664644,1.5504495212032388,288.8193302000873,288.6028338999022,2324.0,1.7746375734092619,0.0001005805121190925,,,[-0.8671178997028619],,,,,,erfnpg,001,fr,0,2022-05-10_15h18.09.142,Continuous,2022.1.1,36.311361206170105,
7,0,7,0,3,0,3,0,,,,,,,,1.3483797546165923,time,0,62,[],0.007865266408771276,None,None,290.1726772999391,290.1726772999391,0.21021876647137105,1.5585985210879634,290.3881027000025,290.1726772999391,435.0,0.9252603597489266,8.317007394199332e-05,,,,,,,,,erfnpg,001,fr,0,2022-05-10_15h18.09.142,Continuous,2022.1.1,36.311361206170105,
7,0,7,0,4,0,4,0,,,,,,,,1.3483797546165923,time,0,63,[],0.008216466521844268,None,None,291.74068639986217,291.74068639986217,0.21170736639760435,1.5600871210141967,291.9513896999415,291.74068639986217,1231.0,0.7150896351636027,5.832383788493479e-05,,,,,,,,,erfnpg,001,fr,0,2022-05-10_15h18.09.142,Continuous,2022.1.1,36.311361206170105,
7,0,7,0,5,0,5,0,,,,,,,,1.3483797546165923,time,0,64,[],0.004638666519895196,0.20174966659396887,['space'],293.3003873000853,293.3003873000853,0.20174966659396887,1.5501294212105612,293.5170464999974,293.3003873000853,2928.0,1.0,6.653368276574465e-05,,,[-0.9724036999978125],,,,,,erfnpg,001,fr,0,2022-05-10_15h18.09.142,Continuous,2022.1.1,36.311361206170105,
7,0,7,0,6,0,6,0,,,,,,,,1.3483797546165923,time,0,65,[],0.00795696652494371,None,['space'],294.8601794000715,294.8601794000715,0.2115606665611267,1.559940421177719,295.0780561999418,294.8601794000715,652.0,0.7042063713673945,5.3393437214028066e-05,,,[-0.6763381999917328],,,,,,erfnpg,001,fr,0,2022-05-10_15h18.09.142,Continuous,2022.1.1,36.311361206170105,
7,0,7,0,7,0,7,0,,,,,,,,1.3483797546165923,time,1,65,[],0.00588576658628881,None,['space'],296.419685699977,296.419685699977,0.21043706662021577,1.558816821236808,296.6344699000474,296.419685699977,,,,,,[-0.20300679979845881],,,,,,erfnpg,001,fr,0,2022-05-10_15h18.09.142,Continuous,2022.1.1,36.311361206170105,
7,0,7,0,8,0,8,0,,,,,,,,1.3483797546165923,time,0,66,[],0.009230766678228974,None,None,297.9804744999856,297.9804744999856,0.21628386666998267,1.564663621286575,298.1883999998681,297.9804744999856,3287.0,-0.04644652448327169,7.104321463707387e-05,,,,,,,,,erfnpg,001,fr,0,2022-05-10_15h18.09.142,Continuous,2022.1.1,36.311361206170105,
7,0,7,0,9,0,9,0,,,,,,,,1.3483797546165923,time,0,67,[],0.0037117667961865664,None,None,299.54046489996836,299.54046489996836,0.1992920667398721,1.5476718213564644,299.7612697998993,299.54046489996836,1551.0,1.6541385997836708,6.364784019872118e-05,,,,,,,,,erfnpg,001,fr,0,2022-05-10_15h18.09.142,Continuous,2022.1.1,36.311361206170105,
7,0,7,0,10,0,10,0,,,,,,,,1.3483797546165923,time,0,68,[],0.004040966741740704,0.19979896675795317,None,301.1089321000036,301.1089321000036,0.19979896675795317,1.5481787213745455,301.32275189994834,301.1089321000036,4925.0,1.0,0.0001655937853633201,,,,,,,,,erfnpg,001,fr,0,2022-05-10_15h18.09.142,Continuous,2022.1.1,36.311361206170105,
8,0,8,0,0,0,0,0,,,,,,386.4919089998584,None,1.9258989141803005,both,0,35,[],0.012808566447347403,None,None,387.5339820999652,None,0.20876816636882722,2.1346670805491277,387.7454373999499,None,690.0,-0.6924901282863234,4.238550806426232e-05,302.6696444998961,None,,0.16666666666666666,,,,,erfnpg,001,fr,0,2022-05-10_15h18.09.142,Continuous,2022.1.1,36.311361206170105,
8,0,8,0,1,0,1,0,,,,,,,,1.9258989141803005,both,0,36,[],0.001504666404798627,0.1981357664335519,None,389.67355920001864,389.67355920001864,0.1981357664335519,2.1240346806138524,389.88401519996114,389.67355920001864,775.0,-0.19198351917702472,3.864120783558545e-05,,,,,,,,,erfnpg,001,fr,0,2022-05-10_15h18.09.142,Continuous,2022.1.1,36.311361206170105,
8,0,8,0,2,0,2,0,,,,,,,,1.9258989141803005,both,1,36,[],0.0014854667242616415,0.18597636674530804,['space'],391.81851599994116,391.81851599994116,0.18597636674530804,2.1118752809256085,392.0120286999736,391.81851599994116,,,,,,[-1.4260548998136073],,,,,,erfnpg,001,fr,0,2022-05-10_15h18.09.142,Continuous,2022.1.1,36.311361206170105,
8,0,8,0,3,0,3,0,,,,,,,,1.9258989141803005,both,0,37,[],0.005017666611820459,0.20207566651515663,['space'],393.93939070007764,393.93939070007764,0.20207566651515663,2.127974580695457,394.15802860003896,393.93939070007764,977.0,-0.6471336288117665,4.028287431235866e-05,,,[-1.3718331998679787],,,,,,erfnpg,001,fr,0,2022-05-10_15h18.09.142,Continuous,2022.1.1,36.311361206170105,
8,0,8,0,4,0,4,0,,,,,,,,1.9258989141803005,both,0,38,[],0.007129766512662172,None,None,396.0849708998576,396.0849708998576,0.21285726665519178,2.1387561808354922,396.3000715998933,396.0849708998576,1097.0,-0.48216384022643943,4.551182261312426e-05,,,,,,,,,erfnpg,001,fr,0,2022-05-10_15h18.09.142,Continuous,2022.1.1,36.311361206170105,
8,0,8,0,5,0,5,0,,,,,,,,1.9258989141803005,both,0,39,[],0.0035658665001392365,None,None,398.22910410002805,398.22910410002805,0.1989709665067494,2.12486988068705,398.4460026999004,398.22910410002805,1231.0,0.09197759601789107,5.428633122436745e-05,,,,,,,,,erfnpg,001,fr,0,2022-05-10_15h18.09.142,Continuous,2022.1.1,36.311361206170105,
8,0,8,0,6,0,6,0,,,,,,,,1.9258989141803005,both,0,40,[],0.007151866564527154,None,['space'],400.37329169991426,400.37329169991426,0.21500396658666432,2.1409028807669648,400.5940630999394,400.37329169991426,1382.0,0.8211509347761562,5.6311835193834146e-05,,,[-1.5656591998413205],,,,,,erfnpg,001,fr,0,2022-05-10_15h18.09.142,Continuous,2022.1.1,36.311361206170105,
8,0,8,0,7,0,7,0,,,,,,,,1.9258989141803005,both,0,41,[],0.003544366220012307,None,None,402.5177990999073,402.5177990999073,0.1992037664167583,2.1251026805970588,402.734552500071,402.5177990999073,1551.0,0.3924181206137467,5.504243612411125e-05,,,,,,,,,erfnpg,001,fr,0,2022-05-10_15h18.09.142,Continuous,2022.1.1,36.311361206170105,
8,0,8,0,8,0,8,0,,,,,,,,1.9258989141803005,both,0,42,[],0.0068512666039168835,None,['space'],404.66323979990557,404.66323979990557,0.2220486665610224,2.147947580741323,404.8807604999747,404.66323979990557,1741.0,0.0,6.31171285960556e-05,,,[-1.5678160998504609],,,,,,erfnpg,001,fr,0,2022-05-10_15h18.09.142,Continuous,2022.1.1,36.311361206170105,
8,0,8,0,9,0,9,0,,,,,,,,1.9258989141803005,both,0,43,[],0.0024232666473835707,None,['space'],406.8046864999924,406.8046864999924,0.20538896671496332,2.1312878808952638,407.02436639997177,406.8046864999924,1954.0,0.6744364870527106,7.860745122803615e-05,,,[-0.25287369987927377],,,,,,erfnpg,001,fr,0,2022-05-10_15h18.09.142,Continuous,2022.1.1,36.311361206170105,
8,0,8,0,10,0,10,0,,,,,,,,1.9258989141803005,both,0,44,[],0.006461866432800889,None,['space'],408.95504879998043,408.95504879998043,0.22140626655891538,2.147305180739216,409.17215280001983,408.95504879998043,2193.0,0.45870686587055687,8.337911556326549e-05,,,[-0.3402113998308778],,,,,,erfnpg,001,fr,0,2022-05-10_15h18.09.142,Continuous,2022.1.1,36.311361206170105,
8,0,8,0,11,0,11,0,,,,,,,,1.9258989141803005,both,0,45,[],0.006703266641125083,None,['space'],411.101355999941,411.101355999941,0.21938076661899686,2.1452796807992973,411.3182405999396,411.101355999941,2462.0,1.749333948904725,0.0001040295346388262,,,[-0.005598000017926097],,,,,,erfnpg,001,fr,0,2022-05-10_15h18.09.142,Continuous,2022.1.1,36.311361206170105,
8,0,8,0,12,0,12,0,,,,,,,,1.9258989141803005,both,0,46,[],0.006633466575294733,None,None,413.2431936999783,413.2431936999783,0.21803246648050845,2.143931380660809,413.4545940000098,413.2431936999783,2764.0,0.5354926772500682,7.390857605220474e-05,,,,,,,,,erfnpg,001,fr,0,2022-05-10_15h18.09.142,Continuous,2022.1.1,36.311361206170105,
8,0,8,0,13,0,13,0,,,,,,,,1.9258989141803005,both,0,47,[],0.0033367667347192764,None,['space'],415.3782067000866,415.3782067000866,0.20503436657600105,2.1309332807563015,415.6022588999476,415.3782067000866,3102.0,0.0,6.447671613478904e-05,,,[-1.7704079998657107],,,,,,erfnpg,001,fr,0,2022-05-10_15h18.09.142,Continuous,2022.1.1,36.311361206170105,
8,0,8,0,14,0,14,0,,,,,,,,1.9258989141803005,both,0,48,[],0.00277996645309031,None,['space'],417.53375459997915,417.53375459997915,0.21444276650436223,2.1403416806846627,417.7589596998878,417.53375459997915,3482.0,-0.16681589127657936,7.342342196996355e-05,,,[-1.4144300997722894],,,,,,erfnpg,001,fr,0,2022-05-10_15h18.09.142,Continuous,2022.1.1,36.311361206170105,
9,0,9,0,0,0,0,0,,,,,,421.88314200006425,None,2.4412428495344454,frequency,0,27,[],0.012465166626498103,None,None,422.9351071000565,None,0.23527446668595076,2.676517316220396,423.1554713000078,None,158.0,-0.6607557419840189,0.0003975077079357344,419.6837925000582,None,,0.5833333333333334,,,,,erfnpg,001,fr,0,2022-05-10_15h18.09.142,Continuous,2022.1.1,36.311361206170105,
9,0,9,0,1,0,1,0,,,,,,,,1.9835236592178789,frequency,0,28,[],0.01606693328358233,None,None,425.5989957000129,425.5989957000129,0.22647283342666924,2.209996492644548,425.82855360000394,425.5989957000129,236.0,-0.996965973399714,0.0001737756406739293,,,,,,,,,erfnpg,001,fr,0,2022-05-10_15h18.09.142,Continuous,2022.1.1,36.311361206170105,
9,0,9,0,2,0,2,0,,,,,,,,1.9241787079647046,frequency,0,29,[],0.000811966834589839,0.18426496675238013,None,427.81573730008677,427.81573730008677,0.18426496675238013,2.1084436747170847,428.0178741000127,427.81573730008677,354.0,-1.0,7.887248739356936e-05,,,,,,,,,erfnpg,001,fr,0,2022-05-10_15h18.09.142,Continuous,2022.1.1,36.311361206170105,
9,0,9,0,3,0,3,0,,,,,,,,1.8103589957485473,frequency,0,30,[],0.002749766455963254,None,None,429.94577290001325,429.94577290001325,0.21118566649965942,2.021544662248207,430.166234199889,429.94577290001325,530.0,-0.6482588071198572,6.196320532720579e-05,,,,,,,,,erfnpg,001,fr,0,2022-05-10_15h18.09.142,Continuous,2022.1.1,36.311361206170105,
9,0,9,0,4,0,4,0,,,,,,,,1.1510646762722876,frequency,0,31,[],0.006589466473087668,None,None,431.9767364000436,431.9767364000436,0.22060086647979915,1.3716655427520867,432.19521480007097,431.9767364000436,794.0,-1.0549207443648267,3.422165968441222e-05,,,,,,,,,erfnpg,001,fr,0,2022-05-10_15h18.09.142,Continuous,2022.1.1,36.311361206170105,
9,0,9,0,5,0,5,0,,,,,,,,2.3198543795314883,frequency,0,32,[],0.005931466817855835,None,['space'],433.349388099974,433.349388099974,0.22319256677292287,2.543046946304411,433.56850649998523,433.349388099974,1190.0,-0.6142922950980073,4.844906103520815e-05,,,[-0.6542371998075396],,,,,,erfnpg,001,fr,0,2022-05-10_15h18.09.142,Continuous,2022.1.1,36.311361206170105,
9,0,9,0,6,0,6,0,,,,,,,,1.3019727569825958,frequency,1,32,[],0.004180866526439786,None,None,435.88279039994814,435.88279039994814,0.20680246641859412,1.50877522340119,436.1037773999851,435.88279039994814,,,,,,,,,,,,erfnpg,001,fr,0,2022-05-10_15h18.09.142,Continuous,2022.1.1,36.311361206170105,
9,0,9,0,7,0,7,0,,,,,,,,1.3065479539557319,frequency,0,33,[],0.004142466699704528,None,None,437.40287679992616,437.40287679992616,0.2024981665890664,1.5090461205447983,437.6207043998875,437.40287679992616,2671.0,0.0444524837464102,7.565516057911216e-05,,,,,,,,,erfnpg,001,fr,0,2022-05-10_15h18.09.142,Continuous,2022.1.1,36.311361206170105,
9,0,9,0,8,0,8,0,,,,,,,,2.25916565415967,frequency,0,34,[],0.006476766429841518,None,None,438.9293492999859,438.9293492999859,0.20592806651256979,2.4650937206722396,439.13937760004774,438.9293492999859,4002.0,-3.795519940490886,5.431320204435618e-05,,,,,,,,,erfnpg,001,fr,0,2022-05-10_15h18.09.142,Continuous,2022.1.1,36.311361206170105,
10,0,10,0,0,0,0,0,,,,,,505.45283590001054,None,2.561267953036781,both,0,49,[],0.012751766946166754,None,None,506.492443599971,None,0.23370206682011485,2.794970019856896,506.7112264998723,None,223.0,0.5667076523123304,0.00023523895326770444,441.4044868000783,None,,0.5833333333333334,,,,,erfnpg,001,fr,0,2022-05-10_15h18.09.142,Continuous,2022.1.1,36.311361206170105,
10,0,10,0,1,0,1,0,,,,,,,,2.561267953036781,both,0,50,[],0.006518266629427671,None,None,509.2719801000785,509.2719801000785,0.2119641664903611,2.773232119527142,509.4782342999242,509.2719801000785,334.0,-1.1555750645683358,8.201774769507377e-05,,,,,,,,,erfnpg,001,fr,0,2022-05-10_15h18.09.142,Continuous,2022.1.1,36.311361206170105,
10,0,10,0,2,0,2,0,,,,,,,,2.561267953036781,both,0,51,[],0.0031767666805535555,None,None,512.046498700045,512.046498700045,0.19840516685508192,2.759673119891863,512.2596155998763,512.046498700045,501.0,-0.4807298982949567,6.745034654159841e-05,,,,,,,,,erfnpg,001,fr,0,2022-05-10_15h18.09.142,Continuous,2022.1.1,36.311361206170105,
10,0,10,0,3,0,3,0,,,,,,,,2.561267953036781,both,0,52,[],0.006599066779017448,None,None,514.827686799923,514.827686799923,0.21151776681654155,2.7727857198533226,515.0402277999092,514.827686799923,750.0,-1.6758159329569993,3.351036881369371e-05,,,,,,,,,erfnpg,001,fr,0,2022-05-10_15h18.09.142,Continuous,2022.1.1,36.311361206170105,
10,0,10,0,4,0,4,0,,,,,,,,2.561267953036781,both,0,53,[],0.002894866745918989,None,['space'],517.6061291000806,517.6061291000806,0.2020178665407002,2.763285819577481,517.8196381998714,517.6061291000806,1123.0,-1.5470457202854457,4.117066885406894e-05,,,[-2.014213499845937],,,,,,erfnpg,001,fr,0,2022-05-10_15h18.09.142,Continuous,2022.1.1,36.311361206170105,
10,0,10,0,5,0,5,0,,,,,,,,2.561267953036781,both,0,54,[],0.003055966692045331,None,['space'],520.3895292000379,520.3895292000379,0.2015697667375207,2.7628377197743017,520.6068400999065,520.3895292000379,1682.0,-0.8432867569266502,5.485979813645845e-05,,,[-2.1259649998974055],,,,,,erfnpg,001,fr,0,2022-05-10_15h18.09.142,Continuous,2022.1.1,36.311361206170105,
10,0,10,0,6,0,6,0,,,,,,,,2.561267953036781,both,0,55,[],0.006254066480323672,None,['space'],523.1685041999444,523.1685041999444,0.20724116661585867,2.7685091196526397,523.3815595998894,523.1685041999444,2520.0,-0.9721377371109634,7.568907611728104e-05,,,[-1.2885396999772638],,,,,,erfnpg,001,fr,0,2022-05-10_15h18.09.142,Continuous,2022.1.1,36.311361206170105,
10,0,10,0,7,0,7,0,,,,,,,,2.561267953036781,both,0,56,[],0.0024860664270818233,0.19694976648315787,['space'],525.9481504999567,525.9481504999567,0.19694976648315787,2.758217719519939,526.1652281999122,525.9481504999567,3776.0,-2.2501272806492354,6.174865385768615e-05,,,[-1.781130899908021],,,,,,erfnpg,001,fr,0,2022-05-10_15h18.09.142,Continuous,2022.1.1,36.311361206170105,
10,0,10,0,8,0,8,0,,,,,,,,2.561267953036781,both,0,57,[],0.00604106648825109,None,['space'],528.7316521999892,528.7316521999892,0.21079126629047096,2.772059219327252,528.9501473999117,528.7316521999892,5657.0,-2.0,0.00010208572337891864,,,[-2.1479944998864084],,,,,,erfnpg,001,fr,0,2022-05-10_15h18.09.142,Continuous,2022.1.1,36.311361206170105,
10,0,10,0,9,0,9,0,,,,,,,,2.561267953036781,both,1,57,[],0.0023148665204644203,None,['space'],531.5066529000178,531.5066529000178,0.19949356652796268,2.7607615195647437,531.7238930000458,531.5066529000178,,,,,,[-2.251661399845034],,,,,,erfnpg,001,fr,0,2022-05-10_15h18.09.142,Continuous,2022.1.1,36.311361206170105,
11,0,11,0,0,0,0,0,,,,,"[0.5833333333333334, 0.3333333333333333, 0.3333333333333333, 0.5833333333333334, 0.5833333333333334, 0.16666666666666666, 0.16666666666666666, 0.5833333333333334, 0.16666666666666666, 0.5833333333333334, 0.16666666666666666, 0.3333333333333333, 0.16666666666666666, 0.5833333333333334, 0.5833333333333334]",538.3538933999371,None,2.827360915563931,none,0,55,[],0.012861266499385238,None,None,539.3810123999137,None,0.21853656647726893,3.0458974820412,539.5965245999396,None,7379.0,-3.97537008670642,0.00010295778440688565,534.286501100054,None,,,,,,,erfnpg,001,fr,0,2022-05-10_15h18.09.142,Continuous,2022.1.1,36.311361206170105,
11,0,11,0,1,0,1,0,,,,,,,,2.6518884467364634,none,0,56,[],0.00569326663389802,None,['space'],542.4250461000483,542.4250461000483,0.20888076652772725,2.8607692132641906,542.6326164000202,542.4250461000483,2929.0,2.328338323704852,7.744673456572276e-05,,,[-1.7610325999557972],,,,,,erfnpg,001,fr,0,2022-05-10_15h18.09.142,Continuous,2022.1.1,36.311361206170105,
11,0,11,0,2,0,2,0,,,,,,,,2.6265970789922113,none,0,57,[],0.0019037665333598852,0.19737856648862362,['space'],545.2865850999951,545.2865850999951,0.19737856648862362,2.823975645480835,545.5035584000871,545.2865850999951,821.0,-0.5563892360348233,3.654723069411669e-05,,,[-2.23813289985992],,,,,,erfnpg,001,fr,0,2022-05-10_15h18.09.142,Continuous,2022.1.1,36.311361206170105,
11,0,11,0,3,0,3,0,,,,,,,,1.0314466679241727,none,0,58,[],0.003447566647082567,None,['space'],548.1338430000469,548.1338430000469,0.20229306654073298,1.2337397344649057,548.3502503999043,548.1338430000469,1551.0,2.490106047831789,7.007805562525026e-05,,,[-2.1419234999921173],,,,,,erfnpg,001,fr,0,2022-05-10_15h18.09.142,Continuous,2022.1.1,36.311361206170105,
11,0,11,0,4,0,4,0,,,,,,,,1.6558003863997826,none,0,59,[],0.0008539664559066296,0.1963603664189577,['space'],549.3878973000683,549.3878973000683,0.1963603664189577,1.8521607528187403,549.6014527999796,549.3878973000683,4925.0,3.0,0.00020847022442907278,,,[-0.4996829000301659],,,,,,erfnpg,001,fr,0,2022-05-10_15h18.09.142,Continuous,2022.1.1,36.311361206170105,
11,0,11,0,5,0,5,0,,,,,,,,2.5360658928736752,none,0,60,[],0.013814233243465424,None,['space'],551.2660729999188,551.2660729999188,0.2378965332172811,2.7739624260909563,551.5018708999269,551.2660729999188,2609.0,2.9461072603938128,0.00011107125729562172,,,[-0.9696585999336094],,,,,,erfnpg,001,fr,0,2022-05-10_15h18.09.142,Continuous,2022.1.1,36.311361206170105,
11,0,11,0,6,0,6,0,,,,,,,,1.7563431889332717,none,0,61,[],0.005870666587725282,None,None,554.0346409999765,554.0346409999765,0.21038746647536755,1.9667306554086392,554.2480138998944,554.0346409999765,1035.0,0.024344109676066594,4.5644141592785516e-05,,,,,,,,,erfnpg,001,fr,0,2022-05-10_15h18.09.142,Continuous,2022.1.1,36.311361206170105,
11,0,11,0,7,0,7,0,,,,,,,,1.4151864737355428,none,1,61,[],0.0034916664008051157,0.2013404662720859,None,556.0091241998598,556.0091241998598,0.2013404662720859,1.6165269400076288,556.2211291999556,556.0091241998598,,,,,,,,,,,,erfnpg,001,fr,0,2022-05-10_15h18.09.142,Continuous,2022.1.1,36.311361206170105,
11,0,11,0,8,0,8,0,,,,,,,,1.1911948546852094,none,0,62,[],0.006822766503319144,None,None,557.637742199935,557.637742199935,0.21157986647449434,1.4027747211597037,557.850429699989,557.637742199935,4388.0,-3.4600567659344765,7.42843029475014e-05,,,,,,,,,erfnpg,001,fr,0,2022-05-10_15h18.09.142,Continuous,2022.1.1,36.311361206170105,
11,0,11,0,9,0,9,0,,,,,,,,2.849286310242399,none,0,63,[],0.002765866694971919,None,['space'],559.0470225999597,559.0470225999597,0.20117536652833223,3.0504616767707313,559.2614710000344,559.0470225999597,652.0,1.9378016166811063,6.154143827050249e-05,,,[-0.799168499885127],,,,,,erfnpg,001,fr,0,2022-05-10_15h18.09.142,Continuous,2022.1.1,36.311361206170105,
12,0,12,0,0,0,0,0,,,,,,622.7500654000323,None,1.385391660772863,both,0,58,[],0.0128820666577667,None,None,623.778935499955,None,0.2150642666965723,1.6004559274694352,623.9904753998853,None,165.0,5.0,0.0006987063185926841,562.1120062000118,None,,0.5833333333333334,,,,,erfnpg,001,fr,0,2022-05-10_15h18.09.142,Continuous,2022.1.1,36.311361206170105,
12,0,12,0,1,0,1,0,,,,,,,,1.385391660772863,both,1,58,[],0.0017054667696356773,0.19799646665342152,None,625.3833540999331,625.3833540999331,0.19799646665342152,1.5833881274262844,625.5975913000293,625.3833540999331,,,,,,,,,,,,erfnpg,001,fr,0,2022-05-10_15h18.09.142,Continuous,2022.1.1,36.311361206170105,
12,0,12,0,2,0,2,0,,,,,,,,1.385391660772863,both,0,59,[],0.006265966687351465,None,None,626.9844062000047,626.9844062000047,0.20905346679501235,1.5944451275678753,627.2042807000689,626.9844062000047,370.0,3.6038477000675737,0.00012771431820230298,,,,,,,,,erfnpg,001,fr,0,2022-05-10_15h18.09.142,Continuous,2022.1.1,36.311361206170105,
12,0,12,0,3,0,3,0,,,,,,,,1.385391660772863,both,0,60,[],0.015566033544018865,None,None,628.595027500065,628.595027500065,0.21101673343218863,1.5964083942050515,628.8110501999035,628.595027500065,554.0,0.7310803157723557,6.855467652659137e-05,,,,,,,,,erfnpg,001,fr,0,2022-05-10_15h18.09.142,Continuous,2022.1.1,36.311361206170105,
12,0,12,0,4,0,4,0,,,,,,,,1.385391660772863,both,0,61,[],0.0054472666233778,None,None,630.2039419000503,630.2039419000503,0.20585416653193533,1.5912458273047982,630.4203719000798,630.2039419000503,830.0,3.325532559283365,5.7516479944542486e-05,,,,,,,,,erfnpg,001,fr,0,2022-05-10_15h18.09.142,Continuous,2022.1.1,36.311361206170105,
12,0,12,0,5,0,5,0,,,,,,,,1.385391660772863,both,0,62,[],0.005105966702103615,None,['space'],631.8051521999296,631.8051521999296,0.20585306687280536,1.5912447276456683,632.0220909998752,631.8051521999296,1244.0,4.758471942622981,9.384031878918554e-05,,,[-0.9012410000432283],,,,,,erfnpg,001,fr,0,2022-05-10_15h18.09.142,Continuous,2022.1.1,36.311361206170105,
12,0,12,0,6,0,6,0,,,,,,,,1.385391660772863,both,0,63,[],0.0018299664370715618,0.19489436643198133,['space'],633.4116483000107,633.4116483000107,0.19489436643198133,1.5802860272048442,633.6231863999274,633.4116483000107,1864.0,4.489461796616012,0.00011514529899719,,,[-0.860049800015986],,,,,,erfnpg,001,fr,0,2022-05-10_15h18.09.142,Continuous,2022.1.1,36.311361206170105,
12,0,12,0,7,0,7,0,,,,,,,,1.385391660772863,both,0,64,[],0.00149296666495502,0.19549646670930088,['space'],635.0141056999564,635.0141056999564,0.19549646670930088,1.5808881274821638,635.2247142000124,635.0141056999564,2793.0,2.1331941147142026,8.65303129510865e-05,,,[-0.9905349998734891],,,,,,erfnpg,001,fr,0,2022-05-10_15h18.09.142,Continuous,2022.1.1,36.311361206170105,
12,0,12,0,8,0,8,0,,,,,,,,1.385391660772863,both,0,65,[],0.01228213356807828,None,['space'],636.6175098998938,636.6175098998938,0.20786843355745077,1.5932600943303137,636.8309710000176,636.6175098998938,4185.0,-4.620765789882292,5.678716823658876e-05,,,[-1.026155499741435],,,,,,erfnpg,001,fr,0,2022-05-10_15h18.09.142,Continuous,2022.1.1,36.311361206170105,
12,0,12,0,9,0,9,0,,,,,,,,1.385391660772863,both,0,66,[],0.005224566673859954,None,['space'],638.223836600082,638.223836600082,0.20813756668940187,1.5935292274622648,638.4392089999747,638.223836600082,6270.0,-1.2832176309591077,0.00011093289394147853,,,[-1.0798029997386038],,,,,,erfnpg,001,fr,0,2022-05-10_15h18.09.142,Continuous,2022.1.1,36.311361206170105,
13,0,13,0,0,0,0,0,,,,,"[0.5833333333333334, 0.16666666666666666, 0.5833333333333334, 0.3333333333333333, 0.5833333333333334, 0.16666666666666666, 0.5833333333333334, 0.16666666666666666, 0.16666666666666666, 0.3333333333333333, 0.5833333333333334, 0.5833333333333334, 0.3333333333333333, 0.3333333333333333, 0.5833333333333334]",642.6022540000267,None,1.8763350159076535,time,0,69,[],0.012784766498953104,None,['space'],643.6244586000685,None,0.2197922666091472,2.0961272825168007,643.837699299911,None,131.0,7.067643457241255,0.001510097322582543,639.830772700021,None,[-1.6172879999503493],,,,,,erfnpg,001,fr,0,2022-05-10_15h18.09.142,Continuous,2022.1.1,36.311361206170105,
13,0,13,0,1,0,1,0,,,,,,,,1.8763350159076535,time,0,70,[],0.004639466293156147,None,['space'],645.7192470999435,645.7192470999435,0.20646036649122834,2.082795382398882,645.9321385000367,645.7192470999435,467.0,1.0943822233236613,8.295068453165412e-05,,,[-1.2323372999671847],,,,,,erfnpg,001,fr,0,2022-05-10_15h18.09.142,Continuous,2022.1.1,36.311361206170105,
13,0,13,0,2,0,2,0,,,,,,,,1.8763350159076535,time,0,71,[],0.004766266560181975,None,['space'],647.8172438999172,647.8172438999172,0.207887266529724,2.0842222824373775,648.0339691999834,647.8172438999172,312.0,2.600318936596936,0.00013732860557399542,,,[-1.2011112000327557],,,,,,erfnpg,001,fr,0,2022-05-10_15h18.09.142,Continuous,2022.1.1,36.311361206170105,
13,0,13,0,3,0,3,0,,,,,,,,1.8763350159076535,time,1,71,[],0.013895933516323566,None,['space'],649.9194205000531,649.9194205000531,0.23898323345929384,2.1153182493669473,650.1527790999971,649.9194205000531,,,,,,[-1.4800094000529498],,,,,,erfnpg,001,fr,0,2022-05-10_15h18.09.142,Continuous,2022.1.1,36.311361206170105,
13,0,13,0,4,0,4,0,,,,,,,,1.8763350159076535,time,0,72,[],0.0033047667238861322,0.20184636674821377,['space'],652.0278703998774,652.0278703998774,0.20184636674821377,2.0781813826558673,652.2427179000806,652.0278703998774,208.0,6.173502559821907,0.0005084088998336687,,,[-1.507724299794063],,,,,,erfnpg,001,fr,0,2022-05-10_15h18.09.142,Continuous,2022.1.1,36.311361206170105,
13,0,13,0,5,0,5,0,,,,,,,,1.8763350159076535,time,0,73,[],0.0047796666622161865,None,['space'],654.1273769999389,654.1273769999389,0.2062304667197168,2.0825654826273703,654.3411300999578,654.1273769999389,588.0,1.2098248360791106,6.634259761160337e-05,,,[-1.5124625999014825],,,,,,erfnpg,001,fr,0,2022-05-10_15h18.09.142,Continuous,2022.1.1,36.311361206170105,
13,0,13,0,6,0,6,0,,,,,,,,1.8763350159076535,time,0,74,[],0.004681366728618741,None,['space'],656.2248494999949,656.2248494999949,0.20550346677191556,2.081838482679569,656.4470891000237,656.2248494999949,165.0,9.0,0.0011073748878671112,,,[-1.4972910997457802],,,,,,erfnpg,001,fr,0,2022-05-10_15h18.09.142,Continuous,2022.1.1,36.311361206170105,
13,0,13,0,7,0,7,0,,,,,,,,1.8763350159076535,time,0,75,[],0.016537933377549052,None,['space'],658.3253081999719,658.3253081999719,0.2142036333680153,2.090538649275669,658.5493163000792,658.3253081999719,147.0,4.990855423766824,0.0009359147568444787,,,[-1.8055887999944389],,,,,,erfnpg,001,fr,0,2022-05-10_15h18.09.142,Continuous,2022.1.1,36.311361206170105,
13,0,13,0,8,0,8,0,,,,,,,,1.8763350159076535,time,0,76,[],0.0015326666180044413,None,['space'],660.4229804999195,660.4229804999195,0.19674206664785743,2.073077082555511,660.6406129000243,660.4229804999195,741.0,3.0423146128095726,5.8808300867624377e-05,,,[-1.7276367000304163],,,,,,erfnpg,001,fr,0,2022-05-10_15h18.09.142,Continuous,2022.1.1,36.311361206170105,
14,0,14,0,0,0,0,0,,,,,,664.2756356999744,None,2.2001356499550155,frequency,0,35,[],0.012665566522628069,None,None,665.3097941998858,None,0.22916546650230885,2.4293011164573244,665.5278920999262,None,208.0,2.0254110959091505,0.00031536142633623385,662.5222885999829,None,,0.5833333333333334,,,,,erfnpg,001,fr,0,2022-05-10_15h18.09.142,Continuous,2022.1.1,36.311361206170105,
14,0,14,0,1,0,1,0,,,,,,,,2.75308352995632,frequency,0,36,[],0.001238666707649827,0.19745966675691307,None,667.7273885998875,667.7273885998875,0.19745966675691307,2.950543196713233,667.9429591998924,667.7273885998875,312.0,1.5758128064053634,0.00012204941546303867,,,,,,,,,erfnpg,001,fr,0,2022-05-10_15h18.09.142,Continuous,2022.1.1,36.311361206170105,
14,0,14,0,2,0,2,0,,,,,,,,1.0447878875973469,frequency,0,37,[],0.0008805666584521532,0.194371466524899,None,670.6992828999646,670.6992828999646,0.194371466524899,1.2391593541222459,670.9128936000634,670.6992828999646,467.0,0.32904930875814686,7.595446841336721e-05,,,,,,,,,erfnpg,001,fr,0,2022-05-10_15h18.09.142,Continuous,2022.1.1,36.311361206170105,
14,0,14,0,3,0,3,0,,,,,,,,2.0391513285151746,frequency,0,38,[],0.004459166433662176,None,['space'],671.9631185999606,671.9631185999606,0.20723866648040712,2.2463899949955817,672.1662711000536,671.9631185999606,699.0,-0.8855651193864583,4.074099845613598e-05,,,[-0.49930249992758036],,,,,,erfnpg,001,fr,0,2022-05-10_15h18.09.142,Continuous,2022.1.1,36.311361206170105,
14,0,14,0,4,0,4,0,,,,,,,,2.6405837388718725,frequency,1,38,[],0.0045047663152217865,None,None,674.2168435999192,674.2168435999192,0.2070993664674461,2.8476831053393186,674.4300855998881,674.2168435999192,,,,,,,,,,,,erfnpg,001,fr,0,2022-05-10_15h18.09.142,Continuous,2022.1.1,36.311361206170105,
14,0,14,0,5,0,5,0,,,,,,,,2.9550429021592786,frequency,0,39,[],0.002798666711896658,None,None,677.0740316999145,677.0740316999145,0.19839756679721177,3.1534404689564903,677.2939249000046,677.0740316999145,1569.0,1.4490541146701075,6.395935349950968e-05,,,,,,,,,erfnpg,001,fr,0,2022-05-10_15h18.09.142,Continuous,2022.1.1,36.311361206170105,
14,0,14,0,6,0,6,0,,,,,,,,1.5910692470038494,frequency,0,40,[],0.004363266751170158,None,None,680.2544943999965,680.2544943999965,0.208171566715464,1.7992408137193134,680.4702069999184,680.2544943999965,2351.0,2.2775193062999715,0.00010735358563003543,,,,,,,,,erfnpg,001,fr,0,2022-05-10_15h18.09.142,Continuous,2022.1.1,36.311361206170105,
14,0,14,0,7,0,7,0,,,,,,,,2.777757176844073,frequency,0,41,[],0.013459233334288001,None,None,682.0709345000796,682.0709345000796,0.20819293311797082,2.985950109962044,682.2859487999231,682.0709345000796,3523.0,-1.0346382706999806,6.708101985302076e-05,,,,,,,,,erfnpg,001,fr,0,2022-05-10_15h18.09.142,Continuous,2022.1.1,36.311361206170105,
14,0,14,0,8,0,8,0,,,,,,,,2.118188458277588,frequency,0,42,[],0.012847133446484804,0.20876813330687582,None,685.0747157000005,685.0747157000005,0.20876813330687582,2.3269565915844637,685.2869092000183,685.0747157000005,5278.0,0.0,0.00014249443782164188,,,,,,,,,erfnpg,001,fr,0,2022-05-10_15h18.09.142,Continuous,2022.1.1,36.311361206170105,
14,0,14,0,9,0,9,0,,,,,,,,2.503502086468573,frequency,0,43,[],0.0032675666734576225,None,['space'],687.4156917000655,687.4156917000655,0.20833816681988537,2.7118402532884582,687.6341565998737,687.4156917000655,7908.0,-6.109403652586226,8.84660360834847e-05,,,[-1.7121774998959154],,,,,,erfnpg,001,fr,0,2022-05-10_15h18.09.142,Continuous,2022.1.1,36.311361206170105,
15,0,15,0,0,0,0,0,,,,,,696.4536514000501,None,1.8381146315759656,frequency,0,44,[],0.007500066421926022,None,None,697.4988042998593,None,0.21962456637993455,2.0577391979559003,697.7290131000336,None,131.0,1.555510786028258,0.0008005681425565588,690.1399594999384,None,,0.16666666666666666,,,,,erfnpg,001,fr,0,2022-05-10_15h18.09.142,Continuous,2022.1.1,36.311361206170105,
15,0,15,0,1,0,1,0,,,,,,,,1.307398488742762,frequency,0,45,[],0.0005754667799919844,None,None,699.561120999977,699.561120999977,0.19809706672094762,1.5054955554637097,699.7773319999687,699.561120999977,147.0,3.219067502320522,0.0007632150028700782,,,,,,,,,erfnpg,001,fr,0,2022-05-10_15h18.09.142,Continuous,2022.1.1,36.311361206170105,
15,0,15,0,2,0,2,0,,,,,,,,2.984973236819522,frequency,0,46,[],0.003968666540458798,None,['space'],701.0948059000075,701.0948059000075,0.2079947665333748,3.1929680033528967,701.3151543999556,701.0948059000075,165.0,6.0,0.0007839613835983788,,,[-0.7505874999333173],,,,,,erfnpg,001,fr,0,2022-05-10_15h18.09.142,Continuous,2022.1.1,36.311361206170105,
15,0,15,0,3,0,3,0,,,,,,,,2.462846347543022,frequency,0,47,[],0.0002026665024459362,None,['space'],704.3020750998985,704.3020750998985,0.20080486661754549,2.6636512141605673,704.5216256000567,704.3020750998985,185.0,5.590883264560031,0.0006092446044541202,,,[-2.582669099792838],,,,,,erfnpg,001,fr,0,2022-05-10_15h18.09.142,Continuous,2022.1.1,36.311361206170105,
15,0,15,0,4,0,4,0,,,,,,,,2.0046744186479595,frequency,0,48,[],0.00021076668053865433,None,['space'],706.9882115998771,706.9882115998771,0.20096226665191352,2.205636685299873,707.2036430998705,706.9882115998771,208.0,4.162353420570215,0.00040332550608935435,,,[-2.0526886000297964],,,,,,erfnpg,001,fr,0,2022-05-10_15h18.09.142,Continuous,2022.1.1,36.311361206170105,
15,0,15,0,5,0,5,0,,,,,,,,2.7156708811364028,frequency,0,49,[],0.003521466627717018,None,['space'],709.2202244000509,709.2202244000509,0.20513506652787328,2.920805947664276,709.4299136998598,709.2202244000509,233.0,5.309585026842964,0.00037001477055508914,,,[-1.6920620000455528],,,,,,erfnpg,001,fr,0,2022-05-10_15h18.09.142,Continuous,2022.1.1,36.311361206170105,
15,0,15,0,6,0,6,0,,,,,,,,1.8523103422286333,frequency,0,50,[],0.01661523338407278,None,['space'],712.1485115999822,712.1485115999822,0.215076933382079,2.067387275610712,712.3700586999767,712.1485115999822,262.0,4.7440119242449175,0.0002672310088572054,,,[-2.3970019000116736],,,,,,erfnpg,001,fr,0,2022-05-10_15h18.09.142,Continuous,2022.1.1,36.311361206170105,
15,0,15,0,7,0,7,0,,,,,,,,2.39872559505066,frequency,1,50,[],0.0009611665736883879,None,['space'],714.2266897999216,714.2266897999216,0.19940216653048992,2.59812776158115,714.443616699893,714.2266897999216,,,,,,[-1.4026388998609036],,,,,,erfnpg,001,fr,0,2022-05-10_15h18.09.142,Continuous,2022.1.1,36.311361206170105,
15,0,15,0,8,0,8,0,,,,,,,,1.6857084586985194,frequency,0,51,[],0.0009629668202251196,None,None,716.849011400016,716.849011400016,0.19465356669388711,1.8803620253924065,717.0629559999797,716.849011400016,330.0,3.0645186647077205,0.000134803052327928,,,,,,,,,erfnpg,001,fr,0,2022-05-10_15h18.09.142,Continuous,2022.1.1,36.311361206170105,
16,0,16,0,0,0,0,0,,,,,,722.5291156999301,None,1.602040745114007,both,0,67,[],0.012899566441774368,None,None,723.5601945000235,None,0.21653446648269892,1.818575211596706,723.7768540999386,None,125.0,6.0,0.0014420157515633036,718.761281499872,None,,0.5833333333333334,,,,,erfnpg,001,fr,0,2022-05-10_15h18.09.142,Continuous,2022.1.1,36.311361206170105,
16,0,16,0,1,0,1,0,,,,,,,,1.602040745114007,both,1,67,[],0.015417933464050293,None,None,725.3727539998945,725.3727539998945,0.21004253346472979,1.8120832785787369,725.5908343000337,725.3727539998945,,,,,,,,,,,,erfnpg,001,fr,0,2022-05-10_15h18.09.142,Continuous,2022.1.1,36.311361206170105,
16,0,16,0,2,0,2,0,,,,,,,,1.602040745114007,both,0,68,[],0.016232333378866315,None,None,727.1954449999612,727.1954449999612,0.2384885335341096,1.8405292786481167,727.4236331998836,727.1954449999612,280.0,3.5551775469437024,0.00020433377904683186,,,,,,,,,erfnpg,001,fr,0,2022-05-10_15h18.09.142,Continuous,2022.1.1,36.311361206170105,
16,0,16,0,3,0,3,0,,,,,,,,1.602040745114007,both,0,69,[],0.01651883334852755,None,['space'],729.0287899000105,729.0287899000105,0.2096852334216237,1.8117259785356308,729.2456282998901,729.0287899000105,420.0,3.6726408039322864,0.0001152830726822983,,,[-1.0368734998628497],,,,,,erfnpg,001,fr,0,2022-05-10_15h18.09.142,Continuous,2022.1.1,36.311361206170105,
16,0,16,0,4,0,4,0,,,,,,,,1.602040745114007,both,0,70,[],0.003276066854596138,None,['space'],730.8572547999211,730.8572547999211,0.20802656677551568,1.8100673118895227,731.0632193000056,730.8572547999211,629.0,2.4448290195959546,6.800386540742558e-05,,,[-1.1854065000079572],,,,,,erfnpg,001,fr,0,2022-05-10_15h18.09.142,Continuous,2022.1.1,36.311361206170105,
16,0,16,0,5,0,5,0,,,,,,,,1.602040745114007,both,0,71,[],0.0033292665611952543,None,['space'],732.6764299999923,732.6764299999923,0.20740066654980183,1.809441411663809,732.8870073000435,732.6764299999923,942.0,3.255077368904022,6.168228512200509e-05,,,[-1.261333999922499],,,,,,erfnpg,001,fr,0,2022-05-10_15h18.09.142,Continuous,2022.1.1,36.311361206170105,
16,0,16,0,6,0,6,0,,,,,,,,1.602040745114007,both,0,72,[],0.0035021668300032616,None,['space'],734.4963169000112,734.4963169000112,0.2048030667938292,1.8068438119078363,734.7115744000766,734.4963169000112,1411.0,4.043060666790413,8.045418672833048e-05,,,[-1.3526207997929305],,,,,,erfnpg,001,fr,0,2022-05-10_15h18.09.142,Continuous,2022.1.1,36.311361206170105,
16,0,16,0,7,0,7,0,,,,,,,,1.602040745114007,both,0,73,[],0.016536233481019735,None,['space'],736.3217941999901,736.3217941999901,0.2088241335004568,1.8108648786144639,736.5364762998652,736.3217941999901,2114.0,4.947529001173485,0.00013670178042837593,,,[-1.2902999997604638],,,,,,erfnpg,001,fr,0,2022-05-10_15h18.09.142,Continuous,2022.1.1,36.311361206170105,
16,0,16,0,8,0,8,0,,,,,,,,1.602040745114007,both,0,74,[],0.014943533577024937,None,['space'],738.1445422000252,738.1445422000252,0.24319203360937536,1.8452327787233824,738.3850741998758,738.1445422000252,3167.0,1.5497857977581049,8.285772677971595e-05,,,[-1.3534268999937922],,,,,,erfnpg,001,fr,0,2022-05-10_15h18.09.142,Continuous,2022.1.1,36.311361206170105,
16,0,16,0,9,0,9,0,,,,,,,,1.602040745114007,both,0,75,[],0.0025992663577198982,None,['space'],739.9858172999229,739.9858172999229,0.2031950664240867,1.8052358115380938,740.1971666000318,739.9858172999229,4745.0,-4.962096503078944,7.636136340571195e-05,,,[-1.0977865997701883],,,,,,erfnpg,001,fr,0,2022-05-10_15h18.09.142,Continuous,2022.1.1,36.311361206170105,
16,0,16,0,10,0,10,0,,,,,,,,1.602040745114007,both,0,76,[],0.0027774665504693985,None,['space'],741.8050410000142,741.8050410000142,0.2051753664854914,1.8072161115994985,742.0169389999937,741.8050410000142,7109.0,0.8733507091424872,0.00017087648177085252,,,[-1.190079899970442],,,,,,erfnpg,001,fr,0,2022-05-10_15h18.09.142,Continuous,2022.1.1,36.311361206170105,
17,0,17,0,0,0,0,0,,,,,"[0.16666666666666666, 0.16666666666666666, 0.5833333333333334, 0.3333333333333333, 0.16666666666666666, 0.5833333333333334, 0.3333333333333333, 0.16666666666666666, 0.5833333333333334, 0.16666666666666666, 0.16666666666666666, 0.3333333333333333, 0.16666666666666666, 0.16666666666666666, 0.16666666666666666]",746.0097602999303,None,1.0296134719803243,none,0,64,[],0.012865666765719652,None,['space'],747.058546199929,None,0.2091985666193068,1.238812038599631,747.2635937000159,None,630.0,2.1552277503036428,6.557395704434299e-05,743.6241433999967,None,[-1.7559061998035759],,,,,,erfnpg,001,fr,0,2022-05-10_15h18.09.142,Continuous,2022.1.1,36.311361206170105,
17,0,17,0,1,0,1,0,,,,,,,,1.7419750657277902,none,0,65,[],0.015848433366045356,None,['space'],748.3016951999161,748.3016951999161,0.21080843335948884,1.952783499087279,748.5166018998716,748.3016951999161,1889.0,3.051548032803488,9.918169044417563e-05,,,[-0.23089669994078577],,,,,,erfnpg,001,fr,0,2022-05-10_15h18.09.142,Continuous,2022.1.1,36.311361206170105,
17,0,17,0,2,0,2,0,,,,,,,,1.2104675348963898,none,0,66,[],0.0009794665966182947,0.2012614666018635,None,750.2652823000681,750.2652823000681,0.2012614666018635,1.4117290014982533,750.4781696000136,750.2652823000681,297.0,2.6652618986833883,0.00015995745886455956,,,,,,,,,erfnpg,001,fr,0,2022-05-10_15h18.09.142,Continuous,2022.1.1,36.311361206170105,
17,0,17,0,3,0,3,0,,,,,,,,2.604601151944849,none,0,67,[],0.016394133446738124,None,None,751.6895459999796,751.6895459999796,0.2161620333790779,2.820763185323927,751.9083199999295,751.6895459999796,445.0,2.6138199435048226,0.0001003267657985151,,,,,,,,,erfnpg,001,fr,0,2022-05-10_15h18.09.142,Continuous,2022.1.1,36.311361206170105,
17,0,17,0,4,0,4,0,,,,,,,,2.8637407714979286,none,0,68,[],0.0029407665133476257,None,None,754.5172488999087,754.5172488999087,0.20948216668330133,3.07322293818123,754.72614839999,754.5172488999087,140.0,1.9584867331305875,0.0007381941462194665,,,,,,,,,erfnpg,001,fr,0,2022-05-10_15h18.09.142,Continuous,2022.1.1,36.311361206170105,
17,0,17,0,5,0,5,0,,,,,,,,2.8762588702133396,none,0,69,[],0.015739033464342356,None,None,757.589911499992,757.589911499992,0.24095543357543647,3.117214303788776,757.8219564999454,757.589911499992,125.0,3.0,0.001020868972334765,,,,,,,,,erfnpg,001,fr,0,2022-05-10_15h18.09.142,Continuous,2022.1.1,36.311361206170105,
17,0,17,0,6,0,6,0,,,,,,,,2.2435767463757523,none,0,70,[],0.012106533627957106,None,None,760.705208899919,760.705208899919,0.20790833374485373,2.451485080120606,760.9196253998671,760.705208899919,265.0,2.5562397511485897,0.00020346376735198084,,,,,,,,,erfnpg,001,fr,0,2022-05-10_15h18.09.142,Continuous,2022.1.1,36.311361206170105,
17,0,17,0,7,0,7,0,,,,,,,,2.476794225516982,none,0,71,[],0.011609933339059353,None,None,763.1741198999807,763.1741198999807,0.2342071335297078,2.7110013590466897,763.41194609995,763.1741198999807,944.0,-1.2530440607975344,3.6756671485330696e-05,,,,,,,,,erfnpg,001,fr,0,2022-05-10_15h18.09.142,Continuous,2022.1.1,36.311361206170105,
17,0,17,0,8,0,8,0,,,,,,,,1.4685994236834514,none,1,71,[],0.01534283347427845,None,['space'],765.8836974999867,765.8836974999867,0.2538426334504038,1.7224420571338552,766.1292637998704,765.8836974999867,,,,,,[-1.939710899721831],,,,,,erfnpg,001,fr,0,2022-05-10_15h18.09.142,Continuous,2022.1.1,36.311361206170105,
17,0,17,0,9,0,9,0,,,,,,,,1.8367192384665825,none,0,72,[],0.0010800666641443968,None,['space'],767.6000012999866,767.6000012999866,0.20126396673731506,2.0379832052038975,767.8182985999156,767.6000012999866,210.0,2.3414696542148294,0.0003219172606683083,,,[-1.4173353998921812],,,,,,erfnpg,001,fr,0,2022-05-10_15h18.09.142,Continuous,2022.1.1,36.311361206170105,
17,0,17,0,10,0,10,0,,,,,,,,2.127661079810899,none,0,73,[],0.0019680664408951998,None,['space'],769.6673170998693,769.6673170998693,0.20218386640772223,2.3298449462186213,769.8832248998806,769.6673170998693,1683.0,2.9675471346457307,8.513735589947117e-05,,,[-1.2753440998494625],,,,,,erfnpg,001,fr,0,2022-05-10_15h18.09.142,Continuous,2022.1.1,36.311361206170105,
17,0,17,0,11,0,11,0,,,,,,,,1.5668173728621062,none,0,74,[],0.002486966550350189,None,['space'],772.0200710999779,772.0200710999779,0.20539416652172804,1.7722115393838342,772.235728800064,772.0200710999779,1499.0,2.7249165752214544,6.613616316276831e-05,,,[-1.7085787998512387],,,,,,erfnpg,001,fr,0,2022-05-10_15h18.09.142,Continuous,2022.1.1,36.311361206170105,
17,0,17,0,12,0,12,0,,,,,,,,2.6946827445169226,none,0,75,[],0.014545133337378502,None,None,773.8068587000016,773.8068587000016,0.20930323330685496,2.9039859778237775,774.025155399926,773.8068587000016,561.0,2.115849742434408,7.901040301514637e-05,,,,,,,,,erfnpg,001,fr,0,2022-05-10_15h18.09.142,Continuous,2022.1.1,36.311361206170105,
17,0,17,0,13,0,13,0,,,,,,,,2.4537173935295264,none,0,76,[],0.01638733339495957,None,['space'],776.7250264999457,776.7250264999457,0.21516093332320452,2.668878326852731,776.9449080000632,776.7250264999457,1190.0,2.618977476134599,7.029895240406128e-05,,,[-1.6294531996827573],,,,,,erfnpg,001,fr,0,2022-05-10_15h18.09.142,Continuous,2022.1.1,36.311361206170105,
17,0,17,0,14,0,14,0,,,,,,,,1.1423486925965167,none,0,77,[],0.01355483359657228,None,['space'],779.4049452999607,779.4049452999607,0.2102181336376816,1.3525668262341983,779.6197307999246,779.4049452999607,2120.0,3.12305659247047,0.00011099330612169733,,,[-2.085000599967316],,,,,,erfnpg,001,fr,0,2022-05-10_15h18.09.142,Continuous,2022.1.1,36.311361206170105,
18,0,18,0,0,0,0,0,,,,,"[0.5833333333333334, 0.5833333333333334, 0.5833333333333334, 0.16666666666666666, 0.16666666666666666, 0.3333333333333333, 0.3333333333333333, 0.16666666666666666, 0.5833333333333334, 0.5833333333333334, 0.3333333333333333, 0.3333333333333333, 0.16666666666666666, 0.3333333333333333, 0.16666666666666666]",785.609901699936,None,1.6321163721204992,none,0,78,[],0.013122266624122858,None,None,786.650040899869,None,0.23041056655347347,1.8625269386739727,786.8682218000758,None,3776.0,-2.8453247613056036,5.765906827193843e-05,780.7710828999989,None,,,,,,,erfnpg,001,fr,0,2022-05-10_15h18.09.142,Continuous,2022.1.1,36.311361206170105,
18,0,18,0,1,0,1,0,,,,,,,,1.832704391905385,none,0,79,[],0.0018374663777649403,None,['space'],788.5037584998645,788.5037584998645,0.20390536659397185,2.036609758499357,788.7094087000005,788.5037584998645,5657.0,1.0,0.0001441999170426954,,,[-1.3286236999556422],,,,,,erfnpg,001,fr,0,2022-05-10_15h18.09.142,Continuous,2022.1.1,36.311361206170105,
18,0,18,0,2,0,2,0,,,,,,,,2.080165753862818,none,0,80,[],0.011578133562579751,None,['space'],790.5525183000136,790.5525183000136,0.20707753347232938,2.2872432873351474,790.7666412000544,790.5525183000136,1888.0,1.7881556541104746,8.570000623164412e-05,,,[-1.5694919999223202],,,,,,erfnpg,001,fr,0,2022-05-10_15h18.09.142,Continuous,2022.1.1,36.311361206170105,
18,0,18,0,3,0,3,0,,,,,,,,2.0365405675178083,none,0,81,[],0.00233246642164886,None,None,792.8585637998767,792.8585637998767,0.20570506644435227,2.2422456339621606,793.073881899938,792.8585637998767,750.0,0.3612701363416755,4.236756565685993e-05,,,,,,,,,erfnpg,001,fr,0,2022-05-10_15h18.09.142,Continuous,2022.1.1,36.311361206170105,
18,0,18,0,4,0,4,0,,,,,,,,2.1020233182657124,none,0,82,[],0.01543023344129324,None,['space'],795.1128078999463,795.1128078999463,0.21709773340262473,2.319121051668337,795.3277898998931,795.1128078999463,2670.0,1.9756891993725287,9.457117921769042e-05,,,[-1.4567883999552578],,,,,,erfnpg,001,fr,0,2022-05-10_15h18.09.142,Continuous,2022.1.1,36.311361206170105,
18,0,18,0,5,0,5,0,,,,,,,,1.2084932016938794,none,1,82,[],0.015140933450311422,None,['space'],797.439309899928,797.439309899928,0.24386513326317072,1.4523583349570501,797.6779902998824,797.439309899928,,,,,,[-1.6877474999055266],,,,,,erfnpg,001,fr,0,2022-05-10_15h18.09.142,Continuous,2022.1.1,36.311361206170105,
18,0,18,0,6,0,6,0,,,,,,,,2.481478315199392,none,0,83,[],0.015621833503246307,None,None,798.8847489999607,798.8847489999607,0.209516933420673,2.690995248620065,799.1024352998938,798.8847489999607,2119.0,2.105082018604933,9.869014230850178e-05,,,,,,,,,erfnpg,001,fr,0,2022-05-10_15h18.09.142,Continuous,2022.1.1,36.311361206170105,
18,0,18,0,7,0,7,0,,,,,,,,2.0863840614120477,none,0,84,[],0.006768733495846391,0.20125263347290456,"['space', 'space']",801.5974661000073,801.5974661000073,0.20125263347290456,2.2876366948849522,801.8074441000354,801.5974661000073,1682.0,1.5912774597293482,7.260765590810542e-05,,,"[-2.1177236998919398, -0.5499318998772651]",,,,,,erfnpg,001,fr,0,2022-05-10_15h18.09.142,Continuous,2022.1.1,36.311361206170105,
18,0,18,0,8,0,8,0,,,,,,,,2.735108594596616,none,0,85,[],0.016337833600118756,None,None,803.9032950999681,803.9032950999681,0.2168297334574163,2.951938328054032,804.1197063000873,803.9032950999681,1123.0,-0.03176737467948115,4.901757701197624e-05,,,,,,,,,erfnpg,001,fr,0,2022-05-10_15h18.09.142,Continuous,2022.1.1,36.311361206170105,
18,0,18,0,9,0,9,0,,,,,,,,2.143248892818595,none,0,86,['none'],0.01529063330963254,None,None,806.8602758999914,806.8602758999914,0.20938763348385692,2.352636526302452,807.0743136999663,806.8602758999914,3364.0,-0.4936259050191123,6.875521445883623e-05,,,,,"{'estimation': [[125.0, 5.607015051098065], [133.9716828170366, 5.515845107375732], [143.5872943746293, 5.396079408830193], [153.89305166811442, 5.306613164087485], [164.93848884661162, 5.293023701616889], [176.77669529663666, 5.36807357874072], [189.46457081379947, 5.499915658002461], [203.0630990890585, 5.614854375695853], [217.63764082403074, 5.614710002377796], [233.25824788420132, 5.407825125780166], [247.62523430663344, 5.0], [249.99999999999937, 4.938547818555522], [267.94336563407256, 4.236143540506399], [272.9810321766125, 4.0], [287.1745887492579, 3.383134417470059], [296.2064440561884, 3.0], [307.78610333622805, 2.5256480661041563], [324.0711937376499, 2.0], [329.87697769322244, 1.8128489757228068], [353.55339059327247, 1.3509684832256932], [378.929141627598, 1.1497914768996047], [406.12619817811606, 1.1386276303892284], [435.2752816480601, 1.1846682612093398], [466.5164957684015, 1.1470121451176722], [489.1093845055634, 1.0], [499.9999999999975, 0.9328073584334973], [535.8867312681438, 0.5430165990561919], [574.3491774985143, 0.058005249933061], [579.438829514573, 0.0], [615.5722066724546, -0.3985180208753974], [659.7539553864432, -0.6895974763923866], [707.1067811865431, -0.7580658948596977], [757.8582832551941, -0.6261667349204431], [812.2523963562301, -0.3979600886404511], [870.5505632961192, -0.2161481758856834], [933.0329915368008, -0.20973080367647162], [999.9999999999939, -0.4380125518307452], [1071.773462536285, -0.8659808101621947], [1091.6854630331934, -1.0], [1148.698354997026, -1.3811590522414345], [1231.1444133449063, -1.8042879199309856], [1319.5079107728832, -1.9964144257864036], [1414.2135623730828, -1.8720794902227957], [1515.7165665103864, -1.4502122675695603], [1593.0580064682922, -1.0], [1624.5047927124563, -0.825124470625995], [1741.1011265922318, -0.17377818981776463], [1780.937244359738, 0.0], [1866.065983073597, 0.3554231203126478], [1999.9999999999802, 0.6420740028876024], [2143.5469250725646, 0.6659248923224128], [2297.396709994046, 0.4828737798395111], [2462.2888266898062, 0.20707089188524241], [2611.320164966033, 0.0], [2639.01582154576, -0.037714339076939184], [2828.427124746159, -0.14752534709583473], [3031.4331330207615, -0.07483849953238148], [3100.6654954882033, 0.0], [3249.0095854249043, 0.16215336340417053], [3482.2022531844555, 0.49565805716835964], [3732.1319661471844, 0.8467524826155465], [3867.6719834313753, 1.0], [3999.9999999999504, 1.1446402597458807], [4287.093850145118, 1.3343877275328775], [4594.793419988081, 1.397854884886382], [4924.577653379601, 1.3388850171329776], [5278.031643091506, 1.1700498713207055], [5517.965154504247, 1.0], [5656.854249492303, 0.9039186275120827], [6062.866266041516, 0.5586037869770895], [6498.019170849792, 0.14220192451181823], [6632.33782450824, 0.0], [6964.404506368894, -0.32600095468192614], [7464.2639322943505, -0.8050126632011789], [7698.328394529174, -1.0], [7999.999999999882, -1.2556228193193557]], 'plus_line': [[124.99999999999991, 2.353775264859188], [133.9716828170366, 2.4681060681324167], [143.5872943746293, 2.3837863439307285], [153.89305166811442, 2.228541677142779], [164.93848884661162, 2.105401338226392], [176.77669529663666, 2.0643230931404863], [189.46457081379947, 2.106364723309734], [203.0630990890585, 2.191695062032924], [217.6376408240306, 2.247534201383415], [233.25824788420132, 2.1831619146871235], [244.41414271848146, 2.0], [249.99999999999937, 1.906295915307864], [267.94336563407256, 1.3599507927817722], [276.82246430184296, 1.0], [287.1745887492579, 0.5885051121293886], [301.06989783457567, 0.0], [307.78610333622805, -0.28564369887816454], [327.90131632500123, -1.0], [329.87697769322244, -1.0733310003585235], [353.55339059327247, -1.645071345886554], [378.929141627598, -1.8880933813607037], [406.12619817811606, -1.8940419247732245], [435.2752816480601, -1.8024785885464496], [466.5164957684015, -1.7722656693318561], [499.9999999999975, -1.9181797933224651], [508.0653463889002, -2.0], [535.8867312681438, -2.3012845297539766], [574.3491774985143, -2.796795863539203], [591.9496391067953, -3.0], [615.5722066724546, -3.2935747128835606], [659.7539553864432, -3.6111015186577973], [707.1067811865431, -3.6633928167902416], [757.8582832551941, -3.4766130896455927], [812.2523963562301, -3.1519951183673767], [842.2600418517782, -3.0], [870.5505632961181, -2.88314599480493], [933.0329915368008, -2.836447639274555], [979.7144397051553, -3.0], [999.9999999999926, -3.080336328634128], [1071.773462536285, -3.603340984041623], [1122.1573270433405, -4.0], [1148.6983549970246, -4.229308331440529], [1231.1444133449063, -4.771710735522231], [1308.911576072842, -5.0], [1319.5079107728832, -5.035819503148151], [1351.567439284961, -5.0], [1414.2135623730828, -4.941929903362553], [1515.7165665103846, -4.520869412887775], [1598.996688648515, -4.0], [1624.5047927124563, -3.8562058312644294], [1741.1011265922318, -3.1878824564942567], [1782.7301379089085, -3.0], [1866.065983073597, -2.669644983448841], [1999.9999999999802, -2.4060111980082173], [2143.5469250725646, -2.4001438620542066], [2297.396709994046, -2.579261462793232], [2462.2888266898062, -2.8208198266756233], [2612.5397955278518, -3.0], [2639.01582154576, -3.034963643661019], [2828.427124746159, -3.183928977494972], [3031.4331330207656, -3.2173794154027604], [3249.0095854249043, -3.126587379917205], [3383.119862842945, -3.0], [3482.2022531844555, -2.917115179863471], [3732.1319661471844, -2.6313313570142753], [3999.9999999999504, -2.3059559251016353], [4287.093850145118, -2.026969643381614], [4350.103416224213, -2.0], [4594.793419988081, -1.9125041189594687], [4924.577653379601, -1.9825146529529678], [4951.432540883609, -2.0], [5278.031643091506, -2.230600869994162], [5656.854249492303, -2.554930842681257], [6062.866266041508, -2.8843349636915896], [6211.225487755703, -3.0], [6498.019170849792, -3.230160648124439], [6964.404506368894, -3.6038478530355547], [7385.755307506994, -4.0], [7464.26393229436, -4.078022931952137], [7999.999999999882, -4.748447337146575]], 'minus_line': [[125.0, 9.022053643195262], [125.52321102785005, 9.0], [133.97168281703668, 8.714914077733283], [143.5872943746293, 8.546275518595467], [153.89305166811442, 8.51355277949931], [164.93848884661162, 8.605509283559297], [176.77669529663666, 8.791714004865595], [189.06047373466825, 9.0], [189.46457081379947, 9.007700112933179], [203.0630990890585, 9.16884907571206], [217.6376408240306, 9.112103807081747], [222.05929396854663, 9.0], [233.25824788420132, 8.762832674340974], [249.99999999999937, 8.086141086178829], [251.54840648496145, 8.0], [267.94336563407256, 7.190484639622397], [271.4637123586924, 7.0], [287.1745887492579, 6.219821494937985], [292.1337711725196, 6.0], [307.78610333622805, 5.355617041988791], [319.4206967410814, 5.0], [329.87697769322244, 4.7042038100608], [353.55339059327247, 4.328643606089986], [378.929141627598, 4.178238723005283], [406.12619817811606, 4.174275904818409], [435.2752816480601, 4.179230122770992], [466.5164957684015, 4.060620118026576], [472.6681482746227, 4.0], [499.9999999999975, 3.778521470424725], [535.8867312681438, 3.3397525788784206], [559.8022278645018, 3.0], [574.3491774985143, 2.818233227053317], [615.5722066724546, 2.3811562733937484], [659.7539553864432, 2.0859389071812977], [707.1067811865431, 2.00861408956487], [757.8582832551941, 2.1279247196264057], [812.2523963562301, 2.3263456409729977], [870.5505632961181, 2.4653429607643877], [933.0329915368008, 2.440866907609687], [999.9999999999926, 2.2023824813075743], [1033.448891306501, 2.0], [1071.773462536285, 1.7988845976330161], [1148.698354997026, 1.3529608270765427], [1222.2559939014343, 1.0], [1231.1444133449063, 0.961815467357134], [1319.5079107728832, 0.8101826324507845], [1414.2135623730828, 0.933003981582148], [1430.4944190722588, 1.0], [1515.7165665103846, 1.3630625066753908], [1624.5047927124563, 1.958167888944078], [1631.7100263644916, 2.0], [1741.1011265922318, 2.640231051476194], [1823.1622660862486, 3.0], [1866.065983073597, 3.1995331511584872], [1999.9999999999777, 3.53408448108392], [2143.5469250725646, 3.5822409494685683], [2297.396709994046, 3.395245442188138], [2462.2888266898062, 3.077256008906505], [2510.4866386375184, 3.0], [2639.0158215457564, 2.824857711962196], [2828.427124746159, 2.773018266238447], [3031.4331330207615, 2.9763373453678885], [3044.092560914887, 3.0], [3249.0095854249043, 3.42658219345061], [3482.2022531844555, 3.9258617407108254], [3524.4176560470632, 4.0], [3732.1319661471844, 4.391573748927485], [3999.9999999999504, 4.686716470298361], [4287.093850145118, 4.817596756832928], [4594.793419988081, 4.8403575383178294], [4924.577653379601, 4.805467137763259], [5278.031643091506, 4.713627899142223], [5656.854249492303, 4.517682397295768], [6062.866266041508, 4.159042269682338], [6189.74246603896, 4.0], [6498.019170849792, 3.6630618530296326], [6964.404506368894, 3.076781524050166], [7034.271326296895, 3.0], [7464.2639322943505, 2.5855387471067655], [7999.999999999882, 2.3173147356253363]]}",,,,erfnpg,001,fr,0,2022-05-10_15h18.09.142,Continuous,2022.1.1,36.311361206170105,
19,0,19,0,0,0,0,0,,,,,"[0.5833333333333334, 0.3333333333333333, 0.5833333333333334, 0.16666666666666666, 0.16666666666666666, 0.3333333333333333, 0.3333333333333333, 0.16666666666666666, 0.3333333333333333, 0.5833333333333334, 0.16666666666666666, 0.5833333333333334, 0.5833333333333334, 0.5833333333333334, 0.3333333333333333]",813.4917148000095,None,1.1593248038151327,time,0,77,['none'],0.013104366604238749,None,None,814.5112910000607,None,0.22446966660209,1.3837944704172227,814.7251126000192,None,2701.0,0.1456221383691616,7.464570298228695e-05,809.2292684998829,None,,,,,,,erfnpg,001,fr,0,2022-05-10_15h18.09.142,Continuous,2022.1.1,36.311361206170105,
19,0,19,0,1,0,1,0,,,,,,,,1.1593248038151327,time,0,78,['none'],0.013417533598840237,None,None,815.8859190999065,815.8859190999065,0.20908293360844254,1.3684077374235752,816.0997842999641,815.8859190999065,3403.0,-0.34414715001538276,7.060670408522316e-05,,,,,,,,,erfnpg,001,fr,0,2022-05-10_15h18.09.142,Continuous,2022.1.1,36.311361206170105,
19,0,19,0,2,0,2,0,,,,,,,,1.1593248038151327,time,0,79,['none'],0.016559433192014694,None,['space'],817.2673875000328,817.2673875000328,0.21925293328240514,1.3785777370975378,817.4865369999316,817.2673875000328,2406.0,1.9514593501248496,0.00010492466588221762,,,[-0.6845381997991353],,,,,,erfnpg,001,fr,0,2022-05-10_15h18.09.142,Continuous,2022.1.1,36.311361206170105,
19,0,19,0,3,0,3,0,,,,,,,,1.1593248038151327,time,0,80,['none'],0.014376333449035883,None,None,818.6438623999711,818.6438623999711,0.2110283332876861,1.3703531371028188,818.8572217000183,818.6438623999711,4287.0,-3.4345390701444733,6.982313931381512e-05,,,,,,,,,erfnpg,001,fr,0,2022-05-10_15h18.09.142,Continuous,2022.1.1,36.311361206170105,
19,0,19,0,4,0,4,0,,,,,,,,1.1593248038151327,time,1,80,['none'],0.014719833387061954,None,['space'],820.0255750999786,820.0255750999786,0.2090597334317863,1.368384537246919,820.2412483000662,820.0255750999786,,,,,,[-0.7056954998988658],,,,,,erfnpg,001,fr,0,2022-05-10_15h18.09.142,Continuous,2022.1.1,36.311361206170105,
19,0,19,0,5,0,5,0,,,,,,,,1.1593248038151327,time,0,81,['none'],0.000847366638481617,None,None,821.4069377998821,821.4069377998821,0.20180576667189598,1.3611305704870287,821.620866500074,821.4069377998821,2144.0,1.2485254404900732,9.006217326745104e-05,,,,,,,,,erfnpg,001,fr,0,2022-05-10_15h18.09.142,Continuous,2022.1.1,36.311361206170105,
19,0,19,0,6,0,6,0,,,,,,,,1.1593248038151327,time,0,82,['none'],0.009750733384862542,None,['space'],822.7886659000069,822.7886659000069,0.2065065335482359,1.3658313373633686,823.0071918999311,822.7886659000069,1431.0,1.152890937051645,5.711496620040479e-05,,,[-0.6054789999034256],,,,,,erfnpg,001,fr,0,2022-05-10_15h18.09.142,Continuous,2022.1.1,36.311361206170105,
19,0,19,0,7,0,7,0,,,,,,,,1.1593248038151327,time,0,83,['none'],0.013394733658060431,None,None,824.1763907000422,824.1763907000422,0.2388558336533606,1.3981806374684933,824.4103240999393,824.1763907000422,1136.0,-0.236705595860138,4.840370918367635e-05,,,,,,,,,erfnpg,001,fr,0,2022-05-10_15h18.09.142,Continuous,2022.1.1,36.311361206170105,
19,0,19,0,8,0,8,0,,,,,,,,1.1593248038151327,time,0,84,['none'],0.0004437665920704603,None,None,825.5758598998655,825.5758598998655,0.2030165665782988,1.3623413703934315,825.7949663999025,825.5758598998655,6063.0,0.0,0.00011883876408699022,,,,,,,,,erfnpg,001,fr,0,2022-05-10_15h18.09.142,Continuous,2022.1.1,36.311361206170105,
19,0,19,0,9,0,9,0,,,,,,,,1.1593248038151327,time,0,85,['none'],0.0009463669266551733,None,['space'],826.9618959999643,826.9618959999643,0.205510466825217,1.3648352706403497,827.1706671998836,826.9618959999643,4812.0,-4.666925296607619,8.169466472777255e-05,,,[-0.7790617998689413],,,,,,erfnpg,001,fr,0,2022-05-10_15h18.09.142,Continuous,2022.1.1,36.311361206170105,
20,0,20,0,0,0,0,0,,,,,,874.336643199902,None,1.3098053947311838,frequency,0,52,['none'],0.012437166646122932,None,None,875.3831607999746,None,0.23257336672395468,1.5423787614551385,875.6002891000826,None,1481.0,2.8989652945365316,6.809870914768342e-05,828.3320132999215,None,,0.16666666666666666,,,,,erfnpg,001,fr,0,2022-05-10_15h18.09.142,Continuous,2022.1.1,36.311361206170105,
20,0,20,0,1,0,1,0,,,,,,,,1.6867143182002704,frequency,0,53,['none'],0.01576613332144916,None,None,876.9150439999066,876.9150439999066,0.21715113334357738,1.9038654515438478,877.1327082000207,876.9150439999066,1662.0,4.001379477852831,9.43954329107767e-05,,,,,,,,,erfnpg,001,fr,0,2022-05-10_15h18.09.142,Continuous,2022.1.1,36.311361206170105,
20,0,20,0,2,0,2,0,,,,,,,,2.6029911213371832,frequency,0,54,['none'],0.009768333518877625,0.20355243352241814,None,878.8314441998955,878.8314441998955,0.20355243352241814,2.8065435548596014,879.0394995999523,878.8314441998955,1866.0,3.427354167614223,0.00010202616842156908,,,,,,,,,erfnpg,001,fr,0,2022-05-10_15h18.09.142,Continuous,2022.1.1,36.311361206170105,
20,0,20,0,3,0,3,0,,,,,,,,1.3448738949741714,frequency,0,55,['none'],0.012965733418241143,None,None,881.6532481999602,881.6532481999602,0.23488783347420394,1.5797617284483754,881.8870013998821,881.6532481999602,2095.0,3.864781580498315,0.00012002320517528292,,,,,,,,,erfnpg,001,fr,0,2022-05-10_15h18.09.142,Continuous,2022.1.1,36.311361206170105,
20,0,20,0,4,0,4,0,,,,,,,,1.2895917538235686,frequency,1,55,['none'],0.013828633585944772,None,['space'],883.2295240000822,883.2295240000822,0.20640383358113468,1.4959955874047033,883.4421016999986,883.2295240000822,,,,,,[-0.9500048998743296],,,,,,erfnpg,001,fr,0,2022-05-10_15h18.09.142,Continuous,2022.1.1,36.311361206170105,
20,0,20,0,5,0,5,0,,,,,,,,2.504511350286619,frequency,0,56,['none'],0.01432353351265192,None,None,884.7414587000385,884.7414587000385,0.23914543353021145,2.7436567838168306,884.9757705999073,884.7414587000385,2639.0,4.227814387358898,0.00012569893356111645,,,,,,,,,erfnpg,001,fr,0,2022-05-10_15h18.09.142,Continuous,2022.1.1,36.311361206170105,
20,0,20,0,6,0,6,0,,,,,,,,1.9134100530854576,frequency,0,57,['none'],0.013795333681628108,None,['space'],887.4784272999968,887.4784272999968,0.23655623360536993,2.1499662866908276,887.7122809998691,887.4784272999968,2962.0,1.2264636857745206,6.585790727572553e-05,,,[-2.1600073997396976],,,,,,erfnpg,001,fr,0,2022-05-10_15h18.09.142,Continuous,2022.1.1,36.311361206170105,
20,0,20,0,7,0,7,0,,,,,,,,2.4520112706834505,frequency,0,58,['none'],0.0076437334064394236,None,['space'],889.6370882000774,889.6370882000774,0.2184602334164083,2.670471504099859,889.8604409000836,889.6370882000774,3325.0,-0.8564104942276434,6.532232246150793e-05,,,[-1.5975795998238027],,,,,,erfnpg,001,fr,0,2022-05-10_15h18.09.142,Continuous,2022.1.1,36.311361206170105,
20,0,20,0,8,0,8,0,,,,,,,,2.879034884228214,frequency,0,59,['none'],0.013088733423501253,None,None,892.3147775998805,892.3147775998805,0.2084170333109796,3.0874519175391937,892.5305097000673,892.3147775998805,3732.0,5.0,0.0001409032160949318,,,,,,,,,erfnpg,001,fr,0,2022-05-10_15h18.09.142,Continuous,2022.1.1,36.311361206170105,
20,0,20,0,9,0,9,0,,,,,,,,2.0806544538836165,frequency,0,60,['none'],0.013127833371981978,None,['space'],895.4229790999088,895.4229790999088,0.2355065334122628,2.3161609872958793,895.6509388999548,895.4229790999088,4189.0,-3.6708575001897774,6.353021622489417e-05,,,[-2.5364176998846233],,,,,,erfnpg,001,fr,0,2022-05-10_15h18.09.142,Continuous,2022.1.1,36.311361206170105,
20,0,20,0,10,0,10,0,,,,,,,,2.0944346917331087,frequency,0,61,['none'],0.012376433238387108,0.20739013329148293,['space'],897.7377383999992,897.7377383999992,0.20739013329148293,2.3018248250245916,897.9523666999303,897.7377383999992,4702.0,3.47860157377462,0.00019737820496542612,,,[-1.8903800998814404],,,,,,erfnpg,001,fr,0,2022-05-10_15h18.09.142,Continuous,2022.1.1,36.311361206170105,
20,0,20,0,11,0,11,0,,,,,,,,1.5260492328647022,frequency,0,62,['none'],0.011138933477923274,None,['space'],900.0605345000513,900.0605345000513,0.23253183346241713,1.7585810663271193,900.2931862999685,900.0605345000513,5278.0,0.8000065456107146,0.00015624216188579802,,,[-1.87709159986116],,,,,,erfnpg,001,fr,0,2022-05-10_15h18.09.142,Continuous,2022.1.1,36.311361206170105,
20,0,20,0,12,0,12,0,,,,,,,,1.9935179064044244,frequency,0,63,['none'],0.01222733361646533,None,['space'],901.8184924998786,901.8184924998786,0.2339530335739255,2.2274709399783497,902.050556199858,901.8184924998786,5924.0,-4.410987525824003,7.141675355309757e-05,,,[-1.284056699834764],,,,,,erfnpg,001,fr,0,2022-05-10_15h18.09.142,Continuous,2022.1.1,36.311361206170105,
20,0,20,0,13,0,13,0,,,,,,,,2.3502554013566,frequency,0,64,['none'],0.012802233686670661,None,None,904.0456850000191,904.0456850000191,0.2345795335713774,2.5848349349279776,904.2769865000155,904.0456850000191,6649.0,3.582700471850666,0.0002123636520889783,,,,,,,,,erfnpg,001,fr,0,2022-05-10_15h18.09.142,Continuous,2022.1.1,36.311361206170105,
20,0,20,0,14,0,14,0,,,,,,,,1.227232506896715,frequency,0,65,['none'],0.012446933658793569,None,['space'],906.6303135000635,906.6303135000635,0.20822683349251747,1.4354593403892324,906.8497311000247,906.6303135000635,7463.0,2.4893589443128494,0.00022010963567035903,,,[-2.0944480998441577],,,,,,erfnpg,001,fr,0,2022-05-10_15h18.09.142,Continuous,2022.1.1,36.311361206170105,
