practice.thisRepN,practice.thisTrialN,practice.thisN,practice.thisIndex,trials.thisRepN,trials.thisTrialN,trials.thisN,trials.thisIndex,blank_txt.started,blank_txt.stopped,practice_frequency,practice_level,psychopy_volume,tProbe.started,tProbe.stopped,tFeedback.keys,tFeedback.corr,tFeedback.rt,tFeedback.started,tFeedback.stopped,tToo_early.keys,tToo_early.corr,tToo_early.started,tToo_early.stopped,tToo_late.keys,tToo_late.corr,tToo_late.started,tToo_late.stopped,you_done_goofed.started,you_done_goofed.stopped,Init_phase,Frequency,Level,Psychopy_Volume,Catch trial,probe.started,probe.stopped,feedback.keys,feedback.corr,feedback.rt,feedback.started,feedback.stopped,too_late.keys,too_late.corr,too_late.started,too_late.stopped,too_late.rt,Audiogram,participant,session,Language (english or french),Tone duration (ms),date,expName,psychopyVersion,frameRate,
0,0,0,0,,,,,34.701027899980545,None,567,40,0.006099267302654233,1.0169437668519095,None,['space'],1,[0.25644490006379783],36.70801900001243,37.710739100002684,None,1,35.69405910000205,36.70801900001243,None,1,37.710739100002684,None,38.75631840003189,None,,,,,,,,,,,,,,,,,,,cbtxie,001,fr,200,2022-05-05_15h42.23.151,Bayesian,2022.1.1,None,
1,0,1,0,,,,,,,234,40,0.019882976039061955,1.018023866810836,None,['space'],1,[0.3322163999546319],45.54404150007758,46.55016920005437,None,1,44.54272100003436,45.54404150007758,None,1,46.55016920005437,None,47.57232759997714,None,,,,,,,,,,,,,,,,,,,cbtxie,001,fr,200,2022-05-05_15h42.23.151,Bayesian,2022.1.1,None,
2,0,2,0,,,,,,,2345,40,0.008245949202640053,1.0218211667379364,None,['space'],1,[0.2561015000101179],49.58816350006964,50.58482860005461,None,1,48.58098850003444,49.58816350006964,None,1,50.58482860005461,None,51.61477129999548,None,,,,,,,,,,,,,,,,,,,cbtxie,001,fr,200,2022-05-05_15h42.23.151,Bayesian,2022.1.1,None,
,,,,0,0,0,0,56.071631200029515,None,,,,,,,,,,,,,,,,,,,,,"{'x': [], 'y': [], 'is_init_phase': True, 'is_exam_finished': False, 'threshold_uncertainty_db': 6}",1000,60,0.0440524436504007,False,0.012772900052368641,None,['space'],1,[0.2167891999706626],57.1470902999863,58.15736559999641,None,1,58.15736559999641,None,,,cbtxie,001,fr,200,2022-05-05_15h42.23.151,Bayesian,2022.1.1,None,
,,,,1,0,1,0,,,,,,,,,,,,,,,,,,,,,,,"{'x': [[1000, 60]], 'y': [[1]], 'audiogram': {}, 'is_init_phase': True, 'is_exam_finished': False, 'threshold_uncertainty_db': 6}",1000,40,0.004405244365040069,False,0.004459333373233676,None,['space'],1,[0.20442480000201613],60.343694300041534,61.34970979997888,None,1,61.34970979997888,60.343694300041534,,,cbtxie,001,fr,200,2022-05-05_15h42.23.151,Bayesian,2022.1.1,None,
,,,,2,0,2,0,,,,,,,,,,,,,,,,,,,,,,,"{'x': [[1000, 60], [1000, 40]], 'y': [[1], [1]], 'audiogram': {}, 'is_init_phase': True, 'is_exam_finished': False, 'threshold_uncertainty_db': 6}",1000,20,0.0004405244365040069,False,0.01537299994379282,None,['space'],1,[0.2344457000726834],62.64909229998011,63.66064130002633,None,1,63.66064130002633,62.64909229998011,,,cbtxie,001,fr,200,2022-05-05_15h42.23.151,Bayesian,2022.1.1,None,
,,,,3,0,3,0,,,,,,,,,,,,,,,,,,,,,,,"{'x': [[1000, 60], [1000, 40], [1000, 20]], 'y': [[1], [1], [1]], 'audiogram': {}, 'is_init_phase': True, 'is_exam_finished': False, 'threshold_uncertainty_db': 6}",,,,True,0.01344603335019201,None,['space'],1,[0.5323649999918416],65.13584340002853,66.16247360000852,None,1,66.16247360000852,65.13584340002853,,,cbtxie,001,fr,200,2022-05-05_15h42.23.151,Bayesian,2022.1.1,None,
,,,,4,0,4,0,,,,,,,,,,,,,,,,,,,,,,,"{'x': [[1000, 60], [1000, 40], [1000, 20]], 'y': [[1], [1], [1]], 'audiogram': {}, 'is_init_phase': True, 'is_exam_finished': False, 'threshold_uncertainty_db': 6}",1000,0,4.405244365040069e-05,False,0.007906066603027284,None,None,0,,68.37140280008316,69.37649060005788,None,1,69.37649060005788,68.37140280008316,,,cbtxie,001,fr,200,2022-05-05_15h42.23.151,Bayesian,2022.1.1,None,
,,,,5,0,5,0,,,,,,,,,,,,,,,,,,,,,,,"{'x': [[1000, 60], [1000, 40], [1000, 20], [1000, 0]], 'y': [[1], [1], [1], [-1]], 'audiogram': {}, 'is_init_phase': True, 'is_exam_finished': False, 'threshold_uncertainty_db': 6}",1500,10,0.0001527460556607757,False,0.013970799860544503,None,['space'],1,[0.404606300056912],71.7280305000022,72.73625610000454,None,1,72.73625610000454,71.7280305000022,,,cbtxie,001,fr,200,2022-05-05_15h42.23.151,Bayesian,2022.1.1,None,
,,,,6,0,6,0,,,,,,,,,,,,,,,,,,,,,,,"{'x': [[1000, 60], [1000, 40], [1000, 20], [1000, 0], [1500, 10]], 'y': [[1], [1], [1], [-1], [1]], 'audiogram': {}, 'is_init_phase': True, 'is_exam_finished': False, 'threshold_uncertainty_db': 6}",1500,-10,1.527460556607758e-05,False,0.007518499856814742,None,None,0,,74.63434870005585,75.64787820004858,None,1,75.64787820004858,74.63434870005585,,,cbtxie,001,fr,200,2022-05-05_15h42.23.151,Bayesian,2022.1.1,None,
,,,,7,0,7,0,,,,,,,,,,,,,,,,,,,,,,,"{'x': [[1000, 60], [1000, 40], [1000, 20], [1000, 0], [1500, 10], [1500, -10]], 'y': [[1], [1], [1], [-1], [1], [-1]], 'audiogram': {}, 'is_init_phase': True, 'is_exam_finished': False, 'threshold_uncertainty_db': 6}",,,,True,0.015835733385756612,None,None,0,,77.04123930004425,78.04620790004265,None,1,78.04620790004265,77.04123930004425,,,cbtxie,001,fr,200,2022-05-05_15h42.23.151,Bayesian,2022.1.1,None,
,,,,8,0,8,0,,,,,,,,,,,,,,,,,,,,,,,"{'x': [[1000, 60], [1000, 40], [1000, 20], [1000, 0], [1500, 10], [1500, -10]], 'y': [[1], [1], [1], [-1], [1], [-1]], 'audiogram': {}, 'is_init_phase': True, 'is_exam_finished': False, 'threshold_uncertainty_db': 6}",2000,10,0.00023657562948074026,False,0.008982399944216013,None,['space'],1,[0.328514700056985],79.61302240006626,80.61938080005348,None,1,80.61938080005348,79.61302240006626,,,cbtxie,001,fr,200,2022-05-05_15h42.23.151,Bayesian,2022.1.1,None,
,,,,9,0,9,0,,,,,,,,,,,,,,,,,,,,,,,"{'x': [[1000, 60], [1000, 40], [1000, 20], [1000, 0], [1500, 10], [1500, -10], [2000, 10]], 'y': [[1], [1], [1], [-1], [1], [-1], [1]], 'audiogram': {}, 'is_init_phase': True, 'is_exam_finished': False, 'threshold_uncertainty_db': 6}",2000,-10,2.3657562948074015e-05,False,0.007599000004120171,None,None,0,,83.10919880005531,84.12664070003666,None,1,84.12664070003666,83.10919880005531,,,cbtxie,001,fr,200,2022-05-05_15h42.23.151,Bayesian,2022.1.1,None,
,,,,10,0,10,0,,,,,,,,,,,,,,,,,,,,,,,"{'x': [[1000, 60], [1000, 40], [1000, 20], [1000, 0], [1500, 10], [1500, -10], [2000, 10], [2000, -10]], 'y': [[1], [1], [1], [-1], [1], [-1], [1], [-1]], 'audiogram': {}, 'is_init_phase': True, 'is_exam_finished': False, 'threshold_uncertainty_db': 6}",3000,10,0.00017336842522626576,False,0.003949200036004186,0.19703060004394501,['space'],1,[0.2932930000824854],85.64631079998799,86.65744470001664,None,1,86.65744470001664,85.64631079998799,,,cbtxie,001,fr,200,2022-05-05_15h42.23.151,Bayesian,2022.1.1,None,
,,,,11,0,11,0,,,,,,,,,,,,,,,,,,,,,,,"{'x': [[1000, 60], [1000, 40], [1000, 20], [1000, 0], [1500, 10], [1500, -10], [2000, 10], [2000, -10], [3000, 10]], 'y': [[1], [1], [1], [-1], [1], [-1], [1], [-1], [1]], 'audiogram': {}, 'is_init_phase': True, 'is_exam_finished': False, 'threshold_uncertainty_db': 6}",,,,True,0.013564333319664001,None,None,0,,88.8920193000231,89.89561180002056,None,1,89.89561180002056,88.8920193000231,,,cbtxie,001,fr,200,2022-05-05_15h42.23.151,Bayesian,2022.1.1,None,
,,,,12,0,12,0,,,,,,,,,,,,,,,,,,,,,,,"{'x': [[1000, 60], [1000, 40], [1000, 20], [1000, 0], [1500, 10], [1500, -10], [2000, 10], [2000, -10], [3000, 10]], 'y': [[1], [1], [1], [-1], [1], [-1], [1], [-1], [1]], 'audiogram': {}, 'is_init_phase': True, 'is_exam_finished': False, 'threshold_uncertainty_db': 6}",3000,-10,1.7336842522626584e-05,False,0.010806399979628623,None,None,0,,92.91494360007346,93.93388530006632,None,1,93.93388530006632,92.91494360007346,,,cbtxie,001,fr,200,2022-05-05_15h42.23.151,Bayesian,2022.1.1,None,
,,,,13,0,13,0,,,,,,,,,,,,,,,,,,,,,,,"{'x': [[1000, 60], [1000, 40], [1000, 20], [1000, 0], [1500, 10], [1500, -10], [2000, 10], [2000, -10], [3000, 10], [3000, -10]], 'y': [[1], [1], [1], [-1], [1], [-1], [1], [-1], [1], [-1]], 'audiogram': {}, 'is_init_phase': True, 'is_exam_finished': False, 'threshold_uncertainty_db': 6}",4000,10,0.00026544222211549425,False,0.0006844999734312296,None,['space'],1,[0.24228919995948672],96.06589139997959,97.07827569998335,None,1,97.07827569998335,96.06589139997959,,,cbtxie,001,fr,200,2022-05-05_15h42.23.151,Bayesian,2022.1.1,None,
,,,,14,0,14,0,,,,,,,,,,,,,,,,,,,,,,,"{'x': [[1000, 60], [1000, 40], [1000, 20], [1000, 0], [1500, 10], [1500, -10], [2000, 10], [2000, -10], [3000, 10], [3000, -10], [4000, 10]], 'y': [[1], [1], [1], [-1], [1], [-1], [1], [-1], [1], [-1], [1]], 'audiogram': {}, 'is_init_phase': True, 'is_exam_finished': False, 'threshold_uncertainty_db': 6}",4000,-10,2.6544222211549425e-05,False,0.011635199887678027,None,['space'],1,[0.7027217999566346],100.03736970003229,101.03922440006863,None,1,101.03922440006863,100.03736970003229,,,cbtxie,001,fr,200,2022-05-05_15h42.23.151,Bayesian,2022.1.1,None,
,,,,15,0,15,0,,,,,,,,,,,,,,,,,,,,,,,"{'x': [[1000, 60], [1000, 40], [1000, 20], [1000, 0], [1500, 10], [1500, -10], [2000, 10], [2000, -10], [3000, 10], [3000, -10], [4000, 10], [4000, -10]], 'y': [[1], [1], [1], [-1], [1], [-1], [1], [-1], [1], [-1], [1], [1]], 'audiogram': {}, 'is_init_phase': True, 'is_exam_finished': False, 'threshold_uncertainty_db': 6}",,,,True,0.013361733290366828,None,None,0,,103.6017682000529,104.61199180001859,None,1,104.61199180001859,103.6017682000529,,,cbtxie,001,fr,200,2022-05-05_15h42.23.151,Bayesian,2022.1.1,None,
,,,,16,0,16,0,,,,,,,,,,,,,,,,,,,,,,,"{'x': [[1000, 60], [1000, 40], [1000, 20], [1000, 0], [1500, 10], [1500, -10], [2000, 10], [2000, -10], [3000, 10], [3000, -10], [4000, 10], [4000, -10]], 'y': [[1], [1], [1], [-1], [1], [-1], [1], [-1], [1], [-1], [1], [1]], 'audiogram': {}, 'is_init_phase': True, 'is_exam_finished': False, 'threshold_uncertainty_db': 6}",6000,-10,3.664122665694518e-05,False,0.013953766785562038,None,None,0,,107.58986680000089,108.6052614999935,None,1,108.6052614999935,107.58986680000089,,,cbtxie,001,fr,200,2022-05-05_15h42.23.151,Bayesian,2022.1.1,None,
,,,,17,0,17,0,,,,,,,,,,,,,,,,,,,,,,,"{'x': [[1000, 60], [1000, 40], [1000, 20], [1000, 0], [1500, 10], [1500, -10], [2000, 10], [2000, -10], [3000, 10], [3000, -10], [4000, 10], [4000, -10], [6000, -10]], 'y': [[1], [1], [1], [-1], [1], [-1], [1], [-1], [1], [-1], [1], [1], [-1]], 'audiogram': {}, 'is_init_phase': True, 'is_exam_finished': False, 'threshold_uncertainty_db': 6}",6000,10,0.00036641226656945183,False,0.010334999999031425,0.206647599930875,['space'],1,[0.26057770010083914],111.07098339998629,112.07871720008552,None,1,112.07871720008552,111.07098339998629,,,cbtxie,001,fr,200,2022-05-05_15h42.23.151,Bayesian,2022.1.1,None,
,,,,18,0,18,0,,,,,,,,,,,,,,,,,,,,,,,"{'x': [[1000, 60], [1000, 40], [1000, 20], [1000, 0], [1500, 10], [1500, -10], [2000, 10], [2000, -10], [3000, 10], [3000, -10], [4000, 10], [4000, -10], [6000, -10], [6000, 10]], 'y': [[1], [1], [1], [-1], [1], [-1], [1], [-1], [1], [-1], [1], [1], [-1], [1]], 'audiogram': {}, 'is_init_phase': True, 'is_exam_finished': False, 'threshold_uncertainty_db': 6}",8000,-10,5.740768107484415e-05,False,0.010958799975924194,None,None,0,,114.81271510000806,115.81314740004018,None,1,115.81314740004018,114.81271510000806,,,cbtxie,001,fr,200,2022-05-05_15h42.23.151,Bayesian,2022.1.1,None,
,,,,19,0,19,0,,,,,,,,,,,,,,,,,,,,,,,"{'x': [[1000, 60], [1000, 40], [1000, 20], [1000, 0], [1500, 10], [1500, -10], [2000, 10], [2000, -10], [3000, 10], [3000, -10], [4000, 10], [4000, -10], [6000, -10], [6000, 10], [8000, -10]], 'y': [[1], [1], [1], [-1], [1], [-1], [1], [-1], [1], [-1], [1], [1], [-1], [1], [-1]], 'audiogram': {}, 'is_init_phase': True, 'is_exam_finished': False, 'threshold_uncertainty_db': 6}",,,,True,0.014562633354216814,None,None,0,,117.00620920001529,118.03395040007308,None,1,118.03395040007308,117.00620920001529,,,cbtxie,001,fr,200,2022-05-05_15h42.23.151,Bayesian,2022.1.1,None,
,,,,20,0,20,0,,,,,,,,,,,,,,,,,,,,,,,"{'x': [[1000, 60], [1000, 40], [1000, 20], [1000, 0], [1500, 10], [1500, -10], [2000, 10], [2000, -10], [3000, 10], [3000, -10], [4000, 10], [4000, -10], [6000, -10], [6000, 10], [8000, -10]], 'y': [[1], [1], [1], [-1], [1], [-1], [1], [-1], [1], [-1], [1], [1], [-1], [1], [-1]], 'audiogram': {}, 'is_init_phase': True, 'is_exam_finished': False, 'threshold_uncertainty_db': 6}",8000,0,0.0001815390273850507,False,0.008449699846096337,None,None,0,,120.84927190002054,121.8575668000849,None,1,121.8575668000849,120.84927190002054,,,cbtxie,001,fr,200,2022-05-05_15h42.23.151,Bayesian,2022.1.1,None,
,,,,21,0,21,0,,,,,,,,,,,,,,,,,,,,,,,"{'x': [[1000, 60], [1000, 40], [1000, 20], [1000, 0], [1500, 10], [1500, -10], [2000, 10], [2000, -10], [3000, 10], [3000, -10], [4000, 10], [4000, -10], [6000, -10], [6000, 10], [8000, -10], [8000, 0]], 'y': [[1], [1], [1], [-1], [1], [-1], [1], [-1], [1], [-1], [1], [1], [-1], [1], [-1], [-1]], 'audiogram': {}, 'is_init_phase': True, 'is_exam_finished': False, 'threshold_uncertainty_db': 6}",8000,10,0.0005740768107484417,False,0.011980800074525177,None,['space'],1,[0.3186168000102043],123.98884870007169,124.99077700008638,None,1,124.99077700008638,123.98884870007169,,,cbtxie,001,fr,200,2022-05-05_15h42.23.151,Bayesian,2022.1.1,None,
,,,,22,0,22,0,,,,,,,,,,,,,,,,,,,,,,,"{'x': [[1000, 60], [1000, 40], [1000, 20], [1000, 0], [1500, 10], [1500, -10], [2000, 10], [2000, -10], [3000, 10], [3000, -10], [4000, 10], [4000, -10], [6000, -10], [6000, 10], [8000, -10], [8000, 0], [8000, 10]], 'y': [[1], [1], [1], [-1], [1], [-1], [1], [-1], [1], [-1], [1], [1], [-1], [1], [-1], [-1], [1]], 'audiogram': {}, 'is_init_phase': True, 'is_exam_finished': False, 'threshold_uncertainty_db': 6}",750,10,0.00012851978913844324,False,0.0004993666661903262,0.18971396668348461,None,0,,126.9477113999892,127.95801110006869,['space'],0,127.95801110006869,126.9477113999892,[-0.002850600052624941],,cbtxie,001,fr,200,2022-05-05_15h42.23.151,Bayesian,2022.1.1,None,
,,,,23,0,23,0,,,,,,,,,,,,,,,,,,,,,,,"{'x': [[1000, 60], [1000, 40], [1000, 20], [1000, 0], [1500, 10], [1500, -10], [2000, 10], [2000, -10], [3000, 10], [3000, -10], [4000, 10], [4000, -10], [6000, -10], [6000, 10], [8000, -10], [8000, 0], [8000, 10], [750, 10]], 'y': [[1], [1], [1], [-1], [1], [-1], [1], [-1], [1], [-1], [1], [1], [-1], [1], [-1], [-1], [1], [-1]], 'audiogram': {}, 'is_init_phase': True, 'is_exam_finished': False, 'threshold_uncertainty_db': 6}",750,30,0.0012851978913844323,False,0.0052359000546857715,None,['space'],1,[0.2693720000097528],130.58310619997792,131.60561379999854,None,1,131.60561379999854,130.58310619997792,,,cbtxie,001,fr,200,2022-05-05_15h42.23.151,Bayesian,2022.1.1,None,
,,,,24,0,24,0,,,,,,,,,,,,,,,,,,,,,,,"{'x': [[1000, 60], [1000, 40], [1000, 20], [1000, 0], [1500, 10], [1500, -10], [2000, 10], [2000, -10], [3000, 10], [3000, -10], [4000, 10], [4000, -10], [6000, -10], [6000, 10], [8000, -10], [8000, 0], [8000, 10], [750, 10], [750, 30]], 'y': [[1], [1], [1], [-1], [1], [-1], [1], [-1], [1], [-1], [1], [1], [-1], [1], [-1], [-1], [1], [-1], [1]], 'audiogram': {}, 'is_init_phase': True, 'is_exam_finished': False, 'threshold_uncertainty_db': 6}",500,10,0.0002259279721874612,False,0.007188400020822883,0.1971118999645114,['space'],1,[0.34392730006948113],133.86769870005082,134.86980099999346,None,1,134.86980099999346,133.86769870005082,,,cbtxie,001,fr,200,2022-05-05_15h42.23.151,Bayesian,2022.1.1,None,
,,,,25,0,25,0,,,,,,,,,,,,,,,,,,,,,,,"{'x': [[1000, 60], [1000, 40], [1000, 20], [1000, 0], [1500, 10], [1500, -10], [2000, 10], [2000, -10], [3000, 10], [3000, -10], [4000, 10], [4000, -10], [6000, -10], [6000, 10], [8000, -10], [8000, 0], [8000, 10], [750, 10], [750, 30], [500, 10]], 'y': [[1], [1], [1], [-1], [1], [-1], [1], [-1], [1], [-1], [1], [1], [-1], [1], [-1], [-1], [1], [-1], [1], [1]], 'audiogram': {}, 'is_init_phase': True, 'is_exam_finished': False, 'threshold_uncertainty_db': 6}",,,,True,0.010140733327716589,None,None,0,,136.85531840007752,137.86729179997928,None,1,137.86729179997928,136.85531840007752,,,cbtxie,001,fr,200,2022-05-05_15h42.23.151,Bayesian,2022.1.1,None,
,,,,26,0,26,0,,,,,,,,,,,,,,,,,,,,,,,"{'x': [[1000, 60], [1000, 40], [1000, 20], [1000, 0], [1500, 10], [1500, -10], [2000, 10], [2000, -10], [3000, 10], [3000, -10], [4000, 10], [4000, -10], [6000, -10], [6000, 10], [8000, -10], [8000, 0], [8000, 10], [750, 10], [750, 30], [500, 10]], 'y': [[1], [1], [1], [-1], [1], [-1], [1], [-1], [1], [-1], [1], [1], [-1], [1], [-1], [-1], [1], [-1], [1], [1]], 'audiogram': {}, 'is_init_phase': True, 'is_exam_finished': False, 'threshold_uncertainty_db': 6}",500,-10,2.259279721874613e-05,False,0.0049603000516071916,0.1967429000651464,None,0,,140.06224290002137,141.09237109997775,None,1,141.09237109997775,140.06224290002137,,,cbtxie,001,fr,200,2022-05-05_15h42.23.151,Bayesian,2022.1.1,None,
,,,,27,0,27,0,,,,,,,,,,,,,,,,,,,,,,,"{'x': [[1000, 60], [1000, 40], [1000, 20], [1000, 0], [1500, 10], [1500, -10], [2000, 10], [2000, -10], [3000, 10], [3000, -10], [4000, 10], [4000, -10], [6000, -10], [6000, 10], [8000, -10], [8000, 0], [8000, 10], [750, 10], [750, 30], [500, 10], [500, -10]], 'y': [[1], [1], [1], [-1], [1], [-1], [1], [-1], [1], [-1], [1], [1], [-1], [1], [-1], [-1], [1], [-1], [1], [1], [-1]], 'audiogram': {}, 'is_init_phase': True, 'is_exam_finished': False, 'threshold_uncertainty_db': 6}",250,10,0.0005296268625886444,False,0.01024690002668649,None,['space'],1,[0.39722629997413605],142.35885199997574,143.37832660006825,None,1,143.37832660006825,142.35885199997574,,,cbtxie,001,fr,200,2022-05-05_15h42.23.151,Bayesian,2022.1.1,None,
,,,,28,0,28,0,,,,,,,,,,,,,,,,,,,,,,,"{'x': [[1000, 60], [1000, 40], [1000, 20], [1000, 0], [1500, 10], [1500, -10], [2000, 10], [2000, -10], [3000, 10], [3000, -10], [4000, 10], [4000, -10], [6000, -10], [6000, 10], [8000, -10], [8000, 0], [8000, 10], [750, 10], [750, 30], [500, 10], [500, -10], [250, 10]], 'y': [[1], [1], [1], [-1], [1], [-1], [1], [-1], [1], [-1], [1], [1], [-1], [1], [-1], [-1], [1], [-1], [1], [1], [-1], [1]], 'audiogram': {}, 'is_init_phase': True, 'is_exam_finished': False, 'threshold_uncertainty_db': 6}",250,-10,5.296268625886443e-05,False,0.005941599956713617,0.1982785000000149,None,0,,144.7340780000668,145.7467284000013,None,1,145.7467284000013,144.7340780000668,,,cbtxie,001,fr,200,2022-05-05_15h42.23.151,Bayesian,2022.1.1,None,
,,,,29,0,29,0,,,,,,,,,,,,,,,,,,,,,,,"{'x': [[1000, 60], [1000, 40], [1000, 20], [1000, 0], [1500, 10], [1500, -10], [2000, 10], [2000, -10], [3000, 10], [3000, -10], [4000, 10], [4000, -10], [6000, -10], [6000, 10], [8000, -10], [8000, 0], [8000, 10], [750, 10], [750, 30], [500, 10], [500, -10], [250, 10], [250, -10]], 'y': [[1], [1], [1], [-1], [1], [-1], [1], [-1], [1], [-1], [1], [1], [-1], [1], [-1], [-1], [1], [-1], [1], [1], [-1], [1], [-1]], 'audiogram': {}, 'is_init_phase': True, 'is_exam_finished': False, 'threshold_uncertainty_db': 6}",,,,True,0.0010280667338520288,0.18809286667965353,None,0,,147.84442249999847,148.84880020003766,None,1,148.84880020003766,147.84442249999847,,,cbtxie,001,fr,200,2022-05-05_15h42.23.151,Bayesian,2022.1.1,None,
,,,,30,0,30,0,,,,,,,,,,,,,,,,,,,,,,,"{'x': [[1000, 60], [1000, 40], [1000, 20], [1000, 0], [1500, 10], [1500, -10], [2000, 10], [2000, -10], [3000, 10], [3000, -10], [4000, 10], [4000, -10], [6000, -10], [6000, 10], [8000, -10], [8000, 0], [8000, 10], [750, 10], [750, 30], [500, 10], [500, -10], [250, 10], [250, -10]], 'y': [[1], [1], [1], [-1], [1], [-1], [1], [-1], [1], [-1], [1], [1], [-1], [1], [-1], [-1], [1], [-1], [1], [1], [-1], [1], [-1]], 'audiogram': {}, 'is_init_phase': True, 'is_exam_finished': False, 'threshold_uncertainty_db': 6}",125,10,0.002285440948074376,False,0.01054159994237125,None,None,0,,150.84261930000503,151.85088020004332,None,1,151.85088020004332,150.84261930000503,,,cbtxie,001,fr,200,2022-05-05_15h42.23.151,Bayesian,2022.1.1,None,
,,,,31,0,31,0,,,,,,,,,,,,,,,,,,,,,,,"{'x': [[1000, 60], [1000, 40], [1000, 20], [1000, 0], [1500, 10], [1500, -10], [2000, 10], [2000, -10], [3000, 10], [3000, -10], [4000, 10], [4000, -10], [6000, -10], [6000, 10], [8000, -10], [8000, 0], [8000, 10], [750, 10], [750, 30], [500, 10], [500, -10], [250, 10], [250, -10], [125, 10]], 'y': [[1], [1], [1], [-1], [1], [-1], [1], [-1], [1], [-1], [1], [1], [-1], [1], [-1], [-1], [1], [-1], [1], [1], [-1], [1], [-1], [-1]], 'audiogram': {}, 'is_init_phase': True, 'is_exam_finished': False, 'threshold_uncertainty_db': 6}",125,20,0.00722719885372964,False,0.011832899879664183,None,['space'],1,[0.299794299993664],153.43247670005076,154.43638299999293,None,1,154.43638299999293,153.43247670005076,,,cbtxie,001,fr,200,2022-05-05_15h42.23.151,Bayesian,2022.1.1,None,
,,,,32,0,32,0,,,,,,,,,,,,,,,,,,,,,,,"{'x': [[1000, 60], [1000, 40], [1000, 20], [1000, 0], [1500, 10], [1500, -10], [2000, 10], [2000, -10], [3000, 10], [3000, -10], [4000, 10], [4000, -10], [6000, -10], [6000, 10], [8000, -10], [8000, 0], [8000, 10], [750, 10], [750, 30], [500, 10], [500, -10], [250, 10], [250, -10], [125, 10], [125, 20]], 'y': [[1], [1], [1], [-1], [1], [-1], [1], [-1], [1], [-1], [1], [1], [-1], [1], [-1], [-1], [1], [-1], [1], [1], [-1], [1], [-1], [-1], [1]], 'audiogram': {}, 'is_init_phase': True, 'is_exam_finished': False, 'threshold_uncertainty_db': 6}",353.5533905932738,0.0,8.861233020703779e-05,False,0.002150233369320631,0.1891224334249273,None,0,,158.47724650008604,159.4873625000473,None,1,159.4873625000473,158.47724650008604,,,cbtxie,001,fr,200,2022-05-05_15h42.23.151,Bayesian,2022.1.1,None,
,,,,33,0,33,0,,,,,,,,,,,,,,,,,,,,,,,,,,,True,0.01466963323764503,None,None,0,,160.61828769999556,161.64640020008665,None,1,161.64640020008665,160.61828769999556,,,cbtxie,001,fr,200,2022-05-05_15h42.23.151,Bayesian,2022.1.1,None,
,,,,34,0,34,0,,,,,,,,,,,,,,,,,,,,,,,,4287.0938501451765,-8.0,4.1281300523548036e-05,False,0.0017914000200107694,0.18940689996816218,None,0,,165.54868520004675,166.54618000006303,None,1,166.54618000006303,165.54868520004675,,,cbtxie,001,fr,200,2022-05-05_15h42.23.151,Bayesian,2022.1.1,None,
,,,,35,0,35,0,,,,,,,,,,,,,,,,,,,,,,,,189.4645708137998,7.0,0.0006801503889011626,False,0.01609479996841401,None,['space'],1,[0.3882818999700248],169.64724550000392,170.65345300000627,None,1,170.65345300000627,169.64724550000392,,,cbtxie,001,fr,200,2022-05-05_15h42.23.151,Bayesian,2022.1.1,None,
,,,,36,0,36,0,,,,,,,,,,,,,,,,,,,,,,,,1231.1444133449168,6.0,0.0001071865882769908,False,0.0014135334640741348,None,['space'],1,[0.5059651000192389],174.31353649997618,175.32508920005057,None,1,175.32508920005057,174.31353649997618,,,cbtxie,001,fr,200,2022-05-05_15h42.23.151,Bayesian,2022.1.1,None,
,,,,37,0,37,0,,,,,,,,,,,,,,,,,,,,,,,,2297.3967099940687,1.0,9.133707849613953e-05,False,0.005361533374525607,0.19443783338647336,None,0,,179.83303029998206,180.84227949997876,None,1,180.84227949997876,179.83303029998206,,,cbtxie,001,fr,200,2022-05-05_15h42.23.151,Bayesian,2022.1.1,None,
,,,,38,0,38,0,,,,,,,,,,,,,,,,,,,,,,,,,,,True,7.476669270545244e-05,0.18900476663839072,None,0,,182.78074660000857,183.79335050005466,None,1,183.79335050005466,182.78074660000857,,,cbtxie,001,fr,200,2022-05-05_15h42.23.151,Bayesian,2022.1.1,None,
,,,,39,0,39,0,,,,,,,,,,,,,,,,,,,,,,,,287.17458874925893,4.0,0.00020302422672604638,False,0.002055566757917404,None,None,0,,188.080116200028,189.09326680004597,None,1,189.09326680004597,188.080116200028,,,cbtxie,001,fr,200,2022-05-05_15h42.23.151,Bayesian,2022.1.1,None,
,,,,40,0,40,0,,,,,,,,,,,,,,,,,,,,,,,,3249.0095854249403,-3.0,5.0092288148172966e-05,False,0.008921199943870306,None,['space'],1,[0.3718182999873534],192.95966970000882,193.95580710005015,None,1,193.95580710005015,192.95966970000882,,,cbtxie,001,fr,200,2022-05-05_15h42.23.151,Bayesian,2022.1.1,None,
,,,,41,0,41,0,,,,,,,,,,,,,,,,,,,,,,,,406.12619817811805,6.0,0.00015212148103981995,False,0.0024813999189063907,0.19206529995426536,None,0,,196.62019140005577,197.6272266000742,None,1,197.6272266000742,196.62019140005577,,,cbtxie,001,fr,200,2022-05-05_15h42.23.151,Bayesian,2022.1.1,None,
,,,,42,0,42,0,,,,,,,,,,,,,,,,,,,,,,,,176.7766952966369,3.0,0.0004944177713899504,False,0.006423033191822469,None,None,0,,200.4849231999833,201.47834500006866,None,1,201.47834500006866,200.4849231999833,,,cbtxie,001,fr,200,2022-05-05_15h42.23.151,Bayesian,2022.1.1,None,
,,,,43,0,43,0,,,,,,,,,,,,,,,,,,,,,,,,,,,True,0.008562333299778402,None,None,0,,204.1391566999955,205.15672000008635,None,1,205.15672000008635,204.1391566999955,,,cbtxie,001,fr,200,2022-05-05_15h42.23.151,Bayesian,2022.1.1,None,
,,,,44,0,44,0,,,,,,,,,,,,,,,,,,,,,,,,5656.85424949238,-1.0,0.00011454685579649268,False,0.01604696665890515,None,['space'],1,[0.30539820005651563],208.46619589999318,209.47698330006097,None,1,209.47698330006097,208.46619589999318,,,cbtxie,001,fr,200,2022-05-05_15h42.23.151,Bayesian,2022.1.1,None,
,,,,45,0,45,0,,,,,,,,,,,,,,,,,,,,,,,,757.8582832551998,12.0,0.0001603743577373623,False,0.005193799966946244,None,['space'],1,[0.3303203000687063],211.83298419998027,212.84608240006492,None,1,212.84608240006492,211.83298419998027,,,cbtxie,001,fr,200,2022-05-05_15h42.23.151,Bayesian,2022.1.1,None,
,,,,46,0,46,0,,,,,,,,,,,,,,,,,,,,,,,,1624.5047927124701,2.0,7.283765795300079e-05,False,0.007510066730901599,None,None,0,,216.5352900000289,217.54778770008124,None,1,217.54778770008124,216.5352900000289,,,cbtxie,001,fr,200,2022-05-05_15h42.23.151,Bayesian,2022.1.1,None,
,,,,47,0,47,0,,,,,,,,,,,,,,,,,,,,,,,,125.0,13.0,0.003228271145173279,False,0.001525399973616004,0.18567529995925725,None,0,,221.5808149999939,222.5889319999842,None,1,222.5889319999842,221.5808149999939,,,cbtxie,001,fr,200,2022-05-05_15h42.23.151,Bayesian,2022.1.1,None,
,,,,48,0,48,0,,,,,,,,,,,,,,,,,,,,,,,,329.87697769322364,10.0,0.0002996540782015946,False,0.013885800028219819,None,['space'],1,[0.8395749001065269],226.94084689999,227.9622260000324,None,1,227.9622260000324,226.94084689999,,,cbtxie,001,fr,200,2022-05-05_15h42.23.151,Bayesian,2022.1.1,None,
,,,,49,0,49,0,,,,,,,,,,,,,,,,,,,,,,,,,,,True,0.011474533355794847,None,None,0,,230.2710549000185,231.2842929000035,None,1,231.2842929000035,230.2710549000185,,,cbtxie,001,fr,200,2022-05-05_15h42.23.151,Bayesian,2022.1.1,None,
,,,,50,0,50,0,,,,,,,,,,,,,,,,,,,,,,,,8000.0,4.0,0.0002877199686685786,False,0.0024608999956399202,None,['space'],1,[0.44474810000974685],235.95861550001428,236.96876439999323,None,1,236.96876439999323,235.95861550001428,,,cbtxie,001,fr,200,2022-05-05_15h42.23.151,Bayesian,2022.1.1,None,
,,,,51,0,51,0,,,,,,,,,,,,,,,,,,,,,,,,1071.7734625362941,5.0,8.367608612606695e-05,False,0.01387733337469399,None,['space'],1,[0.4026506000664085],240.43328710005153,241.45639860001393,None,1,241.45639860001393,240.43328710005153,,,cbtxie,001,fr,200,2022-05-05_15h42.23.151,Bayesian,2022.1.1,None,
,,,,52,0,52,0,,,,,,,,,,,,,,,,,,,,,,,,574.3491774985172,9.0,0.0001686695046511432,False,0.010611499892547727,None,['space'],1,[0.33486820000689477],245.26842430001125,246.27360379998572,None,1,246.27360379998572,245.26842430001125,,,cbtxie,001,fr,200,2022-05-05_15h42.23.151,Bayesian,2022.1.1,None,
,,,,53,0,53,0,,,,,,,,,,,,,,,,,,,,,,,,2639.015821545789,0.0,7.725655650415703e-05,False,0.013517400017008185,0.20987340004649013,None,0,,248.8198321000673,249.83437360008247,None,1,249.83437360008247,248.8198321000673,,,cbtxie,001,fr,200,2022-05-05_15h42.23.151,Bayesian,2022.1.1,None,
,,,,54,0,54,0,,,,,,,,,,,,,,,,,,,,,,,,,,,True,0.007047833409160376,None,None,0,,251.38504810002632,252.40933190006763,None,1,252.40933190006763,251.38504810002632,,,cbtxie,001,fr,200,2022-05-05_15h42.23.151,Bayesian,2022.1.1,None,
,,,,55,0,55,0,,,,,,,,,,,,,,,,,,,,,,,,5656.85424949238,-4.0,8.109296367558474e-05,False,0.006586233270354569,None,['space'],1,[0.29927560000214726],254.9364667000482,255.9585420000367,None,1,255.9585420000367,254.9364667000482,,,cbtxie,001,fr,200,2022-05-05_15h42.23.151,Bayesian,2022.1.1,None,
,,,,56,0,56,0,,,,,,,,,,,,,,,,,,,,,,,,233.2582478842019,4.0,0.0003174271533696166,False,0.010724166641011834,None,None,0,,259.48531680007,260.5139673000667,None,1,260.5139673000667,259.48531680007,,,cbtxie,001,fr,200,2022-05-05_15h42.23.151,Bayesian,2022.1.1,None,
,,,,57,0,57,0,,,,,,,,,,,,,,,,,,,,,,,,757.8582832551998,8.0,0.00010118937888068263,False,0.00872809998691082,None,['space'],1,[0.3866221000207588],264.1292026999872,265.1589147000341,None,1,265.1589147000341,264.1292026999872,,,cbtxie,001,fr,200,2022-05-05_15h42.23.151,Bayesian,2022.1.1,None,
,,,,58,0,58,0,,,,,,,,,,,,,,,,,,,,,,,,574.3491774985172,6.0,0.00011940886477193755,False,0.015752366627566516,None,['space'],1,[0.3920989000471309],269.73946319997776,270.7428248000797,None,1,270.7428248000797,269.73946319997776,,,cbtxie,001,fr,200,2022-05-05_15h42.23.151,Bayesian,2022.1.1,None,
,,,,59,0,59,0,,,,,,,,,,,,,,,,,,,,,,,,,,,True,0.005817333236336708,None,None,0,,272.3411547000287,273.36157230008394,None,1,273.36157230008394,272.3411547000287,,,cbtxie,001,fr,200,2022-05-05_15h42.23.151,Bayesian,2022.1.1,None,
,,,,60,0,60,0,,,,,,,,,,,,,,,,,,,,,,,,1414.213562373095,2.0,6.349055446025293e-05,False,0.0009357667295262218,None,['space'],1,[-0.17139889998361468],277.4714667000808,278.48065600008704,None,1,278.48065600008704,277.4714667000808,,,cbtxie,001,fr,200,2022-05-05_15h42.23.151,Bayesian,2022.1.1,None,
,,,,61,0,61,0,,,,,,,,,,,,,,,,,,,,,,,,153.8930516681146,11.0,0.0016516221312576293,False,0.012512366520240903,0.20926616655196995,['space'],1,[0.4943938000360504],281.30073380004615,282.30990560003556,None,1,282.30990560003556,281.30073380004615,,,cbtxie,001,fr,200,2022-05-05_15h42.23.151,Bayesian,2022.1.1,None,
,,,,62,0,62,0,,,,,,,,,,,,,,,,,,,,,,,,2143.5469250725882,7.0,0.00017460642850301606,False,0.009460266563110054,None,['space'],1,[0.4965030999155715],286.0040182999801,287.01133360003587,None,1,287.01133360003587,286.0040182999801,,,cbtxie,001,fr,200,2022-05-05_15h42.23.151,Bayesian,2022.1.1,None,
,,,,63,0,63,0,,,,,,,,,,,,,,,,,,,,,,,,466.5164957684038,5.0,0.0001300910904933496,False,0.007970833336003125,None,None,0,,290.3643648000434,291.36031380004715,None,1,291.36031380004715,290.3643648000434,,,cbtxie,001,fr,200,2022-05-05_15h42.23.151,Bayesian,2022.1.1,None,
,,,,64,0,64,0,,,,,,,,,,,,,,,,,,,,,,,,870.5505632961246,6.0,8.055522766386251e-05,False,0.012845300021581352,None,['space'],1,[0.4618707000045106],297.301824000082,298.3007525000721,None,1,298.3007525000721,297.301824000082,,,cbtxie,001,fr,200,2022-05-05_15h42.23.151,Bayesian,2022.1.1,None,
,,,,65,0,65,0,,,,,,,,,,,,,,,,,,,,,,,,,,,True,0.012251233332790434,None,None,0,,299.76007570000365,300.77504640002735,None,1,300.77504640002735,299.76007570000365,,,cbtxie,001,fr,200,2022-05-05_15h42.23.151,Bayesian,2022.1.1,None,
,,,,66,0,66,0,,,,,,,,,,,,,,,,,,,,,,,,8000.0,1.0,0.0002036901389020564,False,0.015836133272387087,None,None,0,,303.8522212000098,304.8692787999753,None,1,304.8692787999753,303.8522212000098,,,cbtxie,001,fr,200,2022-05-05_15h42.23.151,Bayesian,2022.1.1,None,
,,,,67,0,67,0,,,,,,,,,,,,,,,,,,,,,,,,4924.577653379667,-9.0,5.2355041962932216e-05,False,0.0022679667454212904,0.19709926669020206,['space'],1,[0.3446136999409646],308.07557750004344,309.09397520008497,None,1,309.09397520008497,308.07557750004344,,,cbtxie,001,fr,200,2022-05-05_15h42.23.151,Bayesian,2022.1.1,None,
,,,,68,0,68,0,,,,,,,,,,,,,,,,,,,,,,,,1231.1444133449168,-1.0,4.787849028197256e-05,False,0.012690633186139166,None,None,0,,313.428867300041,314.439428600017,None,1,314.439428600017,313.428867300041,,,cbtxie,001,fr,200,2022-05-05_15h42.23.151,Bayesian,2022.1.1,None,
,,,,69,0,69,0,,,,,,,,,,,,,,,,,,,,,,,,125.0,14.0,0.0036221798003749518,False,0.006568466778844595,None,['space'],1,[0.3649666999699548],317.47825140005443,318.4838480000617,None,1,318.4838480000617,317.47825140005443,,,cbtxie,001,fr,200,2022-05-05_15h42.23.151,Bayesian,2022.1.1,None,
,,,,70,0,70,0,,,,,,,,,,,,,,,,,,,,,,,,3249.0095854249403,-5.0,3.9789718818038276e-05,False,0.003796866745688021,None,None,0,,321.3273978000507,322.327649999992,None,1,322.327649999992,321.3273978000507,,,cbtxie,001,fr,200,2022-05-05_15h42.23.151,Bayesian,2022.1.1,None,
,,,,71,0,71,0,,,,,,,,,,,,,,,,,,,,,,,,,,,True,0.012481533223763108,None,None,0,,324.0516151000047,325.06245299999136,None,1,325.06245299999136,324.0516151000047,,,cbtxie,001,fr,200,2022-05-05_15h42.23.151,Bayesian,2022.1.1,None,
,,,,72,0,72,0,,,,,,,,,,,,,,,,,,,,,,,,353.5533905932738,9.0,0.0002497434789550849,False,0.007652200059965253,None,None,0,,328.62730489997193,329.6328040000517,None,1,329.6328040000517,328.62730489997193,,,cbtxie,001,fr,200,2022-05-05_15h42.23.151,Bayesian,2022.1.1,None,
,,,,73,0,73,0,,,,,,,,,,,,,,,,,,,,,,,,6062.8662660415985,-6.0,5.955731266525417e-05,False,0.003326633246615529,0.19720303325448185,['space'],1,[0.41642649995628744],333.9865269000875,334.99085519998334,None,1,334.99085519998334,333.9865269000875,,,cbtxie,001,fr,200,2022-05-05_15h42.23.151,Bayesian,2022.1.1,None,
,,,,74,0,74,0,,,,,,,,,,,,,,,,,,,,,,,,659.7539553864473,5.0,8.634514805083658e-05,False,0.005363999982364476,None,None,0,,339.66308440000284,340.6716783000156,None,1,340.6716783000156,339.66308440000284,,,cbtxie,001,fr,200,2022-05-05_15h42.23.151,Bayesian,2022.1.1,None,
,,,,75,0,75,0,,,,,,,,,,,,,,,,,,,,,,,,1866.0659830736151,4.0,0.00010898398547837883,False,0.005919699906371534,None,['space'],1,[0.48539550008717924],344.95969749998767,345.9765886000823,None,1,345.9765886000823,344.95969749998767,,,cbtxie,001,fr,200,2022-05-05_15h42.23.151,Bayesian,2022.1.1,None,
,,,,76,0,76,0,,,,,,,,,,,,,,,,,,,,,,,,250.0,7.0,0.00037494710466622793,False,0.011011033318936825,None,['space'],1,[0.44915350002702326],349.666003499995,350.6737733000191,None,1,350.6737733000191,349.666003499995,,,cbtxie,001,fr,200,2022-05-05_15h42.23.151,Bayesian,2022.1.1,None,
,,,,77,0,77,0,,,,,,,,,,,,,,,,,,,,,,,,,,,True,0.007949333288706839,None,None,0,,351.7260955000529,352.73999340005685,None,1,352.73999340005685,351.7260955000529,,,cbtxie,001,fr,200,2022-05-05_15h42.23.151,Bayesian,2022.1.1,None,
,,,,78,0,78,0,,,,,,,,,,,,,,,,,,,,,,,,164.93848884661182,7.0,0.0008801206631839937,False,0.010109666734933853,None,None,0,,359.71773570007645,360.7236762000248,None,1,360.7236762000248,359.71773570007645,,,cbtxie,001,fr,200,2022-05-05_15h42.23.151,Bayesian,2022.1.1,None,
,,,,79,0,79,0,,,,,,,,,,,,,,,,,,,,,,,,2639.015821545789,2.0,9.726024221079524e-05,False,0.0040279332315549254,0.19330893328879029,None,0,,367.1255454000784,368.14972700004,None,1,368.14972700004,367.1255454000784,,,cbtxie,001,fr,200,2022-05-05_15h42.23.151,Bayesian,2022.1.1,None,
,,,,80,0,80,0,,,,,,,,,,,,,,,,,,,,,,,,4594.793419988137,-11.0,3.5191871096119305e-05,False,0.005761466803960502,None,None,0,,371.58956110000145,372.6046867000405,None,1,372.6046867000405,371.58956110000145,,,cbtxie,001,fr,200,2022-05-05_15h42.23.151,Bayesian,2022.1.1,None,
,,,,81,0,81,0,,,,,,,,,,,,,,,,,,,,,,,,406.12619817811805,9.0,0.0002148773033123642,False,0.0002297000028192997,None,['space'],1,[0.6048953999998048],375.8322974999901,376.84299130004365,None,1,376.84299130004365,375.8322974999901,,,cbtxie,001,fr,200,2022-05-05_15h42.23.151,Bayesian,2022.1.1,None,
,,,,82,0,82,0,,,,,,,,,,,,,,,,,,,,,,,,1000.0,3.0,6.222573058856925e-05,False,0.007727733347564936,None,None,0,,380.84534210001584,381.8535286000697,None,1,381.8535286000697,380.84534210001584,,,cbtxie,001,fr,200,2022-05-05_15h42.23.151,Bayesian,2022.1.1,None,
,,,,83,0,83,0,,,,,,,,,,,,,,,,,,,,,,,,,,,True,0.013355033239349723,None,None,0,,384.27881110005546,385.2861436000094,None,1,385.2861436000094,384.27881110005546,,,cbtxie,001,fr,200,2022-05-05_15h42.23.151,Bayesian,2022.1.1,None,
,,,,84,0,84,0,,,,,,,,,,,,,,,,,,,,,,,,8000.0,3.0,0.0002564306919956826,False,0.014398800092749298,None,None,0,,389.5955619000597,390.62426900002174,None,1,390.62426900002174,389.5955619000597,,,cbtxie,001,fr,200,2022-05-05_15h42.23.151,Bayesian,2022.1.1,None,
,,,,85,0,85,0,,,,,,,,,,,,,,,,,,,,,,,,8000.0,3.0,0.0002564306919956826,False,None,None,None,0,,None,None,None,1,None,None,,"{'estimation': [[125.0, 12.786162976081553], [133.9716828170366, 12.066021732457639], [134.54020755084431, 12.0], [143.39494783161362, 11.0], [143.5872943746293, 10.979024424982404], [151.13153700018356, 10.0], [153.89305166811442, 9.653999543681362], [158.9833297153283, 9.0], [164.93848884661162, 8.253100732853312], [167.18806820388863, 8.0], [176.1904829880498, 6.999999999999999], [176.77669529663655, 6.937531404266516], [187.90733889967765, 6.0], [189.46457081379958, 5.872930038518033], [203.0630990890585, 5.181050693590538], [212.95151887676516, 5.0], [217.63764082403046, 4.9166503095602545], [224.94622763206837, 5.0], [233.25824788420132, 5.09100126744373], [249.99999999999952, 5.626746627741383], [258.39780791168886, 6.0], [267.94336563407256, 6.409733461880743], [280.9813867633884, 7.0], [287.1745887492579, 7.271798484273099], [306.7170418869689, 8.0], [307.78610333622805, 8.038727507742419], [329.876977693222, 8.562099795198893], [353.55339059327247, 8.741967372715234], [378.929141627598, 8.558264051257781], [406.12619817811606, 8.065615296582664], [408.8561214304233, 8.0], [435.2752816480601, 7.389643363353556], [452.53195297432865, 7.0], [466.5164957684015, 6.691372772585694], [499.9999999999975, 6.137771400097948], [515.5391064863353, 6.0], [535.8867312681438, 5.824873454476382], [574.3491774985143, 5.795924888873552], [615.5722066724546, 5.998224648996439], [615.8131236451495, 6.0], [659.7539553864432, 6.308239549758483], [707.1067811865431, 6.572495526117587], [757.8582832551951, 6.654239689947313], [812.2523963562301, 6.459334676748085], [865.1711036575824, 6.0], [870.550563296117, 5.954770458463513], [933.0329915368008, 5.190438755645431], [946.2183982407289, 5.0], [999.9999999999926, 4.2541908373431125], [1018.1377055554354, 4.0], [1071.773462536285, 3.272298795104259], [1094.526005531264, 3.0], [1148.698354997026, 2.370031608802233], [1190.7952595238362, 2.0], [1231.1444133449063, 1.6535802832440196], [1319.5079107728816, 1.2084287541347236], [1414.2135623730828, 1.0671031498457277], [1515.7165665103846, 1.2392143124680355], [1624.5047927124563, 1.6869849008816458], [1678.6842286737394, 2.0], [1741.1011265922318, 2.34684472884015], [1849.6207977352751, 3.0], [1866.065983073597, 3.0962282850124176], [1999.9999999999777, 3.785329093629243], [2063.6373549705086, 4.0], [2143.5469250725646, 4.259559986262376], [2297.396709994046, 4.35069724881328], [2438.2827988578797, 4.0], [2462.2888266898062, 3.9422234031422234], [2637.2837478708943, 3.0], [2639.0158215457564, 2.9909998417259387], [2765.6945496928583, 2.0], [2828.427124746159, 1.5291421060808974], [2886.314681563838, 1.0], [2993.1526990832613, 0.0], [3031.4331330207656, -0.33372694362908645], [3101.356700121057, -1.0], [3202.844650928319, -2.0], [3249.0095854249043, -2.418361727242895], [3313.7360953949697, -3.0], [3420.888455610226, -4.0], [3482.2022531844555, -4.525713350518451], [3543.215954379412, -5.0], [3668.983508860112, -6.0], [3732.1319661471844, -6.462675705629022], [3820.344733071926, -7.0], [3988.6346708470423, -8.0], [3999.9999999999554, -8.063256987041779], [4233.38630029944, -9.0], [4287.093850145118, -9.204492381077882], [4594.793419988081, -9.800602461672455], [4924.577653379601, -9.816284088378286], [5278.0316430915, -9.241029006856715], [5356.873384160402, -9.0], [5656.854249492303, -8.091098936006777], [5679.546697607461, -8.0], [5922.360775610609, -7.0], [6062.866266041508, -6.441139744524191], [6158.261164463419, -6.0], [6365.6140300294455, -5.0], [6498.019170849792, -4.405575083715361], [6582.742806703765, -4.0], [6780.759594380318, -3.0], [6964.4045063688845, -2.1439187516060847], [6996.52522841419, -2.0], [7207.456859212763, -1.0], [7425.707679354121, 0.0], [7464.2639322943505, 0.1601130340662812], [7674.96802855869, 1.0], [7918.921343383587, 2.0], [7999.999999999882, 2.3082880212035835]], 'plus_line': [[125.0, 9.945207817383324], [133.9716828170366, 9.305137701277127], [136.57845291806385, 9.0], [143.5872943746293, 8.212219696367423], [145.15007008641476, 8.0], [152.70038966881015, 7.0], [153.89305166811442, 6.852571175395951], [160.16082280069148, 6.0], [164.93848884661162, 5.414958275312029], [168.49046774407967, 5.0], [176.77669529663666, 4.09546111047551], [177.86395785569988, 4.0], [189.46457081379947, 3.015238682954717], [189.75147668085063, 3.0], [203.0630990890585, 2.290304361377216], [217.6376408240306, 2.0397953727324776], [233.25824788420132, 2.210739487068082], [249.99999999999937, 2.752559750561849], [255.37433495748385, 3.0], [267.94336563407256, 3.5344016412085], [277.92329845369596, 4.0], [287.1745887492579, 4.405648383854652], [302.20497111096927, 5.0], [307.78610333622805, 5.204979727937825], [329.87697769322244, 5.762814532233506], [353.1816277277683, 6.0], [353.55339059327247, 6.003215410700694], [354.05559806542414, 6.0], [378.929141627598, 5.826761932653497], [406.12619817811606, 5.321308807104853], [419.4193481169073, 5.0], [435.2752816480607, 4.604928006793846], [461.4632156306145, 4.0], [466.5164957684015, 3.878442096325801], [499.9999999999975, 3.2852326170084316], [533.3805922956735, 3.0], [535.8867312681438, 2.9762920029595086], [574.3491774985143, 2.944644453988733], [584.330868778711, 3.0], [615.5722066724546, 3.1449121703079714], [659.7539553864432, 3.4440253110498302], [707.1067811865431, 3.7148793724167692], [757.8582832551941, 3.811051305673664], [812.2523963562301, 3.6279590477088437], [870.5505632961181, 3.163379742673956], [883.9615517106175, 3.0], [933.0329915368008, 2.4081431205612853], [961.967818830337, 2.0], [999.9999999999926, 1.4766687392195312], [1033.8304826852934, 1.0], [1071.773462536285, 0.47931581492623854], [1111.0254193441635, 0.0], [1148.6983549970246, -0.4561901984350298], [1209.1621675147796, -1.0], [1231.1444133449063, -1.2040058991409104], [1319.5079107728832, -1.6889713868356975], [1414.2135623730828, -1.8473498919833897], [1515.7165665103846, -1.6966440739496513], [1624.5047927124563, -1.251092873744404], [1666.2691298201205, -1.0], [1741.1011265922318, -0.5924341529635608], [1835.512832689671, 0.0], [1866.065983073597, 0.17782312612721252], [1999.9999999999827, 0.8913361646123101], [2028.4985225554794, 1.0], [2143.5469250725646, 1.3794828793805471], [2297.396709994046, 1.4973308406445052], [2462.2888266898062, 1.1311036864690007], [2486.198940681612, 1.0], [2639.01582154576, 0.19328477691411028], [2663.067532655456, 0.0], [2789.630851931894, -1.0], [2828.427124746162, -1.27491650607393], [2901.741859174786, -2.0], [3014.112781610635, -3.0], [3031.4331330207656, -3.138155781643939], [3113.2564748122268, -4.0], [3219.4127646088527, -5.0], [3249.0095854249043, -5.24177103455232], [3326.0503400435414, -6.0], [3435.75589780019, -7.0], [3482.2022531844555, -7.359150768942358], [3559.46528521776, -8.0], [3689.601138544674, -9.0], [3732.1319661471844, -9.284472448235991], [3846.0889095271914, -10.0], [3999.9999999999504, -10.851212845577006], [4036.784421371301, -11.0], [4287.093850145118, -11.962055923490244], [4306.544786948228, -12.0], [4594.793419988081, -12.57284261670273], [4924.577653379601, -12.605483616331568], [5278.031643091513, -12.05434494112867], [5296.7679612360025, -12.0], [5642.086160684098, -11.0], [5656.854249492303, -10.957801241571374], [5907.87551982072, -10.0], [6062.866266041508, -9.367441052416012], [6149.065781199004, -9.0], [6360.204298423567, -8.0], [6498.019170849792, -7.331860029453836], [6573.568888873958, -7.0], [6776.406655072584, -6.0], [6964.404506368894, -5.006429440348653], [6965.9769313092675, -5.0], [7197.605667071585, -4.0], [7393.67766149716, -3.0], [7464.2639322943505, -2.678212858933754], [7655.351349048052, -2.0], [7896.609335582428, -1.0], [7999.999999999882, -0.5912154533693067]], 'minus_line': [[125.0, 15.704040823656445], [132.38676617314042, 15.000000000000002], [133.9716828170366, 14.862973484506297], [141.59499204623543, 14.0], [143.5872943746293, 13.780397245021344], [149.85839040553796, 13.0], [153.89305166811442, 12.48914477203028], [157.86840652907745, 12.0], [164.93848884661162, 11.087980711446553], [165.74407097051497, 11.0], [174.83536198869993, 10.0], [176.77669529663666, 9.789772023082445], [186.2439795570201, 9.0], [189.46457081379947, 8.738200386382736], [203.0630990890585, 8.037779898290747], [204.90924449408658, 8.0], [217.6376408240306, 7.779661362421258], [233.25824788420132, 7.933351898973427], [235.32302534788127, 8.0], [249.99999999999937, 8.485924117360373], [261.7608368741359, 9.0], [267.94336563407256, 9.272930623280166], [284.10436993772237, 10.0], [287.1745887492579, 10.138107641759426], [307.78610333622805, 10.89793032798767], [312.266330585371, 11.0], [329.87697769322244, 11.414368460572732], [353.55339059327247, 11.559870502334102], [378.929141627598, 11.347353360443973], [396.59403254660606, 11.0], [406.12619817811606, 10.833807190671147], [435.2752816480601, 10.171127406486328], [442.6260582197839, 10.0], [466.5164957684015, 9.496113174021538], [495.35208815141664, 9.0], [499.99999999999693, 8.927265936245597], [535.8867312681438, 8.62879767702142], [574.3491774985151, 8.597341882055826], [615.5722066724546, 8.79470563846441], [644.40170780728, 9.0], [659.7539553864432, 9.119575644143591], [707.1067811865431, 9.417562706667384], [757.8582832551941, 9.512509416902084], [812.2523963562301, 9.312264912493777], [845.1316921309339, 9.0], [870.5505632961181, 8.785190356548416], [931.8666421952001, 8.0], [933.0329915368008, 7.9859932127919855], [999.9999999999926, 7.04075293707622], [1002.8779079339042, 7.0], [1071.773462536285, 6.0641921061082025], [1077.099921355142, 6.0], [1148.698354997026, 5.186975403588597], [1169.6165652845982, 5.0], [1231.1444133449063, 4.498091621651385], [1319.5079107728832, 4.045374303091031], [1347.2584756639037, 4.0], [1414.2135623730828, 3.9083784635898557], [1470.7909959191938, 4.0], [1515.7165665103846, 4.079898239011275], [1624.5047927124563, 4.541663956098252], [1706.7109103854486, 5.0], [1741.1011265922318, 5.197453071542398], [1866.065983073597, 5.944733161260199], [1876.4027670436838, 6.0], [1999.9999999999802, 6.666312318124079], [2101.2016602231597, 7.0], [2143.5469250725646, 7.149863448887136], [2297.396709994046, 7.263067767244221], [2400.363318509743, 7.0], [2462.2888266898062, 6.859963306580454], [2622.2255575944473, 6.0], [2639.0158215457564, 5.912822030338652], [2760.34006676629, 5.0], [2828.427124746159, 4.469498155380391], [2883.3277389943346, 4.0], [2988.8608167641223, 3.0], [3031.4331330207656, 2.60538125133337], [3100.21928709473, 2.0], [3199.3371416920068, 1.0], [3249.0095854249043, 0.5130761632435653], [3310.647786066806, 0.0], [3416.3588498522904, -1.0], [3482.2022531844555, -1.6186601689746758], [3534.1399015379006, -2.0], [3658.0332668421484, -3.0], [3732.1319661471844, -3.595807664374813], [3799.7594441648966, -4.0], [3957.2442190835272, -5.0], [3999.9999999999504, -5.256639770794169], [4177.938019130366, -6.0], [4287.093850145118, -6.442410057908363], [4547.688352658133, -7.000000000000001], [4594.7934199880865, -7.091374874650615], [4924.577653379601, -7.108969403252059], [4987.636617039818, -7.0], [5278.031643091513, -6.485656695765671], [5428.09774255159, -6.0], [5656.85424949231, -5.292973086095644], [5724.682688621804, -5.0], [5955.126380503163, -4.0], [6062.866266041508, -3.589220940835665], [6179.684017241099, -3.0], [6384.342262886891, -2.0], [6498.019170849792, -1.5323469233581686], [6600.858853330192, -1.0], [6793.056525812436, 0.0], [6964.404506368902, 0.7135593722487239], [7024.108975877078, 1.0], [7218.584263257908, 2.0], [7464.2639322943505, 2.9999308551764385], [7464.280658706418, 3.0], [7680.482310282672, 4.0], [7923.423109603652, 5.0], [7999.999999999882, 5.276809437671823]]}",cbtxie,001,fr,200,2022-05-05_15h42.23.151,Bayesian,2022.1.1,None,
