tTrials.thisRepN,tTrials.thisTrialN,tTrials.thisN,tTrials.thisIndex,blocks.thisRepN,blocks.thisTrialN,blocks.thisN,blocks.thisIndex,trials.thisRepN,trials.thisTrialN,trials.thisN,trials.thisIndex,tStart_text.started,tStart_text.stopped,Prediction,practice_Frequency,practice_Level,practice_Psychopy_Level,practice_isCatchTrial,Practice_trial_detection,practice_Cue_Delays,practice_Cue_Frequencies,practice_Interval,practice_Cue_Intensities,tCue_visual_cue.started,tCue_visual_cue.stopped,tProbe_visual_cue.started,tProbe_visual_cue.stopped,tFeedback.keys,tFeedback.corr,tFeedback.rt,tFeedback.started,tFeedback.stopped,tToo_late.keys,tToo_late.corr,tToo_early.keys,tToo_early.corr,more_instructions.started,more_instructions.stopped,readyy.keys,readyy.rt,readyy.started,readyy.stopped,txt_rhythm.started,txt_rhythm.stopped,sound_1.started,sound_1.stopped,sound_2.started,sound_2.stopped,sound_3.started,sound_3.stopped,sound_4.started,sound_4.stopped,cross.started,cross.stopped,sound_5.started,sound_5.stopped,circle.started,circle.stopped,rhythm_ready.keys,rhythm_ready.rt,rhythm_ready.started,rhythm_ready.stopped,rhytm_ready_txt.started,rhytm_ready_txt.stopped,txt_freq.started,txt_freq.stopped,sound_6.started,sound_6.stopped,sound_7.started,sound_7.stopped,sound_8.started,sound_8.stopped,sound_9.started,sound_9.stopped,cross_2.started,cross_2.stopped,sound_10.started,sound_10.stopped,circle_2.started,circle_2.stopped,freq_ready.keys,freq_ready.rt,freq_ready.started,freq_ready.stopped,freq_ready_txt.started,freq_ready_txt.stopped,txt_freq_2.started,txt_freq_2.stopped,sound_11.started,sound_11.stopped,sound_12.started,sound_12.stopped,sound_13.started,sound_13.stopped,sound_14.started,sound_14.stopped,cross_3.started,cross_3.stopped,sound_15.started,sound_15.stopped,circle_3.started,circle_3.stopped,freq_ready_2.keys,freq_ready_2.rt,freq_ready_2.started,freq_ready_2.stopped,freq_ready_txt_2.started,freq_ready_txt_2.stopped,txt_freq_3.started,txt_freq_3.stopped,sound_16.started,sound_16.stopped,sound_17.started,sound_17.stopped,sound_18.started,sound_18.stopped,sound_19.started,sound_19.stopped,cross_4.started,cross_4.stopped,sound_20.started,sound_20.stopped,circle_4.started,circle_4.stopped,freq_ready_txt_3.started,freq_ready_txt_3.stopped,tStart_text_2.started,tStart_text_2.stopped,this_trial_is.started,this_trial_is.stopped,Frequency,Level,Psychopy_Level,Real trial detection,Cue Delays,Cue Frequencies,Interval,Cue Intensities,Catch trial,cue_visual_cue.started,cue_visual_cue.stopped,probe_visual_cue.started,probe_visual_cue.stopped,feedback.keys,feedback.corr,feedback.rt,feedback.started,feedback.stopped,answer_too_late.keys,answer_too_late.corr,answer_too_early.keys,answer_too_early.corr,Catch trial answer,answer_too_early.rt,Audiogram_time,Audiogram_none,Audiogram_frequency,Audiogram_both,participant,session,Language (english or french),Skip training? (1 for yes),Resume previous experiment,date,expName,psychopyVersion,frameRate,
0,0,0,0,,,,,,,,,15.233957699965686,None,frequency,1000,30,0.0013930605843148849,False,1,"[0.4838276586293387, 0.6868606483604509, 0.7106037349229974, 0.588335640300013]","[198.42513149602496, 297.3017787506803, 445.4493590701697, 667.4199270850172]",Perfect_5th,"[30, 30, 30, 30]",37.85896630003117,40.65520190005191,40.65520190005191,41.864993300056085,['space'],1,[0.6251055998727679],40.65520190005191,42.45797420013696,None,1,None,1,,,,,,,,,,,,,,,,,,,,,,,,,,,,,,,,,,,,,,,,,,,,,,,,,,,,,,,,,,,,,,,,,,,,,,,,,,,,,,,,,,,,,,,,,,,,,,,,,,,,,,,,,,,,,,,,,,,,,,,,,,,nlhglm,001,fr,0,0,2022-05-09_14h49.52.594,Cluster,2022.1.1,36.090607616575966,
1,0,1,0,,,,,,,,,,,none,2500,30,0.002716251657462167,False,1,"[0.4087588533318782, 0.5392870144190611, 0.7480023779188418, 0.7802147168033118]","[149.11196275208405, 6302.140249111314, 7578.864073884458, 3388.325101576257]",None,"[30, 30, 30, 30]",47.864973600022495,50.49600489996374,50.49600489996374,51.7247107999865,['space'],1,[1.1026913998648524],50.49600489996374,52.494736100081354,None,1,None,1,,,,,,,,,,,,,,,,,,,,,,,,,,,,,,,,,,,,,,,,,,,,,,,,,,,,,,,,,,,,,,,,,,,,,,,,,,,,,,,,,,,,,,,,,,,,,,,,,,,,,,,,,,,,,,,,,,,,,,,,,,,nlhglm,001,fr,0,0,2022-05-09_14h49.52.594,Cluster,2022.1.1,36.090607616575966,
2,0,2,0,,,,,,,,,,,both,6000,30,0.003664122665694519,True,1,"[0.48926364854853993, 0.48926364854853993, 0.48926364854853993, 0.48926364854853993]","[2381.1015779523, 3000.000000000001, 3779.76314968462, 4762.203155904599]",Major_3rd,"[30, 30, 30, 30]",58.9829510001,61.389672100078315,61.389672100078315,62.60080430004746,None,1,,61.389672100078315,63.0931631999556,None,1,None,1,,,,,,,,,,,,,,,,,,,,,,,,,,,,,,,,,,,,,,,,,,,,,,,,,,,,,,,,,,,,,,,,,,,,,,,,,,,,,,,,,,,,,,,,,,,,,,,,,,,,,,,,,,,,,,,,,,,,,,,,,,,nlhglm,001,fr,0,0,2022-05-09_14h49.52.594,Cluster,2022.1.1,36.090607616575966,
3,0,3,0,,,,,,,,,,,both,440,30,0.0023562289915021436,False,1,"[0.6787907386646795, 0.6787907386646795, 0.6787907386646795, 0.6787907386646795]","[174.614115716502, 220.00000000000006, 277.18263097687213, 349.2282314330039]",Major_3rd,"[30, 30, 30, 30]",67.68453980004415,70.63238080008887,70.63238080008887,71.85307660000399,['space'],1,[1.1909487997181714],70.63238080008887,72.52737849997357,None,1,None,1,,,,,,,,,,,,,,,,,,,,,,,,,,,,,,,,,,,,,,,,,,,,,,,,,,,,,,,,,,,,,,,,,,,,,,,,,,,,,,,,,,,,,,,,,,,,,,,,,,,,,,,,,,,,,,,,,,,,,,,,,,,nlhglm,001,fr,0,0,2022-05-09_14h49.52.594,Cluster,2022.1.1,36.090607616575966,
4,0,4,0,,,,,,,,,,,none,250,30,0.005296268625886445,True,1,"[0.6631463119812369, 0.7021176169183949, 0.5932600902382426, 0.7459516305754739]","[4501.799923676303, 1644.0950808079, 143.67341547217546, 1083.2112526856965]",None,"[30, 30, 30, 30]",76.99107769993134,79.88334820000455,79.88334820000455,81.11189409997314,None,1,,79.88334820000455,81.83299909997731,None,1,None,1,,,,,,,,,,,,,,,,,,,,,,,,,,,,,,,,,,,,,,,,,,,,,,,,,,,,,,,,,,,,,,,,,,,,,,,,,,,,,,,,,,,,,,,,,,,,,,,,,,,,,,,,,,,,,,,,,,,,,,,,,,,nlhglm,001,fr,0,0,2022-05-09_14h49.52.594,Cluster,2022.1.1,36.090607616575966,
,,,,,,,,,,,,,,,,,,,,,,,,,,,,,,,,,,,,,86.08304019994102,None,space,28.780119799776003,86.08304019994102,None,,,,,,,,,,,,,,,,,,,,,,,,,,,,,,,,,,,,,,,,,,,,,,,,,,,,,,,,,,,,,,,,,,,,,,,,,,,,,,,,,,,,,,,,,,,,,,,,,,,,,,,,,,,,,,,,,,,,,nlhglm,001,fr,0,0,2022-05-09_14h49.52.594,Cluster,2022.1.1,36.090607616575966,
,,,,,,,,,,,,,,,,,,,,,,,,,,,,,,,,,,,,,,,,,,,114.91472110012546,115.93356820009649,116.39566345009953,None,116.90526185007766,None,117.3840673499275,117.61002529994585,117.9016949500423,118.11834060004912,116.30932310014032,118.11834060004912,118.40571485003457,118.62556049996056,118.11834060004912,118.94803080009297,space,2.3571364998351783,119.08179600001313,None,,,,,,,,,,,,,,,,,,,,,,,,,,,,,,,,,,,,,,,,,,,,,,,,,,,,,,,,,,,,,,,,,,,,,,,,,,,,,,,,,,,,,,,,,,,,,,,,,nlhglm,001,fr,0,0,2022-05-09_14h49.52.594,Cluster,2022.1.1,36.090607616575966,
,,,,,,,,,,,,,,,,,,,,,,,,,,,,,,,,,,,,,,,,,,,,,,,,,,,,,,,,,,,,,,,119.08179600001313,None,121.50292260013521,122.51297760009766,122.98072554995306,123.19295260007493,123.27579825008289,123.48723380011506,123.98509594993666,None,124.3814933501184,None,122.89500349992886,124.67216940014623,124.97764964993112,125.19021390005946,124.67216940014623,125.47902050008997,space,1.741492899833247,125.68108110013418,None,,,,,,,,,,,,,,,,,,,,,,,,,,,,,,,,,,,,,,,,,,,,,,,,,,,,,,,,,,,,,,,,,,,,,,,,,,,nlhglm,001,fr,0,0,2022-05-09_14h49.52.594,Cluster,2022.1.1,36.090607616575966,
,,,,,,,,,,,,,,,,,,,,,,,,,,,,,,,,,,,,,,,,,,,,,,,,,,,,,,,,,,,,,,,,,,,,,,,,,,,,,,,,,,,,,125.68108110013418,None,127.47596390009858,128.50599800003693,128.9669271501247,129.185444700066,129.45077775008977,129.67150739999488,129.96272235000507,None,130.45877405009233,None,128.8490649999585,130.66756670014001,130.95855385004543,131.17253500013612,130.66756670014001,131.4944452000782,space,1.2799349997658283,131.6633932001423,None,,,,,,,,,,,,,,,,,,,,,,,,,,,,,,,,,,,,,,,,,,,,,,,,,,,,,nlhglm,001,fr,0,0,2022-05-09_14h49.52.594,Cluster,2022.1.1,36.090607616575966,
,,,,0,0,0,0,0,0,0,0,,,both,,,,,,,,,,,,,,,,,,,,,,,,,,,,,,,,,,,,,,,,,,,,,,,,,,,,,,,,,,,,,,,,,,,,,,,,,,,,,,,,,,,,,,,,,,,,,131.6633932001423,None,132.97936860006303,133.98046220000833,134.44276144993492,134.66418990003876,134.72038635015488,134.93779919994995,135.42673855004833,135.64885220001452,135.8489432501141,136.0659799000714,134.33112139999866,136.121203500079,136.44026854992845,136.65283229993656,136.121203500079,136.93281100015156,137.14147839997895,None,138.14140060008503,None,171.19124520011246,None,6460.963350202785,-5.999999999999999,6.760372292367654e-05,1,"[0.6230916196452086, 0.6230916196452086, 0.6230916196452086, 0.6230916196452086]","[2564.0350047099714, 3230.481675101393, 4070.1518637598956, 5128.070009419942]",Major_3rd,"[10.64413019887376, 8.0, 5.0, 3.452465288090184]",False,172.20209280005656,175.0862889001146,175.0862889001146,176.30215270002373,['space'],1,[0.4121785999741405],3.5001355002168566,4.519460800103843,None,1,None,1,,,,,,,nlhglm,001,fr,0,0,2022-05-09_14h49.52.594,Cluster,2022.1.1,36.090607616575966,
,,,,0,0,0,0,1,0,1,0,,,both,,,,,,,,,,,,,,,,,,,,,,,,,,,,,,,,,,,,,,,,,,,,,,,,,,,,,,,,,,,,,,,,,,,,,,,,,,,,,,,,,,,,,,,,,,,,,,,,,,,,,,,,,,,,,,,,,,,176.76655040006153,None,176.7766952966369,0.0,0.0003500209769801159,1,"[0.42710715460884363, 0.42710715460884363, 0.42710715460884363, 0.42710715460884363]","[445.44935907016975, 353.55339059327383, 280.6155120773433, 222.72467953508485]",Major_3rd,"[12.0, 9.902816769994493, 9.638314099777514, 12.0]",False,178.23062489996664,180.52964990003966,180.52964990003966,181.73083820007741,['space'],1,[0.4973544997628778],2.754137549782172,3.774826749926433,None,1,None,1,,,,,,,nlhglm,001,fr,0,0,2022-05-09_14h49.52.594,Cluster,2022.1.1,36.090607616575966,
,,,,0,0,0,0,2,0,2,0,,,none,,,,,,,,,,,,,,,,,,,,,,,,,,,,,,,,,,,,,,,,,,,,,,,,,,,,,,,,,,,,,,,,,,,,,,,,,,,,,,,,,,,,,,,,,,,,,,,,,,,,,,,,,,,,,,,,,,,182.03093870007433,None,555.3521534414712,8.667483670350345,0.00017037316408467437,1,"[0.45477943917839553, 0.4144954100248108, 0.6041704656646175, 0.7340841506009471]","[615.1571255602154, 438.78522862740476, 1792.3661584916356, 276.35827618319536]",None,"[15.245364980628292, 12.0, 7.0, 10.0]",False,183.03415099997073,185.5396982000675,185.5396982000675,186.74429589998908,['space'],1,[0.4239878999069333],3.2310207998380065,4.24069569981657,None,1,None,1,,,,,,,nlhglm,001,fr,0,0,2022-05-09_14h49.52.594,Cluster,2022.1.1,36.090607616575966,
,,,,0,0,0,0,3,0,3,0,,,time,,,,,,,,,,,,,,,,,,,,,,,,,,,,,,,,,,,,,,,,,,,,,,,,,,,,,,,,,,,,,,,,,,,,,,,,,,,,,,,,,,,,,,,,,,,,,,,,,,,,,,,,,,,,,,,,,,,187.32227850006893,None,,,,,"[0.6158362890110085, 0.6158362890110085, 0.6158362890110085, 0.6158362890110085]","[540.7053856875402, 5560.158704576771, 411.5870463848895, 2564.237493807475]",None,"[14.0, 3.0, 11.154379536012986, 10.64413019887376]",True,188.33256000000983,191.20561600010842,191.20561600010842,192.42352680000477,None,1,,3.490979399997741,4.513510900083929,None,1,None,1,0,,,,,,nlhglm,001,fr,0,0,2022-05-09_14h49.52.594,Cluster,2022.1.1,36.090607616575966,
,,,,0,0,0,0,4,0,4,0,,,frequency,,,,,,,,,,,,,,,,,,,,,,,,,,,,,,,,,,,,,,,,,,,,,,,,,,,,,,,,,,,,,,,,,,,,,,,,,,,,,,,,,,,,,,,,,,,,,,,,,,,,,,,,,,,,,,,,,,,192.8901823000051,None,372.37505634968255,4.474664409935791,0.00014015024385745603,1,"[0.5704833349331626, 0.7984875490470713, 0.5639863545072502, 0.4007568778630716]","[1876.6526878030184, 1252.515400057392, 835.9537369791658, 557.9321821810825]",Perfect_5th,"[7.421528439391121, 5.0, 14.0, 14.667483670350345]",False,193.88987690000795,196.8575272001326,196.8575272001326,198.0726781000849,['space'],1,[0.4497434999793768],3.3430906997527927,4.343631099909544,None,1,None,1,,,,,,,nlhglm,001,fr,0,0,2022-05-09_14h49.52.594,Cluster,2022.1.1,36.090607616575966,
,,,,0,0,0,0,5,0,5,0,,,both,,,,,,,,,,,,,,,,,,,,,,,,,,,,,,,,,,,,,,,,,,,,,,,,,,,,,,,,,,,,,,,,,,,,,,,,,,,,,,,,,,,,,,,,,,,,,,,,,,,,,,,,,,,,,,,,,,,198.2846061999444,None,1319.3158124366603,-1.4380079030766173,4.4733987438617275e-05,1,"[0.4213156799926395, 0.4213156799926395, 0.4213156799926395, 0.4213156799926395]","[6648.935054192419, 4437.631749062119, 2961.7638583891967, 1976.7402184091568]",Perfect_5th,"[-1.0, 4.585532564029018, 9.081846481128295, 8.63355989040143]",False,199.28189700003713,201.5852045000065,201.5852045000065,202.80147790000774,['space'],1,[0.39871679968200624],2.7062296997755766,3.714277899824083,None,1,None,1,,,,,,,nlhglm,001,fr,0,0,2022-05-09_14h49.52.594,Cluster,2022.1.1,36.090607616575966,
,,,,0,0,0,0,6,0,6,0,,,time,,,,,,,,,,,,,,,,,,,,,,,,,,,,,,,,,,,,,,,,,,,,,,,,,,,,,,,,,,,,,,,,,,,,,,,,,,,,,,,,,,,,,,,,,,,,,,,,,,,,,,,,,,,,,,,,,,,203.04666200000793,None,6131.024875082935,-5.0,6.863072513484277e-05,1,"[0.4042778150793956, 0.4042778150793956, 0.4042778150793956, 0.4042778150793956]","[2083.0492433151385, 1686.4863313605738, 4604.170984599358, 4353.152109585745]",None,"[9.0, 6.0, 4.27301836022609, 4.585532564029018]",False,204.0591142999474,206.30571610014886,206.30571610014886,207.51686029997654,['space'],1,[0.4494508998468518],2.6463844999670982,3.6487573999911547,None,1,None,1,,,,,,,nlhglm,001,fr,0,0,2022-05-09_14h49.52.594,Cluster,2022.1.1,36.090607616575966,
,,,,0,0,0,0,7,0,7,0,,,frequency,,,,,,,,,,,,,,,,,,,,,,,,,,,,,,,,,,,,,,,,,,,,,,,,,,,,,,,,,,,,,,,,,,,,,,,,,,,,,,,,,,,,,,,,,,,,,,,,,,,,,,,,,,,,,,,,,,,207.7539603000041,None,176.7766952966369,0.0,0.0003500209769801159,0,"[0.5892696431612235, 0.4243114490841563, 0.7722962139894832, 0.44289839342361986]","[280.61551207734334, 250.00000000000006, 222.72467953508487, 198.42513149602496]",Tone,"[9.638314099777514, 10.782137438800723, 12.0, 12.384595368515688]",False,208.7849437999539,211.58310379995964,211.58310379995964,212.78296250011772,None,0,,3.271778249880299,4.291516450000927,None,1,None,1,,,,,,,nlhglm,001,fr,0,0,2022-05-09_14h49.52.594,Cluster,2022.1.1,36.090607616575966,
,,,,0,0,0,0,8,0,8,0,,,frequency,,,,,,,,,,,,,,,,,,,,,,,,,,,,,,,,,,,,,,,,,,,,,,,,,,,,,,,,,,,,,,,,,,,,,,,,,,,,,,,,,,,,,,,,,,,,,,,,,,,,,,,,,,,,,,,,,,,213.10823859996162,None,206.35830070703886,6.384595368515688,0.0005276242117424261,1,"[0.6693642552887276, 0.6806623406488107, 0.5614723666992483, 0.6252269115850204]","[327.57338362472353, 291.8347075681598, 259.99516688133434, 231.62936089726438]",Tone,"[9.530692052403078, 9.638314099777514, 10.12521572052971, 11.479029571563201]",False,214.09845950012095,217.02801190013997,217.02801190013997,218.25229889992625,['space'],1,[0.28598979976959527],3.5392281997483224,4.550934799714014,None,1,None,1,,,,,,,nlhglm,001,fr,0,0,2022-05-09_14h49.52.594,Cluster,2022.1.1,36.090607616575966,
,,,,0,0,0,0,9,0,9,0,,,time,,,,,,,,,,,,,,,,,,,,,,,,,,,,,,,,,,,,,,,,,,,,,,,,,,,,,,,,,,,,,,,,,,,,,,,,,,,,,,,,,,,,,,,,,,,,,,,,,,,,,,,,,,,,,,,,,,,218.69900340004824,None,,,,,"[0.7667152540943447, 0.7667152540943447, 0.7667152540943447, 0.7667152540943447]","[1012.0269315559717, 1274.086468776209, 7171.329237859257, 223.06620272194274]",None,"[9.823138028380729, 5.0, -3.0, 12.0]",True,219.7183555001393,223.05269860010594,223.05269860010594,224.25873919995502,['space'],0,[0.37595709995366633],4.084503599908203,5.106433199951425,None,1,None,1,0,,,,,,nlhglm,001,fr,0,0,2022-05-09_14h49.52.594,Cluster,2022.1.1,36.090607616575966,
,,,,0,0,0,0,10,0,10,0,,,frequency,,,,,,,,,,,,,,,,,,,,,,,,,,,,,,,,,,,,,,,,,,,,,,,,,,,,,,,,,,,,,,,,,,,,,,,,,,,,,,,,,,,,,,,,,,,,,,,,,,,,,,,,,,,,,,,,,,,224.87107560015284,None,329.87697769322364,-4.0,5.9788848976237954e-05,1,"[0.7217625691152681, 0.5250726860907255, 0.4762632178610969, 0.5993534480030301]","[207.80947403569695, 233.25824788420186, 261.8235307051567, 293.8869765709022]",Tone,"[12.384595368515688, 11.479029571563201, 10.12521572052971, 9.638314099777514]",False,225.90046650008298,228.66346250008792,228.66346250008792,229.89278190000914,['space'],1,[0.9432172998785973],3.349153950344771,4.376537450356409,None,1,None,1,,,,,,,nlhglm,001,fr,0,0,2022-05-09_14h49.52.594,Cluster,2022.1.1,36.090607616575966,
,,,,0,0,0,0,11,0,11,0,,,frequency,,,,,,,,,,,,,,,,,,,,,,,,,,,,,,,,,,,,,,,,,,,,,,,,,,,,,,,,,,,,,,,,,,,,,,,,,,,,,,,,,,,,,,,,,,,,,,,,,,,,,,,,,,,,,,,,,,,230.30638960003853,None,3807.7402653804743,-0.2030718420242837,7.870352550153044e-05,0,"[0.4290345086951377, 0.6433682311837594, 0.704627217596991, 0.5332357427549349]","[755.5513628608296, 1132.0479539182024, 1696.15546071941, 2541.3617302789203]",Perfect_5th,"[15.32905364367366, 7.0, 6.0, 10.7928107105889]",False,231.29826109996065,234.10224630008452,234.10224630008452,235.31528039998375,None,0,,3.318801200017333,4.3245922001078725,None,1,None,1,,,,,,,nlhglm,001,fr,0,0,2022-05-09_14h49.52.594,Cluster,2022.1.1,36.090607616575966,
,,,,0,0,0,0,12,0,12,0,,,frequency,,,,,,,,,,,,,,,,,,,,,,,,,,,,,,,,,,,,,,,,,,,,,,,,,,,,,,,,,,,,,,,,,,,,,,,,,,,,,,,,,,,,,,,,,,,,,,,,,,,,,,,,,,,,,,,,,,,235.67716790013947,None,1231.1444133449168,4.0,8.51413334521805e-05,1,"[0.7408309784019113, 0.7728611409734714, 0.431903886700027, 0.6801943405189099]","[775.5723809168675, 870.5505632961243, 977.1599684342463, 1096.8249796946263]",Tone,"[15.0, 13.227877515962216, 10.0, 8.0]",False,237.36067979992367,240.32178270001896,240.32178270001896,241.5532961001154,['space'],1,[0.3509597999509424],3.642767949961126,4.655952350003645,None,1,None,1,,,,,,,nlhglm,001,fr,0,0,2022-05-09_14h49.52.594,Cluster,2022.1.1,36.090607616575966,
,,,,0,0,0,0,13,0,13,0,,,none,,,,,,,,,,,,,,,,,,,,,,,,,,,,,,,,,,,,,,,,,,,,,,,,,,,,,,,,,,,,,,,,,,,,,,,,,,,,,,,,,,,,,,,,,,,,,,,,,,,,,,,,,,,,,,,,,,,242.05860370001756,None,176.7766952966369,0.0,0.0003500209769801159,1,"[0.6662433139442623, 0.429368270619401, 0.6267816888521328, 0.7429598466397102]","[161.5382625508973, 1689.126672230382, 982.7972490200461, 423.1690503214238]",None,"[11.584848593831634, 6.0, 10.0, 11.867488779501988]",False,243.14407079992816,245.89457820006646,245.89457820006646,247.10534629994072,['space'],1,[0.4511229998897761],3.494092950131744,4.517967050196603,None,1,None,1,,,,,,,nlhglm,001,fr,0,0,2022-05-09_14h49.52.594,Cluster,2022.1.1,36.090607616575966,
,,,,0,0,0,0,14,0,14,0,,,none,,,,,,,,,,,,,,,,,,,,,,,,,,,,,,,,,,,,,,,,,,,,,,,,,,,,,,,,,,,,,,,,,,,,,,,,,,,,,,,,,,,,,,,,,,,,,,,,,,,,,,,,,,,,,,,,,,,247.69589660014026,None,3207.4249352519178,2.0,8.815909268432726e-05,1,"[0.7240450379633332, 0.4996523246807796, 0.4954257867210595, 0.5872030925961255]","[1158.9257517012175, 1238.4347087332662, 4910.943468781633, 449.37592879815907]",None,"[6.501102016365267, 5.305065038527883, 3.9525763145982866, 12.0]",False,248.70895910006948,251.45075840014033,251.45075840014033,252.67319509992376,['space'],1,[0.38232849980704486],3.326003900030628,4.331528600072488,None,1,None,1,,,,,,,nlhglm,001,fr,0,0,2022-05-09_14h49.52.594,Cluster,2022.1.1,36.090607616575966,
,,,,0,0,0,0,15,0,15,0,,,none,,,,,,,,,,,,,,,,,,,,,,,,,,,,,,,,,,,,,,,,,,,,,,,,,,,,,,,,,,,,,,,,,,,,,,,,,,,,,,,,,,,,,,,,,,,,,,,,,,,,,,,,,,,,,,,,,,,253.09609859995544,None,,,,,"[0.4705451603399142, 0.5333380902157216, 0.6935552293233915, 0.41363871084859016]","[2905.538833861806, 2397.2144795451877, 558.0081515542711, 584.1535645222897]",None,"[10.0, 10.7928107105889, 14.667483670350345, 14.667483670350345]",True,254.08679430000484,256.8107660000678,256.8107660000678,258.02656639995985,['space'],0,[0.9276372999884188],3.1475941999815404,4.161892100004479,None,1,None,1,0,,,,,,nlhglm,001,fr,0,0,2022-05-09_14h49.52.594,Cluster,2022.1.1,36.090607616575966,
,,,,0,0,0,0,16,0,16,0,,,none,,,,,,,,,,,,,,,,,,,,,,,,,,,,,,,,,,,,,,,,,,,,,,,,,,,,,,,,,,,,,,,,,,,,,,,,,,,,,,,,,,,,,,,,,,,,,,,,,,,,,,,,,,,,,,,,,,,258.29496760014445,None,353.5533905932738,-2.0,7.038727582816145e-05,0,"[0.7366578338532533, 0.5287932670127988, 0.6884014847681368, 0.5957877819017688]","[2600.6403811972295, 2364.5425481728494, 150.52241687661305, 169.43237185709114]",None,"[10.64413019887376, 10.463104830656292, 10.914396673838478, 11.584848593831634]",False,259.3037652000785,262.2827872999478,262.2827872999478,263.51050930004567,None,0,,3.5862381502520293,4.597875650040805,None,1,None,1,,,,,,,nlhglm,001,fr,0,0,2022-05-09_14h49.52.594,Cluster,2022.1.1,36.090607616575966,
,,,,0,0,0,0,17,0,17,0,,,none,,,,,,,,,,,,,,,,,,,,,,,,,,,,,,,,,,,,,,,,,,,,,,,,,,,,,,,,,,,,,,,,,,,,,,,,,,,,,,,,,,,,,,,,,,,,,,,,,,,,,,,,,,,,,,,,,,,263.9338088000659,None,1853.495148154085,1.4215284393911212,8.032289640530316e-05,1,"[0.6954781960232388, 0.6705602280984726, 0.719094348563175, 0.413195994502415]","[241.15197936202406, 1129.8258879928962, 1050.9760916178245, 167.44524371037573]",None,"[11.0, 7.0, 9.0, 11.584848593831634]",False,264.9454632999841,268.06375339999795,268.06375339999795,269.2896714999806,['space'],1,[0.3134153999853879],3.5272897998802364,4.537861599819735,None,1,None,1,,,,,,,nlhglm,001,fr,0,0,2022-05-09_14h49.52.594,Cluster,2022.1.1,36.090607616575966,
,,,,0,0,0,0,18,0,18,0,,,frequency,,,,,,,,,,,,,,,,,,,,,,,,,,,,,,,,,,,,,,,,,,,,,,,,,,,,,,,,,,,,,,,,,,,,,,,,,,,,,,,,,,,,,,,,,,,,,,,,,,,,,,,,,,,,,,,,,,,269.53930040006526,None,4179.396957366856,-1.4144674359709826,8.181438656313537e-05,1,"[0.6941340939185491, 0.7081904930141367, 0.5291654465540018, 0.4380236074506097]","[1658.5947816792104, 2089.6984786834287, 2632.855101226545, 3317.1895633584204]",Major_3rd,"[5.238359735917687, 9.0, 10.64413019887376, 7.934248541767307]",False,270.54017050005496,273.51701529999264,273.51701529999264,274.73170770006254,['space'],1,[0.31531409989111125],3.3874281998723745,4.39992620004341,None,1,None,1,,,,,,,nlhglm,001,fr,0,0,2022-05-09_14h49.52.594,Cluster,2022.1.1,36.090607616575966,
,,,,0,0,0,0,19,0,19,0,,,both,,,,,,,,,,,,,,,,,,,,,,,,,,,,,,,,,,,,,,,,,,,,,,,,,,,,,,,,,,,,,,,,,,,,,,,,,,,,,,,,,,,,,,,,,,,,,,,,,,,,,,,,,,,,,,,,,,,274.99714850005694,None,353.5533905932738,-1.0,7.897582242723967e-05,0,"[0.5934584199406119, 0.5934584199406119, 0.5934584199406119, 0.5934584199406119]","[1781.7974362806788, 1189.2071150027211, 793.7005259840998, 529.7315471796477]",Perfect_5th,"[7.0, 6.0, 15.0, 13.999630326367877]",False,276.0292635001242,278.8382964001503,278.8382964001503,280.0672464000527,None,0,,3.409640750149265,4.420673350105062,None,1,None,1,,,,,,,nlhglm,001,fr,0,0,2022-05-09_14h49.52.594,Cluster,2022.1.1,36.090607616575966,
,,,,1,0,1,0,0,0,0,0,,,frequency,,,,,,,,,,,,,,,,,,,,,,,,,,,,,,,,,,,,,,,,,,,,,,,,,,,,,,,,,,,,,,,,,,,,,,,,,,,,,,,,,,,,,,,,,,,,,,,,,,,,,,,,,,,,,,,,,,,293.3976966000628,None,,,,,"[0.5370211402301661, 0.765692266834456, 0.6391694793240155, 0.7286948135631679]","[267.3891451539532, 300.1341675651986, 336.8892124928614, 378.14535550806886]",Tone,"[10.12521572052971, 9.432336453088666, 9.530692052403078, 10.47466440993579]",True,294.3636974999681,297.33607510011643,297.33607510011643,298.5564544000663,None,1,,3.7006488000042737,4.717139499960467,None,1,None,1,0,,,,,,nlhglm,001,fr,0,0,2022-05-09_14h49.52.594,Cluster,2022.1.1,36.090607616575966,
,,,,1,0,1,0,1,0,1,0,,,time,,,,,,,,,,,,,,,,,,,,,,,,,,,,,,,,,,,,,,,,,,,,,,,,,,,,,,,,,,,,,,,,,,,,,,,,,,,,,,,,,,,,,,,,,,,,,,,,,,,,,,,,,,,,,,,,,,,299.12367260013707,None,176.7766952966369,0.0,0.0003500209769801159,1,"[0.5603809889696064, 0.5603809889696064, 0.5603809889696064, 0.5603809889696064]","[609.2768057371667, 3527.782359805701, 853.7085467966416, 472.5021036729814]",None,"[15.245364980628292, 6.78511766356254, 13.227877515962216, 12.58752167620985]",False,300.1546312000137,302.8752884999849,302.8752884999849,304.0852348001208,['space'],1,[0.37203249987214804],3.2654284501913935,4.28741225018166,None,1,None,1,,,,,,,nlhglm,001,fr,0,0,2022-05-09_14h49.52.594,Cluster,2022.1.1,36.090607616575966,
,,,,1,0,1,0,2,0,2,0,,,both,,,,,,,,,,,,,,,,,,,,,,,,,,,,,,,,,,,,,,,,,,,,,,,,,,,,,,,,,,,,,,,,,,,,,,,,,,,,,,,,,,,,,,,,,,,,,,,,,,,,,,,,,,,,,,,,,,,304.47994580003433,None,303.02241406140115,3.4323364530886673,0.00016525407249597595,0,"[0.6161065481512805, 0.6161065481512805, 0.6161065481512805, 0.6161065481512805]","[1527.1372722636781, 1019.241846903036, 680.2623191420225, 454.0206274404534]",Perfect_5th,"[4.564443575721455, 9.0, 15.620563390405254, 12.58752167620985]",False,305.4924908000976,308.38536319998093,308.38536319998093,309.59408310009167,None,0,,3.489109799731523,4.510059499880299,None,1,None,1,,,,,,,nlhglm,001,fr,0,0,2022-05-09_14h49.52.594,Cluster,2022.1.1,36.090607616575966,
,,,,1,0,1,0,3,0,3,0,,,time,,,,,,,,,,,,,,,,,,,,,,,,,,,,,,,,,,,,,,,,,,,,,,,,,,,,,,,,,,,,,,,,,,,,,,,,,,,,,,,,,,,,,,,,,,,,,,,,,,,,,,,,,,,,,,,,,,,310.0603406999726,None,2611.859287873611,4.6441301988737616,0.00013474927529790498,1,"[0.5694456365792918, 0.5694456365792918, 0.5694456365792918, 0.5694456365792918]","[414.78185656146417, 749.1387828367294, 338.7714428492139, 2246.5091032453242]",None,"[11.154379536012986, 15.32905364367366, 9.530692052403078, 10.0]",False,311.06288200011477,313.80588430003263,313.80588430003263,315.02946639992297,['space'],1,[0.3913541999645531],3.2846957999281585,4.310144700109959,None,1,None,1,,,,,,,nlhglm,001,fr,0,0,2022-05-09_14h49.52.594,Cluster,2022.1.1,36.090607616575966,
,,,,1,0,1,0,4,0,4,0,,,time,,,,,,,,,,,,,,,,,,,,,,,,,,,,,,,,,,,,,,,,,,,,,,,,,,,,,,,,,,,,,,,,,,,,,,,,,,,,,,,,,,,,,,,,,,,,,,,,,,,,,,,,,,,,,,,,,,,315.4268630000297,None,353.5533905932738,-4.0,5.591060055563459e-05,0,"[0.4264437433564397, 0.4264437433564397, 0.4264437433564397, 0.4264437433564397]","[486.2506708846749, 905.3847347273618, 225.34998285155817, 7633.389628330855]",None,"[13.0, 12.0, 12.0, -4.0]",False,317.05982080008835,319.3663071000483,319.3663071000483,320.5928450000938,None,0,,2.740240150131285,3.7724026499781758,None,1,None,1,,,,,,,nlhglm,001,fr,0,0,2022-05-09_14h49.52.594,Cluster,2022.1.1,36.090607616575966,
,,,,1,0,1,0,5,0,5,0,,,none,,,,,,,,,,,,,,,,,,,,,,,,,,,,,,,,,,,,,,,,,,,,,,,,,,,,,,,,,,,,,,,,,,,,,,,,,,,,,,,,,,,,,,,,,,,,,,,,,,,,,,,,,,,,,,,,,,,320.87296860013157,None,1148.6983549970344,5.0,8.9397783717774e-05,1,"[0.40815985645299674, 0.6538433385670803, 0.5302638169910363, 0.7979554891212037]","[403.037983130927, 630.9663872574022, 658.5426809343019, 636.0358189719977]",None,"[11.154379536012986, 15.245364980628292, 15.620563390405254, 15.245364980628292]",False,321.8814545001369,324.4863569000736,324.4863569000736,325.7064127000049,['space'],1,[0.47140819975174963],3.408639950444922,4.4227371502202,None,1,None,1,,,,,,,nlhglm,001,fr,0,0,2022-05-09_14h49.52.594,Cluster,2022.1.1,36.090607616575966,
,,,,1,0,1,0,6,0,6,0,,,both,,,,,,,,,,,,,,,,,,,,,,,,,,,,,,,,,,,,,,,,,,,,,,,,,,,,,,,,,,,,,,,,,,,,,,,,,,,,,,,,,,,,,,,,,,,,,,,,,,,,,,,,,,,,,,,,,,,326.3373148001265,None,,,,,"[0.6035150370579339, 0.6035150370579339, 0.6035150370579339, 0.6035150370579339]","[1266.7233405509542, 1005.3989816716281, 797.9857005766495, 633.361670275477]",Major_3rd,"[5.0, 9.823138028380729, 14.499522387231952, 15.245364980628292]",True,327.3427556999959,330.18768039997667,330.18768039997667,331.413477800088,['space'],0,[0.5378560000099242],3.4175389998126775,4.443777499953285,None,1,None,1,0,,,,,,nlhglm,001,fr,0,0,2022-05-09_14h49.52.594,Cluster,2022.1.1,36.090607616575966,
,,,,1,0,1,0,7,0,7,0,,,time,,,,,,,,,,,,,,,,,,,,,,,,,,,,,,,,,,,,,,,,,,,,,,,,,,,,,,,,,,,,,,,,,,,,,,,,,,,,,,,,,,,,,,,,,,,,,,,,,,,,,,,,,,,,,,,,,,,331.83972409996204,None,523.2655219678923,7.9996303263678765,0.00017033700142820516,1,"[0.5329974522480627, 0.5329974522480627, 0.5329974522480627, 0.5329974522480627]","[546.683252170287, 3737.8965610749847, 144.9208066887207, 736.1913060211996]",None,"[14.0, 5.796928157975716, 10.21693571207744, 15.32905364367366]",False,332.8427299000323,335.4808354000561,335.4808354000561,336.69339270005,['space'],1,[0.45910109975375235],3.1481032001320273,4.166691099992022,None,1,None,1,,,,,,,nlhglm,001,fr,0,0,2022-05-09_14h49.52.594,Cluster,2022.1.1,36.090607616575966,
,,,,1,0,1,0,8,0,8,0,,,frequency,,,,,,,,,,,,,,,,,,,,,,,,,,,,,,,,,,,,,,,,,,,,,,,,,,,,,,,,,,,,,,,,,,,,,,,,,,,,,,,,,,,,,,,,,,,,,,,,,,,,,,,,,,,,,,,,,,,337.06881069997326,None,2297.3967099940687,0.0,8.14042568960799e-05,1,"[0.5195565451835162, 0.7428112384830876, 0.6922540091971752, 0.5825377148680265]","[455.86124427910823, 683.0201283771975, 1023.3738919967744, 1533.3283446695998]",Perfect_5th,"[12.58752167620985, 15.620563390405254, 9.0, 4.564443575721455]",False,338.089649700094,341.07841930002905,341.07841930002905,342.2966255999636,['space'],1,[0.47868969989940524],3.558920250274241,4.569355150219053,None,1,None,1,,,,,,,nlhglm,001,fr,0,0,2022-05-09_14h49.52.594,Cluster,2022.1.1,36.090607616575966,
,,,,1,0,1,0,9,0,9,0,,,frequency,,,,,,,,,,,,,,,,,,,,,,,,,,,,,,,,,,,,,,,,,,,,,,,,,,,,,,,,,,,,,,,,,,,,,,,,,,,,,,,,,,,,,,,,,,,,,,,,,,,,,,,,,,,,,,,,,,,342.6915853000246,None,147.47498549880657,4.21693571207744,0.0008492596233307956,1,"[0.6705281670468732, 0.7670976215003733, 0.5636394611269495, 0.7234281376385695]","[234.1019471198005, 208.56112460318778, 185.80683856288758, 165.5350742973855]",Tone,"[11.479029571563201, 12.384595368515688, 12.403805897260522, 11.584848593831634]",False,343.6867768999655,346.72604420012794,346.72604420012794,347.9514244000893,['space'],1,[0.3247495999094099],3.749656799947843,4.761489199940115,None,1,None,1,,,,,,,nlhglm,001,fr,0,0,2022-05-09_14h49.52.594,Cluster,2022.1.1,36.090607616575966,
,,,,1,0,1,0,10,0,10,0,,,both,,,,,,,,,,,,,,,,,,,,,,,,,,,,,,,,,,,,,,,,,,,,,,,,,,,,,,,,,,,,,,,,,,,,,,,,,,,,,,,,,,,,,,,,,,,,,,,,,,,,,,,,,,,,,,,,,,,348.5114426999353,None,,,,,"[0.6624539365601663, 0.6624539365601663, 0.6624539365601663, 0.6624539365601663]","[3253.5748141313343, 3652.014250197645, 4099.247395731868, 4601.249628340056]",Tone,"[7.934248541767307, 6.0, 5.0, 4.27301836022609]",True,349.52316260011867,352.5426982999779,352.5426982999779,353.77412820002064,None,1,,3.6674823998473585,4.685600999975577,None,1,None,1,0,,,,,,nlhglm,001,fr,0,0,2022-05-09_14h49.52.594,Cluster,2022.1.1,36.090607616575966,
,,,,1,0,1,0,11,0,11,0,,,both,,,,,,,,,,,,,,,,,,,,,,,,,,,,,,,,,,,,,,,,,,,,,,,,,,,,,,,,,,,,,,,,,,,,,,,,,,,,,,,,,,,,,,,,,,,,,,,,,,,,,,,,,,,,,,,,,,,354.25418599997647,None,2462.2888266898335,0.0,8.505946547995337e-05,0,"[0.7466989124161723, 0.7466989124161723, 0.7466989124161723, 0.7466989124161723]","[488.5799842171232, 732.042847972813, 1096.8249796946263, 1643.3806291715812]",Perfect_5th,"[13.0, 15.6825341469976, 8.0, 5.238359735917687]",False,355.2866189000197,358.556355800014,358.556355800014,359.7821180000901,None,0,,4.021021050168201,5.051253050100058,None,1,None,1,,,,,,,nlhglm,001,fr,0,0,2022-05-09_14h49.52.594,Cluster,2022.1.1,36.090607616575966,
,,,,1,0,1,0,12,0,12,0,,,time,,,,,,,,,,,,,,,,,,,,,,,,,,,,,,,,,,,,,,,,,,,,,,,,,,,,,,,,,,,,,,,,,,,,,,,,,,,,,,,,,,,,,,,,,,,,,,,,,,,,,,,,,,,,,,,,,,,360.3725703000091,None,1231.1444133449168,4.0,8.51413334521805e-05,1,"[0.7996563413123281, 0.7996563413123281, 0.7996563413123281, 0.7996563413123281]","[631.232718941826, 4464.945573784017, 191.08135154364723, 1059.6901224724882]",None,"[15.245364980628292, 4.27301836022609, 12.403805897260522, 8.060505806263489]",False,361.4516141000204,364.87471710005775,364.87471710005775,366.1003411000129,['space'],1,[0.3043214997742325],4.214618149911985,5.232011449988931,None,1,None,1,,,,,,,nlhglm,001,fr,0,0,2022-05-09_14h49.52.594,Cluster,2022.1.1,36.090607616575966,
,,,,1,0,1,0,13,0,13,0,,,both,,,,,,,,,,,,,,,,,,,,,,,,,,,,,,,,,,,,,,,,,,,,,,,,,,,,,,,,,,,,,,,,,,,,,,,,,,,,,,,,,,,,,,,,,,,,,,,,,,,,,,,,,,,,,,,,,,,366.73090409999713,None,475.0798397679699,6.58752167620985,0.00015524521799266473,1,"[0.4365895100224282, 0.4365895100224282, 0.4365895100224282, 0.4365895100224282]","[188.53555935413982, 237.539919883985, 299.2815452521744, 377.0711187082795]",Major_3rd,"[12.403805897260522, 11.479029571563201, 9.432336453088666, 10.47466440993579]",False,367.72166600008495,370.04838529997505,370.04838529997505,371.2589861000888,['space'],1,[0.4162011998705566],2.7617504000663757,3.770423399982974,None,1,None,1,,,,,,,nlhglm,001,fr,0,0,2022-05-09_14h49.52.594,Cluster,2022.1.1,36.090607616575966,
,,,,1,0,1,0,14,0,14,0,,,time,,,,,,,,,,,,,,,,,,,,,,,,,,,,,,,,,,,,,,,,,,,,,,,,,,,,,,,,,,,,,,,,,,,,,,,,,,,,,,,,,,,,,,,,,,,,,,,,,,,,,,,,,,,,,,,,,,,371.54461230011657,None,,,,,"[0.4442161058494496, 0.4442161058494496, 0.4442161058494496, 0.4442161058494496]","[2765.9438072493735, 6862.9587367626555, 1017.3205398941919, 142.33287032805885]",None,"[10.03860550823755, -1.9304792687339773, 9.0, 10.21693571207744]",True,372.54078090004623,374.90886800014414,374.90886800014414,376.12687900010496,['space'],0,[0.2893611998297274],2.8049615998752415,3.809952599927783,None,1,None,1,0,,,,,,nlhglm,001,fr,0,0,2022-05-09_14h49.52.594,Cluster,2022.1.1,36.090607616575966,
,,,,1,0,1,0,15,0,15,0,,,frequency,,,,,,,,,,,,,,,,,,,,,,,,,,,,,,,,,,,,,,,,,,,,,,,,,,,,,,,,,,,,,,,,,,,,,,,,,,,,,,,,,,,,,,,,,,,,,,,,,,,,,,,,,,,,,,,,,,,376.404690900119,None,406.12619817811805,-7.0,3.405575752341677e-05,0,"[0.5587911821673969, 0.6003296817514019, 0.6719704776519451, 0.6542840207108018]","[255.84347299919392, 287.174588749259, 322.34257710989505, 361.8173093600948]",Tone,"[10.782137438800723, 9.638314099777514, 9.530692052403078, 10.0]",False,377.4158936000895,380.27841469994746,380.27841469994746,381.5003555000294,None,0,,3.516948650125414,4.524229750037193,None,1,None,1,,,,,,,nlhglm,001,fr,0,0,2022-05-09_14h49.52.594,Cluster,2022.1.1,36.090607616575966,
,,,,1,0,1,0,16,0,16,0,,,none,,,,,,,,,,,,,,,,,,,,,,,,,,,,,,,,,,,,,,,,,,,,,,,,,,,,,,,,,,,,,,,,,,,,,,,,,,,,,,,,,,,,,,,,,,,,,,,,,,,,,,,,,,,,,,,,,,,381.97779079992324,None,497.6473846699826,7.3010524779582155,0.0001658642337900517,1,"[0.7111045301798992, 0.7419576451969325, 0.5400198821500097, 0.48816500520943995]","[7229.304415123133, 238.37434299948387, 1085.5126572153345, 280.5109779526029]",None,"[-3.0, 11.479029571563201, 8.0, 9.638314099777514]",False,382.97428900003433,385.97945370012894,385.97945370012894,387.1965664001182,['space'],1,[0.32129159988835454],3.491535099921748,4.535098999971524,None,1,None,1,,,,,,,nlhglm,001,fr,0,0,2022-05-09_14h49.52.594,Cluster,2022.1.1,36.090607616575966,
,,,,1,0,1,0,17,0,17,0,,,frequency,,,,,,,,,,,,,,,,,,,,,,,,,,,,,,,,,,,,,,,,,,,,,,,,,,,,,,,,,,,,,,,,,,,,,,,,,,,,,,,,,,,,,,,,,,,,,,,,,,,,,,,,,,,,,,,,,,,387.5628349999897,None,1135.1616496008678,1.0,5.577089973733477e-05,1,"[0.41845536684408385, 0.555326824144724, 0.6868738232327327, 0.4602177365806494]","[1801.9567967303744, 1605.3610003513625, 1430.2140573655215, 1274.1758703732369]",Tone,"[7.0, 5.238359735917687, 4.322446449808495, 5.0]",False,388.5536917001009,391.2616646999959,391.2616646999959,392.4688155001495,['space'],1,[0.3214896998833865],3.1428725998848677,4.1666234999429435,None,1,None,1,,,,,,,nlhglm,001,fr,0,0,2022-05-09_14h49.52.594,Cluster,2022.1.1,36.090607616575966,
,,,,1,0,1,0,18,0,18,0,,,none,,,,,,,,,,,,,,,,,,,,,,,,,,,,,,,,,,,,,,,,,,,,,,,,,,,,,,,,,,,,,,,,,,,,,,,,,,,,,,,,,,,,,,,,,,,,,,,,,,,,,,,,,,,,,,,,,,,392.7760727000423,None,125.0,-3.0,0.0005116464961403772,0,"[0.6555667872005315, 0.6431553867423447, 0.44413256765956977, 0.48623226627433086]","[3806.887149173558, 261.2866049670298, 247.3133748197757, 1006.7557746341066]",None,"[5.796928157975716, 10.12521572052971, 11.0, 9.823138028380729]",False,393.7975691999309,396.55500139994547,396.55500139994547,397.7945988001302,None,0,,3.265049950219691,4.2922619502060115,None,1,None,1,,,,,,,nlhglm,001,fr,0,0,2022-05-09_14h49.52.594,Cluster,2022.1.1,36.090607616575966,
,,,,1,0,1,0,19,0,19,0,,,frequency,,,,,,,,,,,,,,,,,,,,,,,,,,,,,,,,,,,,,,,,,,,,,,,,,,,,,,,,,,,,,,,,,,,,,,,,,,,,,,,,,,,,,,,,,,,,,,,,,,,,,,,,,,,,,,,,,,,398.12608469999395,None,,,,,"[0.4328361669059524, 0.4822343544236069, 0.7791017038749238, 0.403265340609734]","[159.4139270575494, 200.84896234621235, 253.05383550953567, 318.8278541150987]",Major_3rd,"[11.0, 12.384595368515688, 10.782137438800723, 9.432336453088666]",True,399.13860419997945,401.8515036001336,401.8515036001336,403.05884950002655,None,1,,3.1188618999440223,4.145206700079143,None,1,None,1,0,,,,,,nlhglm,001,fr,0,0,2022-05-09_14h49.52.594,Cluster,2022.1.1,36.090607616575966,
,,,,2,0,2,0,0,0,0,0,,,both,,,,,,,,,,,,,,,,,,,,,,,,,,,,,,,,,,,,,,,,,,,,,,,,,,,,,,,,,,,,,,,,,,,,,,,,,,,,,,,,,,,,,,,,,,,,,,,,,,,,,,,,,,,,,,,,,,,409.25582380010746,None,125.0,-2.0,0.0005740768107484417,1,"[0.62835386285829, 0.62835386285829, 0.62835386285829, 0.62835386285829]","[314.9802624737183, 250.00000000000003, 198.42513149602496, 157.49013123685916]",Major_3rd,"[9.432336453088666, 10.782137438800723, 12.384595368515688, 11.0]",False,410.2601390001364,413.1829590999987,413.1829590999987,414.39380850014277,['space'],1,[0.527939299819991],3.5309631500858814,4.570137350121513,None,1,None,1,,,,,,,nlhglm,001,fr,0,0,2022-05-09_14h49.52.594,Cluster,2022.1.1,36.090607616575966,
,,,,2,0,2,0,1,0,1,0,,,time,,,,,,,,,,,,,,,,,,,,,,,,,,,,,,,,,,,,,,,,,,,,,,,,,,,,,,,,,,,,,,,,,,,,,,,,,,,,,,,,,,,,,,,,,,,,,,,,,,,,,,,,,,,,,,,,,,,414.87688370002434,None,268.3914708048315,4.1252157205297095,0.00023796795734866503,0,"[0.6432342769471985, 0.6432342769471985, 0.6432342769471985, 0.6432342769471985]","[626.7328055348869, 271.51378345806825, 568.0859546021043, 2969.747837523945]",None,"[15.245364980628292, 10.0, 14.667483670350345, 9.081846481128295]",False,415.8812925000675,418.8473147000186,418.8473147000186,420.08496739994735,None,0,,3.6009511998854578,4.62197869992815,None,1,None,1,,,,,,,nlhglm,001,fr,0,0,2022-05-09_14h49.52.594,Cluster,2022.1.1,36.090607616575966,
,,,,2,0,2,0,2,0,2,0,,,frequency,,,,,,,,,,,,,,,,,,,,,,,,,,,,,,,,,,,,,,,,,,,,,,,,,,,,,,,,,,,,,,,,,,,,,,,,,,,,,,,,,,,,,,,,,,,,,,,,,,,,,,,,,,,,,,,,,,,420.57127199997194,None,125.0,-1.0,0.000644124775846567,1,"[0.6230875278316087, 0.5094573619802006, 0.42312096385308073, 0.7792377658490713]","[314.9802624737183, 250.00000000000003, 198.42513149602496, 157.49013123685916]",Major_3rd,"[9.432336453088666, 10.782137438800723, 12.384595368515688, 11.0]",False,421.59437389997765,424.17560630012304,424.17560630012304,425.38740810006857,['space'],1,[0.4125056997872889],3.3533493503928185,4.359355550259352,None,1,None,1,,,,,,,nlhglm,001,fr,0,0,2022-05-09_14h49.52.594,Cluster,2022.1.1,36.090607616575966,
,,,,2,0,2,0,3,0,3,0,,,frequency,,,,,,,,,,,,,,,,,,,,,,,,,,,,,,,,,,,,,,,,,,,,,,,,,,,,,,,,,,,,,,,,,,,,,,,,,,,,,,,,,,,,,,,,,,,,,,,,,,,,,,,,,,,,,,,,,,,426.00048550008796,None,,,,,"[0.5273229274362137, 0.4638782796123761, 0.4467215381533116, 0.7781533892272097]","[847.0288847905715, 950.7577769992289, 1067.1895218166205, 1197.879736592584]",Tone,"[14.0, 11.0, 8.060505806263489, 6.0]",True,427.01579510001466,429.4575917001348,429.4575917001348,430.67934640008025,None,1,,3.2461441000923514,4.247432500123978,None,1,None,1,0,,,,,,nlhglm,001,fr,0,0,2022-05-09_14h49.52.594,Cluster,2022.1.1,36.090607616575966,
,,,,2,0,2,0,4,0,4,0,,,both,,,,,,,,,,,,,,,,,,,,,,,,,,,,,,,,,,,,,,,,,,,,,,,,,,,,,,,,,,,,,,,,,,,,,,,,,,,,,,,,,,,,,,,,,,,,,,,,,,,,,,,,,,,,,,,,,,,431.3133761000354,None,2754.8576908078567,4.03860550823755,0.00011152872241163958,1,"[0.5310966533470801, 0.5310966533470801, 0.5310966533470801, 0.5310966533470801]","[4373.063996411077, 3895.9571087482977, 3470.903194113601, 3092.223206425016]",Tone,"[4.585532564029018, 5.067126500205376, 6.78511766356254, 9.0]",False,432.3288249000907,434.9546272000298,434.9546272000298,436.1680420001503,['space'],1,[0.28329369984567165],3.149982800008729,4.1761773999314755,None,1,None,1,,,,,,,nlhglm,001,fr,0,0,2022-05-09_14h49.52.594,Cluster,2022.1.1,36.090607616575966,
,,,,2,0,2,0,5,0,5,0,,,none,,,,,,,,,,,,,,,,,,,,,,,,,,,,,,,,,,,,,,,,,,,,,,,,,,,,,,,,,,,,,,,,,,,,,,,,,,,,,,,,,,,,,,,,,,,,,,,,,,,,,,,,,,,,,,,,,,,436.5587883000262,None,1839.349540065006,1.0,7.580122816135971e-05,1,"[0.48249178038732077, 0.623170769103785, 0.6222890980956429, 0.7980724090207969]","[1441.0335446382917, 5134.5977381884895, 311.3577455059078, 1256.377856028854]",None,"[4.322446449808495, 3.452465288090184, 9.432336453088666, 5.0]",False,437.5753452000208,440.32362670009024,440.32362670009024,441.5370313001331,['space'],1,[0.4294857997447252],3.532802499830723,4.55827989988029,None,1,None,1,,,,,,,nlhglm,001,fr,0,0,2022-05-09_14h49.52.594,Cluster,2022.1.1,36.090607616575966,
,,,,2,0,2,0,6,0,6,0,,,time,,,,,,,,,,,,,,,,,,,,,,,,,,,,,,,,,,,,,,,,,,,,,,,,,,,,,,,,,,,,,,,,,,,,,,,,,,,,,,,,,,,,,,,,,,,,,,,,,,,,,,,,,,,,,,,,,,,442.1914053999353,None,125.0,-3.0,0.0005116464961403772,1,"[0.47780826191371784, 0.47780826191371784, 0.47780826191371784, 0.47780826191371784]","[167.9545121452979, 246.2931682853879, 915.7913717122557, 938.6177880045584]",None,"[11.584848593831634, 11.0, 12.0, 11.611269431546013]",False,443.21991079999134,445.670979199931,445.670979199931,446.8770507001318,['space'],1,[0.35267719998955727],2.956293750088662,3.9674473500344902,None,1,None,1,,,,,,,nlhglm,001,fr,0,0,2022-05-09_14h49.52.594,Cluster,2022.1.1,36.090607616575966,
,,,,2,0,2,0,7,0,7,0,,,time,,,,,,,,,,,,,,,,,,,,,,,,,,,,,,,,,,,,,,,,,,,,,,,,,,,,,,,,,,,,,,,,,,,,,,,,,,,,,,,,,,,,,,,,,,,,,,,,,,,,,,,,,,,,,,,,,,,447.22330270009115,None,,,,,"[0.7350635050005677, 0.7350635050005677, 0.7350635050005677, 0.7350635050005677]","[147.48969508482338, 499.1345492860011, 1775.1858716212685, 168.3368193240823]",None,"[10.21693571207744, 13.301052477958216, 6.235535383868793, 11.584848593831634]",True,448.2207667999901,451.4402785000857,451.4402785000857,452.64063649997115,None,1,,3.9631688001099974,4.992682300042361,None,1,None,1,0,,,,,,nlhglm,001,fr,0,0,2022-05-09_14h49.52.594,Cluster,2022.1.1,36.090607616575966,
,,,,2,0,2,0,8,0,8,0,,,both,,,,,,,,,,,,,,,,,,,,,,,,,,,,,,,,,,,,,,,,,,,,,,,,,,,,,,,,,,,,,,,,,,,,,,,,,,,,,,,,,,,,,,,,,,,,,,,,,,,,,,,,,,,,,,,,,,,453.26397550012916,None,4287.0938501451765,-1.0,9.241732010965923e-05,1,"[0.42728532718170553, 0.42728532718170553, 0.42728532718170553, 0.42728532718170553]","[6805.337287606852, 6062.8662660415985, 5401.399784672765, 4812.100144328471]",Tone,"[-1.0, 1.3868785490928328, 3.0, 4.0]",False,454.2641692000907,456.56623800005764,456.56623800005764,457.7833712999709,['space'],1,[0.31569359987042844],2.7487565502524376,3.756659250240773,None,1,None,1,,,,,,,nlhglm,001,fr,0,0,2022-05-09_14h49.52.594,Cluster,2022.1.1,36.090607616575966,
,,,,2,0,2,0,9,0,9,0,,,time,,,,,,,,,,,,,,,,,,,,,,,,,,,,,,,,,,,,,,,,,,,,,,,,,,,,,,,,,,,,,,,,,,,,,,,,,,,,,,,,,,,,,,,,,,,,,,,,,,,,,,,,,,,,,,,,,,,458.06048110011034,None,136.67917819296807,3.5715987203772173,0.0009334471862563936,1,"[0.4564828050613124, 0.4564828050613124, 0.4564828050613124, 0.4564828050613124]","[324.1867553909799, 2100.2878347453548, 3959.036535614042, 2612.6933822017722]",None,"[9.530692052403078, 9.700473139918685, 5.067126500205376, 10.64413019887376]",False,459.07522430014797,461.48778049997054,461.48778049997054,462.70069590001367,['space'],1,[0.3867953000590205],2.8435394999105483,3.85048839985393,None,1,None,1,,,,,,,nlhglm,001,fr,0,0,2022-05-09_14h49.52.594,Cluster,2022.1.1,36.090607616575966,
,,,,2,0,2,0,10,0,10,0,,,none,,,,,,,,,,,,,,,,,,,,,,,,,,,,,,,,,,,,,,,,,,,,,,,,,,,,,,,,,,,,,,,,,,,,,,,,,,,,,,,,,,,,,,,,,,,,,,,,,,,,,,,,,,,,,,,,,,,462.9828689999413,None,757.8582832551998,9.0,0.0001135363504834793,1,"[0.7537982192918407, 0.45253868165470834, 0.7533910312100038, 0.7804159295137454]","[4106.605231495373, 312.39564862217526, 3994.720627007735, 6209.819544405736]",None,"[5.0, 9.432336453088666, 5.067126500205376, 1.0]",False,464.01018720003776,466.9974303001072,466.9974303001072,468.21092290012166,['space'],1,[0.4063380998559296],3.7603578502312303,4.782829050207511,None,1,None,1,,,,,,,nlhglm,001,fr,0,0,2022-05-09_14h49.52.594,Cluster,2022.1.1,36.090607616575966,
,,,,2,0,2,0,11,0,11,0,,,frequency,,,,,,,,,,,,,,,,,,,,,,,,,,,,,,,,,,,,,,,,,,,,,,,,,,,,,,,,,,,,,,,,,,,,,,,,,,,,,,,,,,,,,,,,,,,,,,,,,,,,,,,,,,,,,,,,,,,468.829175400082,None,,,,,"[0.6083877499707727, 0.6356616984350171, 0.7212488052539371, 0.5800156861726551]","[161.87669887063151, 242.54100349930272, 363.40090197577723, 544.4861431736763]",Perfect_5th,"[11.584848593831634, 11.0, 10.0, 14.0]",True,469.81824650010094,472.8147460001055,472.8147460001055,474.01824470004067,None,1,,3.5738651999272406,4.598585800034925,None,1,None,1,0,,,,,,nlhglm,001,fr,0,0,2022-05-09_14h49.52.594,Cluster,2022.1.1,36.090607616575966,
,,,,2,0,2,0,12,0,12,0,,,both,,,,,,,,,,,,,,,,,,,,,,,,,,,,,,,,,,,,,,,,,,,,,,,,,,,,,,,,,,,,,,,,,,,,,,,,,,,,,,,,,,,,,,,,,,,,,,,,,,,,,,,,,,,,,,,,,,,474.4683356001042,None,620.9070510153568,9.245364980628292,0.00015244559268581841,1,"[0.5784417358236631, 0.5784417358236631, 0.5784417358236631, 0.5784417358236631]","[985.62850595625, 878.0951725190009, 782.293863602398, 696.9446002924298]",Tone,"[10.0, 13.0, 15.0, 15.6825341469976]",False,475.47630440001376,478.24676400003955,478.24676400003955,479.4528839001432,['space'],1,[0.32483679987490177],3.336953300051391,4.345892600016668,None,1,None,1,,,,,,,nlhglm,001,fr,0,0,2022-05-09_14h49.52.594,Cluster,2022.1.1,36.090607616575966,
,,,,2,0,2,0,13,0,13,0,,,both,,,,,,,,,,,,,,,,,,,,,,,,,,,,,,,,,,,,,,,,,,,,,,,,,,,,,,,,,,,,,,,,,,,,,,,,,,,,,,,,,,,,,,,,,,,,,,,,,,,,,,,,,,,,,,,,,,,479.87225170014426,None,189.4645708137998,-5.0,0.00017084605332667944,1,"[0.41716474405101456, 0.41716474405101456, 0.41716474405101456, 0.41716474405101456]","[300.7562590205293, 267.9433656340734, 238.71040097760422, 212.666790237714]",Tone,"[9.432336453088666, 10.12521572052971, 11.479029571563201, 12.053320048470916]",False,481.8883104000706,484.1676505000796,484.1676505000796,485.38289960008115,['space'],1,[0.46365259983576834],2.6843974499497563,3.7014840501360595,None,1,None,1,,,,,,,nlhglm,001,fr,0,0,2022-05-09_14h49.52.594,Cluster,2022.1.1,36.090607616575966,
,,,,2,0,2,0,14,0,14,0,,,none,,,,,,,,,,,,,,,,,,,,,,,,,,,,,,,,,,,,,,,,,,,,,,,,,,,,,,,,,,,,,,,,,,,,,,,,,,,,,,,,,,,,,,,,,,,,,,,,,,,,,,,,,,,,,,,,,,,485.630399600137,None,280.3588783172877,3.6383140997775145,0.00020572094086801759,1,"[0.4612717244812824, 0.4619864045039167, 0.5222011534352455, 0.43949606157058607]","[7200.311739426152, 2350.6317355966744, 634.6125548020824, 1978.3654787460102]",None,"[-3.0, 10.463104830656292, 15.245364980628292, 8.63355989040143]",False,486.64848600002006,489.1255244000349,489.1255244000349,490.33393770013936,['space'],1,[0.36395169980823994],2.91053680004552,3.937285900115967,None,1,None,1,,,,,,,nlhglm,001,fr,0,0,2022-05-09_14h49.52.594,Cluster,2022.1.1,36.090607616575966,
,,,,2,0,2,0,15,0,15,0,,,frequency,,,,,,,,,,,,,,,,,,,,,,,,,,,,,,,,,,,,,,,,,,,,,,,,,,,,,,,,,,,,,,,,,,,,,,,,,,,,,,,,,,,,,,,,,,,,,,,,,,,,,,,,,,,,,,,,,,,490.64157540001906,None,,,,,"[0.622414514744773, 0.4791784354299653, 0.467079474379313, 0.5631135888435623]","[371.4653509314104, 556.5691641150122, 833.911517364862, 1249.4555279567444]",Perfect_5th,"[10.47466440993579, 14.667483670350345, 14.0, 5.0]",True,491.6541709001176,494.24455499998294,494.24455499998294,495.4612843999639,None,1,,3.141661500092596,4.174022700171918,None,1,['space'],0,0,[0.47324459976516664],,,,,nlhglm,001,fr,0,0,2022-05-09_14h49.52.594,Cluster,2022.1.1,36.090607616575966,
,,,,2,0,2,0,16,0,16,0,,,none,,,,,,,,,,,,,,,,,,,,,,,,,,,,,,,,,,,,,,,,,,,,,,,,,,,,,,,,,,,,,,,,,,,,,,,,,,,,,,,,,,,,,,,,,,,,,,,,,,,,,,,,,,,,,,,,,,,495.88221790012904,None,4287.0938501451765,-3.0,7.340968674065446e-05,1,"[0.6399073721079714, 0.6625873525879176, 0.7531203976229344, 0.792026990546619]","[189.49475075787484, 638.663065132757, 494.0962030419668, 1286.6348158043884]",None,"[12.403805897260522, 15.620563390405254, 13.301052477958216, 5.0]",False,496.9105943001341,499.9854190000333,499.9854190000333,501.188950400101,['space'],1,[0.45343799982219934],3.869026050204411,4.8982756501063704,None,1,None,1,,,,,,,nlhglm,001,fr,0,0,2022-05-09_14h49.52.594,Cluster,2022.1.1,36.090607616575966,
,,,,2,0,2,0,17,0,17,0,,,time,,,,,,,,,,,,,,,,,,,,,,,,,,,,,,,,,,,,,,,,,,,,,,,,,,,,,,,,,,,,,,,,,,,,,,,,,,,,,,,,,,,,,,,,,,,,,,,,,,,,,,,,,,,,,,,,,,,501.8434886999894,None,3732.1319661472303,-1.0,7.062095770881294e-05,0,"[0.4070461992065611, 0.4070461992065611, 0.4070461992065611, 0.4070461992065611]","[1140.3356118326244, 2838.4188770893948, 176.84539281580976, 395.22861500918395]",None,"[6.501102016365267, 10.0, 12.116046522772201, 11.0]",False,502.8556431001052,505.11691240011714,505.11691240011714,506.3413875999395,None,0,,2.6551461501512676,3.673778450116515,None,1,None,1,,,,,,,nlhglm,001,fr,0,0,2022-05-09_14h49.52.594,Cluster,2022.1.1,36.090607616575966,
,,,,2,0,2,0,18,0,18,0,,,none,,,,,,,,,,,,,,,,,,,,,,,,,,,,,,,,,,,,,,,,,,,,,,,,,,,,,,,,,,,,,,,,,,,,,,,,,,,,,,,,,,,,,,,,,,,,,,,,,,,,,,,,,,,,,,,,,,,506.585759999929,None,1504.0015642734088,-1.4355564242785448,4.1230734001790144e-05,0,"[0.7660531985778315, 0.6253329204725767, 0.7204239402058777, 0.6669312301851691]","[1398.4353911183669, 201.1944607250102, 168.39208470632005, 453.000475904128]",None,"[4.322446449808495, 12.384595368515688, 11.584848593831634, 12.0]",False,507.6045669999439,510.7597080001142,510.7597080001142,511.97558260010555,None,0,,3.801241299835965,4.82726959977299,None,1,None,1,,,,,,,nlhglm,001,fr,0,0,2022-05-09_14h49.52.594,Cluster,2022.1.1,36.090607616575966,
,,,,2,0,2,0,19,0,19,0,,,time,,,,,,,,,,,,,,,,,,,,,,,,,,,,,,,,,,,,,,,,,,,,,,,,,,,,,,,,,,,,,,,,,,,,,,,,,,,,,,,,,,,,,,,,,,,,,,,,,,,,,,,,,,,,,,,,,,,512.4930523000658,None,4562.2824566975805,-1.72698163977391,0.00010051767296509612,1,"[0.5360392098663994, 0.5360392098663994, 0.5360392098663994, 0.5360392098663994]","[552.8697293066642, 665.7248588084907, 6771.711242604958, 160.04614952922955]",None,"[14.0, 15.620563390405254, -1.0, 11.0]",False,513.5113179001492,516.1518489001319,516.1518489001319,517.3578423999716,['space'],1,[0.33211499988101423],3.1643062999937683,4.184954999946058,None,1,None,1,,,,,,,nlhglm,001,fr,0,0,2022-05-09_14h49.52.594,Cluster,2022.1.1,36.090607616575966,
,,,,3,0,3,0,0,0,0,0,,,time,,,,,,,,,,,,,,,,,,,,,,,,,,,,,,,,,,,,,,,,,,,,,,,,,,,,,,,,,,,,,,,,,,,,,,,,,,,,,,,,,,,,,,,,,,,,,,,,,,,,,,,,,,,,,,,,,,,522.1525876000524,None,812.2523963562351,10.0,0.00012243172279601027,1,"[0.510926119776051, 0.510926119776051, 0.510926119776051, 0.510926119776051]","[160.7666298782674, 2927.860878781483, 594.0568773340066, 273.1988970602423]",None,"[11.584848593831634, 10.0, 15.0, 10.0]",False,523.1287144999951,525.7006794000044,525.7006794000044,526.9060730999336,['space'],1,[0.7376512999180704],3.060459850123152,4.076385450083762,None,1,None,1,,,,,,,nlhglm,001,fr,0,0,2022-05-09_14h49.52.594,Cluster,2022.1.1,36.090607616575966,
,,,,3,0,3,0,1,0,1,0,,,none,,,,,,,,,,,,,,,,,,,,,,,,,,,,,,,,,,,,,,,,,,,,,,,,,,,,,,,,,,,,,,,,,,,,,,,,,,,,,,,,,,,,,,,,,,,,,,,,,,,,,,,,,,,,,,,,,,,527.2430539999623,None,,,,,"[0.5687419833627217, 0.4166154907129922, 0.7070126755951296, 0.7965774142848969]","[1490.0686298988323, 7714.935661046479, 6089.5001976653, 6286.715241122923]",None,"[4.564443575721455, -4.0, 1.3868785490928328, 1.0]",True,528.2378637001384,530.9730970000383,530.9730970000383,532.1773995000403,None,1,,3.5080196999479085,4.511115999892354,None,1,None,1,0,,,,,,nlhglm,001,fr,0,0,2022-05-09_14h49.52.594,Cluster,2022.1.1,36.090607616575966,
,,,,3,0,3,0,2,0,2,0,,,time,,,,,,,,,,,,,,,,,,,,,,,,,,,,,,,,,,,,,,,,,,,,,,,,,,,,,,,,,,,,,,,,,,,,,,,,,,,,,,,,,,,,,,,,,,,,,,,,,,,,,,,,,,,,,,,,,,,532.8046153001487,None,722.8059089877594,9.6825341469976,0.00013117775495029627,1,"[0.6881238580615114, 0.6881238580615114, 0.6881238580615114, 0.6881238580615114]","[2354.433771576789, 423.5020596625925, 6321.705616309013, 1071.7979674956227]",None,"[10.463104830656292, 11.867488779501988, 8.881784197001252e-16, 8.060505806263489]",False,533.7988787000068,536.8991839999799,536.8991839999799,538.1223621000536,['space'],1,[0.38841049978509545],3.782886999892071,4.785006999969482,None,1,None,1,,,,,,,nlhglm,001,fr,0,0,2022-05-09_14h49.52.594,Cluster,2022.1.1,36.090607616575966,
,,,,3,0,3,0,3,0,3,0,,,time,,,,,,,,,,,,,,,,,,,,,,,,,,,,,,,,,,,,,,,,,,,,,,,,,,,,,,,,,,,,,,,,,,,,,,,,,,,,,,,,,,,,,,,,,,,,,,,,,,,,,,,,,,,,,,,,,,,538.6422298999969,None,1866.0659830736151,-3.0,4.868135812041065e-05,0,"[0.6717755204030725, 0.6717755204030725, 0.6717755204030725, 0.6717755204030725]","[368.92822436706734, 1488.975480340572, 141.33791127592235, 6297.425761757388]",None,"[10.47466440993579, 4.564443575721455, 10.0, 1.0]",False,540.5943150999956,543.6436407000292,543.6436407000292,544.8597870001104,None,0,,3.722589350072667,4.753167249960825,None,1,None,1,,,,,,,nlhglm,001,fr,0,0,2022-05-09_14h49.52.594,Cluster,2022.1.1,36.090607616575966,
,,,,3,0,3,0,4,0,4,0,,,frequency,,,,,,,,,,,,,,,,,,,,,,,,,,,,,,,,,,,,,,,,,,,,,,,,,,,,,,,,,,,,,,,,,,,,,,,,,,,,,,,,,,,,,,,,,,,,,,,,,,,,,,,,,,,,,,,,,,,545.3871655999683,None,332.18336402574016,3.5306920524030776,0.00014138452848187563,0,"[0.6558164655645502, 0.6741778698157594, 0.6026414405208328, 0.49292999368017754]","[209.26240638046067, 234.8891092999603, 263.65411075039765, 295.9417331980776]",Tone,"[12.384595368515688, 11.479029571563201, 10.12521572052971, 9.638314099777514]",False,546.3875939000864,549.3584809000604,549.3584809000604,550.5646573000122,None,0,,3.451524600153789,4.465729300165549,None,1,None,1,,,,,,,nlhglm,001,fr,0,0,2022-05-09_14h49.52.594,Cluster,2022.1.1,36.090607616575966,
,,,,3,0,3,0,5,0,5,0,,,time,,,,,,,,,,,,,,,,,,,,,,,,,,,,,,,,,,,,,,,,,,,,,,,,,,,,,,,,,,,,,,,,,,,,,,,,,,,,,,,,,,,,,,,,,,,,,,,,,,,,,,,,,,,,,,,,,,,550.9175442999694,None,,,,,"[0.48270737334654856, 0.48270737334654856, 0.48270737334654856, 0.48270737334654856]","[309.04977345046785, 1620.4975034520173, 1256.6774593137807, 2465.0376264505785]",None,"[9.432336453088666, 5.238359735917687, 5.0, 10.7928107105889]",True,551.9180829999968,554.4051254000515,554.4051254000515,555.631425900152,['space'],0,[0.8257869000080973],2.9394454997964203,3.967005099868402,None,1,None,1,0,,,,,,nlhglm,001,fr,0,0,2022-05-09_14h49.52.594,Cluster,2022.1.1,36.090607616575966,
,,,,3,0,3,0,6,0,6,0,,,time,,,,,,,,,,,,,,,,,,,,,,,,,,,,,,,,,,,,,,,,,,,,,,,,,,,,,,,,,,,,,,,,,,,,,,,,,,,,,,,,,,,,,,,,,,,,,,,,,,,,,,,,,,,,,,,,,,,555.9307101001032,None,1104.8298142584213,1.0,5.4347402291268636e-05,1,"[0.5135736078991815, 0.5135736078991815, 0.5135736078991815, 0.5135736078991815]","[622.9129775084965, 3876.0071801287386, 1790.8720699352893, 3230.26377943514]",None,"[15.245364980628292, 5.067126500205376, 7.0, 8.0]",False,556.9367726000492,559.5127318000887,559.5127318000887,560.7463664999232,['space'],1,[0.4023505998775363],3.061604200163856,4.094145100330934,None,1,None,1,,,,,,,nlhglm,001,fr,0,0,2022-05-09_14h49.52.594,Cluster,2022.1.1,36.090607616575966,
,,,,3,0,3,0,7,0,7,0,,,none,,,,,,,,,,,,,,,,,,,,,,,,,,,,,,,,,,,,,,,,,,,,,,,,,,,,,,,,,,,,,,,,,,,,,,,,,,,,,,,,,,,,,,,,,,,,,,,,,,,,,,,,,,,,,,,,,,,561.0954807000235,None,203.0630990890589,-5.0,0.00014589441197552095,0,"[0.4528186774861662, 0.6681118637766674, 0.5568746269370033, 0.6562986190494473]","[278.3601167064112, 2697.92823235791, 414.71558421475754, 4265.52816763608]",None,"[10.0, 10.64413019887376, 11.154379536012986, 4.585532564029018]",False,562.114302800037,564.8109812000766,564.8109812000766,566.0145032999571,None,0,,3.364321250235662,4.375920950202271,None,1,None,1,,,,,,,nlhglm,001,fr,0,0,2022-05-09_14h49.52.594,Cluster,2022.1.1,36.090607616575966,
,,,,3,0,3,0,8,0,8,0,,,frequency,,,,,,,,,,,,,,,,,,,,,,,,,,,,,,,,,,,,,,,,,,,,,,,,,,,,,,,,,,,,,,,,,,,,,,,,,,,,,,,,,,,,,,,,,,,,,,,,,,,,,,,,,,,,,,,,,,,566.5266247999389,None,287.17458874925893,0.0,0.0001280996269602109,0,"[0.7198974538979361, 0.46723481113021703, 0.6134984614458666, 0.6607853985962651]","[1447.2692374403791, 965.9363289248462, 644.68515421979, 430.2757186221653]",Perfect_5th,"[4.322446449808495, 11.0, 15.620563390405254, 11.867488779501988]",False,567.5433579999954,570.3579293000512,570.3579293000512,571.5812373000663,None,0,,3.4918426503427327,4.505265250336379,None,1,None,1,,,,,,,nlhglm,001,fr,0,0,2022-05-09_14h49.52.594,Cluster,2022.1.1,36.090607616575966,
,,,,3,0,3,0,9,0,9,0,,,frequency,,,,,,,,,,,,,,,,,,,,,,,,,,,,,,,,,,,,,,,,,,,,,,,,,,,,,,,,,,,,,,,,,,,,,,,,,,,,,,,,,,,,,,,,,,,,,,,,,,,,,,,,,,,,,,,,,,,572.0871262000874,None,293.14542200602926,3.6383140997775145,0.0001851273293492483,0,"[0.7946162028122102, 0.7687086455217904, 0.6085787572333409, 0.7988501411182225]","[184.670043932856, 207.28511577425544, 232.66967563601628, 261.16288069388025]",Tone,"[12.403805897260522, 12.384595368515688, 11.479029571563201, 10.12521572052971]",False,573.0844384001102,576.2805509001482,576.2805509001482,577.5010766000487,None,0,,3.9866796999704093,4.99813780002296,None,1,None,1,,,,,,,nlhglm,001,fr,0,0,2022-05-09_14h49.52.594,Cluster,2022.1.1,36.090607616575966,
,,,,3,0,3,0,10,0,10,0,,,frequency,,,,,,,,,,,,,,,,,,,,,,,,,,,,,,,,,,,,,,,,,,,,,,,,,,,,,,,,,,,,,,,,,,,,,,,,,,,,,,,,,,,,,,,,,,,,,,,,,,,,,,,,,,,,,,,,,,,578.1414556000382,None,,,,,"[0.7998817271447947, 0.784338551070799, 0.5781372752849788, 0.5573251712255084]","[374.98136217498785, 297.62290439252206, 236.2234557612602, 187.49068108749393]",Major_3rd,"[10.47466440993579, 9.432336453088666, 11.479029571563201, 12.403805897260522]",True,579.1460901000537,582.3232249000575,582.3232249000575,583.5291468000505,None,1,,3.7412161000538617,4.754053100012243,None,1,None,1,0,,,,,,nlhglm,001,fr,0,0,2022-05-09_14h49.52.594,Cluster,2022.1.1,36.090607616575966,
,,,,3,0,3,0,11,0,11,0,,,none,,,,,,,,,,,,,,,,,,,,,,,,,,,,,,,,,,,,,,,,,,,,,,,,,,,,,,,,,,,,,,,,,,,,,,,,,,,,,,,,,,,,,,,,,,,,,,,,,,,,,,,,,,,,,,,,,,,583.9521544999443,None,6041.9903336128755,-4.613121450907167,6.928966642715483e-05,0,"[0.6508332551493616, 0.5663533217513905, 0.5343441563382059, 0.6812781528551421]","[385.02079093552396, 954.9023452135291, 172.355661799776, 2345.3418117679207]",None,"[10.47466440993579, 11.0, 12.0, 10.463104830656292]",False,584.9488772000186,587.7155893000308,587.7155893000308,588.9364002000075,None,0,,3.4366155001334846,4.453523200005293,None,1,None,1,,,,,,,nlhglm,001,fr,0,0,2022-05-09_14h49.52.594,Cluster,2022.1.1,36.090607616575966,
,,,,3,0,3,0,12,0,12,0,,,none,,,,,,,,,,,,,,,,,,,,,,,,,,,,,,,,,,,,,,,,,,,,,,,,,,,,,,,,,,,,,,,,,,,,,,,,,,,,,,,,,,,,,,,,,,,,,,,,,,,,,,,,,,,,,,,,,,,589.4616336000618,None,2639.015821545789,-5.0,4.344455436419077e-05,0,"[0.7557425730292148, 0.5540613081646637, 0.6699476099408168, 0.4233771027281832]","[190.5926818582758, 2631.5123641581567, 330.75066745990785, 6377.99085288519]",None,"[12.403805897260522, 10.64413019887376, 9.530692052403078, 8.881784197001252e-16]",False,591.4143898000475,594.4117209999822,594.4117209999822,595.6449267999269,None,0,,3.435961350100115,4.449066350236535,None,1,None,1,,,,,,,nlhglm,001,fr,0,0,2022-05-09_14h49.52.594,Cluster,2022.1.1,36.090607616575966,
,,,,3,0,3,0,13,0,13,0,,,frequency,,,,,,,,,,,,,,,,,,,,,,,,,,,,,,,,,,,,,,,,,,,,,,,,,,,,,,,,,,,,,,,,,,,,,,,,,,,,,,,,,,,,,,,,,,,,,,,,,,,,,,,,,,,,,,,,,,,595.8934118000325,None,8000.0,-14.0,3.622179800374953e-05,0,"[0.4130384093471981, 0.4746482333451458, 0.7619664732724786, 0.5209130448515179]","[5039.684199579492, 5656.8542494923795, 6349.604207872798, 7127.189745122714]",Tone,"[3.9525763145982866, 2.61474383074168, 8.881784197001252e-16, -2.0]",False,596.9224574000109,599.6081435999367,599.6081435999367,600.8150244001299,None,0,,3.1902111498638988,4.194916049949825,None,1,None,1,,,,,,,nlhglm,001,fr,0,0,2022-05-09_14h49.52.594,Cluster,2022.1.1,36.090607616575966,
,,,,3,0,3,0,14,0,14,0,,,none,,,,,,,,,,,,,,,,,,,,,,,,,,,,,,,,,,,,,,,,,,,,,,,,,,,,,,,,,,,,,,,,,,,,,,,,,,,,,,,,,,,,,,,,,,,,,,,,,,,,,,,,,,,,,,,,,,,601.161655300064,None,6769.2278904781,-7.0,6.442579680286405e-05,0,"[0.5721614147541845, 0.634658823465148, 0.42465772775187505, 0.7693364979966353]","[3391.641116327132, 727.6956897006181, 914.7314064290928, 1406.8436743739135]",None,"[7.0, 15.6825341469976, 12.0, 4.322446449808495]",False,602.1655460000038,604.826679199934,604.826679199934,606.051750899991,None,0,,3.41026040003635,4.441447600023821,None,1,None,1,,,,,,,nlhglm,001,fr,0,0,2022-05-09_14h49.52.594,Cluster,2022.1.1,36.090607616575966,
,,,,3,0,3,0,15,0,15,0,,,time,,,,,,,,,,,,,,,,,,,,,,,,,,,,,,,,,,,,,,,,,,,,,,,,,,,,,,,,,,,,,,,,,,,,,,,,,,,,,,,,,,,,,,,,,,,,,,,,,,,,,,,,,,,,,,,,,,,606.671314000152,None,189.4645708137998,-3.0,0.0002150824380376982,0,"[0.7204420444053099, 0.7204420444053099, 0.7204420444053099, 0.7204420444053099]","[7117.930267247804, 3060.5730174691107, 4030.3769555346585, 353.6270889947658]",None,"[-2.0, 9.0, 5.0, 9.902816769994493]",False,607.7400241000578,610.9247969000135,610.9247969000135,612.1587678000797,None,0,,3.9169872500933707,4.948241550242528,None,1,None,1,,,,,,,nlhglm,001,fr,0,0,2022-05-09_14h49.52.594,Cluster,2022.1.1,36.090607616575966,
,,,,3,0,3,0,16,0,16,0,,,none,,,,,,,,,,,,,,,,,,,,,,,,,,,,,,,,,,,,,,,,,,,,,,,,,,,,,,,,,,,,,,,,,,,,,,,,,,,,,,,,,,,,,,,,,,,,,,,,,,,,,,,,,,,,,,,,,,,612.7394375000149,None,,,,,"[0.6254130303994931, 0.7539044289537692, 0.5790491189499687, 0.7014561920340969]","[4835.04166672918, 6982.951239624685, 1991.2013830646788, 645.3266038604189]",None,"[4.0, -2.0, 8.63355989040143, 15.620563390405254]",True,613.7357828000095,616.7285571000539,616.7285571000539,617.9336594000924,None,1,,3.6880605998449028,4.69830200006254,None,1,None,1,0,,,,,,nlhglm,001,fr,0,0,2022-05-09_14h49.52.594,Cluster,2022.1.1,36.090607616575966,
,,,,3,0,3,0,17,0,17,0,,,frequency,,,,,,,,,,,,,,,,,,,,,,,,,,,,,,,,,,,,,,,,,,,,,,,,,,,,,,,,,,,,,,,,,,,,,,,,,,,,,,,,,,,,,,,,,,,,,,,,,,,,,,,,,,,,,,,,,,,618.4830728999805,None,729.259079850573,9.6825341469976,0.00012945246018161786,1,"[0.46707362802577196, 0.4250498894752485, 0.578784098668375, 0.4984411750644753]","[1157.6266305121608, 1031.3280812084042, 918.8088655307031, 818.5656405172828]",Tone,"[6.501102016365267, 9.0, 12.0, 14.499522387231952]",False,619.4867589999922,621.9897615001537,621.9897615001537,623.1979370999616,['space'],1,[0.2992807999253273],2.9825921999290586,3.994666300015524,None,1,None,1,,,,,,,nlhglm,001,fr,0,0,2022-05-09_14h49.52.594,Cluster,2022.1.1,36.090607616575966,
,,,,3,0,3,0,18,0,18,0,,,time,,,,,,,,,,,,,,,,,,,,,,,,,,,,,,,,,,,,,,,,,,,,,,,,,,,,,,,,,,,,,,,,,,,,,,,,,,,,,,,,,,,,,,,,,,,,,,,,,,,,,,,,,,,,,,,,,,,623.5447287999559,None,235.98354596149932,5.479029571563201,0.00036631988825973794,1,"[0.7491006516837337, 0.7491006516837337, 0.7491006516837337, 0.7491006516837337]","[315.78074732575556, 328.57576092820784, 1871.2126516963915, 1283.9309409529124]",None,"[9.432336453088666, 9.530692052403078, 7.421528439391121, 5.0]",False,624.5514935001265,627.8156469000969,627.8156469000969,629.0403452001046,['space'],1,[0.36635019979439676],4.011619899887592,5.043625599704683,None,1,None,1,,,,,,,nlhglm,001,fr,0,0,2022-05-09_14h49.52.594,Cluster,2022.1.1,36.090607616575966,
,,,,3,0,3,0,19,0,19,0,,,time,,,,,,,,,,,,,,,,,,,,,,,,,,,,,,,,,,,,,,,,,,,,,,,,,,,,,,,,,,,,,,,,,,,,,,,,,,,,,,,,,,,,,,,,,,,,,,,,,,,,,,,,,,,,,,,,,,,629.6587829000782,None,500.0,0.0,7.144469792555515e-05,0,"[0.6385892697208327, 0.6385892697208327, 0.6385892697208327, 0.6385892697208327]","[482.381912739918, 1528.536280014856, 5414.066258149494, 221.1302823556591]",None,"[13.0, 4.564443575721455, 3.0, 12.0]",False,631.898535199929,634.8557035000995,634.8557035000995,636.0780503000133,None,0,,3.5707063004374504,4.584613700397313,None,1,None,1,,,,,,,nlhglm,001,fr,0,0,2022-05-09_14h49.52.594,Cluster,2022.1.1,36.090607616575966,
,,,,4,0,4,0,0,0,0,0,,,frequency,,,,,,,,,,,,,,,,,,,,,,,,,,,,,,,,,,,,,,,,,,,,,,,,,,,,,,,,,,,,,,,,,,,,,,,,,,,,,,,,,,,,,,,,,,,,,,,,,,,,,,,,,,,,,,,,,,,642.5460596000776,None,1624.5047927124701,-4.0,3.650530429335395e-05,1,"[0.4400378863354113, 0.4993253532497499, 0.6315718110396283, 0.4368410284444449]","[2578.7406168791576, 2297.396709994069, 2046.7477839935489, 1823.4449771164327]",Tone,"[10.64413019887376, 10.463104830656292, 9.0, 7.0]",False,643.5335467001423,646.1440362001304,646.1440362001304,647.3467935000081,['space'],1,[0.5196401998400688],3.0329137502703816,4.0528534501791,None,1,None,1,,,,,,,nlhglm,001,fr,0,0,2022-05-09_14h49.52.594,Cluster,2022.1.1,36.090607616575966,
,,,,4,0,4,0,1,0,1,0,,,both,,,,,,,,,,,,,,,,,,,,,,,,,,,,,,,,,,,,,,,,,,,,,,,,,,,,,,,,,,,,,,,,,,,,,,,,,,,,,,,,,,,,,,,,,,,,,,,,,,,,,,,,,,,,,,,,,,,647.6273189999629,None,1465.8461475807092,-1.4355564242785448,4.166293614748568e-05,0,"[0.6980215484904561, 0.6980215484904561, 0.6980215484904561, 0.6980215484904561]","[3693.7008344884853, 2931.6922951614188, 2326.8857166931507, 1846.8504172442424]",Major_3rd,"[6.0, 10.0, 10.463104830656292, 7.421528439391121]",False,648.6224609999917,651.7404750001151,651.7404750001151,652.9410890999716,None,0,,3.8038869998417795,4.81662409985438,None,1,None,1,,,,,,,nlhglm,001,fr,0,0,2022-05-09_14h49.52.594,Cluster,2022.1.1,36.090607616575966,
,,,,4,0,4,0,2,0,2,0,,,time,,,,,,,,,,,,,,,,,,,,,,,,,,,,,,,,,,,,,,,,,,,,,,,,,,,,,,,,,,,,,,,,,,,,,,,,,,,,,,,,,,,,,,,,,,,,,,,,,,,,,,,,,,,,,,,,,,,653.5002836999483,None,1303.9831977640197,-1.4380079030766173,4.505656579102249e-05,0,"[0.4677765547908832, 0.4677765547908832, 0.4677765547908832, 0.4677765547908832]","[272.7100352386739, 929.4935694454246, 649.7747407695894, 1489.0345243144714]",None,"[10.0, 11.611269431546013, 15.620563390405254, 4.564443575721455]",False,654.494120700052,656.9348732000217,656.9348732000217,658.1435300000012,None,0,,2.8859531998168677,3.9074696998577565,None,1,None,1,,,,,,,nlhglm,001,fr,0,0,2022-05-09_14h49.52.594,Cluster,2022.1.1,36.090607616575966,
,,,,4,0,4,0,3,0,3,0,,,both,,,,,,,,,,,,,,,,,,,,,,,,,,,,,,,,,,,,,,,,,,,,,,,,,,,,,,,,,,,,,,,,,,,,,,,,,,,,,,,,,,,,,,,,,,,,,,,,,,,,,,,,,,,,,,,,,,,658.4667969001457,None,,,,,"[0.5163824419194487, 0.5163824419194487, 0.5163824419194487, 0.5163824419194487]","[3799.7648593730432, 4265.091847145843, 4787.40373097493, 5373.6789979540545]",Tone,"[5.796928157975716, 4.585532564029018, 4.0, 3.452465288090184]",True,659.4677594001405,662.0423028001096,662.0423028001096,663.2587117999792,None,1,,3.0971843998413533,4.102741899900138,None,1,None,1,0,,,,,,nlhglm,001,fr,0,0,2022-05-09_14h49.52.594,Cluster,2022.1.1,36.090607616575966,
,,,,4,0,4,0,4,0,4,0,,,frequency,,,,,,,,,,,,,,,,,,,,,,,,,,,,,,,,,,,,,,,,,,,,,,,,,,,,,,,,,,,,,,,,,,,,,,,,,,,,,,,,,,,,,,,,,,,,,,,,,,,,,,,,,,,,,,,,,,,663.6284098001197,None,956.3973134341915,5.0,7.613378724568345e-05,1,"[0.7909997615426032, 0.6998652487264924, 0.47723112915584065, 0.6084531291084847]","[4819.940429034571, 3216.9242897003796, 2147.039374869848, 1432.9768630242947]",Perfect_5th,"[4.0, 8.0, 9.700473139918685, 4.322446449808495]",False,664.6449448999483,667.6393307999242,667.6393307999242,668.8653704000171,['space'],1,[0.31897629983723164],3.580883900169283,4.6122539001517,None,1,None,1,,,,,,,nlhglm,001,fr,0,0,2022-05-09_14h49.52.594,Cluster,2022.1.1,36.090607616575966,
,,,,4,0,4,0,5,0,5,0,,,time,,,,,,,,,,,,,,,,,,,,,,,,,,,,,,,,,,,,,,,,,,,,,,,,,,,,,,,,,,,,,,,,,,,,,,,,,,,,,,,,,,,,,,,,,,,,,,,,,,,,,,,,,,,,,,,,,,,669.3212262999732,None,2297.3967099940687,1.0,9.133707849613953e-05,1,"[0.4394062631854212, 0.4394062631854212, 0.4394062631854212, 0.4394062631854212]","[453.84377742871374, 2523.145130856107, 593.372536390852, 2614.3578411820695]",None,"[12.58752167620985, 10.7928107105889, 15.0, 10.64413019887376]",False,670.3545693000779,672.6904374000151,672.6904374000151,673.9156488999724,['space'],1,[0.4554142998531461],2.7887778501026332,3.801274450030178,None,1,None,1,,,,,,,nlhglm,001,fr,0,0,2022-05-09_14h49.52.594,Cluster,2022.1.1,36.090607616575966,
,,,,4,0,4,0,6,0,6,0,,,both,,,,,,,,,,,,,,,,,,,,,,,,,,,,,,,,,,,,,,,,,,,,,,,,,,,,,,,,,,,,,,,,,,,,,,,,,,,,,,,,,,,,,,,,,,,,,,,,,,,,,,,,,,,,,,,,,,,674.198422400048,None,933.0329915368076,8.0,0.00010587379673694803,1,"[0.6668401410851068, 0.6668401410851068, 0.6668401410851068, 0.6668401410851068]","[587.7739531418043, 659.7539553864472, 740.5487761432822, 831.2378961427879]",Tone,"[15.0, 15.620563390405254, 15.32905364367366, 14.0]",False,675.2085631999653,678.2261550999247,678.2261550999247,679.4353040999267,['space'],1,[0.3462629998102784],3.708855150267482,4.726149850059301,None,1,None,1,,,,,,,nlhglm,001,fr,0,0,2022-05-09_14h49.52.594,Cluster,2022.1.1,36.090607616575966,
,,,,4,0,4,0,7,0,7,0,,,none,,,,,,,,,,,,,,,,,,,,,,,,,,,,,,,,,,,,,,,,,,,,,,,,,,,,,,,,,,,,,,,,,,,,,,,,,,,,,,,,,,,,,,,,,,,,,,,,,,,,,,,,,,,,,,,,,,,679.9770546001382,None,,,,,"[0.7040973622736498, 0.5251112753636527, 0.516282155628187, 0.670627692385368]","[599.4230801036349, 5429.29097412334, 2435.020468562931, 291.3236396440353]",None,"[15.0, 3.0, 10.7928107105889, 9.638314099777514]",True,680.996289400151,683.773653900018,683.773653900018,684.9823900000192,None,1,,3.4354278000537306,4.443015100201592,None,1,None,1,0,,,,,,nlhglm,001,fr,0,0,2022-05-09_14h49.52.594,Cluster,2022.1.1,36.090607616575966,
,,,,4,0,4,0,8,0,8,0,,,time,,,,,,,,,,,,,,,,,,,,,,,,,,,,,,,,,,,,,,,,,,,,,,,,,,,,,,,,,,,,,,,,,,,,,,,,,,,,,,,,,,,,,,,,,,,,,,,,,,,,,,,,,,,,,,,,,,,685.4923811000772,None,6240.277616972639,-5.0,7.152611209358452e-05,1,"[0.7089390345942649, 0.7089390345942649, 0.7089390345942649, 0.7089390345942649]","[410.9037961778529, 3230.6255533166723, 1373.6452148678468, 2578.189984619039]",None,"[11.154379536012986, 8.0, 4.322446449808495, 10.64413019887376]",False,686.4862037000712,689.65301800007,689.65301800007,690.8677858000156,['space'],1,[0.41652479977346957],3.865605399943888,4.885929099982604,None,1,None,1,,,,,,,nlhglm,001,fr,0,0,2022-05-09_14h49.52.594,Cluster,2022.1.1,36.090607616575966,
,,,,4,0,4,0,9,0,9,0,,,time,,,,,,,,,,,,,,,,,,,,,,,,,,,,,,,,,,,,,,,,,,,,,,,,,,,,,,,,,,,,,,,,,,,,,,,,,,,,,,,,,,,,,,,,,,,,,,,,,,,,,,,,,,,,,,,,,,,691.4403997999616,None,8000.0,-12.0,4.560054196779548e-05,1,"[0.5425444795127228, 0.5425444795127228, 0.5425444795127228, 0.5425444795127228]","[1563.3863451529594, 925.3815453008435, 3435.1654011271, 5600.648599380209]",None,"[5.0, 11.611269431546013, 7.0, 2.61474383074168]",False,693.9090037001297,696.57457539998,696.57457539998,697.7906444999389,['space'],1,[0.5839859999250621],3.1940293998923153,4.198909800034016,None,1,None,1,,,,,,,nlhglm,001,fr,0,0,2022-05-09_14h49.52.594,Cluster,2022.1.1,36.090607616575966,
,,,,4,0,4,0,10,0,10,0,,,time,,,,,,,,,,,,,,,,,,,,,,,,,,,,,,,,,,,,,,,,,,,,,,,,,,,,,,,,,,,,,,,,,,,,,,,,,,,,,,,,,,,,,,,,,,,,,,,,,,,,,,,,,,,,,,,,,,,698.1582693001255,None,766.2844129766042,9.32905364367366,0.00011679854572326462,1,"[0.7690583109479049, 0.7690583109479049, 0.7690583109479049, 0.7690583109479049]","[278.28809733770026, 2790.812410453826, 658.5283937690632, 3404.3471866211594]",None,"[10.0, 10.03860550823755, 15.620563390405254, 7.0]",False,699.1529167999979,702.4933277000673,702.4933277000673,703.7108821000438,['space'],1,[0.3254814997781068],4.106455699773505,5.132519299862906,None,1,None,1,,,,,,,nlhglm,001,fr,0,0,2022-05-09_14h49.52.594,Cluster,2022.1.1,36.090607616575966,
,,,,4,0,4,0,11,0,11,0,,,frequency,,,,,,,,,,,,,,,,,,,,,,,,,,,,,,,,,,,,,,,,,,,,,,,,,,,,,,,,,,,,,,,,,,,,,,,,,,,,,,,,,,,,,,,,,,,,,,,,,,,,,,,,,,,,,,,,,,,704.3483158999588,None,2828.42712474619,-1.0,5.8364428873931735e-05,0,"[0.4270007717985218, 0.779743758371076, 0.47189897852339135, 0.45277722672321374]","[561.2310241546866, 840.8964152537146, 1259.9210498948732, 1887.748625363387]",Perfect_5th,"[14.667483670350345, 14.0, 5.0, 7.421528439391121]",False,705.377247299999,708.082059300039,708.082059300039,709.3033436001278,None,0,,3.1597670500632375,4.163009950192645,None,1,None,1,,,,,,,nlhglm,001,fr,0,0,2022-05-09_14h49.52.594,Cluster,2022.1.1,36.090607616575966,
,,,,4,0,4,0,12,0,12,0,,,none,,,,,,,,,,,,,,,,,,,,,,,,,,,,,,,,,,,,,,,,,,,,,,,,,,,,,,,,,,,,,,,,,,,,,,,,,,,,,,,,,,,,,,,,,,,,,,,,,,,,,,,,,,,,,,,,,,,709.5756989000365,None,125.0,1.0,0.0008109050486794653,0,"[0.7920164447876297, 0.6369861480993061, 0.51728875054843, 0.7216705524760354]","[464.5789611536256, 3846.3272528547427, 2053.191073361832, 2714.0870178368446]",None,"[12.58752167620985, 5.796928157975716, 9.0, 10.64413019887376]",False,710.6079512001015,713.5885712001473,713.5885712001473,714.8044320000336,None,0,,3.69406025018543,4.724364350084215,None,1,None,1,,,,,,,nlhglm,001,fr,0,0,2022-05-09_14h49.52.594,Cluster,2022.1.1,36.090607616575966,
,,,,4,0,4,0,13,0,13,0,,,time,,,,,,,,,,,,,,,,,,,,,,,,,,,,,,,,,,,,,,,,,,,,,,,,,,,,,,,,,,,,,,,,,,,,,,,,,,,,,,,,,,,,,,,,,,,,,,,,,,,,,,,,,,,,,,,,,,,715.3760222999845,None,2828.42712474619,-1.0,5.8364428873931735e-05,0,"[0.7189207435179981, 0.7189207435179981, 0.7189207435179981, 0.7189207435179981]","[899.8623821229601, 194.20776654614653, 3485.612441673938, 296.4130437369744]",None,"[12.0, 12.403805897260522, 6.78511766356254, 9.638314099777514]",False,716.4550793000963,719.6466685000341,719.6466685000341,720.8665003001224,None,0,,3.9082203498110175,4.93200314999558,None,1,None,1,,,,,,,nlhglm,001,fr,0,0,2022-05-09_14h49.52.594,Cluster,2022.1.1,36.090607616575966,
,,,,4,0,4,0,14,0,14,0,,,frequency,,,,,,,,,,,,,,,,,,,,,,,,,,,,,,,,,,,,,,,,,,,,,,,,,,,,,,,,,,,,,,,,,,,,,,,,,,,,,,,,,,,,,,,,,,,,,,,,,,,,,,,,,,,,,,,,,,,721.432812999934,None,,,,,"[0.5541980502768409, 0.438836593264627, 0.5014519981794983, 0.7535449858676654]","[279.5875422165684, 249.08418296874876, 221.908779315892, 197.6982470366156]",Tone,"[10.0, 10.782137438800723, 12.0, 12.384595368515688]",True,722.4480924999807,724.9818122000434,724.9818122000434,726.2111078000162,None,1,,3.2713241998571903,4.274598199874163,None,1,None,1,0,,,,,,nlhglm,001,fr,0,0,2022-05-09_14h49.52.594,Cluster,2022.1.1,36.090607616575966,
,,,,4,0,4,0,15,0,15,0,,,frequency,,,,,,,,,,,,,,,,,,,,,,,,,,,,,,,,,,,,,,,,,,,,,,,,,,,,,,,,,,,,,,,,,,,,,,,,,,,,,,,,,,,,,,,,,,,,,,,,,,,,,,,,,,,,,,,,,,,726.7806782999542,None,1479.469554440991,-1.4355564242785448,4.1376236407683175e-05,1,"[0.717408762043649, 0.7691976931728697, 0.6587866809009194, 0.671459291214443]","[3728.0296686375877, 2958.9391088819825, 2348.5115270745528, 1864.0148343187936]",Major_3rd,"[5.796928157975716, 9.081846481128295, 10.463104830656292, 7.421528439391121]",False,727.7922165000346,730.9508887000848,730.9508887000848,732.1640701999422,['space'],1,[0.5879916998092085],3.829815699951723,4.8539477998856455,None,1,None,1,,,,,,,nlhglm,001,fr,0,0,2022-05-09_14h49.52.594,Cluster,2022.1.1,36.090607616575966,
,,,,4,0,4,0,16,0,16,0,,,time,,,,,,,,,,,,,,,,,,,,,,,,,,,,,,,,,,,,,,,,,,,,,,,,,,,,,,,,,,,,,,,,,,,,,,,,,,,,,,,,,,,,,,,,,,,,,,,,,,,,,,,,,,,,,,,,,,,732.7080383999273,None,7706.190069886079,-10.0,5.459133166971443e-05,1,"[0.42851421489362274, 0.42851421489362274, 0.42851421489362274, 0.42851421489362274]","[1594.8733631895486, 3113.316535116212, 1761.7179053534526, 530.9403396975291]",None,"[5.0, 9.0, 6.235535383868793, 13.999630326367877]",False,733.7286737000104,736.0322032999247,736.0322032999247,737.2557960001286,['space'],1,[0.5262459998484701],2.7213706001639366,3.7492959999945015,None,1,None,1,,,,,,,nlhglm,001,fr,0,0,2022-05-09_14h49.52.594,Cluster,2022.1.1,36.090607616575966,
,,,,4,0,4,0,17,0,17,0,,,frequency,,,,,,,,,,,,,,,,,,,,,,,,,,,,,,,,,,,,,,,,,,,,,,,,,,,,,,,,,,,,,,,,,,,,,,,,,,,,,,,,,,,,,,,,,,,,,,,,,,,,,,,,,,,,,,,,,,,737.5391585000325,None,535.8867312681471,1.0,7.388082491012497e-05,1,"[0.6314473284101377, 0.6387060063023146, 0.6298119629957959, 0.5108342709098915]","[2700.699892336382, 1802.5009252216619, 1203.0250360821176, 802.9228818633771]",Perfect_5th,"[10.64413019887376, 7.0, 6.0, 14.499522387231952]",False,738.5461126000155,741.4847564999945,741.4847564999945,742.6850920999423,['space'],1,[0.5343862997833639],3.4492577500641346,4.470699350116774,None,1,None,1,,,,,,,nlhglm,001,fr,0,0,2022-05-09_14h49.52.594,Cluster,2022.1.1,36.090607616575966,
,,,,4,0,4,0,18,0,18,0,,,both,,,,,,,,,,,,,,,,,,,,,,,,,,,,,,,,,,,,,,,,,,,,,,,,,,,,,,,,,,,,,,,,,,,,,,,,,,,,,,,,,,,,,,,,,,,,,,,,,,,,,,,,,,,,,,,,,,,743.0555162001401,None,,,,,"[0.4187844029825344, 0.4187844029825344, 0.4187844029825344, 0.4187844029825344]","[2303.309377219518, 2052.0153716454915, 1828.1378642032405, 1628.6856798024846]",Tone,"[10.463104830656292, 9.0, 7.0, 5.238359735917687]",True,744.0707984999754,746.3433356999885,746.3433356999885,747.5438482000027,None,1,,2.705108400201425,3.7249088000971824,None,1,None,1,0,,,,,,nlhglm,001,fr,0,0,2022-05-09_14h49.52.594,Cluster,2022.1.1,36.090607616575966,
,,,,4,0,4,0,19,0,19,0,,,both,,,,,,,,,,,,,,,,,,,,,,,,,,,,,,,,,,,,,,,,,,,,,,,,,,,,,,,,,,,,,,,,,,,,,,,,,,,,,,,,,,,,,,,,,,,,,,,,,,,,,,,,,,,,,,,,,,,747.8596258000471,None,434.3991254311657,5.867488779501988,0.00014697951687139813,1,"[0.636764564561509, 0.636764564561509, 0.636764564561509, 0.636764564561509]","[689.5656286834984, 614.3331346677659, 547.3086021866491, 487.59653211526654]",Tone,"[15.6825341469976, 15.245364980628292, 14.0, 13.0]",False,748.8765597001184,751.8257864001207,751.8257864001207,753.0532895000651,['space'],1,[0.4301676000468433],3.5574441999197006,4.5717604998499155,None,1,None,1,,,,,,,nlhglm,001,fr,0,0,2022-05-09_14h49.52.594,Cluster,2022.1.1,36.090607616575966,
,,,,5,0,5,0,0,0,0,0,,,frequency,,,,,,,,,,,,,,,,,,,,,,,,,,,,,,,,,,,,,,,,,,,,,,,,,,,,,,,,,,,,,,,,,,,,,,,,,,,,,,,,,,,,,,,,,,,,,,,,,,,,,,,,,,,,,,,,,,,762.6877552999649,None,1302.2481791975833,-1.4380079030766173,4.5093068334294003e-05,1,"[0.45292824184228586, 0.6202289853706691, 0.6203822161427962, 0.41589212179760726]","[2067.190129581916, 1841.657036596891, 1640.7298931583061, 1461.7241586292707]",Tone,"[9.0, 7.0, 5.238359735917687, 4.322446449808495]",False,763.6865560000297,766.3910888000391,766.3910888000391,767.600292300107,['space'],1,[0.4594009998254478],3.135261599905789,4.1431963997893035,None,1,None,1,,,,,,,nlhglm,001,fr,0,0,2022-05-09_14h49.52.594,Cluster,2022.1.1,36.090607616575966,
,,,,5,0,5,0,1,0,1,0,,,time,,,,,,,,,,,,,,,,,,,,,,,,,,,,,,,,,,,,,,,,,,,,,,,,,,,,,,,,,,,,,,,,,,,,,,,,,,,,,,,,,,,,,,,,,,,,,,,,,,,,,,,,,,,,,,,,,,,767.8906282000244,None,125.0,-6.0,0.00036221798003749513,0,"[0.7179477042259601, 0.7179477042259601, 0.7179477042259601, 0.7179477042259601]","[2995.9306273589596, 293.21238905770423, 717.440009397722, 1132.7524201734416]",None,"[9.081846481128295, 9.638314099777514, 15.6825341469976, 7.0]",False,768.9206201999914,772.0975611000322,772.0975611000322,773.3159463999327,None,0,,3.8968753502704203,4.9274363501463085,None,1,None,1,,,,,,,nlhglm,001,fr,0,0,2022-05-09_14h49.52.594,Cluster,2022.1.1,36.090607616575966,
,,,,5,0,5,0,2,0,2,0,,,none,,,,,,,,,,,,,,,,,,,,,,,,,,,,,,,,,,,,,,,,,,,,,,,,,,,,,,,,,,,,,,,,,,,,,,,,,,,,,,,,,,,,,,,,,,,,,,,,,,,,,,,,,,,,,,,,,,,773.8845562001225,None,283.63339040513245,3.6383140997775145,0.0002004471130461986,0,"[0.6508208614448112, 0.4917629842623114, 0.6695282550972494, 0.5894855255668732]","[1068.37368712026, 316.9476906147687, 263.6836280498602, 1696.4401260568752]",None,"[8.060505806263489, 9.432336453088666, 10.12521572052971, 6.0]",False,774.8990797000006,777.7362573000137,777.7362573000137,778.9639847001527,None,0,,3.4260834001470357,4.435465699993074,None,1,None,1,,,,,,,nlhglm,001,fr,0,0,2022-05-09_14h49.52.594,Cluster,2022.1.1,36.090607616575966,
,,,,5,0,5,0,3,0,3,0,,,frequency,,,,,,,,,,,,,,,,,,,,,,,,,,,,,,,,,,,,,,,,,,,,,,,,,,,,,,,,,,,,,,,,,,,,,,,,,,,,,,,,,,,,,,,,,,,,,,,,,,,,,,,,,,,,,,,,,,,779.4014924000949,None,707.1067811865476,6.0,8.859552863484468e-05,0,"[0.7224041288415038, 0.7860186997485152, 0.5296137172571125, 0.7906435750557552]","[1122.4620483093734, 1000.0000000000002, 890.8987181403395, 793.7005259840998]",Tone,"[7.0, 9.823138028380729, 13.0, 15.0]",False,780.4275947001297,783.4813534000423,783.4813534000423,784.6955585000105,None,0,,3.854670650092885,4.857580550014973,None,1,None,1,,,,,,,nlhglm,001,fr,0,0,2022-05-09_14h49.52.594,Cluster,2022.1.1,36.090607616575966,
,,,,5,0,5,0,4,0,4,0,,,frequency,,,,,,,,,,,,,,,,,,,,,,,,,,,,,,,,,,,,,,,,,,,,,,,,,,,,,,,,,,,,,,,,,,,,,,,,,,,,,,,,,,,,,,,,,,,,,,,,,,,,,,,,,,,,,,,,,,,785.3238113000989,None,2008.1158750606387,2.633559890401431,0.00010155262018733411,1,"[0.7266199905566747, 0.7170292908305648, 0.40058923042215694, 0.568294802910663]","[1265.0337308084809, 1419.9523526637354, 1593.8426262726496, 1789.0278589687887]",Tone,"[5.0, 4.322446449808495, 5.0, 7.0]",False,786.3431601000484,789.2114119001199,789.2114119001199,790.420956700109,['space'],1,[0.4110823997762054],3.439276099903509,4.445217399857938,None,1,None,1,,,,,,,nlhglm,001,fr,0,0,2022-05-09_14h49.52.594,Cluster,2022.1.1,36.090607616575966,
,,,,5,0,5,0,5,0,5,0,,,frequency,,,,,,,,,,,,,,,,,,,,,,,,,,,,,,,,,,,,,,,,,,,,,,,,,,,,,,,,,,,,,,,,,,,,,,,,,,,,,,,,,,,,,,,,,,,,,,,,,,,,,,,,,,,,,,,,,,,790.8535740999505,None,125.0,-4.0,0.00045600541967795504,1,"[0.7035660101840086, 0.6949724390458091, 0.6331043352779757, 0.7550866068512923]","[314.9802624737183, 250.00000000000003, 198.42513149602496, 157.49013123685916]",Major_3rd,"[9.432336453088666, 10.782137438800723, 12.384595368515688, 11.0]",False,793.4774659001268,796.5415376999881,796.5415376999881,797.7759714000858,['space'],1,[0.612409999826923],3.8141428001690656,4.829475700156763,None,1,None,1,,,,,,,nlhglm,001,fr,0,0,2022-05-09_14h49.52.594,Cluster,2022.1.1,36.090607616575966,
,,,,5,0,5,0,6,0,6,0,,,frequency,,,,,,,,,,,,,,,,,,,,,,,,,,,,,,,,,,,,,,,,,,,,,,,,,,,,,,,,,,,,,,,,,,,,,,,,,,,,,,,,,,,,,,,,,,,,,,,,,,,,,,,,,,,,,,,,,,,798.3454887999687,None,,,,,"[0.6582640735435157, 0.5712082894407745, 0.46526128311969317, 0.5423439637493006]","[176.39461241441532, 264.2932961034378, 395.9925159228451, 593.3183889974008]",Perfect_5th,"[12.116046522772201, 10.12521572052971, 11.0, 15.0]",True,799.3625250000041,802.085580999963,802.085580999963,803.3043025000952,None,1,,3.2537531999405473,4.253970799967647,None,1,None,1,0,,,,,,nlhglm,001,fr,0,0,2022-05-09_14h49.52.594,Cluster,2022.1.1,36.090607616575966,
,,,,5,0,5,0,7,0,7,0,,,none,,,,,,,,,,,,,,,,,,,,,,,,,,,,,,,,,,,,,,,,,,,,,,,,,,,,,,,,,,,,,,,,,,,,,,,,,,,,,,,,,,,,,,,,,,,,,,,,,,,,,,,,,,,,,,,,,,,803.6692375000566,None,406.12619817811805,2.0,9.598216571527888e-05,1,"[0.6653248270419632, 0.6343669554216331, 0.44578945323065483, 0.4370075095926272]","[846.113102914534, 137.36515114439032, 3579.5056736842394, 2487.767055346105]",None,"[14.0, 10.0, 6.78511766356254, 10.7928107105889]",False,804.6878573999275,807.4434490001295,807.4434490001295,808.6596818999387,['space'],1,[0.4478110997006297],3.193426250014454,4.203834749991074,None,1,None,1,,,,,,,nlhglm,001,fr,0,0,2022-05-09_14h49.52.594,Cluster,2022.1.1,36.090607616575966,
,,,,5,0,5,0,8,0,8,0,,,both,,,,,,,,,,,,,,,,,,,,,,,,,,,,,,,,,,,,,,,,,,,,,,,,,,,,,,,,,,,,,,,,,,,,,,,,,,,,,,,,,,,,,,,,,,,,,,,,,,,,,,,,,,,,,,,,,,,808.9396671999712,None,707.1067811865476,7.0,9.940581809693379e-05,1,"[0.4297701816259687, 0.4297701816259687, 0.4297701816259687, 0.4297701816259687]","[280.61551207734334, 353.5533905932739, 445.44935907016975, 561.2310241546866]",Major_3rd,"[9.638314099777514, 9.902816769994493, 12.0, 14.667483670350345]",False,809.9598731999286,812.2731630001217,812.2731630001217,813.4774382000323,['space'],1,[0.44509629998356104],2.7546287500299513,3.777202849974856,None,1,None,1,,,,,,,nlhglm,001,fr,0,0,2022-05-09_14h49.52.594,Cluster,2022.1.1,36.090607616575966,
,,,,5,0,5,0,9,0,9,0,,,none,,,,,,,,,,,,,,,,,,,,,,,,,,,,,,,,,,,,,,,,,,,,,,,,,,,,,,,,,,,,,,,,,,,,,,,,,,,,,,,,,,,,,,,,,,,,,,,,,,,,,,,,,,,,,,,,,,,813.7848960000556,None,347.1169132973375,3.902816769994493,0.00014149733214327437,0,"[0.433910397447939, 0.436931759423785, 0.7293659583033673, 0.5366916668554018]","[1020.8054956959562, 1318.5855163994713, 515.6949055162041, 642.4238358978796]",None,"[9.0, 4.561992096923383, 13.301052477958216, 15.620563390405254]",False,814.7795043999795,817.3969283001497,817.3969283001497,818.616071500117,None,0,,3.1687422001268715,4.202713800128549,None,1,None,1,,,,,,,nlhglm,001,fr,0,0,2022-05-09_14h49.52.594,Cluster,2022.1.1,36.090607616575966,
,,,,5,0,5,0,10,0,10,0,,,time,,,,,,,,,,,,,,,,,,,,,,,,,,,,,,,,,,,,,,,,,,,,,,,,,,,,,,,,,,,,,,,,,,,,,,,,,,,,,,,,,,,,,,,,,,,,,,,,,,,,,,,,,,,,,,,,,,,819.0496551000979,None,,,,,"[0.6980203071396309, 0.6980203071396309, 0.6980203071396309, 0.6980203071396309]","[7178.113001550425, 320.67768044436724, 4766.202641413993, 990.3864268467822]",None,"[-3.0, 9.530692052403078, 4.0, 10.0]",True,820.0623743000906,823.1912271999754,823.1912271999754,824.39232120011,None,1,,3.797129599843174,4.820999999996275,None,1,None,1,0,,,,,,nlhglm,001,fr,0,0,2022-05-09_14h49.52.594,Cluster,2022.1.1,36.090607616575966,
,,,,5,0,5,0,11,0,11,0,,,none,,,,,,,,,,,,,,,,,,,,,,,,,,,,,,,,,,,,,,,,,,,,,,,,,,,,,,,,,,,,,,,,,,,,,,,,,,,,,,,,,,,,,,,,,,,,,,,,,,,,,,,,,,,,,,,,,,,824.9350614000577,None,615.5722066724584,4.0,8.465768914838171e-05,0,"[0.4622347685180702, 0.7342776447897763, 0.7954577336334597, 0.49853838743332257]","[455.40826023576057, 384.899911479382, 148.07173032380274, 4116.471518021101]",None,"[12.58752167620985, 10.47466440993579, 10.21693571207744, 5.0]",False,825.9689486999996,829.0108702001162,829.0108702001162,830.2386855999939,None,0,,3.5167515501379967,4.536262550158426,None,1,None,1,,,,,,,nlhglm,001,fr,0,0,2022-05-09_14h49.52.594,Cluster,2022.1.1,36.090607616575966,
,,,,5,0,5,0,12,0,12,0,,,frequency,,,,,,,,,,,,,,,,,,,,,,,,,,,,,,,,,,,,,,,,,,,,,,,,,,,,,,,,,,,,,,,,,,,,,,,,,,,,,,,,,,,,,,,,,,,,,,,,,,,,,,,,,,,,,,,,,,,830.5472775001545,None,2319.5416590252526,4.463104830656291,0.00013690314479136847,1,"[0.4586638050383953, 0.40967384790627526, 0.4589664423401992, 0.42814974740075995]","[5844.878724627984, 4639.083318050505, 3682.0428696207487, 2922.439362313992]",Major_3rd,"[2.0, 4.27301836022609, 6.0, 10.0]",False,831.5619982001372,833.9189840999898,833.9189840999898,835.1348556999583,['space'],1,[0.3548411997035146],2.7738693000283092,3.803913600044325,None,1,None,1,,,,,,,nlhglm,001,fr,0,0,2022-05-09_14h49.52.594,Cluster,2022.1.1,36.090607616575966,
,,,,5,0,5,0,13,0,13,0,,,time,,,,,,,,,,,,,,,,,,,,,,,,,,,,,,,,,,,,,,,,,,,,,,,,,,,,,,,,,,,,,,,,,,,,,,,,,,,,,,,,,,,,,,,,,,,,,,,,,,,,,,,,,,,,,,,,,,,835.4290643001441,None,146.866927461182,4.21693571207744,0.0008580563119109255,1,"[0.5454546943786961, 0.5454546943786961, 0.5454546943786961, 0.5454546943786961]","[426.5204189056061, 7314.514365101835, 374.38989406275454, 585.4907519452539]",None,"[11.867488779501988, -3.0, 10.47466440993579, 14.667483670350345]",False,836.4329262999818,839.0840412999969,839.0840412999969,840.3187279000413,['space'],1,[0.37206909991800785],3.212964399950579,4.223157299915329,None,1,None,1,,,,,,,nlhglm,001,fr,0,0,2022-05-09_14h49.52.594,Cluster,2022.1.1,36.090607616575966,
,,,,5,0,5,0,14,0,14,0,,,time,,,,,,,,,,,,,,,,,,,,,,,,,,,,,,,,,,,,,,,,,,,,,,,,,,,,,,,,,,,,,,,,,,,,,,,,,,,,,,,,,,,,,,,,,,,,,,,,,,,,,,,,,,,,,,,,,,,840.7167851999402,None,,,,,"[0.4692871246859995, 0.4692871246859995, 0.4692871246859995, 0.4692871246859995]","[1469.3658410525825, 1085.5221808723559, 228.19668283696092, 2100.5456195852676]",None,"[4.564443575721455, 8.0, 11.479029571563201, 9.700473139918685]",True,841.7380252000876,844.16295300005,844.16295300005,845.3785765001085,None,1,,2.908734899945557,3.921219600131735,None,1,None,1,0,,,,,,nlhglm,001,fr,0,0,2022-05-09_14h49.52.594,Cluster,2022.1.1,36.090607616575966,
,,,,5,0,5,0,15,0,15,0,,,frequency,,,,,,,,,,,,,,,,,,,,,,,,,,,,,,,,,,,,,,,,,,,,,,,,,,,,,,,,,,,,,,,,,,,,,,,,,,,,,,,,,,,,,,,,,,,,,,,,,,,,,,,,,,,,,,,,,,,845.7198856000323,None,5278.031643091578,-6.0,7.141580827330639e-05,0,"[0.4306754159665614, 0.5668276544533957, 0.613813705730603, 0.6322217027093405]","[2094.5882456412546, 2639.01582154579, 3324.9515845711526, 4189.176491282508]",Major_3rd,"[9.0, 10.64413019887376, 7.934248541767307, 4.585532564029018]",False,846.808396599954,849.4433077001013,849.4433077001013,850.64194030012,None,0,,3.2870510497596115,4.309184749843553,None,1,None,1,,,,,,,nlhglm,001,fr,0,0,2022-05-09_14h49.52.594,Cluster,2022.1.1,36.090607616575966,
,,,,5,0,5,0,16,0,16,0,,,frequency,,,,,,,,,,,,,,,,,,,,,,,,,,,,,,,,,,,,,,,,,,,,,,,,,,,,,,,,,,,,,,,,,,,,,,,,,,,,,,,,,,,,,,,,,,,,,,,,,,,,,,,,,,,,,,,,,,,851.1553525000345,None,7930.393438819531,-10.985486286773474,5.065455824722277e-05,1,"[0.7458329669929192, 0.7617376194474812, 0.41456775600303364, 0.4309717339583239]","[1573.5893609129787, 2357.7200755537706, 3532.5886744964387, 5292.90261069243]",Perfect_5th,"[5.0, 10.463104830656292, 6.78511766356254, 3.452465288090184]",False,852.149843600113,855.0847110000905,855.0847110000905,856.2971820000093,['space'],1,[0.5250510999467224],3.3740536000113934,4.406400500098243,None,1,None,1,,,,,,,nlhglm,001,fr,0,0,2022-05-09_14h49.52.594,Cluster,2022.1.1,36.090607616575966,
,,,,5,0,5,0,17,0,17,0,,,frequency,,,,,,,,,,,,,,,,,,,,,,,,,,,,,,,,,,,,,,,,,,,,,,,,,,,,,,,,,,,,,,,,,,,,,,,,,,,,,,,,,,,,,,,,,,,,,,,,,,,,,,,,,,,,,,,,,,,856.6223621999379,None,164.93848884661182,-1.0,0.0003503823469658471,1,"[0.47295590762285067, 0.5356952795365589, 0.4420004723363462, 0.6151600749303509]","[261.82353070515677, 233.25824788420192, 207.809474035697, 185.13719403582058]",Tone,"[10.12521572052971, 11.479029571563201, 12.384595368515688, 12.403805897260522]",False,859.3780571001116,861.844082799973,861.844082799973,863.0664107999764,['space'],1,[0.2996548998635262],3.092679650289938,4.101720950333402,None,1,None,1,,,,,,,nlhglm,001,fr,0,0,2022-05-09_14h49.52.594,Cluster,2022.1.1,36.090607616575966,
,,,,5,0,5,0,18,0,18,0,,,time,,,,,,,,,,,,,,,,,,,,,,,,,,,,,,,,,,,,,,,,,,,,,,,,,,,,,,,,,,,,,,,,,,,,,,,,,,,,,,,,,,,,,,,,,,,,,,,,,,,,,,,,,,,,,,,,,,,863.52462260006,None,1624.5047927124701,0.0,5.785700826325816e-05,1,"[0.4349753018342444, 0.4349753018342444, 0.4349753018342444, 0.4349753018342444]","[213.06394893221227, 439.2644029191609, 623.2345750628024, 247.54436190247304]",None,"[12.053320048470916, 12.0, 15.245364980628292, 10.782137438800723]",False,864.5380987999961,866.8712784999516,866.8712784999516,868.0760568999685,['space'],1,[0.5093927998095751],2.755059350049123,3.772740450222045,None,1,None,1,,,,,,,nlhglm,001,fr,0,0,2022-05-09_14h49.52.594,Cluster,2022.1.1,36.090607616575966,
,,,,5,0,5,0,19,0,19,0,,,both,,,,,,,,,,,,,,,,,,,,,,,,,,,,,,,,,,,,,,,,,,,,,,,,,,,,,,,,,,,,,,,,,,,,,,,,,,,,,,,,,,,,,,,,,,,,,,,,,,,,,,,,,,,,,,,,,,,868.3686792999506,None,,,,,"[0.6901854875777294, 0.6901854875777294, 0.6901854875777294, 0.6901854875777294]","[3012.312484415571, 3795.2759079762995, 4781.748006618217, 6024.624968831141]",Major_3rd,"[9.081846481128295, 5.796928157975716, 4.0, 1.3868785490928328]",True,869.3807065000292,872.4759073001333,872.4759073001333,873.6763850001153,None,1,,3.7934674001298845,4.826302100205794,None,1,None,1,0,,,,,,nlhglm,001,fr,0,0,2022-05-09_14h49.52.594,Cluster,2022.1.1,36.090607616575966,
,,,,6,0,6,0,0,0,0,0,,,none,,,,,,,,,,,,,,,,,,,,,,,,,,,,,,,,,,,,,,,,,,,,,,,,,,,,,,,,,,,,,,,,,,,,,,,,,,,,,,,,,,,,,,,,,,,,,,,,,,,,,,,,,,,,,,,,,,,880.1197625000495,None,963.3225018602512,5.0,7.648380000401538e-05,1,"[0.6932817049876201, 0.7051365532172109, 0.7446401084938437, 0.4362384015828346]","[6222.011279090515, 1229.2903102193359, 229.94351653887327, 5063.751977738341]",None,"[1.0, 5.305065038527883, 11.479029571563201, 3.9525763145982866]",False,881.0951125000138,884.2641086000949,884.2641086000949,885.4669043000322,['space'],1,[0.436692199902609],3.5898978000041097,4.600141500122845,None,1,None,1,,,,,,,nlhglm,001,fr,0,0,2022-05-09_14h49.52.594,Cluster,2022.1.1,36.090607616575966,
,,,,6,0,6,0,1,0,1,0,,,none,,,,,,,,,,,,,,,,,,,,,,,,,,,,,,,,,,,,,,,,,,,,,,,,,,,,,,,,,,,,,,,,,,,,,,,,,,,,,,,,,,,,,,,,,,,,,,,,,,,,,,,,,,,,,,,,,,,885.756972800009,None,8000.0,-10.0,5.740768107484415e-05,1,"[0.558084452276007, 0.6006038234256261, 0.4871789724570564, 0.49489930726980164]","[539.847620514031, 272.638353689695, 360.4445973435079, 1476.6739348520523]",None,"[14.0, 10.0, 10.0, 4.564443575721455]",False,887.7553306999616,890.4119321999606,890.4119321999606,891.6381272000726,['space'],1,[0.6632632000837475],3.168220800347626,4.1731280002277344,None,1,None,1,,,,,,,nlhglm,001,fr,0,0,2022-05-09_14h49.52.594,Cluster,2022.1.1,36.090607616575966,
,,,,6,0,6,0,2,0,2,0,,,both,,,,,,,,,,,,,,,,,,,,,,,,,,,,,,,,,,,,,,,,,,,,,,,,,,,,,,,,,,,,,,,,,,,,,,,,,,,,,,,,,,,,,,,,,,,,,,,,,,,,,,,,,,,,,,,,,,,891.9893632000312,None,850.8544318180511,8.0,0.00010000686809481338,1,"[0.7992540198005585, 0.7992540198005585, 0.7992540198005585, 0.7992540198005585]","[1350.647220139779, 1203.2898770823417, 1072.0094090439047, 955.0518083515974]",Tone,"[4.561992096923383, 6.0, 8.060505806263489, 11.0]",False,892.9804555000737,896.4090259000659,896.4090259000659,897.6135408999398,['space'],1,[0.21092829992994666],4.218624699860811,5.2326237000525,None,1,None,1,,,,,,,nlhglm,001,fr,0,0,2022-05-09_14h49.52.594,Cluster,2022.1.1,36.090607616575966,
,,,,6,0,6,0,3,0,3,0,,,both,,,,,,,,,,,,,,,,,,,,,,,,,,,,,,,,,,,,,,,,,,,,,,,,,,,,,,,,,,,,,,,,,,,,,,,,,,,,,,,,,,,,,,,,,,,,,,,,,,,,,,,,,,,,,,,,,,,898.2775328999851,None,176.7766952966369,-10.0,0.00011068635160945309,1,"[0.7422577395273506, 0.7422577395273506, 0.7422577395273506, 0.7422577395273506]","[445.44935907016975, 353.55339059327383, 280.6155120773433, 222.72467953508485]",Major_3rd,"[12.0, 9.902816769994493, 9.638314099777514, 12.0]",False,900.4553231999744,903.7031962000765,903.7031962000765,904.9093059001025,['space'],1,[0.34708879981189966],3.9990023002028465,5.032015300355852,None,1,None,1,,,,,,,nlhglm,001,fr,0,0,2022-05-09_14h49.52.594,Cluster,2022.1.1,36.090607616575966,
,,,,6,0,6,0,4,0,4,0,,,frequency,,,,,,,,,,,,,,,,,,,,,,,,,,,,,,,,,,,,,,,,,,,,,,,,,,,,,,,,,,,,,,,,,,,,,,,,,,,,,,,,,,,,,,,,,,,,,,,,,,,,,,,,,,,,,,,,,,,905.5355167000089,None,,,,,"[0.7168697741629968, 0.5014462308519692, 0.6666136983202595, 0.5494061828599714]","[447.2062322444897, 501.9720234618671, 563.444545649008, 632.4451188179295]",Tone,"[12.0, 13.301052477958216, 14.667483670350345, 15.245364980628292]",True,906.5393739000428,909.4400508999825,909.4400508999825,910.657218300039,None,1,,3.462876999983564,4.468191700056195,None,1,None,1,0,,,,,,nlhglm,001,fr,0,0,2022-05-09_14h49.52.594,Cluster,2022.1.1,36.090607616575966,
,,,,6,0,6,0,5,0,5,0,,,time,,,,,,,,,,,,,,,,,,,,,,,,,,,,,,,,,,,,,,,,,,,,,,,,,,,,,,,,,,,,,,,,,,,,,,,,,,,,,,,,,,,,,,,,,,,,,,,,,,,,,,,,,,,,,,,,,,,911.0634176000021,None,1511.4247862135862,-1.4355564242785448,4.176231367587361e-05,1,"[0.7422540827468689, 0.7422540827468689, 0.7422540827468689, 0.7422540827468689]","[5183.581430456853, 6669.753002295782, 1550.685419181259, 1142.0135533432974]",None,"[3.452465288090184, -1.0, 5.0, 6.501102016365267]",False,912.0780267999507,915.3379049000796,915.3379049000796,916.5550502000842,['space'],1,[0.6112869998905808],4.000761799747124,5.015452899737284,None,1,None,1,,,,,,,nlhglm,001,fr,0,0,2022-05-09_14h49.52.594,Cluster,2022.1.1,36.090607616575966,
,,,,6,0,6,0,6,0,6,0,,,both,,,,,,,,,,,,,,,,,,,,,,,,,,,,,,,,,,,,,,,,,,,,,,,,,,,,,,,,,,,,,,,,,,,,,,,,,,,,,,,,,,,,,,,,,,,,,,,,,,,,,,,,,,,,,,,,,,,917.170213600155,None,135.46289781580916,3.5715987203772173,0.0009497830098272239,1,"[0.43748707997547415, 0.43748707997547415, 0.43748707997547415, 0.43748707997547415]","[215.0339464954762, 191.57346728947803, 170.6725564378962, 152.05196175225643]",Tone,"[12.053320048470916, 12.403805897260522, 12.0, 10.914396673838478]",False,918.1809775999282,920.5094431999605,920.5094431999605,921.7384528000839,['space'],1,[0.37829669984057546],2.7701735999435186,3.7975042001344264,None,1,None,1,,,,,,,nlhglm,001,fr,0,0,2022-05-09_14h49.52.594,Cluster,2022.1.1,36.090607616575966,
,,,,6,0,6,0,7,0,7,0,,,frequency,,,,,,,,,,,,,,,,,,,,,,,,,,,,,,,,,,,,,,,,,,,,,,,,,,,,,,,,,,,,,,,,,,,,,,,,,,,,,,,,,,,,,,,,,,,,,,,,,,,,,,,,,,,,,,,,,,,922.0449759000912,None,540.5004631396804,8.0,0.0001635906495583843,1,"[0.5900940341470033, 0.46126146493963543, 0.40060001959148495, 0.42269710775775327]","[2723.951643950445, 1818.0196075885187, 1213.3825139358607, 809.835668977307]",Perfect_5th,"[10.64413019887376, 7.0, 5.305065038527883, 14.499522387231952]",False,923.0360199999996,925.5118996999227,925.5118996999227,926.7162343999371,['space'],1,[0.2810833998955786],2.892768200021237,3.904342900030315,None,1,None,1,,,,,,,nlhglm,001,fr,0,0,2022-05-09_14h49.52.594,Cluster,2022.1.1,36.090607616575966,
,,,,6,0,6,0,8,0,8,0,,,none,,,,,,,,,,,,,,,,,,,,,,,,,,,,,,,,,,,,,,,,,,,,,,,,,,,,,,,,,,,,,,,,,,,,,,,,,,,,,,,,,,,,,,,,,,,,,,,,,,,,,,,,,,,,,,,,,,,927.008482699981,None,1080.8704905131924,2.0,5.9717156713467863e-05,1,"[0.7356976001413174, 0.7227878891035241, 0.6098091941903292, 0.4135754102072027]","[1190.7096005064584, 3731.252572017757, 1543.80114110298, 351.20369688809484]",None,"[6.0, 5.796928157975716, 4.564443575721455, 9.902816769994493]",False,928.0146721999627,931.0984476001468,931.0984476001468,932.3111066001002,['space'],1,[0.40133699984289706],3.4900426000822335,4.493589699966833,None,1,None,1,,,,,,,nlhglm,001,fr,0,0,2022-05-09_14h49.52.594,Cluster,2022.1.1,36.090607616575966,
,,,,6,0,6,0,9,0,9,0,,,frequency,,,,,,,,,,,,,,,,,,,,,,,,,,,,,,,,,,,,,,,,,,,,,,,,,,,,,,,,,,,,,,,,,,,,,,,,,,,,,,,,,,,,,,,,,,,,,,,,,,,,,,,,,,,,,,,,,,,932.5756709999405,None,435.2752816480623,-4.0,4.716527343053582e-05,0,"[0.41445702517665217, 0.6370264885359267, 0.43695150353483186, 0.7506775523608819]","[172.73910999597217, 217.63764082403122, 274.2062449236567, 345.47821999194423]",Major_3rd,"[12.0, 12.053320048470916, 10.0, 9.902816769994493]",False,933.5955308999401,936.1010553999804,936.1010553999804,937.3252650001086,None,0,,3.2545186502393335,4.265683750156313,None,1,None,1,,,,,,,nlhglm,001,fr,0,0,2022-05-09_14h49.52.594,Cluster,2022.1.1,36.090607616575966,
,,,,6,0,6,0,10,0,10,0,,,time,,,,,,,,,,,,,,,,,,,,,,,,,,,,,,,,,,,,,,,,,,,,,,,,,,,,,,,,,,,,,,,,,,,,,,,,,,,,,,,,,,,,,,,,,,,,,,,,,,,,,,,,,,,,,,,,,,,937.9123619999737,None,353.5533905932738,2.0,0.0001115563142959358,1,"[0.4923642292166248, 0.4923642292166248, 0.4923642292166248, 0.4923642292166248]","[1949.1206239708758, 1719.7673950403973, 417.8807568917102, 1688.8296800311132]",None,"[8.0, 6.0, 11.154379536012986, 6.0]",False,938.919583100127,941.4196977999527,941.4196977999527,942.6274506000336,['space'],1,[0.46766019985079765],3.0134692501742393,4.037505350075662,None,1,None,1,,,,,,,nlhglm,001,fr,0,0,2022-05-09_14h49.52.594,Cluster,2022.1.1,36.090607616575966,
,,,,6,0,6,0,11,0,11,0,,,both,,,,,,,,,,,,,,,,,,,,,,,,,,,,,,,,,,,,,,,,,,,,,,,,,,,,,,,,,,,,,,,,,,,,,,,,,,,,,,,,,,,,,,,,,,,,,,,,,,,,,,,,,,,,,,,,,,,943.0056721000001,None,8000.0,-14.0,3.622179800374953e-05,1,"[0.7980578869602355, 0.7980578869602355, 0.7980578869602355, 0.7980578869602355]","[5039.684199579492, 5656.8542494923795, 6349.604207872798, 7127.189745122714]",Tone,"[3.9525763145982866, 2.61474383074168, 8.881784197001252e-16, -2.0]",False,944.0378678999841,947.4522301999386,947.4522301999386,948.679050500039,['space'],1,[0.43786729988642037],4.230419150087982,5.251144350273535,None,1,None,1,,,,,,,nlhglm,001,fr,0,0,2022-05-09_14h49.52.594,Cluster,2022.1.1,36.090607616575966,
,,,,6,0,6,0,12,0,12,0,,,time,,,,,,,,,,,,,,,,,,,,,,,,,,,,,,,,,,,,,,,,,,,,,,,,,,,,,,,,,,,,,,,,,,,,,,,,,,,,,,,,,,,,,,,,,,,,,,,,,,,,,,,,,,,,,,,,,,,949.3311133000534,None,5654.872302836214,-3.38525616925832,8.708979375709137e-05,1,"[0.7879082229117665, 0.7879082229117665, 0.7879082229117665, 0.7879082229117665]","[5419.339123061184, 131.0615352175787, 4663.8171737748935, 7546.500443712379]",None,"[3.0, 9.571598720377217, 4.27301836022609, -4.0]",False,950.3469829000533,953.7376612999942,953.7376612999942,954.9394581001252,['space'],1,[0.4453993998467922],4.168869099812582,5.173046099953353,None,1,None,1,,,,,,,nlhglm,001,fr,0,0,2022-05-09_14h49.52.594,Cluster,2022.1.1,36.090607616575966,
,,,,6,0,6,0,13,0,13,0,,,time,,,,,,,,,,,,,,,,,,,,,,,,,,,,,,,,,,,,,,,,,,,,,,,,,,,,,,,,,,,,,,,,,,,,,,,,,,,,,,,,,,,,,,,,,,,,,,,,,,,,,,,,,,,,,,,,,,,955.5826199001167,None,,,,,"[0.44704785631142263, 0.44704785631142263, 0.44704785631142263, 0.44704785631142263]","[7355.989099375177, 2526.611847498068, 1150.6043699056254, 692.0463427103773]",None,"[-3.0, 10.7928107105889, 6.501102016365267, 15.6825341469976]",True,956.5952753000893,958.9701185999438,958.9701185999438,960.1685500000603,None,1,,2.815621299901977,3.8286432998720556,None,1,None,1,0,,,,,,nlhglm,001,fr,0,0,2022-05-09_14h49.52.594,Cluster,2022.1.1,36.090607616575966,
,,,,6,0,6,0,14,0,14,0,,,time,,,,,,,,,,,,,,,,,,,,,,,,,,,,,,,,,,,,,,,,,,,,,,,,,,,,,,,,,,,,,,,,,,,,,,,,,,,,,,,,,,,,,,,,,,,,,,,,,,,,,,,,,,,,,,,,,,,960.4804792001378,None,8000.0,-15.0,3.228271145173278e-05,0,"[0.413299090760894, 0.413299090760894, 0.413299090760894, 0.413299090760894]","[284.2595729835751, 438.5616319533875, 1071.2724240257523, 142.7099433470827]",None,"[9.638314099777514, 12.0, 8.060505806263489, 10.21693571207744]",False,961.5539571000263,963.8099055001512,963.8099055001512,965.0109612001106,None,0,,2.668751149903983,3.683148049749434,None,1,None,1,,,,,,,nlhglm,001,fr,0,0,2022-05-09_14h49.52.594,Cluster,2022.1.1,36.090607616575966,
