tTrials.thisRepN,tTrials.thisTrialN,tTrials.thisN,tTrials.thisIndex,blocks.thisRepN,blocks.thisTrialN,blocks.thisN,blocks.thisIndex,trials.thisRepN,trials.thisTrialN,trials.thisN,trials.thisIndex,tStart_text.started,tStart_text.stopped,Prediction,practice_Frequency,practice_Level,practice_Psychopy_Level,practice_isCatchTrial,Practice_trial_detection,practice_Cue_Delays,practice_Cue_Frequencies,practice_Interval,practice_Cue_Intensities,tCue_visual_cue.started,tCue_visual_cue.stopped,tProbe_visual_cue.started,tProbe_visual_cue.stopped,tFeedback.keys,tFeedback.corr,tFeedback.rt,tFeedback.started,tFeedback.stopped,tToo_late.keys,tToo_late.corr,tToo_early.keys,tToo_early.corr,tToo_early.rt,more_instructions.started,more_instructions.stopped,readyy.keys,readyy.rt,readyy.started,readyy.stopped,txt_rhythm.started,txt_rhythm.stopped,sound_1.started,sound_1.stopped,sound_2.started,sound_2.stopped,sound_3.started,sound_3.stopped,sound_4.started,sound_4.stopped,cross.started,cross.stopped,sound_5.started,sound_5.stopped,circle.started,circle.stopped,rhythm_ready.keys,rhythm_ready.rt,rhythm_ready.started,rhythm_ready.stopped,rhytm_ready_txt.started,rhytm_ready_txt.stopped,txt_freq.started,txt_freq.stopped,sound_6.started,sound_6.stopped,sound_7.started,sound_7.stopped,sound_8.started,sound_8.stopped,sound_9.started,sound_9.stopped,cross_2.started,cross_2.stopped,sound_10.started,sound_10.stopped,circle_2.started,circle_2.stopped,freq_ready.keys,freq_ready.rt,freq_ready.started,freq_ready.stopped,freq_ready_txt.started,freq_ready_txt.stopped,txt_freq_2.started,txt_freq_2.stopped,sound_11.started,sound_11.stopped,sound_12.started,sound_12.stopped,sound_13.started,sound_13.stopped,sound_14.started,sound_14.stopped,cross_3.started,cross_3.stopped,sound_15.started,sound_15.stopped,circle_3.started,circle_3.stopped,freq_ready_2.keys,freq_ready_2.rt,freq_ready_2.started,freq_ready_2.stopped,freq_ready_txt_2.started,freq_ready_txt_2.stopped,txt_freq_3.started,txt_freq_3.stopped,sound_16.started,sound_16.stopped,sound_17.started,sound_17.stopped,sound_18.started,sound_18.stopped,sound_19.started,sound_19.stopped,cross_4.started,cross_4.stopped,sound_20.started,sound_20.stopped,circle_4.started,circle_4.stopped,freq_ready_txt_3.started,freq_ready_txt_3.stopped,tStart_text_2.started,tStart_text_2.stopped,this_trial_is.started,this_trial_is.stopped,Frequency,Level,Psychopy_Level,Real trial detection,Cue Delays,Cue Frequencies,Interval,Cue Intensities,Catch trial,cue_visual_cue.started,cue_visual_cue.stopped,probe_visual_cue.started,probe_visual_cue.stopped,feedback.keys,feedback.corr,feedback.rt,feedback.started,feedback.stopped,answer_too_late.keys,answer_too_late.corr,answer_too_early.keys,answer_too_early.corr,Catch trial answer,answer_too_early.rt,Audiogram_both,Audiogram_time,Audiogram_frequency,Audiogram_none,participant,session,Language (english or french),Skip training? (1 for yes),Resume previous experiment,date,expName,psychopyVersion,frameRate,
0,0,0,0,,,,,,,,,18.658441100036725,None,none,1000,30,0.0013930605843148849,False,1,"[0.7351322091120007, 0.7817875109907265, 0.711752786107428, 0.7283703568241627]","[189.69178515060395, 412.2208948308772, 962.4509137287283, 195.88637389169548]",None,"[30, 30, 30, 30]",31.905686700018123,35.063285500044,35.063285500044,36.293202899978496,['space'],1,[1.3625343999592587],35.063285500044,37.0005621999735,None,1,['space'],0,[1.9594025999540463],,,,,,,,,,,,,,,,,,,,,,,,,,,,,,,,,,,,,,,,,,,,,,,,,,,,,,,,,,,,,,,,,,,,,,,,,,,,,,,,,,,,,,,,,,,,,,,,,,,,,,,,,,,,,,,,,,,,,,,,,,,udoety,001,fr,0,0,2022-05-03_12h07.59.148,Cluster,2022.1.1,36.41952376907601,
1,0,1,0,,,,,,,,,,,frequency,2500,30,0.002716251657462167,False,1,"[0.45801615580096644, 0.6984812096111266, 0.418125994102238, 0.6704983221637639]","[6299.605249474367, 5000.000000000001, 3968.502629920499, 3149.802624737183]",Major_3rd,"[30, 30, 30, 30]",45.19092029996682,47.7072724000318,47.7072724000318,48.942335800034925,['space'],1,[1.0541240000166],47.7072724000318,49.59501689998433,None,1,None,1,,,,,,,,,,,,,,,,,,,,,,,,,,,,,,,,,,,,,,,,,,,,,,,,,,,,,,,,,,,,,,,,,,,,,,,,,,,,,,,,,,,,,,,,,,,,,,,,,,,,,,,,,,,,,,,,,,,,,,,,,,,,udoety,001,fr,0,0,2022-05-03_12h07.59.148,Cluster,2022.1.1,36.41952376907601,
2,0,2,0,,,,,,,,,,,frequency,6000,30,0.003664122665694519,True,1,"[0.5693592735360559, 0.6107282980162059, 0.5527291668910194, 0.6421276785126717]","[1190.5507889761495, 1783.8106725040816, 2672.696154421018, 4004.5195625101032]",Perfect_5th,"[30, 30, 30, 30]",53.432382600032724,56.08988710003905,56.08988710003905,57.29840089997742,None,1,,56.08988710003905,57.93707230000291,None,1,None,1,,,,,,,,,,,,,,,,,,,,,,,,,,,,,,,,,,,,,,,,,,,,,,,,,,,,,,,,,,,,,,,,,,,,,,,,,,,,,,,,,,,,,,,,,,,,,,,,,,,,,,,,,,,,,,,,,,,,,,,,,,,,udoety,001,fr,0,0,2022-05-03_12h07.59.148,Cluster,2022.1.1,36.41952376907601,
3,0,3,0,,,,,,,,,,,both,440,30,0.0023562289915021436,False,1,"[0.4475114197217975, 0.4475114197217975, 0.4475114197217975, 0.4475114197217975]","[174.614115716502, 220.00000000000006, 277.18263097687213, 349.2282314330039]",Major_3rd,"[30, 30, 30, 30]",62.00928560004104,64.29470660001971,64.29470660001971,65.52651880006306,['space'],1,[0.9145640999777243],64.29470660001971,65.95863120001741,None,1,None,1,,,,,,,,,,,,,,,,,,,,,,,,,,,,,,,,,,,,,,,,,,,,,,,,,,,,,,,,,,,,,,,,,,,,,,,,,,,,,,,,,,,,,,,,,,,,,,,,,,,,,,,,,,,,,,,,,,,,,,,,,,,,udoety,001,fr,0,0,2022-05-03_12h07.59.148,Cluster,2022.1.1,36.41952376907601,
4,0,4,0,,,,,,,,,,,none,250,30,0.005296268625886445,True,1,"[0.4845190653227947, 0.4591252883003676, 0.65012077067675, 0.6143579349823274]","[1236.9638475409927, 1154.3052873219542, 130.05694294302853, 1603.0771208867611]",None,"[30, 30, 30, 30]",68.82180549995974,71.33843640005216,71.33843640005216,72.5646693999879,None,1,,71.33843640005216,73.18204510002397,None,1,None,1,,,,,,,,,,,,,,,,,,,,,,,,,,,,,,,,,,,,,,,,,,,,,,,,,,,,,,,,,,,,,,,,,,,,,,,,,,,,,,,,,,,,,,,,,,,,,,,,,,,,,,,,,,,,,,,,,,,,,,,,,,,,udoety,001,fr,0,0,2022-05-03_12h07.59.148,Cluster,2022.1.1,36.41952376907601,
,,,,,,,,,,,,,,,,,,,,,,,,,,,,,,,,,,,,,,78.9112896999577,None,space,18.48965370003134,78.9112896999577,None,,,,,,,,,,,,,,,,,,,,,,,,,,,,,,,,,,,,,,,,,,,,,,,,,,,,,,,,,,,,,,,,,,,,,,,,,,,,,,,,,,,,,,,,,,,,,,,,,,,,,,,,,,,,,,,,,,,,,udoety,001,fr,0,0,2022-05-03_12h07.59.148,Cluster,2022.1.1,36.41952376907601,
,,,,,,,,,,,,,,,,,,,,,,,,,,,,,,,,,,,,,,,,,,,,97.47224270005245,98.49183059995994,98.93485199001152,None,99.45932849000674,99.67231970001012,99.94388629000169,100.16201900003944,100.46136559003499,None,98.84855999995489,100.66589449997991,100.95719279004261,None,100.66589449997991,101.49566929996945,space,1.0594188999384642,101.65318669995759,None,,,,,,,,,,,,,,,,,,,,,,,,,,,,,,,,,,,,,,,,,,,,,,,,,,,,,,,,,,,,,,,,,,,,,,,,,,,,,,,,,,,,,,,,,,,,,,,,,udoety,001,fr,0,0,2022-05-03_12h07.59.148,Cluster,2022.1.1,36.41952376907601,
,,,,,,,,,,,,,,,,,,,,,,,,,,,,,,,,,,,,,,,,,,,,,,,,,,,,,,,,,,,,,,,,101.65318669995759,None,102.77589239994995,103.79636080004275,104.22795908995904,None,104.54982189000584,None,105.22597799000796,105.44555589999072,105.62964779003524,None,104.1335865999572,105.95033140003216,106.22729349001311,106.44651270005852,105.95033140003216,106.76673240005039,space,0.8701043999753892,106.94687480002176,None,,,,,,,,,,,,,,,,,,,,,,,,,,,,,,,,,,,,,,,,,,,,,,,,,,,,,,,,,,,,,,,,,,,,,,,,,,,udoety,001,fr,0,0,2022-05-03_12h07.59.148,Cluster,2022.1.1,36.41952376907601,
,,,,,,,,,,,,,,,,,,,,,,,,,,,,,,,,,,,,,,,,,,,,,,,,,,,,,,,,,,,,,,,,,,,,,,,,,,,,,,,,,,,,,,106.94687480002176,None,107.88796630001161,108.89365440001711,109.36900429001544,None,109.86350089001935,110.08601400000043,110.36794969001785,None,110.86838199004997,None,109.28272170003038,111.0719597999705,111.36982488997747,111.58566380001139,111.0719597999705,111.88238269998692,space,0.9655453000450507,112.0835654999828,None,,,,,,,,,,,,,,,,,,,,,,,,,,,,,,,,,,,,,,,,,,,,,,,,,,,,,udoety,001,fr,0,0,2022-05-03_12h07.59.148,Cluster,2022.1.1,36.41952376907601,
,,,,0,0,0,0,0,0,0,0,,,frequency,,,,,,,,,,,,,,,,,,,,,,,,,,,,,,,,,,,,,,,,,,,,,,,,,,,,,,,,,,,,,,,,,,,,,,,,,,,,,,,,,,,,,,,,,,,,,,112.0835654999828,None,113.1208106999984,114.14300799998455,114.57438199005556,114.78916130005382,114.87692929005716,None,115.5870058900211,None,115.97189599000849,None,114.48012870003004,116.26239569997415,116.57234769004863,None,116.26239569997415,117.08139149995986,117.2754905000329,None,118.34712960000616,None,132.8174315999495,None,310.94109540877025,7.419576214029289,0.00024181517629379623,1,"[0.6436766507188791, 0.5450345099872909, 0.4982677455595672, 0.6067158688391727]","[783.5224627657597, 621.8821908175406, 493.58822195202623, 391.76123138287977]",Major_3rd,"[4.88041726909917, 8.0, 11.0, 12.805918243019232]",False,133.8148759000469,136.53299259999767,136.53299259999767,137.773191699991,['space'],1,[0.2370628999779001],3.344068210106343,4.3595690100919455,None,1,None,1,,,,,,,udoety,001,fr,0,0,2022-05-03_12h07.59.148,Cluster,2022.1.1,36.41952376907601,
,,,,0,0,0,0,1,0,1,0,,,frequency,,,,,,,,,,,,,,,,,,,,,,,,,,,,,,,,,,,,,,,,,,,,,,,,,,,,,,,,,,,,,,,,,,,,,,,,,,,,,,,,,,,,,,,,,,,,,,,,,,,,,,,,,,,,,,,,,,,,138.20137589995284,None,406.12619817811805,-1.0,6.795016959419142e-05,1,"[0.7205231362050684, 0.520736063359265, 0.7705757174226533, 0.4437677459602988]","[255.84347299919392, 287.174588749259, 322.34257710989505, 361.8173093600948]",Tone,"[12.012059773774315, 13.208387225844973, 13.386035984172485, 13.0]",False,139.87704659998417,142.9081443999894,142.9081443999894,144.14056269999128,['space'],1,[0.3633997000288218],3.4892527802148834,4.510424080188386,None,1,None,1,,,,,,,udoety,001,fr,0,0,2022-05-03_12h07.59.148,Cluster,2022.1.1,36.41952376907601,
,,,,0,0,0,0,2,0,2,0,,,time,,,,,,,,,,,,,,,,,,,,,,,,,,,,,,,,,,,,,,,,,,,,,,,,,,,,,,,,,,,,,,,,,,,,,,,,,,,,,,,,,,,,,,,,,,,,,,,,,,,,,,,,,,,,,,,,,,,,144.42987190000713,None,2653.015579978343,-0.4091729245533381,7.287160898974654e-05,1,"[0.6596291604357821, 0.6596291604357821, 0.6596291604357821, 0.6596291604357821]","[691.7607785146191, 6642.300758260719, 1211.186035756442, 191.381879642122]",None,"[6.0, -0.2872264221292191, 5.688239098579929, 8.760153618014385]",False,145.4270515999524,148.44417010003235,148.44417010003235,149.67528049997054,['space'],1,[0.1771573000587523],3.66586261021439,4.6938927101437,None,1,None,1,,,,,,,udoety,001,fr,0,0,2022-05-03_12h07.59.148,Cluster,2022.1.1,36.41952376907601,
,,,,0,0,0,0,3,0,3,0,,,none,,,,,,,,,,,,,,,,,,,,,,,,,,,,,,,,,,,,,,,,,,,,,,,,,,,,,,,,,,,,,,,,,,,,,,,,,,,,,,,,,,,,,,,,,,,,,,,,,,,,,,,,,,,,,,,,,,,,150.14476349996403,None,,,,,"[0.4661795168303752, 0.556657198459215, 0.5268072101301984, 0.5713958849746871]","[1559.9370360399948, 165.1798767875008, 570.3222494361898, 1561.5460918164645]",None,"[7.231821992746438, 8.421597713268383, 9.118681732301107, 7.231821992746438]",True,151.1522059000563,153.73906599998008,153.73906599998008,154.95445520000067,None,1,,3.1277025199960917,4.149066220037639,None,1,None,1,0,,,,,,udoety,001,fr,0,0,2022-05-03_12h07.59.148,Cluster,2022.1.1,36.41952376907601,
,,,,0,0,0,0,4,0,4,0,,,frequency,,,,,,,,,,,,,,,,,,,,,,,,,,,,,,,,,,,,,,,,,,,,,,,,,,,,,,,,,,,,,,,,,,,,,,,,,,,,,,,,,,,,,,,,,,,,,,,,,,,,,,,,,,,,,,,,,,,,155.34774019999895,None,217.028426843047,4.22167760361431,0.00037733071019251693,1,"[0.41261019576872143, 0.665361980095106, 0.508320965458572, 0.4637428341140223]","[136.7193417025622, 153.46227233096704, 172.25557653882808, 193.35034727448496]",Tone,"[9.749448326053159, 8.696188121303779, 8.432311991088431, 9.0]",False,156.3374529000139,158.93818860000465,158.93818860000465,160.1454751000274,['space'],1,[0.31247550004627556],3.09783831005916,4.129025710048154,None,1,None,1,,,,,,,udoety,001,fr,0,0,2022-05-03_12h07.59.148,Cluster,2022.1.1,36.41952376907601,
,,,,0,0,0,0,5,0,5,0,,,both,,,,,,,,,,,,,,,,,,,,,,,,,,,,,,,,,,,,,,,,,,,,,,,,,,,,,,,,,,,,,,,,,,,,,,,,,,,,,,,,,,,,,,,,,,,,,,,,,,,,,,,,,,,,,,,,,,,,160.5062375999987,None,6416.178088827976,-6.287226422129219,6.474649577681624e-05,0,"[0.7329078054684783, 0.7329078054684783, 0.7329078054684783, 0.7329078054684783]","[1273.130980977605, 1907.5411585896975, 2858.082417348488, 4282.285112210053]",Perfect_5th,"[6.0, 7.92538900570556, 4.539738028552819, 0.5848890422849387]",False,161.50392559997272,164.72459220001474,164.72459220001474,165.95921630004887,None,0,,3.9650753100868315,4.974665310117416,None,1,None,1,,,,,,,udoety,001,fr,0,0,2022-05-03_12h07.59.148,Cluster,2022.1.1,36.41952376907601,
,,,,0,0,0,0,6,0,6,0,,,time,,,,,,,,,,,,,,,,,,,,,,,,,,,,,,,,,,,,,,,,,,,,,,,,,,,,,,,,,,,,,,,,,,,,,,,,,,,,,,,,,,,,,,,,,,,,,,,,,,,,,,,,,,,,,,,,,,,,166.51198750000913,None,203.0630990890589,0.0,0.00025944102885580496,0,"[0.7734820029131566, 0.7734820029131566, 0.7734820029131566, 0.7734820029131566]","[566.9590718522883, 406.6016523683701, 1728.528133411243, 1539.6536684799546]",None,"[9.118681732301107, 12.389760054493381, 7.801405455368776, 7.231821992746438]",False,167.5428443000419,170.90710289997514,170.90710289997514,172.133843800053,None,0,,4.1366003102157265,5.1703139102319255,None,1,None,1,,,,,,,udoety,001,fr,0,0,2022-05-03_12h07.59.148,Cluster,2022.1.1,36.41952376907601,
,,,,0,0,0,0,7,0,7,0,,,time,,,,,,,,,,,,,,,,,,,,,,,,,,,,,,,,,,,,,,,,,,,,,,,,,,,,,,,,,,,,,,,,,,,,,,,,,,,,,,,,,,,,,,,,,,,,,,,,,,,,,,,,,,,,,,,,,,,,172.7480429999996,None,,,,,"[0.6305589389222829, 0.6305589389222829, 0.6305589389222829, 0.6305589389222829]","[226.9370519322199, 1242.361482729048, 3155.5749468878867, 508.97856614088334]",None,"[11.0, 5.688239098579929, 3.0, 10.774202387751487]",True,173.7517896000063,176.67782149999402,176.67782149999402,177.90262750000693,None,1,,3.5744441100396216,4.584270010120235,None,1,None,1,0,,,,,,udoety,001,fr,0,0,2022-05-03_12h07.59.148,Cluster,2022.1.1,36.41952376907601,
,,,,0,0,0,0,8,0,8,0,,,none,,,,,,,,,,,,,,,,,,,,,,,,,,,,,,,,,,,,,,,,,,,,,,,,,,,,,,,,,,,,,,,,,,,,,,,,,,,,,,,,,,,,,,,,,,,,,,,,,,,,,,,,,,,,,,,,,,,,178.3573616000358,None,3372.6841284111088,-4.0,4.601460447722429e-05,1,"[0.5283981811751017, 0.7242174766312198, 0.4386726972851267, 0.6497468254405965]","[1733.4203838875608, 3978.9876481115148, 387.9718285211105, 6348.303405911187]",None,"[7.801405455368776, 0.7084603997272367, 12.805918243019232, -0.2872264221292191]",False,179.36738920002244,182.0821147999959,182.0821147999959,183.31110130005982,['space'],1,[0.3657275999430567],3.3742169101024047,4.378465510089882,None,1,None,1,,,,,,,udoety,001,fr,0,0,2022-05-03_12h07.59.148,Cluster,2022.1.1,36.41952376907601,
,,,,0,0,0,0,9,0,9,0,,,both,,,,,,,,,,,,,,,,,,,,,,,,,,,,,,,,,,,,,,,,,,,,,,,,,,,,,,,,,,,,,,,,,,,,,,,,,,,,,,,,,,,,,,,,,,,,,,,,,,,,,,,,,,,,,,,,,,,,183.77206700004172,None,203.0630990890589,0.0,0.00025944102885580496,1,"[0.5697545527177057, 0.5697545527177057, 0.5697545527177057, 0.5697545527177057]","[322.3425771098949, 287.1745887492588, 255.84347299919378, 227.93062213955423]",Tone,"[13.386035984172485, 13.208387225844973, 12.012059773774315, 11.0]",False,184.7847379000159,187.51475380000193,187.51475380000193,188.748563000001,['space'],1,[0.15566649998072535],3.320980610093102,4.354613910079934,None,1,None,1,,,,,,,udoety,001,fr,0,0,2022-05-03_12h07.59.148,Cluster,2022.1.1,36.41952376907601,
,,,,0,0,0,0,10,0,10,0,,,time,,,,,,,,,,,,,,,,,,,,,,,,,,,,,,,,,,,,,,,,,,,,,,,,,,,,,,,,,,,,,,,,,,,,,,,,,,,,,,,,,,,,,,,,,,,,,,,,,,,,,,,,,,,,,,,,,,,,189.17429090000223,None,1028.4611979126412,-2.0,3.59377078874414e-05,1,"[0.4424540004029399, 0.4424540004029399, 0.4424540004029399, 0.4424540004029399]","[434.73776585630685, 995.0683295006495, 5218.7459744805265, 581.7207302469773]",None,"[11.917160756346224, 3.994627832510215, 0.558631801578974, 9.0]",False,190.17529939999804,192.52714370004833,192.52714370004833,193.73152529995423,['space'],1,[0.35217550001107156],2.820111110107973,3.835830710013397,None,1,None,1,,,,,,,udoety,001,fr,0,0,2022-05-03_12h07.59.148,Cluster,2022.1.1,36.41952376907601,
,,,,0,0,0,0,11,0,11,0,,,none,,,,,,,,,,,,,,,,,,,,,,,,,,,,,,,,,,,,,,,,,,,,,,,,,,,,,,,,,,,,,,,,,,,,,,,,,,,,,,,,,,,,,,,,,,,,,,,,,,,,,,,,,,,,,,,,,,,,194.04493750003166,None,378.9291416275994,-2.0,6.515442175522428e-05,0,"[0.7846519275092495, 0.4425074387651873, 0.6553024027647265, 0.6789798597069159]","[5420.731105061037, 2601.9028261170383, 1434.9228639990197, 7094.794636117282]",None,"[0.558631801578974, 5.590827075446662, 6.797083809598742, -0.6665017941203928]",False,195.05747290002182,197.97849540004972,197.97849540004972,199.20977820002008,None,0,,3.5945343101629987,4.620611110236496,None,1,None,1,,,,,,,udoety,001,fr,0,0,2022-05-03_12h07.59.148,Cluster,2022.1.1,36.41952376907601,
,,,,0,0,0,0,12,0,12,0,,,none,,,,,,,,,,,,,,,,,,,,,,,,,,,,,,,,,,,,,,,,,,,,,,,,,,,,,,,,,,,,,,,,,,,,,,,,,,,,,,,,,,,,,,,,,,,,,,,,,,,,,,,,,,,,,,,,,,,,199.71267749997787,None,128.21379037699674,4.0,0.0011000872040235106,1,"[0.423106495225175, 0.5630839525523316, 0.7878793550969584, 0.48883820083322815]","[1510.8242126622247, 263.3322777825749, 4980.182591781417, 139.2474203546628]",None,"[7.231821992746438, 12.726245547506124, 0.6040513895135975, 9.18495440881352]",False,200.71969030005857,203.5057647000067,203.5057647000067,204.72542609996162,['space'],1,[0.3652699999511242],3.304988010087982,4.32290171016939,None,1,None,1,,,,,,,udoety,001,fr,0,0,2022-05-03_12h07.59.148,Cluster,2022.1.1,36.41952376907601,
,,,,0,0,0,0,13,0,13,0,,,none,,,,,,,,,,,,,,,,,,,,,,,,,,,,,,,,,,,,,,,,,,,,,,,,,,,,,,,,,,,,,,,,,,,,,,,,,,,,,,,,,,,,,,,,,,,,,,,,,,,,,,,,,,,,,,,,,,,,205.07032479997724,None,,,,,"[0.4833331063631975, 0.6239705432221402, 0.6169492964459549, 0.5101035116555178]","[219.57759612746756, 265.3321912995437, 254.84101662216943, 4170.409921205422]",None,"[10.22167760361431, 12.726245547506124, 12.012059773774315, 0.5848890422849387]",True,206.06159000005573,208.81041070003994,208.81041070003994,210.02924810000695,None,1,,3.2815994101110846,4.312439610133879,None,1,None,1,0,,,,,,udoety,001,fr,0,0,2022-05-03_12h07.59.148,Cluster,2022.1.1,36.41952376907601,
,,,,0,0,0,0,14,0,14,0,,,frequency,,,,,,,,,,,,,,,,,,,,,,,,,,,,,,,,,,,,,,,,,,,,,,,,,,,,,,,,,,,,,,,,,,,,,,,,,,,,,,,,,,,,,,,,,,,,,,,,,,,,,,,,,,,,,,,,,,,,210.39950739999767,None,2462.2888266898335,-1.0,7.580932840616338e-05,1,"[0.717935608080933, 0.6414659546686992, 0.5130020128582071, 0.48285007530811064]","[488.5799842171232, 732.042847972813, 1096.8249796946263, 1643.3806291715812]",Perfect_5th,"[11.0, 5.0, 4.465980350534826, 7.563702587200398]",False,211.47266830003355,214.37987089995295,214.37987089995295,215.59567109995987,['space'],1,[0.37796630000229925],3.379793389933184,4.40915988991037,None,1,None,1,,,,,,,udoety,001,fr,0,0,2022-05-03_12h07.59.148,Cluster,2022.1.1,36.41952376907601,
,,,,0,0,0,0,15,0,15,0,,,none,,,,,,,,,,,,,,,,,,,,,,,,,,,,,,,,,,,,,,,,,,,,,,,,,,,,,,,,,,,,,,,,,,,,,,,,,,,,,,,,,,,,,,,,,,,,,,,,,,,,,,,,,,,,,,,,,,,,215.92519980005454,None,203.0630990890589,0.0,0.00025944102885580496,1,"[0.735839097398706, 0.47942935520592017, 0.6776122943490575, 0.5791479351051102]","[3526.957472027729, 536.673438938998, 201.00483558609068, 206.88156243228676]",None,"[1.6228778415857468, 10.0, 9.388390660889556, 9.388390660889556]",False,216.93807599996217,219.85906489996705,219.85906489996705,221.0868322000606,['space'],1,[0.19126150000374764],3.4998199101537466,4.529051310149953,None,1,None,1,,,,,,,udoety,001,fr,0,0,2022-05-03_12h07.59.148,Cluster,2022.1.1,36.41952376907601,
,,,,0,0,0,0,16,0,16,0,,,none,,,,,,,,,,,,,,,,,,,,,,,,,,,,,,,,,,,,,,,,,,,,,,,,,,,,,,,,,,,,,,,,,,,,,,,,,,,,,,,,,,,,,,,,,,,,,,,,,,,,,,,,,,,,,,,,,,,,221.50428460002877,None,2972.112257016398,-2.0,4.492477300262192e-05,1,"[0.6777501220737736, 0.45881286650620595, 0.4081054166216148, 0.4023922460932899]","[675.720956132843, 625.8120327968404, 2998.934898252367, 796.4292037720124]",None,"[6.939487120190779, 8.0, 3.4549613754624513, 4.178795381812933]",False,222.5095510999672,225.07954770000651,225.07954770000651,226.30704620003235,['space'],1,[0.2260845999699086],2.982091610087082,3.9882827100809664,None,1,None,1,,,,,,,udoety,001,fr,0,0,2022-05-03_12h07.59.148,Cluster,2022.1.1,36.41952376907601,
,,,,0,0,0,0,17,0,17,0,,,both,,,,,,,,,,,,,,,,,,,,,,,,,,,,,,,,,,,,,,,,,,,,,,,,,,,,,,,,,,,,,,,,,,,,,,,,,,,,,,,,,,,,,,,,,,,,,,,,,,,,,,,,,,,,,,,,,,,,226.52875519997906,None,,,,,"[0.7795874328496872, 0.7795874328496872, 0.7795874328496872, 0.7795874328496872]","[814.8970398107145, 1026.7059339545397, 1293.5684182412997, 1629.7940796214286]",Major_3rd,"[4.178795381812933, 4.0, 6.0, 7.563702587200398]",True,227.53503030003048,230.888842400047,230.888842400047,232.11598020000383,['space'],0,[0.1265068999491632],4.140144719975069,5.168491119984537,None,1,None,1,0,,,,,,udoety,001,fr,0,0,2022-05-03_12h07.59.148,Cluster,2022.1.1,36.41952376907601,
,,,,0,0,0,0,18,0,18,0,,,none,,,,,,,,,,,,,,,,,,,,,,,,,,,,,,,,,,,,,,,,,,,,,,,,,,,,,,,,,,,,,,,,,,,,,,,,,,,,,,,,,,,,,,,,,,,,,,,,,,,,,,,,,,,,,,,,,,,,232.75346889998764,None,615.5722066724584,-1.0,4.760651710325358e-05,1,"[0.7399503534650834, 0.588102575825906, 0.679757411948699, 0.44934183585616394]","[1533.0120413118466, 731.9503625240537, 3990.7473450088874, 1462.2080275308463]",None,"[7.231821992746438, 5.0, 0.7084603997272367, 7.0]",False,233.76211989996955,236.77904679998755,236.77904679998755,237.99773579998873,['space'],1,[0.2905563999665901],3.476248110178858,4.501125310198404,None,1,None,1,,,,,,,udoety,001,fr,0,0,2022-05-03_12h07.59.148,Cluster,2022.1.1,36.41952376907601,
,,,,0,0,0,0,19,0,19,0,,,frequency,,,,,,,,,,,,,,,,,,,,,,,,,,,,,,,,,,,,,,,,,,,,,,,,,,,,,,,,,,,,,,,,,,,,,,,,,,,,,,,,,,,,,,,,,,,,,,,,,,,,,,,,,,,,,,,,,,,,238.30159419996198,None,5418.4960352592825,-5.441368198421026,7.339132062743617e-05,1,"[0.5285874138432937, 0.688376473029265, 0.6007471708755336, 0.7769508558209972]","[3413.438606797541, 3831.4552903642607, 4300.663153228052, 4827.331172061005]",Tone,"[2.0, 1.0, 0.5848890422849387, 0.6040513895135975]",False,239.29908360005356,242.13184469996486,242.13184469996486,243.33610189997125,['space'],1,[0.4541484999936074],3.646951710106805,4.669358710059896,None,1,None,1,,,,,,,udoety,001,fr,0,0,2022-05-03_12h07.59.148,Cluster,2022.1.1,36.41952376907601,
,,,,1,0,1,0,0,0,0,0,,,frequency,,,,,,,,,,,,,,,,,,,,,,,,,,,,,,,,,,,,,,,,,,,,,,,,,,,,,,,,,,,,,,,,,,,,,,,,,,,,,,,,,,,,,,,,,,,,,,,,,,,,,,,,,,,,,,,,,,,,249.46152160002384,None,189.4645708137998,-1.0,0.00027077274687630263,1,"[0.4621191783878033, 0.7893346119962136, 0.424375367638008, 0.7013300047130713]","[300.7562590205293, 267.9433656340734, 238.71040097760422, 212.666790237714]",Tone,"[13.419576214029288, 12.726245547506124, 11.14028009925592, 10.0]",False,250.4674591999501,253.17107919999398,253.17107919999398,254.37968300003558,['space'],1,[0.3403118000132963],3.3924640101613477,4.418419310124591,None,1,None,1,,,,,,,udoety,001,fr,0,0,2022-05-03_12h07.59.148,Cluster,2022.1.1,36.41952376907601,
,,,,1,0,1,0,1,0,1,0,,,none,,,,,,,,,,,,,,,,,,,,,,,,,,,,,,,,,,,,,,,,,,,,,,,,,,,,,,,,,,,,,,,,,,,,,,,,,,,,,,,,,,,,,,,,,,,,,,,,,,,,,,,,,,,,,,,,,,,,254.9208730000537,None,,,,,"[0.7328910510473428, 0.6912731592433221, 0.6976741301755229, 0.6393129669302358]","[834.1849455193324, 141.77920954339064, 7809.998313613667, 174.4592812198351]",None,"[4.0, 9.18495440881352, -1.0, 8.432311991088431]",True,255.92525650002062,259.08204620005563,259.08204620005563,260.30164710001554,['space'],0,[0.25960220000706613],3.8041859100339934,4.834591510123573,None,1,None,1,0,,,,,,udoety,001,fr,0,0,2022-05-03_12h07.59.148,Cluster,2022.1.1,36.41952376907601,
,,,,1,0,1,0,2,0,2,0,,,frequency,,,,,,,,,,,,,,,,,,,,,,,,,,,,,,,,,,,,,,,,,,,,,,,,,,,,,,,,,,,,,,,,,,,,,,,,,,,,,,,,,,,,,,,,,,,,,,,,,,,,,,,,,,,,,,,,,,,,260.7838993000332,None,2948.7536987711064,-2.0,4.6077797095725693e-05,0,"[0.547392497327166, 0.7108953100988675, 0.7281130022850532, 0.6982296709709555]","[7430.393712074166, 5897.507397542213, 4680.854723424373, 3715.196856037083]",Major_3rd,"[-0.9591972274050864, 0.09795996840317045, 0.5833937802563938, 1.0456257657653172]",False,261.78407000005245,264.8086204000283,264.8086204000283,266.02498920005746,None,0,,3.7157030100934207,4.71792131010443,None,1,None,1,,,,,,,udoety,001,fr,0,0,2022-05-03_12h07.59.148,Cluster,2022.1.1,36.41952376907601,
,,,,1,0,1,0,3,0,3,0,,,frequency,,,,,,,,,,,,,,,,,,,,,,,,,,,,,,,,,,,,,,,,,,,,,,,,,,,,,,,,,,,,,,,,,,,,,,,,,,,,,,,,,,,,,,,,,,,,,,,,,,,,,,,,,,,,,,,,,,,,266.53078879998066,None,659.7539553864473,-4.0,3.0636414623792164e-05,1,"[0.7535343417918221, 0.6813639588800415, 0.5779906385920708, 0.7861986037421157]","[415.6189480713939, 466.51649576840373, 523.6470614103134, 587.7739531418044]",Tone,"[12.389760054493381, 11.397291563039362, 10.025029693258762, 9.0]",False,268.2493846999714,271.28562700003386,271.28562700003386,272.4969074999681,['space'],1,[0.3132084000390023],3.85510905017145,4.862598250154406,None,1,None,1,,,,,,,udoety,001,fr,0,0,2022-05-03_12h07.59.148,Cluster,2022.1.1,36.41952376907601,
,,,,1,0,1,0,4,0,4,0,,,time,,,,,,,,,,,,,,,,,,,,,,,,,,,,,,,,,,,,,,,,,,,,,,,,,,,,,,,,,,,,,,,,,,,,,,,,,,,,,,,,,,,,,,,,,,,,,,,,,,,,,,,,,,,,,,,,,,,,273.1401560000377,None,406.12619817811805,-1.0,6.795016959419142e-05,0,"[0.5913567487991935, 0.5913567487991935, 0.5913567487991935, 0.5913567487991935]","[5747.181455311425, 311.90002827981505, 460.593453551491, 532.1486909592796]",None,"[0.3932899010127491, 13.419576214029288, 11.397291563039362, 10.025029693258762]",False,274.15307839994784,276.937722499948,276.937722499948,278.16842760005966,None,0,,3.3795616100542247,4.400039910105988,None,1,None,1,,,,,,,udoety,001,fr,0,0,2022-05-03_12h07.59.148,Cluster,2022.1.1,36.41952376907601,
,,,,1,0,1,0,5,0,5,0,,,time,,,,,,,,,,,,,,,,,,,,,,,,,,,,,,,,,,,,,,,,,,,,,,,,,,,,,,,,,,,,,,,,,,,,,,,,,,,,,,,,,,,,,,,,,,,,,,,,,,,,,,,,,,,,,,,,,,,,278.5895069000544,None,247.06689479808549,6.0,0.0003456377546860713,1,"[0.41085113287958713, 0.41085113287958713, 0.41085113287958713, 0.41085113287958713]","[4740.377123279193, 2358.3546063811623, 933.2746152504302, 5972.773990587454]",None,"[0.5833937802563938, 7.0, 3.7391670222236364, 0.09795996840317045]",False,279.5883136000484,281.8628186000278,281.8628186000278,283.0582994000288,['space'],1,[0.21806529990863055],2.6976400101557374,3.7044000101741403,None,1,None,1,,,,,,,udoety,001,fr,0,0,2022-05-03_12h07.59.148,Cluster,2022.1.1,36.41952376907601,
,,,,1,0,1,0,6,0,6,0,,,both,,,,,,,,,,,,,,,,,,,,,,,,,,,,,,,,,,,,,,,,,,,,,,,,,,,,,,,,,,,,,,,,,,,,,,,,,,,,,,,,,,,,,,,,,,,,,,,,,,,,,,,,,,,,,,,,,,,,283.32352860004175,None,426.88185940493884,6.0,0.00015000541184543255,1,"[0.7133268485509088, 0.7133268485509088, 0.7133268485509088, 0.7133268485509088]","[677.632712685541, 603.7021151015093, 537.8374404825462, 479.15868629378144]",Tone,"[6.939487120190779, 8.068625138030386, 10.0, 11.0]",False,284.3228110000491,287.48781409999356,287.48781409999356,288.7122883000411,['space'],1,[0.14384789997711778],3.8901699101552367,4.902600710163824,None,1,None,1,,,,,,,udoety,001,fr,0,0,2022-05-03_12h07.59.148,Cluster,2022.1.1,36.41952376907601,
,,,,1,0,1,0,7,0,7,0,,,none,,,,,,,,,,,,,,,,,,,,,,,,,,,,,,,,,,,,,,,,,,,,,,,,,,,,,,,,,,,,,,,,,,,,,,,,,,,,,,,,,,,,,,,,,,,,,,,,,,,,,,,,,,,,,,,,,,,,289.26254240004346,None,,,,,"[0.5496823266033354, 0.5580766078964132, 0.5585267689963436, 0.45860806416226774]","[3387.0372294723684, 205.03979752615354, 6171.432141770015, 846.4391099428086]",None,"[2.0, 9.388390660889556, 0.0, 4.0]",True,290.26393570005894,292.951981900027,292.951981900027,294.1856268000556,['space'],0,[0.4556533000431955],3.158503610175103,4.158812810201198,None,1,None,1,0,,,,,,udoety,001,fr,0,0,2022-05-03_12h07.59.148,Cluster,2022.1.1,36.41952376907601,
,,,,1,0,1,0,8,0,8,0,,,time,,,,,,,,,,,,,,,,,,,,,,,,,,,,,,,,,,,,,,,,,,,,,,,,,,,,,,,,,,,,,,,,,,,,,,,,,,,,,,,,,,,,,,,,,,,,,,,,,,,,,,,,,,,,,,,,,,,,294.445625100052,None,4594.793419988137,-2.0,9.918416881656158e-05,1,"[0.52252919652962, 0.52252919652962, 0.52252919652962, 0.52252919652962]","[838.9718012721447, 568.670843368702, 200.0413683923021, 775.9614264246651]",None,"[4.0, 9.118681732301107, 9.388390660889556, 4.88041726909917]",False,295.4764338999521,298.059361099964,298.059361099964,299.2918078999501,['space'],1,[0.19478049990721047],3.1166881101671606,4.143393110134639,None,1,None,1,,,,,,,udoety,001,fr,0,0,2022-05-03_12h07.59.148,Cluster,2022.1.1,36.41952376907601,
,,,,1,0,1,0,9,0,9,0,,,none,,,,,,,,,,,,,,,,,,,,,,,,,,,,,,,,,,,,,,,,,,,,,,,,,,,,,,,,,,,,,,,,,,,,,,,,,,,,,,,,,,,,,,,,,,,,,,,,,,,,,,,,,,,,,,,,,,,,299.6661763000302,None,3558.8068242964423,-4.377122158414253,4.6033387257099995e-05,1,"[0.7301569663227461, 0.6377750405797393, 0.7681606976367366, 0.48981278999113137]","[3527.5162982163665, 858.6243192657888, 164.88923375726654, 2141.9088106573467]",None,"[1.6228778415857468, 3.787618534096997, 8.421597713268383, 7.6661718151528495]",False,300.67663959995843,303.852818400017,303.852818400017,305.0641732000513,['space'],1,[0.3169345000060275],3.668077610200271,4.672352210152894,None,1,None,1,,,,,,,udoety,001,fr,0,0,2022-05-03_12h07.59.148,Cluster,2022.1.1,36.41952376907601,
,,,,1,0,1,0,10,0,10,0,,,frequency,,,,,,,,,,,,,,,,,,,,,,,,,,,,,,,,,,,,,,,,,,,,,,,,,,,,,,,,,,,,,,,,,,,,,,,,,,,,,,,,,,,,,,,,,,,,,,,,,,,,,,,,,,,,,,,,,,,,305.3773514999775,None,216.57485741526276,4.22167760361431,0.0003787754985080373,1,"[0.4755840846989536, 0.5443711907775508, 0.4810317431926091, 0.4558805541853257]","[136.43361086773515, 153.14155031284193, 171.89557824542544, 192.94626285268433]",Tone,"[9.749448326053159, 8.696188121303779, 8.432311991088431, 9.0]",False,306.38384370005224,308.9092329000123,308.9092329000123,310.11391399998683,['space'],1,[0.11348439997527748],2.992520210100338,4.006680310121737,None,1,None,1,,,,,,,udoety,001,fr,0,0,2022-05-03_12h07.59.148,Cluster,2022.1.1,36.41952376907601,
,,,,1,0,1,0,11,0,11,0,,,time,,,,,,,,,,,,,,,,,,,,,,,,,,,,,,,,,,,,,,,,,,,,,,,,,,,,,,,,,,,,,,,,,,,,,,,,,,,,,,,,,,,,,,,,,,,,,,,,,,,,,,,,,,,,,,,,,,,,310.42527380003594,None,,,,,"[0.6589291659269505, 0.6589291659269505, 0.6589291659269505, 0.6589291659269505]","[153.6634153182458, 2187.747650207803, 1816.5993457490056, 3597.160198795143]",None,"[8.696188121303779, 7.6661718151528495, 7.92538900570556, 1.6228778415857468]",True,311.41982009995263,314.4187189999502,314.4187189999502,315.6464419000549,None,1,,3.6659012101590633,4.685968810110353,None,1,None,1,0,,,,,,udoety,001,fr,0,0,2022-05-03_12h07.59.148,Cluster,2022.1.1,36.41952376907601,
,,,,1,0,1,0,12,0,12,0,,,frequency,,,,,,,,,,,,,,,,,,,,,,,,,,,,,,,,,,,,,,,,,,,,,,,,,,,,,,,,,,,,,,,,,,,,,,,,,,,,,,,,,,,,,,,,,,,,,,,,,,,,,,,,,,,,,,,,,,,,316.1266375000123,None,1319.5079107728945,-4.0,3.3304181786869376e-05,0,"[0.6564028076817068, 0.7491332242903215, 0.4180893710139806, 0.6127440241326342]","[6649.903169142303, 4438.277888271381, 2962.1951045731294, 1977.0280407057928]",Perfect_5th,"[-0.2872264221292191, 0.5848890422849387, 4.0, 7.894218693015047]",False,317.13241309998557,319.9824738999596,319.9824738999596,321.2170307999477,None,0,,3.477841010200791,4.507851510192268,None,1,None,1,,,,,,,udoety,001,fr,0,0,2022-05-03_12h07.59.148,Cluster,2022.1.1,36.41952376907601,
,,,,1,0,1,0,13,0,13,0,,,time,,,,,,,,,,,,,,,,,,,,,,,,,,,,,,,,,,,,,,,,,,,,,,,,,,,,,,,,,,,,,,,,,,,,,,,,,,,,,,,,,,,,,,,,,,,,,,,,,,,,,,,,,,,,,,,,,,,,321.67859010002576,None,253.15441928190376,6.012059773774314,0.0003279591844501964,1,"[0.5818869736080553, 0.5818869736080553, 0.5818869736080553, 0.5818869736080553]","[436.03555442048514, 3378.16796645952, 538.5419095264563, 1315.5718596661757]",None,"[11.917160756346224, 2.0, 10.0, 6.286726888702948]",False,322.6705457000062,325.4227856999496,325.4227856999496,326.634811899974,['space'],1,[0.28303869999945164],3.354808210162446,4.362756210146472,None,1,None,1,,,,,,,udoety,001,fr,0,0,2022-05-03_12h07.59.148,Cluster,2022.1.1,36.41952376907601,
,,,,1,0,1,0,14,0,14,0,,,both,,,,,,,,,,,,,,,,,,,,,,,,,,,,,,,,,,,,,,,,,,,,,,,,,,,,,,,,,,,,,,,,,,,,,,,,,,,,,,,,,,,,,,,,,,,,,,,,,,,,,,,,,,,,,,,,,,,,327.0692992999684,None,353.5533905932738,-3.0,6.273272561452762e-05,0,"[0.499193446712315, 0.499193446712315, 0.499193446712315, 0.499193446712315]","[140.30775603867167, 176.77669529663694, 222.72467953508487, 280.6155120773433]",Major_3rd,"[9.18495440881352, 8.432311991088431, 10.22167760361431, 13.0]",False,328.1539702999871,330.67444329999853,330.67444329999853,331.9035207000561,None,0,,3.024941490031779,4.0354598900303245,None,1,None,1,,,,,,,udoety,001,fr,0,0,2022-05-03_12h07.59.148,Cluster,2022.1.1,36.41952376907601,
,,,,1,0,1,0,15,0,15,0,,,time,,,,,,,,,,,,,,,,,,,,,,,,,,,,,,,,,,,,,,,,,,,,,,,,,,,,,,,,,,,,,,,,,,,,,,,,,,,,,,,,,,,,,,,,,,,,,,,,,,,,,,,,,,,,,,,,,,,,332.2350197000196,None,615.5722066724584,-1.0,4.760651710325358e-05,0,"[0.6877782085598101, 0.6877782085598101, 0.6877782085598101, 0.6877782085598101]","[699.7303862035297, 7202.12531252229, 778.2578930153692, 3308.7325730761613]",None,"[6.0, -0.6665017941203928, 4.88041726909917, 2.449711566732529]",False,333.24690729996655,336.3456767000025,336.3456767000025,337.56389440002386,None,0,,3.781106309965253,4.784046810003929,None,1,None,1,,,,,,,udoety,001,fr,0,0,2022-05-03_12h07.59.148,Cluster,2022.1.1,36.41952376907601,
,,,,1,0,1,0,16,0,16,0,,,frequency,,,,,,,,,,,,,,,,,,,,,,,,,,,,,,,,,,,,,,,,,,,,,,,,,,,,,,,,,,,,,,,,,,,,,,,,,,,,,,,,,,,,,,,,,,,,,,,,,,,,,,,,,,,,,,,,,,,,338.077779400046,None,,,,,"[0.7111709072367751, 0.7417990262219623, 0.41248636993312093, 0.5588649134828418]","[3260.8062041590174, 3660.131211060242, 4108.358376247746, 4611.476358192014]",Tone,"[2.449711566732529, 1.0456257657653172, 0.7084603997272367, 0.5833937802563938]",True,339.0823395999614,341.9894828000106,341.9894828000106,343.20235979999416,None,1,,3.4656882100971416,4.493334310129285,None,1,None,1,0,,,,,,udoety,001,fr,0,0,2022-05-03_12h07.59.148,Cluster,2022.1.1,36.41952376907601,
,,,,1,0,1,0,17,0,17,0,,,frequency,,,,,,,,,,,,,,,,,,,,,,,,,,,,,,,,,,,,,,,,,,,,,,,,,,,,,,,,,,,,,,,,,,,,,,,,,,,,,,,,,,,,,,,,,,,,,,,,,,,,,,,,,,,,,,,,,,,,343.59727060003206,None,307.64349237739486,7.419576214029289,0.00025002324207674275,1,"[0.7406027432858093, 0.4921921034957524, 0.5217423908550302, 0.43765619806671296]","[193.80325595472638, 217.53679964796785, 244.17680171552368, 274.07919300323834]",Tone,"[9.0, 10.22167760361431, 12.0, 13.0]",False,344.59524379996583,347.36326460004784,347.36326460004784,348.5866998999845,['space'],1,[0.23023240000475198],3.2266015100758523,4.243554610060528,None,1,None,1,,,,,,,udoety,001,fr,0,0,2022-05-03_12h07.59.148,Cluster,2022.1.1,36.41952376907601,
,,,,1,0,1,0,18,0,18,0,,,none,,,,,,,,,,,,,,,,,,,,,,,,,,,,,,,,,,,,,,,,,,,,,,,,,,,,,,,,,,,,,,,,,,,,,,,,,,,,,,,,,,,,,,,,,,,,,,,,,,,,,,,,,,,,,,,,,,,,348.8702976000495,None,1515.7165665103996,-3.0,3.5135546789290564e-05,0,"[0.5330033249051818, 0.5008214112605731, 0.6330172233560443, 0.5529617097741275]","[572.4948991208461, 5280.52714969013, 203.09013643679398, 381.5334734831353]",None,"[9.118681732301107, 0.558631801578974, 9.388390660889556, 12.805918243019232]",False,349.87461080006324,352.5808733999729,352.5808733999729,353.7956274000462,None,0,,3.238097010063939,4.247624010080472,None,1,None,1,,,,,,,udoety,001,fr,0,0,2022-05-03_12h07.59.148,Cluster,2022.1.1,36.41952376907601,
,,,,1,0,1,0,19,0,19,0,,,frequency,,,,,,,,,,,,,,,,,,,,,,,,,,,,,,,,,,,,,,,,,,,,,,,,,,,,,,,,,,,,,,,,,,,,,,,,,,,,,,,,,,,,,,,,,,,,,,,,,,,,,,,,,,,,,,,,,,,,354.16322830005083,None,307.7861033362292,-5.0,5.975641567313955e-05,0,"[0.6480470542332654, 0.6767948262036625, 0.7433854724634047, 0.5934517722229908]","[193.89309522921687, 217.63764082403108, 244.28999210856156, 274.2062449236566]",Tone,"[9.0, 10.22167760361431, 12.0, 13.0]",False,355.1701506000245,358.2549296000507,358.2549296000507,359.48493040003814,None,0,,3.673003109986894,4.693392910063267,None,1,None,1,,,,,,,udoety,001,fr,0,0,2022-05-03_12h07.59.148,Cluster,2022.1.1,36.41952376907601,
,,,,2,0,2,0,0,0,0,0,,,time,,,,,,,,,,,,,,,,,,,,,,,,,,,,,,,,,,,,,,,,,,,,,,,,,,,,,,,,,,,,,,,,,,,,,,,,,,,,,,,,,,,,,,,,,,,,,,,,,,,,,,,,,,,,,,,,,,,,363.4938004000578,None,5690.210906797954,-5.606710098987251,6.675305033404297e-05,1,"[0.7939056756411411, 0.7939056756411411, 0.7939056756411411, 0.7939056756411411]","[6635.338656006624, 1088.3528687578175, 2070.1209879738894, 3420.0692537686105]",None,"[-0.2872264221292191, 4.465980350534826, 7.894218693015047, 2.0]",False,364.4521254999563,367.86118540004827,367.86118540004827,369.07807229994796,['space'],1,[0.4954974999418482],4.224699210142717,5.231186810065992,None,1,None,1,,,,,,,udoety,001,fr,0,0,2022-05-03_12h07.59.148,Cluster,2022.1.1,36.41952376907601,
,,,,2,0,2,0,1,0,1,0,,,both,,,,,,,,,,,,,,,,,,,,,,,,,,,,,,,,,,,,,,,,,,,,,,,,,,,,,,,,,,,,,,,,,,,,,,,,,,,,,,,,,,,,,,,,,,,,,,,,,,,,,,,,,,,,,,,,,,,,369.71568909997586,None,1067.3468270432702,-1.5340196494651737,3.928150443642889e-05,1,"[0.6466172265205449, 0.6466172265205449, 0.6466172265205449, 0.6466172265205449]","[211.78843450792587, 317.3241102238589, 475.4489600120039, 712.3685414796438]",Perfect_5th,"[10.0, 13.419576214029288, 11.397291563039362, 5.837203533562845]",False,370.71941380004864,373.6986437999876,373.6986437999876,374.9031041000271,['space'],1,[0.23900549998506904],3.621746210148558,4.648687010048889,None,1,None,1,,,,,,,udoety,001,fr,0,0,2022-05-03_12h07.59.148,Cluster,2022.1.1,36.41952376907601,
,,,,2,0,2,0,2,0,2,0,,,both,,,,,,,,,,,,,,,,,,,,,,,,,,,,,,,,,,,,,,,,,,,,,,,,,,,,,,,,,,,,,,,,,,,,,,,,,,,,,,,,,,,,,,,,,,,,,,,,,,,,,,,,,,,,,,,,,,,,375.4033721999731,None,615.5722066724584,-2.0,4.2429353029554974e-05,1,"[0.6389792427648955, 0.6389792427648955, 0.6389792427648955, 0.6389792427648955]","[1551.1447618337352, 1231.1444133449168, 977.1599684342464, 775.5723809168676]",Major_3rd,"[7.231821992746438, 5.688239098579929, 3.994627832510215, 4.88041726909917]",False,377.3108848000411,380.2738941999851,380.2738941999851,381.5085857999511,['space'],1,[0.4341924999607727],3.5741052901139483,4.5858155901078135,None,1,None,1,,,,,,,udoety,001,fr,0,0,2022-05-03_12h07.59.148,Cluster,2022.1.1,36.41952376907601,
,,,,2,0,2,0,3,0,3,0,,,time,,,,,,,,,,,,,,,,,,,,,,,,,,,,,,,,,,,,,,,,,,,,,,,,,,,,,,,,,,,,,,,,,,,,,,,,,,,,,,,,,,,,,,,,,,,,,,,,,,,,,,,,,,,,,,,,,,,,381.934261300019,None,1624.5047927124701,-3.0,4.095962509705186e-05,1,"[0.7083136318712386, 0.7083136318712386, 0.7083136318712386, 0.7083136318712386]","[401.15458249761093, 2090.0486785237063, 134.2002113317476, 1849.619248215711]",None,"[12.389760054493381, 7.6661718151528495, 9.749448326053159, 7.92538900570556]",False,382.9607488999609,386.1122165999841,386.1122165999841,387.34673270001076,['space'],1,[0.365850199945271],3.8451230101054534,4.861338310060091,None,1,None,1,,,,,,,udoety,001,fr,0,0,2022-05-03_12h07.59.148,Cluster,2022.1.1,36.41952376907601,
,,,,2,0,2,0,4,0,4,0,,,none,,,,,,,,,,,,,,,,,,,,,,,,,,,,,,,,,,,,,,,,,,,,,,,,,,,,,,,,,,,,,,,,,,,,,,,,,,,,,,,,,,,,,,,,,,,,,,,,,,,,,,,,,,,,,,,,,,,,387.8642337999772,None,,,,,"[0.7174863814322826, 0.6062384946365778, 0.4687795437774513, 0.7707024275212931]","[6287.1744645183135, 168.5708714028217, 3614.5918212494794, 227.82199979225956]",None,"[0.0, 8.421597713268383, 1.0456257657653172, 11.0]",True,388.86637699999847,391.684936100035,391.684936100035,392.8983453999972,None,1,,3.5987091100541875,4.604987410129979,None,1,None,1,0,,,,,,udoety,001,fr,0,0,2022-05-03_12h07.59.148,Cluster,2022.1.1,36.41952376907601,
,,,,2,0,2,0,5,0,5,0,,,frequency,,,,,,,,,,,,,,,,,,,,,,,,,,,,,,,,,,,,,,,,,,,,,,,,,,,,,,,,,,,,,,,,,,,,,,,,,,,,,,,,,,,,,,,,,,,,,,,,,,,,,,,,,,,,,,,,,,,,393.4997017000569,None,426.5010938369105,6.0,0.00015004423143686753,1,"[0.5166311711139728, 0.4410024915059625, 0.4602589477416328, 0.4621208967430977]","[169.2570712555749, 213.25054691845529, 268.6788529641561, 338.51414251114977]",Major_3rd,"[8.421597713268383, 10.0, 12.726245547506124, 13.386035984172485]",False,394.48453040001914,396.9238933000015,396.9238933000015,398.15698179998435,['space'],1,[0.3470633999677375],2.918202410102822,3.9528534101555124,None,1,None,1,,,,,,,udoety,001,fr,0,0,2022-05-03_12h07.59.148,Cluster,2022.1.1,36.41952376907601,
,,,,2,0,2,0,6,0,6,0,,,time,,,,,,,,,,,,,,,,,,,,,,,,,,,,,,,,,,,,,,,,,,,,,,,,,,,,,,,,,,,,,,,,,,,,,,,,,,,,,,,,,,,,,,,,,,,,,,,,,,,,,,,,,,,,,,,,,,,,398.4693734999746,None,2567.453922038755,0.0,8.1703628992158e-05,1,"[0.7999257475703204, 0.7999257475703204, 0.7999257475703204, 0.7999257475703204]","[1857.6112564216348, 2986.1077997711477, 7868.3852344886955, 199.62473706243193]",None,"[7.92538900570556, 3.4549613754624513, -1.0759512345292777, 9.388390660889556]",False,399.4876637000125,402.9284418000607,402.9284418000607,404.15047350001987,['space'],1,[0.1674454000312835],4.255238110083155,5.26608571014367,None,1,None,1,,,,,,,udoety,001,fr,0,0,2022-05-03_12h07.59.148,Cluster,2022.1.1,36.41952376907601,
,,,,2,0,2,0,7,0,7,0,,,both,,,,,,,,,,,,,,,,,,,,,,,,,,,,,,,,,,,,,,,,,,,,,,,,,,,,,,,,,,,,,,,,,,,,,,,,,,,,,,,,,,,,,,,,,,,,,,,,,,,,,,,,,,,,,,,,,,,,404.78325059998315,None,1296.5448176851737,0.0,5.3353669338439054e-05,1,"[0.4179619496500025, 0.4179619496500025, 0.4179619496500025, 0.4179619496500025]","[2058.136607517363, 1833.591265394925, 1633.5441079336613, 1455.3223517838028]",Tone,"[7.894218693015047, 7.92538900570556, 7.563702587200398, 7.0]",False,405.79448369995225,408.0668168000411,408.0668168000411,409.2715973999584,['space'],1,[0.05255729996133596],2.7172743101837113,3.73834721010644,None,1,None,1,,,,,,,udoety,001,fr,0,0,2022-05-03_12h07.59.148,Cluster,2022.1.1,36.41952376907601,
,,,,2,0,2,0,8,0,8,0,,,none,,,,,,,,,,,,,,,,,,,,,,,,,,,,,,,,,,,,,,,,,,,,,,,,,,,,,,,,,,,,,,,,,,,,,,,,,,,,,,,,,,,,,,,,,,,,,,,,,,,,,,,,,,,,,,,,,,,,409.56308750004973,None,,,,,"[0.477197143160358, 0.527248865204006, 0.6853282662475205, 0.45130303374994485]","[981.289152971416, 5337.891362006752, 2388.674761323391, 6556.182364139297]",None,"[3.994627832510215, 0.558631801578974, 7.0, -0.2872264221292191]",True,410.5793085000478,413.29302480001934,413.29302480001934,414.50923460000195,['space'],0,[0.8970870999619365],3.1848035100847483,4.192771210102364,None,1,None,1,0,,,,,,udoety,001,fr,0,0,2022-05-03_12h07.59.148,Cluster,2022.1.1,36.41952376907601,
,,,,2,0,2,0,9,0,9,0,,,time,,,,,,,,,,,,,,,,,,,,,,,,,,,,,,,,,,,,,,,,,,,,,,,,,,,,,,,,,,,,,,,,,,,,,,,,,,,,,,,,,,,,,,,,,,,,,,,,,,,,,,,,,,,,,,,,,,,,414.8030015999684,None,153.8930516681146,4.0,0.0007377525064661873,1,"[0.6255829383782375, 0.6255829383782375, 0.6255829383782375, 0.6255829383782375]","[832.1008600371797, 302.31976919016745, 1810.5192991525735, 477.43677850460375]",None,"[4.0, 13.419576214029288, 7.92538900570556, 11.0]",False,415.8190008000238,418.72237390000373,418.72237390000373,419.94989439996425,['space'],1,[0.10797620005905628],3.5328788101905957,4.560538810212165,None,1,None,1,,,,,,,udoety,001,fr,0,0,2022-05-03_12h07.59.148,Cluster,2022.1.1,36.41952376907601,
,,,,2,0,2,0,10,0,10,0,,,both,,,,,,,,,,,,,,,,,,,,,,,,,,,,,,,,,,,,,,,,,,,,,,,,,,,,,,,,,,,,,,,,,,,,,,,,,,,,,,,,,,,,,,,,,,,,,,,,,,,,,,,,,,,,,,,,,,,,420.43464900006074,None,4287.0938501451765,-2.0,8.236702324754047e-05,1,"[0.4034119608296852, 0.4034119608296852, 0.4034119608296852, 0.4034119608296852]","[850.6671609508566, 1274.5606273192634, 1909.683207820835, 2861.2918648705195]",Perfect_5th,"[4.0, 6.0, 7.92538900570556, 4.539738028552819]",False,421.4568711000029,423.68656409997493,423.68656409997493,424.88930669997353,['space'],1,[0.07939570001326501],2.628236410091631,3.6633360100677237,None,1,None,1,,,,,,,udoety,001,fr,0,0,2022-05-03_12h07.59.148,Cluster,2022.1.1,36.41952376907601,
,,,,2,0,2,0,11,0,11,0,,,none,,,,,,,,,,,,,,,,,,,,,,,,,,,,,,,,,,,,,,,,,,,,,,,,,,,,,,,,,,,,,,,,,,,,,,,,,,,,,,,,,,,,,,,,,,,,,,,,,,,,,,,,,,,,,,,,,,,,425.1692311000079,None,4312.058730866768,-5.415110957715061,5.651101921634482e-05,1,"[0.5707943487095855, 0.6181331902634316, 0.5304099028048184, 0.7289686745525298]","[884.2651079372089, 454.35451991704804, 1479.0511106597462, 7553.3279034844]",None,"[3.787618534096997, 11.397291563039362, 7.0, -0.9591972274050864]",False,426.18133829999715,428.92751820001286,428.92751820001286,430.1326495000394,['space'],1,[0.3895602999255061],3.4976511100539938,4.528716210043058,None,1,None,1,,,,,,,udoety,001,fr,0,0,2022-05-03_12h07.59.148,Cluster,2022.1.1,36.41952376907601,
,,,,2,0,2,0,12,0,12,0,,,time,,,,,,,,,,,,,,,,,,,,,,,,,,,,,,,,,,,,,,,,,,,,,,,,,,,,,,,,,,,,,,,,,,,,,,,,,,,,,,,,,,,,,,,,,,,,,,,,,,,,,,,,,,,,,,,,,,,,430.75469450000674,None,,,,,"[0.6106524481982852, 0.6106524481982852, 0.6106524481982852, 0.6106524481982852]","[1219.259653324791, 278.5744024542888, 1243.9711985864114, 2785.3221012256718]",None,"[5.688239098579929, 13.0, 5.688239098579929, 5.0]",True,431.7510579000227,434.6054667000426,434.6054667000426,435.83799350005575,['space'],0,[0.21289820002857596],3.4956071102060378,4.533530610147864,None,1,None,1,0,,,,,,udoety,001,fr,0,0,2022-05-03_12h07.59.148,Cluster,2022.1.1,36.41952376907601,
,,,,2,0,2,0,13,0,13,0,,,both,,,,,,,,,,,,,,,,,,,,,,,,,,,,,,,,,,,,,,,,,,,,,,,,,,,,,,,,,,,,,,,,,,,,,,,,,,,,,,,,,,,,,,,,,,,,,,,,,,,,,,,,,,,,,,,,,,,,436.314993100008,None,6232.09973646841,-6.0,6.35545554685541e-05,0,"[0.4118937057882909, 0.4118937057882909, 0.4118937057882909, 0.4118937057882909]","[3925.9768215104205, 4406.759984687708, 4946.420838820346, 5552.169666542452]",Tone,"[0.7084603997272367, 0.5848890422849387, 0.6040513895135975, 0.3932899010127491]",False,437.32677070004866,439.57578680000734,439.57578680000734,440.7829517000355,None,0,,2.692397310049273,3.7002231100341305,None,1,None,1,,,,,,,udoety,001,fr,0,0,2022-05-03_12h07.59.148,Cluster,2022.1.1,36.41952376907601,
,,,,2,0,2,0,14,0,14,0,,,time,,,,,,,,,,,,,,,,,,,,,,,,,,,,,,,,,,,,,,,,,,,,,,,,,,,,,,,,,,,,,,,,,,,,,,,,,,,,,,,,,,,,,,,,,,,,,,,,,,,,,,,,,,,,,,,,,,,,441.0684909999836,None,950.9626237244701,-2.2608329777763636,3.288259462140637e-05,1,"[0.41860735332014903, 0.41860735332014903, 0.41860735332014903, 0.41860735332014903]","[937.9823217279846, 3226.7518687258876, 340.634455178917, 2890.4265760598378]",None,"[3.7391670222236364, 2.449711566732529, 13.386035984172485, 4.0]",False,442.06455829995684,444.34132720006164,444.34132720006164,445.55308480001986,['space'],1,[0.3448999000247568],2.7313821100397035,3.7608357099816203,None,1,None,1,,,,,,,udoety,001,fr,0,0,2022-05-03_12h07.59.148,Cluster,2022.1.1,36.41952376907601,
,,,,2,0,2,0,15,0,15,0,,,both,,,,,,,,,,,,,,,,,,,,,,,,,,,,,,,,,,,,,,,,,,,,,,,,,,,,,,,,,,,,,,,,,,,,,,,,,,,,,,,,,,,,,,,,,,,,,,,,,,,,,,,,,,,,,,,,,,,,445.87111690000165,None,1866.0659830736151,-4.0,4.3387306094440826e-05,1,"[0.463463938237888, 0.463463938237888, 0.463463938237888, 0.463463938237888]","[2962.1951045731294, 2639.015821545789, 2351.0958125672178, 2094.5882456412537]",Tone,"[4.0, 5.590827075446662, 7.0, 7.6661718151528495]",False,446.95659850002266,449.38482729997486,449.38482729997486,450.6199987999862,['space'],1,[0.012315800064243376],2.900895980070345,3.925470180111006,None,1,None,1,,,,,,,udoety,001,fr,0,0,2022-05-03_12h07.59.148,Cluster,2022.1.1,36.41952376907601,
,,,,2,0,2,0,16,0,16,0,,,none,,,,,,,,,,,,,,,,,,,,,,,,,,,,,,,,,,,,,,,,,,,,,,,,,,,,,,,,,,,,,,,,,,,,,,,,,,,,,,,,,,,,,,,,,,,,,,,,,,,,,,,,,,,,,,,,,,,,450.92771119996905,None,,,,,"[0.6605394749678741, 0.7012041232048685, 0.4669282244906737, 0.4066579671705016]","[1885.516684172173, 699.5954087571581, 3457.6200839384037, 616.5332108420173]",None,"[7.92538900570556, 6.0, 1.6228778415857468, 8.068625138030386]",True,451.9346550999908,454.7875370000256,454.7875370000256,456.02265369996894,None,1,,3.268168010166846,4.2987095101270825,None,1,None,1,0,,,,,,udoety,001,fr,0,0,2022-05-03_12h07.59.148,Cluster,2022.1.1,36.41952376907601,
,,,,2,0,2,0,17,0,17,0,,,both,,,,,,,,,,,,,,,,,,,,,,,,,,,,,,,,,,,,,,,,,,,,,,,,,,,,,,,,,,,,,,,,,,,,,,,,,,,,,,,,,,,,,,,,,,,,,,,,,,,,,,,,,,,,,,,,,,,,456.2700370999519,None,823.5697839833177,-1.8212046181870667,3.165388417038435e-05,1,"[0.7050396526773228, 0.7050396526773228, 0.7050396526773228, 0.7050396526773228]","[163.41694268304266, 244.84876170355386, 366.85863242492695, 549.6668851755693]",Perfect_5th,"[8.421597713268383, 12.0, 13.0, 10.0]",False,457.2766488000052,460.43396569998004,460.43396569998004,461.6663663999643,['space'],1,[0.20082320005167276],3.8733330101240426,4.877045910223387,None,1,None,1,,,,,,,udoety,001,fr,0,0,2022-05-03_12h07.59.148,Cluster,2022.1.1,36.41952376907601,
,,,,2,0,2,0,18,0,18,0,,,time,,,,,,,,,,,,,,,,,,,,,,,,,,,,,,,,,,,,,,,,,,,,,,,,,,,,,,,,,,,,,,,,,,,,,,,,,,,,,,,,,,,,,,,,,,,,,,,,,,,,,,,,,,,,,,,,,,,,462.1897848000517,None,329.87697769322364,1.0,0.00010632127908437066,0,"[0.6461531820114359, 0.6461531820114359, 0.6461531820114359, 0.6461531820114359]","[1019.077951676146, 3196.795971094344, 1985.6828157850302, 188.55862250732744]",None,"[4.0, 2.449711566732529, 7.894218693015047, 8.760153618014385]",False,463.22414529998787,466.2041313999798,466.2041313999798,467.4282496999949,None,0,,3.6020538101438433,4.6262364101130515,None,1,['space'],0,,[0.4133879999862984],,,,,udoety,001,fr,0,0,2022-05-03_12h07.59.148,Cluster,2022.1.1,36.41952376907601,
,,,,2,0,2,0,19,0,19,0,,,frequency,,,,,,,,,,,,,,,,,,,,,,,,,,,,,,,,,,,,,,,,,,,,,,,,,,,,,,,,,,,,,,,,,,,,,,,,,,,,,,,,,,,,,,,,,,,,,,,,,,,,,,,,,,,,,,,,,,,,467.9059331000317,None,1741.101126592249,-2.0,5.0139344383985924e-05,1,"[0.7692320400468473, 0.4782801425832684, 0.4881348705250634, 0.46777752026767505]","[2763.825759935554, 2462.288826689834, 2193.649959389253, 1954.319936868493]",Tone,"[5.0, 6.505348377765903, 7.6661718151528495, 7.894218693015047]",False,468.9488516000565,471.7021341000218,471.7021341000218,472.92850909999106,['space'],1,[0.8421440999954939],3.229882510029711,4.25297380995471,None,1,None,1,,,,,,,udoety,001,fr,0,0,2022-05-03_12h07.59.148,Cluster,2022.1.1,36.41952376907601,
,,,,3,0,3,0,0,0,0,0,,,time,,,,,,,,,,,,,,,,,,,,,,,,,,,,,,,,,,,,,,,,,,,,,,,,,,,,,,,,,,,,,,,,,,,,,,,,,,,,,,,,,,,,,,,,,,,,,,,,,,,,,,,,,,,,,,,,,,,,476.2111101000337,None,1798.0823076593936,1.8014054553687762,8.083505916522816e-05,1,"[0.44845909928626587, 0.44845909928626587, 0.44845909928626587, 0.44845909928626587]","[3915.6976621204562, 2891.9721952911327, 336.5886457344387, 2901.965589743027]",None,"[0.7084603997272367, 4.0, 13.386035984172485, 4.0]",False,477.1908887999598,479.5754137999611,479.5754137999611,480.78978580003604,['space'],1,[0.2798195000505075],2.82184351014439,3.8356040101498365,None,1,None,1,,,,,,,udoety,001,fr,0,0,2022-05-03_12h07.59.148,Cluster,2022.1.1,36.41952376907601,
,,,,3,0,3,0,1,0,1,0,,,both,,,,,,,,,,,,,,,,,,,,,,,,,,,,,,,,,,,,,,,,,,,,,,,,,,,,,,,,,,,,,,,,,,,,,,,,,,,,,,,,,,,,,,,,,,,,,,,,,,,,,,,,,,,,,,,,,,,,481.0748346999753,None,,,,,"[0.6486115324002736, 0.6486115324002736, 0.6486115324002736, 0.6486115324002736]","[156.2785024274619, 175.4166879414502, 196.89857485440626, 221.01117764027327]",Tone,"[8.696188121303779, 8.432311991088431, 9.0, 10.22167760361431]",True,482.0727479000343,485.0520007000305,485.0520007000305,486.25603309995495,None,1,,3.6351878102868795,4.65042901027482,None,1,None,1,0,,,,,,udoety,001,fr,0,0,2022-05-03_12h07.59.148,Cluster,2022.1.1,36.41952376907601,
,,,,3,0,3,0,2,0,2,0,,,frequency,,,,,,,,,,,,,,,,,,,,,,,,,,,,,,,,,,,,,,,,,,,,,,,,,,,,,,,,,,,,,,,,,,,,,,,,,,,,,,,,,,,,,,,,,,,,,,,,,,,,,,,,,,,,,,,,,,,,486.7514263000339,None,6188.6218741833245,-6.0,6.25276216611718e-05,0,"[0.5852434626340915, 0.7757135349871233, 0.7397618348096934, 0.4639586026730524]","[2455.9562183280054, 3094.3109370916627, 3898.5874845617163, 4911.91243665601]",Major_3rd,"[6.505348377765903, 3.0, 0.7084603997272367, 0.6040513895135975]",False,487.74326749995816,490.8692560000345,490.8692560000345,492.10578610002995,None,0,,3.5929776100674644,4.618204210069962,None,1,None,1,,,,,,,udoety,001,fr,0,0,2022-05-03_12h07.59.148,Cluster,2022.1.1,36.41952376907601,
,,,,3,0,3,0,3,0,3,0,,,frequency,,,,,,,,,,,,,,,,,,,,,,,,,,,,,,,,,,,,,,,,,,,,,,,,,,,,,,,,,,,,,,,,,,,,,,,,,,,,,,,,,,,,,,,,,,,,,,,,,,,,,,,,,,,,,,,,,,,,492.3963291000109,None,4000.0,-3.0,5.942511137185092e-05,1,"[0.7184584549089201, 0.4868126952253284, 0.7768272143825539, 0.5216559610170844]","[793.7005259840998, 1189.2071150027211, 1781.7974362806788, 2669.679708340069]",Perfect_5th,"[4.178795381812933, 5.064486795872355, 7.801405455368776, 5.590827075446662]",False,494.4996096000541,497.5180175000569,497.5180175000569,498.7064708999824,['space'],1,[0.31673129997216165],3.5176796200685203,4.54074332001619,None,1,None,1,,,,,,,udoety,001,fr,0,0,2022-05-03_12h07.59.148,Cluster,2022.1.1,36.41952376907601,
,,,,3,0,3,0,4,0,4,0,,,both,,,,,,,,,,,,,,,,,,,,,,,,,,,,,,,,,,,,,,,,,,,,,,,,,,,,,,,,,,,,,,,,,,,,,,,,,,,,,,,,,,,,,,,,,,,,,,,,,,,,,,,,,,,,,,,,,,,,499.09049590001814,None,267.9433656340732,-2.0,0.00011793657968902869,1,"[0.6382316087827055, 0.6382316087827055, 0.6382316087827055, 0.6382316087827055]","[1350.3499461681895, 901.2504626108299, 601.5125180410581, 401.46144093168806]",Perfect_5th,"[6.286726888702948, 3.787618534096997, 8.068625138030386, 12.389760054493381]",False,500.0992791999597,503.0418106999714,503.0418106999714,504.25504710001405,['space'],1,[0.35532449989113957],3.5677399100968614,4.596759810112417,None,1,None,1,,,,,,,udoety,001,fr,0,0,2022-05-03_12h07.59.148,Cluster,2022.1.1,36.41952376907601,
,,,,3,0,3,0,5,0,5,0,,,frequency,,,,,,,,,,,,,,,,,,,,,,,,,,,,,,,,,,,,,,,,,,,,,,,,,,,,,,,,,,,,,,,,,,,,,,,,,,,,,,,,,,,,,,,,,,,,,,,,,,,,,,,,,,,,,,,,,,,,504.7359625999816,None,4346.763051992137,-5.415110957715061,5.779114722464509e-05,0,"[0.7776045704293804, 0.54104622720654, 0.6704887071778242, 0.7311304616722178]","[6900.05624138882, 6147.251260549548, 5476.578268110176, 4879.0765588545955]",Tone,"[-0.6665017941203928, 0.0, 0.3932899010127491, 0.6040513895135975]",False,505.7300744999666,508.74098430003505,508.74098430003505,509.95371250004973,None,0,,3.7758225101279095,4.80037491011899,None,1,['space'],0,,[0.48291499994229525],,,,,udoety,001,fr,0,0,2022-05-03_12h07.59.148,Cluster,2022.1.1,36.41952376907601,
,,,,3,0,3,0,6,0,6,0,,,none,,,,,,,,,,,,,,,,,,,,,,,,,,,,,,,,,,,,,,,,,,,,,,,,,,,,,,,,,,,,,,,,,,,,,,,,,,,,,,,,,,,,,,,,,,,,,,,,,,,,,,,,,,,,,,,,,,,,510.5662466000067,None,267.9433656340732,-2.0,0.00011793657968902869,1,"[0.5867597234796381, 0.46298726108067334, 0.7558856553887148, 0.4270715742828535]","[175.0787202678946, 4751.303582111282, 7148.36656391278, 133.66096212074214]",None,"[8.432311991088431, 0.5833937802563938, -0.6665017941203928, 9.749448326053159]",False,511.5802059000125,514.3900285999989,514.3900285999989,515.6078280999791,['space'],1,[0.5870959999738261],3.246115910122171,4.26602141011972,None,1,None,1,,,,,,,udoety,001,fr,0,0,2022-05-03_12h07.59.148,Cluster,2022.1.1,36.41952376907601,
,,,,3,0,3,0,7,0,7,0,,,frequency,,,,,,,,,,,,,,,,,,,,,,,,,,,,,,,,,,,,,,,,,,,,,,,,,,,,,,,,,,,,,,,,,,,,,,,,,,,,,,,,,,,,,,,,,,,,,,,,,,,,,,,,,,,,,,,,,,,,515.892438699957,None,,,,,"[0.5980172391777038, 0.4774986588588206, 0.6468521514519164, 0.612533225903901]","[5247.635959184482, 4165.051420977799, 3305.803503580901, 2623.817979592241]",Major_3rd,"[0.558631801578974, 0.5848890422849387, 2.449711566732529, 5.590827075446662]",True,516.8873050999828,519.6372071000515,519.6372071000515,520.8624133999692,None,1,,3.3822919101221487,4.413949710084125,None,1,None,1,0,,,,,,udoety,001,fr,0,0,2022-05-03_12h07.59.148,Cluster,2022.1.1,36.41952376907601,
,,,,3,0,3,0,8,0,8,0,,,none,,,,,,,,,,,,,,,,,,,,,,,,,,,,,,,,,,,,,,,,,,,,,,,,,,,,,,,,,,,,,,,,,,,,,,,,,,,,,,,,,,,,,,,,,,,,,,,,,,,,,,,,,,,,,,,,,,,,521.3277568999911,None,185.22363185815945,2.760153618014386,0.00043868085909905513,1,"[0.6145963489589359, 0.7440525425009219, 0.5492308431559414, 0.5346266861528358]","[304.7289727559088, 855.2185044189376, 944.4774135682269, 131.19698137619372]",None,"[13.419576214029288, 3.787618534096997, 3.7391670222236364, 10.0]",False,522.3308609999949,525.2787785000401,525.2787785000401,526.5140488999896,['space'],1,[0.33441000001039356],3.4699393099872395,4.497138209990226,None,1,None,1,,,,,,,udoety,001,fr,0,0,2022-05-03_12h07.59.148,Cluster,2022.1.1,36.41952376907601,
,,,,3,0,3,0,9,0,9,0,,,both,,,,,,,,,,,,,,,,,,,,,,,,,,,,,,,,,,,,,,,,,,,,,,,,,,,,,,,,,,,,,,,,,,,,,,,,,,,,,,,,,,,,,,,,,,,,,,,,,,,,,,,,,,,,,,,,,,,,526.865868599969,None,4760.546864208051,-5.3959486104864025,7.321561442373124e-05,1,"[0.6003498976627828, 0.6003498976627828, 0.6003498976627828, 0.6003498976627828]","[7556.897100187775, 6732.429939675736, 5997.913203226755, 5343.533184271732]",Tone,"[-0.9591972274050864, -0.6665017941203928, 0.09795996840317045, 0.558631801578974]",False,527.8559017999796,530.6757997999666,530.6757997999666,531.8873585000401,['space'],1,[0.13066270004492253],3.439889610046521,4.466631710063666,None,1,None,1,,,,,,,udoety,001,fr,0,0,2022-05-03_12h07.59.148,Cluster,2022.1.1,36.41952376907601,
,,,,3,0,3,0,10,0,10,0,,,both,,,,,,,,,,,,,,,,,,,,,,,,,,,,,,,,,,,,,,,,,,,,,,,,,,,,,,,,,,,,,,,,,,,,,,,,,,,,,,,,,,,,,,,,,,,,,,,,,,,,,,,,,,,,,,,,,,,,532.3563992000418,None,176.7766952966369,-3.0,0.0002477958750990904,1,"[0.7566642799666324, 0.7566642799666324, 0.7566642799666324, 0.7566642799666324]","[280.61551207734334, 250.00000000000006, 222.72467953508487, 198.42513149602496]",Tone,"[13.0, 12.012059773774315, 10.22167760361431, 9.0]",False,534.2281248000218,537.524170299992,537.524170299992,538.7596996000502,['space'],1,[0.23257709993049502],4.034329010290094,5.071262310259044,None,1,None,1,,,,,,,udoety,001,fr,0,0,2022-05-03_12h07.59.148,Cluster,2022.1.1,36.41952376907601,
,,,,3,0,3,0,11,0,11,0,,,both,,,,,,,,,,,,,,,,,,,,,,,,,,,,,,,,,,,,,,,,,,,,,,,,,,,,,,,,,,,,,,,,,,,,,,,,,,,,,,,,,,,,,,,,,,,,,,,,,,,,,,,,,,,,,,,,,,,,539.3475228999741,None,309.4446908799205,7.419576214029289,0.00024553987774931835,1,"[0.6617212460882205, 0.6617212460882205, 0.6617212460882205, 0.6617212460882205]","[1559.5035192712953, 1040.8437251208757, 694.6798431270726, 463.64317024730195]",Perfect_5th,"[7.231821992746438, 4.465980350534826, 6.0, 11.397291563039362]",False,540.3582627000287,543.3523400999838,543.3523400999838,544.5708129999693,['space'],1,[0.3406896000960842],3.663746119942516,4.661431820015423,None,1,None,1,,,,,,,udoety,001,fr,0,0,2022-05-03_12h07.59.148,Cluster,2022.1.1,36.41952376907601,
,,,,3,0,3,0,12,0,12,0,,,none,,,,,,,,,,,,,,,,,,,,,,,,,,,,,,,,,,,,,,,,,,,,,,,,,,,,,,,,,,,,,,,,,,,,,,,,,,,,,,,,,,,,,,,,,,,,,,,,,,,,,,,,,,,,,,,,,,,,545.0885383000132,None,2000.0,-2.0,5.942511137185092e-05,1,"[0.696689161368529, 0.6904270869089575, 0.5027543142577537, 0.5158818114757072]","[3698.0227065967915, 512.7423899357859, 479.9932915450187, 1497.9284555392717]",None,"[1.0456257657653172, 10.774202387751487, 11.0, 7.231821992746438]",False,546.1280026000459,549.0379857999505,549.0379857999505,550.2719613000518,['space'],1,[0.30856729997321963],3.441874910145998,4.459438310237601,None,1,None,1,,,,,,,udoety,001,fr,0,0,2022-05-03_12h07.59.148,Cluster,2022.1.1,36.41952376907601,
,,,,3,0,3,0,13,0,13,0,,,both,,,,,,,,,,,,,,,,,,,,,,,,,,,,,,,,,,,,,,,,,,,,,,,,,,,,,,,,,,,,,,,,,,,,,,,,,,,,,,,,,,,,,,,,,,,,,,,,,,,,,,,,,,,,,,,,,,,,550.6296624999959,None,125.0,0.0,0.000722719885372964,0,"[0.7304854483469124, 0.7304854483469124, 0.7304854483469124, 0.7304854483469124]","[629.9605249474366, 420.4482076268573, 280.6155120773433, 187.2883846095852]",Perfect_5th,"[8.0, 12.0, 13.0, 8.760153618014385]",False,551.6372952000238,554.852066099993,554.852066099993,556.0790989999659,None,0,,3.939577509998344,4.9477018100442365,None,1,None,1,,,,,,,udoety,001,fr,0,0,2022-05-03_12h07.59.148,Cluster,2022.1.1,36.41952376907601,
,,,,3,0,3,0,14,0,14,0,,,time,,,,,,,,,,,,,,,,,,,,,,,,,,,,,,,,,,,,,,,,,,,,,,,,,,,,,,,,,,,,,,,,,,,,,,,,,,,,,,,,,,,,,,,,,,,,,,,,,,,,,,,,,,,,,,,,,,,,556.6264458999503,None,8000.0,-5.0,0.00010208689723347648,1,"[0.6400709049175597, 0.6400709049175597, 0.6400709049175597, 0.6400709049175597]","[1113.7476123156873, 211.40209479179745, 674.5773998076066, 714.256645530957]",None,"[5.0, 10.0, 6.939487120190779, 5.837203533562845]",False,557.7122969999909,560.6676017000573,560.6676017000573,561.8858199999668,['space'],1,[0.30616600008215755],3.596329690073617,4.626915390137583,None,1,None,1,,,,,,,udoety,001,fr,0,0,2022-05-03_12h07.59.148,Cluster,2022.1.1,36.41952376907601,
,,,,3,0,3,0,15,0,15,0,,,frequency,,,,,,,,,,,,,,,,,,,,,,,,,,,,,,,,,,,,,,,,,,,,,,,,,,,,,,,,,,,,,,,,,,,,,,,,,,,,,,,,,,,,,,,,,,,,,,,,,,,,,,,,,,,,,,,,,,,,562.388902900042,None,125.0,1.0,0.0008109050486794653,0,"[0.5237809977109784, 0.7633364336115911, 0.6668396750699006, 0.6119035083834234]","[314.9802624737183, 250.00000000000003, 198.42513149602496, 157.49013123685916]",Major_3rd,"[13.419576214029288, 12.012059773774315, 9.0, 8.696188121303779]",False,563.4059403999709,566.3808030999498,566.3808030999498,567.6018287000479,None,0,,3.5785538100171834,4.608425710117444,None,1,None,1,,,,,,,udoety,001,fr,0,0,2022-05-03_12h07.59.148,Cluster,2022.1.1,36.41952376907601,
,,,,3,0,3,0,16,0,16,0,,,time,,,,,,,,,,,,,,,,,,,,,,,,,,,,,,,,,,,,,,,,,,,,,,,,,,,,,,,,,,,,,,,,,,,,,,,,,,,,,,,,,,,,,,,,,,,,,,,,,,,,,,,,,,,,,,,,,,,,568.0616507000523,None,,,,,"[0.5595662733134331, 0.5595662733134331, 0.5595662733134331, 0.5595662733134331]","[146.3440715390817, 222.7526088657239, 501.45065604233713, 1475.0902936986395]",None,"[9.0, 10.22167760361431, 10.774202387751487, 7.0]",True,569.0542970000533,571.7555904999608,571.7555904999608,572.9624837000156,None,1,,3.2897046100115404,4.299630210036412,None,1,None,1,0,,,,,,udoety,001,fr,0,0,2022-05-03_12h07.59.148,Cluster,2022.1.1,36.41952376907601,
,,,,3,0,3,0,17,0,17,0,,,time,,,,,,,,,,,,,,,,,,,,,,,,,,,,,,,,,,,,,,,,,,,,,,,,,,,,,,,,,,,,,,,,,,,,,,,,,,,,,,,,,,,,,,,,,,,,,,,,,,,,,,,,,,,,,,,,,,,,573.3787243999541,None,2758.442003155145,-1.0,6.224055651797717e-05,1,"[0.7073128033942983, 0.7073128033942983, 0.7073128033942983, 0.7073128033942983]","[2993.188858037044, 2269.7755204537702, 975.051664349287, 339.7727992994691]",None,"[3.4549613754624513, 7.21048027798575, 3.994627832510215, 13.386035984172485]",False,574.3855178999947,577.5406587000471,577.5406587000471,578.7684551000129,['space'],1,[0.31536979996599257],3.863160010194406,4.880255410214886,None,1,None,1,,,,,,,udoety,001,fr,0,0,2022-05-03_12h07.59.148,Cluster,2022.1.1,36.41952376907601,
,,,,3,0,3,0,18,0,18,0,,,both,,,,,,,,,,,,,,,,,,,,,,,,,,,,,,,,,,,,,,,,,,,,,,,,,,,,,,,,,,,,,,,,,,,,,,,,,,,,,,,,,,,,,,,,,,,,,,,,,,,,,,,,,,,,,,,,,,,,579.3037963999668,None,523.7056104206096,4.025029693258762,0.00010768099945412307,1,"[0.5582647799541711, 0.5582647799541711, 0.5582647799541711, 0.5582647799541711]","[1319.65544503394, 1047.4112208412193, 831.3308369033238, 659.8277225169699]",Major_3rd,"[6.286726888702948, 4.465980350534826, 4.0, 6.939487120190779]",False,580.3231049999595,583.0187835999532,583.0187835999532,584.2408439000137,['space'],1,[0.16475759993772954],3.2776007101638243,4.304506910149939,None,1,None,1,,,,,,,udoety,001,fr,0,0,2022-05-03_12h07.59.148,Cluster,2022.1.1,36.41952376907601,
,,,,3,0,3,0,19,0,19,0,,,none,,,,,,,,,,,,,,,,,,,,,,,,,,,,,,,,,,,,,,,,,,,,,,,,,,,,,,,,,,,,,,,,,,,,,,,,,,,,,,,,,,,,,,,,,,,,,,,,,,,,,,,,,,,,,,,,,,,,584.6575938999886,None,5975.145589868363,-5.9020400315968296,5.919564987927775e-05,0,"[0.5021836576434509, 0.42436948770290794, 0.7930266608090398, 0.6902853078760907]","[4874.802192325675, 2180.7145582751846, 337.78671522380887, 575.6725929089918]",None,"[0.6040513895135975, 7.6661718151528495, 13.386035984172485, 9.118681732301107]",False,585.6618036000291,588.4130161999492,588.4130161999492,589.6382301000413,None,0,,3.465454010060057,4.470276110107079,None,1,None,1,,,,,,,udoety,001,fr,0,0,2022-05-03_12h07.59.148,Cluster,2022.1.1,36.41952376907601,
,,,,4,0,4,0,0,0,0,0,,,none,,,,,,,,,,,,,,,,,,,,,,,,,,,,,,,,,,,,,,,,,,,,,,,,,,,,,,,,,,,,,,,,,,,,,,,,,,,,,,,,,,,,,,,,,,,,,,,,,,,,,,,,,,,,,,,,,,,,592.1166696000146,None,,,,,"[0.6193522735138066, 0.42409056100048903, 0.4899061177001359, 0.535680952566115]","[1322.855088787087, 948.991500986201, 254.16342800322866, 792.4999541922972]",None,"[6.286726888702948, 3.7391670222236364, 12.012059773774315, 4.178795381812933]",True,593.1020317999646,595.6610294999555,595.6610294999555,596.8916240000399,None,1,,3.1038920101709664,4.134819710161537,None,1,None,1,0,,,,,,udoety,001,fr,0,0,2022-05-03_12h07.59.148,Cluster,2022.1.1,36.41952376907601,
,,,,4,0,4,0,1,0,1,0,,,both,,,,,,,,,,,,,,,,,,,,,,,,,,,,,,,,,,,,,,,,,,,,,,,,,,,,,,,,,,,,,,,,,,,,,,,,,,,,,,,,,,,,,,,,,,,,,,,,,,,,,,,,,,,,,,,,,,,,597.2735502000432,None,1148.6983549970344,-6.0,2.5195718772304546e-05,0,"[0.5609325800973086, 0.5609325800973086, 0.5609325800973086, 0.5609325800973086]","[227.93062213955412, 341.51006418859873, 511.6869459983872, 766.6641723347999]",Perfect_5th,"[11.0, 13.386035984172485, 10.774202387751487, 4.88041726909917]",False,598.28387439996,600.9989263999742,600.9989263999742,602.2261040000012,None,0,,3.2761304101441056,4.295266410103068,None,1,None,1,,,,,,,udoety,001,fr,0,0,2022-05-03_12h07.59.148,Cluster,2022.1.1,36.41952376907601,
,,,,4,0,4,0,2,0,2,0,,,frequency,,,,,,,,,,,,,,,,,,,,,,,,,,,,,,,,,,,,,,,,,,,,,,,,,,,,,,,,,,,,,,,,,,,,,,,,,,,,,,,,,,,,,,,,,,,,,,,,,,,,,,,,,,,,,,,,,,,,602.6201692000031,None,1701.1072386638803,1.8014054553687762,7.544717821660888e-05,1,"[0.4874814610926199, 0.5594302377067087, 0.6032687661983072, 0.6641745906183684]","[4286.521636242329, 3402.2144773277605, 2700.3394201657625, 2143.2608181211644]",Major_3rd,"[0.5848890422849387, 2.0, 5.0, 7.6661718151528495]",False,603.613098599948,606.2964145999867,606.2964145999867,607.5323920999654,['space'],1,[0.28003250004258007],3.3450917100999504,4.345614910125732,None,1,None,1,,,,,,,udoety,001,fr,0,0,2022-05-03_12h07.59.148,Cluster,2022.1.1,36.41952376907601,
,,,,4,0,4,0,3,0,3,0,,,both,,,,,,,,,,,,,,,,,,,,,,,,,,,,,,,,,,,,,,,,,,,,,,,,,,,,,,,,,,,,,,,,,,,,,,,,,,,,,,,,,,,,,,,,,,,,,,,,,,,,,,,,,,,,,,,,,,,,607.9931089000311,None,2751.1103653266428,-1.0,6.26466194556005e-05,1,"[0.6287586235597058, 0.6287586235597058, 0.6287586235597058, 0.6287586235597058]","[6932.363719718024, 5502.2207306532855, 4367.11548800013, 3466.181859859012]",Major_3rd,"[-0.6665017941203928, 0.3932899010127491, 0.5848890422849387, 1.6228778415857468]",False,608.9858850999735,611.8902463000268,611.8902463000268,613.1044277000474,['space'],1,[0.36969339998904616],3.543930010055192,4.547188510070555,None,1,None,1,,,,,,,udoety,001,fr,0,0,2022-05-03_12h07.59.148,Cluster,2022.1.1,36.41952376907601,
,,,,4,0,4,0,4,0,4,0,,,both,,,,,,,,,,,,,,,,,,,,,,,,,,,,,,,,,,,,,,,,,,,,,,,,,,,,,,,,,,,,,,,,,,,,,,,,,,,,,,,,,,,,,,,,,,,,,,,,,,,,,,,,,,,,,,,,,,,,613.5703712999821,None,500.0,-3.0,5.057897271299494e-05,1,"[0.5934381477506325, 0.5934381477506325, 0.5934381477506325, 0.5934381477506325]","[198.42513149602502, 250.00000000000009, 314.98026247371837, 396.8502629920499]",Major_3rd,"[9.0, 12.012059773774315, 13.419576214029288, 12.389760054493381]",False,615.964776400011,618.7697956999764,618.7697956999764,619.9773668999551,['space'],1,[0.3190325000323355],3.406682720175013,4.429840820142999,None,1,None,1,,,,,,,udoety,001,fr,0,0,2022-05-03_12h07.59.148,Cluster,2022.1.1,36.41952376907601,
,,,,4,0,4,0,5,0,5,0,,,both,,,,,,,,,,,,,,,,,,,,,,,,,,,,,,,,,,,,,,,,,,,,,,,,,,,,,,,,,,,,,,,,,,,,,,,,,,,,,,,,,,,,,,,,,,,,,,,,,,,,,,,,,,,,,,,,,,,,620.4318767000223,None,3668.321316445031,-4.954374234234683,4.416027120293777e-05,1,"[0.5661758473065285, 0.5661758473065285, 0.5661758473065285, 0.5661758473065285]","[5823.097116682213, 5187.789756858889, 4621.795244367167, 4117.551458713825]",Tone,"[0.3932899010127491, 0.558631801578974, 0.5833937802563938, 0.7084603997272367]",False,621.4334226000356,624.148099699989,624.148099699989,625.3517309000017,['space'],1,[0.17353020003065467],3.296248310129158,4.320438410155475,None,1,None,1,,,,,,,udoety,001,fr,0,0,2022-05-03_12h07.59.148,Cluster,2022.1.1,36.41952376907601,
,,,,4,0,4,0,6,0,6,0,,,frequency,,,,,,,,,,,,,,,,,,,,,,,,,,,,,,,,,,,,,,,,,,,,,,,,,,,,,,,,,,,,,,,,,,,,,,,,,,,,,,,,,,,,,,,,,,,,,,,,,,,,,,,,,,,,,,,,,,,,625.7891667999793,None,250.0,-3.0,0.00011856868528308277,0,"[0.4765764855617064, 0.4088265993613996, 0.6746896520577153, 0.7882993104704423]","[157.49013123685913, 176.77669529663686, 198.42513149602493, 222.72467953508482]",Tone,"[8.696188121303779, 8.432311991088431, 9.0, 10.22167760361431]",False,626.7932148999535,629.3968542000512,629.3968542000512,630.6249183999607,None,0,,3.3941450101556256,4.428459310089238,None,1,None,1,,,,,,,udoety,001,fr,0,0,2022-05-03_12h07.59.148,Cluster,2022.1.1,36.41952376907601,
,,,,4,0,4,0,7,0,7,0,,,both,,,,,,,,,,,,,,,,,,,,,,,,,,,,,,,,,,,,,,,,,,,,,,,,,,,,,,,,,,,,,,,,,,,,,,,,,,,,,,,,,,,,,,,,,,,,,,,,,,,,,,,,,,,,,,,,,,,,631.2749817000004,None,8000.0,-3.0,0.00012851978913844324,1,"[0.4987380875381164, 0.4987380875381164, 0.4987380875381164, 0.4987380875381164]","[1587.4010519681997, 2378.4142300054423, 3563.5948725613575, 5339.359416680138]",Perfect_5th,"[7.563702587200398, 7.0, 1.6228778415857468, 0.558631801578974]",False,632.2892983000493,634.8036089000525,634.8036089000525,636.0383316000225,['space'],1,[0.1419430999085307],3.030765510047786,4.044447510037571,None,1,None,1,,,,,,,udoety,001,fr,0,0,2022-05-03_12h07.59.148,Cluster,2022.1.1,36.41952376907601,
,,,,4,0,4,0,8,0,8,0,,,frequency,,,,,,,,,,,,,,,,,,,,,,,,,,,,,,,,,,,,,,,,,,,,,,,,,,,,,,,,,,,,,,,,,,,,,,,,,,,,,,,,,,,,,,,,,,,,,,,,,,,,,,,,,,,,,,,,,,,,636.3746395000489,None,,,,,"[0.5861420608320769, 0.7613600784744744, 0.7251212136389903, 0.4985600014405221]","[316.5989498429102, 251.28475301633142, 199.44484064084685, 158.2994749214551]",Major_3rd,"[13.419576214029288, 12.012059773774315, 9.388390660889556, 8.696188121303779]",True,637.3829809000017,640.472906799987,640.472906799987,641.7001292000059,None,1,,3.6280379100935534,4.658401010092348,None,1,None,1,0,,,,,,udoety,001,fr,0,0,2022-05-03_12h07.59.148,Cluster,2022.1.1,36.41952376907601,
,,,,4,0,4,0,9,0,9,0,,,both,,,,,,,,,,,,,,,,,,,,,,,,,,,,,,,,,,,,,,,,,,,,,,,,,,,,,,,,,,,,,,,,,,,,,,,,,,,,,,,,,,,,,,,,,,,,,,,,,,,,,,,,,,,,,,,,,,,,642.0710091999499,None,5366.846362951129,-5.441368198421026,7.440931827116786e-05,1,"[0.5048075851374325, 0.5048075851374325, 0.5048075851374325, 0.5048075851374325]","[2129.834390575082, 2683.423181475565, 3380.9013521169345, 4259.668781150164]",Major_3rd,"[7.6661718151528495, 5.590827075446662, 2.0, 0.5848890422849387]",False,643.087193400017,645.6256376999663,645.6256376999663,646.8410469000228,['space'],1,[0.2524238000623882],3.0653204099508002,4.080206310027279,None,1,None,1,,,,,,,udoety,001,fr,0,0,2022-05-03_12h07.59.148,Cluster,2022.1.1,36.41952376907601,
,,,,4,0,4,0,10,0,10,0,,,none,,,,,,,,,,,,,,,,,,,,,,,,,,,,,,,,,,,,,,,,,,,,,,,,,,,,,,,,,,,,,,,,,,,,,,,,,,,,,,,,,,,,,,,,,,,,,,,,,,,,,,,,,,,,,,,,,,,,647.2019175000023,None,189.4645708137998,-4.0,0.00019169242467719167,1,"[0.7868645812088167, 0.5800971768376775, 0.7513972673315675, 0.5618569216130698]","[3112.792238792771, 697.3547187010288, 3222.750147581242, 1839.5845989909608]",None,"[3.0, 6.0, 2.449711566732529, 7.92538900570556]",False,648.2360980999656,651.3792400000384,651.3792400000384,652.6081122000469,['space'],1,[0.44864570000208914],3.702735910192132,4.736995010171086,None,1,None,1,,,,,,,udoety,001,fr,0,0,2022-05-03_12h07.59.148,Cluster,2022.1.1,36.41952376907601,
,,,,4,0,4,0,11,0,11,0,,,frequency,,,,,,,,,,,,,,,,,,,,,,,,,,,,,,,,,,,,,,,,,,,,,,,,,,,,,,,,,,,,,,,,,,,,,,,,,,,,,,,,,,,,,,,,,,,,,,,,,,,,,,,,,,,,,,,,,,,,653.0261386999628,None,536.5387427809745,4.0,0.00010419823312636231,1,"[0.680787292345795, 0.6641530038480885, 0.5342691062832458, 0.7105358399899097]","[2703.985824455523, 1804.6940217970252, 1204.488752438537, 803.8997953272517]",Perfect_5th,"[5.0, 7.92538900570556, 5.688239098579929, 4.178795381812933]",False,654.0227717000525,656.9497202000348,656.9497202000348,658.1856392000336,['space'],1,[0.17925889999605715],3.6407539100619033,4.662274910020642,None,1,None,1,,,,,,,udoety,001,fr,0,0,2022-05-03_12h07.59.148,Cluster,2022.1.1,36.41952376907601,
,,,,4,0,4,0,12,0,12,0,,,frequency,,,,,,,,,,,,,,,,,,,,,,,,,,,,,,,,,,,,,,,,,,,,,,,,,,,,,,,,,,,,,,,,,,,,,,,,,,,,,,,,,,,,,,,,,,,,,,,,,,,,,,,,,,,,,,,,,,,,658.7202508000191,None,8000.0,-4.0,0.00011454338263838867,1,"[0.5944597678662071, 0.5215981579984114, 0.7207572300386706, 0.7246881687940921]","[1587.4010519681997, 2378.4142300054423, 3563.5948725613575, 5339.359416680138]",Perfect_5th,"[7.563702587200398, 7.0, 1.6228778415857468, 0.558631801578974]",False,660.7087304999586,663.5732038000133,663.5732038000133,664.8001169000054,['space'],1,[0.27740470005664974],3.5685925701400265,4.58786407019943,None,1,None,1,,,,,,,udoety,001,fr,0,0,2022-05-03_12h07.59.148,Cluster,2022.1.1,36.41952376907601,
,,,,4,0,4,0,13,0,13,0,,,both,,,,,,,,,,,,,,,,,,,,,,,,,,,,,,,,,,,,,,,,,,,,,,,,,,,,,,,,,,,,,,,,,,,,,,,,,,,,,,,,,,,,,,,,,,,,,,,,,,,,,,,,,,,,,,,,,,,,665.3506212000502,None,707.1067811865476,-6.0,2.225419062702849e-05,0,"[0.5544307639536603, 0.5544307639536603, 0.5544307639536603, 0.5544307639536603]","[140.30775603867164, 210.22410381342866, 314.9802624737183, 471.93715634084674]",Perfect_5th,"[9.18495440881352, 10.0, 13.419576214029288, 11.397291563039362]",False,666.4271159999771,669.1270149999764,669.1270149999764,670.3659182999982,None,0,,3.2196574901463464,4.233093590126373,None,1,['space'],0,,[0.4485690000001341],"{'estimation': [[125.0, 1.6379287947230827], [131.09659951981197, 1.0], [133.9716828170366, 0.7130152826479774], [139.56839394453462, 0.0], [143.5872943746293, -0.5079944276723313], [147.29320045271393, -1.0], [153.89305166811442, -1.8956878027787651], [154.73971125402616, -2.0], [162.57368761665964, -3.0], [164.93848884661162, -3.293949504102489], [171.7191159889228, -4.0], [176.77669529663666, -4.521638577860418], [183.28435068816344, -5.0], [189.46457081379936, -5.450859957749463], [203.0630990890585, -5.979145648665175], [205.811438858212, -6.0], [217.6376408240306, -6.089061649938704], [222.12874249783343, -6.0], [233.25824788420132, -5.795671397909466], [249.99999999999937, -5.199667696045591], [254.31096340975148, -5.0], [267.94336563407256, -4.41353726049228], [277.3013797049378, -4.0], [287.1745887492579, -3.5881798593276515], [304.00201212402607, -3.0], [307.78610333622805, -2.871825325950078], [329.87697769322244, -2.3883029431974405], [353.55339059327247, -2.204637480447539], [378.929141627598, -2.34295494500107], [406.12619817811606, -2.7692344686691266], [416.18521416087805, -3.0], [435.2752816480601, -3.419746608300673], [459.11841310237673, -4.0], [466.5164957684015, -4.176129146880024], [499.9999999999975, -4.922151036731568], [504.180920965038, -5.0], [535.8867312681438, -5.574156636530111], [570.4462949202727, -6.0], [574.3491774985143, -6.049088957694709], [615.5722066724546, -6.318032088050302], [659.7539553864432, -6.371285795280873], [707.1067811865431, -6.238968402647582], [750.1984974414053, -6.0], [757.8582832551941, -5.959670409797911], [812.2523963562301, -5.600330162528471], [870.5505632961181, -5.210789373488022], [904.1136676443504, -5.0], [933.0329915368008, -4.8335424334255865], [999.9999999999926, -4.5347725548370335], [1071.773462536285, -4.34102921817097], [1148.698354997026, -4.273612994826357], [1231.1444133449063, -4.340875018274721], [1319.5079107728832, -4.5301045311368044], [1414.2135623730828, -4.8143300766102515], [1468.5759423868628, -5.0], [1515.7165665103846, -5.158757166831791], [1624.5047927124563, -5.498488989725979], [1741.1011265922318, -5.794718873595274], [1853.22395098002, -6.0], [1866.065983073597, -6.0231145379838535], [1999.9999999999777, -6.165944907877561], [2143.5469250725646, -6.230892253241856], [2297.3967099940432, -6.250496320158066], [2462.2888266898062, -6.267056605094225], [2639.0158215457564, -6.32276526166797], [2828.427124746159, -6.447580412486364], [3031.4331330207615, -6.649992616546642], [3249.0095854249043, -6.9157548302924035], [3313.173187070045, -7.0], [3482.2022531844555, -7.2059043711956345], [3732.1319661471844, -7.443872930378776], [3999.9999999999504, -7.570316179445713], [4287.093850145118, -7.536298386862612], [4594.793419988081, -7.31722994837272], [4848.892460280201, -7.0], [4924.577653379601, -6.9106400284704925], [5278.031643091506, -6.394909724147215], [5534.096991282948, -6.0], [5656.854249492303, -5.818136972749653], [6062.866266041508, -5.301404481837893], [6378.478544960761, -5.0], [6498.019170849792, -4.8855963976898025], [6964.404506368894, -4.645063652600199], [7464.2639322943505, -4.581503512521346], [7999.999999999882, -4.662891558950839]], 'plus_line': [[125.0, -0.3314161219042937], [131.61091070379732, -1.0], [133.9716828170366, -1.2379040765206564], [139.42693534321597, -2.0], [143.5872943746293, -2.5469392699569395], [146.66539919341201, -3.0], [153.6258923384481, -4.0], [153.89305166811442, -4.036449443420131], [160.54338745619734, -5.0], [164.93848884661162, -5.572587626364388], [168.69318047940942, -6.0], [176.77669529663666, -6.888601461518576], [178.18702192709264, -7.0], [189.46457081379947, -7.893202220880383], [192.02885498961186, -8.0], [203.0630990890585, -8.487597627801891], [217.6376408240306, -8.591998060907228], [233.25824788420132, -8.257485727587843], [239.11212591777397, -8.0], [249.99999999999937, -7.586215320806062], [261.62146898171335, -7.0], [267.94336563407256, -6.712341488214853], [282.88329236064163, -6.0], [287.1745887492579, -5.813141288295183], [307.78610333622805, -5.049248805508713], [309.70894607216565, -5.0], [329.87697769322244, -4.567557390312403], [353.55339059327247, -4.393454532709777], [378.929141627598, -4.548341046620671], [406.12619817811606, -4.972083236671752], [407.3467763543593, -5.0], [435.2752816480601, -5.651060925151689], [449.5011815497565, -6.0], [466.5164957684015, -6.429319731542211], [491.3960881201662, -7.0], [499.9999999999975, -7.20628836857291], [535.8867312681438, -7.895818950555669], [543.4906658920146, -8.0], [574.3491774985143, -8.456974909976832], [615.5722066724546, -8.771406575711406], [659.7539553864432, -8.85700527226723], [707.1067811865431, -8.736687447579227], [757.8582832551941, -8.441023810828346], [810.880201215801, -8.0], [812.2523963562301, -7.990237130563724], [870.5505632961181, -7.533591258522625], [933.0329915368008, -7.034957431304163], [937.9569452273772, -7.0], [999.9999999999926, -6.653535455628682], [1071.773462536285, -6.401541480258111], [1148.698354997026, -6.33066803231552], [1231.1444133449063, -6.456502595743439], [1319.5079107728832, -6.723691199769468], [1396.1236339967452, -7.0], [1414.213562373081, -7.075679313941005], [1515.7165665103864, -7.468216086782897], [1624.5047927124563, -7.791885565190158], [1716.982915140633, -8.0], [1741.1011265922318, -8.061291622182646], [1866.065983073597, -8.295584107010919], [1999.9999999999802, -8.464597947469834], [2143.5469250725646, -8.583484855161648], [2297.396709994046, -8.659885599675327], [2462.2888266898062, -8.707054461873659], [2639.015821545763, -8.74961379103193], [2828.427124746159, -8.817150524600002], [3031.4331330207615, -8.931097359167499], [3118.831907812085, -9.0], [3249.0095854249043, -9.113186297785443], [3482.202253184451, -9.326985002328541], [3732.1319661471844, -9.499255662403016], [3999.9999999999504, -9.57051870118395], [4287.093850145118, -9.485565342914306], [4594.793419988081, -9.194176819903726], [4714.349211820365, -9.0], [4924.577653379601, -8.726719958839738], [5278.031643091506, -8.138297351495297], [5352.671422723338, -8.0], [5656.854249492303, -7.537582774460564], [6035.611399396967, -7.0], [6062.866266041508, -6.965509644780187], [6498.019170849792, -6.611596510284296], [6964.404506368894, -6.449876076580789], [7464.2639322943505, -6.51474967426606], [7999.999999999882, -6.787249671644223]], 'minus_line': [[125.0, 3.7157015082958176], [131.45631607999002, 3.0], [133.9716828170366, 2.740413986900296], [139.99151398012864, 2.0], [143.5872943746293, 1.5551297824225485], [148.03219511789203, 1.0], [153.89305166811442, 0.22149780310088463], [155.79360558392577, 0.0], [163.89651933710442, -1.0], [164.93848884661162, -1.123878139959134], [173.80707304832066, -2.0], [176.77669529663655, -2.293138173327062], [186.72789659678935, -3.0], [189.46457081379947, -3.1878045642836828], [203.0630990890585, -3.6839820971681405], [217.6376408240306, -3.7904105733030122], [233.25824788420132, -3.513342101137269], [248.99554946166032, -3.0], [249.99999999999937, -2.9649750376770263], [267.94336563407256, -2.2080247647103537], [272.8569618100194, -2.0], [287.1745887492579, -1.3982366845764949], [298.85275347570865, -1.0], [307.78610333622805, -0.6836569469724878], [329.87697769322244, -0.1946776411381577], [353.55339059327247, -0.0028335275784592416], [378.929141627598, -0.12294964959624698], [406.12619817811606, -0.5405126496432643], [425.1516773422802, -1.0], [435.2752816480601, -1.2191745387898398], [466.2096942211527, -2.0], [466.5164957684021, -2.0072227671604765], [499.9999999999975, -2.739356326860375], [513.9258273367313, -3.0], [535.8867312681438, -3.3682245053695934], [574.3491774985143, -3.800786812283315], [608.8154985376535, -4.0], [615.5722066724546, -4.034036367319524], [659.7539553864432, -4.051084642859274], [677.0079875244761, -4.0], [707.1067811865431, -3.900186531215194], [757.8582832551941, -3.6318692359720828], [812.2523963562301, -3.323960083087223], [870.5505632961181, -3.0194235847023148], [874.6354538452371, -3.0], [933.0329915368008, -2.710766468502482], [999.9999999999926, -2.4863409279673325], [1071.773462536285, -2.3404576806762707], [1148.698354997026, -2.2654602951710427], [1231.1444133449063, -2.2678410799402178], [1319.5079107728832, -2.366406337803225], [1414.2135623730828, -2.57706681026559], [1515.7165665103846, -2.9027044665109774], [1541.9944264934277, -3.0], [1624.5047927124563, -3.2543927029837016], [1741.1011265922318, -3.575659906612029], [1866.065983073597, -3.8258374917247715], [1999.9999999999802, -3.953805705431622], [2143.5469250725646, -3.9604160362567775], [2297.396709994046, -3.909582899848994], [2462.2888266898062, -3.8841732653392405], [2639.01582154576, -3.9516959699119383], [2683.2083421892025, -4.0], [2828.427124746159, -4.127773259601983], [3031.433133020758, -4.404192915495919], [3249.0095854249043, -4.772165358791605], [3372.7210578434415, -5.0], [3482.202253184451, -5.164190409156662], [3732.1319661471844, -5.46611386327822], [3999.9999999999504, -5.655119720384784], [4287.093850145118, -5.67156975960857], [4594.793419988081, -5.496119643639313], [4924.577653379601, -5.164367395123837], [5043.814029990376, -5.0], [5278.0316430915, -4.656694199196475], [5656.854249492303, -4.134822171488591], [5760.417589360584, -4.0], [6062.866266041508, -3.57822236533779], [6498.019170849792, -3.165408295569798], [6767.9330127169715, -3.0], [6964.404506368894, -2.8561299578410315], [7464.2639322943505, -2.676844424630146], [7999.999999999882, -2.5986250355272285]]}",,,,udoety,001,fr,0,0,2022-05-03_12h07.59.148,Cluster,2022.1.1,36.41952376907601,
,,,,4,0,4,0,14,0,14,0,,,none,,,,,,,,,,,,,,,,,,,,,,,,,,,,,,,,,,,,,,,,,,,,,,,,,,,,,,,,,,,,,,,,,,,,,,,,,,,,,,,,,,,,,,,,,,,,,,,,,,,,,,,,,,,,,,,,,,,,670.7142934000585,None,,,,,"[0.7795256601770268, 0.5152602165795144, 0.4987984491312014, 0.4132073522271086]","[6740.8751437973, 6578.19608187286, 1496.552513086933, 7671.6782622140445]",None,"[-0.6665017941203928, -0.2872264221292191, 7.231821992746438, -1.0]",True,671.7160020000301,674.5349540000316,674.5349540000316,675.7670762999915,None,1,,3.2653195101302117,4.274109410122037,None,1,None,1,0,,,,,,udoety,001,fr,0,0,2022-05-03_12h07.59.148,Cluster,2022.1.1,36.41952376907601,
,,,,4,0,4,0,15,0,15,0,,,time,,,,,,,,,,,,,,,,,,,,,,,,,,,,,,,,,,,,,,,,,,,,,,,,,,,,,,,,,,,,,,,,,,,,,,,,,,,,,,,,,,,,,,,,,,,,,,,,,,,,,,,,,,,,,,,,,,,,676.0187915000133,None,500.0,3.0,0.0001009183181840781,1,"[0.6247833006642833, 0.6247833006642833, 0.6247833006642833, 0.6247833006642833]","[204.61327497438384, 6806.395599970907, 6918.7374012141, 1922.527021906947]",None,"[9.388390660889556, -0.6665017941203928, -0.6665017941203928, 7.92538900570556]",False,677.0342875999631,679.9439452999504,679.9439452999504,681.1491042999551,['space'],1,[0.20164630003273487],3.537881010212004,4.568748710211366,None,1,None,1,,,,,,,udoety,001,fr,0,0,2022-05-03_12h07.59.148,Cluster,2022.1.1,36.41952376907601,
,,,,4,0,4,0,16,0,16,0,,,frequency,,,,,,,,,,,,,,,,,,,,,,,,,,,,,,,,,,,,,,,,,,,,,,,,,,,,,,,,,,,,,,,,,,,,,,,,,,,,,,,,,,,,,,,,,,,,,,,,,,,,,,,,,,,,,,,,,,,,681.6517767000478,None,1622.3700328341665,1.5637025872003978,6.915394413972478e-05,1,"[0.43997849589913257, 0.7069859714673408, 0.42831411231996147, 0.7757545419470053]","[643.8379742006597, 811.1850164170834, 1022.0290775432015, 1287.6759484013191]",Major_3rd,"[7.0, 4.178795381812933, 4.0, 6.0]",False,682.6635749000125,685.2791648999555,685.2791648999555,686.4804605999961,['space'],1,[0.45862690010108054],3.3657522200373933,4.379735420108773,None,1,None,1,,,,,,,udoety,001,fr,0,0,2022-05-03_12h07.59.148,Cluster,2022.1.1,36.41952376907601,
,,,,4,0,4,0,17,0,17,0,,,frequency,,,,,,,,,,,,,,,,,,,,,,,,,,,,,,,,,,,,,,,,,,,,,,,,,,,,,,,,,,,,,,,,,,,,,,,,,,,,,,,,,,,,,,,,,,,,,,,,,,,,,,,,,,,,,,,,,,,,687.1089884999674,None,933.0329915368076,-4.0,2.6594295347594305e-05,0,"[0.4732621560683956, 0.5221458079704895, 0.5491425056719538, 0.6283140749334215]","[1481.0975522865647, 1319.5079107728945, 1175.5479062836089, 1047.2941228206269]",Tone,"[7.0, 6.286726888702948, 5.064486795872355, 4.465980350534826]",False,689.2493917000247,691.819856200018,691.819856200018,693.0516093999613,None,0,,3.206827510264702,4.219542110222392,None,1,None,1,,,,,,,udoety,001,fr,0,0,2022-05-03_12h07.59.148,Cluster,2022.1.1,36.41952376907601,
,,,,4,0,4,0,18,0,18,0,,,time,,,,,,,,,,,,,,,,,,,,,,,,,,,,,,,,,,,,,,,,,,,,,,,,,,,,,,,,,,,,,,,,,,,,,,,,,,,,,,,,,,,,,,,,,,,,,,,,,,,,,,,,,,,,,,,,,,,,693.5087923000101,None,,,,,"[0.5436710082584428, 0.5436710082584428, 0.5436710082584428, 0.5436710082584428]","[1236.5332307370672, 3939.7021734352825, 399.99262028227065, 147.10615088500955]",None,"[5.688239098579929, 0.7084603997272367, 12.389760054493381, 9.0]",True,694.5065273999935,697.1575039000018,697.1575039000018,698.3622934999876,None,1,,3.2293741101166233,4.247411910095252,None,1,None,1,0,,,,,,udoety,001,fr,0,0,2022-05-03_12h07.59.148,Cluster,2022.1.1,36.41952376907601,
,,,,4,0,4,0,19,0,19,0,,,time,,,,,,,,,,,,,,,,,,,,,,,,,,,,,,,,,,,,,,,,,,,,,,,,,,,,,,,,,,,,,,,,,,,,,,,,,,,,,,,,,,,,,,,,,,,,,,,,,,,,,,,,,,,,,,,,,,,,698.7833967000479,None,2421.5532990382603,0.5053483777659029,8.919796141515595e-05,1,"[0.5237567140791065, 0.5237567140791065, 0.5237567140791065, 0.5237567140791065]","[5103.5200471299995, 2231.385165600769, 4622.090532022408, 682.4777590427939]",None,"[0.558631801578974, 7.21048027798575, 0.5833937802563938, 6.0]",False,699.7778094999958,702.3668584000552,702.3668584000552,703.5985076000215,['space'],1,[0.057152000023052096],3.1300118101062253,4.135520910145715,None,1,None,1,,,,,,,udoety,001,fr,0,0,2022-05-03_12h07.59.148,Cluster,2022.1.1,36.41952376907601,
,,,,5,0,5,0,0,0,0,0,,,time,,,,,,,,,,,,,,,,,,,,,,,,,,,,,,,,,,,,,,,,,,,,,,,,,,,,,,,,,,,,,,,,,,,,,,,,,,,,,,,,,,,,,,,,,,,,,,,,,,,,,,,,,,,,,,,,,,,,705.8348748000572,None,3732.1319661472303,-5.0,4.455881194060064e-05,1,"[0.44644311438451445, 0.44644311438451445, 0.44644311438451445, 0.44644311438451445]","[5163.5304350429, 754.1608656579099, 610.4491998769228, 224.47868287263466]",None,"[0.558631801578974, 5.0, 8.068625138030386, 11.0]",False,706.8312502000481,709.2024885000428,709.2024885000428,710.439582800027,['space'],1,[0.33475739997811615],2.810309210093692,3.8331400101305917,None,1,None,1,,,,,,,udoety,001,fr,0,0,2022-05-03_12h07.59.148,Cluster,2022.1.1,36.41952376907601,
,,,,5,0,5,0,1,0,1,0,,,time,,,,,,,,,,,,,,,,,,,,,,,,,,,,,,,,,,,,,,,,,,,,,,,,,,,,,,,,,,,,,,,,,,,,,,,,,,,,,,,,,,,,,,,,,,,,,,,,,,,,,,,,,,,,,,,,,,,,710.704160299967,None,128.11938089901776,4.0,0.0011014193229369892,0,"[0.5637597636865677, 0.5637597636865677, 0.5637597636865677, 0.5637597636865677]","[283.46135842538325, 3340.2956436678946, 5222.51426129492, 7634.778111834866]",None,"[13.208387225844973, 2.0, 0.558631801578974, -1.0]",False,711.725325700012,714.4361953999614,714.4361953999614,715.6504782000557,None,0,,3.2926722100237384,4.306621910072863,None,1,['space'],0,,[0.4989186000311747],,,,,udoety,001,fr,0,0,2022-05-03_12h07.59.148,Cluster,2022.1.1,36.41952376907601,
,,,,5,0,5,0,2,0,2,0,,,frequency,,,,,,,,,,,,,,,,,,,,,,,,,,,,,,,,,,,,,,,,,,,,,,,,,,,,,,,,,,,,,,,,,,,,,,,,,,,,,,,,,,,,,,,,,,,,,,,,,,,,,,,,,,,,,,,,,,,,716.0730894999579,None,,,,,"[0.6122653237564286, 0.5781734173924906, 0.4479193621849182, 0.6671967255414311]","[441.238244526683, 555.9253522978291, 700.422053530258, 882.4764890533658]",Major_3rd,"[11.917160756346224, 9.118681732301107, 6.0, 3.787618534096997]",True,717.091096600052,719.7466809999896,719.7466809999896,720.9766288000392,None,1,,3.34722781018354,4.379220110131428,None,1,None,1,0,,,,,,udoety,001,fr,0,0,2022-05-03_12h07.59.148,Cluster,2022.1.1,36.41952376907601,
,,,,5,0,5,0,3,0,3,0,,,time,,,,,,,,,,,,,,,,,,,,,,,,,,,,,,,,,,,,,,,,,,,,,,,,,,,,,,,,,,,,,,,,,,,,,,,,,,,,,,,,,,,,,,,,,,,,,,,,,,,,,,,,,,,,,,,,,,,,721.5023443000391,None,1231.1444133449168,-7.0,2.3996088094672076e-05,0,"[0.5012352684268858, 0.5012352684268858, 0.5012352684268858, 0.5012352684268858]","[244.22371026300783, 223.88695807364434, 236.4074236267792, 766.281648958004]",None,"[12.0, 10.22167760361431, 11.14028009925592, 4.88041726909917]",False,722.517601700034,725.0355413999641,725.0355413999641,726.2443418999901,None,0,,3.0307308102492243,4.061076810234226,None,1,None,1,,,,,,,udoety,001,fr,0,0,2022-05-03_12h07.59.148,Cluster,2022.1.1,36.41952376907601,
,,,,5,0,5,0,4,0,4,0,,,time,,,,,,,,,,,,,,,,,,,,,,,,,,,,,,,,,,,,,,,,,,,,,,,,,,,,,,,,,,,,,,,,,,,,,,,,,,,,,,,,,,,,,,,,,,,,,,,,,,,,,,,,,,,,,,,,,,,,726.6213457999984,None,699.30432388752,0.0,4.5087166442805194e-05,1,"[0.540358353987537, 0.540358353987537, 0.540358353987537, 0.540358353987537]","[672.9887019987985, 2532.154472452471, 173.32535810181005, 819.9578080392012]",None,"[6.939487120190779, 6.0, 8.432311991088431, 4.178795381812933]",False,727.6401657999959,730.2924661999568,730.2924661999568,731.5291618000483,['space'],1,[0.3068009000271559],3.192879310110584,4.21342931012623,None,1,None,1,,,,,,,udoety,001,fr,0,0,2022-05-03_12h07.59.148,Cluster,2022.1.1,36.41952376907601,
,,,,5,0,5,0,5,0,5,0,,,none,,,,,,,,,,,,,,,,,,,,,,,,,,,,,,,,,,,,,,,,,,,,,,,,,,,,,,,,,,,,,,,,,,,,,,,,,,,,,,,,,,,,,,,,,,,,,,,,,,,,,,,,,,,,,,,,,,,,731.8877593999496,None,1322.3876813085546,0.28672688870294805,5.448117467931198e-05,1,"[0.4146205335763546, 0.7462944736244994, 0.4916632228155713, 0.49775128964403625]","[691.66165275861, 164.1120749044093, 222.86996782264325, 2545.9022285430833]",None,"[6.0, 8.421597713268383, 10.22167760361431, 6.0]",False,732.9097474999726,735.5935764999595,735.5935764999595,736.8004036999773,['space'],1,[0.2974179000593722],3.195320110069588,4.216762010008097,None,1,None,1,,,,,,,udoety,001,fr,0,0,2022-05-03_12h07.59.148,Cluster,2022.1.1,36.41952376907601,
,,,,5,0,5,0,6,0,6,0,,,frequency,,,,,,,,,,,,,,,,,,,,,,,,,,,,,,,,,,,,,,,,,,,,,,,,,,,,,,,,,,,,,,,,,,,,,,,,,,,,,,,,,,,,,,,,,,,,,,,,,,,,,,,,,,,,,,,,,,,,737.1659969000611,None,7447.986985421032,-6.959197227405086,7.396285714275057e-05,1,"[0.5842846586862414, 0.614463076721061, 0.610931443662658, 0.7861163008210059]","[4691.937791137508, 5266.522103580362, 5911.471187851402, 6635.402058037527]",Tone,"[0.5833937802563938, 0.558631801578974, 0.09795996840317045, -0.2872264221292191]",False,738.180890699965,741.0351896999637,741.0351896999637,742.2685333000263,['space'],1,[0.28377169999293983],3.63590961007867,4.668895710026845,None,1,None,1,,,,,,,udoety,001,fr,0,0,2022-05-03_12h07.59.148,Cluster,2022.1.1,36.41952376907601,
