frequencies,training_trials.thisRepN,training_trials.thisTrialN,training_trials.thisN,training_trials.thisIndex,frequencies.thisRepN,frequencies.thisTrialN,frequencies.thisN,frequencies.thisIndex,trials.thisRepN,trials.thisTrialN,trials.thisN,trials.thisIndex,tFrequency,tLevel,tCorrect,Tprobe.started,Tprobe.stopped,tTriangle_cue.started,tTriangle_cue.stopped,Tfeedback.keys,Tfeedback.corr,Tfeedback.rt,Tfeedback.started,Tfeedback.stopped,reversals_nTrials.routineEndVal,track_dir.routineEndVal,step_up.routineEndVal,Correct,Frequency,Level,Psychopy_Level,Direction,Reversals,Track_dir,Step,probe.started,probe.stopped,cross_cue.started,cross_cue.stopped,circle_cue.started,circle_cue.stopped,triangle_cue.started,triangle_cue.stopped,feedback.keys,feedback.corr,feedback.rt,feedback.started,feedback.stopped,memo.started,memo.stopped,key_resp.keys,key_resp.rt,key_resp.started,key_resp.stopped,text.started,text.stopped,participant,session,skip_training,language (english or french),date,expName,psychopyVersion,frameRate,
1300,0,0,0,3,,,,,,,,,1300,30,left,40.97108053013217,None,None,None,left,1,1.1012509998399764,40.51579380012117,None,,,,,,,,,,,,,,,,,,,,,,,,,,,,,,,,,rehvhf,001,0,fr,2022-05-11_11h39.12.698,3-AFC_adaptive_staircase_mess,2022.1.1,35.51196894551821,
850,0,1,1,2,,,,,,,,,850,30,right,47.21726183004212,47.45156319998205,47.18857600004412,47.5184661000967,up,0,3.0166084999218583,44.76082450011745,None,,,,,,,,,,,,,,,,,,,,,,,,,,,,,,,,,rehvhf,001,0,fr,2022-05-11_11h39.12.698,3-AFC_adaptive_staircase_mess,2022.1.1,35.51196894551821,
5000,0,2,2,4,,,,,,,,,5000,30,up,53.66437232999597,None,54.623372399946675,54.927557199960575,up,1,3.104692599736154,52.224911500001326,None,,,,,,,,,,,,,,,,,,,,,,,,,,,,,,,,,rehvhf,001,0,fr,2022-05-11_11h39.12.698,3-AFC_adaptive_staircase_mess,2022.1.1,35.51196894551821,
200,0,3,3,0,,,,,,,,,200,30,left,56.89085123005789,None,None,None,left,1,1.3488167999312282,56.429335500113666,None,,,,,,,,,,,,,,,,,,,,,,,,,,,,,,,,,rehvhf,001,0,fr,2022-05-11_11h39.12.698,3-AFC_adaptive_staircase_mess,2022.1.1,35.51196894551821,
450,0,4,4,1,,,,,,,,,450,30,up,62.227825829922224,62.447836300125346,None,None,up,1,1.9706714998465031,60.76740329992026,None,,,,,,,,,,,,,,,,,,,,,,,,,,,,,,,,,rehvhf,001,0,fr,2022-05-11_11h39.12.698,3-AFC_adaptive_staircase_mess,2022.1.1,35.51196894551821,
,,,,,0,0,0,0,0,0,0,0,,,,,,,,,,,,,[],[],10,right,1000,30,0.0013930605843148849,0,0,-1,10,79.67048463008832,None,77.61607390013523,77.92488540010527,78.61360100004822,78.91496059997007,79.608390300069,79.9335793000646,right,1,2.2839304998051375,77.68626550002955,None,None,None,,,,,,,rehvhf,001,0,fr,2022-05-11_11h39.12.698,3-AFC_adaptive_staircase_mess,2022.1.1,35.51196894551821,
,,,,,0,0,0,0,1,0,1,0,,,,,,,,,,,,,,,,up,1000,30,0.0013930605843148849,0,0,-1,10,82.5496098300675,82.76453780010343,81.4847045999486,81.81806179997511,82.486052100081,82.79555359994993,None,None,up,1,1.3465585997328162,81.55112219997682,None,None,None,,,,,,,rehvhf,001,0,fr,2022-05-11_11h39.12.698,3-AFC_adaptive_staircase_mess,2022.1.1,35.51196894551821,
,,,,,0,0,0,0,2,0,2,0,,,,,,,,,,,,,,,,right,1000,10,0.00013930605843148847,-1,0,-1,-10,86.44339473003056,None,84.39424100005999,84.72352929995395,85.3990120999515,85.72375519992784,86.41470890003256,86.74398829997517,up,0,2.539727399824187,84.4543457000982,None,86.96446310007013,None,,,,,,,rehvhf,001,0,fr,2022-05-11_11h39.12.698,3-AFC_adaptive_staircase_mess,2022.1.1,35.51196894551821,
,,,,,0,0,0,0,3,0,3,0,,,,,,,,,,,,,,,,up,1000,15,0.000247725095402395,1,1,1,5,89.52715373008978,None,88.46316240006126,88.79900930006988,89.46281290007755,89.79740529996343,None,None,up,1,1.7334673998411745,88.52404900011607,None,None,None,,,,,,,rehvhf,001,0,fr,2022-05-11_11h39.12.698,3-AFC_adaptive_staircase_mess,2022.1.1,35.51196894551821,
,,,,,0,0,0,0,4,0,4,0,,,,,,,,,,,,,,,,right,1000,15,0.000247725095402395,1,1,1,5,93.80253133007791,94.02157280012034,91.72879680013284,92.05337730003521,92.73378970008343,93.06715709995478,93.73939449992031,94.05127630010247,right,1,2.4672606999520212,91.78987769992091,None,94.28852810012177,None,,,,,,,rehvhf,001,0,fr,2022-05-11_11h39.12.698,3-AFC_adaptive_staircase_mess,2022.1.1,35.51196894551821,
,,,,,0,0,0,0,5,0,5,0,,,,,,,,,,,,,,,,right,1000,5,7.833755350540742e-05,-1,2,-1,-5.0,97.79685892995913,98.01523130014539,95.76622200012207,96.10256449994631,96.77451090002432,97.10236910008825,97.76817309996113,98.07593749999069,right,1,2.376618799753487,95.80231519998051,None,None,None,,,,,,,rehvhf,001,0,fr,2022-05-11_11h39.12.698,3-AFC_adaptive_staircase_mess,2022.1.1,35.51196894551821,
,,,,,0,0,0,0,6,0,6,0,,,,,,,,,,,,,,,,left,1000,5,7.833755350540742e-05,-1,2,-1,-5.0,99.72705392998178,99.94960779999383,99.6666964001488,99.977285400033,100.66699269996025,100.97157360007986,101.67686869995669,102.00763630005531,left,1,5.520538099808618,99.72943140007555,None,102.23735060007311,None,,,,,,,rehvhf,001,0,fr,2022-05-11_11h39.12.698,3-AFC_adaptive_staircase_mess,2022.1.1,35.51196894551821,
,,,,,0,0,0,0,7,0,7,0,,,,,,,,,,,,,,,,right,1000,0.0,4.405244365040069e-05,-1,2,-1,-5.0,108.81100453010295,None,106.74092200002633,107.05855660000816,107.74746900005266,108.06180980009958,108.75232119997963,109.07977219996974,right,1,2.6129323998466134,106.7972679999657,None,109.31485710013658,None,,,,,,,rehvhf,001,0,fr,2022-05-11_11h39.12.698,3-AFC_adaptive_staircase_mess,2022.1.1,35.51196894551821,
,,,,,0,0,0,0,8,0,8,0,,,,,,,,,,,,,,,,up,1000,0.0,4.405244365040069e-05,-1,2,-1,-5.0,111.94302773003001,112.16930870013312,110.88555070012808,111.21556010004133,111.88506880006753,112.19773070001975,None,None,up,1,1.6614196998998523,110.94871439994313,None,None,None,,,,,,,rehvhf,001,0,fr,2022-05-11_11h39.12.698,3-AFC_adaptive_staircase_mess,2022.1.1,35.51196894551821,
,,,,,0,0,0,0,9,0,9,0,,,,,,,,,,,,,,,,left,1000,-5.0,2.4772509540239506e-05,-1,2,-1,-5.0,114.14750393007417,114.36512070009485,114.08520800014958,114.3962813001126,115.09754689992405,115.42154629994184,116.09017070010304,116.42223439994268,right,0,2.5697847998235375,114.15181900002062,None,116.65750650013797,None,,,,,,,rehvhf,001,0,fr,2022-05-11_11h39.12.698,3-AFC_adaptive_staircase_mess,2022.1.1,35.51196894551821,
,,,,,0,0,0,0,10,0,10,0,,,,,,,,,,,,,,,,up,1000,-2.5,3.303467240037979e-05,1,3,1,2.5,119.26584202998784,None,118.22417180007324,118.5597403999418,119.20567000005394,119.52794599998742,None,None,left,0,1.6152819998096675,118.25848140008748,None,None,None,,,,,,,rehvhf,001,0,fr,2022-05-11_11h39.12.698,3-AFC_adaptive_staircase_mess,2022.1.1,35.51196894551821,
,,,,,0,0,0,0,11,0,11,0,,,,,,,,,,,,,,,,right,1000,0.0,4.405244365040069e-05,1,3,1,2.5,123.40976462995168,None,121.35810249997303,121.69469100004062,122.35926349996589,122.6649047001265,123.3526616001036,123.672622699989,right,1,3.312116599874571,121.42493360000663,None,123.91119930008426,None,,,,,,,rehvhf,001,0,fr,2022-05-11_11h39.12.698,3-AFC_adaptive_staircase_mess,2022.1.1,35.51196894551821,
,,,,,0,0,0,0,12,0,12,0,,,,,,,,,,,,,,,,left,1000,0.0,4.405244365040069e-05,1,3,1,2.5,126.29204973012675,126.51132020005025,126.23518970003352,126.54207800002769,127.24579590000212,127.56783429998904,128.23702350002714,128.56173610012047,up,0,4.601309000048786,126.29619590006769,None,128.79812639998272,None,,,,,,,rehvhf,001,0,fr,2022-05-11_11h39.12.698,3-AFC_adaptive_staircase_mess,2022.1.1,35.51196894551821,
,,,,,0,0,0,0,13,0,13,0,,,,,,,,,,,,,,,,up,1000,2.5,5.874487774697646e-05,1,3,1,2.5,133.43429523000958,133.65295010013506,132.3792522000149,132.6780547001399,133.37108170008287,133.68401070008986,134.37296049995348,134.70690430002287,up,1,2.8108915998600423,132.43884219997562,None,134.9413077000063,None,,,,,,,rehvhf,001,0,fr,2022-05-11_11h39.12.698,3-AFC_adaptive_staircase_mess,2022.1.1,35.51196894551821,
,,,,,0,0,0,0,14,0,14,0,,,,,,,,,,,,,,,,up,1000,2.5,5.874487774697646e-05,1,3,1,2.5,137.79933232993352,138.0179423999507,136.7458943000529,137.0748058001045,137.77064649993554,138.0796511999797,138.77326310006902,139.07989940000698,right,0,3.0108408997766674,136.8152560000308,None,139.31950280000456,None,,,,,,,rehvhf,001,0,fr,2022-05-11_11h39.12.698,3-AFC_adaptive_staircase_mess,2022.1.1,35.51196894551821,
,,,,,0,0,0,0,15,0,15,0,,,,,,,,,,,,,,,,right,1000,5.0,7.833755350540742e-05,1,3,1,2.5,143.38162623012903,None,141.31375949992798,141.61884839995764,142.31613539997488,142.65092510008253,143.31838650000282,143.65211550006643,right,1,2.684593099867925,141.38128360011615,None,143.88268369995058,None,,,,,,,rehvhf,001,0,fr,2022-05-11_11h39.12.698,3-AFC_adaptive_staircase_mess,2022.1.1,35.51196894551821,
,,,,,0,0,0,0,16,0,16,0,,,,,,,,,,,,,,,,up,1000,5.0,7.833755350540742e-05,1,3,1,2.5,146.61765213001053,None,145.55307270004414,145.88681489997543,146.55430880002677,146.8872696000617,147.5549693000503,None,up,1,2.0778691999148577,145.6203548000194,None,None,None,,,,,,,rehvhf,001,0,fr,2022-05-11_11h39.12.698,3-AFC_adaptive_staircase_mess,2022.1.1,35.51196894551821,
,,,,,0,0,0,0,17,0,17,0,,,,,,,,,,,,,,,,up,1000,0.0,4.405244365040069e-05,-1,4,-1,-5.0,150.25049513012635,150.46654239995405,149.19863020000048,149.52657669992186,150.1907049000729,150.49924549995922,151.193517500069,151.52594340010546,left,0,4.214405599981546,149.25957789993845,None,151.7489468001295,None,,,,,,,rehvhf,001,0,fr,2022-05-11_11h39.12.698,3-AFC_adaptive_staircase_mess,2022.1.1,35.51196894551821,
,,,,,0,0,0,0,18,0,18,0,,,,,,,,,,,,,,,,up,1000,2.5,5.874487774697646e-05,1,5,1,2.5,156.02868302997666,156.2434483000543,154.9711689001415,155.2954361999873,155.96630199998617,156.27047759993002,None,None,up,1,1.7703156999778003,155.03183849994093,None,None,None,,,,,,,rehvhf,001,0,fr,2022-05-11_11h39.12.698,3-AFC_adaptive_staircase_mess,2022.1.1,35.51196894551821,
,,,,,0,0,0,0,19,0,19,0,,,,,,,,,,,,,,,,right,1000,2.5,5.874487774697646e-05,1,5,1,2.5,160.3649902301142,160.5806150001008,158.2987712000031,158.6340107000433,159.30175450001843,159.63583900011145,160.30299280001782,160.61152100004256,left,0,2.8998915997799486,158.3663961000275,None,160.8555389000103,None,,,,,,,rehvhf,001,0,fr,2022-05-11_11h39.12.698,3-AFC_adaptive_staircase_mess,2022.1.1,35.51196894551821,
,,,,,0,0,0,0,20,0,20,0,,,,,,,,,,,,,,,,left,1000,5.0,7.833755350540742e-05,1,5,1,2.5,162.8022904299898,None,162.7392124000471,163.0706323001068,None,None,None,None,left,1,0.7944081998430192,162.80738579994068,None,None,None,,,,,,,rehvhf,001,0,fr,2022-05-11_11h39.12.698,3-AFC_adaptive_staircase_mess,2022.1.1,35.51196894551821,
,,,,,0,0,0,0,21,0,21,0,,,,,,,,,,,,,,,,up,1000,5.0,7.833755350540742e-05,1,5,1,2.5,166.17011463006492,166.38461690000258,165.10529990005307,165.4405984999612,166.10817830008455,166.41637740004808,None,None,up,1,1.6590303999837488,165.17437630007043,None,None,None,,,,,,,rehvhf,001,0,fr,2022-05-11_11h39.12.698,3-AFC_adaptive_staircase_mess,2022.1.1,35.51196894551821,
,,,,,0,0,0,0,22,0,22,0,,,,,,,,,,,,,,,,right,1000,0.0,4.405244365040069e-05,-1,6,-1,-5.0,170.3756650301395,None,168.30793370003812,168.61316619999707,169.3107928999234,169.61572690005414,170.31287680007517,170.6415991000831,left,0,5.850309299770743,168.37572419992648,None,170.87771810009144,None,,,,,,,rehvhf,001,0,fr,2022-05-11_11h39.12.698,3-AFC_adaptive_staircase_mess,2022.1.1,35.51196894551821,
,,,,,1,0,1,0,0,0,0,0,,,,,,,,,,,,,[],[],10,up,1500,30,0.001527460556607757,0,0,-1,10,179.220145329996,None,178.1839169000741,178.48859370010905,179.16160150012,179.48787620011717,None,None,up,1,1.5437503000721335,178.21785959997214,None,None,None,n,2.395818900084123,175.31743850000203,None,175.31743850000203,None,rehvhf,001,0,fr,2022-05-11_11h39.12.698,3-AFC_adaptive_staircase_mess,2022.1.1,35.51196894551821,
,,,,,1,0,1,0,1,0,1,0,,,,,,,,,,,,,,,,up,1500,30,0.001527460556607757,0,0,-1,10,182.32009472993667,182.53516310011037,181.28279890003614,181.60849940008484,182.26173779997043,182.56533579993993,None,None,up,1,1.8750247997231781,181.3116576001048,None,None,None,,,,,,,rehvhf,001,0,fr,2022-05-11_11h39.12.698,3-AFC_adaptive_staircase_mess,2022.1.1,35.51196894551821,
,,,,,1,0,1,0,2,0,2,0,,,,,,,,,,,,,,,,right,1500,10,0.0001527460556607757,-1,0,-1,-10,186.7568477300694,None,184.68615190009587,184.9906313000247,185.70145509997383,186.02027010009624,186.6960050999187,187.00198399997316,right,1,2.9403738998807967,184.7414152000565,None,187.23206109995954,None,,,,,,,rehvhf,001,0,fr,2022-05-11_11h39.12.698,3-AFC_adaptive_staircase_mess,2022.1.1,35.51196894551821,
,,,,,1,0,1,0,3,0,3,0,,,,,,,,,,,,,,,,left,1500,10,0.0001527460556607757,-1,0,-1,-10,189.2210628301138,None,189.1923770001158,189.5026710999664,190.1722127001267,190.5012749999296,191.19807839998975,191.53508500009775,left,1,4.520162200089544,189.22563509992324,None,191.73558819992468,None,,,,,,,rehvhf,001,0,fr,2022-05-11_11h39.12.698,3-AFC_adaptive_staircase_mess,2022.1.1,35.51196894551821,
,,,,,1,0,1,0,4,0,4,0,,,,,,,,,,,,,,,,right,1500,0,4.830254394949071e-05,-1,0,-1,-10,197.30403703001792,197.51717140013352,195.23780560004525,195.5744527000934,196.2383276000619,196.5741665000096,197.24124100012705,197.54942340007983,right,1,5.255645199911669,195.30591090000235,None,197.8091317000799,None,,,,,,,rehvhf,001,0,fr,2022-05-11_11h39.12.698,3-AFC_adaptive_staircase_mess,2022.1.1,35.51196894551821,
,,,,,1,0,1,0,5,0,5,0,,,,,,,,,,,,,,,,left,1500,0,4.830254394949071e-05,-1,0,-1,-10,202.10587803011293,202.3255962000694,202.07719220011495,202.3873185000848,203.0826006999705,203.38201920012943,204.05636589997448,204.38410499994643,right,0,3.8762949998490512,202.11039740010165,None,204.61716639995575,None,,,,,,,rehvhf,001,0,fr,2022-05-11_11h39.12.698,3-AFC_adaptive_staircase_mess,2022.1.1,35.51196894551821,
,,,,,1,0,1,0,6,0,6,0,,,,,,,,,,,,,,,,up,1500,5,8.589541935787943e-05,1,1,1,5,208.5553473300999,None,207.512206699932,207.8202998000197,208.49183990014717,208.82202340010554,209.4849811999593,209.81349979992956,right,0,2.8051307999994606,207.54813700006343,None,210.05481439991854,None,,,,,,,rehvhf,001,0,fr,2022-05-11_11h39.12.698,3-AFC_adaptive_staircase_mess,2022.1.1,35.51196894551821,
,,,,,1,0,1,0,7,0,7,0,,,,,,,,,,,,,,,,right,1500,10,0.0001527460556607757,1,1,1,5,213.8882931300206,None,211.85823979997076,212.18985050008632,212.82819520006888,213.158030499937,213.8256894000806,214.15770410001278,right,1,2.5713253999128938,211.89371510013007,None,214.39563719998114,None,,,,,,,rehvhf,001,0,fr,2022-05-11_11h39.12.698,3-AFC_adaptive_staircase_mess,2022.1.1,35.51196894551821,
,,,,,1,0,1,0,8,0,8,0,,,,,,,,,,,,,,,,up,1500,10,0.0001527460556607757,1,1,1,5,217.0228406299604,217.23648430011235,215.9606582999695,216.29310260014609,216.96054730005562,217.27089040004648,None,None,up,1,1.4468356997240335,216.02656619995832,None,None,None,,,,,,,rehvhf,001,0,fr,2022-05-11_11h39.12.698,3-AFC_adaptive_staircase_mess,2022.1.1,35.51196894551821,
,,,,,1,0,1,0,9,0,9,0,,,,,,,,,,,,,,,,up,1500,0,4.830254394949071e-05,-1,2,-1,-5.0,220.01720683013554,220.23798829992302,218.98912169993855,219.3225161000155,219.98852100013755,220.29888550005853,220.9828717999626,221.2916014001239,right,0,3.1711643000598997,219.02266669995151,None,221.53687210008502,None,,,,,,,rehvhf,001,0,fr,2022-05-11_11h39.12.698,3-AFC_adaptive_staircase_mess,2022.1.1,35.51196894551821,
,,,,,1,0,1,0,10,0,10,0,,,,,,,,,,,,,,,,left,1500,2.5,6.441247758465671e-05,1,3,1,2.5,223.73139263007323,223.9445221000351,223.66666310001165,223.97564389999025,224.6682408999186,225.0032882001251,225.6676688999869,226.00685560004786,right,0,2.570486599812284,223.73545509995893,None,226.23965730005875,None,,,,,,,rehvhf,001,0,fr,2022-05-11_11h39.12.698,3-AFC_adaptive_staircase_mess,2022.1.1,35.51196894551821,
,,,,,1,0,1,0,11,0,11,0,,,,,,,,,,,,,,,,up,1500,5.0,8.589541935787943e-05,1,3,1,2.5,228.83638553011696,229.04786920011975,227.775622199988,228.10570820001885,228.77323900000192,229.07998919999227,229.77349289995618,230.10777810006402,up,1,4.7873112000525,227.83817690005526,None,230.33337650005706,None,,,,,,,rehvhf,001,0,fr,2022-05-11_11h39.12.698,3-AFC_adaptive_staircase_mess,2022.1.1,35.51196894551821,
,,,,,1,0,1,0,12,0,12,0,,,,,,,,,,,,,,,,right,1500,5.0,8.589541935787943e-05,1,3,1,2.5,236.17963343013542,None,234.10909519996494,234.41520439996384,235.13663189997897,235.4454380001407,236.12135670008138,236.44803229998797,up,0,2.5761521998792887,234.1769101000391,None,236.6814846000634,None,,,,,,,rehvhf,001,0,fr,2022-05-11_11h39.12.698,3-AFC_adaptive_staircase_mess,2022.1.1,35.51196894551821,
,,,,,1,0,1,0,13,0,13,0,,,,,,,,,,,,,,,,left,1500,7.5,0.00011454338263838867,1,3,1,2.5,238.31179762997198,None,238.25542100006714,238.58163370005786,239.26788379997015,None,None,None,left,1,1.0019642999395728,238.3119123999495,None,None,None,,,,,,,rehvhf,001,0,fr,2022-05-11_11h39.12.698,3-AFC_adaptive_staircase_mess,2022.1.1,35.51196894551821,
,,,,,1,0,1,0,14,0,14,0,,,,,,,,,,,,,,,,left,1500,7.5,0.00011454338263838867,1,3,1,2.5,240.84672603004145,241.0707239001058,240.78318120003678,241.10037170001306,241.78470730013214,242.12094160006382,242.7890854999423,243.08891559997573,left,1,2.9416673998348415,240.8517418000847,None,243.35927100013942,None,,,,,,,rehvhf,001,0,fr,2022-05-11_11h39.12.698,3-AFC_adaptive_staircase_mess,2022.1.1,35.51196894551821,
,,,,,1,0,1,0,15,0,15,0,,,,,,,,,,,,,,,,up,1500,2.5,6.441247758465671e-05,-1,4,-1,-5.0,246.31728892999234,246.53233550000004,245.25766370003112,245.59176680003293,246.2584508000873,246.5661866001319,247.2613661000505,247.59782070014626,right,0,2.547367899911478,245.32622499996796,None,247.82192220003344,None,,,,,,,rehvhf,001,0,fr,2022-05-11_11h39.12.698,3-AFC_adaptive_staircase_mess,2022.1.1,35.51196894551821,
,,,,,1,0,1,0,16,0,16,0,,,,,,,,,,,,,,,,up,1500,5.0,8.589541935787943e-05,1,5,1,2.5,250.42681472997646,None,249.3609949001111,249.6977192000486,250.36347900005057,250.694333499996,251.38938109995797,251.69314590003341,up,1,2.9287134998012334,249.42448909999803,None,251.92866360000335,None,,,,,,,rehvhf,001,0,fr,2022-05-11_11h39.12.698,3-AFC_adaptive_staircase_mess,2022.1.1,35.51196894551821,
,,,,,1,0,1,0,17,0,17,0,,,,,,,,,,,,,,,,up,1500,5.0,8.589541935787943e-05,1,5,1,2.5,254.89565192994195,255.1152044001501,253.8395253000781,254.16907000006177,254.8318658999633,255.14231480006129,255.82814260013402,256.15989250014536,left,0,3.8598467998672277,253.86993800010532,None,256.39713830011897,None,,,,,,,rehvhf,001,0,fr,2022-05-11_11h39.12.698,3-AFC_adaptive_staircase_mess,2022.1.1,35.51196894551821,
,,,,,1,0,1,0,18,0,18,0,,,,,,,,,,,,,,,,left,1500,7.5,0.00011454338263838867,1,5,1,2.5,259.26515503011177,259.48344290000387,259.2023418000899,259.51458070008084,260.22467650007457,260.53633800009266,261.2009368999861,261.51512519991957,left,1,2.330092999851331,259.2714976000134,None,None,None,,,,,,,rehvhf,001,0,fr,2022-05-11_11h39.12.698,3-AFC_adaptive_staircase_mess,2022.1.1,35.51196894551821,
,,,,,1,0,1,0,19,0,19,0,,,,,,,,,,,,,,,,up,1500,7.5,0.00011454338263838867,1,5,1,2.5,264.1237815301167,264.3476428000722,263.0846049000975,263.4032092001289,264.0950957001187,264.4101432999596,None,None,up,1,1.6731931997928768,263.14384549995884,None,None,None,,,,,,,rehvhf,001,0,fr,2022-05-11_11h39.12.698,3-AFC_adaptive_staircase_mess,2022.1.1,35.51196894551821,
,,,,,1,0,1,0,20,0,20,0,,,,,,,,,,,,,,,,left,1500,2.5,6.441247758465671e-05,-1,6,-1,-5.0,266.3661826301133,None,266.30599660007283,266.6205178000964,267.3036788001191,267.60944889998063,268.3048099000007,268.60693220002577,up,0,3.1995971999131143,266.36957100010477,None,268.8429193000775,None,,,,,,,rehvhf,001,0,fr,2022-05-11_11h39.12.698,3-AFC_adaptive_staircase_mess,2022.1.1,35.51196894551821,
,,,,,2,0,2,0,0,0,0,0,,,,,,,,,,,,,[],[],10,right,2000,30,0.0023657562948074026,0,0,-1,10,274.14520463014486,274.36224030004814,272.08584560011514,272.3853021999821,273.0886496999301,273.39357260009274,274.0852173999883,274.39090720005333,right,1,2.3208470998797566,272.144707800122,None,None,None,up,0.9974397998303175,270.63701119995676,None,270.63701119995676,None,rehvhf,001,0,fr,2022-05-11_11h39.12.698,3-AFC_adaptive_staircase_mess,2022.1.1,35.51196894551821,
,,,,,2,0,2,0,1,0,1,0,,,,,,,,,,,,,,,,right,2000,30,0.0023657562948074026,0,0,-1,10,278.0026305300882,278.22666330006905,275.9393810001202,276.24230240006,276.9484490000177,277.2748692999594,277.9438245999627,278.25459329993464,right,1,2.339598999824375,275.99820169992745,None,None,None,,,,,,,rehvhf,001,0,fr,2022-05-11_11h39.12.698,3-AFC_adaptive_staircase_mess,2022.1.1,35.51196894551821,
,,,,,2,0,2,0,2,0,2,0,,,,,,,,,,,,,,,,up,2000,10,0.00023657562948074026,-1,0,-1,-10,280.8802056300221,281.09737850003876,279.8358346000314,280.14829479996115,280.82060690014623,281.1297270001378,None,None,up,1,1.5092478999868035,279.8680962000508,None,None,None,,,,,,,rehvhf,001,0,fr,2022-05-11_11h39.12.698,3-AFC_adaptive_staircase_mess,2022.1.1,35.51196894551821,
,,,,,2,0,2,0,3,0,3,0,,,,,,,,,,,,,,,,up,2000,10,0.00023657562948074026,-1,0,-1,-10,283.9203055300051,284.1435787000228,282.8511898999568,283.17939530010335,283.86090600001626,284.17084229993634,None,None,up,1,1.4788133997935802,282.90723900008015,None,None,None,,,,,,,rehvhf,001,0,fr,2022-05-11_11h39.12.698,3-AFC_adaptive_staircase_mess,2022.1.1,35.51196894551821,
,,,,,2,0,2,0,4,0,4,0,,,,,,,,,,,,,,,,left,2000,0,7.481178280472168e-05,-1,0,-1,-10,285.9211756299948,286.13801919994876,285.86168660013936,286.16757560009137,286.8378087999299,287.1572635001503,287.8691754001193,288.1962135999929,right,0,2.3988193997647613,285.9224346000701,None,None,None,,,,,,,rehvhf,001,0,fr,2022-05-11_11h39.12.698,3-AFC_adaptive_staircase_mess,2022.1.1,35.51196894551821,
,,,,,2,0,2,0,5,0,5,0,,,,,,,,,,,,,,,,right,2000,5,0.0001330362529899405,1,1,1,5,291.8843814299209,None,289.80846090009436,290.1091843000613,290.81560000008903,291.1240384001285,291.82319770008326,292.13782730000094,right,1,2.5838699999731034,289.8660208999645,None,292.37600940000266,None,,,,,,,rehvhf,001,0,fr,2022-05-11_11h39.12.698,3-AFC_adaptive_staircase_mess,2022.1.1,35.51196894551821,
,,,,,2,0,2,0,6,0,6,0,,,,,,,,,,,,,,,,right,2000,5,0.0001330362529899405,1,1,1,5,295.99492013005073,296.2135924999602,293.9388822000474,294.2397956000641,294.92988139996305,295.260286499979,295.9362538000569,296.2455100999214,right,1,2.4641610998660326,294.0015978999436,None,296.49157240008935,None,,,,,,,rehvhf,001,0,fr,2022-05-11_11h39.12.698,3-AFC_adaptive_staircase_mess,2022.1.1,35.51196894551821,
,,,,,2,0,2,0,7,0,7,0,,,,,,,,,,,,,,,,left,2000,-5,4.206975708225974e-05,-1,2,-1,-5.0,298.0150354301324,298.2303621999454,297.95528140012175,298.25786280003376,298.9516425000038,299.2628595000133,299.93955729994923,300.266180699924,left,1,2.8189887998159975,298.01572010014206,None,300.5003800999839,None,,,,,,,rehvhf,001,0,fr,2022-05-11_11h39.12.698,3-AFC_adaptive_staircase_mess,2022.1.1,35.51196894551821,
,,,,,2,0,2,0,8,0,8,0,,,,,,,,,,,,,,,,left,2000,-5,4.206975708225974e-05,-1,2,-1,-5.0,302.38414142995606,302.60321770003065,302.3554555999581,302.65782760013826,303.32963740010746,303.6575734000653,304.3276041999925,304.63034930010326,right,0,3.5699586998671293,302.3847227001097,None,304.893615799956,None,,,,,,,rehvhf,001,0,fr,2022-05-11_11h39.12.698,3-AFC_adaptive_staircase_mess,2022.1.1,35.51196894551821,
,,,,,2,0,2,0,9,0,9,0,,,,,,,,,,,,,,,,right,2000,-2.5,5.610092271509818e-05,1,3,1,2.5,309.49192353005054,309.7094473000616,307.460001999978,307.7616833001375,308.46230040001683,308.7898739001248,309.43374500004575,309.7382207000628,up,0,3.0396180998068303,307.48908710014075,None,310.00208000000566,None,,,,,,,rehvhf,001,0,fr,2022-05-11_11h39.12.698,3-AFC_adaptive_staircase_mess,2022.1.1,35.51196894551821,
,,,,,2,0,2,0,10,0,10,0,,,,,,,,,,,,,,,,up,2000,0.0,7.481178280472168e-05,1,3,1,2.5,313.0799761299742,None,312.0205872999504,312.34875320014544,313.0209506000392,313.3289243001491,314.0337511000689,314.3332273999695,up,1,3.2042291997931898,312.07862569997087,None,314.5706678000279,None,,,,,,,rehvhf,001,0,fr,2022-05-11_11h39.12.698,3-AFC_adaptive_staircase_mess,2022.1.1,35.51196894551821,
,,,,,2,0,2,0,11,0,11,0,,,,,,,,,,,,,,,,up,2000,0.0,7.481178280472168e-05,1,3,1,2.5,317.81248903011436,None,316.75623980001546,317.0826678001322,317.75396490003914,318.06354390014894,318.7650172000285,319.0653129001148,right,0,2.6702339998446405,316.8026944999583,None,319.30202349997126,None,,,,,,,rehvhf,001,0,fr,2022-05-11_11h39.12.698,3-AFC_adaptive_staircase_mess,2022.1.1,35.51196894551821,
,,,,,2,0,2,0,12,0,12,0,,,,,,,,,,,,,,,,left,2000,2.5,9.976311574844399e-05,1,3,1,2.5,320.99959653003606,None,320.94049490010366,321.2608944000676,None,None,None,None,left,1,0.895102699752897,321.01051399996504,None,None,None,,,,,,,rehvhf,001,0,fr,2022-05-11_11h39.12.698,3-AFC_adaptive_staircase_mess,2022.1.1,35.51196894551821,
,,,,,2,0,2,0,13,0,13,0,,,,,,,,,,,,,,,,left,2000,2.5,9.976311574844399e-05,1,3,1,2.5,323.4399240300292,None,323.38309439993463,323.70651699998416,324.37062670011073,324.69667250011116,325.367944000056,325.69187800004147,left,1,2.9938500998541713,323.43956200010143,None,325.927623399999,None,,,,,,,rehvhf,001,0,fr,2022-05-11_11h39.12.698,3-AFC_adaptive_staircase_mess,2022.1.1,35.51196894551821,
,,,,,2,0,2,0,14,0,14,0,,,,,,,,,,,,,,,,left,2000,-2.5,5.610092271509818e-05,-1,4,-1,-5.0,327.96951053005176,None,327.91409220010974,328.23237600014545,328.92749779997393,329.23933110013604,329.9167808999773,330.2363843000494,right,0,2.593414899893105,327.9839457999915,None,330.4705837999936,None,,,,,,,rehvhf,001,0,fr,2022-05-11_11h39.12.698,3-AFC_adaptive_staircase_mess,2022.1.1,35.51196894551821,
,,,,,2,0,2,0,15,0,15,0,,,,,,,,,,,,,,,,right,2000,0.0,7.481178280472168e-05,1,5,1,2.5,334.1083616299322,334.32432439993136,332.0502444000449,332.37240410014056,333.0485487000551,333.37424620008096,334.05332110007294,334.34946830011904,right,1,2.8835424999706447,332.11003160011023,None,334.6129695000127,None,,,,,,,rehvhf,001,0,fr,2022-05-11_11h39.12.698,3-AFC_adaptive_staircase_mess,2022.1.1,35.51196894551821,
,,,,,2,0,2,0,16,0,16,0,,,,,,,,,,,,,,,,right,2000,0.0,7.481178280472168e-05,1,5,1,2.5,338.51850832991767,338.73511250014417,336.45117900008336,336.791435000021,337.46441509993747,337.76835080003366,338.4615843000356,338.76208649994805,up,0,3.046641499735415,336.5231375999283,None,339.027458100114,None,,,,,,,rehvhf,001,0,fr,2022-05-11_11h39.12.698,3-AFC_adaptive_staircase_mess,2022.1.1,35.51196894551821,
,,,,,2,0,2,0,17,0,17,0,,,,,,,,,,,,,,,,right,2000,2.5,9.976311574844399e-05,1,5,1,2.5,343.09149823004844,343.3068689999636,341.02549499995075,341.3516810000874,342.04317950014956,342.3582067999523,343.06281240005046,343.3627655999735,right,1,2.8222071998752654,341.0834931000136,None,343.6004792000167,None,,,,,,,rehvhf,001,0,fr,2022-05-11_11h39.12.698,3-AFC_adaptive_staircase_mess,2022.1.1,35.51196894551821,
,,,,,2,0,2,0,18,0,18,0,,,,,,,,,,,,,,,,right,2000,2.5,9.976311574844399e-05,1,5,1,2.5,347.41985242993104,347.6339986999519,345.40006630006246,345.7223791999277,346.3672090000473,346.69577390002087,347.39116659993306,347.71588240005076,up,0,3.1009915999602526,345.4290434999857,None,347.9228489000816,None,,,,,,,rehvhf,001,0,fr,2022-05-11_11h39.12.698,3-AFC_adaptive_staircase_mess,2022.1.1,35.51196894551821,
,,,,,2,0,2,0,19,0,19,0,,,,,,,,,,,,,,,,left,2000,5.0,0.0001330362529899405,1,5,1,2.5,350.0780661300989,350.2953423000872,350.02065040008165,350.3267767999787,351.0254714000039,351.3526721999515,352.02651849994436,352.3491915999912,up,0,2.7340165998321027,350.08319459995255,None,352.5835224001203,None,,,,,,,rehvhf,001,0,fr,2022-05-11_11h39.12.698,3-AFC_adaptive_staircase_mess,2022.1.1,35.51196894551821,
,,,,,2,0,2,0,20,0,20,0,,,,,,,,,,,,,,,,up,2000,7.5,0.00017740669461678777,1,5,1,2.5,355.3356102299178,355.5533139000181,354.26990350009874,354.5775608001277,355.27850220003165,355.5800207001157,None,None,up,1,1.8531921999529004,354.34095410001464,None,None,None,,,,,,,rehvhf,001,0,fr,2022-05-11_11h39.12.698,3-AFC_adaptive_staircase_mess,2022.1.1,35.51196894551821,
,,,,,2,0,2,0,21,0,21,0,,,,,,,,,,,,,,,,right,2000,7.5,0.00017740669461678777,1,5,1,2.5,359.7010912300786,359.91390449996106,357.6557774001267,357.97860820009373,358.6500453001354,358.9762327999342,359.64445580006577,359.96838809992187,right,1,2.5755988999735564,357.7144838999957,None,360.2016112001147,None,,,,,,,rehvhf,001,0,fr,2022-05-11_11h39.12.698,3-AFC_adaptive_staircase_mess,2022.1.1,35.51196894551821,
,,,,,2,0,2,0,22,0,22,0,,,,,,,,,,,,,,,,up,2000,2.5,9.976311574844399e-05,-1,6,-1,-5.0,362.7975984301185,None,361.749287399929,362.0707632000558,362.76891260012053,363.0824935999699,363.75566309993155,364.0782441999763,up,1,2.4654100998304784,361.8084794001188,None,364.3099678300088,None,,,,,,,rehvhf,001,0,fr,2022-05-11_11h39.12.698,3-AFC_adaptive_staircase_mess,2022.1.1,35.51196894551821,
,,,,,3,0,3,0,0,0,0,0,,,,,,,,,,,,,[],[],10,left,3000,30,0.001733684252262658,0,0,1,10,367.8840596300317,368.09512810013257,367.8553738000337,368.18359749997035,None,None,None,None,up,0,0.598115999950096,367.88326849997975,None,None,None,ù,2.0479815998114645,365.3452514000237,None,365.3452514000237,None,rehvhf,001,0,fr,2022-05-11_11h39.12.698,3-AFC_adaptive_staircase_mess,2022.1.1,35.51196894551821,
,,,,,3,0,3,0,1,0,1,0,,,,,,,,,,,,,,,,up,3000,40,0.005482390980715924,1,0,1,10,371.01471393012906,371.23531330004334,369.99119540001266,370.3163600000553,370.9566129001323,371.26236340007745,None,None,up,1,1.562656399793923,370.0226900000125,None,None,None,,,,,,,rehvhf,001,0,fr,2022-05-11_11h39.12.698,3-AFC_adaptive_staircase_mess,2022.1.1,35.51196894551821,
,,,,,3,0,3,0,2,0,2,0,,,,,,,,,,,,,,,,left,3000,40,0.005482390980715924,1,0,1,10,373.12707593005615,373.34140449995175,373.05614609993063,373.36781330010854,None,None,None,None,left,1,0.6350461998954415,373.12625600001775,None,None,None,,,,,,,rehvhf,001,0,fr,2022-05-11_11h39.12.698,3-AFC_adaptive_staircase_mess,2022.1.1,35.51196894551821,
,,,,,3,0,3,0,3,0,3,0,,,,,,,,,,,,,,,,left,3000,20,0.0005482390980715922,-1,1,-1,-10,375.32306263006757,None,375.2744394999463,375.5876563000493,None,None,None,None,left,1,0.4423672999255359,375.3354782999959,None,None,None,,,,,,,rehvhf,001,0,fr,2022-05-11_11h39.12.698,3-AFC_adaptive_staircase_mess,2022.1.1,35.51196894551821,
,,,,,3,0,3,0,4,0,4,0,,,,,,,,,,,,,,,,left,3000,20,0.0005482390980715922,-1,1,-1,-10,377.3109021300217,None,377.2822163000237,377.61452300008386,None,None,None,None,left,1,0.5076338998042047,377.31747719994746,None,None,None,,,,,,,rehvhf,001,0,fr,2022-05-11_11h39.12.698,3-AFC_adaptive_staircase_mess,2022.1.1,35.51196894551821,
,,,,,3,0,3,0,5,0,5,0,,,,,,,,,,,,,,,,right,3000,10,0.00017336842522626576,-1,1,-1,-10,381.34487582992296,None,379.3071651000064,379.63226440013386,380.29178979992867,380.6159246999305,381.2878632999491,381.6019888999872,right,1,2.3112343000248075,379.33903999999166,None,None,None,,,,,,,rehvhf,001,0,fr,2022-05-11_11h39.12.698,3-AFC_adaptive_staircase_mess,2022.1.1,35.51196894551821,
,,,,,3,0,3,0,6,0,6,0,,,,,,,,,,,,,,,,right,3000,10,0.00017336842522626576,-1,1,-1,-10,385.1678671300644,385.38486080011353,383.11415180005133,383.4361304999329,384.1085779001005,384.4356917999685,385.1071469001472,385.41142309992574,right,1,2.5596703998744488,383.1700963000767,None,385.67526159994304,None,,,,,,,rehvhf,001,0,fr,2022-05-11_11h39.12.698,3-AFC_adaptive_staircase_mess,2022.1.1,35.51196894551821,
,,,,,3,0,3,0,7,0,7,0,,,,,,,,,,,,,,,,right,3000,0,5.482390980715923e-05,-1,1,-1,-10,389.26987473007756,None,387.2161761999596,387.5416669999249,388.20897049992345,388.52920180000365,389.22138480003923,389.52874230011366,right,1,3.480983999790624,387.2729315001052,None,389.75825410010293,None,,,,,,,rehvhf,001,0,fr,2022-05-11_11h39.12.698,3-AFC_adaptive_staircase_mess,2022.1.1,35.51196894551821,
,,,,,3,0,3,0,8,0,8,0,,,,,,,,,,,,,,,,up,3000,0,5.482390980715923e-05,-1,1,-1,-10,393.29572532994206,None,392.2471310000401,392.5688577000983,393.2374567000661,393.5330533001106,394.23747080005705,394.55885599995963,right,0,3.1187438999768347,392.3064792000223,None,394.7884537000209,None,,,,,,,rehvhf,001,0,fr,2022-05-11_11h39.12.698,3-AFC_adaptive_staircase_mess,2022.1.1,35.51196894551821,
,,,,,3,0,3,0,9,0,9,0,,,,,,,,,,,,,,,,right,3000,5,9.749222998790222e-05,1,2,1,2.5,398.9629191299202,None,396.9175162001047,397.2397297001444,397.91274749999866,398.241397799924,398.90239070006646,399.21498930011876,right,1,2.382465799804777,396.9469355000183,None,None,None,,,,,,,rehvhf,001,0,fr,2022-05-11_11h39.12.698,3-AFC_adaptive_staircase_mess,2022.1.1,35.51196894551821,
,,,,,3,0,3,0,10,0,10,0,,,,,,,,,,,,,,,,right,3000,5,9.749222998790222e-05,1,2,1,2.5,402.8528835300123,403.0695903999731,400.8000134001486,401.1250311001204,401.79835460009053,402.121590499999,402.7911905001383,403.0972355999984,right,1,2.3395999998319894,400.86254220013507,None,None,None,,,,,,,rehvhf,001,0,fr,2022-05-11_11h39.12.698,3-AFC_adaptive_staircase_mess,2022.1.1,35.51196894551821,
,,,,,3,0,3,0,11,0,11,0,,,,,,,,,,,,,,,,left,3000,0.0,5.482390980715923e-05,-1,3,-1,-5.0,404.73757172997574,None,404.6806964999996,404.9866524999961,405.68299910007045,405.9824922999833,406.68402489996515,407.00764190009795,left,1,2.4950091999489814,404.73822290007956,None,407.2423090999946,None,,,,,,,rehvhf,001,0,fr,2022-05-11_11h39.12.698,3-AFC_adaptive_staircase_mess,2022.1.1,35.51196894551821,
,,,,,3,0,3,0,12,0,12,0,,,,,,,,,,,,,,,,right,3000,0.0,5.482390980715923e-05,-1,3,-1,-5.0,410.73970313013996,410.9607365000993,408.69616870000027,409.0196414999664,409.6889444999397,410.0100690999534,410.711017300142,411.0177531000227,right,1,2.9094310000073165,408.75525899999775,None,411.26216550008394,None,,,,,,,rehvhf,001,0,fr,2022-05-11_11h39.12.698,3-AFC_adaptive_staircase_mess,2022.1.1,35.51196894551821,
,,,,,3,0,3,0,13,0,13,0,,,,,,,,,,,,,,,,up,3000,-5.0,3.082975009307411e-05,-1,3,-1,-5.0,414.20718742993193,414.42845449992456,413.15521350014023,413.4790010000579,414.17850159993395,414.4891077000648,415.1617407000158,415.4831956999842,right,0,3.107650499790907,413.2137688000221,None,415.71792379999533,None,,,,,,,rehvhf,001,0,fr,2022-05-11_11h39.12.698,3-AFC_adaptive_staircase_mess,2022.1.1,35.51196894551821,
,,,,,3,0,3,0,14,0,14,0,,,,,,,,,,,,,,,,up,3000,-2.5,4.1112132497353565e-05,1,4,1,2.5,418.8485522299772,419.06908889999613,417.794747200096,418.1186645999551,418.79094720003195,419.09643719997257,419.8041082001291,None,up,1,2.145903999917209,417.85514160012826,None,None,None,,,,,,,rehvhf,001,0,fr,2022-05-11_11h39.12.698,3-AFC_adaptive_staircase_mess,2022.1.1,35.51196894551821,
,,,,,3,0,3,0,15,0,15,0,,,,,,,,,,,,,,,,right,3000,-2.5,4.1112132497353565e-05,1,4,1,2.5,423.5070583300432,423.7254103999585,421.45809630001895,421.78953319997527,422.4560253000818,422.7806407001335,423.4783725000452,423.7820135001093,up,0,2.382543500047177,421.5232494000811,None,None,None,,,,,,,rehvhf,001,0,fr,2022-05-11_11h39.12.698,3-AFC_adaptive_staircase_mess,2022.1.1,35.51196894551821,
,,,,,3,0,3,0,16,0,16,0,,,,,,,,,,,,,,,,left,3000,0.0,5.482390980715923e-05,1,4,1,2.5,425.4600778300548,425.6808285000734,425.4029095999431,425.7083010999486,426.41351910005324,426.73989610001445,427.40755150001496,427.73227140004747,right,0,3.7418494999874383,425.46033479995094,None,427.9699506999459,None,,,,,,,rehvhf,001,0,fr,2022-05-11_11h39.12.698,3-AFC_adaptive_staircase_mess,2022.1.1,35.51196894551821,
,,,,,3,0,3,0,17,0,17,0,,,,,,,,,,,,,,,,up,3000,2.5,7.310885872283589e-05,1,4,1,2.5,431.72950413001234,431.9455025999341,430.6761837999802,430.9982762001455,431.70081830001436,432.00618500006385,432.67553579993546,432.9768366999924,up,1,2.659983799792826,430.73301289998926,None,433.23754839994945,None,,,,,,,rehvhf,001,0,fr,2022-05-11_11h39.12.698,3-AFC_adaptive_staircase_mess,2022.1.1,35.51196894551821,
,,,,,3,0,3,0,18,0,18,0,,,,,,,,,,,,,,,,up,3000,2.5,7.310885872283589e-05,1,4,1,2.5,435.94345483013893,436.1557998000644,434.8858096001204,435.2113936999813,435.88405709993094,436.1843036999926,436.87851079995744,None,up,1,1.9212970996741205,434.9441076000221,None,None,None,,,,,,,rehvhf,001,0,fr,2022-05-11_11h39.12.698,3-AFC_adaptive_staircase_mess,2022.1.1,35.51196894551821,
,,,,,3,0,3,0,19,0,19,0,,,,,,,,,,,,,,,,right,3000,-2.5,4.1112132497353565e-05,-1,5,-1,-5.0,440.41171653002965,440.62880140007474,438.3681501999963,438.6822967999615,439.3457045000978,439.6829944001511,440.3478751000948,440.6595741000492,left,0,3.125747799873352,438.3967891000211,None,440.91255150013603,None,,,,,,,rehvhf,001,0,fr,2022-05-11_11h39.12.698,3-AFC_adaptive_staircase_mess,2022.1.1,35.51196894551821,
,,,,,3,0,3,0,20,0,20,0,,,,,,,,,,,,,,,,up,3000,0.0,5.482390980715923e-05,1,6,1,2.5,444.0813480300596,444.29588619992137,443.0501703999471,443.3808230999857,444.0226706000976,444.3286111999769,445.019978400087,445.32247400004417,right,0,3.3477393998764455,443.08559920010157,None,445.5875015000347,None,,,,,,,rehvhf,001,0,fr,2022-05-11_11h39.12.698,3-AFC_adaptive_staircase_mess,2022.1.1,35.51196894551821,
,,,,,4,0,4,0,0,0,0,0,,,,,,,,,,,,,[],[],10,right,4000,30,0.0026544222211549416,0,0,-1,10,451.0248118300689,None,448.99299590010196,449.3278409000486,449.9954727999866,450.3241858999245,450.99612600007094,451.32719779992476,right,1,2.3647998000960797,449.02767610014416,None,None,None,right,0.9877335999626666,447.52541660005227,None,447.52541660005227,None,rehvhf,001,0,fr,2022-05-11_11h39.12.698,3-AFC_adaptive_staircase_mess,2022.1.1,35.51196894551821,
,,,,,4,0,4,0,1,0,1,0,,,,,,,,,,,,,,,,left,4000,30,0.0026544222211549416,0,0,-1,10,452.9599422299536,None,452.89670539996587,453.22978739999235,None,None,None,None,left,1,0.7671621998306364,452.96210270002484,None,None,None,,,,,,,rehvhf,001,0,fr,2022-05-11_11h39.12.698,3-AFC_adaptive_staircase_mess,2022.1.1,35.51196894551821,
,,,,,4,0,4,0,2,0,2,0,,,,,,,,,,,,,,,,left,4000,10,0.00026544222211549425,-1,0,-1,-10,455.26002613005693,None,455.19708589999937,455.5331938001327,None,None,None,None,left,1,0.5590754000004381,455.2665397999808,None,None,None,,,,,,,rehvhf,001,0,fr,2022-05-11_11h39.12.698,3-AFC_adaptive_staircase_mess,2022.1.1,35.51196894551821,
,,,,,4,0,4,0,3,0,3,0,,,,,,,,,,,,,,,,up,4000,10,0.00026544222211549425,-1,0,-1,-10,458.3624024299672,458.5782981000375,457.336066900054,457.6658596000634,458.2989930000622,458.6106837000698,None,None,up,1,1.4779856998939067,457.37069680006243,None,None,None,,,,,,,rehvhf,001,0,fr,2022-05-11_11h39.12.698,3-AFC_adaptive_staircase_mess,2022.1.1,35.51196894551821,
,,,,,4,0,4,0,4,0,4,0,,,,,,,,,,,,,,,,left,4000,0,8.394020090612804e-05,-1,0,-1,-10,460.3993506300496,460.6134466000367,460.3359538000077,460.6465783000458,461.33842250006273,None,None,None,left,1,1.212266799993813,460.4052446000278,None,None,None,,,,,,,rehvhf,001,0,fr,2022-05-11_11h39.12.698,3-AFC_adaptive_staircase_mess,2022.1.1,35.51196894551821,
,,,,,4,0,4,0,5,0,5,0,,,,,,,,,,,,,,,,up,4000,0,8.394020090612804e-05,-1,0,-1,-10,464.17163793013896,None,463.14195830002427,463.4736268001143,464.142952100141,464.4745255999733,None,None,up,1,1.528116700006649,463.1769191001076,None,None,None,,,,,,,rehvhf,001,0,fr,2022-05-11_11h39.12.698,3-AFC_adaptive_staircase_mess,2022.1.1,35.51196894551821,
,,,,,4,0,4,0,6,0,6,0,,,,,,,,,,,,,,,,left,4000,-10,2.6544222211549425e-05,-1,0,-1,-10,466.2400253300322,None,466.17715539992787,466.50911660003476,467.17894150014035,467.513165500015,468.1806928999722,468.5110325999558,right,0,3.373194499872625,466.24350950005464,None,468.74861130001955,None,,,,,,,rehvhf,001,0,fr,2022-05-11_11h39.12.698,3-AFC_adaptive_staircase_mess,2022.1.1,35.51196894551821,
,,,,,4,0,4,0,7,0,7,0,,,,,,,,,,,,,,,,left,4000,-5,4.720304381429618e-05,1,1,1,5,471.180264129932,471.39489049999975,471.15157829993404,471.45434659998864,None,None,None,None,left,1,0.7075338999275118,471.18147099995986,None,None,None,,,,,,,rehvhf,001,0,fr,2022-05-11_11h39.12.698,3-AFC_adaptive_staircase_mess,2022.1.1,35.51196894551821,
,,,,,4,0,4,0,8,0,8,0,,,,,,,,,,,,,,,,right,4000,-5,4.720304381429618e-05,1,1,1,5,475.4486485299887,475.66539920005016,473.386370500084,473.71735709998757,474.3843269001227,474.7191991000436,475.389950199984,475.69288370013237,right,1,2.587935699848458,473.4467366000172,None,475.95750409993343,None,,,,,,,rehvhf,001,0,fr,2022-05-11_11h39.12.698,3-AFC_adaptive_staircase_mess,2022.1.1,35.51196894551821,
,,,,,4,0,4,0,9,0,9,0,,,,,,,,,,,,,,,,right,4000,-15,1.4926913094589802e-05,-1,2,-1,-5.0,479.5826408301247,479.8029845999554,477.5251577999443,477.85376340011135,478.5211630000267,478.85699390014634,479.55395500012673,479.8631029999815,right,1,3.1994172998238355,477.5861969999969,None,480.0932348999195,None,,,,,,,rehvhf,001,0,fr,2022-05-11_11h39.12.698,3-AFC_adaptive_staircase_mess,2022.1.1,35.51196894551821,
,,,,,4,0,4,0,10,0,10,0,,,,,,,,,,,,,,,,right,4000,-15,1.4926913094589802e-05,-1,2,-1,-5.0,484.3284732300555,484.5355569999665,482.2631050001364,482.59133750014007,483.2606824999675,483.59703910001554,484.26527169998735,484.60038019996136,right,1,2.284658499993384,482.32458680006675,None,None,None,,,,,,,rehvhf,001,0,fr,2022-05-11_11h39.12.698,3-AFC_adaptive_staircase_mess,2022.1.1,35.51196894551821,
,,,,,4,0,4,0,11,0,11,0,,,,,,,,,,,,,,,,up,4000,-20.0,8.394020090612804e-06,-1,2,-1,-5.0,487.1633717300603,None,486.0957188999746,486.40101759997196,487.0989512000233,487.43366890004836,488.0995007001329,488.4316751000006,right,0,3.276021899888292,486.16523539996706,None,488.6700416000094,None,,,,,,,rehvhf,001,0,fr,2022-05-11_11h39.12.698,3-AFC_adaptive_staircase_mess,2022.1.1,35.51196894551821,
,,,,,4,0,4,0,12,0,12,0,,,,,,,,,,,,,,,,up,4000,-17.5,1.11936056928417e-05,1,3,1,2.5,491.99953143012243,492.2121191001497,490.9712058000732,491.3036891000811,491.97084560012445,492.2765546001028,492.9403647000436,493.2692333001178,right,0,2.74371559987776,491.0015460001305,None,493.5064803001005,None,,,,,,,rehvhf,001,0,fr,2022-05-11_11h39.12.698,3-AFC_adaptive_staircase_mess,2022.1.1,35.51196894551821,
,,,,,4,0,4,0,13,0,13,0,,,,,,,,,,,,,,,,up,4000,-15.0,1.4926913094589802e-05,1,3,1,2.5,496.30631172999273,496.5191482999362,495.2401733000297,495.5737723999191,496.2427727000322,496.5496811999474,497.2419754001312,497.5757093001157,up,1,2.9167634998448193,495.3086922999937,None,497.8144515999593,None,,,,,,,rehvhf,001,0,fr,2022-05-11_11h39.12.698,3-AFC_adaptive_staircase_mess,2022.1.1,35.51196894551821,
,,,,,4,0,4,0,14,0,14,0,,,,,,,,,,,,,,,,right,4000,-15.0,1.4926913094589802e-05,1,3,1,2.5,None,None,499.7105777000543,500.04679829999804,500.7138811000623,None,None,None,left,0,0.9422424000222236,499.7793275001459,None,None,None,,,,,,,rehvhf,001,0,fr,2022-05-11_11h39.12.698,3-AFC_adaptive_staircase_mess,2022.1.1,35.51196894551821,
,,,,,4,0,4,0,15,0,15,0,,,,,,,,,,,,,,,,left,4000,-12.5,1.9905358527674868e-05,1,3,1,2.5,502.2778399299597,None,502.21415210003033,502.54734220006503,503.2177552001085,503.5473080999218,504.24911909992807,504.57964799995534,left,1,3.2675250000320375,502.28474560007453,None,504.78561070002615,None,,,,,,,rehvhf,001,0,fr,2022-05-11_11h39.12.698,3-AFC_adaptive_staircase_mess,2022.1.1,35.51196894551821,
,,,,,4,0,4,0,16,0,16,0,,,,,,,,,,,,,,,,right,4000,-12.5,1.9905358527674868e-05,1,3,1,2.5,509.11909633006434,None,507.0510287999641,507.35205879993737,508.05422740010545,508.38795090001076,509.0560318999924,509.38880029995926,up,0,2.2894054998178035,507.11928310012445,None,None,None,,,,,,,rehvhf,001,0,fr,2022-05-11_11h39.12.698,3-AFC_adaptive_staircase_mess,2022.1.1,35.51196894551821,
,,,,,4,0,4,0,17,0,17,0,,,,,,,,,,,,,,,,left,4000,-10.0,2.6544222211549425e-05,1,3,1,2.5,510.9549852299271,None,510.88985439995304,511.22284840000793,511.89112829999067,512.2269016001374,512.8939908000175,513.226404099958,right,0,4.031885999953374,510.9610395000782,None,513.4620191000868,None,,,,,,,rehvhf,001,0,fr,2022-05-11_11h39.12.698,3-AFC_adaptive_staircase_mess,2022.1.1,35.51196894551821,
,,,,,4,0,4,0,18,0,18,0,,,,,,,,,,,,,,,,right,4000,-7.5,3.53972892192069e-05,1,3,1,2.5,518.5294307299657,518.7390938999597,516.4652523000259,516.7995470000897,517.4986700001173,517.834983299952,518.4650258999318,518.7712091000285,right,1,2.642346499953419,516.527353100013,None,519.0328399999999,None,,,,,,,rehvhf,001,0,fr,2022-05-11_11h39.12.698,3-AFC_adaptive_staircase_mess,2022.1.1,35.51196894551821,
,,,,,4,0,4,0,19,0,19,0,,,,,,,,,,,,,,,,left,4000,-7.5,3.53972892192069e-05,1,3,1,2.5,520.718639630056,520.9431207000744,520.6572195000481,520.9706411000807,521.6598152001388,None,None,None,left,1,0.943733099848032,520.7226796001196,None,None,None,,,,,,,rehvhf,001,0,fr,2022-05-11_11h39.12.698,3-AFC_adaptive_staircase_mess,2022.1.1,35.51196894551821,
,,,,,4,0,4,0,20,0,20,0,,,,,,,,,,,,,,,,right,4000,-12.5,1.9905358527674868e-05,-1,4,-1,-5.0,525.2295172299957,None,523.1748065000866,523.4796446999535,524.1743183999788,524.4930126001127,525.172269300092,525.4941335001495,right,1,2.509095099987462,523.2038251999766,None,525.7312771000434,None,,,,,,,rehvhf,001,0,fr,2022-05-11_11h39.12.698,3-AFC_adaptive_staircase_mess,2022.1.1,35.51196894551821,
,,,,,4,0,4,0,21,0,21,0,,,,,,,,,,,,,,,,right,4000,-12.5,1.9905358527674868e-05,-1,4,-1,-5.0,529.2609831301263,None,527.2201583001297,527.5343506000936,528.2008788001258,528.5073625000659,529.1997893000953,None,right,1,2.113478400046006,527.2491258000955,None,None,None,,,,,,,rehvhf,001,0,fr,2022-05-11_11h39.12.698,3-AFC_adaptive_staircase_mess,2022.1.1,35.51196894551821,
,,,,,4,0,4,0,22,0,22,0,,,,,,,,,,,,,,,,left,4000,-17.5,1.11936056928417e-05,-1,4,-1,-5.0,530.8914298300399,531.1141487001441,530.8627440000419,531.1742790001445,531.8358046999201,532.1371740000322,532.8372661999892,533.1395521000959,up,0,3.0926109997089952,530.8916964000091,None,533.4097819000017,None,,,,,,,rehvhf,001,0,fr,2022-05-11_11h39.12.698,3-AFC_adaptive_staircase_mess,2022.1.1,35.51196894551821,
,,,,,4,0,4,0,23,0,23,0,,,,,,,,,,,,,,,,left,4000,-15.0,1.4926913094589802e-05,1,5,1,2.5,535.5586560300319,535.7848430001177,535.5011561999563,535.8168375000823,536.4809775999747,536.7930427999236,537.4894437000621,537.8060175999999,up,0,2.554621299961582,535.5596970999613,None,538.0455175000243,None,,,,,,,rehvhf,001,0,fr,2022-05-11_11h39.12.698,3-AFC_adaptive_staircase_mess,2022.1.1,35.51196894551821,
,,,,,4,0,4,0,24,0,24,0,,,,,,,,,,,,,,,,right,4000,-12.5,1.9905358527674868e-05,1,5,1,2.5,541.6391353301472,None,539.5914229999762,539.911061400082,540.5762114999816,540.8794317999855,541.5773485000245,541.8992471001111,right,1,3.180439000017941,539.6214075000025,None,542.1379303000867,None,,,,,,,rehvhf,001,0,fr,2022-05-11_11h39.12.698,3-AFC_adaptive_staircase_mess,2022.1.1,35.51196894551821,
,,,,,4,0,4,0,25,0,25,0,,,,,,,,,,,,,,,,right,4000,-12.5,1.9905358527674868e-05,1,5,1,2.5,546.350151729933,None,544.2847583000548,544.5944022999611,545.2841414001305,545.5972862001508,546.2918920000084,546.6080835999455,right,1,2.659574099816382,544.3497941000387,None,546.8494081001263,None,,,,,,,rehvhf,001,0,fr,2022-05-11_11h39.12.698,3-AFC_adaptive_staircase_mess,2022.1.1,35.51196894551821,
,,,,,4,0,4,0,26,0,26,0,,,,,,,,,,,,,,,,right,4000,-17.5,1.11936056928417e-05,-1,6,-1,-5.0,550.5321482300526,None,548.5028051999398,548.8156219001394,549.5013784000184,549.8107968999539,550.5034624000546,550.8279953999445,right,1,3.6611849998589605,548.5326221999712,None,551.0535007999279,None,,,,,,,rehvhf,001,0,fr,2022-05-11_11h39.12.698,3-AFC_adaptive_staircase_mess,2022.1.1,35.51196894551821,
,,,,,5,0,5,0,0,0,0,0,,,,,,,,,,,,,[],[],10,left,6000,30,0.003664122665694519,0,0,-1,10,554.7556794301374,None,554.7269936001394,555.0392787000164,555.7226023300784,None,None,None,left,1,0.9222850997466594,554.7587570000906,None,None,None,right,1.0092668998986483,553.2481599999592,None,553.2481599999592,None,rehvhf,001,0,fr,2022-05-11_11h39.12.698,3-AFC_adaptive_staircase_mess,2022.1.1,35.51196894551821,
,,,,,5,0,5,0,1,0,1,0,,,,,,,,,,,,,,,,left,6000,30,0.003664122665694519,0,0,-1,10,557.2266328299186,None,557.1664814001415,557.4851428000256,None,None,None,None,left,1,0.4519632998853922,557.22976440005,None,None,None,,,,,,,rehvhf,001,0,fr,2022-05-11_11h39.12.698,3-AFC_adaptive_staircase_mess,2022.1.1,35.51196894551821,
,,,,,5,0,5,0,2,0,2,0,,,,,,,,,,,,,,,,up,6000,10,0.00036641226656945183,-1,0,-1,-10,560.2170594301308,560.4434329001233,559.1799989000428,559.4949662999716,560.1587233000901,560.4755884001497,None,None,up,1,1.431940299924463,559.2093706000596,None,None,None,,,,,,,rehvhf,001,0,fr,2022-05-11_11h39.12.698,3-AFC_adaptive_staircase_mess,2022.1.1,35.51196894551821,
,,,,,5,0,5,0,3,0,3,0,,,,,,,,,,,,,,,,up,6000,10,0.00036641226656945183,-1,0,-1,-10,563.2005232299446,None,562.148678699974,562.463791300077,563.1404182999395,563.4598751999438,None,None,up,1,1.3918734998442233,562.178099000128,None,None,None,,,,,,,rehvhf,001,0,fr,2022-05-11_11h39.12.698,3-AFC_adaptive_staircase_mess,2022.1.1,35.51196894551821,
,,,,,5,0,5,0,4,0,4,0,,,,,,,,,,,,,,,,right,6000,0,0.00011586973249842387,-1,0,-1,-10,567.0999396300642,None,565.0339615000412,565.3377368000802,566.0285624000244,566.3330173001159,567.0393755999394,567.3532865999732,right,1,2.362322499975562,565.0954233000521,None,None,None,,,,,,,rehvhf,001,0,fr,2022-05-11_11h39.12.698,3-AFC_adaptive_staircase_mess,2022.1.1,35.51196894551821,
,,,,,5,0,5,0,5,0,5,0,,,,,,,,,,,,,,,,right,6000,0,0.00011586973249842387,-1,0,-1,-10,571.0107252301416,571.2295920001343,568.9434587999713,569.2739536000881,569.9514814000577,570.2689088999759,570.949605199974,571.2578632999212,right,1,2.3125495999120176,569.0012135999277,None,None,None,,,,,,,rehvhf,001,0,fr,2022-05-11_11h39.12.698,3-AFC_adaptive_staircase_mess,2022.1.1,35.51196894551821,
,,,,,5,0,5,0,6,0,6,0,,,,,,,,,,,,,,,,up,6000,-10,3.664122665694518e-05,-1,0,-1,-10,573.8174740301213,None,572.7742189001292,573.0762488001492,573.7605040001217,574.069079299923,None,None,up,1,1.4999573996756226,572.8382647000253,None,None,None,,,,,,,rehvhf,001,0,fr,2022-05-11_11h39.12.698,3-AFC_adaptive_staircase_mess,2022.1.1,35.51196894551821,
,,,,,5,0,5,0,7,0,7,0,,,,,,,,,,,,,,,,right,6000,-10,3.664122665694518e-05,-1,0,-1,-10,577.8376168300631,578.0602307999507,575.8046262999997,576.1319170000497,576.8065261000302,577.1101172000635,577.8089310000651,578.1246535000391,up,0,2.9869376998394728,575.8630401000846,None,578.3654183000326,None,,,,,,,rehvhf,001,0,fr,2022-05-11_11h39.12.698,3-AFC_adaptive_staircase_mess,2022.1.1,35.51196894551821,
,,,,,5,0,5,0,8,0,8,0,,,,,,,,,,,,,,,,right,6000,-5,6.515833892261494e-05,1,1,1,5,582.3876068300335,582.6127396000084,580.3305160000455,580.6352029999252,581.3171413999517,581.6189524999354,582.329812400043,582.6406739000231,right,1,2.523731199791655,580.3904886001255,None,582.8740131999366,None,,,,,,,rehvhf,001,0,fr,2022-05-11_11h39.12.698,3-AFC_adaptive_staircase_mess,2022.1.1,35.51196894551821,
,,,,,5,0,5,0,9,0,9,0,,,,,,,,,,,,,,,,left,6000,-5,6.515833892261494e-05,1,1,1,5,584.446488730074,584.6676424001344,584.388805600116,584.6964237000793,585.4119550001342,585.7368862000294,586.3939771000296,586.7204746000934,left,1,2.3045578999444842,584.4486565999687,None,None,None,,,,,,,rehvhf,001,0,fr,2022-05-11_11h39.12.698,3-AFC_adaptive_staircase_mess,2022.1.1,35.51196894551821,
,,,,,5,0,5,0,10,0,10,0,,,,,,,,,,,,,,,,up,6000,-15,2.0604875954866497e-05,-1,2,-1,-5.0,589.2934400301194,None,588.2328083000612,588.5361464000307,589.2338092999998,589.5471187001094,590.2454492999241,590.568837699946,right,0,2.697616499848664,588.2954551000148,None,590.778846600093,None,,,,,,,rehvhf,001,0,fr,2022-05-11_11h39.12.698,3-AFC_adaptive_staircase_mess,2022.1.1,35.51196894551821,
,,,,,5,0,5,0,11,0,11,0,,,,,,,,,,,,,,,,right,6000,-12.5,2.7477043692881217e-05,1,3,1,2.5,594.5243134299992,594.7443967000581,592.4794974001125,592.805309599964,593.4707476000767,593.7956934000831,594.4665051000193,594.7726994000841,right,1,2.856712799752131,592.5364870000631,None,595.017934500007,None,,,,,,,rehvhf,001,0,fr,2022-05-11_11h39.12.698,3-AFC_adaptive_staircase_mess,2022.1.1,35.51196894551821,
,,,,,5,0,5,0,12,0,12,0,,,,,,,,,,,,,,,,up,6000,-12.5,2.7477043692881217e-05,1,3,1,2.5,597.9235152301146,598.1471351000946,596.8583436000627,597.183853100054,597.8635996999219,598.1757137000095,598.8748145001009,599.196714400081,right,0,2.665834999876097,596.9193490000907,None,599.4029920001049,None,,,,,,,rehvhf,001,0,fr,2022-05-11_11h39.12.698,3-AFC_adaptive_staircase_mess,2022.1.1,35.51196894551821,
,,,,,5,0,5,0,13,0,13,0,,,,,,,,,,,,,,,,right,6000,-10.0,3.664122665694518e-05,1,3,1,2.5,603.1133679299849,603.3359165000729,601.0529159000143,601.3641017000191,602.0618791999295,602.3840691000223,603.0564910001121,603.3635885999538,right,1,2.6527379998005927,601.1247455999255,None,603.6251076001208,None,,,,,,,rehvhf,001,0,fr,2022-05-11_11h39.12.698,3-AFC_adaptive_staircase_mess,2022.1.1,35.51196894551821,
,,,,,5,0,5,0,14,0,14,0,,,,,,,,,,,,,,,,left,6000,-10.0,3.664122665694518e-05,1,3,1,2.5,605.3234707300319,605.5488533000462,605.2645511000883,605.5801316001453,606.2580361000728,None,None,None,left,1,1.1248051999136806,605.3248747000471,None,None,None,,,,,,,rehvhf,001,0,fr,2022-05-11_11h39.12.698,3-AFC_adaptive_staircase_mess,2022.1.1,35.51196894551821,
,,,,,5,0,5,0,15,0,15,0,,,,,,,,,,,,,,,,left,6000,-15.0,2.0604875954866497e-05,-1,4,-1,-5.0,607.9724328300683,None,607.9437470000703,608.2529019999783,608.9492597000208,609.2709075000603,609.945120899938,610.2718585999683,left,1,3.2925141998566687,607.9728276999667,None,610.4828661000356,None,,,,,,,rehvhf,001,0,fr,2022-05-11_11h39.12.698,3-AFC_adaptive_staircase_mess,2022.1.1,35.51196894551821,
,,,,,5,0,5,0,16,0,16,0,,,,,,,,,,,,,,,,left,6000,-15.0,2.0604875954866497e-05,-1,4,-1,-5.0,612.8263803300681,None,612.7771229001228,613.0810974000487,613.7863587001339,614.1126214000396,614.7823471000884,615.0896668999922,up,0,2.589837199775502,612.8363051000051,None,615.3234246999491,None,,,,,,,rehvhf,001,0,fr,2022-05-11_11h39.12.698,3-AFC_adaptive_staircase_mess,2022.1.1,35.51196894551821,
,,,,,5,0,5,0,17,0,17,0,,,,,,,,,,,,,,,,up,6000,-12.5,2.7477043692881217e-05,1,5,1,2.5,617.9625185301295,618.1782118000556,616.9029095999431,617.2278152999934,617.9025248999242,618.2073456000071,618.897298600059,619.2049207000528,up,1,2.6842825999483466,616.9653195000719,None,619.4649859000929,None,,,,,,,rehvhf,001,0,fr,2022-05-11_11h39.12.698,3-AFC_adaptive_staircase_mess,2022.1.1,35.51196894551821,
,,,,,5,0,5,0,18,0,18,0,,,,,,,,,,,,,,,,right,6000,-12.5,2.7477043692881217e-05,1,5,1,2.5,623.1843492299552,623.4080592000391,621.1288894999307,621.4386060000397,622.1566795001272,622.4903432000428,623.1105260001495,623.4345959001221,right,1,3.4861587998457253,621.1864104000852,None,623.6963452000637,None,,,,,,,rehvhf,001,0,fr,2022-05-11_11h39.12.698,3-AFC_adaptive_staircase_mess,2022.1.1,35.51196894551821,
,,,,,5,0,5,0,19,0,19,0,,,,,,,,,,,,,,,,up,6000,-17.5,1.5451477162567947e-05,-1,6,-1,-5.0,627.2371446300997,None,626.1950276999269,626.5154496999457,627.1751123000868,627.4967187000439,628.1953144001309,628.5263332000468,up,1,3.082531299907714,626.2143960001413,None,628.7364592000376,None,,,,,,,rehvhf,001,0,fr,2022-05-11_11h39.12.698,3-AFC_adaptive_staircase_mess,2022.1.1,35.51196894551821,
,,,,,6,0,6,0,0,0,0,0,,,,,,,,,,,,,[],[],10,right,8000,30,0.005740768107484416,0,0,-1,10,633.7967771300348,634.0147762999404,631.7660944000818,632.1024460999761,632.767553600017,633.0862259001005,633.7680913000368,634.073394499952,right,1,2.2972967999521643,631.8002917000558,None,None,None,up,0.9155343999154866,630.3664685001131,None,630.3664685001131,None,rehvhf,001,0,fr,2022-05-11_11h39.12.698,3-AFC_adaptive_staircase_mess,2022.1.1,35.51196894551821,
,,,,,6,0,6,0,1,0,1,0,,,,,,,,,,,,,,,,left,8000,30,0.005740768107484416,0,0,-1,10,635.6332147300011,635.8546416999307,635.5705310001504,635.8836539001204,None,None,None,None,left,1,0.5697705999482423,635.6236771000549,None,None,None,,,,,,,rehvhf,001,0,fr,2022-05-11_11h39.12.698,3-AFC_adaptive_staircase_mess,2022.1.1,35.51196894551821,
,,,,,6,0,6,0,2,0,2,0,,,,,,,,,,,,,,,,left,8000,10,0.0005740768107484417,-1,0,-1,-10,637.7328277299414,637.9566005000379,637.6738341001328,637.9857958001085,None,None,None,None,left,1,0.6179015999659896,637.7351396000013,None,None,None,,,,,,,rehvhf,001,0,fr,2022-05-11_11h39.12.698,3-AFC_adaptive_staircase_mess,2022.1.1,35.51196894551821,
,,,,,6,0,6,0,3,0,3,0,,,,,,,,,,,,,,,,up,8000,10,0.0005740768107484417,-1,0,-1,-10,640.9060034299503,None,639.8750786001328,640.2099173001479,640.8429632000625,641.176434900146,None,None,up,1,1.8202907997183502,639.9092048001476,None,None,None,,,,,,,rehvhf,001,0,fr,2022-05-11_11h39.12.698,3-AFC_adaptive_staircase_mess,2022.1.1,35.51196894551821,
,,,,,6,0,6,0,4,0,4,0,,,,,,,,,,,,,,,,left,8000,0,0.0001815390273850507,-1,0,-1,-10,643.2742837301223,643.4920705000404,643.2116409000009,643.5198135999963,None,None,None,None,left,1,0.5783788999542594,643.278978300048,None,None,None,,,,,,,rehvhf,001,0,fr,2022-05-11_11h39.12.698,3-AFC_adaptive_staircase_mess,2022.1.1,35.51196894551821,
,,,,,6,0,6,0,5,0,5,0,,,,,,,,,,,,,,,,right,8000,0,0.0001815390273850507,-1,0,-1,-10,647.415665429947,None,645.3502104999498,645.684590500081,646.3505903000478,646.6853217999451,647.3512693999801,None,right,1,2.121299199992791,645.4165129000321,None,None,None,,,,,,,rehvhf,001,0,fr,2022-05-11_11h39.12.698,3-AFC_adaptive_staircase_mess,2022.1.1,35.51196894551821,
,,,,,6,0,6,0,6,0,6,0,,,,,,,,,,,,,,,,up,8000,-10,5.740768107484415e-05,-1,0,-1,-10,650.0846428300022,650.2991583999246,649.0235500999261,649.3545361999422,650.0208537001163,650.3294693999924,None,None,up,1,1.7175680997315794,649.0835190999787,None,None,None,,,,,,,rehvhf,001,0,fr,2022-05-11_11h39.12.698,3-AFC_adaptive_staircase_mess,2022.1.1,35.51196894551821,
,,,,,6,0,6,0,7,0,7,0,,,,,,,,,,,,,,,,left,8000,-10,5.740768107484415e-05,-1,0,-1,-10,652.3504781300901,652.5731913999189,652.2924770999234,652.5910374999512,None,None,None,None,left,1,0.7689469996839762,652.3522069000173,None,None,None,,,,,,,rehvhf,001,0,fr,2022-05-11_11h39.12.698,3-AFC_adaptive_staircase_mess,2022.1.1,35.51196894551821,
,,,,,6,0,6,0,8,0,8,0,,,,,,,,,,,,,,,,right,8000,-20,1.815390273850507e-05,-1,0,-1,-10,656.6561221300392,656.8745695999824,654.5902335999999,654.9251952001359,655.5933292000555,655.9266944001429,656.5929765999317,656.9057809000369,right,1,2.5273839998990297,654.6580451000482,None,657.1626663999632,None,,,,,,,rehvhf,001,0,fr,2022-05-11_11h39.12.698,3-AFC_adaptive_staircase_mess,2022.1.1,35.51196894551821,
,,,,,6,0,6,0,9,0,9,0,,,,,,,,,,,,,,,,up,8000,-20,1.815390273850507e-05,-1,0,-1,-10,659.7254252300365,None,658.6939932000823,659.0309487001505,659.6967394000385,660.0329557000659,660.6795347000007,660.9970007000957,right,0,2.885113899828866,658.73168730014,None,661.217452300014,None,,,,,,,rehvhf,001,0,fr,2022-05-11_11h39.12.698,3-AFC_adaptive_staircase_mess,2022.1.1,35.51196894551821,
,,,,,6,0,6,0,10,0,10,0,,,,,,,,,,,,,,,,up,8000,-15,3.228271145173278e-05,1,1,1,5,664.1660715301289,664.3810827000998,663.1007592000533,663.4344059999567,664.1030115999747,664.4086518001277,None,None,up,1,1.7777978999074548,663.1670616001356,None,None,None,,,,,,,rehvhf,001,0,fr,2022-05-11_11h39.12.698,3-AFC_adaptive_staircase_mess,2022.1.1,35.51196894551821,
,,,,,6,0,6,0,11,0,11,0,,,,,,,,,,,,,,,,right,8000,-15,3.228271145173278e-05,1,1,1,5,668.5100968300133,None,666.4367732999381,666.7698411000893,667.4396387001034,667.7672099000774,668.4498938999604,668.7797721999232,right,1,2.5500319998245686,666.5065895000007,None,669.0063893001061,None,,,,,,,rehvhf,001,0,fr,2022-05-11_11h39.12.698,3-AFC_adaptive_staircase_mess,2022.1.1,35.51196894551821,
,,,,,6,0,6,0,12,0,12,0,,,,,,,,,,,,,,,,left,8000,-25,1.0208689723347649e-05,-1,2,-1,-5.0,670.6033582300181,670.8126276000403,670.5445091000292,670.8735607000999,671.5434572000522,671.8779442999512,672.5446089000907,672.878311800072,right,0,2.5959532998967916,670.6048419999424,None,673.1112780999392,None,,,,,,,rehvhf,001,0,fr,2022-05-11_11h39.12.698,3-AFC_adaptive_staircase_mess,2022.1.1,35.51196894551821,
,,,,,6,0,6,0,13,0,13,0,,,,,,,,,,,,,,,,up,8000,-22.5,1.3613506540389564e-05,1,3,1,2.5,675.7405939299381,675.9547216000501,674.7148247000296,675.0452324999496,675.71190809994,676.0181821000297,676.6825683999341,677.0140351001173,right,0,2.5490664998069406,674.7484137001447,None,677.2568361000158,None,,,,,,,rehvhf,001,0,fr,2022-05-11_11h39.12.698,3-AFC_adaptive_staircase_mess,2022.1.1,35.51196894551821,
,,,,,6,0,6,0,14,0,14,0,,,,,,,,,,,,,,,,left,8000,-20.0,1.815390273850507e-05,1,3,1,2.5,678.8444853300928,679.0664564000908,678.7818086999469,679.0953282001428,679.7809419000987,680.1169100000989,680.7854961999692,681.1191601001192,up,0,2.5743585997261107,678.8497419999912,None,681.353070500074,None,,,,,,,rehvhf,001,0,fr,2022-05-11_11h39.12.698,3-AFC_adaptive_staircase_mess,2022.1.1,35.51196894551821,
,,,,,6,0,6,0,15,0,15,0,,,,,,,,,,,,,,,,right,8000,-17.5,2.420861837920497e-05,1,3,1,2.5,684.9514309299877,None,682.8844838999212,683.2210073000751,683.9152148999274,684.2176028001122,684.8883179000113,685.2222279999405,up,0,3.049355800030753,682.9525000001304,None,685.463228699984,None,,,,,,,rehvhf,001,0,fr,2022-05-11_11h39.12.698,3-AFC_adaptive_staircase_mess,2022.1.1,35.51196894551821,
,,,,,6,0,6,0,16,0,16,0,,,,,,,,,,,,,,,,up,8000,-15.0,3.228271145173278e-05,1,3,1,2.5,688.5561586301076,None,687.5004068000708,687.8270662000868,688.4936575000174,None,None,None,left,0,1.1258288000244647,687.5638236999512,None,None,None,,,,,,,rehvhf,001,0,fr,2022-05-11_11h39.12.698,3-AFC_adaptive_staircase_mess,2022.1.1,35.51196894551821,
,,,,,6,0,6,0,17,0,17,0,,,,,,,,,,,,,,,,right,8000,-12.5,4.304968760923004e-05,1,3,1,2.5,692.2312008300098,692.4449478001334,690.1641808999702,690.4986773999408,691.1631968999282,691.4930326000322,692.1659542000853,692.4766989999916,right,1,2.6960145998746157,690.2332534000743,None,692.7304291999899,None,,,,,,,rehvhf,001,0,fr,2022-05-11_11h39.12.698,3-AFC_adaptive_staircase_mess,2022.1.1,35.51196894551821,
,,,,,6,0,6,0,18,0,18,0,,,,,,,,,,,,,,,,left,8000,-12.5,4.304968760923004e-05,1,3,1,2.5,694.463020230108,694.6826234001201,694.3997009999584,694.7122911999468,None,None,None,None,left,1,0.8124839998781681,694.4682978000492,None,None,None,,,,,,,rehvhf,001,0,fr,2022-05-11_11h39.12.698,3-AFC_adaptive_staircase_mess,2022.1.1,35.51196894551821,
,,,,,6,0,6,0,19,0,19,0,,,,,,,,,,,,,,,,left,8000,-17.5,2.420861837920497e-05,-1,4,-1,-5.0,696.8311003299198,None,696.7678738001268,697.1037067000289,697.7705743999686,698.0720716000069,698.7690993000288,699.1031075001229,up,0,4.300921599846333,696.8361861000303,None,699.3415175001137,None,,,,,,,rehvhf,001,0,fr,2022-05-11_11h39.12.698,3-AFC_adaptive_staircase_mess,2022.1.1,35.51196894551821,
,,,,,6,0,6,0,20,0,20,0,,,,,,,,,,,,,,,,up,8000,-15.0,3.228271145173278e-05,1,5,1,2.5,703.6698693299434,703.8868698999286,702.639481900027,702.9728904000949,703.6071492999326,703.9184693000279,704.6118981000036,704.9465435999446,up,1,2.414910299703479,702.6736053000204,None,None,None,,,,,,,rehvhf,001,0,fr,2022-05-11_11h39.12.698,3-AFC_adaptive_staircase_mess,2022.1.1,35.51196894551821,
,,,,,6,0,6,0,21,0,21,0,,,,,,,,,,,,,,,,left,8000,-15.0,3.228271145173278e-05,1,5,1,2.5,706.6399234299781,706.862647900125,706.5775816999376,706.8930003000423,707.5794089999981,None,None,None,left,1,0.9399756998755038,706.6458370999899,None,None,None,,,,,,,rehvhf,001,0,fr,2022-05-11_11h39.12.698,3-AFC_adaptive_staircase_mess,2022.1.1,35.51196894551821,
,,,,,6,0,6,0,22,0,22,0,,,,,,,,,,,,,,,,up,8000,-20.0,1.815390273850507e-05,-1,6,-1,-5.0,710.156345730112,None,709.0813128000591,709.4149116000626,710.0954460001085,710.4241740000434,711.0833795999642,711.4147677000146,right,0,3.7464601998217404,709.1508176000789,None,711.6563415001146,None,,,,,,,rehvhf,001,0,fr,2022-05-11_11h39.12.698,3-AFC_adaptive_staircase_mess,2022.1.1,35.51196894551821,
,,,,,7,0,7,0,0,0,0,0,,,,,,,,,,,,,[],[],10,left,750,30,0.0012851978913844323,0,0,-1,10,716.0492616299773,716.2665327999275,715.9899290001485,716.297912399983,716.9912346999627,717.3237636000849,718.0242790000048,718.3593101000879,left,1,2.750651199836284,716.0512201001402,None,718.560522899963,None,down,1.532008299836889,713.9900136999786,None,713.9900136999786,None,rehvhf,001,0,fr,2022-05-11_11h39.12.698,3-AFC_adaptive_staircase_mess,2022.1.1,35.51196894551821,
,,,,,7,0,7,0,1,0,1,0,,,,,,,,,,,,,,,,right,750,30,0.0012851978913844323,0,0,-1,10,722.3570794299478,None,720.3269208001439,720.6642335001379,721.3285594000481,721.661439599935,722.2946212000679,722.628335500136,right,1,2.471441999776289,720.3608172000386,None,722.8646205000114,None,,,,,,,rehvhf,001,0,fr,2022-05-11_11h39.12.698,3-AFC_adaptive_staircase_mess,2022.1.1,35.51196894551821,
,,,,,7,0,7,0,2,0,2,0,,,,,,,,,,,,,,,,up,750,10,0.00012851978913844324,-1,0,-1,-10,725.3945430299966,725.6116561000235,724.3308085000608,724.6635116999969,725.3304282000754,725.6422232999466,None,None,up,1,1.3948317000176758,724.3988417999353,None,None,None,,,,,,,rehvhf,001,0,fr,2022-05-11_11h39.12.698,3-AFC_adaptive_staircase_mess,2022.1.1,35.51196894551821,
,,,,,7,0,7,0,3,0,3,0,,,,,,,,,,,,,,,,left,750,10,0.00012851978913844324,-1,0,-1,-10,727.3299558299361,None,727.2674293001182,727.6015095000621,None,None,None,None,left,1,0.6965823997743428,727.3363481999841,None,None,None,,,,,,,rehvhf,001,0,fr,2022-05-11_11h39.12.698,3-AFC_adaptive_staircase_mess,2022.1.1,35.51196894551821,
,,,,,7,0,7,0,4,0,4,0,,,,,,,,,,,,,,,,right,750,0,4.064152580820497e-05,-1,0,-1,-10,731.5695887300419,None,729.5004312000237,729.8067723000422,730.5186362001114,730.8363191999961,731.5067332000472,731.8405041000806,right,1,2.638566300040111,729.5695956000127,None,732.0753500000574,None,,,,,,,rehvhf,001,0,fr,2022-05-11_11h39.12.698,3-AFC_adaptive_staircase_mess,2022.1.1,35.51196894551821,
,,,,,7,0,7,0,5,0,5,0,,,,,,,,,,,,,,,,left,750,0,4.064152580820497e-05,-1,0,-1,-10,733.7690941299545,733.9857004999649,733.7043385999277,734.0175602000672,734.7116543999873,735.0476532999892,735.7109924000688,736.0438433000818,right,0,2.465212999843061,733.7759801000357,None,736.2703483299586,None,,,,,,,rehvhf,001,0,fr,2022-05-11_11h39.12.698,3-AFC_adaptive_staircase_mess,2022.1.1,35.51196894551821,
,,,,,7,0,7,0,6,0,6,0,,,,,,,,,,,,,,,,right,750,5,7.22719885372964e-05,1,1,1,5,739.776077029924,739.99092380004,737.7157783999573,738.0514438999817,738.718140100129,739.0457355999388,739.7473911999259,740.0526189000811,right,1,3.0323283998295665,737.7842665000353,None,740.2828907000367,None,,,,,,,rehvhf,001,0,fr,2022-05-11_11h39.12.698,3-AFC_adaptive_staircase_mess,2022.1.1,35.51196894551821,
,,,,,7,0,7,0,7,0,7,0,,,,,,,,,,,,,,,,right,750,5,7.22719885372964e-05,1,1,1,5,744.350199429947,None,742.3062321001198,742.6271079001017,743.2835236000828,743.6125885001384,744.2915517000947,744.6052321000025,right,1,2.5306252997834235,742.333725299919,None,744.8491020000074,None,,,,,,,rehvhf,001,0,fr,2022-05-11_11h39.12.698,3-AFC_adaptive_staircase_mess,2022.1.1,35.51196894551821,
,,,,,7,0,7,0,8,0,8,0,,,,,,,,,,,,,,,,left,750,-5,2.285440948074376e-05,-1,2,-1,-5.0,746.4015616301215,746.6293069000822,746.3450528001413,746.6601176999975,747.3600167999975,747.6763661000878,748.3615510999225,748.689185900148,up,0,3.071252399822697,746.4018765999936,None,748.8995245001279,None,,,,,,,rehvhf,001,0,fr,2022-05-11_11h39.12.698,3-AFC_adaptive_staircase_mess,2022.1.1,35.51196894551821,
,,,,,7,0,7,0,9,0,9,0,,,,,,,,,,,,,,,,left,750,-2.5,3.0476844862008466e-05,1,3,1,2.5,751.0216388301226,751.2367684000637,750.9581681999844,751.2690441000741,751.9606278999709,752.2936611000914,752.9615736999549,753.2951045001391,up,0,2.7809760998934507,751.0281809000298,None,753.5277200001292,None,,,,,,,rehvhf,001,0,fr,2022-05-11_11h39.12.698,3-AFC_adaptive_staircase_mess,2022.1.1,35.51196894551821,
,,,,,7,0,7,0,10,0,10,0,,,,,,,,,,,,,,,,left,750,0.0,4.064152580820497e-05,1,3,1,2.5,755.3351118300809,None,755.3064260000829,755.633573200088,756.2999112999532,756.6345109001268,757.2930139999371,757.6221899001393,left,1,3.3189961998723447,755.3376811000053,None,757.8596771999728,None,,,,,,,rehvhf,001,0,fr,2022-05-11_11h39.12.698,3-AFC_adaptive_staircase_mess,2022.1.1,35.51196894551821,
,,,,,7,0,7,0,11,0,11,0,,,,,,,,,,,,,,,,right,750,0.0,4.064152580820497e-05,1,3,1,2.5,762.2000064299675,None,760.1402054999489,760.4609503000975,761.1297494999599,761.4368575999979,762.1365139000118,762.4707564001437,left,0,3.846522499807179,760.2026664000005,None,762.7036936001386,None,,,,,,,rehvhf,001,0,fr,2022-05-11_11h39.12.698,3-AFC_adaptive_staircase_mess,2022.1.1,35.51196894551821,
,,,,,7,0,7,0,12,0,12,0,,,,,,,,,,,,,,,,right,750,2.5,5.419634570106019e-05,1,3,1,2.5,767.5867547301343,None,765.5520373999607,765.8772502001375,766.5497646001168,766.8560605000239,767.5580689001363,767.8775333999656,right,1,2.7419181000441313,765.6106596000027,None,768.0917738000862,None,,,,,,,rehvhf,001,0,fr,2022-05-11_11h39.12.698,3-AFC_adaptive_staircase_mess,2022.1.1,35.51196894551821,
,,,,,7,0,7,0,13,0,13,0,,,,,,,,,,,,,,,,left,750,2.5,5.419634570106019e-05,1,3,1,2.5,769.9015643300256,770.1230212999508,769.8435685001314,770.1504876001272,770.8517190001439,771.1784343000036,771.8526922999881,772.1736109000631,right,0,3.3447147998958826,769.9040892000776,None,772.4101962000132,None,,,,,,,rehvhf,001,0,fr,2022-05-11_11h39.12.698,3-AFC_adaptive_staircase_mess,2022.1.1,35.51196894551821,
,,,,,7,0,7,0,14,0,14,0,,,,,,,,,,,,,,,,up,750,5.0,7.22719885372964e-05,1,3,1,2.5,775.7616344300798,775.9766571000218,774.7231672999915,775.0449918999802,775.703596400097,776.0028047000524,None,None,up,1,1.6326789997983724,774.7525711001363,None,None,None,,,,,,,rehvhf,001,0,fr,2022-05-11_11h39.12.698,3-AFC_adaptive_staircase_mess,2022.1.1,35.51196894551821,
,,,,,7,0,7,0,15,0,15,0,,,,,,,,,,,,,,,,right,750,5.0,7.22719885372964e-05,1,3,1,2.5,779.9155307299691,780.1304766000248,777.8669402999803,778.1820934999269,778.8698162999935,779.1948645999655,779.8588199999649,780.1614520000294,right,1,2.521572799887508,777.8953823000193,None,780.3977310000919,None,,,,,,,rehvhf,001,0,fr,2022-05-11_11h39.12.698,3-AFC_adaptive_staircase_mess,2022.1.1,35.51196894551821,
,,,,,7,0,7,0,16,0,16,0,,,,,,,,,,,,,,,,up,750,0.0,4.064152580820497e-05,-1,4,-1,-5.0,782.9476600300288,783.1646235000808,781.9063532000873,782.2300829000305,782.890219300054,783.1952986000106,783.8925640999805,784.2121657999232,right,0,3.1572500998154283,781.9634082000703,None,784.4413195999805,None,,,,,,,rehvhf,001,0,fr,2022-05-11_11h39.12.698,3-AFC_adaptive_staircase_mess,2022.1.1,35.51196894551821,
,,,,,7,0,7,0,17,0,17,0,,,,,,,,,,,,,,,,right,750,2.5,5.419634570106019e-05,1,5,1,2.5,788.654486529925,788.8671005999204,786.5906307001133,786.8936113999225,787.6135092000477,787.9360454999842,788.592708399985,788.8984713000245,right,1,2.5116323998663574,786.6567683999892,None,789.1435098999646,None,,,,,,,rehvhf,001,0,fr,2022-05-11_11h39.12.698,3-AFC_adaptive_staircase_mess,2022.1.1,35.51196894551821,
,,,,,7,0,7,0,18,0,18,0,,,,,,,,,,,,,,,,left,750,2.5,5.419634570106019e-05,1,5,1,2.5,790.6977063300321,None,790.6396808000281,790.9591367000248,791.6434267299949,None,None,None,left,1,0.9039464998058975,790.6973222000524,None,None,None,,,,,,,rehvhf,001,0,fr,2022-05-11_11h39.12.698,3-AFC_adaptive_staircase_mess,2022.1.1,35.51196894551821,
,,,,,7,0,7,0,19,0,19,0,,,,,,,,,,,,,,,,up,750,-2.5,3.0476844862008466e-05,-1,6,-1,-5.0,794.1279466300505,794.3527725001331,793.0896602000576,793.393697499996,794.0992608000524,794.4086404999252,795.0854969001375,795.3947310000658,up,1,2.995379699859768,793.1498457000125,None,795.6605011001229,None,,,,,,,rehvhf,001,0,fr,2022-05-11_11h39.12.698,3-AFC_adaptive_staircase_mess,2022.1.1,35.51196894551821,
,,,,,8,0,8,0,0,0,0,0,,,,,,,,,,,,,[],[],10,right,500,30,0.002259279721874612,0,0,-1,10,801.2471436301014,801.4761169000994,799.2190591001417,799.5252155999187,800.2045446999837,800.5095192000736,801.2184578001034,801.5316884000786,right,1,2.4173001998569816,799.2480258999858,None,None,None,up,1.4999870997853577,797.2359742999543,None,797.2359742999543,None,rehvhf,001,0,fr,2022-05-11_11h39.12.698,3-AFC_adaptive_staircase_mess,2022.1.1,35.51196894551821,
,,,,,8,0,8,0,1,0,1,0,,,,,,,,,,,,,,,,up,500,30,0.002259279721874612,0,0,-1,10,804.2045579300495,None,803.1482025999576,803.469737400068,804.1437297000084,804.4538017001469,None,None,up,1,1.324747100006789,803.2196164000779,None,None,None,,,,,,,rehvhf,001,0,fr,2022-05-11_11h39.12.698,3-AFC_adaptive_staircase_mess,2022.1.1,35.51196894551821,
,,,,,8,0,8,0,2,0,2,0,,,,,,,,,,,,,,,,up,500,10,0.0002259279721874612,-1,0,-1,-10,807.1058091299376,807.3216830000747,806.0555968000554,806.3615975999273,807.0455827999394,807.3529577001464,808.0567803999875,None,right,0,1.9852902998682112,806.1118370001204,None,None,None,,,,,,,rehvhf,001,0,fr,2022-05-11_11h39.12.698,3-AFC_adaptive_staircase_mess,2022.1.1,35.51196894551821,
,,,,,8,0,8,0,3,0,3,0,,,,,,,,,,,,,,,,left,500,15,0.0004017630610928086,1,1,1,5,809.6224021300907,809.8371957999188,809.5937163000926,809.8923158000689,810.5747774001211,None,None,None,left,1,1.065799799747765,809.6228668000549,None,None,None,,,,,,,rehvhf,001,0,fr,2022-05-11_11h39.12.698,3-AFC_adaptive_staircase_mess,2022.1.1,35.51196894551821,
,,,,,8,0,8,0,4,0,4,0,,,,,,,,,,,,,,,,left,500,15,0.0004017630610928086,1,1,1,5,812.2106265299255,None,812.1514372001402,812.4638619001489,None,None,None,None,left,1,0.7310959999449551,812.2138082999736,None,None,None,,,,,,,rehvhf,001,0,fr,2022-05-11_11h39.12.698,3-AFC_adaptive_staircase_mess,2022.1.1,35.51196894551821,
,,,,,8,0,8,0,5,0,5,0,,,,,,,,,,,,,,,,left,500,5,0.00012704863527746526,-1,2,-1,-5.0,814.4691259299173,814.6964988000691,814.4114214000292,814.7279544000048,815.4180956999771,815.7502622001339,816.4231682000682,816.7505535001401,right,0,2.971016699913889,814.4699625000358,None,816.9600033001043,None,,,,,,,rehvhf,001,0,fr,2022-05-11_11h39.12.698,3-AFC_adaptive_staircase_mess,2022.1.1,35.51196894551821,
,,,,,8,0,8,0,6,0,6,0,,,,,,,,,,,,,,,,right,500,7.5,0.00016942207806960129,1,3,1,2.5,820.9862433301053,821.2104549000505,818.9497428999748,819.2780206999741,819.9377749999985,820.2451434000395,820.9575575001072,821.2658069001045,right,1,2.4648019997403026,819.008211400127,None,821.509752429952,None,,,,,,,rehvhf,001,0,fr,2022-05-11_11h39.12.698,3-AFC_adaptive_staircase_mess,2022.1.1,35.51196894551821,
,,,,,8,0,8,0,7,0,7,0,,,,,,,,,,,,,,,,right,500,7.5,0.00016942207806960129,1,3,1,2.5,825.0261830300326,825.2544043001253,822.9495284000877,823.2625643999781,823.9692532001063,824.3069728000555,824.9594105000142,825.2806277999189,right,1,2.480965099763125,823.0074624000117,None,825.5098085000645,None,,,,,,,rehvhf,001,0,fr,2022-05-11_11h39.12.698,3-AFC_adaptive_staircase_mess,2022.1.1,35.51196894551821,
,,,,,8,0,8,0,8,0,8,0,,,,,,,,,,,,,,,,right,500,2.5,9.527303589816237e-05,-1,4,-1,-5.0,829.0336688299897,None,826.9731396001298,827.2991766999476,827.9927781000733,828.3046053000726,828.9756986000575,829.2953238000628,up,0,3.0448482998181134,827.0364943000022,None,829.5466368999332,None,,,,,,,rehvhf,001,0,fr,2022-05-11_11h39.12.698,3-AFC_adaptive_staircase_mess,2022.1.1,35.51196894551821,
,,,,,8,0,8,0,9,0,9,0,,,,,,,,,,,,,,,,right,500,5.0,0.00012704863527746526,1,5,1,2.5,833.645403130143,833.859612399945,831.6010582000017,831.9106612999458,832.585661200108,832.9135986000765,833.584725700086,833.8877604000736,up,0,2.909615899901837,831.6352645999286,None,834.1472787000239,None,,,,,,,rehvhf,001,0,fr,2022-05-11_11h39.12.698,3-AFC_adaptive_staircase_mess,2022.1.1,35.51196894551821,
,,,,,8,0,8,0,10,0,10,0,,,,,,,,,,,,,,,,right,500,7.5,0.00016942207806960129,1,5,1,2.5,838.0744511300466,None,836.0428210999817,836.3647767000366,837.0389342999551,837.3551787999459,838.0457653000485,838.3739577999804,right,1,2.5477070999331772,836.0775361999404,None,838.5869281999767,None,,,,,,,rehvhf,001,0,fr,2022-05-11_11h39.12.698,3-AFC_adaptive_staircase_mess,2022.1.1,35.51196894551821,
,,,,,8,0,8,0,11,0,11,0,,,,,,,,,,,,,,,,right,500,7.5,0.00016942207806960129,1,5,1,2.5,842.181259930064,842.3943390999921,840.1149102000054,840.4458318999968,841.1064089001156,841.4167442999315,842.1182540999725,842.4226673000958,right,1,2.364152899943292,840.1803894001059,None,None,None,,,,,,,rehvhf,001,0,fr,2022-05-11_11h39.12.698,3-AFC_adaptive_staircase_mess,2022.1.1,35.51196894551821,
,,,,,8,0,8,0,12,0,12,0,,,,,,,,,,,,,,,,left,500,2.5,9.527303589816237e-05,-1,6,-1,-5.0,844.0816687300569,None,844.0204064999707,844.3336762001272,845.0420125999954,845.3516927999444,846.020910799969,846.3458000000101,left,1,3.102482399903238,844.0829404001124,None,846.5874214000069,None,,,,,,,rehvhf,001,0,fr,2022-05-11_11h39.12.698,3-AFC_adaptive_staircase_mess,2022.1.1,35.51196894551821,
,,,,,9,0,9,0,0,0,0,0,,,,,,,,,,,,,[],[],10,left,250,30,0.005296268625886445,0,0,-1,10,849.7574644299923,None,849.7006626001094,850.0206035999581,850.6870677000843,None,None,None,left,1,0.8987068997230381,849.7580711001065,None,None,None,up,0.9977601997088641,848.2352008000016,None,848.2352008000016,None,rehvhf,001,0,fr,2022-05-11_11h39.12.698,3-AFC_adaptive_staircase_mess,2022.1.1,35.51196894551821,
,,,,,9,0,9,0,1,0,1,0,,,,,,,,,,,,,,,,up,250,30,0.005296268625886445,0,0,-1,10,853.2253473300254,None,852.1866707000881,852.4908773000352,853.1642835999373,853.4904521000572,None,None,up,1,1.4627491999417543,852.2184681000654,None,None,None,,,,,,,rehvhf,001,0,fr,2022-05-11_11h39.12.698,3-AFC_adaptive_staircase_mess,2022.1.1,35.51196894551821,
,,,,,9,0,9,0,2,0,2,0,,,,,,,,,,,,,,,,up,250,10,0.0005296268625886444,-1,0,-1,-10,856.223008630029,856.4413079000078,855.1633892001119,855.4845126001164,856.1640344001353,856.4727577001322,None,None,up,1,1.5719568997155875,855.2283741999418,None,None,None,,,,,,,rehvhf,001,0,fr,2022-05-11_11h39.12.698,3-AFC_adaptive_staircase_mess,2022.1.1,35.51196894551821,
,,,,,9,0,9,0,3,0,3,0,,,,,,,,,,,,,,,,up,250,10,0.0005296268625886444,-1,0,-1,-10,859.3425734300865,859.5607974000741,858.3173827999271,858.625356100034,859.3138876000885,859.6189776000101,None,None,up,1,1.4779334999620914,858.3472484999802,None,None,None,,,,,,,rehvhf,001,0,fr,2022-05-11_11h39.12.698,3-AFC_adaptive_staircase_mess,2022.1.1,35.51196894551821,
,,,,,9,0,9,0,4,0,4,0,,,,,,,,,,,,,,,,right,250,0,0.0001674827195789138,-1,0,-1,-10,863.3646494300804,None,861.315435100114,861.6193786000367,862.2990925000049,862.6264993001241,863.3050679001026,863.6313635001425,right,1,2.254802599782124,861.3454800001346,None,None,None,,,,,,,rehvhf,001,0,fr,2022-05-11_11h39.12.698,3-AFC_adaptive_staircase_mess,2022.1.1,35.51196894551821,
,,,,,9,0,9,0,5,0,5,0,,,,,,,,,,,,,,,,left,250,0,0.0001674827195789138,-1,0,-1,-10,865.1716872299323,865.3894215000328,865.1093081000727,865.4184870000463,866.1139186001383,866.4416298000142,867.1017575000878,867.434819099959,right,0,2.8569902000017464,865.1758745999541,None,867.6689200999681,None,,,,,,,rehvhf,001,0,fr,2022-05-11_11h39.12.698,3-AFC_adaptive_staircase_mess,2022.1.1,35.51196894551821,
,,,,,9,0,9,0,6,0,6,0,,,,,,,,,,,,,,,,up,250,5,0.0002978310717645052,1,1,1,5,870.5520502300235,870.7693785999436,869.5162827000022,869.8440644000657,870.5233644000255,870.8530488000251,871.5006284001283,871.8262614000123,up,1,2.9686098997481167,869.5763882000465,None,872.0595976000186,None,,,,,,,rehvhf,001,0,fr,2022-05-11_11h39.12.698,3-AFC_adaptive_staircase_mess,2022.1.1,35.51196894551821,
,,,,,9,0,9,0,7,0,7,0,,,,,,,,,,,,,,,,left,250,5,0.0002978310717645052,1,1,1,5,874.106999729923,None,874.0479623000138,874.3606302000117,875.0403971001506,None,None,None,left,1,0.9642862998880446,874.1083617999684,None,None,None,,,,,,,rehvhf,001,0,fr,2022-05-11_11h39.12.698,3-AFC_adaptive_staircase_mess,2022.1.1,35.51196894551821,
,,,,,9,0,9,0,8,0,8,0,,,,,,,,,,,,,,,,left,250,-5,9.418245447449e-05,-1,2,-1,-5.0,876.6063041299815,876.8254802001175,876.5483170999214,876.8577248000074,877.5479758000001,877.8476382999215,878.5444201999344,878.8609929999802,up,0,2.4378549000248313,876.6194420000538,None,879.1075840300648,None,,,,,,,rehvhf,001,0,fr,2022-05-11_11h39.12.698,3-AFC_adaptive_staircase_mess,2022.1.1,35.51196894551821,
,,,,,9,0,9,0,9,0,9,0,,,,,,,,,,,,,,,,up,250,-2.5,0.00012559432157547898,1,3,1,2.5,881.6033249301138,881.8303501999471,880.5540461000055,880.8591853000689,881.5746391001157,881.8904782999307,None,None,up,1,1.5768618998117745,880.6164353000931,None,None,None,,,,,,,rehvhf,001,0,fr,2022-05-11_11h39.12.698,3-AFC_adaptive_staircase_mess,2022.1.1,35.51196894551821,
,,,,,9,0,9,0,10,0,10,0,,,,,,,,,,,,,,,,right,250,-2.5,0.00012559432157547898,1,3,1,2.5,None,None,883.6833742000163,883.9854143999983,884.685542399995,884.9872719000559,None,None,up,0,1.5883103997912258,883.7404672000557,None,None,None,,,,,,,rehvhf,001,0,fr,2022-05-11_11h39.12.698,3-AFC_adaptive_staircase_mess,2022.1.1,35.51196894551821,
,,,,,9,0,9,0,11,0,11,0,,,,,,,,,,,,,,,,right,250,0.0,0.0001674827195789138,1,3,1,2.5,888.8663020300912,889.0865661001299,886.8072371999733,887.1302197000477,887.8206545999274,888.1320720999502,888.809086299967,889.1166787000839,right,1,2.3484953998122364,886.8689637000207,None,None,None,,,,,,,rehvhf,001,0,fr,2022-05-11_11h39.12.698,3-AFC_adaptive_staircase_mess,2022.1.1,35.51196894551821,
,,,,,9,0,9,0,12,0,12,0,,,,,,,,,,,,,,,,right,250,0.0,0.0001674827195789138,1,3,1,2.5,892.7469925299986,None,890.7018933999352,891.0307577999774,891.7131733000278,892.0153594000731,892.7183067000005,893.0373005999718,right,1,2.4221406998112798,890.7618981001433,None,None,None,,,,,,,rehvhf,001,0,fr,2022-05-11_11h39.12.698,3-AFC_adaptive_staircase_mess,2022.1.1,35.51196894551821,
,,,,,9,0,9,0,13,0,13,0,,,,,,,,,,,,,,,,up,250,-5.0,9.418245447449e-05,-1,4,-1,-5.0,895.7111904301448,895.9305491999257,894.6496628001332,894.9536600001156,895.6523089001421,895.9471843000501,896.64847990009,896.9498962000944,right,0,2.3983419998548925,894.705834900029,None,None,None,,,,,,,rehvhf,001,0,fr,2022-05-11_11h39.12.698,3-AFC_adaptive_staircase_mess,2022.1.1,35.51196894551821,
,,,,,9,0,9,0,14,0,14,0,,,,,,,,,,,,,,,,up,250,-2.5,0.00012559432157547898,1,5,1,2.5,899.65579723001,None,898.6031553000212,898.9313157000579,899.5971109000966,899.9109402000904,None,None,up,1,1.5302044998388737,898.630915600108,None,None,None,,,,,,,rehvhf,001,0,fr,2022-05-11_11h39.12.698,3-AFC_adaptive_staircase_mess,2022.1.1,35.51196894551821,
,,,,,9,0,9,0,15,0,15,0,,,,,,,,,,,,,,,,right,250,-2.5,0.00012559432157547898,1,5,1,2.5,903.7033603300108,None,901.6582715001423,901.9589044000022,902.6678067001048,902.9729542999994,903.6430679999758,903.9650872000493,right,1,2.8240570998750627,901.6893323000986,None,904.205420800019,None,,,,,,,rehvhf,001,0,fr,2022-05-11_11h39.12.698,3-AFC_adaptive_staircase_mess,2022.1.1,35.51196894551821,
,,,,,9,0,9,0,16,0,16,0,,,,,,,,,,,,,,,,left,250,-7.5,7.06268772311377e-05,-1,6,-1,-5.0,906.0645819301019,None,906.0026295001153,906.3188486001454,907.0132119001355,907.3316737001296,908.0177005000878,908.3485153000802,left,1,2.459980000043288,906.0686707999557,None,908.5536634000018,None,,,,,,,rehvhf,001,0,fr,2022-05-11_11h39.12.698,3-AFC_adaptive_staircase_mess,2022.1.1,35.51196894551821,
,,,,,10,0,10,0,0,0,0,0,,,,,,,,,,,,,[],[],10,up,125,30,0.02285440948074376,0,0,-1,10,911.9304079300957,None,910.8818580000661,911.1954346001148,911.8687508001458,912.1888707000762,None,None,up,1,1.5258569000288844,910.9400021999609,None,None,None,up,0.8198102996684611,909.6126513001509,None,909.6126513001509,None,rehvhf,001,0,fr,2022-05-11_11h39.12.698,3-AFC_adaptive_staircase_mess,2022.1.1,35.51196894551821,
,,,,,10,0,10,0,1,0,1,0,,,,,,,,,,,,,,,,up,125,30,0.02285440948074376,0,0,-1,10,914.995766030089,915.2098381000105,913.9715305001009,914.3088877999689,914.967080200091,915.2697060001083,None,None,up,1,1.5025115997996181,914.0021494000684,None,None,None,,,,,,,rehvhf,001,0,fr,2022-05-11_11h39.12.698,3-AFC_adaptive_staircase_mess,2022.1.1,35.51196894551821,
,,,,,10,0,10,0,2,0,2,0,,,,,,,,,,,,,,,,right,125,10,0.002285440948074376,-1,0,-1,-10,919.0362251300132,919.2569369999692,917.0048823999241,917.3165267999284,917.9874635001179,918.3171318001114,919.0075393000152,919.3184483000077,right,1,2.3246230997610837,917.0371531001292,None,None,None,,,,,,,rehvhf,001,0,fr,2022-05-11_11h39.12.698,3-AFC_adaptive_staircase_mess,2022.1.1,35.51196894551821,
,,,,,10,0,10,0,3,0,3,0,,,,,,,,,,,,,,,,up,125,10,0.002285440948074376,-1,0,-1,-10,921.9010130301351,None,920.8333739000373,921.1365694999695,921.8399599001277,922.1600866999943,None,None,up,1,1.4283531999681145,920.8926089999732,None,None,None,,,,,,,rehvhf,001,0,fr,2022-05-11_11h39.12.698,3-AFC_adaptive_staircase_mess,2022.1.1,35.51196894551821,
,,,,,10,0,10,0,4,0,4,0,,,,,,,,,,,,,,,,right,125,0,0.000722719885372964,-1,0,-1,-10,925.8539580299287,None,923.8173523000441,924.1227780000772,924.8187107001431,925.1427120999433,925.8252721999306,926.1493393001147,right,1,2.47591369994916,923.8449540999718,None,926.3544562299969,None,,,,,,,rehvhf,001,0,fr,2022-05-11_11h39.12.698,3-AFC_adaptive_staircase_mess,2022.1.1,35.51196894551821,
,,,,,10,0,10,0,5,0,5,0,,,,,,,,,,,,,,,,right,125,0,0.000722719885372964,-1,0,-1,-10,929.8409470300423,None,927.7999899999704,928.1250797000248,928.7984013999812,929.1134663000703,929.7917841000017,930.1006293999963,up,0,2.816239799838513,927.8570437999442,None,930.3694603999611,None,,,,,,,rehvhf,001,0,fr,2022-05-11_11h39.12.698,3-AFC_adaptive_staircase_mess,2022.1.1,35.51196894551821,
,,,,,10,0,10,0,6,0,6,0,,,,,,,,,,,,,,,,right,125,5,0.0012851978913844323,1,1,1,5,934.2173753300915,934.4486613001209,932.1629419999663,932.4657354000956,933.1606676999945,933.4882090999745,934.1604496999644,934.4785879000556,right,1,2.36400349996984,932.2282772001345,None,None,None,,,,,,,rehvhf,001,0,fr,2022-05-11_11h39.12.698,3-AFC_adaptive_staircase_mess,2022.1.1,35.51196894551821,
,,,,,10,0,10,0,7,0,7,0,,,,,,,,,,,,,,,,right,125,5,0.0012851978913844323,1,1,1,5,938.1339397299337,938.3569690000731,936.0571161000989,936.3545035000425,937.0736020000186,937.4049674000125,938.0705027000513,None,right,1,2.1989001997280866,936.1379742000718,None,None,None,,,,,,,rehvhf,001,0,fr,2022-05-11_11h39.12.698,3-AFC_adaptive_staircase_mess,2022.1.1,35.51196894551821,
,,,,,10,0,10,0,8,0,8,0,,,,,,,,,,,,,,,,left,125,-5,0.00040641525808204974,-1,2,-1,-5.0,939.8676754300716,940.0863743999507,939.808592800051,940.1191682999488,940.8104254999198,941.1420015001204,941.8416738000233,942.1765213001054,up,0,2.719971399754286,939.8724316000007,None,942.3792711000424,None,,,,,,,rehvhf,001,0,fr,2022-05-11_11h39.12.698,3-AFC_adaptive_staircase_mess,2022.1.1,35.51196894551821,
,,,,,10,0,10,0,9,0,9,0,,,,,,,,,,,,,,,,right,125,-2.5,0.000541963457010602,1,3,1,2.5,946.1248283299385,None,944.062074100133,944.3995006999467,945.082550900057,945.4077512000222,946.0755865999963,946.3839249999728,right,1,3.59642509999685,944.132726199925,None,946.619481800124,None,,,,,,,rehvhf,001,0,fr,2022-05-11_11h39.12.698,3-AFC_adaptive_staircase_mess,2022.1.1,35.51196894551821,
,,,,,10,0,10,0,10,0,10,0,,,,,,,,,,,,,,,,right,125,-2.5,0.000541963457010602,1,3,1,2.5,951.2569445301081,951.4724986001384,949.2038996999618,949.5291224000975,950.2257046999875,950.5492211000528,951.1989913000725,951.4890541001223,right,1,4.035004299832508,949.262359400047,None,951.7614655001089,None,,,,,,,rehvhf,001,0,fr,2022-05-11_11h39.12.698,3-AFC_adaptive_staircase_mess,2022.1.1,35.51196894551821,
,,,,,10,0,10,0,11,0,11,0,,,,,,,,,,,,,,,,up,125,-7.5,0.0003047684486200847,-1,4,-1,-5.0,955.8347549300408,956.0537980999798,954.808834000025,955.1337510999292,955.7751162999775,956.0796795999631,956.7737885999959,957.0989775999915,up,1,2.889223799807951,954.8387045999989,None,957.3352111000568,None,,,,,,,rehvhf,001,0,fr,2022-05-11_11h39.12.698,3-AFC_adaptive_staircase_mess,2022.1.1,35.51196894551821,
,,,,,10,0,10,0,12,0,12,0,,,,,,,,,,,,,,,,left,125,-7.5,0.0003047684486200847,-1,4,-1,-5.0,959.2645277301083,959.4765627000015,959.2060440001078,959.5039093000814,960.2034756001085,960.5291737001389,961.2067360000219,961.52879510005,right,0,2.303223699796945,959.2655837999191,None,None,None,,,,,,,rehvhf,001,0,fr,2022-05-11_11h39.12.698,3-AFC_adaptive_staircase_mess,2022.1.1,35.51196894551821,
,,,,,10,0,10,0,13,0,13,0,,,,,,,,,,,,,,,,right,125,-5.0,0.00040641525808204974,1,5,1,2.5,965.1004750299501,965.3163709000219,963.0596916999202,963.3840906000696,964.0480742000509,964.3631446999498,965.071789199952,965.3727641999722,left,0,2.515740699833259,963.1172523000278,None,965.6080668000504,None,,,,,,,rehvhf,001,0,fr,2022-05-11_11h39.12.698,3-AFC_adaptive_staircase_mess,2022.1.1,35.51196894551821,
,,,,,10,0,10,0,14,0,14,0,,,,,,,,,,,,,,,,up,125,-2.5,0.000541963457010602,1,5,1,2.5,968.1373429300031,968.3538820999674,967.0855225000996,967.4131398999598,968.080887600081,968.3820972000249,969.0829129000194,969.4087708999868,up,1,2.37492399988696,967.1462390001398,None,None,None,,,,,,,rehvhf,001,0,fr,2022-05-11_11h39.12.698,3-AFC_adaptive_staircase_mess,2022.1.1,35.51196894551821,
,,,,,10,0,10,0,15,0,15,0,,,,,,,,,,,,,,,,right,125,-2.5,0.000541963457010602,1,5,1,2.5,973.0698119301117,973.2915970000904,971.0178388999775,971.3397468000185,972.0134517000988,972.3421201000456,973.0130078000948,973.3204227001406,left,0,3.5799492998048663,971.045321600046,None,973.5549886999652,None,,,,,,,rehvhf,001,0,fr,2022-05-11_11h39.12.698,3-AFC_adaptive_staircase_mess,2022.1.1,35.51196894551821,
,,,,,10,0,10,0,16,0,16,0,,,,,,,,,,,,,,,,up,125,0.0,0.000722719885372964,1,5,1,2.5,977.1832685299917,977.4076881001238,976.1291315001436,976.453202500008,977.1254245000891,977.4348029000685,None,None,up,1,1.728625499876216,976.191622100072,None,None,None,,,,,,,rehvhf,001,0,fr,2022-05-11_11h39.12.698,3-AFC_adaptive_staircase_mess,2022.1.1,35.51196894551821,
,,,,,10,0,10,0,17,0,17,0,,,,,,,,,,,,,,,,right,125,0.0,0.000722719885372964,1,5,1,2.5,981.4777171301423,981.6946511999704,979.4230428000446,979.7243948001415,980.4204355000984,980.7530352999456,981.4170417001005,981.7261342999991,right,1,2.247533399844542,979.4817659999244,None,None,None,,,,,,,rehvhf,001,0,fr,2022-05-11_11h39.12.698,3-AFC_adaptive_staircase_mess,2022.1.1,35.51196894551821,
,,,,,10,0,10,0,18,0,18,0,,,,,,,,,,,,,,,,left,125,-5.0,0.00040641525808204974,-1,6,-1,-5.0,983.2789840299404,983.5054262001067,983.2202262000646,983.5424689999782,984.2491136000026,984.5801898001228,985.2229742999189,985.551384499995,right,0,2.332692899974063,983.2836957999971,None,None,None,,,,,,,rehvhf,001,0,fr,2022-05-11_11h39.12.698,3-AFC_adaptive_staircase_mess,2022.1.1,35.51196894551821,
,,,,,,,,,,,,,,,,,,,,,,,,,,,,,,,,,,,,,,,,,,,,,,,,,,,up,0.9761152998544276,986.6731257999782,None,986.6731257999782,None,,,,,,,,,
