sweeps.thisRepN,sweeps.thisTrialN,sweeps.thisN,sweeps.thisIndex,trials.thisRepN,trials.thisTrialN,trials.thisN,trials.thisIndex,instructions.started,instructions.stopped,blank_text.started,blank_text.stopped,Intervals,text.started,text.stopped,Delay,Prediction,Frequency,Volume,Psychopy_level,isCatchTrial,len(y),finished_audiograms,probe.started,probe.stopped,feedback.keys,feedback.started,feedback.stopped,ISI.started,ISI.stopped,text_2.started,text_2.stopped,feedback.rt,break_txt.started,break_txt.stopped,Audiogram_none,,Audiogram_both,Audiogram_frequency,Audiogram_time,participant,session,language (english or french),Resume previous experiment,date,expName,psychopyVersion,frameRate,
0,0,0,0,0,0,0,0,19.724961000028998,None,22.332308399956673,None,"[0.5833333333333334, 0.16666666666666666, 0.5833333333333334, 0.5833333333333334, 0.16666666666666666, 0.5833333333333334, 0.5833333333333334, 0.3333333333333333, 0.16666666666666666, 0.5833333333333334, 0.16666666666666666, 0.16666666666666666, 0.3333333333333333, 0.5833333333333334, 0.3333333333333333]",26.260558699956164,None,2.992529504776095,time,5042.0,17.376806282492577,0.001117851738560421,0,42,[],0.022814849857240915,None,None,27.287425299873576,None,0.22783184982836246,3.2203613546044574,27.501142399851233,None,,,,,,,,,luctew,001,fr,1,2022-05-12_14h56.18.810,Continuous,2022.1.1,None,
0,0,0,0,1,0,1,0,,,,,,,,2.992529504776095,time,3365.0,6.661773260969593,0.0001567401803038043,0,43,[],0.020929950289428234,None,['space'],30.514489699853584,30.514489699853584,0.2209695503115654,3.2134990550876603,30.73487879987806,30.514489699853584,[-2.536368900211528],,,,,,,,luctew,001,fr,1,2022-05-12_14h56.18.810,Continuous,2022.1.1,None,
0,0,0,0,2,0,2,0,,,,,,,,2.992529504776095,time,,,,1,43,[],0.023182150209322572,None,['space'],33.75052979984321,33.75052979984321,0.2290671500377357,3.2215966548138306,33.963207999942824,33.75052979984321,[-2.907897900091484],,,,,,,,luctew,001,fr,1,2022-05-12_14h56.18.810,Continuous,2022.1.1,None,
0,0,0,0,3,0,3,0,,,,,,,,2.992529504776095,time,2671.0,22.53291558439673,0.001007538644001873,0,44,[],0.024289650144055486,None,['space'],36.973791299853474,36.973791299853474,0.23431485006585717,3.226844354841952,37.19192530005239,36.973791299853474,[-0.08354260004125535],,,,,,,,luctew,001,fr,1,2022-05-12_14h56.18.810,Continuous,2022.1.1,None,
0,0,0,0,4,0,4,0,,,,,,,,2.992529504776095,time,1001.0,18.97799717760439,0.0003919963503437056,0,45,[],0.01568194990977645,None,None,40.211428199894726,40.211428199894726,0.21138545009307563,3.2039149548691706,40.4297127998434,40.211428199894726,,,,,,,,,luctew,001,fr,1,2022-05-12_14h56.18.810,Continuous,2022.1.1,None,
0,0,0,0,5,0,5,0,,,,,,,,2.992529504776095,time,668.0,13.222678281962478,0.00021920750763276437,0,46,[],0.022369550075381994,None,['space'],43.44998229993507,43.44998229993507,0.22420475003309548,3.2167342548091904,43.66675249999389,43.44998229993507,[-2.8962811999954283],,,,,,,,luctew,001,fr,1,2022-05-12_14h56.18.810,Continuous,2022.1.1,None,
0,0,0,0,6,0,6,0,,,,,,,,2.992529504776095,time,1415.0,17.643199794307474,0.0003843270404900062,0,47,[],0.022504750173538923,None,['space'],46.67817689990625,46.67817689990625,0.25421445025131106,3.246743955027406,46.91148620005697,46.67817689990625,[-0.516283999895677],,,,,,,,luctew,001,fr,1,2022-05-12_14h56.18.810,Continuous,2022.1.1,None,
0,0,0,0,7,0,7,0,,,,,,,,2.992529504776095,time,6353.0,17.978749963242564,0.001042896836083381,0,48,[],0.022492150077596307,None,['space'],49.92998469993472,49.92998469993472,0.2445026501081884,3.2370321548842833,50.15397659991868,49.92998469993472,[-2.5676847000140697],,,,,,,,luctew,001,fr,1,2022-05-12_14h56.18.810,Continuous,2022.1.1,None,
0,0,0,0,8,0,8,0,,,,,,,,2.992529504776095,time,265.0,20.736477929569368,0.0016500571661658117,0,49,[],0.014990850118920207,None,"['space', 'space']",53.17169680004008,53.17169680004008,0.22212054999545217,3.214650054771547,53.38787680002861,53.17169680004008,"[-2.9462854999583215, -0.2014729999937117]",,,,,,,,luctew,001,fr,1,2022-05-12_14h56.18.810,Continuous,2022.1.1,None,
0,0,0,0,9,0,9,0,,,,,,,,2.992529504776095,time,446.0,16.571032524684078,0.0005000097689597738,0,50,[],0.022772150114178658,None,None,56.40734090004116,56.40734090004116,0.228979550069198,3.221509054845293,56.62000029999763,56.40734090004116,,,,,,,,,luctew,001,fr,1,2022-05-12_14h56.18.810,Continuous,2022.1.1,None,
0,0,0,0,10,0,10,0,,,,,,,,2.992529504776095,time,1261.0,12.493037377426493,0.00022852860430476712,0,51,[],0.02270324993878603,None,['space'],59.63596049998887,59.63596049998887,0.22626224998384714,3.218791754759942,59.84959469991736,59.63596049998887,[-2.8738641999661922],,,,,,,,luctew,001,fr,1,2022-05-12_14h56.18.810,Continuous,2022.1.1,None,
0,0,0,0,11,0,11,0,,,,,,,,2.992529504776095,time,177.0,23.0,0.004932689959622453,0,52,[],0.020084650022909045,None,['space'],62.866062300046906,62.866062300046906,0.2201761498581618,3.2127056546342567,63.08644620003179,62.866062300046906,[-2.9201905000954866],,,,,,,,luctew,001,fr,1,2022-05-12_14h56.18.810,Continuous,2022.1.1,None,
0,0,0,0,12,0,12,0,,,,,,,,2.992529504776095,time,158.0,12.369232567699486,0.0017817426248992589,0,53,[],0.02203985000960529,None,['space'],66.10666109994054,66.10666109994054,0.22503624996170402,3.217565754737799,66.32377070002258,66.10666109994054,[-2.863650199957192],,,,,,,,luctew,001,fr,1,2022-05-12_14h56.18.810,Continuous,2022.1.1,None,
0,0,0,0,13,0,13,0,,,,,,,,2.992529504776095,time,2380.0,17.21828712038861,0.0006042576373474197,0,54,[],0.022155750077217817,None,['space'],69.3382381000556,69.3382381000556,0.225993350148201,3.218522854924296,69.54870170005597,69.3382381000556,[-2.9283251999877393],,,,,,,,luctew,001,fr,1,2022-05-12_14h56.18.810,Continuous,2022.1.1,None,
0,0,0,0,14,0,14,0,,,,,,,,2.992529504776095,time,2120.0,19.74281487637694,0.0007521157823342574,0,55,[],0.022394950268790126,None,['space'],72.56366409990005,72.56366409990005,0.2309215501882136,3.2234510549643085,72.78125820006244,72.56366409990005,[-2.8821852998808026],,,,,,,,luctew,001,fr,1,2022-05-12_14h56.18.810,Continuous,2022.1.1,None,
1,0,1,0,0,0,0,0,,,,,"[0.3333333333333333, 0.16666666666666666, 0.5833333333333334, 0.16666666666666666, 0.3333333333333333, 0.5833333333333334, 0.3333333333333333, 0.3333333333333333, 0.16666666666666666, 0.16666666666666666, 0.16666666666666666, 0.16666666666666666, 0.16666666666666666, 0.3333333333333333, 0.5833333333333334]",83.90687479986809,None,1.8887076660193787,none,125.0,0.0,0.000722719885372964,0,118,['none'],0.023957449942827225,None,['space'],84.92360339988954,None,0.22288485011085868,2.111592516130237,85.13601500005461,None,[-4.0092690999154],75.79420130001381,None,"{'estimation': [[125.0, 0.7969123171631864], [126.1313968899241, 1.0], [132.02869222158753, 2.0], [133.9716828170366, 2.3079083651370413], [137.82648988706302, 3.0], [143.57212249061362, 4.0], [143.5872943746293, 4.0025801406363986], [149.93130335516668, 5.0], [153.8930516681145, 5.605402548348754], [157.36762804034214, 6.0], [164.93848884661162, 6.82615404594654], [168.141255403703, 7.0], [176.77669529663666, 7.444943628034864], [189.46457081379947, 7.389911983626781], [197.98205079686514, 7.0], [203.0630990890585, 6.778291874528481], [215.90011224276387, 6.0], [217.6376408240306, 5.898805940351082], [233.25824788420132, 5.132311654679371], [240.59338799009055, 5.0], [249.99999999999937, 4.8362322047629105], [257.2728052371258, 5.0], [267.94336563407256, 5.231782125170804], [281.36979657884365, 6.0], [287.1745887492579, 6.322294137503468], [295.974621711315, 7.0], [307.78610333622805, 7.887797223766941], [309.2507467506309, 8.0], [322.47219169592444, 9.0], [329.87697769322244, 9.546344970348366], [337.8675463577519, 10.0], [353.55339059327247, 10.865285408307757], [358.84521296522774, 11.0], [378.929141627598, 11.492256374884048], [406.12619817811606, 11.253830107834144], [412.93003258675293, 11.0], [435.2752816480601, 10.205812134131111], [439.1782331410438, 10.0], [458.6818884939764, 9.0], [466.5164957684015, 8.61343252503656], [478.12396712845566, 8.0], [497.5256025231927, 7.0], [499.9999999999975, 6.875324195093075], [521.2372792021051, 6.0], [535.8867312681438, 5.4086441511548236], [553.6188481223795, 5.0], [574.3491774985143, 4.531037206149593], [615.5722066724546, 4.370572473731086], [659.7539553864432, 4.826978871605225], [669.8574361955428, 5.0], [707.1067811865431, 5.606498305711053], [734.5815886165794, 6.0], [757.8582832551941, 6.316638523181355], [812.2523963562301, 6.597449965436719], [870.5505632961181, 6.24914634377867], [886.5260973929359, 6.0], [933.0329915368008, 5.298972814263294], [948.0881065808036, 5.0], [999.5587870494778, 4.0], [999.9999999999914, 3.9915922042809084], [1054.6386331863214, 3.0], [1071.773462536285, 2.6937865038789464], [1128.224575357022, 2.0], [1148.698354997026, 1.7517254036488352], [1231.1444133449063, 1.3568697586209448], [1319.5079107728832, 1.4720676741675294], [1414.2135623730846, 1.8506275279046895], [1466.593441575511, 2.0], [1515.7165665103864, 2.1335595426265868], [1616.1600868645944, 2.0], [1624.5047927124563, 1.989180834894997], [1741.1011265922298, 1.2408581424105516], [1763.8768489490008, 1.0], [1859.679733971209, 0.0], [1866.065983073597, -0.0657883927319975], [1943.0121285923583, -1.0], [1999.9999999999802, -1.6748843121834436], [2029.925462760543, -2.0], [2124.57897300761, -3.0], [2143.5469250725646, -3.194501233016939], [2264.7766382580253, -4.0], [2297.396709994046, -4.207057569557607], [2462.2888266898062, -4.375521115640758], [2537.316365965712, -4.0], [2639.01582154576, -3.519379422091427], [2690.0287910241664, -3.0], [2791.693755704677, -2.0], [2828.427124746159, -1.6523821007828676], [2877.0271872230737, -1.0], [2952.2771258042317, 0.0], [3029.9549753451392, 1.0], [3031.4331330207615, 1.0186401527559767], [3099.3543801170504, 2.0], [3168.7180815599236, 3.0], [3239.769429449416, 4.0], [3249.0095854249043, 4.127594545240841], [3314.5129042387357, 5.0], [3389.5970704715296, 6.0], [3466.2753061787807, 7.0], [3482.2022531844555, 7.203863393198505], [3559.1358948290253, 8.0], [3656.7659100023907, 9.0], [3732.13196614718, 9.752359898979321], [3772.7572183960647, 10.0], [3940.1988634274485, 11.0], [3999.9999999999504, 11.347037206391411], [4287.093850145118, 11.716939087789527], [4529.927777668819, 11.0], [4594.793419988081, 10.816997883690068], [4727.790017929544, 10.0], [4897.019974163464, 9.0], [4924.577653379601, 8.842561096667858], [5033.904177204291, 8.0], [5166.39836717051, 7.0], [5278.031643091506, 6.189252948169692], [5302.76905474498, 6.0], [5434.094623426844, 5.0], [5567.977781696622, 4.0], [5656.854249492303, 3.3576019489746036], [5713.550616379575, 3.0], [5872.728965512552, 2.0], [6035.354911156485, 1.0], [6062.866266041508, 0.8344579514087977], [6256.862973256537, 0.0], [6493.888114861232, -1.0], [6498.019170849792, -1.0171407429065198], [6950.868931028688, -2.0], [6964.404506368894, -2.028625023875104], [7464.2639322943505, -2.2325600366972833], [7764.9437965720035, -2.0], [7999.999999999882, -1.8179320022246812]], 'plus_line': [[125.00000000000007, -8.987489952791437], [129.54398300475447, -8.0], [133.9716828170366, -7.066303906284722], [134.3357040279045, -7.0], [139.92402584332834, -6.0], [143.5872943746293, -5.348692853662914], [145.82450447891011, -5.0], [152.30693077578638, -4.0], [153.89305166811442, -3.7602129543062492], [160.20737005789243, -3.0], [164.9384888466117, -2.448742167031067], [171.38222686097075, -2.0], [176.77669529663666, -1.6489114142829195], [189.46457081379947, -1.5291381594140363], [202.14911132104493, -2.0], [203.0630990890585, -2.033428911979203], [217.6376408240306, -2.8906675345213064], [219.79039198233414, -3.0], [233.25824788420132, -3.6716046783787766], [249.99999999999937, -3.9687914537809825], [267.94336563407256, -3.5793150850021416], [278.137810202504, -3.0], [287.1745887492579, -2.502482691200229], [293.90722283447695, -2.0], [307.36910368278023, -1.0], [307.78610333622805, -0.9698034440655836], [321.1057522575505, 0.0], [329.876977693222, 0.6368306930746401], [336.3407397543322, 1.0], [353.55339059327247, 1.9479077494890018], [355.4228572590992, 2.0], [378.929141627598, 2.6161415671756796], [406.12619817811606, 2.470236855718798], [420.0437687350797, 2.0], [435.2752816480601, 1.5044950426534829], [444.8452889913549, 1.0], [464.8376455007058, 0.0], [466.5164957684015, -0.08165056716417043], [482.596795378894, -1.0], [499.9999999999975, -1.9334333749918624], [501.4098129770562, -2.0], [522.6531950135542, -3.0], [535.8867312681438, -3.5964900089144427], [550.5292017341096, -4.0], [574.3491774985143, -4.646525581134652], [615.5722066724546, -4.8681857848735035], [659.7539553864432, -4.339588782497308], [675.938799716223, -4.0], [707.1067811865431, -3.3850516841632494], [727.7651114136859, -3.0], [757.8582832551941, -2.4759926983651317], [812.2523963562301, -2.0289021360055695], [870.5505632961181, -2.2975245653811562], [915.8239225637873, -3.0], [933.0329915368008, -3.259017911342225], [966.9648636379757, -4.0], [999.9999999999926, -4.691951789889698], [1014.3371397924251, -5.0], [1061.714854268411, -6.0], [1071.773462536285, -6.2081109932360174], [1123.3301853731984, -7.0], [1148.6983549970246, -7.384131362113347], [1231.1444133449063, -7.913290545848966], [1319.5079107728832, -7.793466765847295], [1414.2135623730828, -7.3153616249581574], [1502.0213300359894, -7.0], [1515.7165665103846, -6.954429889754912], [1540.793578005035, -7.0], [1624.5047927124563, -7.154878675605362], [1731.320462126323, -8.0], [1741.1011265922318, -8.076623169684538], [1815.8194399512624, -9.0], [1866.065983073597, -9.595619360200258], [1896.017101388858, -10.0], [1972.5817808994736, -11.0], [1999.9999999999802, -11.344493675336647], [2059.3514712544597, -12.0], [2143.5469250725646, -12.873950945153652], [2164.5463039416377, -13.0], [2297.396709994046, -13.762909048686609], [2462.2888266898062, -13.69812944991424], [2569.254535844162, -13.0], [2639.01582154576, -12.573113860173727], [2690.5338557518635, -12.0], [2781.4831745210145, -11.0], [2828.427124746159, -10.498460643148874], [2865.778429410892, -9.999999999999998], [2939.7496370117688, -9.0], [3012.802108769948, -8.0], [3031.433133020758, -7.751716647847701], [3086.889032934851, -7.0], [3158.0596516481623, -6.0], [3227.733173640735, -5.0], [3249.0095854249043, -4.700869747003756], [3306.2308839888265, -4.0], [3385.0038682155514, -3.0], [3461.905086821207, -2.0], [3482.2022531844555, -1.7409274500490421], [3559.2471864679146, -1.0], [3660.5366454243635, 0.0], [3732.1319661471844, 0.7088332062992975], [3781.8062456545886, 1.0], [3953.988698686335, 2.0], [3999.9999999999504, 2.2624553910150937], [4287.093850145118, 2.6482697851346826], [4524.301861231822, 2.0], [4594.793419988081, 1.8128178150215224], [4730.740114598051, 1.0], [4911.076738416251, 0.0], [4924.577653379601, -0.07248950039253518], [5043.799372792021, -1.0], [5180.617397869993, -2.0], [5278.0316430915, -2.663431053082256], [5320.329312162287, -3.0], [5447.399965988802, -4.0], [5583.544986349679, -5.0], [5656.854249492303, -5.507758898996862], [5729.250628083453, -6.0], [5879.351925417868, -7.0], [6040.918165094172, -8.0], [6062.866266041508, -8.13197414028047], [6246.607348154692, -9.0], [6471.632012899635, -10.000000000000002], [6498.019170849792, -10.114377812036114], [6876.927525267436, -11.0], [6964.404506368894, -11.197869388097587], [7464.2639322943505, -11.452044410654867], [7999.999999999892, -11.328584529183885]], 'minus_line': [[125.0, 10.32776472479101], [130.12839279462622, 11.0], [133.9716828170366, 11.465011625732686], [136.82600867794568, 12.0], [142.41664299606282, 13.0], [143.5872943746293, 13.2023806155524], [148.26512245861417, 14.0], [153.89305166811442, 14.90829951109672], [154.70229614268686, 15.0], [163.81667524204073, 16.0], [164.93848884661162, 16.118702088352876], [176.77669529663666, 16.610499169497327], [189.46457081379947, 16.385820565065067], [196.22440460881677, 16.0], [203.0630990890585, 15.634701979546973], [212.42967400098894, 15.0], [217.6376408240306, 14.664386271765744], [230.04323410086266, 14.0], [233.25824788420132, 13.836881479919391], [249.99999999999937, 13.508111546686552], [267.94336563407256, 13.900027033535018], [269.56503189324695, 14.0], [286.24199615772943, 15.0], [287.1745887492579, 15.054472622705783], [298.3808339631467, 16.0], [307.78610333622805, 16.75125136006812], [310.74382699104405, 17.0], [322.8248586393037, 18.0], [329.87697769322244, 18.557140906662358], [337.11844983207675, 19.0], [353.55339059327247, 19.964377436570494], [354.98710736704896, 20.0], [378.929141627598, 20.586504457363183], [406.12619817811606, 20.231633062923734], [411.4973999544398, 20.0], [435.2752816480601, 19.018545003757303], [435.6042625998279, 19.0], [453.8201634067751, 18.0], [466.5164957684015, 17.314567123495095], [472.4621042822263, 17.0], [491.54494964143004, 16.0], [499.9999999999975, 15.56402205413811], [514.5258110887453, 15.0], [535.8867312681438, 14.178426528086472], [544.6002414392392, 14.0], [574.3491774985143, 13.414145725603474], [615.5722066724546, 13.313536552218425], [659.7539553864432, 13.746425788777252], [676.7004942499999, 14.0], [707.1067811865431, 14.444454561417668], [753.3828450538394, 15.0], [757.8582832551951, 15.052858995550627], [812.2523963562301, 15.263689533850577], [850.4843333156658, 15.0], [870.5505632961181, 14.871120869237025], [927.8513086982125, 14.0], [933.0329915368008, 13.924097652044367], [983.0602669015911, 13.0], [999.9999999999926, 12.692339185261812], [1042.5253263377144, 12.0], [1071.773462536285, 11.530918658037098], [1121.9600284504231, 11.0], [1148.6983549970273, 10.726625329715324], [1231.1444133449063, 10.389198886811242], [1319.5079107728832, 10.435993672492486], [1414.2135623730828, 10.67018648910313], [1515.7165665103846, 10.847071499516368], [1624.5047927124563, 10.730157849111915], [1741.1011265922318, 10.125482324992934], [1754.835943566439, 10.0], [1865.3407270573396, 9.0], [1866.0659830735945, 8.9935299045074], [1955.834418599494, 8.0], [1999.9999999999802, 7.511061185934967], [2048.499413208745, 7.0], [2143.5469250725646, 6.004186001016351], [2144.113680097378, 6.0], [2284.58152685394, 5.000000000000001], [2297.3967099940432, 4.9121401061785335], [2462.2888266898062, 4.605533873062418], [2557.319024556129, 5.0], [2639.01582154576, 5.330028071882089], [2705.4902813823237, 6.0], [2810.768121812435, 7.0], [2828.427124746159, 7.162299715621508], [2886.218151630415, 8.0], [2957.936063076925, 9.0], [3031.4331330207615, 9.952408276329537], [3034.3994235722917, 10.0], [3095.630603415091, 11.0], [3159.091600119145, 12.0], [3226.8691135585627, 13.0], [3249.0095854249043, 13.31506356293108], [3294.1957889161645, 14.0], [3361.1897584165445, 15.0], [3431.970300404026, 16.0], [3482.2022531844596, 16.671196415837898], [3510.645481192365, 17.0], [3597.8092504485994, 18.0], [3690.372862058104, 19.0], [3732.1319661471844, 19.433050635601994], [3819.259516160366, 20.0], [3980.9371294621355, 21.0], [3999.999999999946, 21.114890611182087], [4287.093850145118, 21.454972376269282], [4417.993919053788, 21.0], [4594.793419988081, 20.41574687020008], [4656.963979577356, 20.0], [4807.838458317959, 19.0], [4924.577653379601, 18.235907199050892], [4954.027497076096, 18.0], [5078.943251940996, 17.0], [5201.630523604204, 16.0], [5278.031643091506, 15.387005146125547], [5329.0005540696775, 15.0], [5459.121514661379, 14.0], [5586.218376315292, 13.0], [5656.854249492303, 12.45173809629042], [5731.726903923533, 12.0], [5894.945094791666, 11.0], [6054.695673201114, 10.0], [6062.866266041516, 9.950054327968182], [6301.263979831481, 9.0], [6498.019170849792, 8.203903374404177], [6598.985615832936, 8.0], [6964.404506368894, 7.282975856101701], [7464.2639322943505, 7.180100140445244], [7999.999999999882, 7.953583551991583]]}",,,,,luctew,001,fr,1,2022-05-12_14h56.18.810,Continuous,2022.1.1,None,
1,0,1,0,1,0,1,0,,,,,,,,2.769391168427307,none,445.0,6.479403296125001,0.00015656546777599053,0,119,['none'],0.013263750122860074,None,None,87.05699029983953,87.05699029983953,0.2185990500729531,2.98799021850026,87.27301270002499,87.05699029983953,,,,,,,,,luctew,001,fr,1,2022-05-12_14h56.18.810,Continuous,2022.1.1,None,
1,0,1,0,2,0,2,0,,,,,,,,1.7155127490118816,none,297.0,9.126301828188137,0.0003365553453562281,0,120,['none'],0.021463749930262566,None,['space'],90.07083679991774,90.07083679991774,0.22713855002075434,1.942651299032636,90.28258070000447,90.07083679991774,[-2.3483150999527425],,,,,,,,luctew,001,fr,1,2022-05-12_14h56.18.810,Continuous,2022.1.1,None,
1,0,1,0,3,0,3,0,,,,,,,,1.398764051434,none,794.0,4.191355316306947,6.260584349160629e-05,0,121,['none'],0.020339950220659375,None,['space'],92.0296551999636,92.0296551999636,0.23310535005293787,1.631869401486938,92.24804649990983,92.0296551999636,[-1.555227299919352],,,,,,,,luctew,001,fr,1,2022-05-12_14h56.18.810,Continuous,2022.1.1,None,
1,0,1,0,4,0,4,0,,,,,,,,1.7483064068899594,none,1000.0,1.96567669050547,5.524002149016335e-05,0,122,['none'],0.02126065012998879,None,None,93.67417049990036,93.67417049990036,0.2273705501575023,1.9756769570474617,93.8869908999186,93.67417049990036,,,,,,,,,luctew,001,fr,1,2022-05-12_14h56.18.810,Continuous,2022.1.1,None,
1,0,1,0,5,0,5,0,,,,,,,,1.9465556737817193,none,210.0,2.572899829679891,0.00033060983757832743,0,123,['none'],0.020354150095954537,None,None,95.66704949992709,95.66704949992709,0.22815864998847246,2.174714323770192,95.87892839987762,95.66704949992709,,,,,,,,,luctew,001,fr,1,2022-05-12_14h56.18.810,Continuous,2022.1.1,None,
1,0,1,0,6,0,6,0,,,,,,,,2.0764943949672348,none,236.0,5.4742539926563865,0.00036605799500545713,0,124,['none'],0.021225349977612495,None,None,97.84710459993221,97.84710459993221,0.23089844989590347,2.3073928448631382,98.0674661998637,97.84710459993221,,,,,,,,,luctew,001,fr,1,2022-05-12_14h56.18.810,Continuous,2022.1.1,None,
1,0,1,0,7,0,7,0,,,,,,,,2.9612648129597807,none,891.0,10.207053669675442,0.00013263370865937036,0,125,['none'],0.012716949917376041,None,['space'],100.17205629986711,100.17205629986711,0.21209804993122816,3.173362862891009,100.39301009988412,100.17205629986711,[-1.906221600016579],,,,,,,,luctew,001,fr,1,2022-05-12_14h56.18.810,Continuous,2022.1.1,None,
1,0,1,0,8,0,8,0,,,,,,,,1.281720144474762,none,140.0,1.7143340151382365,0.0007177330765999233,0,126,['none'],0.021123950136825442,None,None,103.3842760999687,103.3842760999687,0.22259004996158183,1.5043101944363437,103.59843200002797,103.3842760999687,,,,,,,,,luctew,001,fr,1,2022-05-12_14h56.18.810,Continuous,2022.1.1,None,
1,0,1,0,9,0,9,0,,,,,,,,1.2485594337842296,none,707.0,8.901761632099808,0.00012376318069395523,0,127,['none'],0.017018849961459637,0.21423335000872612,None,104.91052819998004,104.91052819998004,0.21423335000872612,1.4627927837929557,105.13012410001829,104.91052819998004,,,,,,,,,luctew,001,fr,1,2022-05-12_14h56.18.810,Continuous,2022.1.1,None,
1,0,1,0,10,0,10,0,,,,,,,,1.6415074431933518,none,1122.0,7.475459631312069,0.00011623684105768959,0,128,['none'],0.01612825016491115,None,['space'],106.39631800004281,106.39631800004281,0.21698005008511245,1.8584874932784643,106.6112804999575,106.39631800004281,[-1.1948975000996143],,,,,,,,luctew,001,fr,1,2022-05-12_14h56.18.810,Continuous,2022.1.1,None,
1,0,1,0,11,0,11,0,,,,,,,,1.7376218908572472,none,,,,1,128,['none'],0.014659350039437413,None,None,108.28503919998184,108.28503919998184,0.20998994982801378,1.947611840685261,108.50115119991824,108.28503919998184,,,,,,,,,luctew,001,fr,1,2022-05-12_14h56.18.810,Continuous,2022.1.1,None,
1,0,1,0,12,0,12,0,,,,,,,,2.8122788309729563,none,1259.0,1.7144498995326352,6.613153604426583e-05,0,129,['none'],0.01954325009137392,None,None,110.26542670000345,110.26542670000345,0.2189586500171572,3.0312374809901135,110.48568639997393,110.26542670000345,,,,,,,,,luctew,001,fr,1,2022-05-12_14h56.18.810,Continuous,2022.1.1,None,
1,0,1,0,13,0,13,0,,,,,,,,2.2512294670823962,none,1586.0,11.4431631669352,0.0002074825262008292,0,130,['none'],0.01330394996330142,None,['space'],113.32637669984251,113.32637669984251,0.21426535001955926,2.4654948171019555,113.54026350006461,113.32637669984251,[-1.5799043998122215],,,,,,,,luctew,001,fr,1,2022-05-12_14h56.18.810,Continuous,2022.1.1,None,
1,0,1,0,14,0,14,0,,,,,,,,1.9742923219839241,none,561.0,0.7249678310577963,6.731939146013418e-05,0,131,['none'],0.018315550172701478,None,None,115.82094989996403,115.82094989996403,0.21850035013630986,2.192792672120234,116.04195509990677,115.82094989996403,,,,,,,,,luctew,001,fr,1,2022-05-12_14h56.18.810,Continuous,2022.1.1,None,
2,0,2,0,0,0,0,0,,,,,,125.70748270000331,None,2.1843177029517884,both,3174.0,-0.1991398455826876,6.786657310285424e-05,0,108,"['none', 'both']",0.023388450033962727,None,None,126.73162680002861,None,0.22053895005956292,2.4048566530113513,126.9423070999328,None,,118.04572329996154,None,,0.16666666666666666,"{'estimation': [[125.0, 5.6150633186455545], [133.9716828170366, 5.910621954716055], [137.69843907458556, 6.0], [143.5872943746293, 6.134513801594066], [153.89305166811442, 6.279844694490388], [164.93848884661162, 6.343744265627533], [176.77669529663666, 6.324574544172128], [189.46457081379947, 6.221241013058396], [203.0630990890585, 6.029441957698756], [204.48465477391983, 6.0], [217.63764082403074, 5.738715716455677], [233.25824788420132, 5.334146957145429], [243.45695097789635, 5.0], [249.99999999999937, 4.792370165972571], [267.94336563407256, 4.111277403321594], [270.5653206029799, 4.0], [287.1745887492579, 3.3101643592214884], [294.5309745323616, 3.0], [307.78610333622805, 2.4552859533010425], [320.1808376055732, 2.0], [329.876977693222, 1.6555693372181675], [353.55339059327247, 1.0475818456992487], [357.56202822160793, 1.0], [378.929141627598, 0.7551514377292068], [406.12619817811606, 0.8621133438447952], [413.91086364313446, 1.0], [435.2752816480601, 1.3663622564583604], [459.7703506369808, 2.0], [466.5164957684015, 2.1693537669386163], [496.68425700958045, 3.0], [499.9999999999975, 3.0882605258048144], [535.8867312681438, 3.892680177800129], [544.4421032111441, 4.0], [574.3491774985143, 4.3618738517041304], [615.5722066724546, 4.331995661938587], [640.2328517697628, 4.0], [659.7539553864424, 3.7491602208702064], [692.6420584893161, 3.0], [707.1067811865431, 2.6866282799215533], [732.0718512613413, 2.0], [757.8582832551941, 1.324950727913989], [769.9813015489657, 1.0], [808.6107807890008, 0.0], [812.2523963562301, -0.09059462588519093], [855.5622908693417, -1.0], [870.5505632961192, -1.3035359747160014], [923.8862473614462, -2.0], [933.0329915368008, -2.116410710645578], [999.9999999999914, -2.4351154346653914], [1071.773462536285, -2.2803612966273183], [1113.3366051818443, -2.0], [1148.698354997026, -1.771718875114305], [1231.1444133449063, -1.0910958141478662], [1242.7207869152107, -1.0], [1319.5079107728848, -0.4185118868537688], [1395.0391310010784, 0.0], [1414.2135623730828, 0.10332012409725566], [1515.7165665103846, 0.3937984440511144], [1624.5047927124563, 0.44506769819258396], [1741.1011265922318, 0.302195230941673], [1866.065983073597, 0.03885818375115946], [1882.6421259558622, 0.0], [1999.9999999999827, -0.2665486290006989], [2143.5469250725646, -0.5480519576181604], [2297.396709994046, -0.7754786439181429], [2462.2888266898062, -0.9547128963448247], [2508.0195123606586, -1.0], [2639.01582154576, -1.1247068456355227], [2828.427124746159, -1.3415744872778985], [3031.4331330207615, -1.6616552144686374], [3190.285394327582, -2.0], [3249.0095854249043, -2.1213399012437595], [3482.202253184451, -2.7097567156662032], [3587.9358772835935, -3.0], [3732.1319661471844, -3.3819952760222707], [3976.197868420615, -4.0], [3999.9999999999504, -4.058574617586624], [4287.093850145118, -4.664221165535955], [4496.659928361933, -5.0], [4594.793419988081, -5.154513193488402], [4924.577653379601, -5.526813691319556], [5278.031643091506, -5.8295632169357425], [5486.265864269198, -6.0], [5656.854249492303, -6.136207477651017], [6062.866266041508, -6.506234733196333], [6498.019170849792, -6.9623168485215965], [6531.452474929351, -7.0], [6964.404506368894, -7.47204936108095], [7464.2639322943505, -7.944621324976081], [7557.543015091692, -8.0], [7999.999999999872, -8.272137971857985]], 'plus_line': [[125.0, 0.4108004410788108], [133.9716828170366, 0.9272911586918607], [136.35153344760388, 1.0], [143.5872943746293, 1.1964270637463579], [153.89305166811442, 1.355303395727617], [164.93848884661162, 1.437580666028087], [176.77669529663666, 1.4254585851792043], [189.46457081379947, 1.317320863379368], [203.0630990890585, 1.1357964091407706], [210.82730038956535, 1.0], [217.63764082403074, 0.8770040679897387], [233.25824788420132, 0.5017062339860459], [249.13532494014817, 0.0], [249.99999999999937, -0.027774331517827926], [267.94336563407256, -0.7715879838601328], [272.8843975983306, -1.0], [287.1745887492579, -1.6560091289111898], [294.8662129019235, -2.0], [307.78610333622805, -2.5704650138767615], [319.36294341176716, -3.0], [329.87697769322244, -3.3861920796332616], [353.55339059327247, -3.978654817887025], [355.3685071122955, -4.0], [378.929141627598, -4.2864895648538495], [406.12619817811606, -4.203891661231917], [417.83522688456276, -4.0], [435.2752816480601, -3.721154962924176], [462.53559642891, -3.0], [466.5164957684015, -2.9005146268646627], [497.7041834998688, -2.0], [499.9999999999975, -1.937076980991891], [535.8867312681438, -1.085799329624987], [542.0233926315357, -1.0], [574.3491774985143, -0.5903485283860543], [615.5722066724546, -0.5914778934515099], [649.3180687247643, -1.0], [659.753955386444, -1.1269553191659831], [700.4400925768621, -2.0], [707.1067811865431, -2.137400425058378], [739.195806203698, -3.0], [757.8582832551951, -3.4681774098735776], [777.5601967566586, -4.0], [812.2523963562301, -4.879073247324863], [817.7203316744612, -5.0], [863.9461923651471, -6.0], [870.5505632961181, -6.137976248677084], [933.0329915368008, -6.995291991676981], [933.9640525469936, -7.0], [999.9999999999926, -7.34580400972599], [1071.773462536285, -7.164862496229361], [1093.439541549112, -7.0], [1148.698354997026, -6.618205830064755], [1218.2163390250382, -6.0], [1231.1444133449063, -5.893003044391954], [1319.5079107728816, -5.213978222527856], [1357.1963024088511, -5.0], [1414.2135623730828, -4.703324004660408], [1515.7165665103864, -4.430036818834125], [1624.5047927124563, -4.388729549844129], [1741.1011265922318, -4.541580795426912], [1866.065983073597, -4.817753944561872], [1940.743689095133, -5.0], [1999.9999999999802, -5.151071347705917], [2143.5469250725646, -5.46429407979055], [2297.396709994046, -5.690860182827164], [2462.2888266898062, -5.833629009751675], [2639.01582154576, -5.94439259212456], [2702.99811403933, -6.0], [2828.427124746159, -6.113292397932592], [3031.4331330207656, -6.409534356337544], [3249.0095854249043, -6.844951120832853], [3310.989540410543, -7.0], [3482.202253184451, -7.428821324597594], [3701.272494350641, -8.0], [3732.1319661471844, -8.080612786134758], [3999.9999999999504, -8.76757445426274], [4103.1866062511135, -9.0], [4287.093850145118, -9.4180262077491], [4594.793419988081, -9.969045582602904], [4617.172655406515, -10.0], [4924.577653379601, -10.439599784974176], [5278.0316430915, -10.810390434597043], [5486.815826914494, -11.0], [5656.854249492303, -11.160991236509172], [6062.866266041508, -11.55307863637001], [6497.083484082538, -12.0], [6498.019170849792, -12.0009916265815], [6964.404506368894, -12.549015397934149], [7342.404458004276, -13.0], [7464.2639322943505, -13.150563849574073], [7999.999999999882, -13.838915942787628]], 'minus_line': [[125.0, 10.764780178538288], [133.97168281703654, 10.828986784044066], [143.5872943746292, 10.986782757809056], [144.67900449288476, 10.999999999999998], [153.89305166811442, 11.116414601443832], [164.93848884661162, 11.164722864066508], [176.77669529663666, 11.143872735448706], [189.46457081379947, 11.052427394771891], [193.0825533572007, 11.0], [203.0630990890585, 10.870866312971001], [217.63764082403074, 10.571282208936177], [233.25824788420132, 10.137929804427806], [237.40161508066248, 10.0], [249.99999999999937, 9.613456534208641], [267.3104550853349, 9.0], [267.94336563407256, 8.978729881794878], [287.1745887492579, 8.258937018404296], [293.5096293151904, 8.0], [307.78610333622805, 7.44418755758104], [319.51595341306916, 7.0], [329.87697769322244, 6.629765010570709], [352.56561930922686, 6.0], [353.55339059327247, 5.974504855711237], [378.929141627598, 5.677841227655979], [406.12619817811606, 5.807671484891701], [416.3308453740076, 6.0], [435.2752816480601, 6.363461717275003], [458.90559513973244, 7.0], [466.5164957684015, 7.204135395949201], [494.6343343327952, 8.0], [499.9999999999975, 8.149523402892132], [535.8867312681431, 8.974300939032164], [537.8936218423531, 9.0], [574.3491774985143, 9.476040783697151], [615.5722066724546, 9.442719192021965], [645.2618112884172, 9.0], [659.7539553864432, 8.800739498039768], [691.8766883819904, 8.0], [707.1067811865431, 7.637219493444279], [728.710752551851, 7.0], [757.8582832551951, 6.153205812577993], [763.2940948368645, 6.0], [799.4657099177681, 5.0], [812.2523963562301, 4.657396741871839], [842.6105055399652, 4.0], [870.5505632961181, 3.410722392407667], [900.9379478362262, 3.0], [933.0329915368008, 2.5912087511597734], [999.9999999999926, 2.2678597026018728], [1071.773462536285, 2.410803016289097], [1148.698354997026, 2.8967680162942604], [1160.9138085389623, 3.0], [1231.1444133449063, 3.5913800405682577], [1282.849622646371, 4.0], [1319.5079107728832, 4.2915784886165405], [1414.2135623730828, 4.84378030316097], [1465.2366546958497, 5.0], [1515.7165665103846, 5.160807505469654], [1624.5047927124563, 5.216402853774609], [1741.1011265922318, 5.054087699294052], [1763.877181722119, 5.0], [1866.065983073597, 4.783703898451366], [1999.9999999999802, 4.4826807042623384], [2143.5469250725646, 4.1979338250030125], [2264.5688369909135, 4.0], [2297.396709994046, 3.9517900900256673], [2462.2888266898035, 3.7486752253577222], [2639.0158215457564, 3.5460068619677654], [2828.427124746159, 3.304400935360851], [3012.9192100920422, 3.0], [3031.4331330207615, 2.9721756695884483], [3249.0095854249043, 2.537881300225337], [3460.359190126551, 2.0], [3482.2022531844596, 1.9479892690734293], [3732.1319661471844, 1.2880589333539936], [3843.282819106949, 1.0], [3999.999999999946, 0.6203528492780417], [4287.093850145118, 0.03846217917039518], [4313.2418951670015, 0.0], [4594.7934199880865, -0.3798543632541785], [4924.577653379601, -0.6824934394716783], [5278.031643091506, -0.9407908325347415], [5351.765515898864, -1.0], [5656.854249492303, -1.2207368649379018], [6062.866266041508, -1.5971931528118173], [6413.0424323348725, -2.0], [6498.019170849792, -2.0896062314275783], [6964.404506368894, -2.5927659795840725], [7464.2639322943505, -2.968683036985055], [7999.999999999882, -2.947262857737301]]}",,,luctew,001,fr,1,2022-05-12_14h56.18.810,Continuous,2022.1.1,None,
2,0,2,0,1,0,1,0,,,,,,,,2.1843177029517884,both,3563.0,0.38554353531217267,7.973069655285944e-05,0,109,"['none', 'both']",0.01882795011624694,None,['space'],129.15899210004136,129.15899210004136,0.22510385001078248,2.409421552962571,129.37681269994937,129.15899210004136,[-1.6602451999206096],,,,,,,,luctew,001,fr,1,2022-05-12_14h56.18.810,Continuous,2022.1.1,None,
2,0,2,0,2,0,2,0,,,,,,,,2.1843177029517884,both,3999.0,-2.6613910781862553,6.17745539953793e-05,0,110,"['none', 'both']",0.02007164992392063,None,['space'],131.58225159998983,131.58225159998983,0.22603724990040064,2.410354952852189,131.78882130002603,131.58225159998983,[-2.011648999992758],,,,,,,,luctew,001,fr,1,2022-05-12_14h56.18.810,Continuous,2022.1.1,None,
2,0,2,0,3,0,3,0,,,,,,,,2.1843177029517884,both,4489.0,-0.9536361464300169,0.0001053597628064809,0,111,"['none', 'both']",0.020116850035265088,None,None,134.0068093999289,134.0068093999289,0.22773014986887574,2.412047852820664,134.22723189997487,134.0068093999289,,,,,,,,,luctew,001,fr,1,2022-05-12_14h56.18.810,Continuous,2022.1.1,None,
2,0,2,0,4,0,4,0,,,,,,,,2.1843177029517884,both,5039.0,-4.018948052062333,9.526078171463162e-05,0,112,"['none', 'both']",0.020024450263008475,None,['space'],136.435450399993,136.435450399993,0.22516085021197796,2.4094785531637664,136.6474355000537,136.435450399993,[-1.9934956999495625],,,,,,,,luctew,001,fr,1,2022-05-12_14h56.18.810,Continuous,2022.1.1,None,
2,0,2,0,5,0,5,0,,,,,,,,2.1843177029517884,both,5656.0,-0.32758290734888185,0.00012379709716289555,0,113,"['none', 'both']",0.016231350135058165,None,['space'],138.86334299994633,138.86334299994633,0.214385150000453,2.3987028529522414,139.08344680001028,138.86334299994633,[-2.004973900038749],,,,,,,,luctew,001,fr,1,2022-05-12_14h56.18.810,Continuous,2022.1.1,None,
2,0,2,0,6,0,6,0,,,,,,,,2.1843177029517884,both,,,,1,113,"['none', 'both']",0.01969694998115301,None,None,141.29704219987616,141.29704219987616,0.22394405002705753,2.408261752978846,141.51366579998285,141.29704219987616,,,,,,,,,luctew,001,fr,1,2022-05-12_14h56.18.810,Continuous,2022.1.1,None,
2,0,2,0,7,0,7,0,,,,,,,,2.1843177029517884,both,7127.0,-7.63070697232643,6.441842944548488e-05,0,114,"['none', 'both']",0.01570325018838048,None,None,143.7207599999383,143.7207599999383,0.21264435001648962,2.396962052968278,143.93938899994828,143.7207599999383,,,,,,,,,luctew,001,fr,1,2022-05-12_14h56.18.810,Continuous,2022.1.1,None,
2,0,2,0,8,0,8,0,,,,,,,,2.1843177029517884,both,8000.0,-9.0,6.441247758465671e-05,0,115,"['none', 'both']",0.014593750005587935,0.21249325014650822,None,146.15550510003231,146.15550510003231,0.21249325014650822,2.3968109530982966,146.37454400002025,146.15550510003231,,,,,,,,,luctew,001,fr,1,2022-05-12_14h56.18.810,Continuous,2022.1.1,None,
3,0,3,0,0,0,0,0,,,,,,155.63033970003016,None,1.1717037501527503,frequency,488.0,5.941919694647572,0.00014281615566154326,0,111,"['none', 'both', 'frequency']",0.02347455034032464,None,None,156.6639209999703,None,0.21620245021767914,1.3879062003704294,156.87293369998224,None,,148.58413269999437,None,,0.16666666666666666,,"{'estimation': [[125.0, 4.450536090417229], [131.330278551737, 5.0], [133.9716828170366, 5.210978707109535], [143.5872943746293, 5.428785020934267], [153.89305166811442, 5.09563831498806], [155.24958970707306, 5.0], [164.93848884661162, 4.342767853730486], [169.20342847716842, 4.0], [176.77669529663666, 3.415136071949122], [183.15367608507552, 3.0], [189.46457081379947, 2.6054277871336677], [203.0630990890585, 2.177040520946032], [217.6376408240306, 2.2868171650292135], [233.25824788420132, 2.957361462718912], [233.87674512561705, 3.0], [248.83296593606818, 4.0], [249.99999999999937, 4.075469068154854], [262.1248952667003, 5.0], [267.94336563407256, 5.428916678423105], [276.0037264763272, 6.0], [287.1745887492579, 6.768398207576606], [291.4373885826482, 7.000000000000001], [307.78610333622805, 7.86350244148869], [312.14227078223826, 8.0], [329.87697769322244, 8.540888536014393], [353.55339059327247, 8.702770775093017], [378.929141627598, 8.337308160964845], [389.64376137104045, 8.0], [406.12619817811606, 7.502166259035436], [418.2503601650248, 7.0], [435.2752816480601, 6.326233246762145], [442.6517489925107, 6.0], [466.1882679488387, 5.0], [466.5164957684015, 4.986578840019758], [491.78586157986376, 4.0], [499.9999999999975, 3.6910000570575447], [523.3216674382763, 3.0], [535.8867312681438, 2.6364587094411025], [572.0987893240953, 2.0], [574.3491774985143, 1.961142453032973], [615.5722066724546, 1.6995070498984757], [659.7539553864432, 1.769782021709016], [707.1067811865431, 1.9880711041012622], [711.2283945672007, 2.0], [757.8582832551932, 2.131190320282674], [812.2523963562301, 2.021740352730249], [815.2645983611797, 2.0], [870.5505632961181, 1.6070109489930957], [932.1283587344313, 1.0], [933.0329915367996, 0.9912134286744356], [999.9999999999926, 0.41669320088734363], [1071.773462536285, 0.18267312845682915], [1148.698354997026, 0.5424282085952152], [1183.5213516011365, 1.0], [1231.1444133449063, 1.6062789346884958], [1251.30769602158, 2.0], [1303.7329061213757, 3.0], [1319.5079107728832, 3.2890741315699024], [1351.7407225392776, 4.0], [1398.4629902361578, 5.0], [1414.2135623730828, 5.3215266966458765], [1447.5893475513635, 6.0], [1498.3547667454545, 7.0], [1515.7165665103846, 7.325711116481324], [1560.7664501118024, 8.0], [1624.5047927124563, 8.9144208890238], [1635.4797092312158, 9.0], [1741.101126592234, 9.798264257628697], [1866.065983073597, 9.840511224249122], [1999.9999999999802, 9.079932550900704], [2007.9874522198104, 9.0], [2110.6010428320424, 8.0], [2143.5469250725646, 7.691901883113921], [2202.5805541997843, 7.0], [2291.0021228186883, 6.0], [2297.3967099940432, 5.930490602726771], [2377.650225873702, 5.0], [2462.2888266898062, 4.059425141315116], [2468.074159291147, 4.0], [2566.643231156403, 3.0], [2639.01582154576, 2.297260241295313], [2675.507395722428, 2.0], [2801.365224680936, 1.0], [2828.427124746159, 0.7931963543840003], [2965.0992617415504, 0.0], [3031.4331330207615, -0.37042536271578064], [3200.917531587263, -1.0], [3249.0095854249043, -1.1722632476931747], [3482.2022531844555, -1.6249282128682747], [3732.1319661471844, -1.7671128013503479], [3999.9999999999504, -1.6516966555538057], [4287.093850145118, -1.3500990535392452], [4556.905427914127, -1.0], [4594.793419988081, -0.9524284862853741], [4924.577653379601, -0.571654661720463], [5278.031643091506, -0.32914849156623593], [5656.854249492303, -0.33251732248769217], [6062.866266041508, -0.6535152184623856], [6291.40609172508, -1.0], [6498.019170849792, -1.3059067779358347], [6846.353584147, -2.0], [6964.404506368902, -2.226450919647277], [7323.979168509449, -3.0], [7464.2639322943505, -3.2892919827462466], [7830.559401749632, -4.0], [7999.999999999892, -4.32692538272393]], 'plus_line': [[125.0, -0.9050954957391103], [132.77405751044867, 0.0], [133.9716828170366, 0.12769375228030078], [143.5872943746293, 0.3975053979345474], [153.89305166811442, 0.05984009404911994], [154.7399531749613, 0.0], [164.93848884661162, -0.7130970477206318], [168.54071929392208, -1.0], [176.77669529663666, -1.6401845463386038], [182.46857825122697, -2.0], [189.46457081379947, -2.436048827408329], [203.0630990890585, -2.834560804846824], [217.6376408240306, -2.697190528451986], [232.937192676844, -2.0], [233.25824788420132, -1.986333840452219], [247.70685766278257, -1.0], [249.99999999999937, -0.84866429801008], [261.09678187240263, 0.0], [267.94336563407256, 0.5172718855091664], [274.7528289364728, 1.0], [287.1745887492579, 1.8744502739313922], [289.47766149720934, 2.0], [307.78610333622805, 2.9688828045935587], [308.78860989895804, 3.0], [329.87697769322244, 3.609775443593251], [353.55339059327247, 3.735796420095154], [378.929141627598, 3.3433572166029273], [390.06969036623775, 3.0], [406.12619817811606, 2.5135858455281097], [418.86203866967634, 2.0], [435.2752816480601, 1.3693538756455652], [443.6951054072608, 1.0], [466.5164957684015, 0.05500092483702734], [467.8588884906505, 0.0], [492.60919531047165, -1.0], [499.9999999999975, -1.2831529051536328], [522.4442962559588, -2.0], [535.8867312681438, -2.4172458664892487], [566.2958130084771, -3.0], [574.3491774985151, -3.1555294499527697], [615.5722066724546, -3.428241233571198], [659.7539553864432, -3.305197263758397], [707.1067811865431, -3.0279243258904245], [717.4274844834754, -3.0], [757.8582832551941, -2.903040309191905], [784.7475565929368, -3.0], [812.2523963562301, -3.104414120503554], [870.5505632961181, -3.6415670863823637], [902.3970816037132, -4.0], [933.0329915368008, -4.34736491181665], [999.9999999999926, -4.961634689021032], [1010.5213602973216, -5.0], [1071.773462536285, -5.230304148539181], [1122.348755181753, -5.0], [1148.698354997026, -4.889756047928296], [1217.8441808553516, -4.0], [1231.1444133449063, -3.83409801364474], [1274.3681573095132, -3.0], [1319.5079107728832, -2.1152437484356374], [1324.7574112440425, -2.0], [1370.058773756263, -1.0], [1414.1827002717573, 0.0], [1414.2135623730828, 0.0006638289525029428], [1463.615581533816, 1.0], [1511.430263608199, 2.0], [1515.7165665103846, 2.085220058564878], [1577.0107846757285, 3.0], [1624.5047927124563, 3.7104296584135295], [1662.1874856994427, 4.0], [1741.1011265922318, 4.579597014637138], [1866.065983073597, 4.583087193326792], [1965.8010077122206, 4.0], [1999.9999999999802, 3.801340333666005], [2081.101843443109, 3.0], [2143.5469250725646, 2.421588413871283], [2179.269275890547, 2.0], [2268.3214415546868, 1.0], [2297.396709994046, 0.695162222915491], [2356.404008534129, 0.0], [2448.710250087581, -1.0], [2462.2888266898062, -1.1394400600131038], [2545.123339200546, -2.0], [2639.01582154576, -2.882768020328861], [2653.203045593682, -3.0], [2777.0016977168657, -4.0], [2828.427124746159, -4.385850673456128], [2934.0067994922215, -5.0], [3031.4331330207615, -5.539037838059379], [3158.7325244526496, -6.0], [3249.0095854249043, -6.321067795998279], [3482.2022531844555, -6.757516566962912], [3732.1319661471844, -6.90123592234157], [3999.9999999999504, -6.810435800769144], [4287.093850145118, -6.525635195799731], [4594.793419988076, -6.10252991981914], [4670.26669726178, -5.999999999999999], [4924.577653379601, -5.686767036904833], [5278.031643091506, -5.432678445199711], [5656.854249492303, -5.488553075822626], [6062.866266041508, -5.900024830838865], [6122.813642540674, -6.0], [6498.019170849792, -6.626331764259291], [6686.491067896861, -7.0], [6964.404506368894, -7.536215071917653], [7183.322310105868, -8.0], [7464.2639322943505, -8.571462054221442], [7653.130612970957, -9.0], [7999.999999999882, -9.77327503407026]], 'minus_line': [[125.0, 9.78031007389193], [128.75005116455878, 10.0], [133.9716828170366, 10.294854477362946], [143.5872943746293, 10.459306882377792], [153.89305166811442, 10.111392791611514], [155.39691068149523, 10.0], [164.93848884661162, 9.33943502464394], [168.92876532154534, 9.0], [176.77669529663666, 8.365805539086866], [181.97302581071332, 8.0], [189.46457081379947, 7.504589115236596], [203.0630990890585, 7.020885153453842], [217.6376408240306, 7.111408402533496], [233.25824788420132, 7.788196858370654], [236.27228704557896, 8.0], [249.99999999999937, 8.932377863045437], [250.84045605635472, 9.0], [263.38229347212757, 10.0], [267.94336563407256, 10.343693832310652], [276.73882903442683, 11.0], [287.1745887492579, 11.737668893374003], [291.7653045803332, 12.0], [307.78610333622805, 12.888264634389206], [311.1118720866619, 13.000000000000002], [329.87697769322244, 13.632177495961669], [353.55339059327247, 13.837233522486038], [378.929141627598, 13.48603076104455], [393.51225301729016, 13.0], [406.12619817811606, 12.603590353943325], [419.81110373509375, 12.0], [435.2752816480601, 11.339305150413178], [442.59772055983615, 11.0], [464.48277118054574, 10.0], [466.51649576840094, 9.911268863948237], [489.6059770386008, 9.0], [499.9999999999975, 8.597796677140732], [520.7277720802736, 8.0], [535.8867312681438, 7.575908613278641], [570.4542200636522, 7.0], [574.3491774985143, 6.9385892983327615], [615.5722066724546, 6.700612657654952], [659.7539553864432, 6.7547328319848], [707.1067811865431, 6.969138631268883], [714.4943406922977, 7.0], [757.8582832551941, 7.191448373218837], [812.2523963562301, 7.221426613336864], [858.3146609941438, 7.0], [870.5505632961181, 6.945096977505034], [933.0329915368008, 6.434569254802028], [985.9689131119032, 6.0], [999.9999999999926, 5.892172441675681], [1071.773462536285, 5.681577787160725], [1136.5583826657125, 6.0], [1148.698354997026, 6.061322736052103], [1218.948475173093, 7.0], [1231.1444133449063, 7.1570339915042505], [1273.3076153730744, 8.0], [1319.5079107728832, 8.843832305436429], [1326.444305997061, 9.0], [1371.3149367203805, 10.0], [1414.2135623730846, 10.852205989470416], [1421.3590245411997, 11.0], [1470.255490706085, 12.0], [1515.7165665103846, 12.828797905018641], [1526.8916021614534, 13.0], [1593.9113606260669, 14.0], [1624.5047927124563, 14.423557227837538], [1697.735710382231, 15.0], [1741.1011265922318, 15.334735728341432], [1866.065983073597, 15.402453233802266], [1933.2261059386901, 15.0], [1999.9999999999802, 14.623791151926431], [2061.049634623831, 14.0], [2143.5469250725646, 13.164113137183866], [2157.119957012853, 13.0], [2240.1555700917647, 12.0], [2297.396709994046, 11.309891997664854], [2323.6874027299045, 11.0], [2407.5589404752404, 10.0], [2462.2888266898062, 9.349433513392064], [2496.420034610935, 9.0], [2592.8618478214144, 8.0], [2639.01582154576, 7.527857665349665], [2704.1432647095353, 7.0], [2826.197069921064, 6.0], [2828.427124746159, 5.982440577249995], [2997.0903102251955, 4.999999999999999], [3031.433133020758, 4.805071006129975], [3244.0711458787705, 4.0], [3249.0095854249043, 3.9822217079274984], [3482.2022531844555, 3.5354479647265804], [3732.1319661471844, 3.4116035196557792], [3999.9999999999554, 3.5609928451371813], [4287.093850145118, 3.879175245360762], [4383.490213547883, 4.0], [4594.793419988081, 4.269687199364473], [4924.577653379601, 4.615786447975063], [5278.031643091506, 4.841515881809366], [5656.854249492303, 4.885306690204132], [6062.866266041508, 4.656738943096796], [6498.019170849792, 4.049897232582543], [6521.386037554954, 4.0], [6964.404506368894, 3.098306227526667], [7006.92618523747, 3.0], [7454.905096749447, 2.0], [7464.2639322943505, 1.9799949779488402], [7999.999999999882, 1.0901194667423089]]}",,luctew,001,fr,1,2022-05-12_14h56.18.810,Continuous,2022.1.1,None,
3,0,3,0,1,0,1,0,,,,,,,,2.49606897458821,frequency,548.0,11.667742912563716,0.0002450603545997002,0,112,"['none', 'both', 'frequency']",0.011372549924999475,None,['space'],158.07359010004438,158.07359010004438,0.20854105008766055,2.7046100246758704,158.2876114998944,158.07359010004438,[-0.8637357999105006],,,,,,,,luctew,001,fr,1,2022-05-12_14h56.18.810,Continuous,2022.1.1,None,
3,0,3,0,2,0,2,0,,,,,,,,1.5185224051706785,frequency,615.0,5.013551521618945,9.529478743806209e-05,0,113,"['none', 'both', 'frequency']",0.01869615027680993,None,['space'],160.81776620005257,160.81776620005257,0.22375805024057627,1.7422804554112548,161.03394829994068,160.81776620005257,[-2.3192718999926],,,,,,,,luctew,001,fr,1,2022-05-12_14h56.18.810,Continuous,2022.1.1,None,
3,0,3,0,3,0,3,0,,,,,,,,1.8337105387412957,frequency,690.0,4.3137080461832795,7.542708117696873e-05,0,114,"['none', 'both', 'frequency']",0.01853635022416711,None,None,162.57835930003785,162.57835930003785,0.22105025011114776,2.0547607888524437,162.79144140006974,162.57835930003785,,,,,,,,,luctew,001,fr,1,2022-05-12_14h56.18.810,Continuous,2022.1.1,None,
3,0,3,0,4,0,4,0,,,,,,,,2.3571404861972223,frequency,775.0,7.427338463415024,9.290023062572725e-05,0,115,"['none', 'both', 'frequency']",0.018354750238358974,None,None,164.65527960006148,164.65527960006148,0.2234892500564456,2.580629736253668,164.87822830001824,164.65527960006148,,,,,,,,,luctew,001,fr,1,2022-05-12_14h56.18.810,Continuous,2022.1.1,None,
3,0,3,0,5,0,5,0,,,,,,,,2.67663775553463,frequency,870.0,4.0733885389414555,6.450521069576016e-05,0,116,"['none', 'both', 'frequency']",0.01812685001641512,None,['space'],167.25802149996161,167.25802149996161,0.22278405004180968,2.8994218055764396,167.47505729994737,167.25802149996161,[-1.327694599982351],,,,,,,,luctew,001,fr,1,2022-05-12_14h56.18.810,Continuous,2022.1.1,None,
3,0,3,0,6,0,6,0,,,,,,,,2.7199563313028836,frequency,977.0,7.322521086147075,0.00010083311573031913,0,117,"['none', 'both', 'frequency']",0.018351850332692266,None,None,170.17865659995005,170.17865659995005,0.22292845021001995,2.9428847815129036,170.39128839992918,170.17865659995005,,,,,,,,,luctew,001,fr,1,2022-05-12_14h56.18.810,Continuous,2022.1.1,None,
3,0,3,0,7,0,7,0,,,,,,,,2.060241004170591,frequency,1097.0,2.342357272835426,6.30014120949058e-05,0,118,"['none', 'both', 'frequency']",0.014160549966618419,None,None,173.13647799985483,173.13647799985483,0.2135809501633048,2.273821954333896,173.3548303998541,173.13647799985483,,,,,,,,,luctew,001,fr,1,2022-05-12_14h56.18.810,Continuous,2022.1.1,None,
3,0,3,0,8,0,8,0,,,,,,,,2.864424203049147,frequency,1231.0,2.0,6.76225606965465e-05,0,119,"['none', 'both', 'frequency']",0.01873244997113943,None,None,175.4481651999522,175.4481651999522,0.2264299497473985,3.0908541527965454,175.66355010005645,175.4481651999522,,,,,,,,,luctew,001,fr,1,2022-05-12_14h56.18.810,Continuous,2022.1.1,None,
3,0,3,0,9,0,9,0,,,,,,,,1.1257322762243767,frequency,1382.0,12.572177594211611,0.0002178467143557697,0,120,"['none', 'both', 'frequency']",0.018504949985072017,None,None,178.55391480005346,178.55391480005346,0.22315134992823005,1.3488836261526067,178.77055789995939,178.55391480005346,,,,,,,,,luctew,001,fr,1,2022-05-12_14h56.18.810,Continuous,2022.1.1,None,
3,0,3,0,10,0,10,0,,,,,,,,1.9600285779676885,frequency,1551.0,10.408255383464278,0.00017437712386739437,0,121,"['none', 'both', 'frequency']",0.018283550161868334,None,['space'],179.92141849990003,179.92141849990003,0.22589495009742677,2.185923528065115,180.14541359990835,179.92141849990003,[-0.975208800053224],,,,,,,,luctew,001,fr,1,2022-05-12_14h56.18.810,Continuous,2022.1.1,None,
3,0,3,0,11,0,11,0,,,,,,,,1.919053390548864,frequency,1741.0,13.75458495109514,0.0003075222055309026,0,122,"['none', 'both', 'frequency']",0.01832515001296997,None,['space'],182.13383459998295,182.13383459998295,0.2245326500851661,2.1435860406340304,182.34546569990925,182.13383459998295,[-0.5557547998614609],,,,,,,,luctew,001,fr,1,2022-05-12_14h56.18.810,Continuous,2022.1.1,None,
3,0,3,0,12,0,12,0,,,,,,,,2.078236746378785,frequency,,,,1,122,"['none', 'both', 'frequency']",0.013900150079280138,None,['space'],184.29573539993726,184.29573539993726,0.21408165013417602,2.292318396512961,184.5141461000312,184.29573539993726,[-0.7092718000058085],,,,,,,,luctew,001,fr,1,2022-05-12_14h56.18.810,Continuous,2022.1.1,None,
3,0,3,0,13,0,13,0,,,,,,,,1.0356512519110086,frequency,2193.0,9.545330078132448,0.0002373495675032975,0,123,"['none', 'both', 'frequency']",0.01950445002876222,None,None,186.62404849985614,186.62404849985614,0.22402404993772507,1.2596753018487337,186.8343827999197,186.62404849985614,,,,,,,,,luctew,001,fr,1,2022-05-12_14h56.18.810,Continuous,2022.1.1,None,
3,0,3,0,14,0,14,0,,,,,,,,1.5753784879699704,frequency,2462.0,3.8159927336609485,0.00013197436923109612,0,124,"['none', 'both', 'frequency']",0.014122050255537033,None,None,187.9013338999357,187.9013338999357,0.21390575030818582,1.7892842382781562,188.12354439985938,187.9013338999357,,,,,,,,,luctew,001,fr,1,2022-05-12_14h56.18.810,Continuous,2022.1.1,None,
4,0,4,0,0,0,0,0,,,,,"[0.3333333333333333, 0.3333333333333333, 0.3333333333333333, 0.3333333333333333, 0.5833333333333334, 0.16666666666666666, 0.5833333333333334, 0.5833333333333334, 0.3333333333333333, 0.16666666666666666, 0.5833333333333334, 0.5833333333333334, 0.16666666666666666, 0.5833333333333334, 0.5833333333333334]",200.2708379998803,None,2.837925593456136,time,6350.0,1.1188292625784364,0.00014960466697223662,0,56,"['none', 'both', 'frequency']",0.023733450332656503,None,None,201.2786626999732,None,0.23295745020732284,3.070883043663459,201.4933678000234,None,,189.73240559990518,None,,,,,,luctew,001,fr,1,2022-05-12_14h56.18.810,Continuous,2022.1.1,None,
4,0,4,0,1,0,1,0,,,,,,,,2.837925593456136,time,1682.0,1.3922866134163456,7.096314812019516e-05,0,57,"['none', 'both', 'frequency']",0.017658250173553824,None,['space'],204.3637651000172,204.3637651000172,0.2211019501555711,3.059027543611707,204.57939189998433,204.3637651000172,[-0.6497048998717219],,,,,,,,luctew,001,fr,1,2022-05-12_14h56.18.810,Continuous,2022.1.1,None,
4,0,4,0,2,0,2,0,,,,,,,,2.837925593456136,time,841.0,0.33190297928861057,4.107324235155038e-05,0,58,"['none', 'both', 'frequency']",0.011787650175392628,0.20994745008647442,None,207.44233069987968,207.44233069987968,0.20994745008647442,3.0478730435426105,207.6559055999387,207.44233069987968,,,,,,,,,luctew,001,fr,1,2022-05-12_14h56.18.810,Continuous,2022.1.1,None,
4,0,4,0,3,0,3,0,,,,,,,,2.837925593456136,time,2520.0,6.746206850809541,0.00018405619243304076,0,59,"['none', 'both', 'frequency']",0.013590650167316198,0.209131850162521,['space'],210.5239180000499,210.5239180000499,0.209131850162521,3.047057443618657,210.74088860000484,210.5239180000499,[-0.05830310005694628],,,,,,,,luctew,001,fr,1,2022-05-12_14h56.18.810,Continuous,2022.1.1,None,
4,0,4,0,4,0,4,0,,,,,,,,2.837925593456136,time,1335.0,4.449079143019516,8.745337371252607e-05,0,60,"['none', 'both', 'frequency']",0.009951250161975622,0.19511625007726252,None,213.60848949989304,213.60848949989304,0.19511625007726252,3.0330418435333986,213.81587180006318,213.60848949989304,,,,,,,,,luctew,001,fr,1,2022-05-12_14h56.18.810,Continuous,2022.1.1,None,
4,0,4,0,5,0,5,0,,,,,,,,2.837925593456136,time,2829.0,3.3695700313849617,9.646962304799431e-05,0,61,"['none', 'both', 'frequency']",0.01137995021417737,None,None,216.68537890003063,216.68537890003063,0.21221285010688007,3.050138443563016,216.90431479993276,216.68537890003063,,,,,,,,,luctew,001,fr,1,2022-05-12_14h56.18.810,Continuous,2022.1.1,None,
4,0,4,0,6,0,6,0,,,,,,,,2.837925593456136,time,8000.0,-1.0,0.00016179682846481421,0,62,"['none', 'both', 'frequency']",0.018253750167787075,None,None,219.77343910001218,219.77343910001218,0.22819645004346967,3.0661220434996057,219.99053329997696,219.77343910001218,,,,,,,,,luctew,001,fr,1,2022-05-12_14h56.18.810,Continuous,2022.1.1,None,
4,0,4,0,7,0,7,0,,,,,,,,2.837925593456136,time,,,,1,62,"['none', 'both', 'frequency']",0.013673949986696243,None,['space'],222.8516458000522,222.8516458000522,0.21205785009078681,3.049983443546923,223.0724835000001,222.8516458000522,[-2.7134555999655277],,,,,,,,luctew,001,fr,1,2022-05-12_14h56.18.810,Continuous,2022.1.1,None,
4,0,4,0,8,0,8,0,,,,,,,,2.837925593456136,time,4238.0,-0.5480224747002382,9.41822493634165e-05,0,63,"['none', 'both', 'frequency']",0.014898950001224875,None,['space'],225.9408587999642,225.9408587999642,0.21640495001338422,3.0543305434695203,226.1588027998805,225.9408587999642,[-1.1942485000472516],,,,,,,,luctew,001,fr,1,2022-05-12_14h56.18.810,Continuous,2022.1.1,None,
4,0,4,0,9,0,9,0,,,,,,,,2.837925593456136,time,1060.0,1.9488083871956192,5.8273715435407385e-05,0,64,"['none', 'both', 'frequency']",0.013177249813452363,None,None,229.02965449984185,229.02965449984185,0.21185354981571436,3.0497791432718504,229.24389209994115,229.02965449984185,,,,,,,,,luctew,001,fr,1,2022-05-12_14h56.18.810,Continuous,2022.1.1,None,
5,0,5,0,0,0,0,0,,,,,"[0.3333333333333333, 0.5833333333333334, 0.3333333333333333, 0.5833333333333334, 0.3333333333333333, 0.5833333333333334, 0.3333333333333333, 0.5833333333333334, 0.3333333333333333, 0.5833333333333334, 0.16666666666666666, 0.16666666666666666, 0.5833333333333334, 0.3333333333333333, 0.16666666666666666]",240.74275609990582,None,1.5148373983679129,time,,,,1,64,"['none', 'both', 'frequency']",0.02166065014898777,None,None,241.75722029991448,None,0.23076175013557076,1.7455991485034836,241.98032919992693,None,,232.11135550006293,None,,,,,,luctew,001,fr,1,2022-05-12_14h56.18.810,Continuous,2022.1.1,None,
5,0,5,0,1,0,1,0,,,,,,,,1.5148373983679129,time,1352.0,19.456660378862644,0.0004882512722339857,0,65,"['none', 'both', 'frequency']",0.018653950188308954,None,None,243.5210086000152,243.5210086000152,0.2248881501145661,1.739725548482479,243.73771129990928,243.5210086000152,,,,,,,,,luctew,001,fr,1,2022-05-12_14h56.18.810,Continuous,2022.1.1,None,
5,0,5,0,2,0,2,0,,,,,,,,1.5148373983679129,time,638.0,17.087053872578583,0.00036084998274526147,0,66,"['none', 'both', 'frequency']",0.013306050095707178,0.20884865010157228,['space'],245.2778582999017,245.2778582999017,0.20884865010157228,1.7236860484694851,245.4948938000016,245.2778582999017,[-1.4205515999346972],,,,,,,,luctew,001,fr,1,2022-05-12_14h56.18.810,Continuous,2022.1.1,None,
5,0,5,0,3,0,3,0,,,,,,,,1.5148373983679129,time,379.0,23.0,0.001158367823880909,0,67,"['none', 'both', 'frequency']",0.016882050316780806,None,None,247.04190099984407,247.04190099984407,0.22100045019760728,1.7358378485655201,247.26318640005775,247.04190099984407,,,,,,,,,luctew,001,fr,1,2022-05-12_14h56.18.810,Continuous,2022.1.1,None,
5,0,5,0,4,0,4,0,,,,,,,,1.5148373983679129,time,1518.0,20.004788541815486,0.0004985065853576122,0,68,"['none', 'both', 'frequency']",0.01720504998229444,None,['space'],248.81064939987846,248.81064939987846,0.22224675002507865,1.7370841483929915,249.0269493998494,248.81064939987846,[-0.8637506000231951],,,,,,,,luctew,001,fr,1,2022-05-12_14h56.18.810,Continuous,2022.1.1,None,
5,0,5,0,5,0,5,0,,,,,,,,1.5148373983679129,time,160.0,8.268595855481317,0.001065123084066333,0,69,"['none', 'both', 'frequency']",0.012789350235834718,None,['space'],250.5666382999625,250.5666382999625,0.2122675501741469,1.7271049485420598,250.78606999991462,250.5666382999625,[-1.3811318001244217],,,,,,,,luctew,001,fr,1,2022-05-12_14h56.18.810,Continuous,2022.1.1,None,
5,0,5,0,6,0,6,0,,,,,,,,1.5148373983679129,time,716.0,20.62820525617923,0.0004689500257702073,0,70,"['none', 'both', 'frequency']",0.01300775003619492,None,['space'],252.3344947998412,252.3344947998412,0.20879964996129274,1.7236370483292056,252.55377850006334,252.3344947998412,[-1.2846875002142042],,,,,,,,luctew,001,fr,1,2022-05-12_14h56.18.810,Continuous,2022.1.1,None,
5,0,5,0,7,0,7,0,,,,,,,,1.5148373983679129,time,1073.0,21.268044728912542,0.0005451008242452709,0,71,"['none', 'both', 'frequency']",0.017351150047034025,None,['space'],254.1015142998658,254.1015142998658,0.22380695003084838,1.7386443483987613,254.31573939998634,254.1015142998658,[-1.4198623998090625],,,,,,,,luctew,001,fr,1,2022-05-12_14h56.18.810,Continuous,2022.1.1,None,
5,0,5,0,8,0,8,0,,,,,,,,1.5148373983679129,time,568.0,22.671009235918447,0.0008274007589461379,0,72,"['none', 'both', 'frequency']",0.013198449974879622,None,['space'],255.8533389000222,255.8533389000222,0.21047894982621074,1.7253163481941236,256.07215170003474,255.8533389000222,[-1.4753894999157637],,,,,,,,luctew,001,fr,1,2022-05-12_14h56.18.810,Continuous,2022.1.1,None,
5,0,5,0,9,0,9,0,,,,,,,,1.5148373983679129,time,201.0,11.259646143048888,0.0009632409994622005,0,73,"['none', 'both', 'frequency']",0.017246050061658025,None,['space'],257.6200921998825,257.6200921998825,0.22736675012856722,1.74220414849648,257.8347402999643,257.6200921998825,[-1.474338399944827],,,,,,,,luctew,001,fr,1,2022-05-12_14h56.18.810,Continuous,2022.1.1,None,
6,0,6,0,0,0,0,0,,,,,"[0.3333333333333333, 0.16666666666666666, 0.16666666666666666, 0.16666666666666666, 0.16666666666666666, 0.5833333333333334, 0.5833333333333334, 0.16666666666666666, 0.3333333333333333, 0.16666666666666666, 0.3333333333333333, 0.3333333333333333, 0.5833333333333334, 0.3333333333333333, 0.16666666666666666]",265.6570007998962,None,2.196992181939163,time,1273.0,16.28618812671915,0.00035172718490401867,0,74,"['none', 'both', 'frequency']",0.02390535012818873,None,None,266.66698409989476,None,0.22304145013913512,2.4200336320782982,266.8783631999977,None,,259.37315979995765,None,,,,,,luctew,001,fr,1,2022-05-12_14h56.18.810,Continuous,2022.1.1,None,
6,0,6,0,1,0,1,0,,,,,,,,2.196992181939163,time,674.0,28.05777561613246,0.0011962076543668243,0,75,"['none', 'both', 'frequency']",0.016622650204226375,None,['space'],269.0988304000348,269.0988304000348,0.2305502500385046,2.4275424319776677,269.31553469994105,269.0988304000348,[-2.0495126000605524],,,,,,,,luctew,001,fr,1,2022-05-12_14h56.18.810,Continuous,2022.1.1,None,
6,0,6,0,2,0,2,0,,,,,,,,2.196992181939163,time,,,,1,75,"['none', 'both', 'frequency']",0.012734350049868226,0.2081146501004696,['space'],271.53679100004956,271.53679100004956,0.2081146501004696,2.4051068320396327,271.7560892999172,271.53679100004956,[-2.1509358999319375],,,,,,,,luctew,001,fr,1,2022-05-12_14h56.18.810,Continuous,2022.1.1,None,
6,0,6,0,3,0,3,0,,,,,,,,2.196992181939163,time,535.0,22.49358928040123,0.0008792707200400582,0,76,"['none', 'both', 'frequency']",0.013369549997150898,None,None,273.97781379986554,273.97781379986554,0.21552624995820224,2.4125184318973654,274.19455330003984,273.97781379986554,,,,,,,,,luctew,001,fr,1,2022-05-12_14h56.18.810,Continuous,2022.1.1,None,
6,0,6,0,4,0,4,0,,,,,,,,2.196992181939163,time,1429.0,14.699917091558909,0.00027197699302217377,0,77,"['none', 'both', 'frequency']",0.013450250029563904,0.21048834989778697,['space'],276.4246787999291,276.4246787999291,0.21048834989778697,2.40748053183695,276.6442284998484,276.4246787999291,[-2.127277199877426],,,,,,,,luctew,001,fr,1,2022-05-12_14h56.18.810,Continuous,2022.1.1,None,
6,0,6,0,5,0,5,0,,,,,,,,2.196992181939163,time,379.0,31.0,0.0029096884195037344,0,78,"['none', 'both', 'frequency']",0.01242315024137497,0.20928875007666647,['space'],278.8658493999392,278.8658493999392,0.20928875007666647,2.4062809320158296,279.07555680000223,278.8658493999392,[-2.104146600002423],,,,,,,,luctew,001,fr,1,2022-05-12_14h56.18.810,Continuous,2022.1.1,None,
6,0,6,0,6,0,6,0,,,,,,,,2.196992181939163,time,425.0,10.673285586177501,0.00025723278426953926,0,79,"['none', 'both', 'frequency']",0.01668025040999055,None,['space'],281.30703549995087,281.30703549995087,0.2233679504133761,2.420360132352539,281.5216947000008,281.30703549995087,[-2.1452299999073148],,,,,,,,luctew,001,fr,1,2022-05-12_14h56.18.810,Continuous,2022.1.1,None,
6,0,6,0,7,0,7,0,,,,,,,,2.196992181939163,time,1010.0,21.501028886145328,0.0005285980483327191,0,80,"['none', 'both', 'frequency']",0.0167389502748847,None,['space'],283.7475874000229,283.7475874000229,0.22201095009222627,2.4190031320313894,283.95954980002716,283.7475874000229,[-2.0343786000739783],,,,,,,,luctew,001,fr,1,2022-05-12_14h56.18.810,Continuous,2022.1.1,None,
6,0,6,0,8,0,8,0,,,,,,,,2.196992181939163,time,179.0,22.862413038617422,0.004753898678896004,0,81,"['none', 'both', 'frequency']",0.012254350120201707,0.20805625012144446,['space'],286.1851681000553,286.1851681000553,0.20805625012144446,2.4050484320606076,286.4042157998774,286.1851681000553,[-2.167440199991688],,,,,,,,luctew,001,fr,1,2022-05-12_14h56.18.810,Continuous,2022.1.1,None,
6,0,6,0,9,0,9,0,,,,,,,,2.196992181939163,time,268.0,15.05439993068972,0.0008398331025836638,0,82,"['none', 'both', 'frequency']",0.005629450082778931,None,"['space', 'space']",288.63071119994856,288.63071119994856,0.2119190499652177,2.408911231904381,288.8570186998695,288.63071119994856,"[-2.212729800026864, -0.11688439990393817]",,,,,,,,luctew,001,fr,1,2022-05-12_14h56.18.810,Continuous,2022.1.1,None,
7,0,7,0,0,0,0,0,,,,,"[0.16666666666666666, 0.5833333333333334, 0.16666666666666666, 0.16666666666666666, 0.3333333333333333, 0.3333333333333333, 0.16666666666666666, 0.16666666666666666, 0.5833333333333334, 0.5833333333333334, 0.3333333333333333, 0.5833333333333334, 0.3333333333333333, 0.3333333333333333, 0.3333333333333333]",299.2673200999852,None,1.125044620355629,time,249.0,12.644296301291115,0.000726500056491149,0,83,"['none', 'both', 'frequency']",0.023757850285619497,None,None,300.27966880006716,None,0.24189945007674396,1.366944070432373,300.50135919987224,None,,291.0769901999738,None,,,,,,luctew,001,fr,1,2022-05-12_14h56.18.810,Continuous,2022.1.1,None,
7,0,7,0,1,0,1,0,,,,,,,,1.125044620355629,time,2108.0,12.650718925084265,0.00033127307987688726,0,84,"['none', 'both', 'frequency']",0.014795550145208836,None,['space'],301.6503564999439,301.6503564999439,0.21570755005814135,1.3407521704137704,301.8704752998892,301.6503564999439,[-0.9933009999804199],,,,,,,,luctew,001,fr,1,2022-05-12_14h56.18.810,Continuous,2022.1.1,None,
7,0,7,0,2,0,2,0,,,,,,,,1.125044620355629,time,125.0,13.0,0.003228271145173279,0,85,"['none', 'both', 'frequency']",0.013103449949994683,None,['space'],303.0234216998797,303.0234216998797,0.21266634995117784,1.3377109703068069,303.2431610999629,303.0234216998797,[-0.9254431000445038],,,,,,,,luctew,001,fr,1,2022-05-12_14h56.18.810,Continuous,2022.1.1,None,
7,0,7,0,3,0,3,0,,,,,,,,1.125044620355629,time,198.0,4.814092237411365,0.00047471334100218247,0,86,"['none', 'both', 'frequency']",0.0158137499820441,None,['space'],304.40314389998093,304.40314389998093,0.21945234993472695,1.344496970290356,304.62316029984504,304.40314389998093,[-0.496906700078398],,,,,,,,luctew,001,fr,1,2022-05-12_14h56.18.810,Continuous,2022.1.1,None,
7,0,7,0,4,0,4,0,,,,,,,,1.125044620355629,time,2656.0,12.265751324913193,0.0003127871151935996,0,87,"['none', 'both', 'frequency']",0.012295549968257546,None,['space'],305.77358380006626,305.77358380006626,0.2118795500136912,1.3369241703693202,305.9943392998539,305.77358380006626,[-0.6362314000725746],,,,,,,,luctew,001,fr,1,2022-05-12_14h56.18.810,Continuous,2022.1.1,None,
7,0,7,0,5,0,5,0,,,,,,,,1.125044620355629,time,157.0,10.418033231453803,0.0014528037507553727,0,88,"['none', 'both', 'frequency']",0.01294285012409091,None,['space'],307.156399599975,307.156399599975,0.2144106503110379,1.339455270666667,307.37017249991186,307.156399599975,[-0.9703768000472337],,,,,,,,luctew,001,fr,1,2022-05-12_14h56.18.810,Continuous,2022.1.1,None,
7,0,7,0,6,0,6,0,,,,,,,,1.125044620355629,time,1328.0,12.870436393172765,0.00023135688804556707,0,89,"['none', 'both', 'frequency']",0.016080350149422884,None,['space'],308.5238937998656,308.5238937998656,0.22177775017917156,1.3468223705348006,308.74389909999445,308.5238937998656,[-0.9379026999231428],,,,,,,,luctew,001,fr,1,2022-05-12_14h56.18.810,Continuous,2022.1.1,None,
7,0,7,0,7,0,7,0,,,,,,,,1.125044620355629,time,1673.0,13.612419982760002,0.0002878129097311937,0,90,"['none', 'both', 'frequency']",0.012222550110891461,0.20852455007843673,['space'],309.89431150001474,309.89431150001474,0.20852455007843673,1.3335691704340658,310.1129024999682,309.89431150001474,[-1.0679248000960797],,,,,,,,luctew,001,fr,1,2022-05-12_14h56.18.810,Continuous,2022.1.1,None,
7,0,7,0,8,0,8,0,,,,,,,,1.125044620355629,time,703.0,12.470142025718843,0.00018811658584808947,0,91,"['none', 'both', 'frequency']",0.012654850259423256,0.2116774502210319,['space'],311.26114839990623,311.26114839990623,0.2116774502210319,1.336722070576661,311.4817329000216,311.26114839990623,[-0.9632182999048382],,,,,,,,luctew,001,fr,1,2022-05-12_14h56.18.810,Continuous,2022.1.1,None,
7,0,7,0,9,0,9,0,,,,,,,,1.125044620355629,time,469.0,11.469095944213336,0.00027349434469882373,0,92,"['none', 'both', 'frequency']",0.008039150154218078,0.20006305002607405,['space'],312.6397384998854,312.6397384998854,0.20006305002607405,1.325107670381703,312.8485727000516,312.6397384998854,[-0.8135575999040157],,,,,,,,luctew,001,fr,1,2022-05-12_14h56.18.810,Continuous,2022.1.1,None,
7,0,7,0,10,0,10,0,,,,,,,,1.125044620355629,time,886.0,11.716638032939002,0.000157261907208339,0,93,"['none', 'both', 'frequency']",0.011861750157549977,None,['space'],314.0032981999684,314.0032981999684,0.21150225028395653,1.3365468706395855,314.2220280999318,314.0032981999684,[-0.9056534001138061],,,,,,,,luctew,001,fr,1,2022-05-12_14h56.18.810,Continuous,2022.1.1,None,
7,0,7,0,11,0,11,0,,,,,,,,1.125044620355629,time,,,,1,93,"['none', 'both', 'frequency']",0.01404635002836585,None,['space'],315.38176200003363,315.38176200003363,0.21368205011822283,1.3387266704738519,315.6014501999598,315.38176200003363,[-0.8753606998361647],,,,,,,,luctew,001,fr,1,2022-05-12_14h56.18.810,Continuous,2022.1.1,None,
7,0,7,0,12,0,12,0,,,,,,,,1.125044620355629,time,313.0,12.57741736560084,0.0004286201852615244,0,94,"['none', 'both', 'frequency']",0.013769150013104081,0.2110782500822097,['space'],316.7530229999684,316.7530229999684,0.2110782500822097,1.3361228704378387,316.9697851999663,316.7530229999684,[-0.17513849982060492],,,,,,,,luctew,001,fr,1,2022-05-12_14h56.18.810,Continuous,2022.1.1,None,
7,0,7,0,13,0,13,0,,,,,,,,1.125044620355629,time,140.0,2.9486795827631456,0.0008273327942453684,0,95,"['none', 'both', 'frequency']",0.011665049940347672,None,None,318.12545339995995,318.12545339995995,0.21326295007020235,1.3383075704258314,318.341754199937,318.12545339995995,,,,,,,,,luctew,001,fr,1,2022-05-12_14h56.18.810,Continuous,2022.1.1,None,
8,0,8,0,0,0,0,0,,,,,"[0.5833333333333334, 0.16666666666666666, 0.5833333333333334, 0.3333333333333333, 0.5833333333333334, 0.5833333333333334, 0.5833333333333334, 0.5833333333333334, 0.5833333333333334, 0.5833333333333334, 0.3333333333333333, 0.5833333333333334, 0.16666666666666666, 0.5833333333333334, 0.5833333333333334]",331.8788624999579,None,1.6129187392817268,time,1587.0,13.939102317856253,0.0002769735151456503,0,96,"['none', 'both', 'frequency']",0.024113249965012074,None,None,332.9095649998635,None,0.2444926497992128,1.8574113890809396,333.13774059992284,None,,319.5031928999815,None,,,,,,luctew,001,fr,1,2022-05-12_14h56.18.810,Continuous,2022.1.1,None,
8,0,8,0,1,0,1,0,,,,,,,,1.6129187392817268,time,500.0,9.077704836075831,0.00020316797228008343,0,97,"['none', 'both', 'frequency']",0.010206749895587564,None,None,334.7708051998634,334.7708051998634,0.20875225006602705,1.8216709893477538,334.99084350001067,334.7708051998634,,,,,,,,,luctew,001,fr,1,2022-05-12_14h56.18.810,Continuous,2022.1.1,None,
8,0,8,0,2,0,2,0,,,,,,,,1.6129187392817268,time,841.0,9.007163282054613,0.00011151210213745347,0,98,"['none', 'both', 'frequency']",0.012107950169593096,None,['space'],336.63863569987006,336.63863569987006,0.2128495501819998,1.8257682894637266,336.85893510002643,336.63863569987006,[-1.517544399946928],,,,,,,,luctew,001,fr,1,2022-05-12_14h56.18.810,Continuous,2022.1.1,None,
8,0,8,0,3,0,3,0,,,,,,,,1.6129187392817268,time,8000.0,7.0,0.00040641525808204974,0,99,"['none', 'both', 'frequency']",0.015618250239640474,None,None,338.5043150000274,338.5043150000274,0.22190295020118356,1.8348216894829104,338.7160271999892,338.5043150000274,,,,,,,,,luctew,001,fr,1,2022-05-12_14h56.18.810,Continuous,2022.1.1,None,
8,0,8,0,4,0,4,0,,,,,,,,1.6129187392817268,time,561.0,7.275927970120702,0.0001431159996545061,0,100,"['none', 'both', 'frequency']",0.012270150240510702,None,['space'],340.3590654998552,340.3590654998552,0.21027085022069514,1.823189589502422,340.5806423998438,340.3590654998552,[-1.4935729999560863],,,,,,,,luctew,001,fr,1,2022-05-12_14h56.18.810,Continuous,2022.1.1,None,
8,0,8,0,5,0,5,0,,,,,,,,1.6129187392817268,time,1059.0,7.176484139973272,0.00010628358392419011,0,101,"['none', 'both', 'frequency', 'time']",0.008758750278502703,None,None,342.22098220000044,342.22098220000044,0.20216925023123622,1.815087989512963,342.4317254999187,342.22098220000044,,,,,,,,"{'estimation': [[125.0, 9.935230854493785], [131.9382934724305, 9.0], [133.9716828170366, 8.75095318667471], [138.91306112340826, 8.0], [143.5872943746293, 7.327320231281325], [145.99860886685846, 7.0], [153.61251569212988, 6.0], [153.89305166811442, 5.964115777223249], [164.39154574393214, 5.0], [164.93848884661162, 4.951063016221215], [176.77669529663666, 4.493078447841903], [189.46457081379936, 4.66344209516584], [195.60779440068723, 5.0], [203.0630990890585, 5.396420806420587], [210.71175890535235, 6.0], [217.6376408240306, 6.526774725318836], [223.04055269225583, 7.0], [233.25824788420147, 7.8556862970003865], [234.9623093120033, 8.0], [247.25287176138622, 9.0], [249.99999999999937, 9.213655033728063], [260.7743703334723, 10.0], [267.94336563407256, 10.501332983730698], [275.8406034724019, 11.0], [287.1745887492579, 11.694649671609149], [292.71786288782675, 12.0], [307.78610333622805, 12.813805281290087], [311.58718401380855, 13.0], [329.87697769322244, 13.878738230081549], [332.70818292471995, 14.0], [353.55339059327247, 14.867550498694133], [357.47572876399863, 14.999999999999998], [378.929141627598, 15.6946050787075], [394.54253399838126, 16.0], [406.12619817811606, 16.215328977342736], [435.2752816480601, 16.25551848359958], [448.3307353781187, 16.0], [466.5164957684015, 15.661080691648515], [483.12901135099656, 15.0], [499.9999999999975, 14.354158516350214], [506.29426017652287, 14.0], [524.3740080939285, 13.0], [535.8867312681438, 12.381481486580387], [541.7977188178385, 12.0], [557.4323361257597, 11.0], [573.4955253012548, 10.0], [574.3491774985143, 9.947759893811709], [589.4773219664536, 9.0], [605.7327040684169, 8.0], [615.5722066724546, 7.409842925023207], [623.7084131688028, 7.0], [643.8344337495392, 6.0], [659.7539553864432, 5.231834655284417], [667.7335183009556, 5.0], [703.1200316548744, 4.0], [707.1067811865431, 3.8902747014469616], [757.8582832551941, 3.7563686838130206], [768.3364536374635, 4.0], [812.252396356229, 4.977873618756249], [812.7652738673625, 5.0], [836.3086748593706, 6.0], [860.6423995316661, 7.0], [870.5505632961181, 7.393751484855132], [882.2683931128676, 8.0], [901.8192716443186, 9.0], [921.9369710412562, 10.0], [933.0329915368008, 10.533210025154986], [942.6694482639479, 11.0], [963.4682919417293, 12.0], [984.7767408583165, 13.0], [999.9999999999926, 13.690357814337286], [1009.0223647753871, 14.0], [1038.5582416045459, 15.0], [1069.1307728816967, 16.0], [1071.773462536285, 16.084475006551912], [1144.1340307276678, 17.0], [1148.698354997026, 17.055688976465877], [1154.1472346684188, 17.0], [1231.1444133449063, 16.246261902964783], [1239.450835015096, 16.0], [1273.5979408935877, 15.0], [1308.8189067432747, 14.0], [1319.5079107728832, 13.705260735139568], [1336.7415100547094, 13.0], [1361.114556935668, 12.0], [1385.8277608370067, 11.0], [1411.3660620463, 10.0], [1414.2135623730846, 9.89107147237334], [1434.9915285385096, 9.0], [1458.0285499120878, 8.0], [1481.180206923382, 7.0], [1504.880328083374, 6.0], [1515.7165665103846, 5.554520669694062], [1530.8862771341387, 5.0], [1557.835394046722, 4.0], [1584.701461397873, 3.0], [1611.954187184991, 2.0], [1624.5047927124563, 1.5478213456518826], [1646.3240568501653, 1.0], [1685.7608072884402, 0.0], [1725.3214060120115, -1.0], [1741.1011265922318, -1.3956715022282287], [1793.2394429491173, -2.0], [1866.065983073597, -2.842260060863511], [1999.9999999999802, -2.757331132896775], [2084.4054530858157, -2.0], [2143.5469250725646, -1.48819923270145], [2182.9519484691987, -1.0], [2266.9934287874, 0.0], [2297.396709994046, 0.34668608089228525], [2358.6655526780996, 1.0], [2458.390845774535, 2.0], [2462.2888266898062, 2.0374104902180417], [2639.01582154576, 2.9818700890675625], [2828.427124746159, 2.8522410044997892], [2974.777382114825, 2.0], [3031.4331330207615, 1.6789644475616687], [3110.6589382528696, 1.0], [3228.99308943947, 0.0], [3249.0095854249043, -0.16666532120549943], [3349.0135278450407, -1.0], [3471.407397666182, -2.0], [3482.2022531844555, -2.086840446969233], [3649.3626698231897, -3.0], [3732.1319661471844, -3.4377839819697398], [3999.9999999999504, -3.7207287557894917], [4206.411329611492, -3.0], [4287.093850145118, -2.7296681601685964], [4390.331894254875, -2.0], [4535.5227298724285, -1.0], [4594.793419988081, -0.6034919026769268], [4663.675550328031, 0.0], [4778.975635648801, 1.0], [4897.378416225447, 2.0], [4924.577653379601, 2.224452221627783], [5016.022635963608, 3.0], [5135.2696305841755, 4.0], [5257.90257524119, 5.0], [5278.031643091506, 5.160605916052555], [5404.524192275329, 6.0], [5558.269674703838, 7.0], [5656.854249492303, 7.623235333079293], [5752.204441814351, 8.0], [6011.608257256228, 9.0], [6062.866266041508, 9.192773282176951], [6498.019170849792, 9.696524305304404], [6964.404506368894, 9.215104864805859], [7053.323130486682, 9.0], [7464.2639322943505, 8.014654805999529], [7469.392928881603, 8.0], [7814.027794759619, 7.0], [7999.999999999882, 6.448477049761695]], 'plus_line': [[125.0, -1.1647271886274653], [133.9716828170366, -1.7531478365603035], [135.729357546729, -2.0], [143.22199948291785, -3.0], [143.5872943746293, -3.047041440783101], [150.27518464006897, -4.0], [153.89305166811442, -4.492770071575159], [158.7099198693027, -5.0], [164.93848884661162, -5.639689871727552], [172.06426824673017, -6.0], [176.77669529663666, -6.238766634385892], [189.46457081379947, -6.18799442496171], [193.09611628982964, -6.0], [203.0630990890585, -5.508430570666931], [209.1724457527442, -5.0], [217.6376408240306, -4.3182937755736255], [220.88586296470424, -4.0], [231.3798836795697, -3.0], [233.25824788420132, -2.8271442143102714], [242.10369688402565, -2.0], [249.99999999999937, -1.2814982475569883], [253.4968731509101, -1.0], [266.2674710999925, 0.0], [267.94336563407256, 0.1267996486334073], [282.1300074849, 1.0], [287.1745887492579, 1.3022471167759542], [301.43956453329037, 2.0], [307.78610333622805, 2.3024183328433807], [323.97770874644084, 3.0], [329.87697769322244, 3.2467934300345695], [348.1427404200675, 4.0], [353.55339059327247, 4.214730621894965], [374.44325984809115, 5.0], [378.929141627598, 5.159990896189385], [406.12619817811606, 5.894286454766135], [417.6594610702131, 6.0], [435.2752816480601, 6.146967566267875], [444.7877256014044, 6.0], [466.5164957684015, 5.670708688039053], [483.1694599613201, 5.0], [499.9999999999975, 4.35154544792171], [505.7999646470085, 4.0], [522.628209624398, 3.0], [535.8867312681438, 2.2538632106677783], [539.4621149242303, 2.0], [553.6181501093394, 1.0], [568.5825494975334, 0.0], [574.3491774985143, -0.37290562298674035], [583.357485508498, -1.0], [598.0886743292757, -2.0], [613.7632821118846, -3.0], [615.5722066724546, -3.113388512825285], [631.5507655157312, -4.0], [650.5141845157502, -5.0], [659.7539553864432, -5.468543938637021], [676.9025180357271, -6.0], [707.1067811865431, -6.894606025132837], [757.8582832551941, -6.986188335756351], [795.9520155996213, -6.0], [812.2523963562301, -5.593585828826898], [825.070995916175, -5.0], [846.6885601954151, -4.0], [868.4069530175009, -3.0], [870.5505632961181, -2.9045363153224497], [887.3857535825674, -2.0], [905.5977788425424, -1.0], [923.7145268850611, 0.0], [933.0329915368008, 0.5021597585040627], [943.1299124485876, 1.0], [963.1618932528319, 2.0], [982.862352205204, 3.0], [999.9999999999939, 3.8612278744585025], [1003.9576031557688, 4.0], [1032.7229289176614, 5.0], [1061.2031980455454, 6.0], [1071.773462536285, 6.3628257539342865], [1118.560937069028, 7.0], [1148.698354997026, 7.3931630403086155], [1190.2025809115653, 7.0], [1231.1444133449063, 6.621407325984406], [1251.5173573423904, 6.0], [1285.4793672696014, 5.0], [1319.5079107728832, 4.0697092960146675], [1321.085983770152, 4.0], [1343.3392858313307, 3.0], [1366.2771819837812, 2.0], [1390.5685010667712, 1.0], [1414.2135623730828, 0.09604427051767495], [1416.2024075317388, 0.0], [1436.3888292343452, -1.0], [1456.8687964163496, -2.0], [1478.1888453860165, -3.0], [1500.8959258821667, -4.0], [1515.7165665103846, -4.618138889143581], [1524.4878899890073, -5.0], [1547.0959095556216, -6.0], [1570.1575796386571, -7.0], [1594.2059808528916, -8.0], [1619.774956352372, -9.0], [1624.5047927124563, -9.181201787721989], [1650.4720250550586, -10.0], [1682.558656848115, -11.0], [1715.8445584405356, -12.0], [1741.1011265922318, -12.729982248686683], [1758.4694291431895, -13.0], [1822.9210477753431, -14.0], [1866.065983073597, -14.65173251430691], [1999.9999999999802, -14.774930417770653], [2080.1610662937605, -14.0], [2143.5469250725646, -13.405144275800378], [2171.1354042999747, -12.999999999999998], [2240.7102950437297, -12.0], [2297.396709994046, -11.204528225987445], [2312.199276635605, -11.0], [2386.9004776048887, -10.0], [2462.2888266898062, -9.022398971368998], [2464.982614073368, -9.0], [2592.4753011361367, -8.0], [2639.01582154576, -7.658037070788508], [2828.427124746159, -7.582682013951584], [2895.9788271080474, -8.0], [3031.4331330207615, -8.8001864679574], [3052.0169868509092, -9.0], [3156.3828525783597, -10.0], [3249.0095854249043, -10.835656585080383], [3266.6208749214215, -11.0], [3374.9044224377694, -12.0], [3482.2022531844555, -12.929999324334394], [3494.167300389286, -13.0], [3668.8657545306723, -14.0], [3732.1319661471844, -14.346500671711762], [3999.9999999999504, -14.579133337260647], [4149.67569638746, -14.0], [4287.093850145118, -13.489983050964351], [4354.826904853797, -13.0], [4493.336215194338, -12.0], [4594.793419988081, -11.272362408892636], [4626.13166300106, -11.0], [4740.90031717407, -10.0], [4853.471398816612, -9.0], [4924.577653379601, -8.373661415095334], [4969.337763797023, -8.0], [5088.176631123648, -7.0], [5204.751393231763, -6.0], [5278.0316430915, -5.377065464605695], [5335.424016724078, -5.0], [5487.28020804383, -4.0], [5637.711076716032, -3.0], [5656.854249492303, -2.8756458375839387], [5884.98279013007, -2.0], [6062.866266041516, -1.3253299919136805], [6385.952854051718, -1.0], [6498.019170849792, -0.8931610721149906], [6577.724834179115, -1.0], [6964.404506368894, -1.5156297681507285], [7124.9973745028265, -2.0], [7464.2639322943505, -2.995912177680574], [7465.254539711784, -3.0], [7703.042430808062, -4.0], [7945.105525700573, -5.0], [7999.999999999872, -5.225885939398962]], 'minus_line': [[125.0, 20.930386725165814], [129.2648759035776, 20.0], [133.9716828170366, 19.037415515840472], [134.1764879443704, 19.0], [139.84472690265744, 18.0], [143.5872943746293, 17.36288297301455], [146.1764104892374, 17.0], [153.49252101288022, 16.0], [153.89305166811442, 15.947063807900932], [164.58239451521698, 15.0], [164.93848884661162, 14.969568921675785], [176.77669529663666, 14.60356035934026], [189.46457081379947, 14.882529611989252], [191.38915984685346, 15.0], [203.0630990890585, 15.700294094982054], [206.8343913109922, 16.0], [217.6376408240306, 16.826648120272264], [219.7475662592675, 17.0], [232.49892279567754, 18.0], [233.25824788420132, 18.057273601500906], [245.90174318212925, 19.0], [249.99999999999937, 19.28889752688792], [260.20556241584126, 20.0], [267.94336563407256, 20.513086869672463], [275.2105073796833, 21.0], [287.1745887492579, 21.772141251091742], [290.7248438617733, 22.0], [306.65909119705077, 23.0], [307.78610333622805, 23.069567033151962], [323.8798146501647, 24.0], [329.87697769322244, 24.338126851817588], [343.92521655817217, 25.0], [353.55339059327247, 25.44275591037983], [371.00898121096225, 26.0], [378.929141627598, 26.24728575883107], [406.12619817811606, 26.63150837667365], [435.2752816480601, 26.489533235298218], [455.15544236031263, 26.0], [466.5164957684015, 25.7376235343192], [483.8863194613928, 25.0], [499.9999999999975, 24.33534818048479], [505.90450158329065, 24.0], [523.6642751114972, 23.0], [535.8867312681438, 22.318283692313095], [540.8986089541725, 22.0], [556.6458296673349, 21.0], [572.2437221230392, 20.0], [574.3491774985143, 19.868261475840036], [588.6401865747732, 19.0], [604.8186447605478, 18.0], [615.5722066724546, 17.34019921560794], [622.5251807294294, 17.0], [642.9920418516984, 16.0], [659.7539553864432, 15.18128879272819], [666.1043912649477, 15.0], [701.9198072765759, 14.0], [707.1067811865431, 13.858936465621849], [757.8582832551951, 13.722638786536073], [770.265408968204, 14.0], [812.2523963562301, 14.9017608483326], [814.5495438213295, 15.0], [838.1345858184868, 16.0], [863.4261132646566, 17.0], [870.5505632961181, 17.27125085899521], [884.2341522355415, 18.0], [903.6176949959448, 19.0], [924.3810786324811, 20.0], [933.0329915368008, 20.39816315307302], [944.871795348156, 21.0], [964.9760168039263, 22.0], [986.378223176022, 23.0], [999.9999999999926, 23.60187808794476], [1011.0525759902821, 24.0], [1039.4062286021438, 25.0], [1069.8757077976682, 26.0], [1071.773462536285, 26.061072419224182], [1145.065286937181, 27.0], [1148.698354997026, 27.04523988133613], [1152.6256635554873, 27.0], [1231.1444133449063, 26.14196927712716], [1235.7641207510676, 26.0], [1268.5636820313957, 25.0], [1300.9210164668884, 24.0], [1319.5079107728832, 23.43544641166134], [1330.4221914539585, 23.0], [1354.954326322975, 22.0], [1378.6547110932422, 21.0], [1402.127248789521, 20.0], [1414.2135623730828, 19.496977642497107], [1426.7372020367716, 19.0], [1451.1031277402512, 18.0], [1474.3956069989065, 17.0], [1497.2331415011581, 16.0], [1515.7165665103846, 15.20019538305306], [1521.8607443160959, 15.0], [1551.9806329167607, 14.0], [1580.616031043608, 13.0], [1608.5304805690828, 11.999999999999998], [1624.5047927124563, 11.43291025231498], [1644.6195391201047, 11.0], [1690.0077601348423, 10.0], [1733.9440472099077, 8.999999999999998], [1741.1011265922318, 8.838440867393542], [1835.1438709168608, 8.0], [1866.065983073597, 7.72500361327441], [1997.5315347682758, 8.0], [1999.9999999999802, 8.005236943083705], [2110.392678862338, 9.0], [2143.5469250725646, 9.28678342071423], [2206.927959865012, 10.0], [2297.396709994046, 10.950336022846528], [2302.792969297387, 11.0], [2415.4878658920525, 12.0], [2462.2888266898062, 12.389098143798837], [2608.850826717211, 13.0], [2639.01582154576, 13.121804291433913], [2765.14501748467, 13.0], [2828.427124746162, 12.943052342818364], [3010.9908419387793, 12.0], [3031.4331330207615, 11.896096108120378], [3150.720826327908, 11.0], [3249.0095854249043, 10.250133870955095], [3281.79847938482, 10.0], [3412.9356300783634, 9.0], [3482.2022531844555, 8.47069804739361], [3569.520202202602, 8.0], [3732.1319661471844, 7.139470857732833], [3837.9692055802334, 7.0], [3999.9999999999504, 6.801132160643617], [4058.7958230077998, 7.0], [4287.093850145124, 7.745903196329402], [4321.889473493823, 8.0], [4461.685767140068, 9.0], [4594.793419988081, 9.888006236492195], [4606.864652553339, 10.0], [4714.737419644199, 11.0], [4828.621748965352, 12.0], [4924.577653379601, 12.791523714682315], [4947.6182916549205, 13.0], [5058.574885651158, 14.0], [5175.689867432314, 15.0], [5278.031643091506, 15.820118511327793], [5303.409351927067, 16.0], [5445.64037388885, 17.0], [5597.017866100379, 18.0], [5656.854249492303, 18.380354323652906], [5802.858508779145, 19.0], [6050.476264039132, 20.0], [6062.866266041508, 20.049090228430853], [6498.019170849792, 20.67180736121192], [6964.404506368902, 20.328005618462964], [7137.663339687673, 20.0], [7464.2639322943505, 19.39151002281899], [7690.569435773324, 19.0], [7999.999999999882, 18.457080389102966]]}",luctew,001,fr,1,2022-05-12_14h56.18.810,Continuous,2022.1.1,None,
8,0,8,0,6,0,6,0,,,,,,,,1.6129187392817268,time,3563.0,3.1505176984380086,0.00010961607981561945,0,102,"['none', 'both', 'frequency', 'time']",0.007093349937349558,0.18768684985116124,['space'],344.0848369000014,344.0848369000014,0.18768684985116124,1.800605589132888,344.2855964000337,344.0848369000014,[-1.5941501001361758],,,,,,,,luctew,001,fr,1,2022-05-12_14h56.18.810,Continuous,2022.1.1,None,
8,0,8,0,7,0,7,0,,,,,,,,1.6129187392817268,time,,,,1,102,"['none', 'both', 'frequency', 'time']",0.010480050230398774,None,['space'],345.9321228999179,345.9321228999179,0.21257175016216934,1.8254904894438961,346.15416270005517,345.9321228999179,[-1.3626024001277983],,,,,,,,luctew,001,fr,1,2022-05-12_14h56.18.810,Continuous,2022.1.1,None,
,,,,,,,,,,,,,,,1.6129187392817268,time,2378.0,7.267729726114411,0.0001920714849103296,0,103,"['none', 'both', 'frequency', 'time']",,,,,,,,,,,,,,,,,,,,,,,,,,
