frequencies,training_trials.thisRepN,training_trials.thisTrialN,training_trials.thisN,training_trials.thisIndex,frequencies.thisRepN,frequencies.thisTrialN,frequencies.thisN,frequencies.thisIndex,trials.thisRepN,trials.thisTrialN,trials.thisN,trials.thisIndex,tFrequency,tLevel,tCorrect,Tprobe.started,Tprobe.stopped,tTriangle_cue.started,tTriangle_cue.stopped,Tfeedback.keys,Tfeedback.corr,Tfeedback.rt,Tfeedback.started,Tfeedback.stopped,reversals_nTrials.routineEndVal,track_dir.routineEndVal,step_up.routineEndVal,Correct,Frequency,Level,Psychopy_Level,Direction,Reversals,Track_dir,Step,probe.started,probe.stopped,cross_cue.started,cross_cue.stopped,circle_cue.started,circle_cue.stopped,triangle_cue.started,triangle_cue.stopped,feedback.keys,feedback.corr,feedback.rt,feedback.started,feedback.stopped,memo.started,memo.stopped,participant,session,skip_training,language (english or french),date,expName,psychopyVersion,frameRate,
1300,0,0,0,3,,,,,,,,,1300,30,right,41.994966710003794,None,41.96707270000479,42.27315570000792,right,1,5.064434900006745,39.521349600021495,None,,,,,,,,,,,,,,,,,,,,,,,,,,,gtyzck,001,0,fr,2022-04-27_11h27.59.736,3-AFC_adaptive_staircase_mess,2022.1.1,None,
200,0,1,1,0,,,,,,,,,200,30,up,49.18530831001699,None,50.151315100025386,50.458988500002306,up,1,3.4899774999939837,47.7366135000193,None,,,,,,,,,,,,,,,,,,,,,,,,,,,gtyzck,001,0,fr,2022-04-27_11h27.59.736,3-AFC_adaptive_staircase_mess,2022.1.1,None,
450,0,2,2,1,,,,,,,,,450,30,right,55.505692910013025,None,55.440542399999686,55.77485730001354,right,1,3.3510630000091624,53.04275230001076,None,,,,,,,,,,,,,,,,,,,,,,,,,,,gtyzck,001,0,fr,2022-04-27_11h27.59.736,3-AFC_adaptive_staircase_mess,2022.1.1,None,
5000,0,3,3,4,,,,,,,,,5000,30,left,58.873311110003854,59.0907079000026,60.81061040001805,61.13409030000912,left,1,3.2894038000085857,58.41629880000255,None,,,,,,,,,,,,,,,,,,,,,,,,,,,gtyzck,001,0,fr,2022-04-27_11h27.59.736,3-AFC_adaptive_staircase_mess,2022.1.1,None,
850,0,4,4,2,,,,,,,,,850,30,right,65.83486330999877,66.05588960001478,65.77460760000395,66.08712470001774,right,1,3.309248800011119,63.37213550001616,None,,,,,,,,,,,,,,,,,,,,,,,,,,,gtyzck,001,0,fr,2022-04-27_11h27.59.736,3-AFC_adaptive_staircase_mess,2022.1.1,None,
,,,,,0,0,0,0,0,0,0,0,,,,,,,,,,,,,[],[],5,left,1000,50,0.013930605843148852,0,0,-1,5,71.56393371000304,71.78039630001877,71.50815440001315,71.8080036000174,72.52886360001867,72.84916730000987,73.51831480002147,73.84837710001739,left,1,2.888963200006401,71.56767710001441,None,74.08779160000267,None,gtyzck,001,0,fr,2022-04-27_11h27.59.736,3-AFC_adaptive_staircase_mess,2022.1.1,None,
,,,,,0,0,0,0,1,0,1,0,,,,,,,,,,,,,,,,up,1000,40,0.004405244365040069,-1,0,-1,-10,77.00324411002221,None,75.94471710000653,76.27099430002272,76.94317260000389,77.24965680000605,77.94409150001593,78.2646165000042,up,1,2.7914641000097618,76.00225080002565,None,78.49786760000279,None,gtyzck,001,0,fr,2022-04-27_11h27.59.736,3-AFC_adaptive_staircase_mess,2022.1.1,None,
,,,,,0,0,0,0,2,0,2,0,,,,,,,,,,,,,,,,left,1000,30,0.0013930605843148849,-1,0,-1,-10,80.34603991000331,80.55364990001544,80.28888800001005,80.6117659000156,81.30459030001657,81.62788159999764,82.2813879000023,82.60225050000008,left,1,2.8804688999953214,80.34602340002311,None,82.83518870000262,None,gtyzck,001,0,fr,2022-04-27_11h27.59.736,3-AFC_adaptive_staircase_mess,2022.1.1,None,
,,,,,0,0,0,0,3,0,3,0,,,,,,,,,,,,,,,,left,1000,20,0.0004405244365040069,-1,0,-1,-10,84.7656172099989,84.9838467000227,84.70840480001061,85.01089580002008,85.71814660000382,86.03984140002285,86.70338280001306,87.02929340000264,left,1,2.763779999979306,84.76614380002138,None,87.26398640000843,None,gtyzck,001,0,fr,2022-04-27_11h27.59.736,3-AFC_adaptive_staircase_mess,2022.1.1,None,
,,,,,0,0,0,0,4,0,4,0,,,,,,,,,,,,,,,,up,1000,10,0.00013930605843148847,-1,0,-1,-10,90.03949061000021,90.25647870000103,88.98408010002458,89.30923070001882,89.9816897000128,90.28354510001373,90.98315480002202,91.30690370002412,up,1,2.3264017999754287,89.04289470001822,None,None,None,gtyzck,001,0,fr,2022-04-27_11h27.59.736,3-AFC_adaptive_staircase_mess,2022.1.1,None,
,,,,,0,0,0,0,5,0,5,0,,,,,,,,,,,,,,,,up,1000,0,4.405244365040069e-05,-1,0,-1,-10,None,None,92.87223330000415,None,None,None,None,None,up,1,-0.7825167000119109,92.93622600001981,None,None,None,gtyzck,001,0,fr,2022-04-27_11h27.59.736,3-AFC_adaptive_staircase_mess,2022.1.1,None,
,,,,,0,0,0,0,6,0,6,0,,,,,,,,,,,,,,,,right,1000,-10,1.3930605843148848e-05,-1,0,-1,-10,96.46966491001076,None,94.39323040001909,94.69339310002397,95.40072100001271,95.72186350001721,96.40978880002513,96.72386080000433,up,0,3.0312627000093926,94.45052600000054,None,96.9561477000243,None,gtyzck,001,0,fr,2022-04-27_11h27.59.736,3-AFC_adaptive_staircase_mess,2022.1.1,None,
,,,,,0,0,0,0,7,0,7,0,,,,,,,,,,,,,,,,up,1000,-5,2.4772509540239506e-05,1,1,1,5,100.00574481000076,None,98.94886800000677,99.27560530000483,99.94601110002259,100.26321050000843,100.95966050002608,101.28494330000831,right,0,2.9862553999992087,99.00752959999954,None,101.48835270002019,None,gtyzck,001,0,fr,2022-04-27_11h27.59.736,3-AFC_adaptive_staircase_mess,2022.1.1,None,
,,,,,0,0,0,0,8,0,8,0,,,,,,,,,,,,,,,,left,1000,0,4.405244365040069e-05,1,1,1,5,103.5392997100018,103.75943490001373,103.48132700001588,103.79152980001527,104.49543680000352,104.81708300000173,105.47624830002314,105.77768300002208,left,1,2.93299569998635,103.54093810002087,None,106.04105349999736,None,gtyzck,001,0,fr,2022-04-27_11h27.59.736,3-AFC_adaptive_staircase_mess,2022.1.1,None,
,,,,,0,0,0,0,9,0,9,0,,,,,,,,,,,,,,,,up,1000,-10,1.3930605843148848e-05,-1,2,-1,-10,109.01779180999729,None,107.95957630002522,108.2604911000235,108.96193330001552,109.27470200002426,109.94928320002509,110.27339380001649,up,1,2.9660902000032365,108.02003920002608,None,110.51034660000005,None,gtyzck,001,0,fr,2022-04-27_11h27.59.736,3-AFC_adaptive_staircase_mess,2022.1.1,None,
,,,,,0,0,0,0,10,0,10,0,,,,,,,,,,,,,,,,up,1000,-20,4.405244365040069e-06,-1,2,-1,-10,113.5185972100182,None,112.45435750001343,112.7595879000146,113.46022380000795,113.77478310000151,114.46721540001454,114.77193490002537,up,1,2.9203914999961853,112.51238480000757,None,115.00571850000415,None,gtyzck,001,0,fr,2022-04-27_11h27.59.736,3-AFC_adaptive_staircase_mess,2022.1.1,None,
,,,,,0,0,0,0,11,0,11,0,,,,,,,,,,,,,,,,right,1000,-30,1.3930605843148862e-06,-1,2,-1,-10,118.97953941002488,None,116.93517190002603,117.24109240001417,117.95131950001814,118.2792467000254,118.92284559999825,119.24012370000128,left,0,2.8872388000017963,116.99460880001425,None,119.48331120001967,None,gtyzck,001,0,fr,2022-04-27_11h27.59.736,3-AFC_adaptive_staircase_mess,2022.1.1,None,
,,,,,0,0,0,0,12,0,12,0,,,,,,,,,,,,,,,,left,1000,-25,2.4772509540239526e-06,1,3,1,2.5,121.43146291001467,None,121.37532530000317,121.68469090000144,122.36414859999786,122.68655820001732,123.36204060001182,123.69071049999911,right,0,2.846568799985107,121.43569810001645,None,123.9257766000228,None,gtyzck,001,0,fr,2022-04-27_11h27.59.736,3-AFC_adaptive_staircase_mess,2022.1.1,None,
,,,,,0,0,0,0,13,0,13,0,,,,,,,,,,,,,,,,left,1000,-22.5,3.303467240037979e-06,1,3,1,2.5,125.82390910999966,126.04838600000949,125.79601510000066,126.109480300016,126.81054060001043,127.11592320000636,127.79818620000151,128.10304919999908,left,1,2.6482789000147022,125.82491180000943,None,128.33792330001597,None,gtyzck,001,0,fr,2022-04-27_11h27.59.736,3-AFC_adaptive_staircase_mess,2022.1.1,None,
,,,,,0,0,0,0,14,0,14,0,,,,,,,,,,,,,,,,up,1000,-27.5,1.857676145485864e-06,-1,4,-1,-5.0,131.01678561001899,None,129.956456600019,130.27831280001556,130.96000010002172,131.28158390001045,131.97027119999984,132.27479419999872,up,1,3.1324131000146735,130.01389729999937,None,132.51488880001125,None,gtyzck,001,0,fr,2022-04-27_11h27.59.736,3-AFC_adaptive_staircase_mess,2022.1.1,None,
,,,,,0,0,0,0,15,0,15,0,,,,,,,,,,,,,,,,up,1000,-32.5,1.0446480654270205e-06,-1,4,-1,-5.0,135.6653268100228,135.8919586999982,134.64436740000383,134.97525480002514,135.63743280002382,135.9525509000232,136.61571220000042,136.94665440000244,left,0,3.109044599987101,134.6763528000156,None,137.18393470000592,None,gtyzck,001,0,fr,2022-04-27_11h27.59.736,3-AFC_adaptive_staircase_mess,2022.1.1,None,
,,,,,0,0,0,0,16,0,16,0,,,,,,,,,,,,,,,,left,1000,-30.0,1.3930605843148862e-06,1,5,1,2.5,139.32296141000114,None,139.2658954000217,139.56195220001973,140.24988290001056,140.55351510000764,141.25977150001563,141.55932120000944,up,0,2.9729661000019405,139.32378659999813,None,141.82308260002173,None,gtyzck,001,0,fr,2022-04-27_11h27.59.736,3-AFC_adaptive_staircase_mess,2022.1.1,None,
,,,,,0,0,0,0,17,0,17,0,,,,,,,,,,,,,,,,up,1000,-27.5,1.857676145485864e-06,1,5,1,2.5,144.8490442100039,None,143.8043592000031,144.11140250001336,144.78944420002517,145.097076200007,145.80325480000465,146.10467880000942,right,0,3.0869322000071406,143.8347171000205,None,146.34449650000897,None,gtyzck,001,0,fr,2022-04-27_11h27.59.736,3-AFC_adaptive_staircase_mess,2022.1.1,None,
,,,,,0,0,0,0,18,0,18,0,,,,,,,,,,,,,,,,right,1000,-25.0,2.4772509540239526e-06,1,5,1,2.5,150.4488818100246,150.6684843999974,148.3903394000081,148.72431630000938,149.39329370000632,149.72851140002604,150.4209878000256,150.73089380000602,left,0,2.953234299988253,148.44883910001954,None,150.969840500009,None,gtyzck,001,0,fr,2022-04-27_11h27.59.736,3-AFC_adaptive_staircase_mess,2022.1.1,None,
,,,,,0,0,0,0,19,0,19,0,,,,,,,,,,,,,,,,right,1000,-22.5,3.303467240037979e-06,1,5,1,2.5,154.96360661000944,None,152.92094550002366,153.22649970001657,153.9237482000026,154.22617500001797,154.90349990001414,155.21834469999885,up,0,3.1235508999961894,152.9498907000234,None,155.4531144000066,None,gtyzck,001,0,fr,2022-04-27_11h27.59.736,3-AFC_adaptive_staircase_mess,2022.1.1,None,
,,,,,0,0,0,0,20,0,20,0,,,,,,,,,,,,,,,,up,1000,-20.0,4.405244365040069e-06,1,5,1,2.5,158.60426651001325,None,157.56096640002215,157.86773890000768,158.54404060001252,158.86142810000456,159.54304270001012,159.8722909000062,left,0,3.2054986000002827,157.58827130001737,None,160.0861202000233,None,gtyzck,001,0,fr,2022-04-27_11h27.59.736,3-AFC_adaptive_staircase_mess,2022.1.1,None,
,,,,,0,0,0,0,21,0,21,0,,,,,,,,,,,,,,,,left,1000,-17.5,5.874487774697645e-06,1,5,1,2.5,162.35219280999735,None,162.2950968000223,162.61636179999914,163.3005932000233,163.60534780001035,164.28819620001013,164.61728080001194,left,1,3.239626100024907,162.35387849999825,None,164.85113230001298,None,gtyzck,001,0,fr,2022-04-27_11h27.59.736,3-AFC_adaptive_staircase_mess,2022.1.1,None,
,,,,,0,0,0,0,22,0,22,0,,,,,,,,,,,,,,,,right,1000,-22.5,3.303467240037979e-06,-1,6,-1,-5.0,169.15068051002453,None,167.10285960001056,167.4040270000114,168.08735360001447,168.4135549000057,169.0948183000146,169.41366990000824,up,0,6.847493600012967,167.1306607000006,None,169.65534080000361,None,gtyzck,001,0,fr,2022-04-27_11h27.59.736,3-AFC_adaptive_staircase_mess,2022.1.1,None,
,,,,,0,0,0,0,23,0,23,0,,,,,,,,,,,,,,,,left,1000,-20.0,4.405244365040069e-06,1,7,1,2.5,175.53161251002456,None,175.47470040002372,175.7912969000172,176.4954053000256,176.82131410000147,177.48998450001818,177.8176937000244,right,0,3.0210590999922715,175.5328192000161,None,178.02487200000905,None,gtyzck,001,0,fr,2022-04-27_11h27.59.736,3-AFC_adaptive_staircase_mess,2022.1.1,None,
,,,,,0,0,0,0,24,0,24,0,,,,,,,,,,,,,,,,left,1000,-17.5,5.874487774697645e-06,1,7,1,2.5,180.11538261002278,180.33670830001938,180.05576129999827,180.36522890001652,181.04104890002054,181.36886680001044,182.06715909999912,182.389322300005,left,1,2.948694200022146,180.11591079999926,None,182.5935712000064,None,gtyzck,001,0,fr,2022-04-27_11h27.59.736,3-AFC_adaptive_staircase_mess,2022.1.1,None,
,,,,,0,0,0,0,25,0,25,0,,,,,,,,,,,,,,,,up,1000,-22.5,3.303467240037979e-06,-1,8,-1,-5.0,185.65855601000948,185.87779830000363,184.60632190000615,184.93008970000665,185.59944310001447,185.90947430001688,186.61367330001667,186.91577700001653,right,0,2.8485720999888144,184.66606620000675,None,187.15153280002414,None,gtyzck,001,0,fr,2022-04-27_11h27.59.736,3-AFC_adaptive_staircase_mess,2022.1.1,None,
,,,,,1,0,1,0,0,0,0,0,,,,,,,,,,,,,[],[],5,right,1500,50,0.01527460556607757,0,0,-1,5,191.08301541001418,None,189.02186760000768,189.34091690002242,190.01092200001585,190.33503850002307,191.0191082000092,191.34352780002519,right,1,2.8968476000009105,189.0806225000124,None,191.55772380001144,None,gtyzck,001,0,fr,2022-04-27_11h27.59.736,3-AFC_adaptive_staircase_mess,2022.1.1,None,
,,,,,1,0,1,0,1,0,1,0,,,,,,,,,,,,,,,,left,1500,40,0.004830254394949068,-1,0,-1,-10,193.52609151001087,None,193.49819750001188,193.81649830000242,194.5094016000221,194.83425870002247,195.50339080000413,195.8156228000007,left,1,2.8654467999876942,193.5278007000161,None,196.0370160000166,None,gtyzck,001,0,fr,2022-04-27_11h27.59.736,3-AFC_adaptive_staircase_mess,2022.1.1,None,
,,,,,1,0,1,0,2,0,2,0,,,,,,,,,,,,,,,,left,1500,30,0.001527460556607757,-1,0,-1,-10,197.94365471000782,None,197.889439999999,198.19629570000689,198.8939269000257,199.22033530002227,199.89585339999758,200.21780450001825,left,1,2.925499699980719,197.9475259000028,None,200.45580660001724,None,gtyzck,001,0,fr,2022-04-27_11h27.59.736,3-AFC_adaptive_staircase_mess,2022.1.1,None,
,,,,,1,0,1,0,3,0,3,0,,,,,,,,,,,,,,,,left,1500,20,0.00048302543949490677,-1,0,-1,-10,202.42048330999677,202.6407207000011,202.36368440001388,202.6677341000177,203.35954400000628,203.68515200002003,204.36333600000944,204.68711260001874,left,1,2.9329953999840654,202.42135440002312,None,204.92368780000834,None,gtyzck,001,0,fr,2022-04-27_11h27.59.736,3-AFC_adaptive_staircase_mess,2022.1.1,None,
,,,,,1,0,1,0,4,0,4,0,,,,,,,,,,,,,,,,left,1500,10,0.0001527460556607757,-1,0,-1,-10,206.89236441000247,None,206.8356759000162,207.14284780001617,207.8401126000099,208.1630017000134,208.85753930002102,209.186105700006,left,1,3.1298017000081018,206.89624860000913,None,209.39226210000925,None,gtyzck,001,0,fr,2022-04-27_11h27.59.736,3-AFC_adaptive_staircase_mess,2022.1.1,None,
,,,,,1,0,1,0,5,0,5,0,,,,,,,,,,,,,,,,left,1500,0,4.830254394949071e-05,-1,0,-1,-10,211.57000621002516,None,211.49962060002144,211.80959620000795,212.5360772999993,212.8668985000113,213.50651820001076,213.83372039999813,left,1,2.791828200017335,211.56963920002454,None,214.06973750001634,None,gtyzck,001,0,fr,2022-04-27_11h27.59.736,3-AFC_adaptive_staircase_mess,2022.1.1,None,
,,,,,1,0,1,0,6,0,6,0,,,,,,,,,,,,,,,,left,1500,-10,1.527460556607758e-05,-1,0,-1,-10,215.8938062100089,None,215.86591220000992,216.17240070001571,216.84290180000244,217.1636118000024,217.8528013000032,218.1777217000199,up,0,3.2660261999990325,215.89459300000453,None,218.40958460001275,None,gtyzck,001,0,fr,2022-04-27_11h27.59.736,3-AFC_adaptive_staircase_mess,2022.1.1,None,
,,,,,1,0,1,0,7,0,7,0,,,,,,,,,,,,,,,,left,1500,-5,2.716251657462168e-05,1,1,1,5,220.7035580100084,None,220.65602630001376,220.96186060001492,221.64748569999938,221.943024600012,222.6823736000224,223.00440000000526,right,0,2.8764995000092313,220.7175252000161,None,223.20746510001482,None,gtyzck,001,0,fr,2022-04-27_11h27.59.736,3-AFC_adaptive_staircase_mess,2022.1.1,None,
,,,,,1,0,1,0,8,0,8,0,,,,,,,,,,,,,,,,up,1500,0,4.830254394949071e-05,1,1,1,5,226.14414631000835,226.36244440000155,225.07444950001081,225.39383650000673,226.08839420002187,226.39097520001815,227.0850739000016,227.404449499998,up,1,2.431470499985153,225.13127820001682,None,None,None,gtyzck,001,0,fr,2022-04-27_11h27.59.736,3-AFC_adaptive_staircase_mess,2022.1.1,None,
,,,,,1,0,1,0,9,0,9,0,,,,,,,,,,,,,,,,up,1500,-10,1.527460556607758e-05,-1,2,-1,-10,230.10898741001728,230.32258320000255,229.03820599999744,229.36014230002183,230.05302069999743,230.37720680001075,231.05324810001184,231.35692940000445,right,0,2.9827829000132624,229.1231117999996,None,231.589676100004,None,gtyzck,001,0,fr,2022-04-27_11h27.59.736,3-AFC_adaptive_staircase_mess,2022.1.1,None,
,,,,,1,0,1,0,10,0,10,0,,,,,,,,,,,,,,,,right,1500,-5,2.716251657462168e-05,1,3,1,2.5,235.63370771000626,235.85799280001083,233.57367300000624,233.89876960002584,234.5862138000084,234.910990400007,235.5770104000112,235.88695670000743,right,1,2.787724399997387,233.62206800002605,None,236.14941300000646,None,gtyzck,001,0,fr,2022-04-27_11h27.59.736,3-AFC_adaptive_staircase_mess,2022.1.1,None,
,,,,,1,0,1,0,11,0,11,0,,,,,,,,,,,,,,,,left,1500,-10.0,1.527460556607758e-05,-1,4,-1,-5.0,237.97612821001093,238.1956380000047,237.9190813000023,238.2232942999981,238.94099430000642,239.26581060001627,239.9317177000048,240.25447380001424,left,1,3.024950799997896,237.97644379999838,None,240.48725890001515,None,gtyzck,001,0,fr,2022-04-27_11h27.59.736,3-AFC_adaptive_staircase_mess,2022.1.1,None,
,,,,,1,0,1,0,12,0,12,0,,,,,,,,,,,,,,,,right,1500,-15.0,8.589541935787946e-06,-1,4,-1,-5.0,244.5240736100124,244.74067900000955,242.46386350001558,242.76932130000205,243.4879065999994,243.80128169999807,244.49617960001342,244.82413090000045,up,0,3.1700576999865007,242.5356543000089,None,245.02940300002228,None,gtyzck,001,0,fr,2022-04-27_11h27.59.736,3-AFC_adaptive_staircase_mess,2022.1.1,None,
,,,,,1,0,1,0,13,0,13,0,,,,,,,,,,,,,,,,right,1500,-12.5,1.1454338263838873e-05,1,5,1,2.5,249.26774351000785,None,247.21327750000637,247.53163690000656,248.2196002000128,248.5528635000228,249.21117290001712,249.51405900000827,right,1,2.450931200000923,247.2709271000058,None,249.76816670999978,None,gtyzck,001,0,fr,2022-04-27_11h27.59.736,3-AFC_adaptive_staircase_mess,2022.1.1,None,
,,,,,1,0,1,0,14,0,14,0,,,,,,,,,,,,,,,,up,1500,-17.5,6.441247758465675e-06,-1,6,-1,-5.0,252.24856161001952,252.47209850000218,251.19636870000977,251.5084311000246,252.22066760002053,252.53137100001913,253.215468600014,253.5403884999978,up,1,2.915887900016969,251.25398450001376,None,253.74463600001764,None,gtyzck,001,0,fr,2022-04-27_11h27.59.736,3-AFC_adaptive_staircase_mess,2022.1.1,None,
,,,,,1,0,1,0,15,0,15,0,,,,,,,,,,,,,,,,up,1500,-22.5,3.622179800374953e-06,-1,6,-1,-5.0,256.74314091001287,256.9548202000151,255.66735160001554,255.9799619000114,256.6840276000148,257.0177153000259,257.68114690002403,258.00354420000804,left,0,3.195393299974967,255.72531910002,None,258.2330322000198,None,gtyzck,001,0,fr,2022-04-27_11h27.59.736,3-AFC_adaptive_staircase_mess,2022.1.1,None,
,,,,,1,0,1,0,16,0,16,0,,,,,,,,,,,,,,,,left,1500,-20.0,4.8302543949490704e-06,1,7,1,2.5,260.46178180999703,260.68523290002486,260.4057942000218,260.71225020001293,261.4294767000247,261.75406680000015,262.41769900001236,262.7403109000006,up,0,3.015697299997555,260.46599760002573,None,262.9672716000059,None,gtyzck,001,0,fr,2022-04-27_11h27.59.736,3-AFC_adaptive_staircase_mess,2022.1.1,None,
,,,,,1,0,1,0,17,0,17,0,,,,,,,,,,,,,,,,right,1500,-17.5,6.441247758465675e-06,1,7,1,2.5,267.0331202100089,267.25481320000836,264.97352600001614,265.2989888000011,265.9912828000088,266.31149829999777,266.97558520000894,267.2845452000038,left,0,3.242648499988718,265.02227750001475,None,267.54925880001974,None,gtyzck,001,0,fr,2022-04-27_11h27.59.736,3-AFC_adaptive_staircase_mess,2022.1.1,None,
,,,,,1,0,1,0,18,0,18,0,,,,,,,,,,,,,,,,up,1500,-15.0,8.589541935787946e-06,1,7,1,2.5,270.79443011000984,None,269.74479720002273,270.05998580000596,270.76653610001085,271.09100250000483,271.7516554000031,272.06244629999856,right,0,2.93614120001439,269.79406330001075,None,272.30463590001455,None,gtyzck,001,0,fr,2022-04-27_11h27.59.736,3-AFC_adaptive_staircase_mess,2022.1.1,None,
,,,,,1,0,1,0,19,0,19,0,,,,,,,,,,,,,,,,left,1500,-12.5,1.1454338263838873e-05,1,7,1,2.5,274.28001900999806,274.5001914000022,274.2231354000105,274.52732990001095,275.2144660000049,275.5409382000216,276.24274860002333,276.5600625000079,left,1,2.8974957000173163,274.28075600002194,None,276.7643955000094,None,gtyzck,001,0,fr,2022-04-27_11h27.59.736,3-AFC_adaptive_staircase_mess,2022.1.1,None,
,,,,,1,0,1,0,20,0,20,0,,,,,,,,,,,,,,,,up,1500,-17.5,6.441247758465675e-06,-1,8,-1,-5.0,279.72302241002325,279.9362309999997,278.65457540002535,278.9794797000068,279.6645559000026,279.9622505000152,280.67295920001925,280.97537040000316,left,0,3.0501542999991216,278.7034155000001,None,281.20925690000877,None,gtyzck,001,0,fr,2022-04-27_11h27.59.736,3-AFC_adaptive_staircase_mess,2022.1.1,None,
,,,,,2,0,2,0,0,0,0,0,,,,,,,,,,,,,[],[],5,left,2000,50,0.02365756294807403,0,0,-1,5,283.2900308100099,283.5056291000219,283.2331517999992,283.53424540002015,284.24948890000815,284.57183910001186,285.2443468999991,285.56186909999815,left,1,2.6391326999873854,283.2897613000241,None,285.79322530000354,None,gtyzck,001,0,fr,2022-04-27_11h27.59.736,3-AFC_adaptive_staircase_mess,2022.1.1,None,
,,,,,2,0,2,0,1,0,1,0,,,,,,,,,,,,,,,,up,2000,40,0.007481178280472167,-1,0,-1,-10,288.5059609100164,288.7175386000017,287.4358064000262,287.74539070000174,288.4487771000131,288.7611195000063,289.44547720000264,289.7656139000028,up,1,2.9325743000081275,287.4930496000161,None,289.9939567000256,None,gtyzck,001,0,fr,2022-04-27_11h27.59.736,3-AFC_adaptive_staircase_mess,2022.1.1,None,
,,,,,2,0,2,0,2,0,2,0,,,,,,,,,,,,,,,,left,2000,30,0.0023657562948074026,-1,0,-1,-10,292.000828610023,None,291.942898600013,292.25494050001726,292.9435967000027,293.2430261000118,293.9438168000197,294.2708935000119,left,1,2.7440938999934588,292.0012093000114,None,294.49577380000846,None,gtyzck,001,0,fr,2022-04-27_11h27.59.736,3-AFC_adaptive_staircase_mess,2022.1.1,None,
,,,,,2,0,2,0,3,0,3,0,,,,,,,,,,,,,,,,up,2000,20,0.0007481178280472167,-1,0,-1,-10,297.31281911001423,297.5288488000224,296.26348030002555,296.5721197000239,297.25698370000464,297.5454730000056,298.23894710000604,298.56061950000003,up,1,2.882464299997082,296.29428420000477,None,298.7921036000189,None,gtyzck,001,0,fr,2022-04-27_11h27.59.736,3-AFC_adaptive_staircase_mess,2022.1.1,None,
,,,,,2,0,2,0,4,0,4,0,,,,,,,,,,,,,,,,right,2000,10,0.00023657562948074026,-1,0,-1,-10,302.7387696100224,302.95896280001034,300.6735637000238,300.9965367000259,301.6937340000004,302.0230430000229,302.6831707000092,302.98657120001735,right,1,2.9059260000067297,300.7351424000226,None,303.2468249000085,None,gtyzck,001,0,fr,2022-04-27_11h27.59.736,3-AFC_adaptive_staircase_mess,2022.1.1,None,
,,,,,2,0,2,0,5,0,5,0,,,,,,,,,,,,,,,,up,2000,0,7.481178280472168e-05,-1,0,-1,-10,306.1606447100232,306.36749730000156,305.1160110000055,305.4420869000023,306.1327507000242,306.45060979999835,307.11218260001624,307.4310989000078,up,1,2.97310020000441,305.1795291000162,None,307.6645678000059,None,gtyzck,001,0,fr,2022-04-27_11h27.59.736,3-AFC_adaptive_staircase_mess,2022.1.1,None,
,,,,,2,0,2,0,6,0,6,0,,,,,,,,,,,,,,,,right,2000,-10,2.3657562948074015e-05,-1,0,-1,-10,311.7024189100077,311.9188248999999,309.6503511000192,309.97193090000656,310.6632310000132,310.98462319999817,311.6745249000087,311.9748166000063,up,0,2.88973639998585,309.7118426000234,None,312.2033814000024,None,gtyzck,001,0,fr,2022-04-27_11h27.59.736,3-AFC_adaptive_staircase_mess,2022.1.1,None,
,,,,,2,0,2,0,7,0,7,0,,,,,,,,,,,,,,,,left,2000,-5,4.206975708225974e-05,1,1,1,5,314.1495580100047,314.3684455000039,314.09303910000017,314.3989569999976,315.09244410000974,315.42344850001973,316.0952095000248,316.43048090001685,left,1,3.072258000000147,314.15295530000003,None,316.6492365000013,None,gtyzck,001,0,fr,2022-04-27_11h27.59.736,3-AFC_adaptive_staircase_mess,2022.1.1,None,
,,,,,2,0,2,0,8,0,8,0,,,,,,,,,,,,,,,,left,2000,-15,1.3303625298994042e-05,-1,2,-1,-10,318.7607927100209,318.9732780000195,318.6982793000061,319.0052283999976,319.70350340000005,320.0363583000144,320.7008356000006,321.0318205000076,right,0,2.3464268000097945,318.7663753000088,None,None,None,gtyzck,001,0,fr,2022-04-27_11h27.59.736,3-AFC_adaptive_staircase_mess,2022.1.1,None,
,,,,,2,0,2,0,9,0,9,0,,,,,,,,,,,,,,,,right,2000,-10,2.3657562948074015e-05,1,3,1,2.5,324.6612154100032,324.8814498000138,322.61921350000193,322.9467469000083,323.6020077000139,323.9068150000239,324.60011640001903,324.9120972000237,left,0,3.0417183999961708,322.64765009999974,None,325.15457980000065,None,gtyzck,001,0,fr,2022-04-27_11h27.59.736,3-AFC_adaptive_staircase_mess,2022.1.1,None,
,,,,,2,0,2,0,10,0,10,0,,,,,,,,,,,,,,,,right,2000,-7.5,3.154786722400965e-05,1,3,1,2.5,329.24059401000267,None,327.20752530000755,327.5442776000127,328.1788934000069,328.5090073000174,329.17773920000764,329.5108248000033,left,0,3.1994164000207093,327.24207269999897,None,329.7492057000054,None,gtyzck,001,0,fr,2022-04-27_11h27.59.736,3-AFC_adaptive_staircase_mess,2022.1.1,None,
,,,,,2,0,2,0,11,0,11,0,,,,,,,,,,,,,,,,up,2000,-5.0,4.206975708225974e-05,1,3,1,2.5,332.97234451001276,333.19389590001083,331.9405325000116,332.245430400013,332.91522770002484,333.22062050001114,333.9133621000219,334.2488334000227,left,0,3.1418965999910142,331.97275240000454,None,334.491505700018,None,gtyzck,001,0,fr,2022-04-27_11h27.59.736,3-AFC_adaptive_staircase_mess,2022.1.1,None,
,,,,,2,0,2,0,12,0,12,0,,,,,,,,,,,,,,,,up,2000,-2.5,5.610092271509818e-05,1,3,1,2.5,337.6486853100243,None,336.6138626000029,336.92068530002143,337.6207913000253,337.945260700013,338.6094446000061,338.9307162000041,left,0,2.9126535000104923,336.6484737000137,None,339.1637383000052,None,gtyzck,001,0,fr,2022-04-27_11h27.59.736,3-AFC_adaptive_staircase_mess,2022.1.1,None,
,,,,,2,0,2,0,13,0,13,0,,,,,,,,,,,,,,,,left,2000,0.0,7.481178280472168e-05,1,3,1,2.5,341.11432351002003,None,341.05841510000755,341.3615106000216,342.0727551000018,342.39392240002053,343.0582025000185,343.3821375000116,up,0,3.6125431999971624,341.1164595000155,None,343.613362300006,None,gtyzck,001,0,fr,2022-04-27_11h27.59.736,3-AFC_adaptive_staircase_mess,2022.1.1,None,
,,,,,2,0,2,0,14,0,14,0,,,,,,,,,,,,,,,,up,2000,2.5,9.976311574844399e-05,1,3,1,2.5,347.29664741001324,347.51352030001,346.2282302000094,346.5501618999988,347.23955510000815,347.5297172999999,348.2273566000222,348.55186600002344,left,0,2.938336499995785,346.288033800025,None,348.78180870000506,None,gtyzck,001,0,fr,2022-04-27_11h27.59.736,3-AFC_adaptive_staircase_mess,2022.1.1,None,
,,,,,2,0,2,0,15,0,15,0,,,,,,,,,,,,,,,,left,2000,5.0,0.0001330362529899405,1,3,1,2.5,350.7716423100093,350.98234280000906,350.7148494000139,351.03730300001916,351.72940780001227,352.0549396999995,352.7224092000106,353.0436394000135,right,0,3.0129283000133,350.77276079999865,None,353.27419029999874,None,gtyzck,001,0,fr,2022-04-27_11h27.59.736,3-AFC_adaptive_staircase_mess,2022.1.1,None,
,,,,,2,0,2,0,16,0,16,0,,,,,,,,,,,,,,,,right,2000,7.5,0.00017740669461678777,1,3,1,2.5,357.3147866100073,357.528283200023,355.2755286000029,355.5974835000234,356.2942287000187,356.6190363000205,357.2868926000083,357.61436520001735,up,0,3.0471760999935213,355.33167750001303,None,357.81795540000894,None,gtyzck,001,0,fr,2022-04-27_11h27.59.736,3-AFC_adaptive_staircase_mess,2022.1.1,None,
,,,,,2,0,2,0,17,0,17,0,,,,,,,,,,,,,,,,up,2000,10.0,0.00023657562948074026,1,3,1,2.5,360.9352355100156,361.1540919000108,359.8920226000191,360.21149929999956,360.87839510000776,361.1808427000069,361.8753998000175,362.198572400026,left,0,3.7183017000206746,359.9230712999997,None,362.4317984000081,None,gtyzck,001,0,fr,2022-04-27_11h27.59.736,3-AFC_adaptive_staircase_mess,2022.1.1,None,
,,,,,2,0,2,0,18,0,18,0,,,,,,,,,,,,,,,,right,2000,12.5,0.00031547867224009665,1,3,1,2.5,367.1712358100223,367.38499190000584,365.1290501000185,365.4297688000079,366.1308966000215,366.45254790000035,367.1145645000215,367.4444254000264,right,1,3.1383784000063315,365.19093650000286,None,367.6812383000215,None,gtyzck,001,0,fr,2022-04-27_11h27.59.736,3-AFC_adaptive_staircase_mess,2022.1.1,None,
,,,,,2,0,2,0,19,0,19,0,,,,,,,,,,,,,,,,right,2000,7.5,0.00017740669461678777,-1,4,-1,-5.0,371.8704717100074,372.09251940000104,369.82399280002574,370.1442464000138,370.8459492000111,371.1702034000191,371.8425777000084,372.1522393000196,right,1,2.960783899994567,369.8802271000168,None,372.3854596000165,None,gtyzck,001,0,fr,2022-04-27_11h27.59.736,3-AFC_adaptive_staircase_mess,2022.1.1,None,
,,,,,2,0,2,0,20,0,20,0,,,,,,,,,,,,,,,,left,2000,2.5,9.976311574844399e-05,-1,4,-1,-5.0,374.3856962100137,None,374.32888810001896,374.6332511000219,375.33081980000134,375.65240800002357,376.32873190002283,376.6572503000207,left,1,3.207507600018289,374.38538880000124,None,376.90389990000403,None,gtyzck,001,0,fr,2022-04-27_11h27.59.736,3-AFC_adaptive_staircase_mess,2022.1.1,None,
,,,,,2,0,2,0,21,0,21,0,,,,,,,,,,,,,,,,up,2000,-2.5,5.610092271509818e-05,-1,4,-1,-5.0,380.1598077100236,380.37776460000896,379.0988922000106,379.4017735000234,380.10296930000186,380.403289400012,381.1030101000215,381.406124000001,left,0,3.1720002999936696,379.1584311000188,None,381.66404500001227,None,gtyzck,001,0,fr,2022-04-27_11h27.59.736,3-AFC_adaptive_staircase_mess,2022.1.1,None,
,,,,,2,0,2,0,22,0,22,0,,,,,,,,,,,,,,,,up,2000,0.0,7.481178280472168e-05,1,5,1,2.5,384.8424115100235,385.0514038000256,383.8158096000261,384.14019460001145,384.8145175000245,385.1341245000076,385.80707980002626,386.10802330001025,up,1,3.4771412999834865,383.84472270001424,None,386.3446005000151,None,gtyzck,001,0,fr,2022-04-27_11h27.59.736,3-AFC_adaptive_staircase_mess,2022.1.1,None,
,,,,,2,0,2,0,23,0,23,0,,,,,,,,,,,,,,,,up,2000,-5.0,4.206975708225974e-05,-1,6,-1,-5.0,389.8542707100161,390.0786704000202,388.7967624000157,389.1252882000117,389.79705810002633,390.1101025000098,390.8090031000029,391.11131790000945,left,0,3.0270537000033073,388.8550983000023,None,391.34225060002063,None,gtyzck,001,0,fr,2022-04-27_11h27.59.736,3-AFC_adaptive_staircase_mess,2022.1.1,None,
,,,,,2,0,2,0,24,0,24,0,,,,,,,,,,,,,,,,left,2000,-2.5,5.610092271509818e-05,1,7,1,2.5,393.4438610100071,None,393.38736750002136,393.69340740001644,394.40418810001574,394.7360759000003,395.3749229000241,395.67570770002203,left,1,2.8677061999915168,393.4456385000085,None,395.9453513000044,None,gtyzck,001,0,fr,2022-04-27_11h27.59.736,3-AFC_adaptive_staircase_mess,2022.1.1,None,
,,,,,2,0,2,0,25,0,25,0,,,,,,,,,,,,,,,,up,2000,-7.5,3.154786722400965e-05,-1,8,-1,-5.0,398.8382998100016,None,397.7797747000004,398.10622640000656,398.78148120001424,399.0871900000202,399.7890346000204,400.0975565999979,left,0,3.0349207000108436,397.8392345000175,None,400.33277880001697,None,gtyzck,001,0,fr,2022-04-27_11h27.59.736,3-AFC_adaptive_staircase_mess,2022.1.1,None,
,,,,,3,0,3,0,0,0,0,0,,,,,,,,,,,,,[],[],5,left,3000,50,0.017336842522626576,0,0,-1,5,402.4050763099978,402.6195673000184,402.34546190002584,402.65080210001906,403.3586086000141,403.6817320000264,404.34730210001,404.6780682000099,left,1,2.7353804000013042,402.4097914000158,None,404.91309600000386,None,gtyzck,001,0,fr,2022-04-27_11h27.59.736,3-AFC_adaptive_staircase_mess,2022.1.1,None,
,,,,,3,0,3,0,1,0,1,0,,,,,,,,,,,,,,,,left,3000,40,0.005482390980715924,-1,0,-1,-10,406.6699710100249,406.8951897000079,406.6420770000259,406.95567750002374,407.63898350001546,407.95988820001367,408.6449168000254,408.9744275000121,left,1,2.9067601000133436,406.67106610001065,None,409.1809133000206,None,gtyzck,001,0,fr,2022-04-27_11h27.59.736,3-AFC_adaptive_staircase_mess,2022.1.1,None,
,,,,,3,0,3,0,2,0,2,0,,,,,,,,,,,,,,,,right,3000,30,0.001733684252262658,-1,0,-1,-10,413.1009306100197,None,411.0637373000209,411.3654998000129,412.06209210000816,412.3612963000196,413.0730366000207,413.39667750001536,right,1,2.8061342000146396,411.1225880999991,None,413.61391270000604,None,gtyzck,001,0,fr,2022-04-27_11h27.59.736,3-AFC_adaptive_staircase_mess,2022.1.1,None,
,,,,,3,0,3,0,3,0,3,0,,,,,,,,,,,,,,,,left,3000,20,0.0005482390980715922,-1,0,-1,-10,415.4375685099978,None,415.4096744999988,415.7325779000239,416.419138199999,416.7264178000041,417.4076370000257,417.71246210002573,left,1,2.8591720000258647,415.4385135000048,None,417.95120440001483,None,gtyzck,001,0,fr,2022-04-27_11h27.59.736,3-AFC_adaptive_staircase_mess,2022.1.1,None,
,,,,,3,0,3,0,4,0,4,0,,,,,,,,,,,,,,,,up,3000,10,0.00017336842522626576,-1,0,-1,-10,420.8346515100158,None,419.7767388000211,420.1032285000256,420.77740440002526,421.08689160001813,421.78309410001384,422.08710090001114,up,1,2.8961238999909256,419.8333366000152,None,422.3267455000023,None,gtyzck,001,0,fr,2022-04-27_11h27.59.736,3-AFC_adaptive_staircase_mess,2022.1.1,None,
,,,,,3,0,3,0,5,0,5,0,,,,,,,,,,,,,,,,left,3000,0,5.482390980715923e-05,-1,0,-1,-10,424.2616586100077,424.47776730000624,424.2034962000034,424.50980739999795,425.2152010000136,425.52520160001586,426.20163750002393,426.50432680000085,left,1,3.376157400023658,424.2652530000196,None,426.77157090001856,None,gtyzck,001,0,fr,2022-04-27_11h27.59.736,3-AFC_adaptive_staircase_mess,2022.1.1,None,
,,,,,3,0,3,0,6,0,6,0,,,,,,,,,,,,,,,,up,3000,-10,1.7336842522626584e-05,-1,0,-1,-10,430.17303601002203,None,429.11945800000103,429.4452924000216,430.11221290001413,430.43129030001,431.1265275000187,431.4384602000064,up,1,3.2819411999953445,429.1755693000159,None,431.6746286000125,None,gtyzck,001,0,fr,2022-04-27_11h27.59.736,3-AFC_adaptive_staircase_mess,2022.1.1,None,
,,,,,3,0,3,0,7,0,7,0,,,,,,,,,,,,,,,,up,3000,-20,5.482390980715926e-06,-1,0,-1,-10,434.99686071001923,435.22363330001826,433.9585275000136,434.26516540002194,434.93778030000976,435.25538040001993,435.9645625000121,436.2762449000147,right,0,2.6310320000047795,433.9864078000246,None,436.5114556000044,None,gtyzck,001,0,fr,2022-04-27_11h27.59.736,3-AFC_adaptive_staircase_mess,2022.1.1,None,
,,,,,3,0,3,0,8,0,8,0,,,,,,,,,,,,,,,,up,3000,-15,9.749222998790228e-06,1,1,1,5,439.1802263099991,None,438.1428061000188,438.4463161000167,439.1213139000174,439.43518300002324,440.140773000021,440.46558280001045,left,0,2.7980570000072476,438.17142210001475,None,440.67504610001924,None,gtyzck,001,0,fr,2022-04-27_11h27.59.736,3-AFC_adaptive_staircase_mess,2022.1.1,None,
,,,,,3,0,3,0,9,0,9,0,,,,,,,,,,,,,,,,right,3000,-10,1.7336842522626584e-05,1,1,1,5,444.5014364100236,None,442.4768280000135,442.7808805000095,443.45799390002503,443.76645670001744,444.4735424000246,444.79338410001947,left,0,2.864841400005389,442.504591600009,None,445.00913650001166,None,gtyzck,001,0,fr,2022-04-27_11h27.59.736,3-AFC_adaptive_staircase_mess,2022.1.1,None,
,,,,,3,0,3,0,10,0,10,0,,,,,,,,,,,,,,,,right,3000,-5,3.082975009307411e-05,1,1,1,5,448.91832201001233,449.1373822000169,446.88434070002404,447.17738060001284,447.8715546000167,448.18289250001544,448.8584940000146,449.16997220000485,up,0,2.8068880999926478,446.9149409000238,None,449.4140058000048,None,gtyzck,001,0,fr,2022-04-27_11h27.59.736,3-AFC_adaptive_staircase_mess,2022.1.1,None,
,,,,,3,0,3,0,11,0,11,0,,,,,,,,,,,,,,,,up,3000,0,5.482390980715923e-05,1,1,1,5,452.2552841100143,452.4758756000083,451.22105590000865,451.5252967000124,452.2273901000153,452.5327889000182,453.21612380002625,453.51854509999976,right,0,2.7930856999882963,451.28066750001744,None,453.7554283000063,None,gtyzck,001,0,fr,2022-04-27_11h27.59.736,3-AFC_adaptive_staircase_mess,2022.1.1,None,
,,,,,3,0,3,0,12,0,12,0,,,,,,,,,,,,,,,,up,3000,5,9.749222998790222e-05,1,1,1,5,456.6343257099972,456.8471556000004,455.56490399999893,455.89794350002194,456.574815400003,456.87912090000464,457.56811790002394,457.87246559999767,up,1,2.811761699995259,455.62886890000664,None,458.1210004000168,None,gtyzck,001,0,fr,2022-04-27_11h27.59.736,3-AFC_adaptive_staircase_mess,2022.1.1,None,
,,,,,3,0,3,0,13,0,13,0,,,,,,,,,,,,,,,,left,3000,-5,3.082975009307411e-05,-1,2,-1,-10,460.0158021100098,460.23341159999836,459.95826330001,460.26153980000527,460.94443430000683,461.2741448000015,461.97352130000945,462.2775662000058,left,1,2.9530650000087917,460.0170977000089,None,462.51547380001284,None,gtyzck,001,0,fr,2022-04-27_11h27.59.736,3-AFC_adaptive_staircase_mess,2022.1.1,None,
,,,,,3,0,3,0,14,0,14,0,,,,,,,,,,,,,,,,right,3000,-15,9.749222998790228e-06,-1,2,-1,-10,466.5138769100187,None,464.4672655000177,464.76847840001574,465.4464861000015,465.7741053000209,466.45725600002334,466.76558530001785,up,0,3.161983300000429,464.4950749000127,None,467.00239530002,None,gtyzck,001,0,fr,2022-04-27_11h27.59.736,3-AFC_adaptive_staircase_mess,2022.1.1,None,
,,,,,3,0,3,0,15,0,15,0,,,,,,,,,,,,,,,,up,3000,-10,1.7336842522626584e-05,1,3,1,2.5,470.2039564100152,None,469.14457410000614,469.4733889000199,470.14676550001604,470.45661300001666,471.16458090001834,471.4891770000104,right,0,2.8673492000089027,469.2063555000059,None,471.69297580001876,None,gtyzck,001,0,fr,2022-04-27_11h27.59.736,3-AFC_adaptive_staircase_mess,2022.1.1,None,
,,,,,3,0,3,0,16,0,16,0,,,,,,,,,,,,,,,,right,3000,-7.5,2.3119051069963017e-05,1,3,1,2.5,475.5958265100082,None,473.53594650002196,473.85971530000097,474.53703500001575,474.8350071000168,475.53834650001954,475.8329696000146,left,0,2.896107500011567,473.59333880001213,None,476.10334190001595,None,gtyzck,001,0,fr,2022-04-27_11h27.59.736,3-AFC_adaptive_staircase_mess,2022.1.1,None,
,,,,,3,0,3,0,17,0,17,0,,,,,,,,,,,,,,,,up,3000,-5.0,3.082975009307411e-05,1,3,1,2.5,479.0286207100027,None,477.978082000016,478.30186360000516,479.0007267000037,479.3199823000177,479.9835091000132,480.3091784999997,up,1,2.9324256000109017,478.03731340001104,None,480.5469273000199,None,gtyzck,001,0,fr,2022-04-27_11h27.59.736,3-AFC_adaptive_staircase_mess,2022.1.1,None,
,,,,,3,0,3,0,18,0,18,0,,,,,,,,,,,,,,,,up,3000,-10.0,1.7336842522626584e-05,-1,4,-1,-5.0,483.50793291001463,None,482.4789968999976,482.7794757000229,483.45026930002496,483.76707870000973,484.4762487000262,484.7971873000206,right,0,3.77066609999747,482.5104166000092,None,485.00654430000577,None,gtyzck,001,0,fr,2022-04-27_11h27.59.736,3-AFC_adaptive_staircase_mess,2022.1.1,None,
,,,,,3,0,3,0,19,0,19,0,,,,,,,,,,,,,,,,up,3000,-7.5,2.3119051069963017e-05,1,5,1,2.5,488.84463801000965,489.0610217000067,487.787833600014,488.10884420000366,488.7877410000074,489.08805250001024,489.7839676000003,490.10857640000177,up,1,2.7233494000101928,487.84637030001613,None,490.34172350002336,None,gtyzck,001,0,fr,2022-04-27_11h27.59.736,3-AFC_adaptive_staircase_mess,2022.1.1,None,
,,,,,3,0,3,0,20,0,20,0,,,,,,,,,,,,,,,,left,3000,-12.5,1.300079781582636e-05,-1,6,-1,-5.0,492.119121910003,492.33346290001646,492.0505727000127,492.3617465000134,493.0583723000018,493.3810822000087,494.055365600012,494.38196610001614,up,0,3.9841098000179045,492.1212158999988,None,494.61193140002433,None,gtyzck,001,0,fr,2022-04-27_11h27.59.736,3-AFC_adaptive_staircase_mess,2022.1.1,None,
,,,,,3,0,3,0,21,0,21,0,,,,,,,,,,,,,,,,right,3000,-10.0,1.7336842522626584e-05,1,7,1,2.5,499.6395861100056,None,497.5980744000117,497.92585050000343,498.5894821000111,498.88935760001186,499.6116921000066,499.9173269000021,left,0,2.9265225999988616,497.65841490001185,None,500.15099410002586,None,gtyzck,001,0,fr,2022-04-27_11h27.59.736,3-AFC_adaptive_staircase_mess,2022.1.1,None,
,,,,,3,0,3,0,22,0,22,0,,,,,,,,,,,,,,,,left,3000,-7.5,2.3119051069963017e-05,1,7,1,2.5,502.122055610019,None,502.0651553000207,502.3932226000179,503.0649170000106,503.3913621000247,504.06319950000034,504.38316840000334,left,1,3.1189918000018224,502.1229113000154,None,504.618541200005,None,gtyzck,001,0,fr,2022-04-27_11h27.59.736,3-AFC_adaptive_staircase_mess,2022.1.1,None,
,,,,,3,0,3,0,23,0,23,0,,,,,,,,,,,,,,,,right,3000,-12.5,1.300079781582636e-05,-1,8,-1,-5.0,508.79431421000044,None,506.7628307999985,507.06484140001703,507.73693890002323,508.0670461000118,508.76642020000145,509.09410280000884,right,1,2.754310099990107,506.7917315000086,None,509.2979550000164,None,gtyzck,001,0,fr,2022-04-27_11h27.59.736,3-AFC_adaptive_staircase_mess,2022.1.1,None,
,,,,,4,0,4,0,0,0,0,0,,,,,,,,,,,,,[],[],5,left,4000,50,0.02654422221154942,0,0,-1,5,511.06147681000874,None,511.01354210000136,511.3215710000077,512.020651800005,512.3325580000237,513.0347509999992,513.3600510000251,left,1,3.018298800016055,511.071325900004,None,513.5920369000232,None,gtyzck,001,0,fr,2022-04-27_11h27.59.736,3-AFC_adaptive_staircase_mess,2022.1.1,None,
,,,,,4,0,4,0,1,0,1,0,,,,,,,,,,,,,,,,right,4000,40,0.008394020090612802,-1,0,-1,-10,517.6132855100034,517.8349092999997,515.5577652000065,515.86827430001,516.5678959000215,516.8897185000242,517.555658199999,517.8660788999987,right,1,2.8987561000103597,515.6064671000058,None,518.1307029000018,None,gtyzck,001,0,fr,2022-04-27_11h27.59.736,3-AFC_adaptive_staircase_mess,2022.1.1,None,
,,,,,4,0,4,0,2,0,2,0,,,,,,,,,,,,,,,,left,4000,30,0.0026544222211549416,-1,0,-1,-10,520.0531990100164,520.271197300026,519.9975154999993,520.2982152000186,520.9924056000018,521.3153070000117,522.0211591999978,522.3440440999984,left,1,2.73910999999498,520.0547028000001,None,522.5769820999994,None,gtyzck,001,0,fr,2022-04-27_11h27.59.736,3-AFC_adaptive_staircase_mess,2022.1.1,None,
,,,,,4,0,4,0,3,0,3,0,,,,,,,,,,,,,,,,left,4000,20,0.0008394020090612801,-1,0,-1,-10,524.3318704099977,524.5492617000127,524.3039763999986,524.603886900004,525.2949346000096,525.6211786000058,526.2785476999998,526.5988532000047,left,1,2.7965666000091005,524.3329953000066,None,526.8312117000169,None,gtyzck,001,0,fr,2022-04-27_11h27.59.736,3-AFC_adaptive_staircase_mess,2022.1.1,None,
,,,,,4,0,4,0,4,0,4,0,,,,,,,,,,,,,,,,up,4000,10,0.00026544222211549425,-1,0,-1,-10,529.6751490100171,529.8898253000225,528.6046401000058,528.9170483000053,529.6177589000145,529.9062751000165,530.6085391000088,530.919480600016,up,1,2.8611852999893017,528.6531474000076,None,531.1589937000244,None,gtyzck,001,0,fr,2022-04-27_11h27.59.736,3-AFC_adaptive_staircase_mess,2022.1.1,None,
,,,,,4,0,4,0,5,0,5,0,,,,,,,,,,,,,,,,up,4000,0,8.394020090612804e-05,-1,0,-1,-10,534.0519097100071,None,533.0137757000048,533.3389274000074,534.004004300019,534.3110691000184,535.004550600017,535.3318727000151,up,1,2.66278029998648,533.0426807000185,None,535.5657805000083,None,gtyzck,001,0,fr,2022-04-27_11h27.59.736,3-AFC_adaptive_staircase_mess,2022.1.1,None,
,,,,,4,0,4,0,6,0,6,0,,,,,,,,,,,,,,,,right,4000,-10,2.6544222211549425e-05,-1,0,-1,-10,539.2660718099971,539.486690300022,537.1814950999978,537.4921634000202,538.194593400025,538.5159110000241,539.1976351000194,539.5154788000218,up,0,2.9622384999820497,537.2390796000254,None,539.7581410999992,None,gtyzck,001,0,fr,2022-04-27_11h27.59.736,3-AFC_adaptive_staircase_mess,2022.1.1,None,
,,,,,4,0,4,0,7,0,7,0,,,,,,,,,,,,,,,,left,4000,-5,4.720304381429618e-05,1,1,1,5,541.7400856100023,541.9626653000014,541.6844017000112,541.9921434000134,542.685511800024,542.9986421000212,543.7007340000127,544.0185090000159,left,1,2.7719521000108216,541.7332909000106,None,544.2524936000118,None,gtyzck,001,0,fr,2022-04-27_11h27.59.736,3-AFC_adaptive_staircase_mess,2022.1.1,None,
,,,,,4,0,4,0,8,0,8,0,,,,,,,,,,,,,,,,up,4000,-15,1.4926913094589802e-05,-1,2,-1,-10,547.057671010017,None,545.9873305000074,546.312433700019,547.0004099000071,547.3013848999981,547.9956668000086,548.3212721000018,up,1,2.851820400013821,546.0378362000047,None,548.5550891000021,None,gtyzck,001,0,fr,2022-04-27_11h27.59.736,3-AFC_adaptive_staircase_mess,2022.1.1,None,
,,,,,4,0,4,0,9,0,9,0,,,,,,,,,,,,,,,,left,4000,-25,4.720304381429618e-06,-1,2,-1,-10,550.4155328100198,550.6317367000156,550.360021600005,550.6637635000225,551.3727025999979,551.6773633999983,552.3626362000068,552.6747599000228,left,1,2.9197752000181936,550.4175758000056,None,552.926655200019,None,gtyzck,001,0,fr,2022-04-27_11h27.59.736,3-AFC_adaptive_staircase_mess,2022.1.1,None,
,,,,,4,0,4,0,10,0,10,0,,,,,,,,,,,,,,,,left,4000,-35,1.49269130945898e-06,-1,2,-1,-10,554.8922527100251,555.112136700016,554.8359961000097,555.139250600012,555.855106700008,556.1791148000048,556.8427021000243,557.1647861000092,left,1,4.236586299986811,554.8930089000205,None,557.3983909000235,None,gtyzck,001,0,fr,2022-04-27_11h27.59.736,3-AFC_adaptive_staircase_mess,2022.1.1,None,
,,,,,4,0,4,0,11,0,11,0,,,,,,,,,,,,,,,,right,4000,-45,4.7203043814296135e-07,-1,2,-1,-10,562.6520222099964,562.8663089000038,560.5982300000032,560.9199775000161,561.6138587000023,561.9355794000148,562.6241281999974,562.9508073000179,right,1,2.518365800002357,560.6594044000085,None,563.1596749000018,None,gtyzck,001,0,fr,2022-04-27_11h27.59.736,3-AFC_adaptive_staircase_mess,2022.1.1,None,
,,,,,4,0,4,0,12,0,12,0,,,,,,,,,,,,,,,,left,4000,-55,1.4926913094589785e-07,-1,2,-1,-10,564.7049233100145,None,564.6478016000183,564.951660700026,565.6709794000199,565.979857600003,566.6719606000115,566.9931975000072,up,0,3.0808103999879677,564.7054714999977,None,567.2275497000082,None,gtyzck,001,0,fr,2022-04-27_11h27.59.736,3-AFC_adaptive_staircase_mess,2022.1.1,None,
,,,,,4,0,4,0,13,0,13,0,,,,,,,,,,,,,,,,right,4000,-50,2.6544222211549394e-07,1,3,1,2.5,571.3387319100032,571.5631758000236,569.2778548000206,569.6015284000023,570.2948139000218,570.6173308000143,571.2828260000097,571.5904734000214,up,0,3.018273500027135,569.3265738000046,None,571.8465281000244,None,gtyzck,001,0,fr,2022-04-27_11h27.59.736,3-AFC_adaptive_staircase_mess,2022.1.1,None,
,,,,,4,0,4,0,14,0,14,0,,,,,,,,,,,,,,,,right,4000,-47.5,3.539728921920687e-07,1,3,1,2.5,575.8652069100237,None,573.8220350000192,574.1228810000175,574.81994820002,575.1308352000196,575.8101398000144,576.1320821000263,up,0,2.381344800000079,573.8836826000188,None,None,None,gtyzck,001,0,fr,2022-04-27_11h27.59.736,3-AFC_adaptive_staircase_mess,2022.1.1,None,
,,,,,4,0,4,0,15,0,15,0,,,,,,,,,,,,,,,,up,4000,-45.0,4.7203043814296135e-07,1,3,1,2.5,578.78696031,579.0050232000067,577.7269134000235,578.0363864000246,578.7308974000043,579.0323578000243,579.7376843000238,580.0396594000049,up,1,3.3618768000160344,577.7835333000112,None,580.2988273000228,None,gtyzck,001,0,fr,2022-04-27_11h27.59.736,3-AFC_adaptive_staircase_mess,2022.1.1,None,
,,,,,4,0,4,0,16,0,16,0,,,,,,,,,,,,,,,,left,4000,-50.0,2.6544222211549394e-07,-1,4,-1,-5.0,582.6830792100111,582.8999754000106,582.6277216000017,582.9314064000209,583.6230837000185,583.9494976999995,584.6343192000058,584.9579155000101,left,1,3.066361999983201,582.6873119000229,None,585.1910306000209,None,gtyzck,001,0,fr,2022-04-27_11h27.59.736,3-AFC_adaptive_staircase_mess,2022.1.1,None,
,,,,,4,0,4,0,17,0,17,0,,,,,,,,,,,,,,,,right,4000,-55.0,1.4926913094589785e-07,-1,4,-1,-5.0,589.3037489100127,589.512327400007,587.2378434000129,587.5620729000075,588.256959899998,588.5805432000197,589.2479502000206,589.5669927000126,right,1,2.85917400001199,587.294810899999,None,589.799542599998,None,gtyzck,001,0,fr,2022-04-27_11h27.59.736,3-AFC_adaptive_staircase_mess,2022.1.1,None,
,,,,,4,0,4,0,18,0,18,0,,,,,,,,,,,,,,,,left,4000,-60.0,8.394020090612794e-08,-1,4,-1,-5.0,591.6930382099993,591.9089591000229,591.6362867999997,591.9402864000003,592.663469799998,592.9851500000223,593.6413833000115,593.9518126000185,up,0,3.0654090000025462,591.6965474000026,None,594.1928457000176,None,gtyzck,001,0,fr,2022-04-27_11h27.59.736,3-AFC_adaptive_staircase_mess,2022.1.1,None,
,,,,,4,0,4,0,19,0,19,0,,,,,,,,,,,,,,,,left,4000,-57.5,1.119360569284169e-07,1,5,1,2.5,596.2948708100187,596.5159337000223,596.2347013000108,596.5460481000191,597.2468154000235,597.5703167000029,598.2587811000121,598.5788250000041,left,1,3.1688410000060685,596.297068600019,None,598.8072549000208,None,gtyzck,001,0,fr,2022-04-27_11h27.59.736,3-AFC_adaptive_staircase_mess,2022.1.1,None,
,,,,,4,0,4,0,20,0,20,0,,,,,,,,,,,,,,,,right,4000,-62.5,6.294627058970831e-08,-1,6,-1,-5.0,603.0030674100155,603.219565700012,600.9425356000138,601.2736333000066,601.9626045000041,602.2842801000224,602.9435474000056,603.2508350000135,up,0,2.8896615999983624,601.0079070000211,None,603.5091900000116,None,gtyzck,001,0,fr,2022-04-27_11h27.59.736,3-AFC_adaptive_staircase_mess,2022.1.1,None,
,,,,,4,0,4,0,21,0,21,0,,,,,,,,,,,,,,,,up,4000,-60.0,8.394020090612794e-08,1,7,1,2.5,606.4448785100133,606.6631207000173,605.3772569000139,605.695403300022,606.387756400014,606.6901244000182,607.3824137000192,607.7077363000135,left,0,2.9596139999921434,605.4345281000133,None,607.9353872000065,None,gtyzck,001,0,fr,2022-04-27_11h27.59.736,3-AFC_adaptive_staircase_mess,2022.1.1,None,
,,,,,4,0,4,0,22,0,22,0,,,,,,,,,,,,,,,,right,4000,-57.5,1.119360569284169e-07,1,7,1,2.5,611.9337132100075,612.1410733000084,609.8939801000233,610.2175924000039,610.8840459000203,611.2089606000227,611.8750914999982,612.1957970000221,up,0,3.0464232999947853,609.9228434000106,None,612.4284896000172,None,gtyzck,001,0,fr,2022-04-27_11h27.59.736,3-AFC_adaptive_staircase_mess,2022.1.1,None,
,,,,,4,0,4,0,23,0,23,0,,,,,,,,,,,,,,,,right,4000,-55.0,1.4926913094589785e-07,1,7,1,2.5,616.5186431100185,616.7345409000118,614.4619193000253,614.7850934000162,615.4761198000051,615.7995972000062,616.458265400026,616.7660305000027,left,0,2.959852400003001,614.5215167000133,None,617.0277036000043,None,gtyzck,001,0,fr,2022-04-27_11h27.59.736,3-AFC_adaptive_staircase_mess,2022.1.1,None,
,,,,,4,0,4,0,24,0,24,0,,,,,,,,,,,,,,,,right,4000,-52.5,1.990535852767485e-07,1,7,1,2.5,621.0149266100082,None,618.9438617000123,619.2595335000078,619.9810146000236,620.3023326999974,620.9595359000086,621.2789429000113,up,0,2.9616010000172537,619.0149989000056,None,621.5370947000047,None,gtyzck,001,0,fr,2022-04-27_11h27.59.736,3-AFC_adaptive_staircase_mess,2022.1.1,None,
,,,,,4,0,4,0,25,0,25,0,,,,,,,,,,,,,,,,right,4000,-50.0,2.6544222211549394e-07,1,7,1,2.5,625.5328674100049,625.7496120000142,623.4701921000087,623.7909999999974,624.4850335000083,624.8033183000225,625.4770412000071,625.7763310000009,up,0,2.9910230000095908,623.5302029000013,None,626.0348343000223,None,gtyzck,001,0,fr,2022-04-27_11h27.59.736,3-AFC_adaptive_staircase_mess,2022.1.1,None,
,,,,,4,0,4,0,26,0,26,0,,,,,,,,,,,,,,,,left,4000,-47.5,3.539728921920687e-07,1,7,1,2.5,628.0467757100007,628.2607679000066,627.9898403000261,628.3139861000236,629.0023670000082,629.3251818999997,629.991445200023,630.3147352000233,right,0,3.0801703999750316,628.0490494999976,None,630.5479381000041,None,gtyzck,001,0,fr,2022-04-27_11h27.59.736,3-AFC_adaptive_staircase_mess,2022.1.1,None,
,,,,,4,0,4,0,27,0,27,0,,,,,,,,,,,,,,,,right,4000,-45.0,4.7203043814296135e-07,1,7,1,2.5,634.6719746100018,None,632.6135034000035,632.9336678000109,633.6381751000008,633.9432432000176,634.613093300024,634.9300441000087,left,0,2.9201195999921765,632.672834500001,None,635.190144400025,None,gtyzck,001,0,fr,2022-04-27_11h27.59.736,3-AFC_adaptive_staircase_mess,2022.1.1,None,
,,,,,4,0,4,0,28,0,28,0,,,,,,,,,,,,,,,,right,4000,-42.5,6.294627058970837e-07,1,7,1,2.5,639.1414771099983,639.3616746000189,637.0846216000209,637.407901700004,638.1013742000214,638.4210294000222,639.0842541000166,639.3923384000082,left,0,3.040932400006568,637.1443528000091,None,639.6532311000046,None,gtyzck,001,0,fr,2022-04-27_11h27.59.736,3-AFC_adaptive_staircase_mess,2022.1.1,None,
,,,,,4,0,4,0,29,0,29,0,,,,,,,,,,,,,,,,left,4000,-40.0,8.394020090612803e-07,1,7,1,2.5,641.714616910019,641.9370483000239,641.6584073000122,641.9643403000082,642.6573135000071,642.9662012000044,643.6746669000131,643.9954455000116,right,0,3.301999399991473,641.7156092000077,None,644.2294024000003,None,gtyzck,001,0,fr,2022-04-27_11h27.59.736,3-AFC_adaptive_staircase_mess,2022.1.1,None,
,,,,,4,0,4,0,30,0,30,0,,,,,,,,,,,,,,,,right,4000,-37.5,1.11936056928417e-06,1,7,1,2.5,648.540329210012,648.7556098000205,646.4757625000202,646.7969474999991,647.4924470999977,647.8116873000108,648.4848475000181,648.8109359000227,up,0,3.23556830000598,646.5338010000123,None,649.0453053000092,None,gtyzck,001,0,fr,2022-04-27_11h27.59.736,3-AFC_adaptive_staircase_mess,2022.1.1,None,
,,,,,4,0,4,0,31,0,31,0,,,,,,,,,,,,,,,,left,4000,-35.0,1.49269130945898e-06,1,7,1,2.5,651.3335594100238,651.5486904999998,651.2766393000202,651.5759148000216,652.2722545000142,652.5947731000197,653.2774516000063,653.5796662000066,left,1,3.0409248000069056,651.3359639999981,None,653.8159686000145,None,gtyzck,001,0,fr,2022-04-27_11h27.59.736,3-AFC_adaptive_staircase_mess,2022.1.1,None,
,,,,,4,0,4,0,32,0,32,0,,,,,,,,,,,,,,,,right,4000,-40.0,8.394020090612803e-07,-1,8,-1,-5.0,657.9201213100052,658.1373474000138,655.8852272000222,656.2073748999974,656.8724784000078,657.1986910999985,657.8922273000062,658.1936979000166,up,0,2.9771330000075977,655.9433362999989,None,658.4292413000076,None,gtyzck,001,0,fr,2022-04-27_11h27.59.736,3-AFC_adaptive_staircase_mess,2022.1.1,None,
,,,,,5,0,5,0,0,0,0,0,,,,,,,,,,,,,[],[],5,left,6000,50,0.03664122665694519,0,0,-1,5,660.4816770100035,660.7033249000087,660.4245240000018,660.7302546999999,661.4298895000247,661.7521406000014,662.4173316000088,662.7387132000003,left,1,2.966011599986814,660.4830467000138,None,662.9737085000088,None,gtyzck,001,0,fr,2022-04-27_11h27.59.736,3-AFC_adaptive_staircase_mess,2022.1.1,None,
,,,,,5,0,5,0,1,0,1,0,,,,,,,,,,,,,,,,up,6000,40,0.01158697324984239,-1,0,-1,-10,666.0121199099988,666.2272272000264,664.9517936000193,665.2542319000058,665.9544743000006,666.2529032000166,666.9621061000216,667.2809448000044,up,1,2.904048900003545,665.0098216000188,None,667.5128875000228,None,gtyzck,001,0,fr,2022-04-27_11h27.59.736,3-AFC_adaptive_staircase_mess,2022.1.1,None,
,,,,,5,0,5,0,2,0,2,0,,,,,,,,,,,,,,,,right,6000,30,0.003664122665694519,-1,0,-1,-10,671.42899831002,671.6374849000131,669.39453770002,669.6957232000132,670.4015781000198,670.7286754000233,671.401104300021,671.7189913000038,right,1,2.892361800011713,669.4533958000247,None,671.9516764,None,gtyzck,001,0,fr,2022-04-27_11h27.59.736,3-AFC_adaptive_staircase_mess,2022.1.1,None,
,,,,,5,0,5,0,3,0,3,0,,,,,,,,,,,,,,,,right,6000,20,0.0011586973249842392,-1,0,-1,-10,675.8592241100152,None,673.8234997000254,674.1341794000182,674.8253647000238,675.1523301000125,675.8313301000162,676.1397958000016,right,1,2.9540674000163563,673.8871135000081,None,676.3720795000263,None,gtyzck,001,0,fr,2022-04-27_11h27.59.736,3-AFC_adaptive_staircase_mess,2022.1.1,None,
,,,,,5,0,5,0,4,0,4,0,,,,,,,,,,,,,,,,up,6000,10,0.00036641226656945183,-1,0,-1,-10,679.3709819100216,679.5860517000256,678.3138470000122,678.6194952000224,679.3141335000109,679.6128029000247,680.3348314000177,680.6364369000075,up,1,2.9155822999891825,678.3734353000182,None,680.8784022000036,None,gtyzck,001,0,fr,2022-04-27_11h27.59.736,3-AFC_adaptive_staircase_mess,2022.1.1,None,
,,,,,5,0,5,0,5,0,5,0,,,,,,,,,,,,,,,,up,6000,0,0.00011586973249842387,-1,0,-1,-10,683.8163484100253,684.0369979000243,682.7651868000103,683.0904053999984,683.7884544000262,684.0974724000262,684.7630606000021,685.0660668000055,up,1,2.8805226999975275,682.824210700026,None,685.3310081000091,None,gtyzck,001,0,fr,2022-04-27_11h27.59.736,3-AFC_adaptive_staircase_mess,2022.1.1,None,
,,,,,5,0,5,0,6,0,6,0,,,,,,,,,,,,,,,,right,6000,-10,3.664122665694518e-05,-1,0,-1,-10,689.2597297100176,689.4824935000215,687.1887019000133,687.4913005999988,688.1946097000036,688.5276818000129,689.1997123000037,689.5094155000115,right,1,3.242473600024823,687.2460895999975,None,689.7439019000158,None,gtyzck,001,0,fr,2022-04-27_11h27.59.736,3-AFC_adaptive_staircase_mess,2022.1.1,None,
,,,,,5,0,5,0,7,0,7,0,,,,,,,,,,,,,,,,up,6000,-20,1.1586973249842387e-05,-1,0,-1,-10,693.0391414100188,None,691.9806958000117,692.3068078000215,692.9814593000046,693.2918042000092,693.9687970000086,694.3007787000097,right,0,2.980521800025599,692.0369569000031,None,694.5361915000249,None,gtyzck,001,0,fr,2022-04-27_11h27.59.736,3-AFC_adaptive_staircase_mess,2022.1.1,None,
,,,,,5,0,5,0,8,0,8,0,,,,,,,,,,,,,,,,up,6000,-15,2.0604875954866497e-05,1,1,1,5,697.5651393100154,697.785612000007,696.5002422000107,696.8233272000216,697.5050601999974,697.8163974000199,698.5159686000261,698.8220103000058,left,0,3.499256399984006,696.5578595999978,None,699.0647242999985,None,gtyzck,001,0,fr,2022-04-27_11h27.59.736,3-AFC_adaptive_staircase_mess,2022.1.1,None,
,,,,,5,0,5,0,9,0,9,0,,,,,,,,,,,,,,,,left,6000,-10,3.664122665694518e-05,1,1,1,5,701.6182390100032,None,701.5607949999976,701.8691452000057,702.553705600003,702.859165700007,703.5682967000175,703.8774532000243,up,0,2.8222889000026044,701.618412300013,None,704.114809700026,None,gtyzck,001,0,fr,2022-04-27_11h27.59.736,3-AFC_adaptive_staircase_mess,2022.1.1,None,
,,,,,5,0,5,0,10,0,10,0,,,,,,,,,,,,,,,,left,6000,-5,6.515833892261494e-05,1,1,1,5,705.9799079100078,None,705.9231320000254,706.228270200023,706.9335431000218,707.2392134000256,707.9150520000258,708.2191871000105,left,1,2.826167599996552,705.9831380000105,None,708.4871901000151,None,gtyzck,001,0,fr,2022-04-27_11h27.59.736,3-AFC_adaptive_staircase_mess,2022.1.1,None,
,,,,,5,0,5,0,11,0,11,0,,,,,,,,,,,,,,,,up,6000,-15,2.0604875954866497e-05,-1,2,-1,-10,711.3374032100139,None,710.2997728000046,710.6042484000209,711.3095092000149,711.6271109000081,712.3016019000206,712.602896700002,up,1,2.900621200009482,710.3561951000011,None,712.8462342999992,None,gtyzck,001,0,fr,2022-04-27_11h27.59.736,3-AFC_adaptive_staircase_mess,2022.1.1,None,
,,,,,5,0,5,0,12,0,12,0,,,,,,,,,,,,,,,,up,6000,-25,6.5158338922614935e-06,-1,2,-1,-10,715.7710653100105,None,714.7377795000211,715.0379243000061,715.7431713000115,716.0644766000041,716.7233474000241,717.0580000000191,left,0,2.607771100010723,714.7944307000143,None,717.2959809000022,None,gtyzck,001,0,fr,2022-04-27_11h27.59.736,3-AFC_adaptive_staircase_mess,2022.1.1,None,
,,,,,5,0,5,0,13,0,13,0,,,,,,,,,,,,,,,,left,6000,-20,1.1586973249842387e-05,1,3,1,2.5,718.9450360100193,719.1736301000055,718.9171420000202,719.2336924000119,719.9240256000194,720.2573291000153,720.9044859000132,721.2073700000183,up,0,2.7748807000170927,718.9462560000247,None,721.4506063000008,None,gtyzck,001,0,fr,2022-04-27_11h27.59.736,3-AFC_adaptive_staircase_mess,2022.1.1,None,
,,,,,5,0,5,0,14,0,14,0,,,,,,,,,,,,,,,,right,6000,-17.5,1.5451477162567947e-05,1,3,1,2.5,725.2631047100178,None,723.2004914999998,723.53154180001,724.2150326000119,724.5231301000167,725.2047528999974,725.5190271000029,up,0,2.8124540999997407,723.2601368000032,None,725.7552821999998,None,gtyzck,001,0,fr,2022-04-27_11h27.59.736,3-AFC_adaptive_staircase_mess,2022.1.1,None,
,,,,,5,0,5,0,15,0,15,0,,,,,,,,,,,,,,,,up,6000,-15.0,2.0604875954866497e-05,1,3,1,2.5,728.6024953100016,None,727.5650030000252,727.8701930000097,728.5453971000097,728.8545402000018,729.5630541999999,729.8902340000204,up,1,2.752236800006358,727.5935736000247,None,730.1009032000147,None,gtyzck,001,0,fr,2022-04-27_11h27.59.736,3-AFC_adaptive_staircase_mess,2022.1.1,None,
,,,,,5,0,5,0,16,0,16,0,,,,,,,,,,,,,,,,right,6000,-20.0,1.1586973249842387e-05,-1,4,-1,-5.0,733.871420210012,None,731.8073370000056,732.1400513999979,732.8210647000233,733.1242514000041,733.8131961000036,734.1238755000231,left,0,2.7782275000063237,731.8710443000018,None,734.368073700025,None,gtyzck,001,0,fr,2022-04-27_11h27.59.736,3-AFC_adaptive_staircase_mess,2022.1.1,None,
,,,,,5,0,5,0,17,0,17,0,,,,,,,,,,,,,,,,left,6000,-17.5,1.5451477162567947e-05,1,5,1,2.5,736.1644532100065,736.3904308000056,736.1071198999998,736.4225529000105,737.1111389000143,737.4193212000246,738.1115538000013,738.4159150000196,up,0,2.4168868999986444,736.168403800024,None,None,None,gtyzck,001,0,fr,2022-04-27_11h27.59.736,3-AFC_adaptive_staircase_mess,2022.1.1,None,
,,,,,5,0,5,0,18,0,18,0,,,,,,,,,,,,,,,,left,6000,-15.0,2.0604875954866497e-05,1,5,1,2.5,740.1088227100147,740.3293018000259,740.0809287000156,740.389790700021,741.057821800001,741.3569647000113,742.0777913000202,742.3831905999978,up,0,3.3665260999987368,740.114381100022,None,742.6179535000119,None,gtyzck,001,0,fr,2022-04-27_11h27.59.736,3-AFC_adaptive_staircase_mess,2022.1.1,None,
,,,,,5,0,5,0,19,0,19,0,,,,,,,,,,,,,,,,left,6000,-12.5,2.7477043692881217e-05,1,5,1,2.5,745.0112012100174,None,744.9833072000183,745.2945211000042,745.9865348000021,746.3168510000105,746.9619813000027,747.2814748000237,up,0,3.0290399999939837,745.0117870000249,None,747.5156086000206,None,gtyzck,001,0,fr,2022-04-27_11h27.59.736,3-AFC_adaptive_staircase_mess,2022.1.1,None,
,,,,,5,0,5,0,20,0,20,0,,,,,,,,,,,,,,,,up,6000,-10.0,3.664122665694518e-05,1,5,1,2.5,750.5791698100104,None,749.5569004999998,749.8895485000103,750.5512758000114,750.8656846000231,751.5585138000024,751.8937041000172,left,0,3.1719134000013582,749.5887362000067,None,752.10095740002,None,gtyzck,001,0,fr,2022-04-27_11h27.59.736,3-AFC_adaptive_staircase_mess,2022.1.1,None,
,,,,,5,0,5,0,21,0,21,0,,,,,,,,,,,,,,,,up,6000,-7.5,4.886186104779051e-05,1,5,1,2.5,755.297992510011,None,754.2582839000097,754.5905647000181,755.2381113000156,755.5469217000064,756.2613519000006,756.5935377000133,left,0,3.1480983000074048,754.3168248000147,None,756.7992977000249,None,gtyzck,001,0,fr,2022-04-27_11h27.59.736,3-AFC_adaptive_staircase_mess,2022.1.1,None,
,,,,,5,0,5,0,22,0,22,0,,,,,,,,,,,,,,,,left,6000,-5.0,6.515833892261494e-05,1,5,1,2.5,758.998613210005,None,758.9404108000163,759.2497728000162,759.9525979000027,760.2789552000177,760.9305591000011,761.257398900023,up,0,2.895767599984538,759.0009047000203,None,761.4914516000135,None,gtyzck,001,0,fr,2022-04-27_11h27.59.736,3-AFC_adaptive_staircase_mess,2022.1.1,None,
,,,,,5,0,5,0,23,0,23,0,,,,,,,,,,,,,,,,up,6000,-2.5,8.689004143746872e-05,1,5,1,2.5,764.4286125100218,None,763.3736047999992,763.6987403000239,764.3700898000097,764.6842111000151,765.3719205000089,765.6944049000158,left,0,2.7527383000124246,763.4325551000074,None,765.9303234000108,None,gtyzck,001,0,fr,2022-04-27_11h27.59.736,3-AFC_adaptive_staircase_mess,2022.1.1,None,
,,,,,5,0,5,0,24,0,24,0,,,,,,,,,,,,,,,,right,6000,0.0,0.00011586973249842387,1,5,1,2.5,769.6889098100248,None,767.6470846000011,767.9733250999998,768.6519116999989,768.9803362000093,769.6610158000258,769.9912170000025,left,0,2.6849244000040926,767.7090934000153,None,770.1969018000236,None,gtyzck,001,0,fr,2022-04-27_11h27.59.736,3-AFC_adaptive_staircase_mess,2022.1.1,None,
,,,,,5,0,5,0,25,0,25,0,,,,,,,,,,,,,,,,right,6000,2.5,0.00015451477162567947,1,5,1,2.5,773.9510348100041,774.1765233000042,771.9010410000046,772.2273822000134,772.9047632000002,773.2316025000182,773.8908004999976,774.2035253000213,right,1,2.610768900020048,771.9587753000087,None,774.4379597000079,None,gtyzck,001,0,fr,2022-04-27_11h27.59.736,3-AFC_adaptive_staircase_mess,2022.1.1,None,
,,,,,5,0,5,0,26,0,26,0,,,,,,,,,,,,,,,,up,6000,-2.5,8.689004143746872e-05,-1,6,-1,-5.0,777.113844810013,None,776.047114200017,776.3603568000253,777.0537498000194,777.3627648000256,778.0612216000154,778.3908860000083,up,1,2.9540617000020575,776.1117086000158,None,778.6023211000138,None,gtyzck,001,0,fr,2022-04-27_11h27.59.736,3-AFC_adaptive_staircase_mess,2022.1.1,None,
,,,,,5,0,5,0,27,0,27,0,,,,,,,,,,,,,,,,up,6000,-7.5,4.886186104779051e-05,-1,6,-1,-5.0,781.6198988100107,781.8420067000261,780.5675445000234,780.8924088000203,781.5619292000192,781.8708620000107,782.5778794000216,782.8979020999977,up,1,2.8855566999991424,780.6268616000016,None,783.1324945000233,None,gtyzck,001,0,fr,2022-04-27_11h27.59.736,3-AFC_adaptive_staircase_mess,2022.1.1,None,
,,,,,5,0,5,0,28,0,28,0,,,,,,,,,,,,,,,,right,6000,-12.5,2.7477043692881217e-05,-1,6,-1,-5.0,787.055169610004,None,785.0160976000188,785.3351528000203,786.0092697000073,786.3104072000133,787.0272756000049,787.3372302000062,right,1,2.6141647000040393,785.0755059000221,None,787.5755493000033,None,gtyzck,001,0,fr,2022-04-27_11h27.59.736,3-AFC_adaptive_staircase_mess,2022.1.1,None,
,,,,,5,0,5,0,29,0,29,0,,,,,,,,,,,,,,,,right,6000,-17.5,1.5451477162567947e-05,-1,6,-1,-5.0,791.2436542100215,791.4616324000235,789.1789437000116,789.4841757000249,790.1835847000184,790.5159580000036,791.1864300000016,791.4889357000066,up,0,2.8227203999995254,789.2505920999974,None,791.7504056000034,None,gtyzck,001,0,fr,2022-04-27_11h27.59.736,3-AFC_adaptive_staircase_mess,2022.1.1,None,
,,,,,5,0,5,0,30,0,30,0,,,,,,,,,,,,,,,,left,6000,-15.0,2.0604875954866497e-05,1,7,1,2.5,793.6107357100002,793.8309411000228,793.5537232000206,793.8626156000246,794.5625826000178,794.8899896000221,795.5575109000201,795.88301770002,right,0,2.7309947999892756,793.613938399998,None,796.1212068000168,None,gtyzck,001,0,fr,2022-04-27_11h27.59.736,3-AFC_adaptive_staircase_mess,2022.1.1,None,
,,,,,5,0,5,0,31,0,31,0,,,,,,,,,,,,,,,,left,6000,-12.5,2.7477043692881217e-05,1,7,1,2.5,797.8999537100201,798.1200639000162,797.8428636000026,798.1514742000145,798.8323941999988,799.1400618000189,799.8232423000154,800.1302800000121,left,1,3.0795282000035513,797.889353400009,None,800.3965535000025,None,gtyzck,001,0,fr,2022-04-27_11h27.59.736,3-AFC_adaptive_staircase_mess,2022.1.1,None,
,,,,,5,0,5,0,32,0,32,0,,,,,,,,,,,,,,,,up,6000,-17.5,1.5451477162567947e-05,-1,8,-1,-5.0,803.521674810024,803.7411208999984,802.491761000012,802.797770300007,803.4642138000054,803.768621700001,804.4668376000191,804.7963356000255,up,1,2.9249043999880087,802.5238146000193,None,805.0320805000083,None,gtyzck,001,0,fr,2022-04-27_11h27.59.736,3-AFC_adaptive_staircase_mess,2022.1.1,None,
,,,,,6,0,6,0,0,0,0,0,,,,,,,,,,,,,[],[],5,right,8000,50,0.05740768107484415,0,0,-1,5,808.9945191100007,None,806.9621034000011,807.264376600011,807.9523332000244,808.2785195000179,808.9666251000017,809.2921717000136,right,1,3.142751400009729,806.9939992,None,809.4950472000055,None,gtyzck,001,0,fr,2022-04-27_11h27.59.736,3-AFC_adaptive_staircase_mess,2022.1.1,None,
,,,,,6,0,6,0,1,0,1,0,,,,,,,,,,,,,,,,up,8000,40,0.018153902738505076,-1,0,-1,-10,812.6649816100137,None,811.6278186000127,811.9466653999989,812.620010100014,812.9186848000099,813.6364876000152,813.9582420000224,up,1,3.088717099977657,811.656550500018,None,814.1629852000042,None,gtyzck,001,0,fr,2022-04-27_11h27.59.736,3-AFC_adaptive_staircase_mess,2022.1.1,None,
,,,,,6,0,6,0,2,0,2,0,,,,,,,,,,,,,,,,left,8000,30,0.005740768107484416,-1,0,-1,-10,816.292286810017,816.5053390000248,816.2342959000089,816.5607808000059,817.2535041000228,817.5793509000214,818.241628400021,818.5619146000245,left,1,2.674331099988194,816.2940670000098,None,818.7946060000104,None,gtyzck,001,0,fr,2022-04-27_11h27.59.736,3-AFC_adaptive_staircase_mess,2022.1.1,None,
,,,,,6,0,6,0,3,0,3,0,,,,,,,,,,,,,,,,left,8000,20,0.0018153902738505074,-1,0,-1,-10,820.5251038099989,820.7421084000089,820.4676607000001,820.7705719000078,821.4657148999977,821.7769335000194,822.47713080002,822.7945998000214,left,1,2.731461599993054,820.5255191000178,None,823.0291331000044,None,gtyzck,001,0,fr,2022-04-27_11h27.59.736,3-AFC_adaptive_staircase_mess,2022.1.1,None,
,,,,,6,0,6,0,4,0,4,0,,,,,,,,,,,,,,,,right,8000,10,0.0005740768107484417,-1,0,-1,-10,826.7886160100054,827.010334200022,824.7487116999982,825.0819860000047,825.7485847000207,826.0748460000032,826.7316338000237,827.0409050000017,right,1,2.6475585000007413,824.8176447000005,None,827.3014346999989,None,gtyzck,001,0,fr,2022-04-27_11h27.59.736,3-AFC_adaptive_staircase_mess,2022.1.1,None,
,,,,,6,0,6,0,5,0,5,0,,,,,,,,,,,,,,,,right,8000,0,0.0001815390273850507,-1,0,-1,-10,830.9958338099998,831.2198220000137,828.9417415000207,829.262681799999,829.9488725000119,830.2713640000147,830.9399904000165,831.247214300005,up,0,3.33013590000337,828.9987373000185,None,831.5086541000055,None,gtyzck,001,0,fr,2022-04-27_11h27.59.736,3-AFC_adaptive_staircase_mess,2022.1.1,None,
,,,,,6,0,6,0,6,0,6,0,,,,,,,,,,,,,,,,left,8000,5,0.00032282711451732784,1,1,1,5,833.8670270100004,None,833.8073386000178,834.111141100002,834.8047232000099,835.1401133000036,835.8081992000225,836.1232284000143,left,1,2.3107489999965765,833.8734162000183,None,None,None,gtyzck,001,0,fr,2022-04-27_11h27.59.736,3-AFC_adaptive_staircase_mess,2022.1.1,None,
,,,,,6,0,6,0,7,0,7,0,,,,,,,,,,,,,,,,up,8000,-5,0.00010208689723347648,-1,2,-1,-10,838.750090010016,None,837.674671500019,837.9796684000175,838.6881686999986,839.0197204000142,839.6827180000255,840.0107028000057,up,1,3.051429500017548,837.741087500006,None,840.2533788000001,None,gtyzck,001,0,fr,2022-04-27_11h27.59.736,3-AFC_adaptive_staircase_mess,2022.1.1,None,
,,,,,6,0,6,0,8,0,8,0,,,,,,,,,,,,,,,,right,8000,-15,3.228271145173278e-05,-1,2,-1,-10,844.3605813100178,844.5795337000163,842.296696800011,842.6194498000259,843.3150336000253,843.6506382000225,844.3037096000044,844.606451700005,left,0,3.009024300001329,842.359343100019,None,844.8385899999994,None,gtyzck,001,0,fr,2022-04-27_11h27.59.736,3-AFC_adaptive_staircase_mess,2022.1.1,None,
,,,,,6,0,6,0,9,0,9,0,,,,,,,,,,,,,,,,right,8000,-10,5.740768107484415e-05,1,3,1,2.5,848.9185869100213,None,846.861687000026,847.1875485000201,847.8608773000014,848.1882388000085,848.8595091000025,849.1742847000132,left,0,2.783114399993792,846.922022600018,None,849.423654400016,None,gtyzck,001,0,fr,2022-04-27_11h27.59.736,3-AFC_adaptive_staircase_mess,2022.1.1,None,
,,,,,6,0,6,0,10,0,10,0,,,,,,,,,,,,,,,,up,8000,-7.5,7.655437308410152e-05,1,3,1,2.5,852.2611048100109,None,851.1986170000164,851.5245783000137,852.2028070000233,852.5283052000159,853.1897513000004,853.5125642000057,up,1,2.8643303999851923,851.2571311000211,None,853.7460223000089,None,gtyzck,001,0,fr,2022-04-27_11h27.59.736,3-AFC_adaptive_staircase_mess,2022.1.1,None,
,,,,,6,0,6,0,11,0,11,0,,,,,,,,,,,,,,,,up,8000,-12.5,4.304968760923004e-05,-1,4,-1,-5.0,856.6542384100205,856.8704107000085,855.6037508000154,855.9274884000188,856.5945660000143,856.8998643000086,857.5943342000246,857.9168490000011,left,0,2.4276395999768283,855.6609853000264,None,858.1493978100073,None,gtyzck,001,0,fr,2022-04-27_11h27.59.736,3-AFC_adaptive_staircase_mess,2022.1.1,None,
,,,,,6,0,6,0,12,0,12,0,,,,,,,,,,,,,,,,left,8000,-10.0,5.740768107484415e-05,1,5,1,2.5,859.6339395100251,859.8524720999994,859.576232899999,859.8797921000223,860.5721992000181,860.88346490002,861.565656300023,861.8885917000007,left,1,2.4061136999807786,859.6341555000108,None,None,None,gtyzck,001,0,fr,2022-04-27_11h27.59.736,3-AFC_adaptive_staircase_mess,2022.1.1,None,
,,,,,6,0,6,0,13,0,13,0,,,,,,,,,,,,,,,,up,8000,-15.0,3.228271145173278e-05,-1,6,-1,-5.0,864.5647279099969,864.7836186000204,863.499982600013,863.8351199000026,864.5035848999978,864.8135069000127,865.5060355000023,None,left,0,2.1304432000033557,863.5588408000185,None,None,None,gtyzck,001,0,fr,2022-04-27_11h27.59.736,3-AFC_adaptive_staircase_mess,2022.1.1,None,
,,,,,6,0,6,0,14,0,14,0,,,,,,,,,,,,,,,,right,8000,-12.5,4.304968760923004e-05,1,7,1,2.5,869.2247626100027,869.4408684000082,867.1714162999997,867.4947339000064,868.185288800014,868.5069759000035,869.1968686000037,869.5224315000232,left,0,2.3605118000123184,867.2322206000099,None,None,None,gtyzck,001,0,fr,2022-04-27_11h27.59.736,3-AFC_adaptive_staircase_mess,2022.1.1,None,
,,,,,6,0,6,0,15,0,15,0,,,,,,,,,,,,,,,,right,8000,-10.0,5.740768107484415e-05,1,7,1,2.5,873.1357953100116,873.3559061000124,871.0773646000016,871.4096286999993,872.0773153000046,872.4047967000224,873.0773897000181,873.3896395000047,left,0,2.2909081999969203,871.1418132000254,None,None,None,gtyzck,001,0,fr,2022-04-27_11h27.59.736,3-AFC_adaptive_staircase_mess,2022.1.1,None,
,,,,,6,0,6,0,16,0,16,0,,,,,,,,,,,,,,,,right,8000,-7.5,7.655437308410152e-05,1,7,1,2.5,876.9633274100081,877.1813687000249,874.9129457000236,875.2347386000038,875.9240168000106,876.2334224000224,876.9354334000091,877.2361584000173,left,0,2.9714006000140216,874.9737392000097,None,877.468847400014,None,gtyzck,001,0,fr,2022-04-27_11h27.59.736,3-AFC_adaptive_staircase_mess,2022.1.1,None,
,,,,,6,0,6,0,17,0,17,0,,,,,,,,,,,,,,,,left,8000,-5.0,0.00010208689723347648,1,7,1,2.5,879.4784924099979,879.6951951000083,879.4212080000143,879.7263678000018,880.4228991999989,880.7261794000224,881.4490000000224,881.7739754000213,left,1,2.6981276999867987,879.4704571000184,None,881.9814504000242,None,gtyzck,001,0,fr,2022-04-27_11h27.59.736,3-AFC_adaptive_staircase_mess,2022.1.1,None,
,,,,,6,0,6,0,18,0,18,0,,,,,,,,,,,,,,,,up,8000,-10.0,5.740768107484415e-05,-1,8,-1,-5.0,884.7177941099974,884.9341118000157,883.6429419000051,883.9637859000068,884.6574368000147,884.9654716000077,885.6585908000125,885.9845349000243,left,0,2.6919479000207502,883.7011302000028,None,886.2128486000001,None,gtyzck,001,0,fr,2022-04-27_11h27.59.736,3-AFC_adaptive_staircase_mess,2022.1.1,None,
,,,,,7,0,7,0,0,0,0,0,,,,,,,,,,,,,[],[],5,right,750,50,0.012851978913844325,0,0,-1,5,889.923923810001,None,887.8667754000053,888.1787596000067,888.8807977000251,889.2044600000081,889.8634682999982,890.1776455000218,right,1,2.6411933000199497,887.9277777000098,None,890.4392522000126,None,gtyzck,001,0,fr,2022-04-27_11h27.59.736,3-AFC_adaptive_staircase_mess,2022.1.1,None,
,,,,,7,0,7,0,1,0,1,0,,,,,,,,,,,,,,,,up,750,40,0.004064152580820497,-1,0,-1,-10,893.1020718100074,893.3178354999982,892.0676108000043,892.4009151000064,893.0431376000051,893.3463374999992,894.0369940000237,894.3740439000248,up,1,2.8846292000089306,892.1007906000013,None,894.608962600003,None,gtyzck,001,0,fr,2022-04-27_11h27.59.736,3-AFC_adaptive_staircase_mess,2022.1.1,None,
,,,,,7,0,7,0,2,0,2,0,,,,,,,,,,,,,,,,up,750,30,0.0012851978913844323,-1,0,-1,-10,897.5292512100016,897.7514473000192,896.5069937000226,896.8405282000022,897.5013572000025,897.8107458000013,898.4981946000189,898.8149486000184,up,1,2.9534239000058733,896.5430221999995,None,899.0413915000099,None,gtyzck,001,0,fr,2022-04-27_11h27.59.736,3-AFC_adaptive_staircase_mess,2022.1.1,None,
,,,,,7,0,7,0,3,0,3,0,,,,,,,,,,,,,,,,left,750,20,0.00040641525808204974,-1,0,-1,-10,901.03626981001,901.2580172000162,901.008375800011,901.3155348,901.9766253000125,902.2919091000222,902.997339900001,903.3205245000136,left,1,2.4056706000119448,901.0428081999999,None,None,None,gtyzck,001,0,fr,2022-04-27_11h27.59.736,3-AFC_adaptive_staircase_mess,2022.1.1,None,
,,,,,7,0,7,0,4,0,4,0,,,,,,,,,,,,,,,,right,750,10,0.00012851978913844324,-1,0,-1,-10,906.9996993100096,907.2175942000176,904.9296857000154,905.2560156000254,905.9467011000088,906.2755094000022,906.9441336000164,907.2448855000257,right,1,2.6555167000042275,904.9850926000217,None,907.5031996000034,None,gtyzck,001,0,fr,2022-04-27_11h27.59.736,3-AFC_adaptive_staircase_mess,2022.1.1,None,
,,,,,7,0,7,0,5,0,5,0,,,,,,,,,,,,,,,,left,750,0,4.064152580820497e-05,-1,0,-1,-10,909.1699232100102,909.3884722000221,909.1140464000055,909.4047196000174,910.1254200999974,910.4543226000096,911.1307036000071,911.454152100021,up,0,2.93529250001302,909.1701692000206,None,911.6628031000146,None,gtyzck,001,0,fr,2022-04-27_11h27.59.736,3-AFC_adaptive_staircase_mess,2022.1.1,None,
,,,,,7,0,7,0,6,0,6,0,,,,,,,,,,,,,,,,up,750,5,7.22719885372964e-05,1,1,1,5,914.6468267100165,914.8679288999992,913.5935452000122,913.9200077000132,914.5871653000067,914.8983530999976,915.5957877000037,915.9221413000196,up,1,2.882806800014805,913.6546379000065,None,916.1543184000184,None,gtyzck,001,0,fr,2022-04-27_11h27.59.736,3-AFC_adaptive_staircase_mess,2022.1.1,None,
,,,,,7,0,7,0,7,0,7,0,,,,,,,,,,,,,,,,left,750,-5,2.285440948074376e-05,-1,2,-1,-10,918.0914559100231,918.3122604000091,918.035268800013,918.3397540000151,919.0337670000154,919.3572046000045,920.047624800005,920.3680588999996,up,0,2.717354200023692,918.0923129000003,None,920.5962060000165,None,gtyzck,001,0,fr,2022-04-27_11h27.59.736,3-AFC_adaptive_staircase_mess,2022.1.1,None,
,,,,,7,0,7,0,8,0,8,0,,,,,,,,,,,,,,,,up,750,0,4.064152580820497e-05,1,3,1,2.5,923.3558007100248,923.5782453000138,922.2817956000217,922.6025389000133,923.296531,923.6084088000061,924.3024444000039,924.6254027000105,up,1,3.109380700014299,922.3399539000238,None,924.857894100016,None,gtyzck,001,0,fr,2022-04-27_11h27.59.736,3-AFC_adaptive_staircase_mess,2022.1.1,None,
,,,,,7,0,7,0,9,0,9,0,,,,,,,,,,,,,,,,up,750,-5.0,2.285440948074376e-05,-1,4,-1,-5.0,927.98501461001,None,926.9419324000191,927.2645219000115,927.957120600011,928.2595722000115,928.9532105000108,929.2738703000068,up,1,2.944461000006413,927.0000484000193,None,929.5064756000065,None,gtyzck,001,0,fr,2022-04-27_11h27.59.736,3-AFC_adaptive_staircase_mess,2022.1.1,None,
,,,,,7,0,7,0,10,0,10,0,,,,,,,,,,,,,,,,right,750,-10.0,1.2851978913844322e-05,-1,4,-1,-5.0,933.5009574100143,933.7212936000142,931.4510447000212,931.7721142000228,932.4469967000186,932.7725527000148,933.4730634000152,933.7808681000024,up,0,3.475371999986237,931.5086753000214,None,934.0235089000198,None,gtyzck,001,0,fr,2022-04-27_11h27.59.736,3-AFC_adaptive_staircase_mess,2022.1.1,None,
,,,,,7,0,7,0,11,0,11,0,,,,,,,,,,,,,,,,right,750,-7.5,1.7138389327322525e-05,1,5,1,2.5,938.5522619100113,None,936.4880820000253,936.809587900003,937.5031465000066,937.8013179000118,938.4980837000185,938.806406800024,up,0,2.8249739999882877,936.5442921000067,None,939.0378503000247,None,gtyzck,001,0,fr,2022-04-27_11h27.59.736,3-AFC_adaptive_staircase_mess,2022.1.1,None,
,,,,,7,0,7,0,12,0,12,0,,,,,,,,,,,,,,,,right,750,-5.0,2.285440948074376e-05,1,5,1,2.5,942.8783920100134,943.0941444000055,940.8320889000024,941.1528573000105,941.8490465000214,942.1504426000174,942.8504980000143,943.1540786999976,up,0,3.3109239999903366,940.8902715000149,None,943.3866913000238,None,gtyzck,001,0,fr,2022-04-27_11h27.59.736,3-AFC_adaptive_staircase_mess,2022.1.1,None,
,,,,,7,0,7,0,13,0,13,0,,,,,,,,,,,,,,,,left,750,-2.5,3.0476844862008466e-05,1,5,1,2.5,945.7282302100095,945.9443981000222,945.6711936000211,945.96072860001,946.6891615000204,947.017070300004,947.6833823000197,948.0015280000225,up,0,2.7112905000103638,945.7297885000007,None,948.2389903000148,None,gtyzck,001,0,fr,2022-04-27_11h27.59.736,3-AFC_adaptive_staircase_mess,2022.1.1,None,
,,,,,7,0,7,0,14,0,14,0,,,,,,,,,,,,,,,,right,750,0.0,4.064152580820497e-05,1,5,1,2.5,951.9845601100126,952.2062454000115,949.9130766000017,950.2344153000158,950.9375243000104,951.2593239000125,951.9254713000264,952.2376484000124,up,0,2.854632800008403,949.9709357000247,None,952.4722830000101,None,gtyzck,001,0,fr,2022-04-27_11h27.59.736,3-AFC_adaptive_staircase_mess,2022.1.1,None,
,,,,,7,0,7,0,15,0,15,0,,,,,,,,,,,,,,,,left,750,2.5,5.419634570106019e-05,1,5,1,2.5,954.3405230100209,None,954.2840003000165,954.5901979000191,955.2918119000096,955.6149516000005,956.2875532000035,956.6075354000204,up,0,3.4934749000240117,954.3397568000073,None,956.8407731000043,None,gtyzck,001,0,fr,2022-04-27_11h27.59.736,3-AFC_adaptive_staircase_mess,2022.1.1,None,
,,,,,7,0,7,0,16,0,16,0,,,,,,,,,,,,,,,,right,750,5.0,7.22719885372964e-05,1,5,1,2.5,961.3717501100211,None,959.3290963000036,959.6499022000062,960.3227058000048,960.6403660000069,961.3136537000246,961.6190160000115,up,0,2.8117358000017703,959.3577062000113,None,961.879376900004,None,gtyzck,001,0,fr,2022-04-27_11h27.59.736,3-AFC_adaptive_staircase_mess,2022.1.1,None,
,,,,,7,0,7,0,17,0,17,0,,,,,,,,,,,,,,,,left,750,7.5,9.637624565954684e-05,1,5,1,2.5,963.681417210016,963.8910076000029,963.6257527999987,963.9457850000181,964.6222929000214,964.9449421000027,965.6424464000156,965.9496204000025,up,0,2.567458900011843,963.6809415000025,None,966.1842772000236,None,gtyzck,001,0,fr,2022-04-27_11h27.59.736,3-AFC_adaptive_staircase_mess,2022.1.1,None,
,,,,,7,0,7,0,18,0,18,0,,,,,,,,,,,,,,,,left,750,10.0,0.00012851978913844324,1,5,1,2.5,967.7824329100142,None,967.7250800000038,968.0281777000055,968.7317575000052,969.0543258000107,969.7549519000167,970.0762392000179,up,0,2.9459784000064246,967.7835839000181,None,970.2821717000043,None,gtyzck,001,0,fr,2022-04-27_11h27.59.736,3-AFC_adaptive_staircase_mess,2022.1.1,None,
,,,,,7,0,7,0,19,0,19,0,,,,,,,,,,,,,,,,up,750,12.5,0.00017138389327322524,1,5,1,2.5,973.2700624099991,973.4951202000084,972.2035885000078,972.5118481000245,973.2120476000127,973.5265903000254,974.2255281000107,974.5262012000021,up,1,2.878951099992264,972.2656206000247,None,974.7611080000061,None,gtyzck,001,0,fr,2022-04-27_11h27.59.736,3-AFC_adaptive_staircase_mess,2022.1.1,None,
,,,,,7,0,7,0,20,0,20,0,,,,,,,,,,,,,,,,right,750,7.5,9.637624565954684e-05,-1,6,-1,-5.0,978.6663187100087,978.8874590000196,976.6138984000136,976.9398987000168,977.6211915000167,977.9362829000165,978.6090816000069,978.9143196000077,up,0,2.650738199998159,976.6704148999997,None,979.1795023000159,None,gtyzck,001,0,fr,2022-04-27_11h27.59.736,3-AFC_adaptive_staircase_mess,2022.1.1,None,
,,,,,7,0,7,0,21,0,21,0,,,,,,,,,,,,,,,,left,750,10.0,0.00012851978913844324,1,7,1,2.5,980.8493533100002,981.0640151000116,980.7912368000252,981.0953568000114,981.788511700026,982.1181785000081,982.7945166999998,983.1016973000078,up,0,2.88294870001846,980.8536615000048,None,983.3357674000144,None,gtyzck,001,0,fr,2022-04-27_11h27.59.736,3-AFC_adaptive_staircase_mess,2022.1.1,None,
,,,,,7,0,7,0,22,0,22,0,,,,,,,,,,,,,,,,right,750,12.5,0.00017138389327322524,1,7,1,2.5,987.3050302100194,None,985.2416746000235,985.5659809000208,986.2412940000067,986.5496716000198,987.24796410001,None,up,0,2.1807209000107832,985.2993691000156,None,None,None,gtyzck,001,0,fr,2022-04-27_11h27.59.736,3-AFC_adaptive_staircase_mess,2022.1.1,None,
,,,,,7,0,7,0,23,0,23,0,,,,,,,,,,,,,,,,up,750,15.0,0.0002285440948074376,1,7,1,2.5,990.0122982100177,990.2438039000263,988.965270500019,989.2746074000024,989.9551538000233,990.2750671000103,990.9730708000134,991.2730360999994,up,1,2.386863500025356,989.0291865000036,None,None,None,gtyzck,001,0,fr,2022-04-27_11h27.59.736,3-AFC_adaptive_staircase_mess,2022.1.1,None,
,,,,,7,0,7,0,24,0,24,0,,,,,,,,,,,,,,,,right,750,10.0,0.00012851978913844324,-1,8,-1,-5.0,994.9328255100002,None,992.8851503000187,993.1908828000014,993.891577500006,994.19739820002,994.8732291000197,995.1834131000214,up,0,2.2655172999948263,992.9438398000202,None,None,None,gtyzck,001,0,fr,2022-04-27_11h27.59.736,3-AFC_adaptive_staircase_mess,2022.1.1,None,
,,,,,8,0,8,0,0,0,0,0,,,,,,,,,,,,,[],[],5,right,500,50,0.02259279721874612,0,0,-1,5,998.744226810016,None,996.6892138000112,997.0186495000089,997.6757620999997,997.9790397000033,998.6868533000234,998.9994545000081,right,1,2.8918257000041194,996.7486475000042,None,999.2399939000024,None,gtyzck,001,0,fr,2022-04-27_11h27.59.736,3-AFC_adaptive_staircase_mess,2022.1.1,None,
,,,,,8,0,8,0,1,0,1,0,,,,,,,,,,,,,,,,left,500,40,0.007144469792555516,-1,0,-1,-10,1001.1848987100122,None,1001.1278346000181,1001.4476484000043,1002.1364243999997,1002.461993200006,1003.1438521000091,1003.4761254000186,left,1,2.9187383000098635,1001.186036900006,None,1003.6820974000148,None,gtyzck,001,0,fr,2022-04-27_11h27.59.736,3-AFC_adaptive_staircase_mess,2022.1.1,None,
,,,,,8,0,8,0,2,0,2,0,,,,,,,,,,,,,,,,right,500,30,0.002259279721874612,-1,0,-1,-10,1007.6542790100095,None,1005.6128492999997,1005.9419303000032,1006.5846304000006,1006.9154470000067,1007.5963675000239,1007.9180831999984,right,1,2.397826799977338,1005.6425000000163,None,None,None,gtyzck,001,0,fr,2022-04-27_11h27.59.736,3-AFC_adaptive_staircase_mess,2022.1.1,None,
,,,,,8,0,8,0,3,0,3,0,,,,,,,,,,,,,,,,up,500,20,0.0007144469792555515,-1,0,-1,-10,1010.5698725099967,1010.7977027000161,1009.5071982000081,1009.8123407000094,1010.5133640000131,1010.8292575000087,1011.5175902000046,1011.8513077000098,right,0,2.715703099995153,1009.5650833000254,None,1012.0594443000155,None,gtyzck,001,0,fr,2022-04-27_11h27.59.736,3-AFC_adaptive_staircase_mess,2022.1.1,None,
,,,,,8,0,8,0,4,0,4,0,,,,,,,,,,,,,,,,up,500,25,0.0012704863527746527,1,1,1,5,1014.8031502100232,None,1013.7676034000178,1014.0922015000251,1014.7752562000242,1015.0963729000068,1015.7520875000046,1016.0849188000138,up,1,2.6627866000053473,1013.8248931000126,None,1016.3196670000034,None,gtyzck,001,0,fr,2022-04-27_11h27.59.736,3-AFC_adaptive_staircase_mess,2022.1.1,None,
,,,,,8,0,8,0,5,0,5,0,,,,,,,,,,,,,,,,left,500,15,0.0004017630610928086,-1,2,-1,-10,1018.0300404100155,None,1017.974314000021,1018.2834322999988,1018.9627701000136,1019.2718269000179,1019.9811519000214,1020.2921887999983,left,1,2.8398706000007223,1018.0319160000072,None,1020.5230868000071,None,gtyzck,001,0,fr,2022-04-27_11h27.59.736,3-AFC_adaptive_staircase_mess,2022.1.1,None,
,,,,,8,0,8,0,6,0,6,0,,,,,,,,,,,,,,,,up,500,5,0.00012704863527746526,-1,2,-1,-10,1023.4275684100169,None,1022.3826544000185,1022.6866434999974,1023.3678665000189,1023.6841416000098,1024.3854773000057,1024.6974307000055,right,0,2.335911899979692,1022.4402665000234,None,None,None,gtyzck,001,0,fr,2022-04-27_11h27.59.736,3-AFC_adaptive_staircase_mess,2022.1.1,None,
,,,,,8,0,8,0,7,0,7,0,,,,,,,,,,,,,,,,up,500,10,0.0002259279721874612,1,3,1,2.5,1027.2949844100106,1027.5146464999998,1026.2605013000139,1026.5623224000155,1027.2351206000021,1027.5428590000083,1028.250959099998,1028.5560286000255,left,0,2.8047135999950115,1026.2917447000218,None,1028.7953973000112,None,gtyzck,001,0,fr,2022-04-27_11h27.59.736,3-AFC_adaptive_staircase_mess,2022.1.1,None,
,,,,,8,0,8,0,8,0,8,0,,,,,,,,,,,,,,,,right,500,12.5,0.0003012797930371789,1,3,1,2.5,1032.6445950100199,None,1030.5962129000109,1030.924936800002,1031.5753811000031,1031.8824198000075,1032.588424800022,1032.898120800004,left,0,2.518585899990285,1030.6255363000091,None,1033.1343878000043,None,gtyzck,001,0,fr,2022-04-27_11h27.59.736,3-AFC_adaptive_staircase_mess,2022.1.1,None,
,,,,,8,0,8,0,9,0,9,0,,,,,,,,,,,,,,,,right,500,15.0,0.0004017630610928086,1,3,1,2.5,1036.7085472100182,None,1034.659871700016,1034.9891255000257,1035.6510336000065,1035.9794429000176,1036.648927800008,1036.965399800014,right,1,2.391114500002004,1034.688974300021,None,None,None,gtyzck,001,0,fr,2022-04-27_11h27.59.736,3-AFC_adaptive_staircase_mess,2022.1.1,None,
,,,,,8,0,8,0,10,0,10,0,,,,,,,,,,,,,,,,left,500,10.0,0.0002259279721874612,-1,4,-1,-5.0,1038.6114950100193,None,1038.5517388000153,1038.861184600013,1039.5461262000026,1039.8495310000144,1040.5561003000184,1040.8681617000257,left,1,2.337195200001588,1038.6154561000003,None,None,None,gtyzck,001,0,fr,2022-04-27_11h27.59.736,3-AFC_adaptive_staircase_mess,2022.1.1,None,
,,,,,8,0,8,0,11,0,11,0,,,,,,,,,,,,,,,,right,500,5.0,0.00012704863527746526,-1,4,-1,-5.0,1044.4750701100158,None,1042.443779400026,1042.7494697000075,1043.4241586000135,1043.7341907000227,1044.4471761000168,1044.7601628999982,right,1,2.4479276000056416,1042.472966500005,None,1044.9762925100106,None,gtyzck,001,0,fr,2022-04-27_11h27.59.736,3-AFC_adaptive_staircase_mess,2022.1.1,None,
,,,,,8,0,8,0,12,0,12,0,,,,,,,,,,,,,,,,left,500,0.0,7.144469792555515e-05,-1,4,-1,-5.0,1046.4882874100178,None,1046.430354400014,1046.7414800999977,1047.4246104000194,1047.7280992000015,1048.4231519000023,1048.72502480002,right,0,2.9729201000009198,1046.4913501999981,None,1048.9971818000195,None,gtyzck,001,0,fr,2022-04-27_11h27.59.736,3-AFC_adaptive_staircase_mess,2022.1.1,None,
,,,,,8,0,8,0,13,0,13,0,,,,,,,,,,,,,,,,right,500,2.5,9.527303589816237e-05,1,5,1,2.5,1053.0093398100173,None,1050.9604771000159,1051.2793689000246,1051.9612702000013,1052.2660803000035,1052.9537017999974,1053.271910600015,right,1,2.3117278999998234,1051.024645700003,None,None,None,gtyzck,001,0,fr,2022-04-27_11h27.59.736,3-AFC_adaptive_staircase_mess,2022.1.1,None,
,,,,,8,0,8,0,14,0,14,0,,,,,,,,,,,,,,,,up,500,-2.5,5.357596526188033e-05,-1,6,-1,-5.0,1055.8527764100174,1056.0760228,1054.808506900008,1055.1124813000206,1055.8248824000184,1056.1394453000103,1056.8113459000015,1057.1145502,right,0,2.243088200018974,1054.869508200005,None,None,None,gtyzck,001,0,fr,2022-04-27_11h27.59.736,3-AFC_adaptive_staircase_mess,2022.1.1,None,
,,,,,8,0,8,0,15,0,15,0,,,,,,,,,,,,,,,,left,500,0.0,7.144469792555515e-05,1,7,1,2.5,1058.636303710012,1058.8601293000102,1058.5796854000073,1058.8871182000148,1059.5872646000062,1059.9119498000073,1060.587996700022,1060.8963401000074,right,0,2.5351269000093453,1058.6407460000191,None,1061.1287285000144,None,gtyzck,001,0,fr,2022-04-27_11h27.59.736,3-AFC_adaptive_staircase_mess,2022.1.1,None,
,,,,,8,0,8,0,16,0,16,0,,,,,,,,,,,,,,,,right,500,2.5,9.527303589816237e-05,1,7,1,2.5,1064.7259043100232,1064.9521553000086,1062.6667497000017,1062.995119500003,1063.66500920002,1063.993217900017,1064.6657916000113,1064.9844138000044,right,1,2.3074051000003237,1062.7260355000035,None,None,None,gtyzck,001,0,fr,2022-04-27_11h27.59.736,3-AFC_adaptive_staircase_mess,2022.1.1,None,
,,,,,8,0,8,0,17,0,17,0,,,,,,,,,,,,,,,,up,500,-2.5,5.357596526188033e-05,-1,8,-1,-5.0,1067.5893126100011,1067.8037325000041,1066.5293808999995,1066.8583352999995,1067.5308623000165,1067.8324069000082,None,None,right,0,1.8050201000005472,1066.5879683000094,None,None,None,gtyzck,001,0,fr,2022-04-27_11h27.59.736,3-AFC_adaptive_staircase_mess,2022.1.1,None,
,,,,,9,0,9,0,0,0,0,0,,,,,,,,,,,,,[],[],5,right,250,50,0.05296268625886444,0,0,-1,5,1071.9399686100253,1072.159952600021,1069.9040884000133,1070.2086173999996,1070.8830775000097,1071.2106533000187,1071.8841431000037,1072.1886927000014,right,1,2.619359300006181,1069.9335031000082,None,1072.4214881000225,None,gtyzck,001,0,fr,2022-04-27_11h27.59.736,3-AFC_adaptive_staircase_mess,2022.1.1,None,
,,,,,9,0,9,0,1,0,1,0,,,,,,,,,,,,,,,,up,250,40,0.016748271957891383,-1,0,-1,-10,1075.089965909999,1075.3061541000206,1074.0334917000146,1074.359932100022,1075.0341805000207,1075.3333627000102,1076.0545033000235,1076.3838018000242,up,1,2.7813885000068694,1074.0910687000141,None,1076.5899352999986,None,gtyzck,001,0,fr,2022-04-27_11h27.59.736,3-AFC_adaptive_staircase_mess,2022.1.1,None,
,,,,,9,0,9,0,2,0,2,0,,,,,,,,,,,,,,,,left,250,30,0.005296268625886445,-1,0,-1,-10,1078.4069784100168,1078.6323668000114,1078.3469579000084,1078.6611959000002,1079.3337344000174,1079.6586703000066,1080.3477765000134,1080.6663373000047,left,1,2.6756794000102673,1078.4053368000023,None,1080.9002510000137,None,gtyzck,001,0,fr,2022-04-27_11h27.59.736,3-AFC_adaptive_staircase_mess,2022.1.1,None,
,,,,,9,0,9,0,3,0,3,0,,,,,,,,,,,,,,,,left,250,20,0.0016748271957891384,-1,0,-1,-10,1082.6215527100023,1082.8365843000065,1082.5632225000008,1082.8677593000175,1083.5660075000196,1083.8936767000123,1084.5662531999988,1084.8920465999981,left,1,3.2101507000043057,1082.6228057999979,None,1085.1263026000233,None,gtyzck,001,0,fr,2022-04-27_11h27.59.736,3-AFC_adaptive_staircase_mess,2022.1.1,None,
,,,,,9,0,9,0,4,0,4,0,,,,,,,,,,,,,,,,up,250,10,0.0005296268625886444,-1,0,-1,-10,1088.3595219100127,1088.5762931000208,1087.3016584000143,1087.6272485000081,1088.3016802000056,1088.6077629000065,1089.3086206000007,1089.634273100004,right,0,2.903371499996865,1087.3618389000185,None,1089.8688946000184,None,gtyzck,001,0,fr,2022-04-27_11h27.59.736,3-AFC_adaptive_staircase_mess,2022.1.1,None,
,,,,,9,0,9,0,5,0,5,0,,,,,,,,,,,,,,,,left,250,15,0.0009418245447449003,1,1,1,5,1091.8024910100096,None,1091.7474911000172,1092.055236300017,1092.750499100017,1093.0729240000073,1093.750050600007,1094.0787611000123,right,0,2.9693250999844167,1091.8072902999993,None,1094.3150178000215,None,gtyzck,001,0,fr,2022-04-27_11h27.59.736,3-AFC_adaptive_staircase_mess,2022.1.1,None,
,,,,,9,0,9,0,6,0,6,0,,,,,,,,,,,,,,,,right,250,20,0.0016748271957891384,1,1,1,5,1098.3085948100081,1098.535383600014,1096.26072760002,1096.5637386000017,1097.2887465000094,1097.6166349000123,1098.254604900023,1098.5670954000088,right,1,3.2243922000052407,1096.3207724000094,None,1098.8215077000204,None,gtyzck,001,0,fr,2022-04-27_11h27.59.736,3-AFC_adaptive_staircase_mess,2022.1.1,None,
,,,,,9,0,9,0,7,0,7,0,,,,,,,,,,,,,,,,left,250,10,0.0005296268625886444,-1,2,-1,-10,1101.0902330100246,1101.3114594000217,1101.0205311000173,1101.3425221000216,1102.0646053000237,1102.3896899000101,1103.051001600019,1103.373559700005,right,0,2.854678599978797,1101.0907066000218,None,1103.581532900018,None,gtyzck,001,0,fr,2022-04-27_11h27.59.736,3-AFC_adaptive_staircase_mess,2022.1.1,None,
,,,,,9,0,9,0,8,0,8,0,,,,,,,,,,,,,,,,right,250,15,0.0009418245447449003,1,3,1,2.5,1107.5252881100052,1107.7415284000163,1105.4602225999988,1105.7819674000202,1106.4772353000008,1106.7984268,1107.4688968000119,1107.7687637000054,right,1,2.7939567000139505,1105.5186386000132,None,1108.028655400005,None,gtyzck,001,0,fr,2022-04-27_11h27.59.736,3-AFC_adaptive_staircase_mess,2022.1.1,None,
,,,,,9,0,9,0,9,0,9,0,,,,,,,,,,,,,,,,left,250,10.0,0.0005296268625886444,-1,4,-1,-5.0,1109.821520810004,None,1109.76488100001,1110.0640440999996,1110.788124100014,1111.115296200005,1111.783282600023,1112.1103924000054,right,0,2.6971512000018265,1109.8223645000253,None,1112.3393683000177,None,gtyzck,001,0,fr,2022-04-27_11h27.59.736,3-AFC_adaptive_staircase_mess,2022.1.1,None,
,,,,,9,0,9,0,10,0,10,0,,,,,,,,,,,,,,,,up,250,12.5,0.0007062687723113773,1,5,1,2.5,1115.0921304100077,1115.3177791000053,1114.025460600009,1114.3354561000015,1115.0361588000087,1115.346271700022,1116.0370918000117,1116.36006430001,up,1,2.9133574000152294,1114.071214000025,None,1116.599450300011,None,gtyzck,001,0,fr,2022-04-27_11h27.59.736,3-AFC_adaptive_staircase_mess,2022.1.1,None,
,,,,,9,0,9,0,11,0,11,0,,,,,,,,,,,,,,,,left,250,7.5,0.0003971641173621407,-1,6,-1,-5.0,1118.5138626099972,1118.734326900012,1118.4567437000223,1118.7649041000113,1119.488915599999,1119.8073766000161,1120.483425000013,1120.807035100006,up,0,2.63917360000778,1118.505764600006,None,1121.012407000002,None,gtyzck,001,0,fr,2022-04-27_11h27.59.736,3-AFC_adaptive_staircase_mess,2022.1.1,None,
,,,,,9,0,9,0,12,0,12,0,,,,,,,,,,,,,,,,left,250,10.0,0.0005296268625886444,1,7,1,2.5,1122.6949135100178,1122.912805800006,1122.636577199999,1122.9407090000168,1123.6389171000046,1123.9648235000204,1124.6466177000257,1124.9573533000075,up,0,2.704761500004679,1122.695221700007,None,1125.2171266000078,None,gtyzck,001,0,fr,2022-04-27_11h27.59.736,3-AFC_adaptive_staircase_mess,2022.1.1,None,
,,,,,9,0,9,0,13,0,13,0,,,,,,,,,,,,,,,,right,250,12.5,0.0007062687723113773,1,7,1,2.5,1128.9717748100113,1129.1882858000172,1126.9030671000073,1127.2298187999986,1127.9141415000195,1128.220131900016,1128.9157236000174,1129.2051812999998,left,0,3.4145748000009917,1126.9615457000036,None,1129.4760217000148,None,gtyzck,001,0,fr,2022-04-27_11h27.59.736,3-AFC_adaptive_staircase_mess,2022.1.1,None,
,,,,,9,0,9,0,14,0,14,0,,,,,,,,,,,,,,,,right,250,15.0,0.0009418245447449003,1,7,1,2.5,1133.911835210008,None,1131.8741349000193,1132.187616100011,1132.8911533000064,1133.2166015999974,1133.8839412000088,1134.1894590000156,left,0,2.4919703000050504,1131.932363,None,1134.4283133000135,None,gtyzck,001,0,fr,2022-04-27_11h27.59.736,3-AFC_adaptive_staircase_mess,2022.1.1,None,
,,,,,9,0,9,0,15,0,15,0,,,,,,,,,,,,,,,,right,250,17.5,0.0012559432157547902,1,7,1,2.5,1137.9526648100175,None,1135.9255462000147,1136.2492256000114,1136.9080838000227,1137.2261988000246,1137.9051526000258,1138.2122625000193,right,1,2.7744524000154343,1135.9545245000045,None,1138.4532910000125,None,gtyzck,001,0,fr,2022-04-27_11h27.59.736,3-AFC_adaptive_staircase_mess,2022.1.1,None,
,,,,,9,0,9,0,16,0,16,0,,,,,,,,,,,,,,,,right,250,12.5,0.0007062687723113773,-1,8,-1,-5.0,1142.2738079099975,1142.4935237000172,1140.2187656000024,1140.5302554000227,1141.2314516000042,1141.5533864000172,1142.2138851000054,1142.520532800001,right,1,2.7890500999928918,1140.2755230000184,None,1142.7822088000248,None,gtyzck,001,0,fr,2022-04-27_11h27.59.736,3-AFC_adaptive_staircase_mess,2022.1.1,None,
,,,,,10,0,10,0,0,0,0,0,,,,,,,,,,,,,[],[],5,up,125,50,0.2285440948074376,0,0,-1,5,1145.6162287100044,1145.8350546000001,1144.5796745000116,1144.9030657000258,1145.558959600021,1145.8628195000056,1146.5784718000214,1146.901048300002,up,1,3.1373731000057887,1144.599337600026,None,1147.105919499998,None,gtyzck,001,0,fr,2022-04-27_11h27.59.736,3-AFC_adaptive_staircase_mess,2022.1.1,None,
,,,,,10,0,10,0,1,0,1,0,,,,,,,,,,,,,,,,up,125,40,0.07227198853729641,-1,0,-1,-10,1150.3091493100103,1150.5208276000048,1149.2389676000166,1149.5618692999997,1150.2387803000165,1150.5468849000172,1151.237180600001,1151.5577780000167,up,1,2.408108400006313,1149.297521200002,None,None,None,gtyzck,001,0,fr,2022-04-27_11h27.59.736,3-AFC_adaptive_staircase_mess,2022.1.1,None,
,,,,,10,0,10,0,2,0,2,0,,,,,,,,,,,,,,,,left,125,30,0.02285440948074376,-1,0,-1,-10,1153.222950810002,1153.443489199999,1153.1661249000172,1153.4712784000149,None,None,None,None,left,1,0.8805297000217251,1153.2238868999993,None,None,None,gtyzck,001,0,fr,2022-04-27_11h27.59.736,3-AFC_adaptive_staircase_mess,2022.1.1,None,
,,,,,10,0,10,0,3,0,3,0,,,,,,,,,,,,,,,,left,125,20,0.00722719885372964,-1,0,-1,-10,1155.6343367100228,1155.8484679000103,1155.5774737000174,1155.9031114000245,1156.6039878000156,1156.9267727000115,1157.5948581999983,1157.9231874000106,up,0,2.805985699989833,1155.6352332000097,None,1158.1503908000013,None,gtyzck,001,0,fr,2022-04-27_11h27.59.736,3-AFC_adaptive_staircase_mess,2022.1.1,None,
,,,,,10,0,10,0,4,0,4,0,,,,,,,,,,,,,,,,right,125,25,0.012851978913844325,1,1,1,5,1162.0024481100147,1162.2169310000027,1159.9413777000154,1160.269809600024,1160.9490280000027,1161.2545363000245,1161.9464632000017,1162.2717392000195,left,0,2.8727386000100523,1159.9991688000155,None,1162.4863429000252,None,gtyzck,001,0,fr,2022-04-27_11h27.59.736,3-AFC_adaptive_staircase_mess,2022.1.1,None,
,,,,,10,0,10,0,5,0,5,0,,,,,,,,,,,,,,,,left,125,30,0.02285440948074376,1,1,1,5,1164.4297994100082,1164.6510080000153,1164.3695961000049,1164.6780025000044,1165.3679574000125,1165.691593800002,1166.3917729000095,1166.7118014000007,left,1,2.9833804999943823,1164.4340501000115,None,1166.9164689000172,None,gtyzck,001,0,fr,2022-04-27_11h27.59.736,3-AFC_adaptive_staircase_mess,2022.1.1,None,
,,,,,10,0,10,0,6,0,6,0,,,,,,,,,,,,,,,,up,125,20,0.00722719885372964,-1,2,-1,-10,1169.988310110016,1170.1967691000027,1168.9139147000096,1169.2397028999985,1169.9283190999995,1170.2507801000029,1170.9136652000016,1171.228082000016,right,0,3.0526436000072863,1168.9721879000135,None,1171.4718509000086,None,gtyzck,001,0,fr,2022-04-27_11h27.59.736,3-AFC_adaptive_staircase_mess,2022.1.1,None,
,,,,,10,0,10,0,7,0,7,0,,,,,,,,,,,,,,,,up,125,25,0.012851978913844325,1,3,1,2.5,1174.5596013100178,1174.7783171000192,1173.5161330999981,1173.8381361000065,1174.5317073000188,1174.8334164000116,1175.5257140000176,1175.8466523000097,right,0,2.3690559999959078,1173.5755323000194,None,None,None,gtyzck,001,0,fr,2022-04-27_11h27.59.736,3-AFC_adaptive_staircase_mess,2022.1.1,None,
,,,,,10,0,10,0,8,0,8,0,,,,,,,,,,,,,,,,right,125,27.5,0.017138389327322524,1,3,1,2.5,1179.487733610021,1179.705465200008,1177.421596900007,1177.733656700002,1178.4390718000068,1178.7644274000195,1179.4304848000174,1179.7329958000046,right,1,2.8474923000030685,1177.4820215000072,None,1179.994030700007,None,gtyzck,001,0,fr,2022-04-27_11h27.59.736,3-AFC_adaptive_staircase_mess,2022.1.1,None,
,,,,,10,0,10,0,9,0,9,0,,,,,,,,,,,,,,,,up,125,22.5,0.009637624565954683,-1,4,-1,-5.0,1182.9001126100077,1183.1151832000178,1181.8519100999983,1182.1752677000186,1182.8402330000245,1183.141208200017,1183.835783800023,1184.155212600017,up,1,2.7446916999761015,1181.8713587000093,None,1184.3890141000156,None,gtyzck,001,0,fr,2022-04-27_11h27.59.736,3-AFC_adaptive_staircase_mess,2022.1.1,None,
,,,,,10,0,10,0,10,0,10,0,,,,,,,,,,,,,,,,left,125,17.5,0.005419634570106019,-1,4,-1,-5.0,1186.1457942100126,1186.3645870000182,1186.1179002000135,1186.446367000026,1187.1123351000133,1187.434015100007,1188.1001097999979,1188.4254848000128,left,1,2.981589700008044,1186.1458322000108,None,1188.6618541000062,None,gtyzck,001,0,fr,2022-04-27_11h27.59.736,3-AFC_adaptive_staircase_mess,2022.1.1,None,
,,,,,10,0,10,0,11,0,11,0,,,,,,,,,,,,,,,,up,125,12.5,0.0030476844862008467,-1,4,-1,-5.0,1191.6716983100225,1191.8832400000247,1190.5993029000238,1190.923683800007,1191.6158307000005,1191.9379985000123,1192.6060192000004,1192.9083965000173,left,0,2.9654268999875057,1190.6591243000003,None,1193.1677330000093,None,gtyzck,001,0,fr,2022-04-27_11h27.59.736,3-AFC_adaptive_staircase_mess,2022.1.1,None,
,,,,,10,0,10,0,12,0,12,0,,,,,,,,,,,,,,,,up,125,15.0,0.004064152580820497,1,5,1,2.5,1196.1727883099986,1196.3850414000044,1195.1113734000246,1195.432009400014,1196.114822100004,1196.4412392000086,1197.1051562000066,1197.4327805000066,right,0,2.472656800004188,1195.1680188000028,None,1197.6651275000186,None,gtyzck,001,0,fr,2022-04-27_11h27.59.736,3-AFC_adaptive_staircase_mess,2022.1.1,None,
,,,,,10,0,10,0,13,0,13,0,,,,,,,,,,,,,,,,left,125,17.5,0.005419634570106019,1,5,1,2.5,1199.177199910005,1199.3957638000138,1199.1493059000059,1199.47725180001,1200.1438004000229,1200.4737385000044,1201.1385925000068,1201.4630085000244,left,1,2.974741100013489,1199.1788079000253,None,1201.6961038000009,None,gtyzck,001,0,fr,2022-04-27_11h27.59.736,3-AFC_adaptive_staircase_mess,2022.1.1,None,
,,,,,10,0,10,0,14,0,14,0,,,,,,,,,,,,,,,,right,125,12.5,0.0030476844862008467,-1,6,-1,-5.0,1205.7046658100037,1205.9198687000026,1203.6610817000037,1203.983982500009,1204.6478015000175,1204.9546054000093,1205.647668700025,1205.9514481000078,up,0,3.2357883999939077,1203.717304300022,None,1206.2132065000187,None,gtyzck,001,0,fr,2022-04-27_11h27.59.736,3-AFC_adaptive_staircase_mess,2022.1.1,None,
