sweeps.thisRepN,sweeps.thisTrialN,sweeps.thisN,sweeps.thisIndex,trials.thisRepN,trials.thisTrialN,trials.thisN,trials.thisIndex,instructions.started,instructions.stopped,blank_text.started,blank_text.stopped,Intervals,text.started,text.stopped,Delay,Prediction,Frequency,Volume,Psychopy_level,isCatchTrial,len(y),finished_audiograms,probe.started,probe.stopped,feedback.keys,feedback.started,feedback.stopped,ISI.started,ISI.stopped,text_2.started,text_2.stopped,feedback.rt,break_txt.started,break_txt.stopped,,Audiogram_both,Audiogram_time,Audiogram_frequency,Audiogram_none,end_txt.started,end_txt.stopped,participant,session,language (english or french),Resume previous experiment,date,expName,psychopyVersion,frameRate,
0,0,0,0,0,0,0,0,19.212818500003777,None,53.572627300047316,None,"[0.5833333333333334, 0.3333333333333333, 0.5833333333333334, 0.5833333333333334, 0.5833333333333334, 0.5833333333333334, 0.3333333333333333, 0.3333333333333333, 0.16666666666666666, 0.3333333333333333, 0.16666666666666666, 0.3333333333333333, 0.16666666666666666, 0.3333333333333333, 0.16666666666666666]",56.87920650001615,None,1.3315727202736014,time,501.0,0.8870150638428121,7.895350843721583e-05,0,28,[],0.022796769975684583,None,None,57.90773810003884,None,0.21636206994298846,1.5479347902165899,58.11423930001911,None,,,,,,,,,,,hoavur,001,fr,0,2022-05-04_15h53.14.005,Continuous,2022.1.1,None,
0,0,0,0,1,0,1,0,,,,,,,,1.3315727202736014,time,132.0,3.2151841486519395,0.0009562388539262816,0,29,[],0.01638787006959319,None,['space'],59.472125399974175,59.472125399974175,0.21495387004688382,1.5465265903204852,59.690980699961074,59.472125399974175,[-1.1209398999344558],,,,,,,,,,hoavur,001,fr,0,2022-05-04_15h53.14.005,Continuous,2022.1.1,None,
0,0,0,0,2,0,2,0,,,,,,,,1.3315727202736014,time,446.0,1.975620253959961,9.3155365880486e-05,0,30,[],0.022900670068338513,None,None,61.05259470001329,61.05259470001329,0.2384274700889364,1.5700001903625378,61.270361199975014,61.05259470001329,,,,,,,,,,,hoavur,001,fr,0,2022-05-04_15h53.14.005,Continuous,2022.1.1,None,
0,0,0,0,3,0,3,0,,,,,,,,1.3315727202736014,time,250.0,-0.49799860997199463,0.00015815031957651068,0,31,[],0.015522570116445422,None,['space'],62.627948399982415,62.627948399982415,0.23704037012066692,1.5686130903942683,62.85797440004535,62.627948399982415,[-0.9645531000569463],,,,,,,,,,hoavur,001,fr,0,2022-05-04_15h53.14.005,Continuous,2022.1.1,None,
0,0,0,0,4,0,4,0,,,,,,,,1.3315727202736014,time,1001.0,1.4001148313843563,5.1806935826103545e-05,0,32,[],0.016747570014558733,None,['space'],64.21180419996381,64.21180419996381,0.22539457003585994,1.5569672903094613,64.43345030001365,64.21180419996381,[-0.9805170999607071],,,,,,,,,,hoavur,001,fr,0,2022-05-04_15h53.14.005,Continuous,2022.1.1,None,
0,0,0,0,5,0,5,0,,,,,,,,1.3315727202736014,time,354.0,2.0,0.00011141034968120162,0,33,[],0.02300327003467828,None,['space'],65.7912798000034,65.7912798000034,0.23245997005142272,1.5640326903250241,66.01106000004802,65.7912798000034,[-0.8624437999678776],,,,,,,,,,hoavur,001,fr,0,2022-05-04_15h53.14.005,Continuous,2022.1.1,None,
0,0,0,0,6,0,6,0,,,,,,,,1.3315727202736014,time,708.0,0.5584779563691946,4.726818323783117e-05,0,34,[],0.020472969976253808,None,['space'],67.35909499996342,67.35909499996342,0.21935377002228051,1.550926490295882,67.58254109998234,67.35909499996342,[-1.1834728000685573],,,,,,,,,,hoavur,001,fr,0,2022-05-04_15h53.14.005,Continuous,2022.1.1,None,
0,0,0,0,7,0,7,0,,,,,,,,1.3315727202736014,time,631.0,1.1356837296222262,5.821155507446757e-05,0,35,[],0.01350006996653974,None,['space'],68.9364430999849,68.9364430999849,0.22067596996203065,1.552248690235632,69.15538740006741,68.9364430999849,[-1.1443614999298006],,,,,,,,,,hoavur,001,fr,0,2022-05-04_15h53.14.005,Continuous,2022.1.1,None,
0,0,0,0,8,0,8,0,,,,,,,,1.3315727202736014,time,198.0,0.8263899466459239,0.0002999482430878675,0,36,[],0.022973670158535242,None,['space'],70.51267490000464,70.51267490000464,0.2302990701282397,1.561871790401841,70.72445360000711,70.51267490000464,[-1.2643425000132993],,,,,,,,,,hoavur,001,fr,0,2022-05-04_15h53.14.005,Continuous,2022.1.1,None,
0,0,0,0,9,0,9,0,,,,,,,,1.3315727202736014,time,,,,1,36,[],0.02293247007764876,None,['space'],72.08287939999718,72.08287939999718,0.24596027005463839,1.5775329903282398,72.3066276999889,72.08287939999718,[-1.2824718001065776],,,,,,,,,,hoavur,001,fr,0,2022-05-04_15h53.14.005,Continuous,2022.1.1,None,
0,0,0,0,10,0,10,0,,,,,,,,1.3315727202736014,time,892.0,0.8297865352789688,4.509120554882111e-05,0,37,[],0.024275270057842135,None,['space'],73.65756630001124,73.65756630001124,0.2388675700640306,1.570440290337632,73.87930889998097,73.65756630001124,[-1.208973899949342],,,,,,,,,,hoavur,001,fr,0,2022-05-04_15h53.14.005,Continuous,2022.1.1,None,
0,0,0,0,11,0,11,0,,,,,,,,1.3315727202736014,time,315.0,-0.14096805634907383,9.70334787399334e-05,0,38,[],0.022390069905668497,None,['space'],75.23556880000979,75.23556880000979,0.23145676997955889,1.5630294902531603,75.44406460004393,75.23556880000979,[-1.2202595999697223],,,,,,,,,,hoavur,001,fr,0,2022-05-04_15h53.14.005,Continuous,2022.1.1,None,
1,0,1,0,0,0,0,0,,,,,,88.95503319997806,None,2.248340773883106,frequency,708.0,1.7821150891141184,5.4419026328319315e-05,0,28,[],0.0239265700802207,None,None,89.97565300005954,None,0.21774757013190538,2.466088344015011,90.18021330004558,None,,76.79729240003508,None,0.16666666666666666,,,,,,,hoavur,001,fr,0,2022-05-04_15h53.14.005,Continuous,2022.1.1,None,
1,0,1,0,1,0,1,0,,,,,,,,2.141662226585507,frequency,631.0,0.6018355261656468,5.47415122931247e-05,0,29,[],0.02213806996587664,None,None,92.45651769998949,92.45651769998949,0.22814687003847212,2.369809096623979,92.68424800003413,92.45651769998949,,,,,,,,,,,hoavur,001,fr,0,2022-05-04_15h53.14.005,Continuous,2022.1.1,None,
1,0,1,0,2,0,2,0,,,,,,,,2.37640519264676,frequency,562.0,0.09119037700864777,6.242462274723426e-05,0,30,[],0.015692570130340755,None,['space'],94.84296769998036,94.84296769998036,0.22336917009670287,2.599774362743463,95.0646975999698,94.84296769998036,[-1.9796396000310779],,,,,,,,,,hoavur,001,fr,0,2022-05-04_15h53.14.005,Continuous,2022.1.1,None,
1,0,1,0,3,0,3,0,,,,,,,,1.8413489864705648,frequency,501.0,0.6651720422831388,7.696252050889216e-05,0,31,[],0.022222970030270517,None,['space'],97.46254219999537,97.46254219999537,0.22898347000591457,2.0703324564764793,97.68891100003384,97.46254219999537,[-2.2793217999860644],,,,,,,,,,hoavur,001,fr,0,2022-05-04_15h53.14.005,Continuous,2022.1.1,None,
1,0,1,0,4,0,4,0,,,,,,,,2.0537859247528205,frequency,446.0,0.453784097515887,7.818367277643755e-05,0,32,[],0.015867369947955012,None,['space'],99.54865829995833,99.54865829995833,0.21756766992621124,2.2713535946790318,99.7647614000598,99.54865829995833,[-1.7892405999591574],,,,,,,,,,hoavur,001,fr,0,2022-05-04_15h53.14.005,Continuous,2022.1.1,None,
1,0,1,0,5,0,5,0,,,,,,,,1.3899371686918018,frequency,397.0,1.492739328592406,9.183388302407194e-05,0,33,[],0.021936170058324933,None,['space'],101.85789730004035,101.85789730004035,0.23672237002756447,1.6266595387193663,102.07354849996045,101.85789730004035,[-2.0339422000106424],,,,,,,,,,hoavur,001,fr,0,2022-05-04_15h53.14.005,Continuous,2022.1.1,None,
1,0,1,0,6,0,6,0,,,,,,,,1.4616806904059723,frequency,354.0,2.0,0.00011141034968120162,0,34,[],0.02285377006046474,None,['space'],103.50072270003147,103.50072270003147,0.22122597007546574,1.682906660481438,103.69971610000357,103.50072270003147,[-1.2769511000951752],,,,,,,,,,hoavur,001,fr,0,2022-05-04_15h53.14.005,Continuous,2022.1.1,None,
1,0,1,0,7,0,7,0,,,,,,,,1.3977937679628663,frequency,315.0,-0.5749569005665656,9.230434807247964e-05,0,35,[],0.022370370104908943,None,['space'],105.18799590005074,105.18799590005074,0.2306436700746417,1.628437438037508,105.40568580001127,105.18799590005074,[-1.332765500061214],,,,,,,,,,hoavur,001,fr,0,2022-05-04_15h53.14.005,Continuous,2022.1.1,None,
1,0,1,0,8,0,8,0,,,,,,,,2.2511532821673583,frequency,281.0,0.3756448855984904,0.00014059170803015753,0,36,[],0.02271757007110864,None,['space'],106.83231289999094,106.83231289999094,0.2312534700613469,2.482406752228705,107.05421630002093,106.83231289999094,[-1.3451250999933109],,,,,,,,,,hoavur,001,fr,0,2022-05-04_15h53.14.005,Continuous,2022.1.1,None,
1,0,1,0,9,0,9,0,,,,,,,,2.6658469211634435,frequency,250.0,-2.1375246284969642,0.0001309464632221016,0,37,[],0.022553570102900267,None,"['space', 'space']",109.32625739998184,109.32625739998184,0.2330347701208666,2.89888169128431,109.53749809996225,109.32625739998184,"[-2.2064105999888852, -0.41516759991645813]",,,,,,,,,,hoavur,001,fr,0,2022-05-04_15h53.14.005,Continuous,2022.1.1,None,
1,0,1,0,10,0,10,0,,,,,,,,2.7529488687499546,frequency,223.0,0.06676033915647706,0.00022208123945414423,0,38,[],0.022464670008048415,None,None,112.23595620004926,112.23595620004926,0.2169932700926438,2.9699421388425984,112.44703010004014,112.23595620004926,,,,,,,,,,,hoavur,001,fr,0,2022-05-04_15h53.14.005,Continuous,2022.1.1,None,
1,0,1,0,11,0,11,0,,,,,,,,2.2595161677726034,frequency,199.0,1.1555748800354915,0.00030737386723518986,0,39,[],0.015956470044329762,None,['space'],115.22993250004947,115.22993250004947,0.22010427003260702,2.4796204378052105,115.44483960000798,115.22993250004947,[-2.685464799986221],,,,,,,,,,hoavur,001,fr,0,2022-05-04_15h53.14.005,Continuous,2022.1.1,None,
1,0,1,0,12,0,12,0,,,,,,,,1.4860761941263014,frequency,,,,1,39,[],0.022449970128946006,None,['space'],117.73454219999257,117.73454219999257,0.23606677004136145,1.7221429641676629,117.95277049997821,117.73454219999257,[-2.0071729000192136],,,,,,,,,,hoavur,001,fr,0,2022-05-04_15h53.14.005,Continuous,2022.1.1,None,
1,0,1,0,13,0,13,0,,,,,,,,1.8428488865990682,frequency,158.0,2.0123845998729757,0.0005407575247176029,0,40,[],0.023670869879424572,None,None,119.46673450001981,119.46673450001981,0.21257366996724159,2.0554225565663096,119.66452360001858,119.46673450001981,,,,,,,,,,,hoavur,001,fr,0,2022-05-04_15h53.14.005,Continuous,2022.1.1,None,
1,0,1,0,14,0,14,0,,,,,,,,2.939641185858749,frequency,141.0,3.2335701757904594,0.0008420002902355317,0,41,[],0.02222107001580298,None,None,121.5386832000222,121.5386832000222,0.23079487006179988,3.1704360559205487,121.75598060002085,121.5386832000222,,,,,,,,,,,hoavur,001,fr,0,2022-05-04_15h53.14.005,Continuous,2022.1.1,None,
2,0,2,0,0,0,0,0,,,,,"[0.16666666666666666, 0.3333333333333333, 0.16666666666666666, 0.5833333333333334, 0.5833333333333334, 0.5833333333333334, 0.5833333333333334, 0.5833333333333334, 0.16666666666666666, 0.3333333333333333, 0.5833333333333334, 0.5833333333333334, 0.5833333333333334, 0.16666666666666666, 0.16666666666666666]",129.18386610003654,None,2.2289960575828798,time,4757.0,1.435436207262835,0.0001604702323513085,0,39,[],0.0241912700003013,None,None,130.21855089999735,None,0.22337887005414814,2.452374927637028,130.42524120002054,None,,124.72467210004106,None,,,,,,,,hoavur,001,fr,0,2022-05-04_15h53.14.005,Continuous,2022.1.1,None,
2,0,2,0,1,0,1,0,,,,,,,,2.2289960575828798,time,8000.0,1.0,0.0002036901389020564,0,40,[],0.015787070035003126,None,['space'],132.68223549996037,132.68223549996037,0.2152418700279668,2.4442379276108466,132.89545339997858,132.68223549996037,[-1.3385266000404954],,,,,,,,,,hoavur,001,fr,0,2022-05-04_15h53.14.005,Continuous,2022.1.1,None,
2,0,2,0,2,0,2,0,,,,,,,,2.2289960575828798,time,1414.0,1.840219307538714,6.233984828344853e-05,0,41,[],0.022190170013345778,None,None,135.15416869998444,135.15416869998444,0.23484247003216296,2.4638385276150427,135.37036810000427,135.15416869998444,,,,,,,,,,,hoavur,001,fr,0,2022-05-04_15h53.14.005,Continuous,2022.1.1,None,
2,0,2,0,3,0,3,0,,,,,,,,2.2289960575828798,time,841.0,0.5446512185264281,4.209169353527789e-05,0,42,[],0.022189269890077412,None,['space'],137.6233438999625,137.6233438999625,0.23039536993019283,2.4593914275130726,137.83396790002007,137.6233438999625,[-2.071282900054939],,,,,,,,,,hoavur,001,fr,0,2022-05-04_15h53.14.005,Continuous,2022.1.1,None,
2,0,2,0,4,0,4,0,,,,,,,,2.2289960575828798,time,3175.0,10.877197126948655,0.00024298672171919265,0,43,[],0.022081270115450025,None,None,140.09562230005395,140.09562230005395,0.23570567008573562,2.4647017276686154,140.31226859998424,140.09562230005395,,,,,,,,,,,hoavur,001,fr,0,2022-05-04_15h53.14.005,Continuous,2022.1.1,None,
2,0,2,0,5,0,5,0,,,,,,,,2.2289960575828798,time,668.0,0.6422352395990283,5.1503088358942184e-05,0,44,[],0.022107370081357658,None,['space'],142.56352279998828,142.56352279998828,0.23369107011239976,2.4626871276952795,142.77895669999998,142.56352279998828,[-2.1800185999600217],,,,,,,,,,hoavur,001,fr,0,2022-05-04_15h53.14.005,Continuous,2022.1.1,None,
2,0,2,0,6,0,6,0,,,,,,,,2.2289960575828798,time,7127.0,0.8249944469037894,0.00017052780551409053,0,45,[],0.021923770080320537,None,['space'],145.03083020006306,145.03083020006306,0.2317047701217234,2.460700827704603,145.24779269995634,145.03083020006306,[-1.2073743999935687],,,,,,,,,,hoavur,001,fr,0,2022-05-04_15h53.14.005,Continuous,2022.1.1,None,
2,0,2,0,7,0,7,0,,,,,,,,2.2289960575828798,time,,,,1,45,[],0.021728469990193844,None,['space'],147.50297060003504,147.50297060003504,0.2421401699539274,2.471136227536807,147.72586280002724,147.50297060003504,[-1.935422399896197],,,,,,,,,,hoavur,001,fr,0,2022-05-04_15h53.14.005,Continuous,2022.1.1,None,
2,0,2,0,8,0,8,0,,,,,,,,2.2289960575828798,time,944.0,0.29532698053767925,4.392934510176659e-05,0,46,[],0.02322946989443153,None,None,149.97632000001613,149.97632000001613,0.23537326988298446,2.4643693274658642,150.1899331000168,149.97632000001613,,,,,,,,,,,hoavur,001,fr,0,2022-05-04_15h53.14.005,Continuous,2022.1.1,None,
3,0,3,0,0,0,0,0,,,,,"[0.3333333333333333, 0.3333333333333333, 0.16666666666666666, 0.16666666666666666, 0.16666666666666666, 0.5833333333333334, 0.16666666666666666, 0.3333333333333333, 0.5833333333333334, 0.16666666666666666, 0.5833333333333334, 0.3333333333333333, 0.5833333333333334, 0.3333333333333333, 0.3333333333333333]",155.88285100006033,None,1.6457164393508867,time,4925.0,8.0,0.0003707183077084133,0,47,[],0.024525770102627575,None,['space'],156.91412500001024,None,0.24847577011678368,1.8941922094676704,157.14022910001222,None,[-0.8662035000743344],152.44078419997822,None,,,,,,,,hoavur,001,fr,0,2022-05-04_15h53.14.005,Continuous,2022.1.1,None,
3,0,3,0,1,0,1,0,,,,,,,,1.6457164393508867,time,2609.0,8.502894014838255,0.0002105915910258299,0,48,[],0.02039877010975033,None,['space'],158.8047003999818,158.8047003999818,0.22484387003351003,1.8705603093843968,159.02770239999518,158.8047003999818,[-1.444930800003931],,,,,,,,,,hoavur,001,fr,0,2022-05-04_15h53.14.005,Continuous,2022.1.1,None,
3,0,3,0,2,0,2,0,,,,,,,,1.6457164393508867,time,1551.0,4.663867550144531,9.000572169669621e-05,0,49,[],0.02156896993983537,None,['space'],160.69928080006503,160.69928080006503,0.23059596994426101,1.8763124092951478,160.92038150003646,160.69928080006503,[-1.4681327000726014],,,,,,,,,,hoavur,001,fr,0,2022-05-04_15h53.14.005,Continuous,2022.1.1,None,
3,0,3,0,3,0,3,0,,,,,,,,1.6457164393508867,time,,,,1,49,[],0.0213573700748384,None,['space'],162.58962430001702,162.58962430001702,0.22796747006941587,1.8736839094203026,162.80706500005908,162.58962430001702,[-1.550323999952525],,,,,,,,,,hoavur,001,fr,0,2022-05-04_15h53.14.005,Continuous,2022.1.1,None,
3,0,3,0,4,0,4,0,,,,,,,,1.6457164393508867,time,1231.0,3.6029351476731177,8.13276774199759e-05,0,50,[],0.02290556998923421,None,None,164.479057700024,164.479057700024,0.2366118700010702,1.882328309351957,164.69035799999256,164.479057700024,,,,,,,,,,,hoavur,001,fr,0,2022-05-04_15h53.14.005,Continuous,2022.1.1,None,
3,0,3,0,5,0,5,0,,,,,,,,1.6457164393508867,time,871.0,7.748191205463491,9.854638004132406e-05,0,51,[],0.020291069988161325,None,['space'],166.3642600000603,166.3642600000603,0.23512666998431087,1.8808431093351976,166.58805769996252,166.3642600000603,[-1.580856499960646],,,,,,,,,,hoavur,001,fr,0,2022-05-04_15h53.14.005,Continuous,2022.1.1,None,
3,0,3,0,6,0,6,0,,,,,,,,1.6457164393508867,time,1382.0,7.798574773516572,0.00012573925217794832,0,52,[],0.021395370131358504,None,['space'],168.25813520001248,168.25813520001248,0.22780737013090402,1.8735238094817908,168.47313729999587,168.25813520001248,[-1.5704504000023007],,,,,,,,,,hoavur,001,fr,0,2022-05-04_15h53.14.005,Continuous,2022.1.1,None,
3,0,3,0,7,0,7,0,,,,,,,,1.6457164393508867,time,3287.0,9.82360007037072,0.00022132217747605556,0,53,[],0.01756116992328316,None,['space'],170.15283130004536,170.15283130004536,0.22441266989335418,1.870129109244241,170.36593209998682,170.15283130004536,[-1.5929297000402585],,,,,,,,,,hoavur,001,fr,0,2022-05-04_15h53.14.005,Continuous,2022.1.1,None,
3,0,3,0,8,0,8,0,,,,,,,,1.6457164393508867,time,1097.0,5.31353887209062,8.869708837988729e-05,0,54,[],0.013435569941066206,None,['space'],172.04087569995318,172.04087569995318,0.2153384699486196,1.8610549092995063,172.25662900006864,172.04087569995318,[-1.6258349000709131],,,,,,,,,,hoavur,001,fr,0,2022-05-04_15h53.14.005,Continuous,2022.1.1,None,
3,0,3,0,9,0,9,0,,,,,,,,1.6457164393508867,time,5528.0,4.552375760693993,0.00022509644838030797,0,55,[],0.020914670079946518,None,['space'],173.93372820003424,173.93372820003424,0.2375493700383231,1.8832658093892098,174.1521086000139,173.93372820003424,[-1.5822671999922022],,,,,,,,,,hoavur,001,fr,0,2022-05-04_15h53.14.005,Continuous,2022.1.1,None,
4,0,4,0,0,0,0,0,,,,,,177.8908431000309,None,1.1647343287182832,frequency,8000.0,0.0,0.0001815390273850507,0,42,[],0.024023670004680753,None,['space'],178.89990530000068,None,0.24263867002446204,1.4073729987427452,179.12646429997403,None,[-1.1885055000893772],175.8174796999665,None,0.5833333333333334,,,,,,,hoavur,001,fr,0,2022-05-04_15h53.14.005,Continuous,2022.1.1,None,
4,0,4,0,1,0,1,0,,,,,,,,1.744162200695984,frequency,5339.0,0.478948000272031,0.0001481954027586962,0,43,[],0.020135870086960495,None,None,180.31078269996215,180.31078269996215,0.22715917008463293,1.971321370780617,180.5282599000493,180.31078269996215,,,,,,,,,,,hoavur,001,fr,0,2022-05-04_15h53.14.005,Continuous,2022.1.1,None,
4,0,4,0,2,0,2,0,,,,,,,,1.19657457152744,frequency,3563.0,2.1282059333608885,9.744480214706853e-05,0,44,[],0.020911870058625937,None,['space'],182.29742750001606,182.29742750001606,0.23146597004961222,1.4280405415770523,182.51863119995687,182.29742750001606,[-1.4341081000166014],,,,,,,,,,hoavur,001,fr,0,2022-05-04_15h53.14.005,Continuous,2022.1.1,None,
4,0,4,0,3,0,3,0,,,,,,,,2.4432750317381773,frequency,2378.0,0.7756043532248222,9.096129302930694e-05,0,45,[],0.015337870107032359,None,None,183.74966740002856,183.74966740002856,0.2058545700274408,2.649129601765618,183.95595890004188,183.74966740002856,,,,,,,,,,,hoavur,001,fr,0,2022-05-04_15h53.14.005,Continuous,2022.1.1,None,
4,0,4,0,4,0,4,0,,,,,,,,2.0827577668724935,frequency,1587.0,0.8242936279541553,6.119244529960275e-05,0,46,[],0.013295370154082775,None,None,186.42670039995573,186.42670039995573,0.2150013701757416,2.297759137048235,186.64251410006545,186.42670039995573,,,,,,,,,,,hoavur,001,fr,0,2022-05-04_15h53.14.005,Continuous,2022.1.1,None,
4,0,4,0,5,0,5,0,,,,,,,,1.707123655722369,frequency,1059.0,0.0,4.6520243959050635e-05,0,47,[],0.01893807004671544,None,None,188.7529913999606,188.7529913999606,0.21943846996873617,1.9265621256911052,188.9771880999906,188.7529913999606,,,,,,,,,,,hoavur,001,fr,0,2022-05-04_15h53.14.005,Continuous,2022.1.1,None,
4,0,4,0,6,0,6,0,,,,,,,,2.758219462099842,frequency,,,,1,47,[],0.021182370139285922,None,None,190.71647800004575,190.71647800004575,0.23524207016453147,2.9934615322643734,190.93712390004657,190.71647800004575,,,,,,,,,,,hoavur,001,fr,0,2022-05-04_15h53.14.005,Continuous,2022.1.1,None,
4,0,4,0,7,0,7,0,,,,,,,,2.512895410517727,frequency,472.0,0.2718695554426225,7.519249071289464e-05,0,48,[],0.022420670022256672,None,None,193.7171882999828,193.7171882999828,0.233434270019643,2.74632968053737,193.93579869996756,193.7171882999828,,,,,,,,,,,hoavur,001,fr,0,2022-05-04_15h53.14.005,Continuous,2022.1.1,None,
4,0,4,0,8,0,8,0,,,,,,,,2.8222243412646124,frequency,315.0,-0.25311162254155795,9.578873175073098e-05,0,49,[],0.02105067006777972,None,['space'],196.47419670003,196.47419670003,0.22952317004092038,3.051747511305533,196.70297230000142,196.47419670003,[-2.331089699990116],,,,,,,,,,hoavur,001,fr,0,2022-05-04_15h53.14.005,Continuous,2022.1.1,None,
5,0,5,0,0,0,0,0,,,,,,201.8147622999968,None,2.073685108797316,both,708.0,-0.29714591757947323,4.283390969425341e-05,0,28,[],0.024312069988809526,None,None,202.82946539996192,None,0.24164827005006373,2.3153333788473796,203.04957340005785,None,,199.54324649996124,None,0.16666666666666666,,,,,,,hoavur,001,fr,0,2022-05-04_15h53.14.005,Continuous,2022.1.1,None,
5,0,5,0,1,0,1,0,,,,,,,,2.073685108797316,both,631.0,0.7283880153941042,5.554492894657038e-05,0,29,[],0.013087369967252016,None,None,205.14643710001837,205.14643710001837,0.21457726997323334,2.288262378770549,205.365354700014,205.14643710001837,,,,,,,,,,,hoavur,001,fr,0,2022-05-04_15h53.14.005,Continuous,2022.1.1,None,
5,0,5,0,2,0,2,0,,,,,,,,2.073685108797316,both,562.0,1.727347353868038,7.536397126155282e-05,0,30,[],0.020030169980600476,0.21186577004846185,['space'],207.46952939999755,207.46952939999755,0.21186577004846185,2.2855508788457777,207.66940590005834,207.46952939999755,[-1.9018293999833986],,,,,,,,,,hoavur,001,fr,0,2022-05-04_15h53.14.005,Continuous,2022.1.1,None,
5,0,5,0,3,0,3,0,,,,,,,,2.073685108797316,both,501.0,0.9354381119214613,7.939489630168854e-05,0,31,[],0.012076570186764002,None,['space'],209.77790139999706,209.77790139999706,0.2143171700881794,2.2880022788854952,210.0003466999624,209.77790139999706,[-1.9541972000151873],,,,,,,,,,hoavur,001,fr,0,2022-05-04_15h53.14.005,Continuous,2022.1.1,None,
5,0,5,0,4,0,4,0,,,,,,,,2.073685108797316,both,,,,1,31,[],0.020436170045286417,None,['space'],212.10443289997056,212.10443289997056,0.22942027007229626,2.303105378869612,212.31681180000305,212.10443289997056,[-1.9932825999567285],,,,,,,,,,hoavur,001,fr,0,2022-05-04_15h53.14.005,Continuous,2022.1.1,None,
5,0,5,0,5,0,5,0,,,,,,,,2.073685108797316,both,397.0,1.1975859663382789,8.876571996585605e-05,0,32,[],0.021784869953989983,None,None,214.41826920001768,214.41826920001768,0.2282598699675873,2.301944978764903,214.63974110002164,214.41826920001768,,,,,,,,,,,hoavur,001,fr,0,2022-05-04_15h53.14.005,Continuous,2022.1.1,None,
5,0,5,0,6,0,6,0,,,,,,,,2.073685108797316,both,354.0,2.0,0.00011141034968120162,0,33,[],0.020454470068216324,None,['space'],216.74280929996166,216.74280929996166,0.2319820700213313,2.305667178818647,216.9578556000488,216.74280929996166,[-1.926436600042507],,,,,,,,,,hoavur,001,fr,0,2022-05-04_15h53.14.005,Continuous,2022.1.1,None,
5,0,5,0,7,0,7,0,,,,,,,,2.073685108797316,both,315.0,0.6038525375952539,0.00010572133321129037,0,34,[],0.01720747002400458,None,['space'],219.05584950000048,219.05584950000048,0.23107777000404894,2.3047628788013648,219.27295999997295,219.05584950000048,[-1.9688883000053465],,,,,,,,,,hoavur,001,fr,0,2022-05-04_15h53.14.005,Continuous,2022.1.1,None,
5,0,5,0,8,0,8,0,,,,,,,,2.073685108797316,both,281.0,-2.0312295968523615,0.00010656534199116832,0,35,[],0.016153369913809,None,['space'],221.3737938000122,221.3737938000122,0.21850136993452907,2.292186478731845,221.59208880004007,221.3737938000122,[-1.949902500025928],,,,,,,,,,hoavur,001,fr,0,2022-05-04_15h53.14.005,Continuous,2022.1.1,None,
5,0,5,0,9,0,9,0,,,,,,,,2.073685108797316,both,250.0,1.2159941436933313,0.00019265030970432528,0,36,[],0.01670326991006732,None,['space'],223.69199880002998,223.69199880002998,0.22125586995389313,2.294940978751209,223.9142783000134,223.69199880002998,[-1.9323164999950677],,,,,,,,,,hoavur,001,fr,0,2022-05-04_15h53.14.005,Continuous,2022.1.1,None,
5,0,5,0,10,0,10,0,,,,,,,,2.073685108797316,both,223.0,1.1344027734290152,0.0002511273387313656,0,37,[],0.014156969962641597,None,['space'],226.01668230001815,226.01668230001815,0.21516217000316828,2.288847278800484,226.23065419995692,226.01668230001815,[-2.016957000014372],,,,,,,,,,hoavur,001,fr,0,2022-05-04_15h53.14.005,Continuous,2022.1.1,None,
5,0,5,0,11,0,11,0,,,,,,,,2.073685108797316,both,199.0,1.3491406800523975,0.0003143006153124947,0,38,[],0.015600769896991551,None,['space'],228.33132540003862,228.33132540003862,0.21937566995620728,2.293060778753523,228.55095970002003,228.33132540003862,[-2.0118409000569955],,,,,,,,,,hoavur,001,fr,0,2022-05-04_15h53.14.005,Continuous,2022.1.1,None,
5,0,5,0,12,0,12,0,,,,,,,,2.073685108797316,both,177.0,1.35658262970052,0.0004082375515139479,0,39,[],0.015829070121981204,None,['space'],230.64984880003612,230.64984880003612,0.22027097013778985,2.2939560789351057,230.86476989998482,230.64984880003612,[-2.0099390000104904],,,,,,,,,,hoavur,001,fr,0,2022-05-04_15h53.14.005,Continuous,2022.1.1,None,
5,0,5,0,13,0,13,0,,,,,,,,2.073685108797316,both,158.0,2.0741651027752415,0.0005446175054043857,0,40,[],0.015237470041029155,None,['space'],232.97015189996455,232.97015189996455,0.21396017004735768,2.2876452788446735,233.19026299996767,232.97015189996455,[-1.946999500039965],,,,,,,,,,hoavur,001,fr,0,2022-05-04_15h53.14.005,Continuous,2022.1.1,None,
5,0,5,0,14,0,14,0,,,,,,,,2.073685108797316,both,141.0,3.211754132882687,0.0008398881214195295,0,41,[],0.01239057001657784,None,['space'],235.29560900002252,235.29560900002252,0.2206221700180322,2.294307278815348,235.5139288000064,235.29560900002252,[-1.9366477000294253],,,,,,,,,,hoavur,001,fr,0,2022-05-04_15h53.14.005,Continuous,2022.1.1,None,
6,0,6,0,0,0,0,0,,,,,,240.48959500005003,None,1.8789849805179348,both,8000.0,1.0,0.0002036901389020564,0,42,[],0.02432347007561475,None,None,241.49931029998697,None,0.23231127008330077,2.1112962506012356,241.71422109997366,None,,237.6143648000434,None,0.3333333333333333,,,,,,,hoavur,001,fr,0,2022-05-04_15h53.14.005,Continuous,2022.1.1,None,
6,0,6,0,1,0,1,0,,,,,,,,1.8789849805179348,both,6350.0,0.8765022670174569,0.0001454885420934104,0,43,[],0.01201587007381022,0.19588767003733665,None,243.6201071999967,243.6201071999967,0.19588767003733665,2.0748726505552715,243.81656389997806,243.6201071999967,,,,,,,,,,,hoavur,001,fr,0,2022-05-04_15h53.14.005,Continuous,2022.1.1,None,
6,0,6,0,2,0,2,0,,,,,,,,1.8789849805179348,both,5040.0,1.9727710658247155,0.00018984284735541372,0,44,[],0.019947170047089458,None,['space'],245.7326290999772,245.7326290999772,0.23165257007349283,2.1106375505914277,245.94449609995354,245.7326290999772,[-1.733275800012052],,,,,,,,,,hoavur,001,fr,0,2022-05-04_15h53.14.005,Continuous,2022.1.1,None,
6,0,6,0,3,0,3,0,,,,,,,,1.8789849805179348,both,,,,1,44,[],0.01025546994060278,None,['space'],247.85136440000497,247.85136440000497,0.21220626996364444,2.0911912504815793,248.0724382000044,247.85136440000497,[-1.8830952999414876],,,,,,,,,,hoavur,001,fr,0,2022-05-04_15h53.14.005,Continuous,2022.1.1,None,
6,0,6,0,4,0,4,0,,,,,,,,1.8789849805179348,both,3175.0,4.8403429863922405,0.00012126621842581923,0,45,[],0.021254369989037514,None,None,249.98353630001657,249.98353630001657,0.2301023700274527,2.1090873505453875,250.20308330003172,249.98353630001657,,,,,,,,,,,hoavur,001,fr,0,2022-05-04_15h53.14.005,Continuous,2022.1.1,None,
6,0,6,0,5,0,5,0,,,,,,,,1.8789849805179348,both,2520.0,3.4867907023327636,0.00012646770167960652,0,46,[],0.01834377006161958,None,['space'],252.1062175000552,252.1062175000552,0.23129837005399168,2.1102833505719265,252.32149510004092,252.1062175000552,[-1.8029982999432832],,,,,,,,,,hoavur,001,fr,0,2022-05-04_15h53.14.005,Continuous,2022.1.1,None,
6,0,6,0,6,0,6,0,,,,,,,,1.8789849805179348,both,2000.0,1.5291177335211579,8.921253723167165e-05,0,47,[],0.0155343699734658,None,['space'],254.22656620002817,254.22656620002817,0.2264834699453786,2.1054684504633134,254.4520702000009,254.22656620002817,[-1.7783113999757916],,,,,,,,,,hoavur,001,fr,0,2022-05-04_15h53.14.005,Continuous,2022.1.1,None,
6,0,6,0,7,0,7,0,,,,,,,,1.8789849805179348,both,1587.0,1.6703806469451496,6.74531381365686e-05,0,48,[],0.019724769983440638,None,['space'],256.3573350000661,256.3573350000661,0.22733927005901933,2.106324250576954,256.5744935000548,256.3573350000661,[-1.782128799939528],,,,,,,,,,hoavur,001,fr,0,2022-05-04_15h53.14.005,Continuous,2022.1.1,None,
6,0,6,0,8,0,8,0,,,,,,,,1.8789849805179348,both,1260.0,1.1664382738479433,6.205965629112618e-05,0,49,[],0.019675769959576428,None,None,258.4756635000231,258.4756635000231,0.2261181699577719,2.1051031504757067,258.69365240004845,258.4756635000231,,,,,,,,,,,hoavur,001,fr,0,2022-05-04_15h53.14.005,Continuous,2022.1.1,None,
7,0,7,0,0,0,0,0,,,,,,300.80297900002915,None,2.156614527906191,frequency,7464.0,1.4749089788839915,0.00019588275704626227,0,50,[],0.024023770005442202,0.22030127001926303,['space'],301.81473810004536,None,0.22030127001926303,2.376915797925454,302.0199803999858,None,[-3.4148633000440896],260.5961144999601,None,0.3333333333333333,,,,,,,hoavur,001,fr,0,2022-05-04_15h53.14.005,Continuous,2022.1.1,None,
7,0,7,0,1,0,1,0,,,,,,,,2.792778645191113,frequency,5924.0,9.377888124327837,0.0003493364372675415,0,51,[],0.014151770155876875,None,None,304.1992096999893,304.1992096999893,0.21978907007724047,3.0125677152683537,304.41571199998725,304.1992096999893,,,,,,,,,,,hoavur,001,fr,0,2022-05-04_15h53.14.005,Continuous,2022.1.1,None,
7,0,7,0,2,0,2,0,,,,,,,,1.9464165761042627,frequency,4702.0,10.461029746106522,0.00044098173683637405,0,52,[],0.014999470091424882,None,['space'],307.23205180000514,307.23205180000514,0.21345777006354183,2.1598743461678045,307.45116189995315,307.23205180000514,[-2.6402807999402285],,,,,,,,,,hoavur,001,fr,0,2022-05-04_15h53.14.005,Continuous,2022.1.1,None,
7,0,7,0,3,0,3,0,,,,,,,,2.268928885595991,frequency,3732.0,14.0,0.0003971192192022227,0,53,[],0.008918170002289116,None,['space'],309.43673089996446,309.43673089996446,0.21867266995832324,2.4876015555543143,309.65338499995414,309.43673089996446,[-1.8375432000029832],,,,,,,,,,hoavur,001,fr,0,2022-05-04_15h53.14.005,Continuous,2022.1.1,None,
7,0,7,0,4,0,4,0,,,,,,,,2.716005703023452,frequency,2962.0,13.089660624516391,0.00025808797687040574,0,54,[],0.016368170036002994,0.20403757004532963,['space'],311.9535189999733,311.9535189999733,0.20403757004532963,2.9200432730687815,312.15732800005935,311.9535189999733,[-2.113138100015931],,,,,,,,,,hoavur,001,fr,0,2022-05-04_15h53.14.005,Continuous,2022.1.1,None,
7,0,7,0,5,0,5,0,,,,,,,,2.702265897323257,frequency,2351.0,7.2817913764167645,0.0001909985886148581,0,55,[],0.018880769959650934,None,['space'],314.905510499957,314.905510499957,0.2356397700496018,2.937905667372859,315.12772240000777,314.905510499957,[-2.538359300000593],,,,,,,,,,hoavur,001,fr,0,2022-05-04_15h53.14.005,Continuous,2022.1.1,None,
7,0,7,0,6,0,6,0,,,,,,,,2.5860116107468683,frequency,1866.0,12.28018076913475,0.0002827176401848842,0,56,[],0.018894169945269823,None,['space'],317.85798450000584,317.85798450000584,0.237667870009318,2.8236794807561862,318.07592830003705,317.85798450000584,[-2.5466184000251815],,,,,,,,,,hoavur,001,fr,0,2022-05-04_15h53.14.005,Continuous,2022.1.1,None,
7,0,7,0,7,0,7,0,,,,,,,,2.3078440778178955,frequency,1481.0,6.312207077563565,0.00010087904653631154,0,57,[],0.018779269885271788,None,['space'],320.6933915000409,320.6933915000409,0.23980746988672763,2.547651547704623,320.9116775000002,320.6933915000409,[-2.5015426999889314],,,,,,,,,,hoavur,001,fr,0,2022-05-04_15h53.14.005,Continuous,2022.1.1,None,
7,0,7,0,8,0,8,0,,,,,,,,2.463595336622999,frequency,1175.0,12.707990720705121,0.000221884834027146,0,58,[],0.015400169999338686,None,['space'],323.2474681000458,323.2474681000458,0.22336636995896697,2.686961706581966,323.4686325000366,323.2474681000458,[-2.128247300046496],,,,,,,,,,hoavur,001,fr,0,2022-05-04_15h53.14.005,Continuous,2022.1.1,None,
7,0,7,0,9,0,9,0,,,,,,,,2.223547810572523,frequency,933.0,4.876229892608807,7.389079181099104e-05,0,59,[],0.016999470070004463,None,['space'],325.96809530002065,325.96809530002065,0.2265173700870946,2.4500651806596174,326.18738400004804,325.96809530002065,[-2.3515701999422163],,,,,,,,,,hoavur,001,fr,0,2022-05-04_15h53.14.005,Continuous,2022.1.1,None,
7,0,7,0,10,0,10,0,,,,,,,,2.3473897385176397,frequency,,,,1,59,[],0.01550927001517266,None,None,328.438249800005,328.438249800005,0.22377327003050596,2.5711630085481456,328.65587370004505,328.438249800005,,,,,,,,,,,hoavur,001,fr,0,2022-05-04_15h53.14.005,Continuous,2022.1.1,None,
7,0,7,0,11,0,11,0,,,,,,,,2.052498994409837,frequency,588.0,12.875477392053247,0.0002541412138482934,0,60,[],0.019687970052473247,None,None,331.0393211999908,331.0393211999908,0.2369752700906247,2.2894742645004618,331.25841320003383,331.0393211999908,,,,,,,,,,,hoavur,001,fr,0,2022-05-04_15h53.14.005,Continuous,2022.1.1,None,
8,0,8,0,0,0,0,0,,,,,"[0.5833333333333334, 0.16666666666666666, 0.16666666666666666, 0.5833333333333334, 0.16666666666666666, 0.5833333333333334, 0.5833333333333334, 0.5833333333333334, 0.5833333333333334, 0.5833333333333334, 0.16666666666666666, 0.3333333333333333, 0.5833333333333334, 0.3333333333333333, 0.5833333333333334]",343.3554793000221,None,2.524935880535219,none,595.0,0.23077843890011973,5.814930780700386e-05,0,28,[],0.023875470040366054,None,None,344.36039990000427,None,0.2181125700008124,2.7430484505360315,344.5710298999911,None,,333.3406407999573,None,,,,,,,,hoavur,001,fr,0,2022-05-04_15h53.14.005,Continuous,2022.1.1,None,
8,0,8,0,1,0,1,0,,,,,,,,1.1294514405771485,none,158.0,2.4486865494575736,0.0005686141578117452,0,29,[],0.018372770049609244,None,['space'],347.1296966000227,347.1296966000227,0.22398717002943158,1.35343861060658,347.34600160003174,347.1296966000227,[-2.2499742000363767],,,,,,,,,,hoavur,001,fr,0,2022-05-04_15h53.14.005,Continuous,2022.1.1,None,
8,0,8,0,2,0,2,0,,,,,,,,2.844663036209227,none,530.0,1.1347555661340774,7.60824683793651e-05,0,30,[],0.016427969909273088,None,['space'],348.50682020001113,348.50682020001113,0.22116756986360997,3.065830606072837,348.7264484000625,348.50682020001113,[-0.6674522999674082],,,,,,,,,,hoavur,001,fr,0,2022-05-04_15h53.14.005,Continuous,2022.1.1,None,
8,0,8,0,3,0,3,0,,,,,,,,1.8236495628308245,none,750.0,-0.23400047166649898,3.9561247758436484e-05,0,31,[],0.01859526999760419,None,['space'],351.61369709996507,351.61369709996507,0.22832137008663267,2.051970932917457,351.8254743999569,351.61369709996507,[-2.6224064000416547],,,,,,,,,,hoavur,001,fr,0,2022-05-04_15h53.14.005,Continuous,2022.1.1,None,
8,0,8,0,4,0,4,0,,,,,,,,2.886988557353752,none,1124.0,1.8448641209201506,6.089091386560048e-05,0,32,[],0.018837970099411905,None,None,353.674222700065,353.674222700065,0.2303832700708881,3.1173718274246403,353.89214470004663,353.674222700065,,,,,,,,,,,hoavur,001,fr,0,2022-05-04_15h53.14.005,Continuous,2022.1.1,None,
8,0,8,0,5,0,5,0,,,,,,,,1.8316255864132025,none,236.0,-0.6975023627224333,0.0001798713850642924,0,33,[],0.009946770034730434,None,['space'],356.81156329996884,356.81156329996884,0.21307327004615217,2.0446988564593545,357.02981710003223,356.81156329996884,[-2.5561836999841034],,,,,,,,,,hoavur,001,fr,0,2022-05-04_15h53.14.005,Continuous,2022.1.1,None,
8,0,8,0,6,0,6,0,,,,,,,,2.3828947604627637,none,2122.0,4.672058556540043,0.000132738023640889,0,34,[],0.01442187000066042,None,['space'],358.88879230001476,358.88879230001476,0.22655857005156577,2.6094533305143295,359.1150425999658,358.88879230001476,[-1.6092652999795973],,,,,,,,,,hoavur,001,fr,0,2022-05-04_15h53.14.005,Continuous,2022.1.1,None,
8,0,8,0,7,0,7,0,,,,,,,,1.2101814430533582,none,1416.0,2.1078889701992356,6.422756708314918e-05,0,35,[],0.015090169967152178,None,['space'],361.5233564999653,361.5233564999653,0.2241268700454384,1.4343083130987966,361.7438550000079,361.5233564999653,[-2.148515500011854],,,,,,,,,,hoavur,001,fr,0,2022-05-04_15h53.14.005,Continuous,2022.1.1,None,
8,0,8,0,8,0,8,0,,,,,,,,1.4505464725666157,none,354.0,2.0,0.00011141034968120162,0,36,[],0.018263170029968023,None,['space'],362.9835820000153,362.9835820000153,0.22920047002844512,1.6797469425950609,363.20581980003044,362.9835820000153,[-1.0645173999946564],,,,,,,,,,hoavur,001,fr,0,2022-05-04_15h53.14.005,Continuous,2022.1.1,None,
8,0,8,0,9,0,9,0,,,,,,,,1.7179231829380297,none,,,,1,36,[],0.012770669884048402,None,['space'],364.67974970000796,364.67974970000796,0.2168237699661404,1.93474695290417,364.90075010003056,364.67974970000796,[-1.303149800049141],,,,,,,,,,hoavur,001,fr,0,2022-05-04_15h53.14.005,Continuous,2022.1.1,None,
9,0,9,0,0,0,0,0,,,,,,371.599556399975,None,1.234654683881141,frequency,4002.0,-9.401599030527894,2.848403120985089e-05,0,61,[],0.024279569974169135,None,None,372.61618280003313,None,0.22205666999798268,1.4567113538791236,372.831272099982,None,,366.6418402000563,None,0.5833333333333334,,,,,,,hoavur,001,fr,0,2022-05-04_15h53.14.005,Continuous,2022.1.1,None,
9,0,9,0,1,0,1,0,,,,,,,,1.991961961569072,frequency,2671.0,3.846228122541392,0.00011719992650582524,0,62,[],0.017796369967982173,None,None,374.0987261000555,374.0987261000555,0.2242882699938491,2.2162502315629213,374.3140953000402,374.0987261000555,,,,,,,,,,,hoavur,001,fr,0,2022-05-04_15h53.14.005,Continuous,2022.1.1,None,
9,0,9,0,2,0,2,0,,,,,,,,1.362126470539349,frequency,1783.0,-12.936625422115448,1.466130640024816e-05,0,63,[],0.018403570051304996,None,['space'],376.33054890006315,376.33054890006315,0.2247287699719891,1.586855240511338,376.5546590000158,376.33054890006315,[-1.4995813000714406],,,,,,,,,,hoavur,001,fr,0,2022-05-04_15h53.14.005,Continuous,2022.1.1,None,
9,0,9,0,3,0,3,0,,,,,,,,2.962505901377,frequency,,,,1,63,[],0.013818570063449442,None,None,377.9388851999538,377.9388851999538,0.21641607000492513,3.178921971381925,378.1578570000129,377.9388851999538,,,,,,,,,,,hoavur,001,fr,0,2022-05-04_15h53.14.005,Continuous,2022.1.1,None,
9,0,9,0,4,0,4,0,,,,,,,,2.4125813705374823,frequency,794.0,-10.600705829209621,1.1402808056848778e-05,0,64,[],0.01926527009345591,None,None,381.1501186999958,381.1501186999958,0.22855917003471404,2.6411405405721964,381.37075500003994,381.1501186999958,,,,,,,,,,,hoavur,001,fr,0,2022-05-04_15h53.14.005,Continuous,2022.1.1,None,
9,0,9,0,5,0,5,0,,,,,,,,1.3418940061483795,frequency,530.0,-10.315547271268192,2.0359609893284746e-05,0,65,[],0.01590507011860609,None,None,383.81195140001364,383.81195140001364,0.2207099701045081,1.5626039762528876,384.03011249995325,383.81195140001364,,,,,,,,,,,hoavur,001,fr,0,2022-05-04_15h53.14.005,Continuous,2022.1.1,None,
9,0,9,0,6,0,6,0,,,,,,,,1.146223429600738,frequency,354.0,-13.0,1.981187309033173e-05,0,66,[],0.010857970104552805,None,None,385.40392209996935,385.40392209996935,0.21424697001930326,1.3604703996200413,385.62518039997667,385.40392209996935,,,,,,,,,,,hoavur,001,fr,0,2022-05-04_15h53.14.005,Continuous,2022.1.1,None,
9,0,9,0,7,0,7,0,,,,,,,,1.9558667372729872,frequency,236.0,-6.664280466981141,9.049470604637671e-05,0,67,[],0.016847970080561936,None,None,386.8136653000256,386.8136653000256,0.23329047008883208,2.189157207361819,387.030627500033,386.8136653000256,,,,,,,,,,,hoavur,001,fr,0,2022-05-04_15h53.14.005,Continuous,2022.1.1,None,
9,0,9,0,8,0,8,0,,,,,,,,2.722715753965563,frequency,158.0,-3.4109856479873915,0.00028962367438756893,0,68,[],0.015679370029829443,None,None,389.0176822000649,389.0176822000649,0.2231269699987024,2.9458427239642653,389.2330124999862,389.0176822000649,,,,,,,,,,,hoavur,001,fr,0,2022-05-04_15h53.14.005,Continuous,2022.1.1,None,
10,0,10,0,0,0,0,0,,,,,"[0.3333333333333333, 0.5833333333333334, 0.16666666666666666, 0.5833333333333334, 0.16666666666666666, 0.5833333333333334, 0.5833333333333334, 0.3333333333333333, 0.16666666666666666, 0.3333333333333333, 0.5833333333333334, 0.16666666666666666, 0.16666666666666666, 0.3333333333333333, 0.5833333333333334]",396.48810830002185,None,2.914954609592661,none,1498.0,0.4066024053016033,5.066946700051355e-05,0,37,[],0.02412217005621642,None,None,397.51710759999696,None,0.22030877007637173,3.135263379669033,397.72854859998915,None,,391.98766720003914,None,,,,,,,,hoavur,001,fr,0,2022-05-04_15h53.14.005,Continuous,2022.1.1,None,
10,0,10,0,1,0,1,0,,,,,,,,2.404941982568925,none,7127.0,0.21365881128702588,0.0001589382480203622,0,38,[],0.017406070022843778,None,None,400.67203270003665,400.67203270003665,0.2267141699558124,2.6316561525247373,400.8895425000228,400.67203270003665,,,,,,,,,,,hoavur,001,fr,0,2022-05-04_15h53.14.005,Continuous,2022.1.1,None,
10,0,10,0,2,0,2,0,,,,,,,,1.1646335646115267,none,2245.0,3.35809543051531,0.00011811652327431509,0,39,[],0.013466670061461627,None,['space'],403.3190147000132,403.3190147000132,0.2117747700540349,1.3764083346655616,403.53463140001986,403.3190147000132,[-1.8796924999915063],,,,,,,,,,hoavur,001,fr,0,2022-05-04_15h53.14.005,Continuous,2022.1.1,None,
10,0,10,0,3,0,3,0,,,,,,,,1.5877238102539615,none,3776.0,1.8100448173476487,9.854534157159273e-05,0,40,[],0.01652747020125389,None,None,404.73286600003485,404.73286600003485,0.2243902701884508,1.8121140804424123,404.9481708999956,404.73286600003485,,,,,,,,,,,hoavur,001,fr,0,2022-05-04_15h53.14.005,Continuous,2022.1.1,None,
10,0,10,0,4,0,4,0,,,,,,,,2.4827668986119447,none,2520.0,4.142739034810717,0.00013638827693388146,0,41,[],0.01397597009781748,None,None,406.5686113999691,406.5686113999691,0.21992397017311305,2.7026908687850577,406.7923256000504,406.5686113999691,,,,,,,,,,,hoavur,001,fr,0,2022-05-04_15h53.14.005,Continuous,2022.1.1,None,
10,0,10,0,5,0,5,0,,,,,,,,1.2809682969059613,none,,,,1,41,[],0.0178118699695915,None,['space'],409.3025817000307,409.3025817000307,0.22474516998045146,1.5057134668864127,409.5236080000177,409.3025817000307,[-2.2469971000682563],,,,,,,,,,hoavur,001,fr,0,2022-05-04_15h53.14.005,Continuous,2022.1.1,None,
10,0,10,0,6,0,6,0,,,,,,,,1.041074054443325,none,891.0,-0.4292307042147415,3.89798079177465e-05,0,42,[],0.014461869955994189,None,None,410.82468800002243,410.82468800002243,0.2152953699696809,1.256369424413006,411.0402094000019,410.82468800002243,,,,,,,,,,,hoavur,001,fr,0,2022-05-04_15h53.14.005,Continuous,2022.1.1,None,
10,0,10,0,7,0,7,0,,,,,,,,1.8368742803619618,none,8000.0,0.0,0.0001815390273850507,0,43,[],0.017831370001658797,None,['space'],412.11550359998364,412.11550359998364,0.22887237009126693,2.065746650453229,412.3337432000553,412.11550359998364,[-0.8354110999498516],,,,,,,,,,hoavur,001,fr,0,2022-05-04_15h53.14.005,Continuous,2022.1.1,None,
10,0,10,0,8,0,8,0,,,,,,,,1.1958215413065574,none,1335.0,1.6866279252126006,6.36288401962141e-05,0,44,[],0.012683169916272163,None,None,414.19491680001374,414.19491680001374,0.216406469931826,1.4122280112383834,414.41460909997113,414.19491680001374,,,,,,,,,,,hoavur,001,fr,0,2022-05-04_15h53.14.005,Continuous,2022.1.1,None,
11,0,11,0,0,0,0,0,,,,,"[0.5833333333333334, 0.3333333333333333, 0.5833333333333334, 0.3333333333333333, 0.16666666666666666, 0.3333333333333333, 0.3333333333333333, 0.16666666666666666, 0.16666666666666666, 0.16666666666666666, 0.5833333333333334, 0.3333333333333333, 0.16666666666666666, 0.16666666666666666, 0.3333333333333333]",528.7805238000583,None,1.7074168735213853,none,223.0,-3.4352881295265623,0.0001483916449796046,0,45,[],0.02417466987390071,None,None,529.8003799000289,None,0.2320424698991701,1.9394593434205554,530.0175255000358,None,,415.6438216000097,None,,,,,,,,hoavur,001,fr,0,2022-05-04_15h53.14.005,Continuous,2022.1.1,None,
11,0,11,0,1,0,1,0,,,,,,,,2.434645369290798,none,177.0,-0.7823847291649644,0.0003191277590921902,0,46,[],0.013705170131288469,0.21050657017622143,['space'],531.7535743999761,531.7535743999761,0.21050657017622143,2.6451519394670195,531.9690092999954,531.7535743999761,[-1.3055922000203282],,,,,,,,,,hoavur,001,fr,0,2022-05-04_15h53.14.005,Continuous,2022.1.1,None,
11,0,11,0,2,0,2,0,,,,,,,,1.1195649067580857,none,281.0,-2.6541556658018437,9.919040866920876e-05,0,47,[],0.017650170135311782,None,['space'],534.4323853000533,534.4323853000533,0.22177927009761333,1.341344176855699,534.6393097999971,534.4323853000533,[-2.2407049000030383],,,,,,,,,,hoavur,001,fr,0,2022-05-04_15h53.14.005,Continuous,2022.1.1,None,
11,0,11,0,3,0,3,0,,,,,,,,1.5484924132554934,none,354.0,-4.0,5.583744495416851e-05,0,48,[],0.011755970073863864,None,['space'],535.7939700999996,535.7939700999996,0.20866607001516968,1.757158483270663,536.0111956000328,535.7939700999996,[-0.9944124999456108],,,,,,,,,,hoavur,001,fr,0,2022-05-04_15h53.14.005,Continuous,2022.1.1,None,
11,0,11,0,4,0,4,0,,,,,,,,1.1435055393638323,none,595.0,-1.0187578082059172,5.035791460303069e-05,0,49,[],0.01373457012232393,0.20718187012244016,None,537.5933072000043,537.5933072000043,0.20718187012244016,1.3506874094862724,537.8084567000624,537.5933072000043,,,,,,,,,,,hoavur,001,fr,0,2022-05-04_15h53.14.005,Continuous,2022.1.1,None,
11,0,11,0,5,0,5,0,,,,,,,,2.2089369232182374,none,397.0,-1.3258912183510962,6.638522333940872e-05,0,50,[],0.014256570022553205,None,['space'],538.9763527000323,538.9763527000323,0.21071956993546337,2.419656493153701,539.1944772000425,538.9763527000323,[-1.0244571999646723],,,,,,,,,,hoavur,001,fr,0,2022-05-04_15h53.14.005,Continuous,2022.1.1,None,
11,0,11,0,6,0,6,0,,,,,,,,1.9443919491864594,none,1191.0,-3.922939526637834,3.3128532464790126e-05,0,51,[],0.01748017012141645,None,None,541.4387413000222,541.4387413000222,0.22120937006548047,2.16560131925194,541.652253300068,541.4387413000222,,,,,,,,,,,hoavur,001,fr,0,2022-05-04_15h53.14.005,Continuous,2022.1.1,None,
11,0,11,0,7,0,7,0,,,,,,,,1.310743748598737,none,125.0,-3.4414587313734257,0.00048629193587104784,0,52,[],0.013677970040589571,None,['space'],543.6290117000462,543.6290117000462,0.20926427002996206,1.520008018628699,543.8480685000541,543.6290117000462,[-1.6296275000786409],,,,,,,,,,hoavur,001,fr,0,2022-05-04_15h53.14.005,Continuous,2022.1.1,None,
11,0,11,0,8,0,8,0,,,,,,,,2.0450420682856065,none,158.0,0.8700208065809774,0.0004741157489642709,0,53,[],0.013750270009040833,None,None,545.1842481000349,545.1842481000349,0.20913337008096278,2.2541754383665693,545.401562300045,545.1842481000349,,,,,,,,,,,hoavur,001,fr,0,2022-05-04_15h53.14.005,Continuous,2022.1.1,None,
11,0,11,0,9,0,9,0,,,,,,,,2.9322651476401713,none,,,,1,53,[],0.017704669968225062,None,['space'],547.4816518999869,547.4816518999869,0.22667956992518157,3.158944717565353,547.6985210999846,547.4816518999869,[-1.8982933999504894],,,,,,,,,,hoavur,001,fr,0,2022-05-04_15h53.14.005,Continuous,2022.1.1,None,
11,0,11,0,10,0,10,0,,,,,,,,1.7467761086999354,none,945.0,-3.506143558061322,2.8377348045770406e-05,0,54,[],0.015055070049129426,None,None,550.6551885000663,550.6551885000663,0.20973196998238564,1.956508078682321,550.8725078999996,550.6551885000663,,,,,,,,,,,hoavur,001,fr,0,2022-05-04_15h53.14.005,Continuous,2022.1.1,None,
11,0,11,0,11,0,11,0,,,,,,,,1.4417462263489793,none,842.0,-3.091099550182615,2.7715388949101044e-05,0,55,[],0.01719127013348043,None,None,552.6487057000631,552.6487057000631,0.2217116701649502,1.6634578965139295,552.8716341999825,552.6487057000631,,,,,,,,,,,hoavur,001,fr,0,2022-05-04_15h53.14.005,Continuous,2022.1.1,None,
11,0,11,0,12,0,12,0,,,,,,,,1.8866230248602087,none,315.0,-2.889093804575348,7.071561360061309e-05,0,56,[],0.017086770036257803,None,['space'],554.3378604999743,554.3378604999743,0.21913376997690648,2.105756794837115,554.5485460000345,554.3378604999743,[-1.0900666000088677],,,,,,,,,,hoavur,001,fr,0,2022-05-04_15h53.14.005,Continuous,2022.1.1,None,
12,0,12,0,0,0,0,0,,,,,,578.1473789999727,None,1.6665706603845722,both,4002.0,4.265413545487652,0.00013738903773010433,0,50,[],0.02421377005521208,None,None,579.1564599999692,None,0.2225034701405093,1.8890741305250816,579.3658708999865,None,,556.4689113000641,None,0.3333333333333333,,,,,,,hoavur,001,fr,0,2022-05-04_15h53.14.005,Continuous,2022.1.1,None,
12,0,12,0,1,0,1,0,,,,,,,,1.6665706603845722,both,3176.0,6.688758629981811,0.00015006187274240065,0,51,[],0.013479869929142296,None,None,581.0538921999978,581.0538921999978,0.20921827002894133,1.8757889304135136,581.2714024999877,581.0538921999978,,,,,,,,,,,hoavur,001,fr,0,2022-05-04_15h53.14.005,Continuous,2022.1.1,None,
12,0,12,0,2,0,2,0,,,,,,,,1.6665706603845722,both,2521.0,4.9940929137603405,0.00015032312869366258,0,52,[],0.014804470003582537,0.21304237004369497,['space'],582.9689906999702,582.9689906999702,0.21304237004369497,1.8796130304282672,583.180441500037,582.9689906999702,[-1.5604622999671847],,,,,,,,,,hoavur,001,fr,0,2022-05-04_15h53.14.005,Continuous,2022.1.1,None,
12,0,12,0,3,0,3,0,,,,,,,,1.6665706603845722,both,2001.0,3.1369742903866,0.00010738593043556521,0,53,[],0.01363217004109174,0.20868247002363205,['space'],584.8749012000626,584.8749012000626,0.20868247002363205,1.8752531304082043,585.0918761000503,584.8749012000626,[-1.483099100063555],,,,,,,,,,hoavur,001,fr,0,2022-05-04_15h53.14.005,Continuous,2022.1.1,None,
12,0,12,0,4,0,4,0,,,,,,,,1.6665706603845722,both,1588.0,1.6237204914689793,6.7193599871978e-05,0,54,[],0.013945569982752204,None,['space'],586.7910395000363,586.7910395000363,0.2120825700694695,1.8786532304540418,587.0122864999576,586.7910395000363,[-1.5268832000438124],,,,,,,,,,hoavur,001,fr,0,2022-05-04_15h53.14.005,Continuous,2022.1.1,None,
12,0,12,0,5,0,5,0,,,,,,,,1.6665706603845722,both,,,,1,54,[],0.01495997013989836,0.2125331701245159,None,588.7085198999848,588.7085198999848,0.2125331701245159,1.8791038305090881,588.9229258999694,588.7085198999848,,,,,,,,,,,hoavur,001,fr,0,2022-05-04_15h53.14.005,Continuous,2022.1.1,None,
12,0,12,0,6,0,6,0,,,,,,,,1.6665706603845722,both,1000.0,1.0,4.942765473284695e-05,0,55,[],0.014751170063391328,None,None,590.6122117000632,590.6122117000632,0.2105193700408563,1.8770900304254285,590.8313177999808,590.6122117000632,,,,,,,,,,,hoavur,001,fr,0,2022-05-04_15h53.14.005,Continuous,2022.1.1,None,
12,0,12,0,7,0,7,0,,,,,,,,1.6665706603845722,both,794.0,-0.37890408725829583,3.699149648765662e-05,0,56,[],0.015015269978903234,None,['space'],592.5286311999662,592.5286311999662,0.215359769994393,1.8819304303789652,592.7468506000005,592.5286311999662,[-1.4088606000877917],,,,,,,,,,hoavur,001,fr,0,2022-05-04_15h53.14.005,Continuous,2022.1.1,None,
12,0,12,0,8,0,8,0,,,,,,,,1.6665706603845722,both,630.0,0.4250917205332845,5.37309587967695e-05,0,57,[],0.015177670051343739,None,['space'],594.4474037999753,594.4474037999753,0.21471146994736046,1.8812821303319327,594.6626867000014,594.4474037999753,[-1.375897099962458],,,,,,,,,,hoavur,001,fr,0,2022-05-04_15h53.14.005,Continuous,2022.1.1,None,
12,0,12,0,9,0,9,0,,,,,,,,1.6665706603845722,both,500.0,0.3810591288152821,7.464882235589622e-05,0,58,[],0.012601670110598207,0.20725997013505548,['space'],596.35647410003,596.35647410003,0.20725997013505548,1.8738306305196277,596.5719601999735,596.35647410003,[-1.4929541000165045],,,,,,,,,,hoavur,001,fr,0,2022-05-04_15h53.14.005,Continuous,2022.1.1,None,
12,0,12,0,10,0,10,0,,,,,,,,1.6665706603845722,both,397.0,0.7428255744184211,8.423784737999842e-05,0,59,[],0.012865770026110113,0.2099879700690508,['space'],598.2696899999864,598.2696899999864,0.2099879700690508,1.876558630453623,598.4840647999663,598.2696899999864,[-1.5029726999346167],,,,,,,,,,hoavur,001,fr,0,2022-05-04_15h53.14.005,Continuous,2022.1.1,None,
12,0,12,0,11,0,11,0,,,,,,,,1.6665706603845722,both,315.0,-1.1922007199728288,8.597258166556944e-05,0,60,[],0.013371970038861036,0.20878687012009323,['space'],600.175002999953,600.175002999953,0.20878687012009323,1.8753575305046655,600.391165100038,600.175002999953,[-1.5514616000000387],,,,,,,,,,hoavur,001,fr,0,2022-05-04_15h53.14.005,Continuous,2022.1.1,None,
12,0,12,0,12,0,12,0,,,,,,,,1.6665706603845722,both,250.0,-2.3766011939483587,0.00012739135136913588,0,61,[],0.0167330700205639,None,['space'],602.0894297000486,602.0894297000486,0.2214862700784579,1.8880569304630301,602.3045903999591,602.0894297000486,[-1.5775660000508651],,,,,,,,,,hoavur,001,fr,0,2022-05-04_15h53.14.005,Continuous,2022.1.1,None,
12,0,12,0,13,0,13,0,,,,,,,,1.6665706603845722,both,198.0,0.7975730418493036,0.00029895476309902455,0,62,[],0.013048070017248392,0.20783706998918205,['space'],603.9956105999881,603.9956105999881,0.20783706998918205,1.8744077303737543,604.2117906999774,603.9956105999881,[-1.548898300039582],,,,,,,,,,hoavur,001,fr,0,2022-05-04_15h53.14.005,Continuous,2022.1.1,None,
12,0,12,0,14,0,14,0,,,,,,,,1.6665706603845722,both,157.0,2.381661587138939,0.0005759547577788113,0,63,[],0.01651397009845823,None,['space'],605.9087991999695,605.9087991999695,0.22348607005551457,1.8900567304400868,606.1251865000231,605.9087991999695,[-1.5895032999105752],,,,,,,,,,hoavur,001,fr,0,2022-05-04_15h53.14.005,Continuous,2022.1.1,None,
13,0,13,0,0,0,0,0,,,,,,610.8113038999727,None,2.9923862069142677,both,756.0,-5.239169289438426,2.2084441707447793e-05,0,64,[],0.024194970028474927,None,None,611.8238088999642,None,0.23240947001613677,3.2247956769304045,612.0388429999584,None,,607.8148023999529,None,0.3333333333333333,,,,,,,hoavur,001,fr,0,2022-05-04_15h53.14.005,Continuous,2022.1.1,None,
13,0,13,0,1,0,1,0,,,,,,,,2.9923862069142677,both,600.0,-0.06747341371493931,5.541253088990377e-05,0,65,[],0.016093770158477128,None,None,615.0649758999934,615.0649758999934,0.2201429702108726,3.2125291771251403,615.2759260999737,615.0649758999934,,,,,,,,,,,hoavur,001,fr,0,2022-05-04_15h53.14.005,Continuous,2022.1.1,None,
13,0,13,0,2,0,2,0,,,,,,,,2.9923862069142677,both,476.0,-0.21810034657888389,7.086898918272895e-05,0,66,[],0.004332270007580519,None,['space'],618.3094501000596,618.3094501000596,0.19854106998536736,3.190927276899635,618.5272888999898,618.3094501000596,[-2.869971300009638],,,,,,,,,,hoavur,001,fr,0,2022-05-04_15h53.14.005,Continuous,2022.1.1,None,
13,0,13,0,3,0,3,0,,,,,,,,2.9923862069142677,both,378.0,-0.20404199413881682,8.035577078834725e-05,0,67,[],0.008509670151397586,0.20111507014371455,['space'],621.5546029000543,621.5546029000543,0.20111507014371455,3.1935012770579823,621.7652555999812,621.5546029000543,[-2.9149832000257447],,,,,,,,,,hoavur,001,fr,0,2022-05-04_15h53.14.005,Continuous,2022.1.1,None,
13,0,13,0,4,0,4,0,,,,,,,,2.9923862069142677,both,300.0,-3.1729685839888724,7.947007073252041e-05,0,68,[],0.01603687007445842,None,['space'],624.7942661000416,624.7942661000416,0.21929747005924582,3.2116836769735135,625.0132809999632,624.7942661000416,[-2.907217900035903],,,,,,,,,,hoavur,001,fr,0,2022-05-04_15h53.14.005,Continuous,2022.1.1,None,
13,0,13,0,5,0,5,0,,,,,,,,2.9923862069142677,both,238.0,-5.250372822524822,0.00010435152727042478,0,69,[],0.016243970138020813,None,['space'],628.0331364000449,628.0331364000449,0.22038317006081343,3.212769376975081,628.2499624000629,628.0331364000449,[-2.705728800036013],,,,,,,,,,hoavur,001,fr,0,2022-05-04_15h53.14.005,Continuous,2022.1.1,None,
13,0,13,0,6,0,6,0,,,,,,,,2.9923862069142677,both,189.0,-8.0,0.0001216233232399187,0,70,[],0.013035569922067225,0.21088006987702101,['space'],631.270475700032,631.270475700032,0.21088006987702101,3.2032662767912887,631.4857998000225,631.270475700032,[-2.742091799969785],,,,,,,,,,hoavur,001,fr,0,2022-05-04_15h53.14.005,Continuous,2022.1.1,None,
13,0,13,0,7,0,7,0,,,,,,,,2.9923862069142677,both,150.0,2.942012658123406,0.0007017791465091243,0,71,[],0.012505570077337325,None,None,634.5097780000651,634.5097780000651,0.20753417001105845,3.199920376925326,634.7280012000119,634.5097780000651,,,,,,,,,,,hoavur,001,fr,0,2022-05-04_15h53.14.005,Continuous,2022.1.1,None,
13,0,13,0,8,0,8,0,,,,,,,,2.9923862069142677,both,,,,1,71,[],0.0057050700997933745,0.19668677006848156,['space'],637.7564095000271,637.7564095000271,0.19668677006848156,3.1890729769827493,637.9653982999735,637.7564095000271,[-2.8444635999621823],,,,,,,,,,hoavur,001,fr,0,2022-05-04_15h53.14.005,Continuous,2022.1.1,None,
14,0,14,0,0,0,0,0,,,,,,645.8051121999742,None,2.7071105687443144,frequency,330.0,3.232136443702822,0.00013742970521284087,0,69,[],0.024516770150512457,None,None,646.83282650006,None,0.24222437012940645,2.949334938873721,647.0551828000462,None,,640.9911636000033,None,0.16666666666666666,,,,,,,hoavur,001,fr,0,2022-05-04_15h53.14.005,Continuous,2022.1.1,None,
14,0,14,0,1,0,1,0,,,,,,,,1.1675457386828905,frequency,294.0,0.7049308690885105,0.00013108725963605292,0,70,[],0.01563237002119422,None,['space'],649.7888104000594,649.7888104000594,0.21828597004059702,1.3858317087234875,650.0034375999821,649.7888104000594,[-0.7005780999315903],,,,,,,,,,hoavur,001,fr,0,2022-05-04_15h53.14.005,Continuous,2022.1.1,None,
14,0,14,0,2,0,2,0,,,,,,,,2.5643571405855843,frequency,262.0,8.373547131615181,0.00040584818828298127,0,71,[],0.0156859700800851,None,['space'],651.2071378000546,651.2071378000546,0.22039317002054304,2.7847503106061273,651.4240051000379,651.2071378000546,[-0.984468900016509],,,,,,,,,,hoavur,001,fr,0,2022-05-04_15h53.14.005,Continuous,2022.1.1,None,
14,0,14,0,3,0,3,0,,,,,,,,1.9832280044830235,frequency,233.0,4.326596871777449,0.00033042253074141124,0,72,[],0.008256070083007216,0.2022458700230345,['space'],654.0225937999785,654.0225937999785,0.2022458700230345,2.185473874506058,654.2418325999752,654.0225937999785,[-2.503517400007695],,,,,,,,,,hoavur,001,fr,0,2022-05-04_15h53.14.005,Continuous,2022.1.1,None,
14,0,14,0,4,0,4,0,,,,,,,,1.0292591489277778,frequency,208.0,5.820433432441235,0.0004881571873728526,0,73,[],0.011487169889733195,None,['space'],656.2495059999637,656.2495059999637,0.20895396987907588,1.2382131188068537,656.466902300017,656.2495059999637,[-1.913991800043732],,,,,,,,,,hoavur,001,fr,0,2022-05-04_15h53.14.005,Continuous,2022.1.1,None,
14,0,14,0,5,0,5,0,,,,,,,,1.5597511650363551,frequency,185.0,5.284754349448336,0.0005881461330384212,0,74,[],0.015701270080171525,None,['space'],657.5287341000512,657.5287341000512,0.2203808700433001,1.7801320350796552,657.7460319000529,657.5287341000512,[-0.9849680999759585],,,,,,,,,,hoavur,001,fr,0,2022-05-04_15h53.14.005,Continuous,2022.1.1,None,
14,0,14,0,6,0,6,0,,,,,,,,2.398714884492088,frequency,165.0,10.0,0.001242495060017466,0,75,[],0.011697970097884536,0.20711587008554488,['space'],659.3341090000467,659.3341090000467,0.20711587008554488,2.605830754577633,659.5485332000535,659.3341090000467,[-1.4464710999745876],,,,,,,,,,hoavur,001,fr,0,2022-05-04_15h53.14.005,Continuous,2022.1.1,None,
14,0,14,0,7,0,7,0,,,,,,,,2.56743955810427,frequency,147.0,4.060777803186986,0.0008408768844143061,0,76,[],0.01199947006534785,0.20677457004785538,['space'],661.9720450000605,661.9720450000605,0.20677457004785538,2.7742141281521255,662.190335100051,661.9720450000605,[-2.356979800038971],,,,,,,,,,hoavur,001,fr,0,2022-05-04_15h53.14.005,Continuous,2022.1.1,None,
14,0,14,0,8,0,8,0,,,,,,,,2.973857776564125,frequency,,,,1,76,[],0.015294370125047863,None,['space'],664.7835410999833,664.7835410999833,0.21962707012426108,3.1934848466883863,664.9916367999977,664.7835410999833,[-2.528692299965769],,,,,,,,,,hoavur,001,fr,0,2022-05-04_15h53.14.005,Continuous,2022.1.1,None,
15,0,15,0,0,0,0,0,,,,,"[0.5833333333333334, 0.5833333333333334, 0.16666666666666666, 0.3333333333333333, 0.5833333333333334, 0.5833333333333334, 0.5833333333333334, 0.5833333333333334, 0.3333333333333333, 0.5833333333333334, 0.3333333333333333, 0.16666666666666666, 0.16666666666666666, 0.16666666666666666, 0.5833333333333334]",673.8277482000412,None,1.4239357322539492,time,177.0,-3.0,0.0002472201235204199,0,56,[],0.024532770039513707,None,None,674.8329304000363,None,0.236829370027408,1.6607651022813572,675.0510500000091,None,,667.9996777999913,None,,,,,,,,hoavur,001,fr,0,2022-05-04_15h53.14.005,Continuous,2022.1.1,None,
15,0,15,0,1,0,1,0,,,,,,,,1.4239357322539492,time,,,,1,56,[],0.014814069960266352,None,None,676.5006572999991,676.5006572999991,0.21731356997042894,1.6412493022243781,676.7147109999787,676.5006572999991,,,,,,,,,,,hoavur,001,fr,0,2022-05-04_15h53.14.005,Continuous,2022.1.1,None,
15,0,15,0,2,0,2,0,,,,,,,,1.4239357322539492,time,421.0,-1.8140746884007213,6.125420032871808e-05,0,57,[],0.016838170122355223,None,None,678.1689979999792,678.1689979999792,0.2221312701003626,1.6460670023543118,678.3851805999875,678.1689979999792,,,,,,,,,,,hoavur,001,fr,0,2022-05-04_15h53.14.005,Continuous,2022.1.1,None,
15,0,15,0,3,0,3,0,,,,,,,,1.4239357322539492,time,473.0,0.03746734718250522,7.313912276881145e-05,0,58,[],0.007163270143792033,0.20097457012161613,['space'],679.8425766000291,679.8425766000291,0.20097457012161613,1.6249103023755653,680.0582353000063,679.8425766000291,[-1.332000800059177],,,,,,,,,,hoavur,001,fr,0,2022-05-04_15h53.14.005,Continuous,2022.1.1,None,
15,0,15,0,4,0,4,0,,,,,,,,1.4239357322539492,time,265.0,-2.5894210681411534,0.0001125133461232513,0,59,[],0.011023869970813394,0.20537686999887228,['space'],681.5091710999841,681.5091710999841,0.20537686999887228,1.6293126022528215,681.7273206000682,681.5091710999841,[-1.3173642000183463],,,,,,,,,,hoavur,001,fr,0,2022-05-04_15h53.14.005,Continuous,2022.1.1,None,
15,0,15,0,5,0,5,0,,,,,,,,1.4239357322539492,time,140.0,-1.9260790384397701,0.00047200033665757344,0,60,[],0.01196387002710253,0.20784077001735568,['space'],683.1804605000652,683.1804605000652,0.20784077001735568,1.6317765022713049,683.3953545000404,683.1804605000652,[-1.277209300082177],,,,,,,,,,hoavur,001,fr,0,2022-05-04_15h53.14.005,Continuous,2022.1.1,None,
15,0,15,0,6,0,6,0,,,,,,,,1.4239357322539492,time,709.0,-2.1961920278175375,3.435384433255758e-05,0,61,[],0.008487569983117282,None,['space'],684.8516713000135,684.8516713000135,0.20535467006266117,1.6292904023166104,685.0724461000646,684.8516713000135,[-1.2043157999869436],,,,,,,,,,hoavur,001,fr,0,2022-05-04_15h53.14.005,Continuous,2022.1.1,None,
15,0,15,0,7,0,7,0,,,,,,,,1.4239357322539492,time,334.0,-2.4922164065959596,7.031949962805918e-05,0,62,[],0.012767569976858795,0.21182576997671276,['space'],686.5284766999539,686.5284766999539,0.21182576997671276,1.635761502230662,686.7489096999634,686.5284766999539,[-0.913088700035587],,,,,,,,,,hoavur,001,fr,0,2022-05-04_15h53.14.005,Continuous,2022.1.1,None,
16,0,16,0,0,0,0,0,,,,,"[0.3333333333333333, 0.5833333333333334, 0.16666666666666666, 0.3333333333333333, 0.5833333333333334, 0.5833333333333334, 0.5833333333333334, 0.3333333333333333, 0.16666666666666666, 0.5833333333333334, 0.3333333333333333, 0.5833333333333334, 0.16666666666666666, 0.16666666666666666, 0.3333333333333333]",692.0161601,None,2.2081733998944455,none,,,,1,56,[],0.023858769913204014,None,None,693.0221776999533,None,0.2345862699439749,2.4427596698384204,693.2389535000548,None,,688.1999091999605,None,,,,,,,,hoavur,001,fr,0,2022-05-04_15h53.14.005,Continuous,2022.1.1,None,
16,0,16,0,1,0,1,0,,,,,,,,1.546193473022664,none,6885.0,7.646623339775314,0.00035631276617843386,0,57,[],0.015633270028047264,None,None,695.4704174000071,695.4704174000071,0.2172831700881943,1.7634766431108584,695.6875610999996,695.4704174000071,,,,,,,,,,,hoavur,001,fr,0,2022-05-04_15h53.14.005,Continuous,2022.1.1,None,
16,0,16,0,2,0,2,0,,,,,,,,2.8826191146504376,none,2168.0,11.26950805081373,0.00028743757673450583,0,58,[],0.015111370012164116,None,['space'],697.2722741999896,697.2722741999896,0.2175104699563235,3.100129584606761,697.4844822000014,697.2722741999896,[-1.3855588999576867],,,,,,,,,,hoavur,001,fr,0,2022-05-04_15h53.14.005,Continuous,2022.1.1,None,
16,0,16,0,3,0,3,0,,,,,,,,1.03209572977328,none,4094.0,10.939538736902842,0.00031855436808250303,0,59,[],0.011680370080284774,0.2067532701184973,['space'],700.3970855000662,700.3970855000662,0.2067532701184973,1.2388489998917773,700.6130489000352,700.3970855000662,[-2.862180900061503],,,,,,,,,,hoavur,001,fr,0,2022-05-04_15h53.14.005,Continuous,2022.1.1,None,
16,0,16,0,4,0,4,0,,,,,,,,2.709903113289721,none,1447.0,9.59338030390063,0.0001497308958981067,0,60,[],0.012393569923005998,0.21064246993046254,['space'],701.6778636999661,701.6778636999661,0.21064246993046254,2.9205455832201834,701.8885683000553,701.6778636999661,[-0.9582214000402018],,,,,,,,,,hoavur,001,fr,0,2022-05-04_15h53.14.005,Continuous,2022.1.1,None,
16,0,16,0,5,0,5,0,,,,,,,,2.2378838912360237,none,767.0,10.443439715720789,0.0001326790802540885,0,61,[],0.010968670016154647,None,['space'],704.6325242000166,704.6325242000166,0.20593057002406567,2.4438144612600894,704.8513098000549,704.6325242000166,[-2.6012367999646813],,,,,,,,,,hoavur,001,fr,0,2022-05-04_15h53.14.005,Continuous,2022.1.1,None,
16,0,16,0,6,0,6,0,,,,,,,,2.994263764824898,none,456.0,10.60522175302677,0.00024985443296861835,0,62,[],0.01179947005584836,None,['space'],707.1215819000499,707.1215819000499,0.20574707002379,3.200010834848688,707.3380640000105,707.1215819000499,[-2.1461519000586122],,,,,,,,,,hoavur,001,fr,0,2022-05-04_15h53.14.005,Continuous,2022.1.1,None,
16,0,16,0,7,0,7,0,,,,,,,,1.5552329932930522,none,3249.0,11.875794064259196,0.00027768955246977464,0,63,[],0.014784169965423644,None,['space'],710.3692333999788,710.3692333999788,0.21927967004012316,1.7745126633331754,710.5841478999937,710.3692333999788,[-2.882350799976848],,,,,,,,,,hoavur,001,fr,0,2022-05-04_15h53.14.005,Continuous,2022.1.1,None,
16,0,16,0,8,0,8,0,,,,,,,,1.5182793678909943,none,966.0,9.250194880068872,0.00012498184688578898,0,64,[],0.007547670044004917,0.19984767003916204,['space'],712.1678520999849,712.1678520999849,0.19984767003916204,1.7181270379301563,712.3772501000203,712.1678520999849,[-1.5450718000065535],,,,,,,,,,hoavur,001,fr,0,2022-05-04_15h53.14.005,Continuous,2022.1.1,None,
16,0,16,0,9,0,9,0,,,,,,,,2.2581679971729125,none,4595.0,12.0,0.0004971549784999391,0,65,[],0.011501570115797222,0.20610697008669376,['space'],713.9295947999926,713.9295947999926,0.20610697008669376,2.4642749672596063,714.1443197999615,713.9295947999926,[-1.402671099989675],,,,,,,,,,hoavur,001,fr,0,2022-05-04_15h53.14.005,Continuous,2022.1.1,None,
17,0,17,0,0,0,0,0,,,,,"[0.16666666666666666, 0.5833333333333334, 0.5833333333333334, 0.3333333333333333, 0.16666666666666666, 0.16666666666666666, 0.16666666666666666, 0.16666666666666666, 0.3333333333333333, 0.16666666666666666, 0.5833333333333334, 0.5833333333333334, 0.3333333333333333, 0.16666666666666666, 0.3333333333333333]",727.2018956000684,None,2.0188354607401453,none,239.0,-8.772066256914282,6.885510979619628e-05,0,66,[],0.024328669998794794,None,None,728.2302569999592,None,0.2290776700247079,2.247913130764853,728.44865939999,None,,716.42873220006,None,,,,,,,,hoavur,001,fr,0,2022-05-04_15h53.14.005,Continuous,2022.1.1,None,
17,0,17,0,1,0,1,0,,,,,,,,1.1006830102433225,none,268.0,-7.934695423483457,5.953032053025478e-05,0,67,[],0.010926669929176569,None,None,730.4995641000569,730.4995641000569,0.20821276993956417,1.3088957801828867,730.718929399969,730.4995641000569,,,,,,,,,,,hoavur,001,fr,0,2022-05-04_15h53.14.005,Continuous,2022.1.1,None,
17,0,17,0,2,0,2,0,,,,,,,,2.7518976052475255,none,,,,1,67,[],0.007125870091840625,0.19887577008921653,None,731.8556810000446,731.8556810000446,0.19887577008921653,2.950773375336742,732.065791400033,731.8556810000446,,,,,,,,,,,hoavur,001,fr,0,2022-05-04_15h53.14.005,Continuous,2022.1.1,None,
17,0,17,0,3,0,3,0,,,,,,,,2.1248897658746997,none,301.0,-9.5610862976817,3.773645870948447e-05,0,68,[],0.012704570079222322,None,None,734.8499288000166,734.8499288000166,0.20720197004266083,2.3320917359173605,735.0670632000547,734.8499288000166,,,,,,,,,,,hoavur,001,fr,0,2022-05-04_15h53.14.005,Continuous,2022.1.1,None,
17,0,17,0,4,0,4,0,,,,,,,,2.6923090725330665,none,954.0,-6.051549246943622,2.1296500883923145e-05,0,69,[],0.014523070072755218,None,None,737.2302919999929,737.2302919999929,0.21887937001883984,2.9111884425519063,737.4449688000605,737.2302919999929,,,,,,,,,,,hoavur,001,fr,0,2022-05-04_15h53.14.005,Continuous,2022.1.1,None,
17,0,17,0,5,0,5,0,,,,,,,,2.561080793188264,none,1349.0,-1.2314214610251821,4.517115208702749e-05,0,70,[],0.010635470040142536,None,None,740.1712468999904,740.1712468999904,0.2047973700100556,2.7658781631983196,740.3887226000661,740.1712468999904,,,,,,,,,,,hoavur,001,fr,0,2022-05-04_15h53.14.005,Continuous,2022.1.1,None,
17,0,17,0,6,0,6,0,,,,,,,,2.100134945354297,none,425.0,-5.767055828027118,3.8753349744869825e-05,0,71,[],0.006138170138001442,0.20029337017331272,['space'],742.9849025000585,742.9849025000585,0.20029337017331272,2.3004283155276095,743.1936593999853,742.9849025000585,[-2.2180498000234365],,,,,,,,,,hoavur,001,fr,0,2022-05-04_15h53.14.005,Continuous,2022.1.1,None,
17,0,17,0,7,0,7,0,,,,,,,,1.5279121425910254,none,213.0,-2.403905009508941,0.00018195612549437145,0,72,[],0.007808570051565766,0.19971027004066855,None,745.3353831999702,745.3353831999702,0.19971027004066855,1.727622412631694,745.5454894000432,745.3353831999702,,,,,,,,,,,hoavur,001,fr,0,2022-05-04_15h53.14.005,Continuous,2022.1.1,None,
17,0,17,0,8,0,8,0,,,,,,,,2.972230702921378,none,190.0,-8.732793896591602,0.0001104507698301775,0,73,[],0.01096707012038678,None,['space'],747.1091827000491,747.1091827000491,0.2103916701162234,3.1826223730376015,747.3294181000674,747.1091827000491,[-1.237044700072147],,,,,,,,,,hoavur,001,fr,0,2022-05-04_15h53.14.005,Continuous,2022.1.1,None,
17,0,17,0,9,0,9,0,,,,,,,,2.669613249867884,none,1700.0,2.6823774034399226,8.343290063865527e-05,0,74,[],0.011191170080564916,0.20479297009296715,None,750.333468100056,750.333468100056,0.20479297009296715,2.8744062199608513,750.5491483999649,750.333468100056,,,,,,,,,,,hoavur,001,fr,0,2022-05-04_15h53.14.005,Continuous,2022.1.1,None,
17,0,17,0,10,0,10,0,,,,,,,,2.4818006224428464,none,1202.0,0.39636351487354393,5.495283151813213e-05,0,75,[],0.009800070198252797,0.2048068701988086,['space'],753.2506102999905,753.2506102999905,0.2048068701988086,2.686607492641655,753.4690129000228,753.2506102999905,[-2.483170799911022],,,,,,,,,,hoavur,001,fr,0,2022-05-04_15h53.14.005,Continuous,2022.1.1,None,
17,0,17,0,11,0,11,0,,,,,,,,2.6126469802583205,none,379.0,-10.0,2.5932625335595983e-05,0,76,[],0.014182070037350059,0.21659297007136047,['space'],755.9841847000644,755.9841847000644,0.21659297007136047,2.829239950329681,756.1963561000302,755.9841847000644,[-2.304233800037764],,,,,,,,,,hoavur,001,fr,0,2022-05-04_15h53.14.005,Continuous,2022.1.1,None,
17,0,17,0,12,0,12,0,,,,,,,,1.5363613430329155,none,151.0,-0.6854967743979539,0.0004539675183298599,0,77,[],0.010630270116962492,None,['space'],758.841249100049,758.841249100049,0.20452217001002282,1.7408835130429383,759.0582595999585,758.841249100049,[-1.91417340002954],,,,,,,,,,hoavur,001,fr,0,2022-05-04_15h53.14.005,Continuous,2022.1.1,None,
18,0,18,0,0,0,0,0,,,,,,777.3050782000646,None,2.8761024568431988,both,7818.0,3.7022969512676656,0.000269576622516896,0,72,[],0.0221243699779734,None,None,778.3129904000089,None,0.22828207002021372,3.1043845268634125,778.5280925000552,None,,760.6238230000017,None,0.16666666666666666,,,,,,,hoavur,001,fr,0,2022-05-04_15h53.14.005,Continuous,2022.1.1,None,
18,0,18,0,1,0,1,0,,,,,,,,2.8761024568431988,both,6965.0,3.405801838684523,0.0002222597757834945,0,73,[],0.010112370015121996,0.20645697007421404,['space'],781.4319605999626,781.4319605999626,0.20645697007421404,3.082559426917413,781.6488927999744,781.4319605999626,[-2.0886934000300243],,,,,,,,,,hoavur,001,fr,0,2022-05-04_15h53.14.005,Continuous,2022.1.1,None,
18,0,18,0,2,0,2,0,,,,,,,,2.8761024568431988,both,,,,1,73,[],0.010628169984556735,0.20522497000638396,['space'],784.5537420000182,784.5537420000182,0.20522497000638396,3.0813274268495827,784.7694622999988,784.5537420000182,[-2.6821962000103667],,,,,,,,,,hoavur,001,fr,0,2022-05-04_15h53.14.005,Continuous,2022.1.1,None,
18,0,18,0,3,0,3,0,,,,,,,,2.8761024568431988,both,5528.0,2.76656141002995,0.00018326432226601253,0,74,[],0.011484569986350834,0.2077944700140506,None,787.6713399,787.6713399,0.2077944700140506,3.0838969268572494,787.8887722999789,787.6713399,,,,,,,,,,,hoavur,001,fr,0,2022-05-04_15h53.14.005,Continuous,2022.1.1,None,
18,0,18,0,4,0,4,0,,,,,,,,2.8761024568431988,both,4925.0,5.0,0.0002624484631361928,0,75,[],0.010907870135270059,0.20617587014567107,['space'],790.7911987999687,790.7911987999687,0.20617587014567107,3.08227832698887,791.0085819000378,790.7911987999687,[-2.807841199915856],,,,,,,,,,hoavur,001,fr,0,2022-05-04_15h53.14.005,Continuous,2022.1.1,None,
18,0,18,0,5,0,5,0,,,,,,,,2.8761024568431988,both,4388.0,5.052210399903553,0.00019792944676771235,0,76,[],0.011049070046283305,0.20556747005321085,['space'],793.9112624999834,793.9112624999834,0.20556747005321085,3.0816699268964096,794.1241121999919,793.9112624999834,[-2.824326799949631],,,,,,,,,,hoavur,001,fr,0,2022-05-04_15h53.14.005,Continuous,2022.1.1,None,
18,0,18,0,6,0,6,0,,,,,,,,2.8761024568431988,both,3909.0,6.850945183676314,0.00018120608246632674,0,77,[],0.010438370052725077,0.20437307003885508,['space'],797.0312048000051,797.0312048000051,0.20437307003885508,3.080475526882054,797.2490404000273,797.0312048000051,[-2.7920765000162646],,,,,,,,,,hoavur,001,fr,0,2022-05-04_15h53.14.005,Continuous,2022.1.1,None,
18,0,18,0,7,0,7,0,,,,,,,,2.8761024568431988,both,3483.0,6.57294269358127,0.00015956013492261355,0,78,[],0.010409570066258311,None,['space'],800.1538017999846,800.1538017999846,0.20813867007382214,3.084241126917021,800.3710398999974,800.1538017999846,[-2.393920399947092],,,,,,,,,,hoavur,001,fr,0,2022-05-04_15h53.14.005,Continuous,2022.1.1,None,
18,0,18,0,8,0,8,0,,,,,,,,2.8761024568431988,both,3103.0,8.718951739398502,0.00017619251846605403,0,79,[],0.011184070142917335,None,['space'],803.2842089000624,803.2842089000624,0.2096596701303497,3.0857621269735485,803.5011850000592,803.2842089000624,[-2.708623200072907],,,,,,,,,,hoavur,001,fr,0,2022-05-04_15h53.14.005,Continuous,2022.1.1,None,
18,0,18,0,9,0,9,0,,,,,,,,2.8761024568431988,both,2764.0,9.466536162494394,0.00020665551956799047,0,80,[],0.009335470153018832,None,['space'],806.4142191000283,806.4142191000283,0.2055260700872168,3.0816285269304156,806.6286126000341,806.4142191000283,[-2.7673571000341326],,,,,,,,,,hoavur,001,fr,0,2022-05-04_15h53.14.005,Continuous,2022.1.1,None,
18,0,18,0,10,0,10,0,,,,,,,,2.8761024568431988,both,2462.0,5.233714525139682,0.0001553730476575648,0,81,[],0.010668170056305826,None,['space'],809.5412639999995,809.5412639999995,0.21066607011016458,3.0867685269533633,809.7603454999626,809.5412639999995,[-2.7259987000143155],,,,,,,,,,hoavur,001,fr,0,2022-05-04_15h53.14.005,Continuous,2022.1.1,None,
18,0,18,0,11,0,11,0,,,,,,,,2.8761024568431988,both,2193.0,5.410339237660765,0.0001474480056192272,0,82,[],0.013553170021623373,None,['space'],812.6772475000471,812.6772475000471,0.21935747005045414,3.095459926893653,812.8936049999902,812.6772475000471,[-2.7747794000897557],,,,,,,,,,hoavur,001,fr,0,2022-05-04_15h53.14.005,Continuous,2022.1.1,None,
18,0,18,0,12,0,12,0,,,,,,,,2.8761024568431988,both,1954.0,5.0,0.00012934269048726633,0,83,[],0.009576070006005466,0.20468097005505115,['space'],815.8005207000533,815.8005207000533,0.20468097005505115,3.08078342689825,816.013162999996,815.8005207000533,[-2.8258663000306115],,,,,,,,,,hoavur,001,fr,0,2022-05-04_15h53.14.005,Continuous,2022.1.1,None,
19,0,19,0,0,0,0,0,,,,,"[0.5833333333333334, 0.3333333333333333, 0.16666666666666666, 0.3333333333333333, 0.5833333333333334, 0.5833333333333334, 0.3333333333333333, 0.16666666666666666, 0.16666666666666666, 0.5833333333333334, 0.3333333333333333, 0.5833333333333334, 0.5833333333333334, 0.5833333333333334, 0.5833333333333334]",847.0943178000161,None,1.164283347142507,time,561.0,0.9731797138670079,6.927089128893376e-05,0,63,[],0.021236069966107607,None,None,848.1027215999784,None,0.2305568699957803,1.3948402171382872,848.3251830000663,None,,818.9198350000661,None,,,,,,,,hoavur,001,fr,0,2022-05-04_15h53.14.005,Continuous,2022.1.1,None,
19,0,19,0,1,0,1,0,,,,,,,,1.164283347142507,time,1260.0,1.1776438647975598,6.213977058215945e-05,0,64,[],0.010949769988656044,0.21085287001915276,['space'],849.51658950001,849.51658950001,0.21085287001915276,1.3751362171616597,849.7371114999987,849.51658950001,[-0.9247561999363825],,,,,,,,,,hoavur,001,fr,0,2022-05-04_15h53.14.005,Continuous,2022.1.1,None,
19,0,19,0,2,0,2,0,,,,,,,,1.164283347142507,time,841.0,-0.34242923941303993,3.800514350968045e-05,0,65,[],0.006819270085543394,None,['space'],850.9305028000381,850.9305028000381,0.20264167001005262,1.3669250171525595,851.14347000001,850.9305028000381,[-0.9950025000143796],,,,,,,,,,hoavur,001,fr,0,2022-05-04_15h53.14.005,Continuous,2022.1.1,None,
19,0,19,0,3,0,3,0,,,,,,,,1.164283347142507,time,314.0,0.45571584013847755,0.0001050500344538783,0,66,[],0.009865669999271631,0.20681557001080364,['space'],852.3443130999804,852.3443130999804,0.20681557001080364,1.3710989171533106,852.5576094000135,852.3443130999804,[-0.9371852999320254],,,,,,,,,,hoavur,001,fr,0,2022-05-04_15h53.14.005,Continuous,2022.1.1,None,
19,0,19,0,4,0,4,0,,,,,,,,1.164283347142507,time,445.0,0.47321154200192556,7.84126970975874e-05,0,67,[],0.009324370068497956,0.20476987003348768,['space'],853.7580798000563,853.7580798000563,0.20476987003348768,1.3690532171759946,853.9716223999858,853.7580798000563,[-1.0384042999939993],,,,,,,,,,hoavur,001,fr,0,2022-05-04_15h53.14.005,Continuous,2022.1.1,None,
19,0,19,0,5,0,5,0,,,,,,,,1.164283347142507,time,,,,1,67,[],0.010101170046254992,None,['space'],855.1642621000065,855.1642621000065,0.2111757700331509,1.3754591171756578,855.3829229000257,855.1642621000065,[-1.101825000019744],,,,,,,,,,hoavur,001,fr,0,2022-05-04_15h53.14.005,Continuous,2022.1.1,None,
19,0,19,0,6,0,6,0,,,,,,,,1.164283347142507,time,3776.0,1.0646660875192975,9.044137630651242e-05,0,68,[],0.010520470095798373,None,None,856.5834890999831,856.5834890999831,0.2135284700198099,1.3778118171623168,856.8062678000424,856.5834890999831,,,,,,,,,,,hoavur,001,fr,0,2022-05-04_15h53.14.005,Continuous,2022.1.1,None,
19,0,19,0,7,0,7,0,,,,,,,,1.164283347142507,time,1588.0,2.33209787861467,7.290323133286346e-05,0,69,[],0.011440170113928616,None,None,858.0094068000326,858.0094068000326,0.2137406701222062,1.3780240172647131,858.2301398999989,858.0094068000326,,,,,,,,,,,hoavur,001,fr,0,2022-05-04_15h53.14.005,Continuous,2022.1.1,None,
19,0,19,0,8,0,8,0,,,,,,,,1.164283347142507,time,396.0,0.362329005242666,8.089802605802998e-05,0,70,[],0.010431269998662174,None,None,859.4270186000504,859.4270186000504,0.21040626999456435,1.3746896171370713,859.6440759999678,859.4270186000504,,,,,,,,,,,hoavur,001,fr,0,2022-05-04_15h53.14.005,Continuous,2022.1.1,None,
19,0,19,0,9,0,9,0,,,,,,,,1.164283347142507,time,2000.0,1.0,8.394020090612804e-05,0,71,[],0.008657570113427937,None,['space'],860.8468918000581,860.8468918000581,0.2044198700459674,1.3687032171884743,861.0666629000334,860.8468918000581,[-1.1033589000580832],,,,,,,,,,hoavur,001,fr,0,2022-05-04_15h53.14.005,Continuous,2022.1.1,None,
19,0,19,0,10,0,10,0,,,,,,,,1.164283347142507,time,5658.0,0.9063272102925488,0.00014261221956878508,0,72,[],0.00832466990686953,None,None,862.2662021999713,862.2662021999713,0.20599576993845403,1.370279117080961,862.4853988999967,862.2662021999713,,,,,,,,,,,hoavur,001,fr,0,2022-05-04_15h53.14.005,Continuous,2022.1.1,None,
19,0,19,0,11,0,11,0,,,,,,,,1.164283347142507,time,2997.0,2.8997785178167774,7.681273804228019e-05,0,73,[],0.009341170080006123,0.2034685700200498,['space'],863.6870990999741,863.6870990999741,0.2034685700200498,1.3677519171625567,863.9021691000089,863.6870990999741,[-1.0797193000325933],,,,,,,,,,hoavur,001,fr,0,2022-05-04_15h53.14.005,Continuous,2022.1.1,None,
20,0,20,0,0,0,0,0,,,,,"[0.3333333333333333, 0.3333333333333333, 0.5833333333333334, 0.5833333333333334, 0.16666666666666666, 0.5833333333333334, 0.5833333333333334, 0.16666666666666666, 0.3333333333333333, 0.5833333333333334, 0.3333333333333333, 0.5833333333333334, 0.5833333333333334, 0.5833333333333334, 0.5833333333333334]",881.8039954999695,None,1.7304097971321328,time,794.0,-0.5699984733116473,3.618655016315687e-05,0,74,[],0.02434457011986524,None,None,882.8125855999533,None,0.226693170145154,1.9571029672772868,883.0297643999802,None,,865.0998952999944,None,,,,,,,,hoavur,001,fr,0,2022-05-04_15h53.14.005,Continuous,2022.1.1,None,
20,0,20,0,1,0,1,0,,,,,,,,1.7304097971321328,time,6350.0,-1.1099795441639122,0.00011574565618645265,0,75,[],0.00903347006533295,0.20574326999485493,['space'],884.790894899983,884.790894899983,0.20574326999485493,1.9361530671269878,885.0086107000243,884.790894899983,[-1.1441077999770641],,,,,,,,,,hoavur,001,fr,0,2022-05-04_15h53.14.005,Continuous,2022.1.1,None,
20,0,20,0,2,0,2,0,,,,,,,,1.7304097971321328,time,5657.0,-1.660729951354336,0.00010615208112134802,0,76,[],0.008851570077240467,None,None,886.7738955999957,886.7738955999957,0.20623607013840228,1.9366458672705351,886.9938442000421,886.7738955999957,,,,,,,,,,,hoavur,001,fr,0,2022-05-04_15h53.14.005,Continuous,2022.1.1,None,
20,0,20,0,3,0,3,0,,,,,,,,1.7304097971321328,time,,,,1,76,[],0.00884097011294216,None,['space'],888.7597059999825,888.7597059999825,0.20482677011750638,1.9352365672496392,888.9788216999732,888.7597059999825,[-1.6564926999853924],,,,,,,,,,hoavur,001,fr,0,2022-05-04_15h53.14.005,Continuous,2022.1.1,None,
20,0,20,0,4,0,4,0,,,,,,,,1.7304097971321328,time,1498.0,-1.2794609991073784,4.1729498523280084e-05,0,77,[],0.01347227010410279,None,None,890.7440865000244,890.7440865000244,0.21936107007786632,1.9497708672099991,890.9589440999553,890.7440865000244,,,,,,,,,,,hoavur,001,fr,0,2022-05-04_15h53.14.005,Continuous,2022.1.1,None,
20,0,20,0,5,0,5,0,,,,,,,,1.7304097971321328,time,2520.0,5.698744528325312,0.0001631463332682983,0,78,[],0.00898027012590319,None,None,892.7199859999819,892.7199859999819,0.20483407005667686,1.9352438671888097,892.9338143999921,892.7199859999819,,,,,,,,,,,hoavur,001,fr,0,2022-05-04_15h53.14.005,Continuous,2022.1.1,None,
20,0,20,0,6,0,6,0,,,,,,,,1.7304097971321328,time,8000.0,-5.0,0.00010208689723347648,0,79,[],0.008552270010113716,None,['space'],894.699340500054,894.699340500054,0.20471856999211013,1.935128367124243,894.918426600052,894.699340500054,[-1.6449959999881685],,,,,,,,,,hoavur,001,fr,0,2022-05-04_15h53.14.005,Continuous,2022.1.1,None,
20,0,20,0,7,0,7,0,,,,,,,,1.7304097971321328,time,3776.0,0.11931291349789674,8.111468835853542e-05,0,80,[],0.011235670070163906,None,None,896.6826966999797,896.6826966999797,0.21557286998722702,1.9459826671193599,896.9000030000461,896.6826966999797,,,,,,,,,,,hoavur,001,fr,0,2022-05-04_15h53.14.005,Continuous,2022.1.1,None,
20,0,20,0,8,0,8,0,,,,,,,,1.7304097971321328,time,1000.0,-3.2214699025274474,3.040160480202153e-05,0,81,[],0.009096069959923625,None,None,898.6598603000166,898.6598603000166,0.2058769699651748,1.9362867670973076,898.8742535000201,898.6598603000166,,,,,,,,,,,hoavur,001,fr,0,2022-05-04_15h53.14.005,Continuous,2022.1.1,None,
21,0,21,0,0,0,0,0,,,,,,906.7296502999961,None,1.4820830880944185,both,249.0,1.9511250148778352,0.00021211778727179024,0,84,[],0.024373070104047656,None,None,907.7361066000303,None,0.22914557007607073,1.7112286581704892,907.9506202000193,None,,900.6405094000511,None,0.16666666666666666,,,,,,,hoavur,001,fr,0,2022-05-04_15h53.14.005,Continuous,2022.1.1,None,
21,0,21,0,1,0,1,0,,,,,,,,1.4820830880944185,both,222.0,0.031384793742955,0.00022314487721333356,0,85,[],0.011850170092657208,None,['space'],909.4629473000532,909.4629473000532,0.21691497007850558,1.698998058172924,909.677967900061,909.4629473000532,[-0.9996810000156984],,,,,,,,,,hoavur,001,fr,0,2022-05-04_15h53.14.005,Continuous,2022.1.1,None,
21,0,21,0,2,0,2,0,,,,,,,,1.4820830880944185,both,198.0,3.6425064841478427,0.0004148128002393638,0,86,[],0.00891037005931139,0.20486337004695088,['space'],911.190941000008,911.190941000008,0.20486337004695088,1.6869464581413693,911.4037089999765,911.190941000008,[-1.3510972999501973],,,,,,,,,,hoavur,001,fr,0,2022-05-04_15h53.14.005,Continuous,2022.1.1,None,
21,0,21,0,3,0,3,0,,,,,,,,1.4820830880944185,both,176.0,2.757170545052667,0.0004846723672378255,0,87,['both'],0.008279270026832819,0.20416127005591989,['space'],912.9202577000251,912.9202577000251,0.20416127005591989,1.6862443581503384,913.1369985999772,912.9202577000251,[-1.4172935000387952],,,,"{'estimation': [[125.0, 4.020276138737103], [125.10304818803068, 4.0], [130.49963934296113, 3.0], [133.9716828170366, 2.4300869185961025], [135.8645874397416, 2.0], [140.33491552902726, 1.0], [143.5872943746293, 0.3284200091087801], [144.97386481784858, 0.0], [149.08904420663313, -1.0], [153.40838853757995, -2.0], [153.89305166811442, -2.1064502604394177], [157.76486541338002, -3.0], [162.06155862117444, -4.0], [164.93848884661162, -4.628295350621537], [166.8191443823628, -5.0], [171.75362454089466, -6.0], [176.77669529663666, -6.966931838236651], [176.99359800531283, -7.0], [183.47424893001624, -8.0], [189.46457081379947, -8.883506164103942], [190.63527608525064, -9.0], [200.90417823065013, -10.0], [203.0630990890585, -10.201815690269886], [217.6376408240306, -10.835144157599148], [233.25824788420132, -10.809115973940923], [249.99999999999937, -10.229557486234615], [254.085265164162, -10.0], [267.94336563407256, -9.257370899740279], [272.05217101614835, -9.0], [287.1745887492579, -8.080702731030536], [288.5301640969746, -8.0], [305.65636222973126, -7.0], [307.78610333622805, -6.879299369141955], [325.5283002698692, -6.0], [329.87697769322244, -5.789959045702112], [350.46533758308965, -5.0], [353.55339059327247, -4.884949267603238], [378.929141627598, -4.175300006438696], [386.9531584689454, -4.0], [406.12619817811606, -3.6054549870352233], [435.2752816480601, -3.0944621395145164], [440.4856658729705, -3.0000000000000004], [466.5164957684015, -2.563823978204108], [497.9949950671776, -2.0], [499.9999999999975, -1.9663042606117935], [535.8867312681438, -1.320320298843153], [554.579004198062, -1.0], [574.3491774985143, -0.6786213583438132], [615.5722066724546, -0.13338538021042984], [630.3694952720375, 0.0], [659.7539553864432, 0.25748874258793253], [707.1067811865431, 0.473873404398067], [757.8582832551932, 0.5697691674784644], [812.2523963562301, 0.6411132675509649], [870.5505632961181, 0.7857484921402323], [920.0359864661821, 1.0], [933.0329915368008, 1.0553781343722783], [999.9999999999926, 1.4140976134336927], [1071.773462536285, 1.7395556471030602], [1148.698354997026, 1.8578511548792513], [1231.1444133449063, 1.594013002360406], [1300.296067593793, 1.0], [1319.5079107728832, 0.8392040535283432], [1383.281498039125, 0.0], [1414.2135623730828, -0.3925514549046531], [1452.938300906784, -1.0], [1515.7165665103846, -1.9521663696911795], [1518.8496174867555, -2.0], [1584.842371458093, -3.0], [1624.5047927124563, -3.575960463699634], [1660.3810326253047, -4.0], [1741.1011265922318, -4.926873336266864], [1752.8304376568744, -5.0], [1866.065983073597, -5.686992666581702], [1999.9999999999802, -5.612995513593845], [2086.065863766686, -5.0], [2143.5469250725646, -4.610249144898298], [2193.102633061378, -4.0], [2276.1174392815383, -3.0], [2297.396709994049, -2.758570464842192], [2347.5968891739617, -2.0], [2413.4621414069784, -1.0], [2462.2888266898062, -0.3111647119268721], [2482.700516191073, 0.0], [2546.660409004203, 1.0], [2612.6062077477195, 2.0], [2639.01582154576, 2.3666192225570173], [2686.5518240388906, 3.0], [2760.5426077740494, 4.0], [2828.427124746162, 4.84838098110011], [2844.1590631440117, 5.0], [2948.0803875706592, 6.0], [3031.4331330207615, 6.755780339152614], [3079.453599867895, 7.0], [3249.0095854249043, 7.827136043318161], [3482.2022531844555, 7.974478222869153], [3732.1319661471844, 7.295429293373815], [3793.9229341564424, 7.0], [3999.9999999999504, 6.037078801403269], [4006.999283153442, 6.0], [4196.577025705157, 5.0], [4287.093850145118, 4.5401013204643235], [4404.887981484041, 4.0], [4594.793419988081, 3.151546091079666], [4643.231530194698, 3.0], [4924.577653379601, 2.143082167544872], [5029.836909006059, 2.0], [5278.0316430915, 1.6705281596674926], [5656.854249492303, 1.7600312971658865], [5829.149269680023, 2.0], [6062.866266041508, 2.3151061990436927], [6414.016980376016, 3.0], [6498.019170849792, 3.1587276591194087], [6917.754899658202, 4.0], [6964.404506368894, 4.090493920911975], [7464.2639322943505, 4.924913894659279], [7532.580390573344, 5.0], [7999.999999999872, 5.528187936986539]], 'plus_line': [[125.0, -0.5574925619254476], [127.86956963096728, -1.0], [133.9716828170366, -1.8316190716804122], [134.71385099465584, -2.0], [139.1325729002912, -3.0], [143.5872943746293, -3.8640052152190982], [144.11910621534713, -4.0], [147.86460286942722, -5.0], [152.06591871308703, -6.000000000000001], [153.89305166811442, -6.393180488821283], [156.23763338614245, -7.0], [160.14771461699354, -8.0], [164.72205349646194, -9.0], [164.93848884661162, -9.0452265987319], [169.12977095570852, -10.0], [173.93500828132426, -11.0], [176.77669529663666, -11.53064646327588], [179.5828320060729, -12.0], [185.81790148978382, -13.0], [189.46457081379947, -13.529499545440025], [194.07765870100945, -14.0], [203.0630990890585, -14.855941889033089], [206.55423846864412, -15.0], [217.6376408240306, -15.458858911098503], [233.25824788420132, -15.353453262906356], [241.73870603872217, -15.0], [249.99999999999937, -14.687531994167465], [261.8233759560499, -14.0], [267.94336563407256, -13.659792157510488], [278.5612444293929, -13.0], [287.1745887492579, -12.472481620171607], [295.38524717476844, -12.0], [307.78610333622805, -11.29050391307577], [313.7735560691499, -11.0], [329.87697769322244, -10.233865224735881], [335.9600989133906, -10.0], [353.55339059327247, -9.35463226070175], [365.46705944314743, -9.0], [378.929141627598, -8.627932830889359], [405.20052696438626, -8.0], [406.12619817811606, -7.979815460390576], [435.2752816480601, -7.369863121085699], [451.34299750209055, -7.0], [466.5164957684015, -6.689375743491251], [496.59031556528095, -6.0], [499.9999999999975, -5.929891823943929], [535.8867312681438, -5.1529630105964115], [543.2834861151422, -5.000000000000001], [574.3491774985143, -4.425261672867258], [602.5487108509683, -4.0], [615.5722066724546, -3.823569118345408], [659.7539553864424, -3.4508278585491508], [707.1067811865431, -3.285708237361713], [757.8582832551941, -3.270675402775319], [812.2523963562301, -3.281957716619485], [870.5505632961181, -3.1983693034572482], [923.0164644934468, -3.0], [933.0329915368008, -2.9661645752451387], [999.9999999999926, -2.6618727757158203], [1071.773462536285, -2.393106001532069], [1148.698354997026, -2.34209331700596], [1231.1444133449063, -2.6695383736443925], [1267.472233164272, -3.0], [1319.5079107728832, -3.4750962761605884], [1357.6842494469493, -4.0], [1414.2135623730828, -4.74189118222439], [1429.915744028639, -5.0], [1492.009919798729, -6.000000000000001], [1515.7165665103846, -6.357063997500122], [1555.198244432683, -7.0], [1621.3363869780414, -8.0], [1624.5047927124563, -8.046664228156608], [1698.8600594783707, -9.0], [1741.1011265922318, -9.509503393156361], [1814.4420711696082, -10.0], [1866.065983073597, -10.349922889532646], [1999.9999999999802, -10.299108328719978], [2039.2072953486704, -10.0], [2143.5469250725646, -9.233139580361312], [2161.828106779076, -9.0], [2239.3301171659677, -8.0], [2297.396709994046, -7.234374747638107], [2312.893302153417, -7.0], [2376.8130845199094, -6.0], [2436.0158747422097, -5.0], [2462.2888266898062, -4.580070814719629], [2500.7004966232234, -4.0], [2561.35056367884, -3.0], [2618.8581617913937, -2.0], [2639.01582154576, -1.6785892633483666], [2690.5613992385606, -1.0], [2759.6652093061034, 0.0], [2827.7544819937434, 1.0], [2828.427124746159, 1.0088687794305395], [2930.1639238327125, 2.0], [3026.8893096865017, 3.0], [3031.4331330207615, 3.0431745712793767], [3214.970220617995, 4.0], [3249.0095854249043, 4.169377062893341], [3482.2022531844555, 4.317623534482904], [3594.487003608683, 4.0], [3732.1319661471844, 3.605327809655929], [3853.008243877682, 3.0], [3999.9999999999504, 2.3036150288623296], [4054.28515241318, 2.0], [4238.3811932865765, 1.0], [4287.093850145118, 0.7520492251159338], [4441.580572671281, 0.0], [4594.793419988081, -0.6911420168596034], [4689.840222831765, -1.0], [4924.577653379601, -1.7430168920641242], [5107.743440399778, -2.0], [5278.031643091513, -2.248808332212929], [5656.854249492297, -2.174497492051317], [5775.416758150844, -2.0], [6062.866266041508, -1.6191998956128393], [6362.506182853767, -1.0], [6498.019170849792, -0.737609979042136], [6848.566217842273, 0.0], [6964.404506368894, 0.23091245276775085], [7446.151653995285, 1.0], [7464.2639322943505, 1.0276219425095763], [7999.999999999892, 1.3649828668648962]], 'minus_line': [[125.0, 8.628115308882961], [127.73948210796448, 8.0], [132.15528377099963, 7.0], [133.9716828170366, 6.624714253499132], [136.682128854044, 6.0], [140.78900844505984, 5.0], [143.5872943746293, 4.34394891490268], [145.14727055694755, 4.0], [149.3724780034073, 3.0], [153.37227181841982, 2.0], [153.8930516681145, 1.879930131518799], [158.12936267183736, 1.0], [162.3968589419937, 0.0], [164.93848884661162, -0.5790738713086996], [167.30329998155008, -1.0], [172.47775411628172, -2.0], [176.77669529663666, -2.8578143032397905], [177.78508037770715, -3.0], [184.65312852991931, -4.0], [189.46457081379947, -4.722557963348995], [192.3355046491387, -5.0], [202.64390954026325, -6.0], [203.0630990890585, -6.039231202843304], [217.6376408240306, -6.6960908479110754], [233.25824788420132, -6.7305528892986315], [249.99999999999937, -6.216506790876369], [254.0441321376642, -6.0], [267.94336563407256, -5.284160627656027], [272.4721353224908, -5.0], [287.1745887492579, -4.121677274165996], [289.1622960745773, -4.0], [305.9786083486368, -3.0], [307.78610333622805, -2.8973528072694212], [325.1841907947492, -2.0], [329.87697769322244, -1.7680946519941985], [349.45452372386035, -1.0], [353.55339059327247, -0.8421829413485749], [378.929141627598, -0.13880951469277417], [386.00254456040517, 0.0], [406.12619817811606, 0.3954004948662545], [435.2752816480601, 0.8212332146487062], [447.94661374636286, 1.0], [466.5164957684015, 1.2641857604008253], [499.9999999999975, 1.770606448987454], [513.8490050075766, 2.0], [535.8867312681438, 2.3678851000580288], [574.3491774985143, 2.9741486564173543], [576.2209297786492, 3.0], [615.5722066724546, 3.557801892594208], [659.7539553864432, 3.987956345950809], [661.6998899604511, 4.0], [707.1067811865431, 4.303396408033176], [757.8582832551941, 4.4941979243767625], [812.2523963562301, 4.646182443590636], [870.5505632961181, 4.846636031779713], [901.5714522853384, 5.0], [933.0329915368008, 5.165743584760415], [999.9999999999926, 5.5819802390503845], [1071.773462536285, 5.963425272087504], [1086.954754557429, 6.0], [1148.698354997026, 6.1607328850344425], [1206.4020583161798, 6.0], [1231.1444133449063, 5.938688160494061], [1319.5079107728832, 5.195248712296038], [1333.7060190319194, 5.0], [1407.9062142446421, 4.0], [1414.213562373081, 3.9185652953548114], [1472.4316880971742, 3.0], [1515.7165665103846, 2.312899338586593], [1536.1901163149216, 2.0], [1600.9976097829106, 1.0], [1624.5047927124563, 0.6479422492749454], [1679.2386646142893, 0.0], [1741.1011265922318, -0.7234619369725521], [1783.9165789499202, -1.0], [1866.065983073597, -1.492604915111348], [1999.9999999999802, -1.4485922002227465], [2067.0264428442006, -1.0], [2143.5469250725646, -0.5108369762324387], [2185.635783467549, 0.0], [2274.275417046619, 1.0], [2297.396709994046, 1.237367398816751], [2346.7550252434903, 2.0], [2415.9086135388643, 3.0], [2462.2888266898062, 3.573176836820682], [2489.568429403611, 4.0], [2552.2811062759065, 5.0], [2627.256226652242, 6.0], [2639.01582154576, 6.141577723526431], [2700.253357657857, 7.0], [2777.360462119777, 8.0], [2828.427124746159, 8.565233733579314], [2872.5753321066395, 9.0], [2977.9254059153436, 10.0], [3031.4331330207615, 10.452927447624994], [3139.722987849065, 11.0], [3249.0095854249043, 11.533913861471921], [3482.2022531844555, 11.695824485613251], [3732.1319661471844, 11.013300920313595], [3734.917484033966, 11.0], [3949.091209462608, 10.0], [3999.9999999999504, 9.76598495585938], [4148.631764935103, 9.0], [4287.093850145118, 8.270048167396013], [4347.041877161711, 8.0], [4566.5209065681565, 7.000000000000001], [4594.793419988081, 6.875472495370521], [4885.532025961965, 6.0], [4924.577653379601, 5.8862183214111745], [5278.031643091506, 5.466284575701142], [5656.854249492303, 5.607109806233625], [5927.007241884945, 6.0], [6062.866266041508, 6.205455023114748], [6462.787877748473, 7.0], [6498.019170849792, 7.070111799408327], [6953.16284151581, 8.0], [6964.404506368894, 8.022670626890353], [7464.2639322943505, 8.952950862912642], [7493.956181960378, 9.0], [7999.999999999892, 9.841538541897382]]}",,,,,,hoavur,001,fr,0,2022-05-04_15h53.14.005,Continuous,2022.1.1,None,
21,0,21,0,4,0,4,0,,,,,,,,1.4820830880944185,both,157.0,3.910138069222045,0.0006867713893297992,0,88,['both'],0.00258097006008029,0.19707617000676692,['space'],914.6588649000041,914.6588649000041,0.19707617000676692,1.6791592581011854,914.8745361999609,914.6588649000041,[-1.4116375999292359],,,,,,,,,,hoavur,001,fr,0,2022-05-04_15h53.14.005,Continuous,2022.1.1,None,
21,0,21,0,5,0,5,0,,,,,,,,1.4820830880944185,both,140.0,3.6792910134991264,0.0008999343128678716,0,89,['both'],0.007927770144306123,None,['space'],916.3940022999886,916.3940022999886,0.20436787011567503,1.6864509582100935,916.6106691999594,916.3940022999886,[-1.4185964999487624],,,,,,,,,,hoavur,001,fr,0,2022-05-04_15h53.14.005,Continuous,2022.1.1,None,
21,0,21,0,6,0,6,0,,,,,,,,1.4820830880944185,both,125.0,4.0,0.0011454338263838868,0,90,['both'],0.00812916993163526,None,['space'],918.1305957000004,918.1305957000004,0.20788927003741264,1.689972358131831,918.3396046999842,918.1305957000004,[-1.4115951999556273],,,,,,,,,,hoavur,001,fr,0,2022-05-04_15h53.14.005,Continuous,2022.1.1,None,
21,0,21,0,7,0,7,0,,,,,,,,1.4820830880944185,both,,,,1,90,['both'],0.007716770167462528,0.20203827018849552,['space'],919.8608741000062,919.8608741000062,0.20203827018849552,1.684121358282914,920.0781902000308,919.8608741000062,[-1.4288697999436408],,,,,,,,,,hoavur,001,fr,0,2022-05-04_15h53.14.005,Continuous,2022.1.1,None,
22,0,22,0,0,0,0,0,,,,,,925.8634783000452,None,2.0708388162658418,frequency,7127.0,-2.672956338554261,0.0001139981133721069,0,77,['both'],0.02387307002209127,None,None,926.9021932999603,None,0.22292356996331364,2.2937623862291554,927.1142239000183,None,,921.5937127000652,None,0.5833333333333334,,,,,,,hoavur,001,fr,0,2022-05-04_15h53.14.005,Continuous,2022.1.1,None,
22,0,22,0,1,0,1,0,,,,,,,,1.4965820206204103,frequency,4757.0,1.4538165307816486,0.00016081016502870603,0,78,['both'],0.006487570004537702,0.2013274700148031,None,929.2193999000592,929.2193999000592,0.2013274700148031,1.6979094906352135,929.4329151000129,929.2193999000592,,,,,,,,,,,hoavur,001,fr,0,2022-05-04_15h53.14.005,Continuous,2022.1.1,None,
22,0,22,0,2,0,2,0,,,,,,,,2.6395662353495704,frequency,3175.0,0.803804883740094,7.619262383655542e-05,0,79,['both'],0.007958870031870902,None,['space'],930.9620797999669,930.9620797999669,0.20409337000455707,2.8436596053541274,931.1847987000365,930.9620797999669,[-1.363090500002727],,,,,,,,,,hoavur,001,fr,0,2022-05-04_15h53.14.005,Continuous,2022.1.1,None,
22,0,22,0,3,0,3,0,,,,,,,,1.8740265928599744,frequency,2119.0,5.18500183782878,0.00014069211753222393,0,80,['both'],0.006970770074985921,0.20149126998148859,['space'],933.8594407000346,933.8594407000346,0.20149126998148859,2.075517862841463,934.0762221000623,933.8594407000346,[-2.4197138999588788],,,,,,,,,,hoavur,001,fr,0,2022-05-04_15h53.14.005,Continuous,2022.1.1,None,
22,0,22,0,4,0,4,0,,,,,,,,1.8406069063120687,frequency,1414.0,-3.0,3.57071160988931e-05,0,81,['both'],0.007377269910648465,0.20131846994627267,['space'],935.9827942999545,935.9827942999545,0.20131846994627267,2.0419253762583414,936.1950101000257,935.9827942999545,[-1.7439584000967443],,,,,,,,,,hoavur,001,fr,0,2022-05-04_15h53.14.005,Continuous,2022.1.1,None,
22,0,22,0,5,0,5,0,,,,,,,,1.9667599374635079,frequency,,,,1,81,['both'],0.007693169987760484,0.20480606995988637,['space'],938.068696900038,938.068696900038,0.20480606995988637,2.1715660074233942,938.2908673000056,938.068696900038,[-1.6700076999841258],,,,,,,,,,hoavur,001,fr,0,2022-05-04_15h53.14.005,Continuous,2022.1.1,None,
22,0,22,0,6,0,6,0,,,,,,,,1.5320181925464857,frequency,630.0,-1.5804446305865285,4.265282224753455e-05,0,82,['both'],0.0084849699633196,None,None,940.2838096000487,940.2838096000487,0.2036862700479105,1.7357044625943963,940.5009146999801,940.2838096000487,,,,,,,,,,,hoavur,001,fr,0,2022-05-04_15h53.14.005,Continuous,2022.1.1,None,
