sweeps.thisRepN,sweeps.thisTrialN,sweeps.thisN,sweeps.thisIndex,trials.thisRepN,trials.thisTrialN,trials.thisN,trials.thisIndex,instructions.started,instructions.stopped,blank_text.started,blank_text.stopped,,text.started,text.stopped,Delay,Prediction,Frequency,Volume,Psychopy_level,isCatchTrial,len(y),finished_audiograms,probe.started,probe.stopped,feedback.keys,feedback.started,feedback.stopped,ISI.started,ISI.stopped,text_2.started,text_2.stopped,feedback.rt,break_txt.started,break_txt.stopped,Intervals,Audiogram_none,participant,session,language (english or french),Resume previous experiment,date,expName,psychopyVersion,frameRate,
0,0,0,0,0,0,0,0,22.025116899982095,None,35.05399530008435,None,0.16666666666666666,36.99266369990073,None,1.8125787460200633,both,354.0,1.2263187207788544,0.00010191578955947554,0,25,[],0.005741866771131754,None,None,38.04129279986955,None,0.22751086670905352,2.040089612729117,38.26221389998682,None,,,,,,nlhglm,001,fr,0,2022-05-09_15h45.26.215,Continuous,2022.1.1,None,
0,0,0,0,1,0,1,0,,,,,,,,1.8125787460200633,both,315.0,1.9294178771973867,0.00012315183807726742,0,26,[],0.012230066815391183,None,None,40.09609579993412,40.09609579993412,0.216735566733405,2.0293143127534683,40.309425899991766,40.09609579993412,,,,,,nlhglm,001,fr,0,2022-05-09_15h45.26.215,Continuous,2022.1.1,None,
0,0,0,0,2,0,2,0,,,,,,,,1.8125787460200633,both,281.0,1.7241110506669104,0.00016420372894558185,0,27,[],0.011926366714760661,None,None,42.14250839990564,42.14250839990564,0.22191806673072278,2.034496812750786,42.355297999922186,42.14250839990564,,,,,,nlhglm,001,fr,0,2022-05-09_15h45.26.215,Continuous,2022.1.1,None,
0,0,0,0,3,0,3,0,,,,,,,,1.8125787460200633,both,250.0,1.006496228907721,0.00018805930023812312,0,28,[],0.010768066626042128,0.20576236676424742,None,44.203957699937746,44.203957699937746,0.20576236676424742,2.0183411127843107,44.41166640003212,44.203957699937746,,,,,,nlhglm,001,fr,0,2022-05-09_15h45.26.215,Continuous,2022.1.1,None,
0,0,0,0,4,0,4,0,,,,,,,,1.8125787460200633,both,223.0,3.086193723459298,0.00031440072716483887,0,29,[],0.011522466549649835,None,None,46.245755299925804,46.245755299925804,0.21898626652546227,2.0315650125455256,46.464312199968845,46.245755299925804,,,,,,nlhglm,001,fr,0,2022-05-09_15h45.26.215,Continuous,2022.1.1,None,
0,0,0,0,5,0,5,0,,,,,,,,1.8125787460200633,both,199.0,6.082740190945452,0.0005420323494683007,0,30,[],0.011757466709241271,None,None,48.29674250003882,48.29674250003882,0.2269126665778458,2.039491412597909,48.518989299889654,48.29674250003882,,,,,,nlhglm,001,fr,0,2022-05-09_15h45.26.215,Continuous,2022.1.1,None,
0,0,0,0,6,0,6,0,,,,,,,,1.8125787460200633,both,177.0,0.0,0.00034920770625886783,0,31,[],0.011503666639328003,None,['space'],50.36669809999876,50.36669809999876,0.218793066451326,2.0313718124713893,50.577251999871805,50.36669809999876,[-1.530975799774751],,,,,nlhglm,001,fr,0,2022-05-09_15h45.26.215,Continuous,2022.1.1,None,
0,0,0,0,7,0,7,0,,,,,,,,1.8125787460200633,both,158.0,3.1791577503092405,0.0006185021718011212,0,32,[],0.011921566678211093,None,None,52.41096149990335,52.41096149990335,0.21778446668758988,2.030363212707653,52.62456879997626,52.41096149990335,,,,,,nlhglm,001,fr,0,2022-05-09_15h45.26.215,Continuous,2022.1.1,None,
0,0,0,0,8,0,8,0,,,,,,,,1.8125787460200633,both,141.0,2.8834651109176304,0.000808736395287189,0,33,[],0.012061066692695022,None,None,54.463273599976674,54.463273599976674,0.2220749668776989,2.034653712897762,54.67951130005531,54.463273599976674,,,,,,nlhglm,001,fr,0,2022-05-09_15h45.26.215,Continuous,2022.1.1,None,
0,0,0,0,9,0,9,0,,,,,,,,1.8125787460200633,both,126.0,0.35979819526201595,0.0007440066866178032,0,34,[],0.011258066399022937,None,['space'],56.51333920005709,56.51333920005709,0.23237096657976508,2.0449497125998284,56.73750779987313,56.51333920005709,[-1.4537005999591202],,,,,nlhglm,001,fr,0,2022-05-09_15h45.26.215,Continuous,2022.1.1,None,
0,0,0,0,10,0,10,0,,,,,,,,1.8125787460200633,both,,,,1,34,[],0.010145066538825631,None,None,58.579955300083384,58.579955300083384,0.2303238664753735,2.042902612495437,58.7990822000429,58.579955300083384,,,,,,nlhglm,001,fr,0,2022-05-09_15h45.26.215,Continuous,2022.1.1,None,
1,0,1,0,0,0,0,0,,,,,,65.83068019989878,None,1.1030210537361766,none,334.0,2.1308622100958914,0.00011973736665169773,0,25,[],0.012477966491132975,None,None,66.85476029990241,None,0.2115400666370988,1.3145611203732754,67.06680139992386,None,,60.633280199952424,None,"[0.3333333333333333, 0.3333333333333333, 0.5833333333333334, 0.5833333333333334, 0.3333333333333333, 0.16666666666666666, 0.5833333333333334, 0.16666666666666666, 0.16666666666666666, 0.16666666666666666, 0.16666666666666666, 0.5833333333333334, 0.5833333333333334, 0.5833333333333334, 0.16666666666666666]",,nlhglm,001,fr,0,2022-05-09_15h45.26.215,Continuous,2022.1.1,None,
1,0,1,0,1,0,1,0,,,,,,,,1.3603725014009531,none,177.0,0.0,0.00034920770625886783,0,26,[],0.011004966450855136,None,['space'],68.19533080002293,68.19533080002293,0.21858886652626097,1.578961367927214,68.41448489995673,68.19533080002293,[-0.7833035998046398],,,,,nlhglm,001,fr,0,2022-05-09_15h45.26.215,Continuous,2022.1.1,None,
1,0,1,0,2,0,2,0,,,,,,,,1.629086622292255,none,,,,1,26,[],0.011270966613665223,None,None,69.80343539989553,69.80343539989553,0.21403186675161123,1.8431184890438663,70.01759629999287,69.80343539989553,,,,,,nlhglm,001,fr,0,2022-05-09_15h45.26.215,Continuous,2022.1.1,None,
1,0,1,0,3,0,3,0,,,,,,,,1.3775853754368184,none,158.0,3.630549363397902,0.00065149458386317,0,27,[],0.012896266533061862,None,None,71.66929590003565,71.66929590003565,0.21526916651055217,1.5928545419473705,71.88030970003456,71.66929590003565,,,,,,nlhglm,001,fr,0,2022-05-09_15h45.26.215,Continuous,2022.1.1,None,
1,0,1,0,4,0,4,0,,,,,,,,2.199614613535695,none,199.0,4.281119097701984,0.0004404982142262569,0,28,[],0.00815226649865508,None,['space'],73.28974199993536,73.28974199993536,0.21167216636240482,2.4112867798981,73.5126529999543,73.28974199993536,[-1.1732482998631895],,,,,nlhglm,001,fr,0,2022-05-09_15h45.26.215,Continuous,2022.1.1,None,
1,0,1,0,5,0,5,0,,,,,,,,2.269678622207059,none,749.0,0.8883687611841928,4.511536914099005e-05,0,29,[],0.011567766545340419,None,['space'],75.74189430009574,75.74189430009574,0.22133886674419045,2.4910174889512495,75.95810090005398,75.74189430009574,[-1.962424200028181],,,,,nlhglm,001,fr,0,2022-05-09_15h45.26.215,Continuous,2022.1.1,None,
1,0,1,0,6,0,6,0,,,,,,,,1.8114926062650263,none,841.0,1.727193252468096,4.823069292057497e-05,0,30,[],0.004707066575065255,None,None,78.24830750003457,78.24830750003457,0.20463626645505428,2.0161288727200803,78.4687926999759,78.24830750003457,,,,,,nlhglm,001,fr,0,2022-05-09_15h45.26.215,Continuous,2022.1.1,None,
1,0,1,0,7,0,7,0,,,,,,,,1.906628648897852,none,500.0,4.985540293578561,0.00012683730888936177,0,31,[],0.011473566526547074,None,None,80.31726359995082,80.31726359995082,0.2029187665320933,2.1095474154299456,80.5188261999283,80.31726359995082,,,,,,nlhglm,001,fr,0,2022-05-09_15h45.26.215,Continuous,2022.1.1,None,
1,0,1,0,8,0,8,0,,,,,,,,1.9743239972145392,none,223.0,2.8741101510326357,0.0003068169604671607,0,32,[],0.01148776663467288,None,['space'],82.45264660008252,82.45264660008252,0.21752196666784585,2.1918459638823853,82.67375349998474,82.45264660008252,[-1.6490382000338286],,,,,nlhglm,001,fr,0,2022-05-09_15h45.26.215,Continuous,2022.1.1,None,
2,0,2,0,0,0,0,0,,,,,,90.71699330001138,None,1.4102974837617113,none,4490.0,-9.141194150358153,4.107248106498828e-05,0,33,[],0.012523266719654202,None,None,91.75517549994402,None,0.25100556667894125,1.6613030504406525,91.99421779997647,None,,84.677038700087,None,"[0.3333333333333333, 0.3333333333333333, 0.16666666666666666, 0.3333333333333333, 0.3333333333333333, 0.5833333333333334, 0.16666666666666666, 0.3333333333333333, 0.3333333333333333, 0.5833333333333334, 0.16666666666666666, 0.3333333333333333, 0.5833333333333334, 0.5833333333333334, 0.16666666666666666]",,nlhglm,001,fr,0,2022-05-09_15h45.26.215,Continuous,2022.1.1,None,
2,0,2,0,1,0,1,0,,,,,,,,2.805550535718762,none,8000.0,-12.0,4.560054196779548e-05,0,34,[],0.010860866401344538,None,None,93.428125299979,93.428125299979,0.22930126660503447,3.0348518023237965,93.64986560004763,93.428125299979,,,,,,nlhglm,001,fr,0,2022-05-09_15h45.26.215,Continuous,2022.1.1,None,
2,0,2,0,2,0,2,0,,,,,,,,1.518232381731578,none,,,,1,34,[],0.010698866797611117,None,['space'],96.48120100004598,96.48120100004598,0.2072714667301625,1.7255038484617404,96.69322329992428,96.48120100004598,[-2.461728199850768],,,,,nlhglm,001,fr,0,2022-05-09_15h45.26.215,Continuous,2022.1.1,None,
2,0,2,0,3,0,3,0,,,,,,,,2.751390197054561,none,1335.0,-7.712934176525987,2.1561347648197186e-05,0,35,[],0.01209326647222042,None,None,98.23583910008892,98.23583910008892,0.2217017663642764,2.9730919634188373,98.45258959988132,98.23583910008892,,,,,,nlhglm,001,fr,0,2022-05-09_15h45.26.215,Continuous,2022.1.1,None,
2,0,2,0,4,0,4,0,,,,,,,,1.744935770464579,none,2997.0,-8.122225115241005,2.1593998380033524e-05,0,36,[],0.010033766506239772,None,['space'],101.23046889994293,101.23046889994293,0.21075546648353338,1.9556912369481123,101.44425669987686,101.23046889994293,[-1.7223141000140458],,,,,nlhglm,001,fr,0,2022-05-09_15h45.26.215,Continuous,2022.1.1,None,
2,0,2,0,5,0,5,0,,,,,,,,1.2764208057065878,none,6350.0,-6.670036744865224,6.102416439709932e-05,0,37,[],0.005529866786673665,None,['space'],103.23215930000879,103.23215930000879,0.21958316676318645,1.4960039724697742,103.44699049997143,103.23215930000879,[-0.12367439968511462],,,,,nlhglm,001,fr,0,2022-05-09_15h45.26.215,Continuous,2022.1.1,None,
2,0,2,0,6,0,6,0,,,,,,,,2.3880281811147803,none,5040.0,-7.6411581442589585,6.276214508872442e-05,0,38,[],0.010003266390413046,None,None,104.74939989997074,104.74939989997074,0.2154946664813906,2.603522847596171,104.96474949992262,104.74939989997074,,,,,,nlhglm,001,fr,0,2022-05-09_15h45.26.215,Continuous,2022.1.1,None,
2,0,2,0,7,0,7,0,,,,,,,,2.88756003859024,none,2379.0,-9.199564456861715,2.8854522548678222e-05,0,39,[],0.005963766947388649,None,['space'],107.37878470006399,107.37878470006399,0.21127846697345376,3.098838505563694,107.59696580003947,107.37878470006399,[-2.1576902999076992],,,,,nlhglm,001,fr,0,2022-05-09_15h45.26.215,Continuous,2022.1.1,None,
2,0,2,0,8,0,8,0,,,,,,,,1.7460052427083725,none,1682.0,-8.551997651622692,2.2584925405645064e-05,0,40,[],0.006992366397753358,None,None,110.51297789998353,110.51297789998353,0.21464786655269563,1.9606531092610682,110.7356632000301,110.51297789998353,,,,,,nlhglm,001,fr,0,2022-05-09_15h45.26.215,Continuous,2022.1.1,None,
3,0,3,0,0,0,0,0,,,,,,117.26236769999377,None,2.383313046154397,none,1499.0,0.6680683184351506,5.21911159719201e-05,0,41,[],0.01274816645309329,None,None,118.3080961999949,None,0.2181067664641887,2.6014198126185857,118.52223189990036,None,,112.50265159993432,None,"[0.5833333333333334, 0.5833333333333334, 0.3333333333333333, 0.3333333333333333, 0.5833333333333334, 0.16666666666666666, 0.5833333333333334, 0.16666666666666666, 0.16666666666666666, 0.16666666666666666, 0.5833333333333334, 0.3333333333333333, 0.16666666666666666, 0.3333333333333333, 0.3333333333333333]",,nlhglm,001,fr,0,2022-05-09_15h45.26.215,Continuous,2022.1.1,None,
3,0,3,0,1,0,1,0,,,,,,,,1.1902414137637702,none,1683.0,5.000293114881968,0.00010758642021690357,0,42,[],0.010176166659221053,None,None,120.93255189992487,120.93255189992487,0.21917566657066345,1.4094170803344337,121.1522069000639,120.93255189992487,,,,,,nlhglm,001,fr,0,2022-05-09_15h45.26.215,Continuous,2022.1.1,None,
3,0,3,0,2,0,2,0,,,,,,,,1.526528608784214,none,561.0,6.700315605430406,0.0001339391597736213,0,43,[],0.0106605663895607,None,['space'],122.36613520001993,122.36613520001993,0.22024816647171974,1.7467767752559338,122.58213609992526,122.36613520001993,[-1.1935621998272836],,,,,nlhglm,001,fr,0,2022-05-09_15h45.26.215,Continuous,2022.1.1,None,
3,0,3,0,3,0,3,0,,,,,,,,1.679497104367641,none,333.0,5.169963100503045,0.00017036740307471,0,44,[],0.0062015666626393795,None,None,124.12740319990553,124.12740319990553,0.2084417666774243,1.8879388710450653,124.3436402999796,124.12740319990553,,,,,,nlhglm,001,fr,0,2022-05-09_15h45.26.215,Continuous,2022.1.1,None,
3,0,3,0,4,0,4,0,,,,,,,,2.8215111398174937,none,,,,1,44,[],0.010827666614204645,None,['space'],126.06044250004925,126.06044250004925,0.22738876659423113,3.048899906411725,126.2790802998934,126.06044250004925,[-0.9365513997618109],,,,,nlhglm,001,fr,0,2022-05-09_15h45.26.215,Continuous,2022.1.1,None,
3,0,3,0,5,0,5,0,,,,,,,,1.4375755885399586,none,222.0,6.0,0.00044362670491473615,0,45,[],0.011776766506955028,None,['space'],129.11926629999653,129.11926629999653,0.2220502665732056,1.6596258551131642,129.33709979988635,129.11926629999653,[-2.3634694998618215],,,,,nlhglm,001,fr,0,2022-05-09_15h45.26.215,Continuous,2022.1.1,None,
3,0,3,0,6,0,6,0,,,,,,,,1.6990960993013624,none,794.0,6.468973153412939,8.137589217556876e-05,0,46,[],0.002702866680920124,None,['space'],130.8053748998791,130.8053748998791,0.2024879667442292,1.9015840660455916,131.02460030000657,130.8053748998791,[-1.169709999812767],,,,,nlhglm,001,fr,0,2022-05-09_15h45.26.215,Continuous,2022.1.1,None,
3,0,3,0,7,0,7,0,,,,,,,,2.9780008755669836,none,1190.0,1.2451155903019928,6.001444012443433e-05,0,47,[],0.006999666569754481,None,['space'],132.75223039998673,132.75223039998673,0.20801786659285426,3.186018742159838,132.97445370000787,132.75223039998673,[-1.4190797999035567],,,,,nlhglm,001,fr,0,2022-05-09_15h45.26.215,Continuous,2022.1.1,None,
3,0,3,0,8,0,8,0,,,,,,,,1.1192364040190963,none,140.0,4.211289392939448,0.0009567770070918925,0,48,[],0.010070966556668282,None,['space'],135.98133799992502,135.98133799992502,0.21880916669033468,1.338045570709431,136.19963639997877,135.98133799992502,[-2.7771679998841137],,,,,nlhglm,001,fr,0,2022-05-09_15h45.26.215,Continuous,2022.1.1,None,
3,0,3,0,9,0,9,0,,,,,,,,1.3574259874815509,none,2671.0,4.678731664015556,0.00012898895264484915,0,49,[],0.007197266677394509,None,None,137.34109789994545,137.34109789994545,0.21266756672412157,1.5700935542056724,137.5569990000222,137.34109789994545,,,,,,nlhglm,001,fr,0,2022-05-09_15h45.26.215,Continuous,2022.1.1,None,
3,0,3,0,10,0,10,0,,,,,,,,2.8071409396973777,none,630.0,7.340126943693964,0.00011911771435261171,0,50,[],0.006968366680666804,None,None,138.94477649987675,138.94477649987675,0.21559486677870154,3.022735806476079,139.15950739989057,138.94477649987675,,,,,,nlhglm,001,fr,0,2022-05-09_15h45.26.215,Continuous,2022.1.1,None,
3,0,3,0,11,0,11,0,,,,,,,,1.9964334015451348,none,2120.0,5.803885895038629,0.00015112567474391732,0,51,[],0.0101689666043967,None,None,141.99313140008599,141.99313140008599,0.22022256650961936,2.216655968054754,142.2155766999349,141.99313140008599,,,,,,nlhglm,001,fr,0,2022-05-09_15h45.26.215,Continuous,2022.1.1,None,
3,0,3,0,12,0,12,0,,,,,,,,1.1801978871404593,none,176.0,6.095085615019223,0.0007117771033339637,0,52,[],0.008010666584596038,None,None,144.23177419998683,144.23177419998683,0.2105826665647328,1.390780553705192,144.45110439998098,144.23177419998683,,,,,,nlhglm,001,fr,0,2022-05-09_15h45.26.215,Continuous,2022.1.1,None,
3,0,3,0,13,0,13,0,,,,,,,,1.0837828046391809,none,707.0,6.0,8.861421213226143e-05,0,53,[],0.009940466610714793,None,['space'],145.65569279994816,145.65569279994816,0.22765606665052474,1.3114388712897056,145.87648959993385,145.65569279994816,[-0.8355059998575598],,,,,nlhglm,001,fr,0,2022-05-09_15h45.26.215,Continuous,2022.1.1,None,
4,0,4,0,0,0,0,0,,,,,,156.7059972998686,None,2.580827600430295,none,354.0,17.0,0.0006265064367964709,0,54,[],0.012844766490161419,None,['space'],157.75166879990138,None,0.2376325665973127,2.8184601670276077,157.98001120006666,None,[-3.2362758996896446],146.9878537999466,None,"[0.5833333333333334, 0.16666666666666666, 0.5833333333333334, 0.3333333333333333, 0.5833333333333334, 0.16666666666666666, 0.5833333333333334, 0.3333333333333333, 0.5833333333333334, 0.5833333333333334, 0.16666666666666666, 0.16666666666666666, 0.3333333333333333, 0.5833333333333334, 0.16666666666666666]",,nlhglm,001,fr,0,2022-05-09_15h45.26.215,Continuous,2022.1.1,None,
4,0,4,0,1,0,1,0,,,,,,,,2.226870485021649,none,236.0,8.787133988878697,0.0005360359243449805,0,55,[],0.009464066475629807,None,['space'],160.58041259995662,160.58041259995662,0.22307636658661067,2.4499468516082596,160.79773589991964,160.58041259995662,[-2.33528869994916],,,,,nlhglm,001,fr,0,2022-05-09_15h45.26.215,Continuous,2022.1.1,None,
4,0,4,0,2,0,2,0,,,,,,,,2.9047322237757065,none,,,,1,55,[],0.008008466335013509,None,['space'],163.0523278999608,163.0523278999608,0.21969976648688316,3.1244319902625897,163.2706583000254,163.0523278999608,[-2.0551616000011563],,,,,nlhglm,001,fr,0,2022-05-09_15h45.26.215,Continuous,2022.1.1,None,
4,0,4,0,3,0,3,0,,,,,,,,1.4142455567170122,none,187.0,15.032016298263104,0.0017654312168300685,0,56,[],0.01100136642344296,None,None,166.19513150001876,166.19513150001876,0.21709396643564105,1.6313395231526533,166.40805809991434,166.19513150001876,,,,,,nlhglm,001,fr,0,2022-05-09_15h45.26.215,Continuous,2022.1.1,None,
4,0,4,0,4,0,4,0,,,,,,,,2.239870379894719,none,530.0,10.823392554220415,0.0002321220746797398,0,57,[],0.007497466402128339,None,['space'],167.84947360004298,167.84947360004298,0.21664526662789285,2.456515646522612,168.069112499943,167.84947360004298,[-1.2698261998593807],,,,,nlhglm,001,fr,0,2022-05-09_15h45.26.215,Continuous,2022.1.1,None,
4,0,4,0,5,0,5,0,,,,,,,,2.377507614618049,none,842.0,11.068953515370996,0.00014148931075961196,0,58,[],0.00955216633155942,None,['space'],170.33166379993781,170.33166379993781,0.21894176630303264,2.5964493809210816,170.54161359998398,170.33166379993781,[-1.9278526999987662],,,,,nlhglm,001,fr,0,2022-05-09_15h45.26.215,Continuous,2022.1.1,None,
4,0,4,0,6,0,6,0,,,,,,,,2.6242060099326716,none,668.0,11.134790937521736,0.0001723697520825621,0,59,[],0.003263266524299979,None,['space'],172.9504098999314,172.9504098999314,0.202739066677168,2.8269450766098396,173.17543400009163,172.9504098999314,[-2.0023830998688936],,,,,nlhglm,001,fr,0,2022-05-09_15h45.26.215,Continuous,2022.1.1,None,
4,0,4,0,7,0,7,0,,,,,,,,2.719861416221155,none,595.0,9.566191300199492,0.00017033943109475794,0,60,[],0.004133966518566012,None,['space'],175.83063059998676,175.83063059998676,0.20576816657558084,2.925629582796736,176.05133010004647,175.83063059998676,[-0.9468787999358028],,,,,nlhglm,001,fr,0,2022-05-09_15h45.26.215,Continuous,2022.1.1,None,
4,0,4,0,8,0,8,0,,,,,,,,2.870661678275348,none,1262.0,16.893302286194242,0.00037910103299928556,0,61,[],0.007946566678583622,None,['space'],178.7994629999157,178.7994629999157,0.2097115668002516,3.0803732450755996,179.01877700001933,178.7994629999157,[-2.411282100016251],,,,,nlhglm,001,fr,0,2022-05-09_15h45.26.215,Continuous,2022.1.1,None,
4,0,4,0,9,0,9,0,,,,,,,,1.2398232736555794,none,1417.0,8.324169554487948,0.00013131715531543883,0,62,[],0.009165266528725624,None,['space'],181.9131491999142,181.9131491999142,0.22446506656706333,1.4642883402226428,182.13167889998294,181.9131491999142,[-2.6615279000252485],,,,,nlhglm,001,fr,0,2022-05-09_15h45.26.215,Continuous,2022.1.1,None,
4,0,4,0,10,0,10,0,,,,,,,,2.8899346802147936,none,125.0,9.36393635239176,0.00212406020303665,0,63,[],0.009409366408362985,None,['space'],183.39663370000198,183.39663370000198,0.2181732663884759,3.1081079466032695,183.61322569986805,183.39663370000198,[-1.0233772997744381],,,,,nlhglm,001,fr,0,2022-05-09_15h45.26.215,Continuous,2022.1.1,None,
5,0,5,0,0,0,0,0,,,,,0.5833333333333334,189.89329829998314,None,1.1834249216292496,both,8000.0,-11.0,5.116464961403774e-05,0,35,[],0.007248066598549485,None,None,190.9086718999315,None,0.21028996678069234,1.393714888409942,191.12991699995473,None,,186.53413049993105,None,,,nlhglm,001,fr,0,2022-05-09_15h45.26.215,Continuous,2022.1.1,None,
5,0,5,0,1,0,1,0,,,,,,,,1.1834249216292496,both,5339.0,-8.108582909833506,5.513891117781387e-05,0,36,[],0.008677566656842828,None,None,192.34677949990146,192.34677949990146,0.21821116656064987,1.4016360881898995,192.55772839998826,192.34677949990146,,,,,,nlhglm,001,fr,0,2022-05-09_15h45.26.215,Continuous,2022.1.1,None,
5,0,5,0,2,0,2,0,,,,,,,,1.1834249216292496,both,3563.0,-10.175370038993702,2.3636321006457122e-05,0,37,[],0.009596066549420357,None,None,193.76539180008695,193.76539180008695,0.22216466651298106,1.4055895881422307,193.9781817998737,193.76539180008695,,,,,,nlhglm,001,fr,0,2022-05-09_15h45.26.215,Continuous,2022.1.1,None,
5,0,5,0,3,0,3,0,,,,,,,,1.1834249216292496,both,2378.0,1.8599591280255217,0.00010305625680527088,0,38,[],0.008729166584089398,None,None,195.1834485998843,195.1834485998843,0.21425336645916104,1.3976782880884107,195.4048679000698,195.1834485998843,,,,,,nlhglm,001,fr,0,2022-05-09_15h45.26.215,Continuous,2022.1.1,None,
5,0,5,0,4,0,4,0,,,,,,,,1.1834249216292496,both,1587.0,-8.092913281076383,2.19198441933683e-05,0,39,[],0.008865866577252746,0.20292436657473445,None,196.61951659992337,196.61951659992337,0.20292436657473445,1.386349288203984,196.8259407998994,196.61951659992337,,,,,,nlhglm,001,fr,0,2022-05-09_15h45.26.215,Continuous,2022.1.1,None,
5,0,5,0,5,0,5,0,,,,,,,,1.1834249216292496,both,1059.0,-1.3356105339959399,3.9889763078587735e-05,0,40,[],0.009362366748973727,None,None,198.0359211000614,198.0359211000614,0.21924326685257256,1.4026681884818222,198.2548148999922,198.0359211000614,,,,,,nlhglm,001,fr,0,2022-05-09_15h45.26.215,Continuous,2022.1.1,None,
5,0,5,0,6,0,6,0,,,,,,,,1.1834249216292496,both,707.0,-9.049115719773372,1.5669227805154164e-05,0,41,[],0.00934936641715467,None,None,199.46251149987802,199.46251149987802,0.21975526632741094,1.4031801879566606,199.68723680009134,199.46251149987802,,,,,,nlhglm,001,fr,0,2022-05-09_15h45.26.215,Continuous,2022.1.1,None,
5,0,5,0,7,0,7,0,,,,,,,,1.1834249216292496,both,,,,1,41,[],0.0033748666755855083,None,None,200.89299710001796,200.89299710001796,0.19815636659041047,1.38158128821966,201.11499410006218,200.89299710001796,,,,,,nlhglm,001,fr,0,2022-05-09_15h45.26.215,Continuous,2022.1.1,None,
5,0,5,0,8,0,8,0,,,,,,,,1.1834249216292496,both,315.0,-5.536591579889248,5.213632621278409e-05,0,42,[],0.0100897669326514,None,None,202.32539630006067,202.32539630006067,0.21234546694904566,1.3957703885782953,202.54646770004183,202.32539630006067,,,,,,nlhglm,001,fr,0,2022-05-09_15h45.26.215,Continuous,2022.1.1,None,
6,0,6,0,0,0,0,0,,,,,,208.95130610000342,None,2.700633367386038,none,956.0,4.906167658177298,7.529588681244434e-05,0,64,[],0.012808966916054487,None,None,210.00235219998285,None,0.2147076667752117,2.9153410341612496,210.21066209999844,None,,203.76432810002007,None,"[0.3333333333333333, 0.3333333333333333, 0.16666666666666666, 0.3333333333333333, 0.3333333333333333, 0.16666666666666666, 0.3333333333333333, 0.3333333333333333, 0.16666666666666666, 0.16666666666666666, 0.5833333333333334, 0.3333333333333333, 0.5833333333333334, 0.16666666666666666, 0.3333333333333333]",,nlhglm,001,fr,0,2022-05-09_15h45.26.215,Continuous,2022.1.1,None,
6,0,6,0,1,0,1,0,,,,,,,,2.044277707623004,none,1702.0,0.9135891064482857,6.816125982742489e-05,0,65,[],0.0013689666520804167,None,['space'],212.94483399996534,212.94483399996534,0.20328846666961908,2.247566174292623,213.1583255000878,212.94483399996534,[-2.3643504998181015],,,,,nlhglm,001,fr,0,2022-05-09_15h45.26.215,Continuous,2022.1.1,None,
6,0,6,0,2,0,2,0,,,,,,,,2.588255547779253,none,1204.0,2.6744373835109854,7.154597535494074e-05,0,66,[],0.008761866483837366,None,None,215.2324846999254,215.2324846999254,0.21817776653915644,2.8064333143184093,215.45988720003515,215.2324846999254,,,,,,nlhglm,001,fr,0,2022-05-09_15h45.26.215,Continuous,2022.1.1,None,
6,0,6,0,3,0,3,0,,,,,,,,1.8142411944942816,none,4287.0,4.0,0.00016433358313014583,0,67,[],0.008726666448637843,None,"['space', 'space']",218.06727589992806,218.06727589992806,0.20170946652069688,2.0159506610149784,218.27543829986826,218.06727589992806,"[-2.3673845999874175, -0.06348769995383918]",,,,,nlhglm,001,fr,0,2022-05-09_15h45.26.215,Continuous,2022.1.1,None,
6,0,6,0,4,0,4,0,,,,,,,,1.6063668864161653,none,2144.0,3.984632577572799,0.00012340926889415236,0,68,[],0.008689066395163536,None,['space'],220.12282299995422,220.12282299995422,0.21915606642141938,1.8255229528375847,220.34780979994684,220.12282299995422,[-1.2872546999715269],,,,,nlhglm,001,fr,0,2022-05-09_15h45.26.215,Continuous,2022.1.1,None,
6,0,6,0,5,0,5,0,,,,,,,,2.1915629791702402,none,3031.0,3.1897498379744285,8.338667839145466e-05,0,69,[],0.008554666535928845,None,None,221.9759833998978,221.9759833998978,0.21944916644133627,2.4110121456115765,222.198463199893,221.9759833998978,,,,,,nlhglm,001,fr,0,2022-05-09_15h45.26.215,Continuous,2022.1.1,None,
6,0,6,0,6,0,6,0,,,,,,,,2.612869808604481,none,7210.0,2.849040241018553,0.00021876954134831378,0,70,[],0.00829806667752564,None,['space'],224.41573600005358,224.41573600005358,0.22488826652988791,2.837758075134369,224.6329500998836,224.41573600005358,[-1.9158899998292327],,,,,nlhglm,001,fr,0,2022-05-09_15h45.26.215,Continuous,2022.1.1,None,
6,0,6,0,7,0,7,0,,,,,,,,2.6918793830616514,none,1351.0,-1.001112437834425,4.6340651332040847e-05,0,71,[],0.006586866686120629,None,['space'],227.26768309995532,227.26768309995532,0.2112449666019529,2.9031243496636043,227.49207399995066,227.26768309995532,[-2.446949699893594],,,,,nlhglm,001,fr,0,2022-05-09_15h45.26.215,Continuous,2022.1.1,None,
6,0,6,0,8,0,8,0,,,,,,,,2.673049091402093,none,,,,1,71,[],0.0022613664623349905,None,['space'],230.20959999994375,230.20959999994375,0.19916666648350656,2.8722157578855994,230.42732660006732,230.20959999994375,[-2.4451234000734985],,,,,nlhglm,001,fr,0,2022-05-09_15h45.26.215,Continuous,2022.1.1,None,
6,0,6,0,9,0,9,0,,,,,,,,1.5077587832258261,none,3819.0,2.7734306179386814,0.00011114334932784256,0,72,[],0.005041866563260555,None,None,233.13027499988675,233.13027499988675,0.20290856645442545,1.7106673496802516,233.3481900000479,233.13027499988675,,,,,,nlhglm,001,fr,0,2022-05-09_15h45.26.215,Continuous,2022.1.1,None,
6,0,6,0,10,0,10,0,,,,,,,,2.007382108879487,none,4812.0,0.7878302133070303,0.00015308458820078119,0,73,[],0.008524766424670815,None,None,234.8866172998678,234.8866172998678,0.22517336648888886,2.232555475368376,235.10484899999574,234.8866172998678,,,,,,nlhglm,001,fr,0,2022-05-09_15h45.26.215,Continuous,2022.1.1,None,
7,0,7,0,0,0,0,0,,,,,,239.34574540005997,None,2.897338065717574,time,177.0,0.0,0.00034920770625886783,0,25,[],0.012899366673082113,None,None,240.36492839991115,None,0.21395666664466262,3.1112947323622366,240.57302149990574,None,,237.18769809999503,None,"[0.5833333333333334, 0.5833333333333334, 0.3333333333333333, 0.16666666666666666, 0.16666666666666666, 0.5833333333333334, 0.16666666666666666, 0.5833333333333334, 0.5833333333333334, 0.3333333333333333, 0.5833333333333334, 0.3333333333333333, 0.5833333333333334, 0.5833333333333334, 0.5833333333333334]",,nlhglm,001,fr,0,2022-05-09_15h45.26.215,Continuous,2022.1.1,None,
7,0,7,0,1,0,1,0,,,,,,,,2.897338065717574,time,334.0,1.8606726440916037,0.00011607006410636646,0,26,[],0.007682366529479623,None,None,243.4966984000057,243.4966984000057,0.21967706643044949,3.1170151321480235,243.71317039988935,243.4966984000057,,,,,,nlhglm,001,fr,0,2022-05-09_15h45.26.215,Continuous,2022.1.1,None,
7,0,7,0,2,0,2,0,,,,,,,,2.897338065717574,time,631.0,6.281254954521641,0.00010526591322797344,0,27,[],0.008133666822686791,None,['space'],246.6389027000405,246.6389027000405,0.21414856682531536,3.1114866325428894,246.85012469999492,246.6389027000405,[-1.0987535999156535],,,,,nlhglm,001,fr,0,2022-05-09_15h45.26.215,Continuous,2022.1.1,None,
7,0,7,0,3,0,3,0,,,,,,,,2.897338065717574,time,1416.0,-0.5964767612895476,4.704388556071684e-05,0,28,[],0.007782066473737359,None,['space'],249.77613099990413,249.77613099990413,0.2183559664990753,3.1156940322166493,249.99690759996884,249.77613099990413,[-2.716041099978611],,,,,nlhglm,001,fr,0,2022-05-09_15h45.26.215,Continuous,2022.1.1,None,
7,0,7,0,4,0,4,0,,,,,,,,2.897338065717574,time,421.0,1.0316198075091654,8.500032756117884e-05,0,29,[],0.003266566665843129,None,None,252.91563609987497,252.91563609987497,0.20096136652864516,3.098299432246219,253.13296419987455,252.91563609987497,,,,,,nlhglm,001,fr,0,2022-05-09_15h45.26.215,Continuous,2022.1.1,None,
7,0,7,0,5,0,5,0,,,,,,,,2.897338065717574,time,,,,1,29,[],0.007808166788890958,None,None,256.0645695000421,256.0645695000421,0.21932706679217517,3.116665132509749,256.2812965998892,256.0645695000421,,,,,,nlhglm,001,fr,0,2022-05-09_15h45.26.215,Continuous,2022.1.1,None,
7,0,7,0,6,0,6,0,,,,,,,,2.897338065717574,time,945.0,0.7471383204586264,4.6305854277550776e-05,0,30,[],0.00883266655728221,None,None,259.20121650001965,259.20121650001965,0.21424236660823226,3.1115804323258063,259.42433429998346,259.20121650001965,,,,,,nlhglm,001,fr,0,2022-05-09_15h45.26.215,Continuous,2022.1.1,None,
7,0,7,0,7,0,7,0,,,,,,,,2.897338065717574,time,223.0,4.919593655097211,0.00038828761509110995,0,31,[],0.0037927667144685984,None,None,262.3403807999566,262.3403807999566,0.20571376662701368,3.1030518323445877,262.55634919996373,262.3403807999566,,,,,,nlhglm,001,fr,0,2022-05-09_15h45.26.215,Continuous,2022.1.1,None,
8,0,8,0,0,0,0,0,,,,,0.16666666666666666,269.0916677999776,None,2.732874790428266,both,2462.0,5.520111397391555,0.00016058150658053747,0,43,[],0.012960966443642974,None,['space'],270.1310342999641,None,0.23146676644682884,2.964341556875095,270.3572354000062,None,[-0.8464727997779846],265.48395840008743,None,,,nlhglm,001,fr,0,2022-05-09_15h45.26.215,Continuous,2022.1.1,None,
8,0,8,0,1,0,1,0,,,,,,,,2.732874790428266,both,2193.0,4.033987350636881,0.00012584075299363034,0,44,[],0.006596266524866223,None,None,273.11480290000327,273.11480290000327,0.21853516646660864,2.951409956894875,273.3267175999936,273.11480290000327,,,,,,nlhglm,001,fr,0,2022-05-09_15h45.26.215,Continuous,2022.1.1,None,
8,0,8,0,2,0,2,0,,,,,,,,2.732874790428266,both,1954.0,5.46755591324394,0.000136495925077221,0,45,[],0.005175166297703981,None,"['space', 'space', 'space']",276.08731850003824,276.08731850003824,0.21188726648688316,2.9447620569151494,276.3071178998798,276.08731850003824,"[-2.4033051999285817, -0.8992683000396937, 0.18794930004514754]",,,,,nlhglm,001,fr,0,2022-05-09_15h45.26.215,Continuous,2022.1.1,None,
8,0,8,0,3,0,3,0,,,,,,,,2.732874790428266,both,1741.0,3.021551931418472,8.937680584438775e-05,0,46,[],0.007133166771382093,None,['space'],279.0713110000361,279.0713110000361,0.21241346676833928,2.9452882571966055,279.2869480000809,279.0713110000361,[-1.1478299999143928],,,,,nlhglm,001,fr,0,2022-05-09_15h45.26.215,Continuous,2022.1.1,None,
8,0,8,0,4,0,4,0,,,,,,,,2.732874790428266,both,1551.0,0.7165802424938579,5.7135463281054566e-05,0,47,[],0.003478266531601548,None,"['space', 'space']",282.04633409995586,282.04633409995586,0.19926316640339792,2.932137956831664,282.2662362998817,282.04633409995586,"[-2.5550484000705183, -1.018471400020644]",,,,,nlhglm,001,fr,0,2022-05-09_15h45.26.215,Continuous,2022.1.1,None,
8,0,8,0,5,0,5,0,,,,,,,,2.732874790428266,both,1382.0,0.4378721702124928,5.38810118549175e-05,0,48,[],0.006710066692903638,None,"['space', 'space']",285.0311380000785,285.0311380000785,0.22028256650082767,2.953157356929094,285.24982029991224,285.0311380000785,"[-2.5471859998069704, -0.8980269997846335]",,,,,nlhglm,001,fr,0,2022-05-09_15h45.26.215,Continuous,2022.1.1,None,
8,0,8,0,6,0,6,0,,,,,,,,2.732874790428266,both,1231.0,6.0,0.00010717453610474498,0,49,[],0.00734366662800312,None,"['space', 'space']",288.0086423999164,288.0086423999164,0.21570086665451527,2.9485756570827815,288.22531330003403,288.0086423999164,"[-2.4528838000260293, -0.8849833998829126]",,,,,nlhglm,001,fr,0,2022-05-09_15h45.26.215,Continuous,2022.1.1,None,
8,0,8,0,7,0,7,0,,,,,,,,2.732874790428266,both,1097.0,2.666021464489768,6.539333601570868e-05,0,50,[],0.005558466538786888,None,['space'],290.9847577000037,290.9847577000037,0.208162066526711,2.941036856954977,291.2069049999118,290.9847577000037,[-2.485373399918899],,,,,nlhglm,001,fr,0,2022-05-09_15h45.26.215,Continuous,2022.1.1,None,
8,0,8,0,8,0,8,0,,,,,,,,2.732874790428266,both,977.0,5.593962119752961,8.26371324850244e-05,0,51,[],0.007262866711243987,0.19847276667132974,None,293.97003339999355,293.97003339999355,0.19847276667132974,2.931347557099596,294.1793670000043,293.97003339999355,,,,,,nlhglm,001,fr,0,2022-05-09_15h45.26.215,Continuous,2022.1.1,None,
8,0,8,0,9,0,9,0,,,,,,,,2.732874790428266,both,870.0,6.078742844468949,8.125732353989179e-05,0,52,[],0.005103066563606262,0.196733066579327,None,296.9477287000045,296.9477287000045,0.196733066579327,2.929607857007593,297.1507723000832,296.9477287000045,,,,,,nlhglm,001,fr,0,2022-05-09_15h45.26.215,Continuous,2022.1.1,None,
8,0,8,0,10,0,10,0,,,,,,,,2.732874790428266,both,775.0,6.527655568633225,8.37592244423624e-05,0,53,[],0.004644866334274411,0.19349416624754667,None,299.9144244999625,299.9144244999625,0.19349416624754667,2.926368956675813,300.1187239000574,299.9144244999625,,,,,,nlhglm,001,fr,0,2022-05-09_15h45.26.215,Continuous,2022.1.1,None,
8,0,8,0,11,0,11,0,,,,,,,,2.732874790428266,both,690.0,7.346811865154136,0.00010695041964664715,0,54,[],0.0069068665616214275,0.19775506644509733,None,302.88207209995016,302.88207209995016,0.19775506644509733,2.9306298568733635,303.0839825998992,302.88207209995016,,,,,,nlhglm,001,fr,0,2022-05-09_15h45.26.215,Continuous,2022.1.1,None,
8,0,8,0,12,0,12,0,,,,,,,,2.732874790428266,both,615.0,6.227303192557851,0.00010958641740214521,0,55,[],0.006303966511040926,None,None,305.8553317999467,305.8553317999467,0.20416056644171476,2.937035356869981,306.0614098000806,305.8553317999467,,,,,,nlhglm,001,fr,0,2022-05-09_15h45.26.215,Continuous,2022.1.1,None,
8,0,8,0,13,0,13,0,,,,,,,,2.732874790428266,both,,,,1,55,[],0.015606933506205678,None,None,308.832861199975,308.832861199975,0.23299023346044123,2.9658650238887074,309.0572347000707,308.832861199975,,,,,,nlhglm,001,fr,0,2022-05-09_15h45.26.215,Continuous,2022.1.1,None,
8,0,8,0,14,0,14,0,,,,,,,,2.732874790428266,both,488.0,6.36634651223344,0.0001499680275264562,0,56,[],0.008117466466501355,0.20033556665293872,['space'],311.8181201000698,311.8181201000698,0.20033556665293872,2.933210357081205,312.0258625000715,311.8181201000698,[-0.29434069991111755],,,,,nlhglm,001,fr,0,2022-05-09_15h45.26.215,Continuous,2022.1.1,None,
9,0,9,0,0,0,0,0,,,,,,323.73393270000815,None,1.7484465850989228,none,,,,1,73,[],0.01276666671037674,None,None,324.78029799996875,None,0.24055616674013436,1.9890027518390572,325.0104352000635,None,,314.7957973999437,None,"[0.5833333333333334, 0.16666666666666666, 0.16666666666666666, 0.5833333333333334, 0.5833333333333334, 0.16666666666666666, 0.16666666666666666, 0.5833333333333334, 0.16666666666666666, 0.16666666666666666, 0.3333333333333333, 0.3333333333333333, 0.3333333333333333, 0.3333333333333333, 0.16666666666666666]",,nlhglm,001,fr,0,2022-05-09_15h45.26.215,Continuous,2022.1.1,None,
9,0,9,0,1,0,1,0,,,,,,,,1.3297645424939017,none,125.0,-3.0,0.0005116464961403772,0,74,[],0.008109466638416052,None,None,326.7819425999187,326.7819425999187,0.2189149665646255,1.5486795090585272,327.0022161998786,326.7819425999187,,,,,,nlhglm,001,fr,0,2022-05-09_15h45.26.215,Continuous,2022.1.1,None,
9,0,9,0,2,0,2,0,,,,,,,,2.234139396739897,none,374.0,1.2935672554163777,9.668192651658377e-05,0,75,[],0.0040109665133059025,None,None,328.36050760000944,328.36050760000944,0.20902776648290455,2.4431671632228014,328.57844850001857,328.36050760000944,,,,,,nlhglm,001,fr,0,2022-05-09_15h45.26.215,Continuous,2022.1.1,None,
9,0,9,0,3,0,3,0,,,,,,,,2.9325810184781953,none,210.0,1.1317424302880994,0.00028006439656536546,0,76,[],0.004575066501274705,None,None,330.84360889997333,330.84360889997333,0.2047362665180117,3.137317284996207,331.0597663000226,330.84360889997333,,,,,,nlhglm,001,fr,0,2022-05-09_15h45.26.215,Continuous,2022.1.1,None,
9,0,9,0,4,0,4,0,,,,,,,,1.5811267819137078,none,471.0,4.431754802277761,0.00012147114718214552,0,77,[],0.006464966805651784,None,None,334.0241316999309,334.0241316999309,0.2127895667217672,1.793916348635475,334.2362285000272,334.0241316999309,,,,,,nlhglm,001,fr,0,2022-05-09_15h45.26.215,Continuous,2022.1.1,None,
9,0,9,0,5,0,5,0,,,,,,,,1.3386243230654906,none,666.0,-1.015985627903131,4.270824557663659e-05,0,78,[],0.0015254663303494453,None,None,335.8561843999196,335.8561843999196,0.20899186632595956,1.5476161893914502,336.07005329988897,335.8561843999196,,,,,,nlhglm,001,fr,0,2022-05-09_15h45.26.215,Continuous,2022.1.1,None,
9,0,9,0,6,0,6,0,,,,,,,,2.143334924703389,none,236.0,4.642501872774671,0.0003326306700520475,0,79,[],0.002939366502687335,None,None,337.43880930007435,337.43880930007435,0.21610596659593284,2.3594408912993217,337.66655860003084,337.43880930007435,,,,,,nlhglm,001,fr,0,2022-05-09_15h45.26.215,Continuous,2022.1.1,None,
9,0,9,0,7,0,7,0,,,,,,,,2.3877218159621982,none,297.0,2.228374145180564,0.00015211082033667438,0,80,[],0.006530966609716415,None,['space'],339.8357686998788,339.8357686998788,0.21390046668238938,2.6016222826445876,340.0568434000015,339.8357686998788,[-1.7827121999580413],,,,,nlhglm,001,fr,0,2022-05-09_15h45.26.215,Continuous,2022.1.1,None,
9,0,9,0,8,0,8,0,,,,,,,,1.4321457736977088,none,593.0,2.6866574737026196,7.757555412734656e-05,0,81,[],0.006450466578826308,None,None,342.47326119989157,342.47326119989157,0.22678346652537584,1.6589292402230846,342.69768609991297,342.47326119989157,,,,,,nlhglm,001,fr,0,2022-05-09_15h45.26.215,Continuous,2022.1.1,None,
9,0,9,0,9,0,9,0,,,,,,,,2.546115567938659,none,187.0,3.648926641064019,0.00047609795799583856,0,82,[],0.00640476681292057,None,None,344.15449390001595,344.15449390001595,0.21283906674943864,2.7589546346880978,344.37581559992395,344.15449390001595,,,,,,nlhglm,001,fr,0,2022-05-09_15h45.26.215,Continuous,2022.1.1,None,
10,0,10,0,0,0,0,0,,,,,,352.6340256999247,None,1.148050767765602,none,3563.0,-6.470406514550249,3.620996089099502e-05,0,83,[],0.012722966494038701,None,None,353.6632761999499,None,0.22201796644367278,1.3700687342092748,353.88411089987494,None,,346.94791199988686,None,"[0.3333333333333333, 0.3333333333333333, 0.3333333333333333, 0.5833333333333334, 0.5833333333333334, 0.3333333333333333, 0.3333333333333333, 0.5833333333333334, 0.5833333333333334, 0.3333333333333333, 0.16666666666666666, 0.5833333333333334, 0.3333333333333333, 0.3333333333333333, 0.5833333333333334]",,nlhglm,001,fr,0,2022-05-09_15h45.26.215,Continuous,2022.1.1,None,
10,0,10,0,1,0,1,0,,,,,,,,1.1686432845006798,none,8000.0,-13.0,4.064152580820497e-05,0,84,['none'],0.001859466778114438,None,None,355.05947709991597,355.05947709991597,0.19957216666080058,1.3682154511614804,355.2760642999783,355.05947709991597,,,,,"{'estimation': [[125.0, 0.9205374228704865], [125.3234928360566, 1.0], [129.53631354025111, 2.0], [133.9716828170366, 2.973348907094152], [134.09153781131397, 2.9999999999999996], [138.64592825441196, 4.0], [143.38659472279141, 5.0], [143.5872943746293, 5.041182418130351], [149.3444290289664, 6.0], [153.8930516681145, 6.730338118783958], [156.91137411942157, 7.0], [164.93848884661162, 7.686219191049066], [176.77669529663666, 7.697352789873191], [186.2271009271238, 7.0], [189.46457081379947, 6.774426916904702], [195.87410857512378, 6.0], [203.0630990890585, 5.171923417711669], [204.39256460046815, 5.0], [212.24102013479498, 4.0], [217.6376408240306, 3.3357707469867663], [220.9996339913226, 3.0], [231.14974919810632, 2.0], [233.25824788420132, 1.7961833103207643], [249.99999999999937, 1.0252855900416344], [267.94336563407256, 1.3017141451018484], [277.8765131522005, 2.0], [287.1745887492579, 2.6377200742179703], [290.6034235752281, 3.0], [300.1685627636057, 4.0], [307.78610333622805, 4.772489123781364], [309.7860629990264, 5.0], [318.5976358497263, 6.0], [327.61707849111, 7.0], [329.87697769322244, 7.244287663570508], [337.659215118499, 8.0], [348.06675470921414, 9.0], [353.55339059327247, 9.514495470917662], [361.1733899884714, 10.0], [377.13931437323555, 11.0], [378.929141627598, 11.110217956785425], [406.12619817811606, 11.737336630662018], [435.2752816480601, 11.340209610066209], [443.4227018025127, 11.0], [466.5164957684015, 10.09442102876583], [468.2210003642397, 10.0], [486.9662437053407, 9.0], [499.9999999999975, 8.349044646807194], [506.55707764977484, 8.0], [526.0684051645796, 7.0], [535.8867312681438, 6.523283299143201], [548.7661131992681, 6.0], [574.3491774985143, 5.006892848016793], [574.6405316128985, 5.0], [615.5722066724546, 4.068275257560524], [626.6859304503532, 4.0], [659.7539553864432, 3.8035567942412345], [687.8168296361571, 4.0], [707.1067811865431, 4.130084502528881], [757.8582832551941, 4.813000759152587], [771.5145380538593, 5.0], [812.2523963562301, 5.543542246270236], [868.1273275920435, 6.0], [870.5505632961181, 6.019489365470836], [933.0329915368008, 6.0340652401528345], [937.4664303856017, 6.0], [999.9999999999939, 5.532300268739055], [1041.3373708493382, 5.0], [1071.773462536285, 4.6212814384962595], [1114.7256374483286, 4.0], [1148.698354997026, 3.529657845180511], [1191.1616628832753, 3.0], [1231.1444133449063, 2.525107232692251], [1296.3994104107442, 2.0], [1319.5079107728832, 1.8225615489499978], [1414.2135623730828, 1.5143363443205322], [1515.7165665103846, 1.5450619109221422], [1624.5047927124563, 1.747209625482283], [1741.1011265922318, 1.913652108606456], [1866.065983073597, 1.8797712162020321], [1999.9999999999827, 1.5860154085495948], [2143.5469250725646, 1.0957079548057669], [2170.9023896969543, 1.0], [2297.396709994046, 0.5653153187880422], [2462.2888266898062, 0.19214782617835968], [2639.01582154576, 0.14232886785587817], [2828.427124746159, 0.5054448588851795], [2957.883910217283, 1.0], [3031.4331330207615, 1.2701979001057109], [3180.6747907098834, 2.0], [3249.0095854249043, 2.3216768020954084], [3384.911967143381, 3.0], [3482.2022531844555, 3.466367994257163], [3613.395455681651, 4.0], [3732.1319661471844, 4.4623063969681755], [3973.8035535966437, 5.0], [3999.9999999999504, 5.0559984994258835], [4287.093850145118, 5.025639236151981], [4296.6523326072, 5.0], [4594.793419988081, 4.223382267307771], [4639.889093862756, 4.0], [4843.739547280851, 3.0], [4924.577653379601, 2.6110491637230613], [5016.894092012985, 2.0], [5168.25591673459, 1.0], [5278.0316430915, 0.2895742782144397], [5316.9110642972455, 0.0], [5450.757415111506, -1.0], [5586.2485831806525, -2.0], [5656.854249492303, -2.5071395025429526], [5724.011010598839, -3.0], [5860.276985115626, -4.0], [5999.514631745558, -5.0], [6062.866266041508, -5.440992258025695], [6151.1717200146495, -6.0], [6310.587660721689, -7.0], [6475.678866054173, -8.0], [6498.019170849792, -8.131596146203089], [6686.636385227513, -9.0], [6911.041903541647, -10.0], [6964.404506368894, -10.23060891849101], [7266.95120462347, -11.0], [7464.2639322943505, -11.48993952754785], [7999.999999999882, -11.806262803325255]], 'plus_line': [[125.0, -7.31510216496414], [126.11022059508525, -6.999999999999999], [129.68239882981572, -6.0], [133.31342727891095, -5.0], [133.9716828170366, -4.827898748328696], [137.6522226332694, -4.0], [142.04072968378438, -3.0], [143.5872943746293, -2.6568091830832374], [147.4891588308374, -2.0], [153.4277699026092, -1.0], [153.89305166811442, -0.9240960321881682], [163.5582482109504, 0.0], [164.93848884661162, 0.12582592558552375], [176.77669529663666, 0.2810998595678108], [181.16869886956533, 0.0], [189.46457081379947, -0.5130595538531135], [193.54593443590045, -1.0], [202.44422408031392, -2.0], [203.0630990890585, -2.067385881136228], [209.88633859747543, -3.0], [217.6376408240306, -3.9813760409935637], [217.80362964901525, -4.0], [226.66961507565023, -5.0], [233.25824788420132, -5.703846373308545], [238.37279594143288, -6.0], [249.99999999999937, -6.670982452029255], [267.94336563407256, -6.520580696216227], [275.437188226794, -6.0], [287.1745887492579, -5.198704867917981], [289.0507898062228, -5.0], [298.53223093266973, -4.0], [307.78610333622805, -3.0103353523124046], [307.87865676694605, -2.9999999999999996], [316.8953431540646, -2.0], [325.6227619037781, -1.0], [329.87697769322244, -0.5204298507435011], [335.5023093621711, 0.0], [346.12300845313825, 1.0], [353.55339059327247, 1.7017165382884136], [358.5412755659035, 2.0], [375.32578153140895, 3.0], [378.929141627598, 3.2113619305571097], [406.12619817811606, 3.8027002786435653], [435.2752816480601, 3.4838645162112067], [449.0415015475934, 3.0], [466.5164957684015, 2.4184264298271927], [475.06889870590743, 2.0], [496.96967208425184, 1.0], [499.9999999999975, 0.8682958187982426], [517.4602402291756, 0.0], [535.8867312681438, -0.839510123372797], [539.861031576826, -1.0], [565.3602830300897, -2.0], [574.3491774985143, -2.3342488154437637], [602.895685089824, -3.0], [615.5722066724546, -3.2886422998231706], [659.7539553864432, -3.5549844858739617], [707.1067811865431, -3.202363593102125], [721.2275701620409, -3.0], [757.8582832551941, -2.5075880687936465], [796.7433387904227, -2.0], [812.2523963562301, -1.8084117215104158], [870.550563296117, -1.4238908732782383], [933.0329915368008, -1.5152915740058797], [989.8655811632445, -2.0], [999.9999999999926, -2.086788177265901], [1071.3273379112147, -3.0], [1071.773462536285, -3.005564389531026], [1145.4679173746897, -4.0], [1148.698354997026, -4.041781433822816], [1231.1444133449063, -4.949970644926601], [1238.1683623892739, -5.0], [1319.5079107728832, -5.566226990547399], [1414.2135623730828, -5.819510723500903], [1515.7165665103846, -5.7940022173521735], [1624.5047927124563, -5.648944369694967], [1741.1011265922318, -5.577648060114813], [1866.065983073597, -5.7416166792848875], [1941.6116227010607, -6.0], [1999.9999999999777, -6.205313329419986], [2143.5469250725646, -6.884617635080899], [2168.997402101404, -7.0], [2297.396709994046, -7.587134556979977], [2443.684450171002, -8.0], [2462.2888266898062, -8.053339518068919], [2639.015821545763, -8.118477054441607], [2690.8912824620224, -8.0], [2828.427124746159, -7.710421764883515], [2998.734744093795, -7.0], [3031.4331330207615, -6.871207665126037], [3197.0588034919165, -6.0], [3249.0095854249043, -5.738334823046709], [3384.3112232638773, -5.0], [3482.2022531844596, -4.486944987239349], [3586.6187881604096, -4.0], [3732.1319661471844, -3.355441074038258], [3859.50419145131, -3.0], [3999.9999999999504, -2.63647145303839], [4287.093850145118, -2.6111981403998046], [4426.433706652361, -3.0], [4594.793419988081, -3.4598068326972937], [4694.236023285436, -4.0], [4886.104958900122, -5.0], [4924.577653379601, -5.194206536245729], [5034.498837064731, -6.0], [5176.587805854815, -7.0], [5278.0316430915, -7.670334624572283], [5318.622983216872, -8.0], [5441.686677967315, -9.0], [5572.551412079167, -10.0], [5656.854249492303, -10.60421321132749], [5707.011643605977, -11.0], [5834.426235891421, -12.0], [5970.483076994763, -13.0], [6062.866266041508, -13.634242575190527], [6117.674442789531, -14.0], [6269.435625299794, -15.0], [6433.246648768763, -16.0], [6498.019170849792, -16.375971792627112], [6627.8279782121945, -17.0], [6846.099354026558, -18.0], [6964.404506368894, -18.51133039931682], [7135.880203189613, -19.0], [7464.2639322943505, -19.900572956409917], [7536.040674777115, -20.0], [7999.999999999882, -20.66245160182767]], 'minus_line': [[125.0, 9.05342410876482], [129.60965562501437, 10.0], [133.9716828170366, 10.799977683433404], [134.84880424825977, 11.0], [139.29856766422267, 12.0], [143.5872943746293, 12.886200776736107], [144.23153519708313, 13.0], [149.96478122720626, 14.0], [153.89305166811442, 14.642054760864077], [158.1558682169531, 15.000000000000002], [164.93848884661162, 15.551848585125622], [176.77669529663666, 15.396517962944019], [181.01994754548105, 15.0], [189.46457081379947, 14.25549005887001], [191.3694017117218, 14.0], [198.98329500036408, 13.0], [203.0630990890585, 12.478806826020634], [206.7159535547958, 12.0], [214.34310661443158, 11.0], [217.6376408240306, 10.576897934066059], [223.7041983064718, 10.0], [233.25824788420132, 9.09206554639507], [235.6241139317917, 9.0], [249.99999999999937, 8.46554028810657], [267.94336563407256, 8.888224828377169], [269.38455722381286, 9.0], [282.4207947195087, 10.0], [287.1745887492579, 10.351552892304639], [292.87626244620856, 11.0], [301.9969098273392, 12.0], [307.78610333622805, 12.59917167138104], [311.01412857278444, 13.000000000000002], [319.1393745010028, 14.0], [327.8699100066657, 15.0], [329.87697769322244, 15.222467387227706], [336.9930217235044, 16.0], [346.49940700931336, 17.0], [353.55339059327247, 17.699512384710747], [357.7171214130978, 18.0], [371.8157095442429, 19.0], [378.929141627598, 19.483487234518066], [399.6033625517131, 20.0], [406.12619817811606, 20.162068523967193], [414.4188934211179, 20.0], [435.2752816480601, 19.625840756726607], [447.55525417541, 19.0], [466.5164957684015, 18.07237624903503], [467.6302454756608, 18.0], [483.47372066930006, 17.0], [499.6096570032406, 16.0], [499.99999999999693, 15.977066758491008], [516.6232983651281, 15.0], [533.7581072449103, 14.0], [535.8867312681438, 13.8816481543077], [556.1013018746658, 13.0], [574.3491774985143, 12.219120201218114], [583.1010230322187, 12.0], [615.5722066724546, 11.225153247624508], [650.3862221350169, 11.0], [659.7539553864432, 10.94430845238074], [667.4719246566311, 11.0], [707.1067811865431, 11.289503876752548], [756.2556171856445, 12.0], [757.8582832551941, 12.0231299402012], [812.2523963562301, 12.871300758441063], [824.1707008799365, 13.0], [870.5505632961181, 13.50804798282272], [933.0329915368008, 13.668203441063364], [999.9999999999926, 13.250038011099994], [1019.0138049874439, 13.0], [1071.773462536285, 12.335000984497913], [1093.1031417529884, 12.0], [1148.6983549970273, 11.156574387513055], [1159.7305151853022, 11.0], [1231.1444133449063, 10.028482519089508], [1234.1018563459374, 10.0], [1319.5079107728832, 9.228308269055054], [1377.7738470497743, 9.0], [1414.2135623730828, 8.868740848535834], [1515.7165665103864, 8.911577380190836], [1553.2962031613235, 9.0], [1624.5047927124563, 9.171392949940554], [1741.1011265922318, 9.413956503311105], [1866.065983073597, 9.46372137366421], [1999.9999999999802, 9.267606874032811], [2098.1756377931483, 9.0], [2143.5469250725646, 8.883907217355532], [2297.396709994046, 8.455338297011854], [2462.2888266898062, 8.131124395171078], [2639.01582154576, 8.086772833011029], [2828.427124746159, 8.443859213284284], [2975.28935657038, 9.0], [3031.4331330207615, 9.209567732016374], [3190.1878869740017, 10.0], [3249.0095854249043, 10.284273628318456], [3390.803221375398, 11.0], [3482.2022531844555, 11.445372997892171], [3621.0413537745476, 12.0], [3732.1319661471844, 12.43201996337521], [3997.984180949386, 13.0], [3999.9999999999504, 13.00431136296268], [4166.302346836679, 13.0], [4287.093850145118, 12.997145981793441], [4594.7934199880865, 12.277547633024543], [4655.225470771691, 12.0], [4872.730177713208, 11.0], [4924.577653379601, 10.763528460136488], [5047.188216796311, 10.0], [5202.581729618194, 9.0], [5278.031643091506, 8.51468285880861], [5350.268793664775, 8.0], [5486.959861044888, 7.0], [5619.617909418184, 6.0], [5656.854249492297, 5.724932831180542], [5758.570638930091, 5.0], [5894.061865345699, 4.0], [6026.811102016973, 3.0], [6062.866266041508, 2.735599926615901], [6180.135353135817, 2.0], [6335.21975084495, 1.0], [6488.988968351365, 0.0], [6498.019170849792, -0.05665864183376167], [6701.241179037298, -1.0], [6913.472361492293, -2.0], [6964.404506368894, -2.2332581607540156], [7284.645275869471, -3.0], [7464.2639322943505, -3.421882814052227], [7999.999999999882, -3.3058783644649097]]}",nlhglm,001,fr,0,2022-05-09_15h45.26.215,Continuous,2022.1.1,None,
10,0,10,0,2,0,2,0,,,,,,,,1.0360868840626059,none,2245.0,-3.323606199534712,5.473001581604646e-05,0,85,['none'],0.006711233174428344,None,None,356.4917536000721,356.4917536000721,0.21617563324980438,1.2522625173124102,356.7144388000015,356.4917536000721,,,,,,nlhglm,001,fr,0,2022-05-09_15h45.26.215,Continuous,2022.1.1,None,
10,0,10,0,3,0,3,0,,,,,,,,1.7014917732294512,none,1000.0,-0.19073567806869196,4.309562866423002e-05,0,86,['none'],0.0012980666942894459,None,None,357.77500970009714,357.77500970009714,0.19981686677783728,1.9013086400072885,357.9927616000641,357.77500970009714,,,,,,nlhglm,001,fr,0,2022-05-09_15h45.26.215,Continuous,2022.1.1,None,
10,0,10,0,4,0,4,0,,,,,,,,1.3019121480230889,none,630.0,-1.125938153018156,4.4944142277538406e-05,0,87,['none'],0.005387466633692384,None,None,359.72685420000926,359.72685420000926,0.21028726664371789,1.5121994146668067,359.94410030008294,359.72685420000926,,,,,,nlhglm,001,fr,0,2022-05-09_15h45.26.215,Continuous,2022.1.1,None,
10,0,10,0,5,0,5,0,,,,,,,,1.201508999243556,none,1498.0,-10.724845839432955,1.4066107224457307e-05,0,88,['none'],0.004308366449549794,None,None,361.2756284000352,361.2756284000352,0.20593776647001505,1.407446765713571,361.4906876999885,361.2756284000352,,,,,,nlhglm,001,fr,0,2022-05-09_15h45.26.215,Continuous,2022.1.1,None,
10,0,10,0,6,0,6,0,,,,,,,,2.704839398016806,none,794.0,2.9433118365399134,5.422664021999741e-05,0,89,['none'],0.0052560665644705296,None,None,362.72364079998806,362.72364079998806,0.21377276652492583,2.918612164541732,362.94416929990984,362.72364079998806,,,,,,nlhglm,001,fr,0,2022-05-09_15h45.26.215,Continuous,2022.1.1,None,
10,0,10,0,7,0,7,0,,,,,,,,1.0007362341517496,none,5339.0,-12.269789643555345,3.415056153934951e-05,0,90,['none'],0.005433766636997461,None,['space'],365.68544170004316,365.68544170004316,0.21862086676992476,1.2193571009216744,365.8929445000831,365.68544170004316,[-2.401260399958119],,,,,nlhglm,001,fr,0,2022-05-09_15h45.26.215,Continuous,2022.1.1,None,
,,,,,,,,,,,,,,,1.3289360967708972,none,,,,1,90,['none'],,,,,,,,,,,,,,,,,,,,,,,
