sweeps.thisRepN,sweeps.thisTrialN,sweeps.thisN,sweeps.thisIndex,trials.thisRepN,trials.thisTrialN,trials.thisN,trials.thisIndex,instructions.started,instructions.stopped,blank_text.started,blank_text.stopped,,text.started,text.stopped,Delay,Prediction,Frequency,Volume,Psychopy_level,isCatchTrial,len(y),finished_audiograms,probe.started,probe.stopped,feedback.keys,feedback.started,feedback.stopped,ISI.started,ISI.stopped,text_2.started,text_2.stopped,Audiogram_frequency,feedback.rt,break_txt.started,break_txt.stopped,Intervals,Audiogram_none,Audiogram_time,Audiogram_both,participant,session,language (english or french),Resume previous experiment,date,expName,psychopyVersion,frameRate,
0,0,0,0,0,0,0,0,20.74162740004249,None,22.44786179997027,None,0.16666666666666666,26.03968930011615,None,2.5537825513446784,frequency,378.0,4.023185460316272,0.00013073095808916702,0,88,[],0.005384066607803106,0.198775366647169,None,27.066580400103703,None,0.198775366647169,2.7525579179918473,27.277100400067866,None,,,,,,,,,nlhglm,003,fr,1,2022-05-09_15h57.08.063,Continuous,2022.1.1,None,
0,0,0,0,1,0,1,0,,,,,,,,1.5480415115717263,frequency,337.0,3.7195718965370728,0.00014257383630348927,0,89,[],0.007463066605851054,0.20084006641991436,None,29.855748299974948,29.855748299974948,0.20084006641991436,1.7488815779916407,30.063028400065377,29.855748299974948,,,,,,,,,nlhglm,003,fr,1,2022-05-09_15h57.08.063,Continuous,2022.1.1,None,
0,0,0,0,2,0,2,0,,,,,,,,1.731915852112356,frequency,300.0,3.4785481000249407,0.0001709147065783949,0,90,[],0.012256666785106063,None,None,31.638718800153583,31.638718800153583,0.21139646670781076,1.9433123188201669,31.84911060007289,31.638718800153583,,,,,,,,,nlhglm,003,fr,1,2022-05-09_15h57.08.063,Continuous,2022.1.1,None,
0,0,0,0,3,0,3,0,,,,,,,,2.4788708090078524,frequency,,,,1,90,[],0.004084366373717785,0.19413736648857594,None,33.6124452999793,33.6124452999793,0.19413736648857594,2.6730081754964283,33.82401390001178,33.6124452999793,,,,,,,,,nlhglm,003,fr,1,2022-05-09_15h57.08.063,Continuous,2022.1.1,None,
0,0,0,0,4,0,4,0,,,,,,,,1.7105130315025185,frequency,238.0,4.064466115735515,0.00030495850970402755,0,91,['frequency'],0.013303866609930992,None,None,36.328272100072354,36.328272100072354,0.20974706672132015,1.9202600982238387,36.53203730005771,36.328272100072354,"{'estimation': [[125.0, 11.491108708948614], [126.88399804129668, 11.0], [130.9328821772131, 10.0], [133.9716828170366, 9.325751647945836], [135.4219076156163, 9.0], [139.9027097936932, 8.0], [143.5872943746293, 7.224540729525811], [144.91632727392164, 7.0], [150.7784812375125, 6.0], [153.89305166811442, 5.479672939602779], [158.64984214037457, 5.0], [164.93848884661162, 4.3642461937693025], [176.77669529663666, 4.063995413933516], [189.46457081379958, 4.631725764457632], [193.0419338389016, 5.0], [203.0630990890585, 5.983855777856088], [203.18088456994136, 6.0], [210.61399350909082, 7.0], [217.6376408240306, 7.891538752377183], [218.3966747901302, 8.0], [225.44121513083778, 9.0], [232.85217072072768, 10.0], [233.25824788420132, 10.051958644332968], [240.73632565104901, 11.0], [248.86794675851507, 12.0], [249.99999999999937, 12.132708019449462], [258.96670965323455, 13.0], [267.94336563407256, 13.845733274081995], [270.4813844925976, 14.0], [287.1745887492579, 14.997276583419785], [287.2831007696277, 14.999999999999998], [307.78610333622805, 15.502234299221254], [329.87697769322244, 15.39395423512322], [345.3998585879095, 15.0], [353.55339059327247, 14.796655533821903], [376.05731959274584, 14.0], [378.929141627598, 13.900517256562523], [403.7911274826982, 13.0], [406.12619817811606, 12.91802437486784], [435.2752816480601, 12.056184301289052], [438.20730325924836, 12.0], [466.5164957684015, 11.481940512444869], [499.9999999999975, 11.309548996344382], [535.8867312681438, 11.576182268678254], [559.6399300823314, 12.0], [574.3491774985143, 12.254381467895126], [604.8782686821585, 13.0], [615.5722066724546, 13.25158014354389], [642.8161670021741, 14.0], [659.7539553864432, 14.443178260478987], [680.1558319558782, 15.0], [707.1067811865431, 15.698182424720388], [719.3264328090085, 16.0], [757.8582832551941, 16.90840621268014], [762.2365476535437, 17.0], [811.9742542862705, 18.0], [812.2523963562301, 18.005376216847296], [870.5505632961181, 18.966271141651493], [872.9515079036909, 19.0], [933.0329915368008, 19.806407685764157], [949.6639851024519, 20.0], [999.9999999999939, 20.557492363987315], [1045.6466597743402, 21.0], [1071.773462536285, 21.24204167926167], [1148.698354997026, 21.856065586226308], [1170.9791387760752, 22.0], [1231.1444133449063, 22.374756088622796], [1319.5079107728832, 22.743056727908694], [1414.2135623730828, 22.915539668974105], [1515.7165665103846, 22.86218993372935], [1624.5047927124563, 22.5898709832869], [1741.1011265922318, 22.140471820735996], [1771.581342588616, 22.0], [1866.065983073597, 21.576436412880327], [1993.8032495833063, 21.0], [1999.9999999999802, 20.97249881811569], [2143.5469250725646, 20.385924102459676], [2254.891801196915, 20.0], [2297.396709994046, 19.85621201342658], [2462.2888266898062, 19.40921988569528], [2639.01582154576, 19.05946451614352], [2685.7258949915667, 19.0], [2828.427124746159, 18.823621167026374], [3031.4331330207656, 18.7280501452747], [3249.0095854249043, 18.795902478877107], [3437.2159080346105, 19.0], [3482.2022531844555, 19.046160604888577], [3732.1319661471844, 19.483411671067966], [3951.059971068846, 20.0], [3999.9999999999504, 20.111153421368552], [4287.093850145118, 20.930793123327422], [4307.223572133368, 21.0], [4594.793419988081, 21.963161017971533], [4604.105447468844, 22.0], [4861.01768879181, 23.0], [4924.577653379601, 23.239325226881245], [5095.721846978639, 24.0], [5278.031643091513, 24.786738761482198], [5321.858063863308, 25.0], [5526.497875241477, 26.0], [5656.854249492303, 26.61352306639362], [5733.209541069973, 27.0], [5928.3558636062535, 28.0], [6062.866266041501, 28.663591771491113], [6131.144543114943, 29.0], [6330.885286901187, 30.0], [6498.019170849792, 30.80778571237304], [6541.86659305261, 30.999999999999996], [6767.499446304542, 32.0], [6964.4045063688845, 32.84451854053526], [7010.2807551683445, 33.0], [7304.367413548786, 34.0], [7464.2639322943505, 34.52996583199684], [7696.865959300771, 35.0], [7999.999999999882, 35.623415303239256]], 'plus_line': [[125.0, 6.573243460669962], [127.51747629531275, 6.0], [132.42789611698342, 5.0], [133.9716828170366, 4.716933702485201], [137.03745742402614, 4.0], [141.6090086813372, 3.0], [143.5872943746293, 2.602411653895103], [146.70152814279257, 2.0], [152.03779146384076, 1.0], [153.89305166811442, 0.6694762285724234], [159.3982363997856, 0.0], [164.93848884661162, -0.6599642798388138], [174.5267772472665, -1.0], [176.77669529663666, -1.084056810713209], [178.5265192086895, -1.0], [189.46457081379947, -0.5167142089675296], [194.13911064253728, 0.0], [203.0630990890585, 0.9753798567512645], [203.23408606157173, 1.0], [210.25756258512553, 2.0], [217.08708858881212, 3.0], [217.6376408240306, 3.0756038299817243], [224.00719246570839, 4.0], [230.5394249967522, 5.0], [233.25824788420132, 5.39656171643292], [238.06350976868364, 6.0], [245.65136184022353, 7.0], [249.99999999999937, 7.562380488305822], [254.66147648590078, 8.0], [265.0129588004377, 9.0], [267.94336563407256, 9.276795518481986], [280.6155180983241, 10.0], [287.1745887492579, 10.36838304510922], [307.78610333622805, 10.798677876230734], [329.87697769322244, 10.602445449280511], [351.0983620857557, 10.0], [353.55339059327247, 9.92879046996553], [377.9904091752703, 9.0], [378.9291416275985, 8.964785228913856], [404.8722600938373, 8.0], [406.12619817811606, 7.9546126517154905], [435.2752816480601, 7.113016885087059], [441.88548645333304, 7.0], [466.5164957684015, 6.579318174680468], [499.9999999999975, 6.438348513341426], [535.8867312681438, 6.707528844256479], [551.9410677761512, 7.0], [574.3491774985143, 7.380652494315202], [598.7173225350601, 8.0], [615.5722066724546, 8.410702256703766], [635.6924122242897, 9.0], [659.7539553864432, 9.685421476474604], [670.4753299015376, 10.0], [705.2086323068435, 11.0], [707.1067811865431, 11.051893753048484], [744.4198370515995, 12.0], [757.8582832551941, 12.331059280426064], [789.5580172111742, 13.0], [812.2523963562301, 13.463777133837176], [843.403187070684, 14.0], [870.5505632961181, 14.44797892116512], [908.835753833286, 15.0], [933.0329915368008, 15.330126548524513], [987.235652597019, 16.0], [999.9999999999926, 16.14783234042735], [1071.773462536285, 16.891773225407576], [1083.8848263983457, 17.0], [1148.698354997026, 17.53236305863125], [1220.473466589226, 18.0], [1231.1444133449063, 18.064282924995165], [1319.5079107728832, 18.422380471300794], [1414.2135623730828, 18.605889850200317], [1515.7165665103846, 18.573061824115193], [1624.5047927124563, 18.309099182472302], [1701.1570205579765, 18.0], [1741.1011265922318, 17.833389025034748], [1866.065983073597, 17.21491768977088], [1909.4907452881473, 17.0], [1999.9999999999777, 16.545370735450078], [2126.494163660279, 16.0], [2143.5469250725646, 15.924881942320107], [2297.396709994046, 15.362428330951042], [2427.133942644866, 15.0], [2462.2888266898094, 14.898800755151905], [2639.0158215457564, 14.516170410897267], [2828.427124746159, 14.273518754807743], [3031.4331330207615, 14.20671912102825], [3249.0095854249043, 14.346848976206944], [3482.2022531844596, 14.69910719327375], [3617.659109547586, 15.0], [3732.1319661471844, 15.228570068559073], [3999.9999999999554, 15.896393244933577], [4035.236204715176, 16.0], [4287.093850145118, 16.69873755852834], [4378.012312260407, 17.0], [4594.793419988081, 17.698554785402624], [4674.060124521742, 18.0], [4924.577653379601, 18.955954620843602], [4934.892469509113, 19.0], [5168.864510773609, 20.0], [5278.031643091506, 20.472134051915347], [5393.282092662148, 21.0], [5600.331506175081, 22.0], [5656.854249492303, 22.267455121381314], [5812.470366175108, 23.0], [6009.373343442617, 24.0], [6062.866266041508, 24.26467846357949], [6223.236785307073, 25.0], [6424.8912842024965, 26.0], [6498.019170849792, 26.355031474849454], [6654.168171612465, 27.0], [6881.602891011202, 28.0], [6964.404506368902, 28.356394935331473], [7165.989602468745, 29.0], [7464.2639322943505, 29.989688753735912], [7470.479992313872, 29.999999999999996], [7999.999999999882, 30.865950786254015]], 'minus_line': [[125.0, 16.446258073307277], [126.53017796900973, 16.0], [129.89387015868223, 15.0], [133.34701084497797, 14.0], [133.9716828170366, 13.836688489777107], [137.69928707597626, 13.0], [141.9485952065815, 12.0], [143.5872943746293, 11.634666005075271], [147.64157651336785, 11.0], [153.75871690679418, 10.0], [153.89305166811442, 9.978745343903153], [164.93848884661162, 9.01808384196482], [165.98806251068075, 9.0], [176.77669529663677, 8.829214033345398], [180.4672289279782, 9.0], [189.46457081379947, 9.4168089426325], [195.48515352922502, 10.0], [203.0630990890585, 10.685055687534987], [205.46952550105618, 10.999999999999998], [213.4344375909668, 12.0], [217.6376408240306, 12.47456180803197], [221.345311254599, 13.0], [228.75524062225384, 14.0], [233.25824788420132, 14.540810413137462], [236.77833610355768, 15.0], [244.6703906022255, 16.0], [249.99999999999937, 16.60360027783171], [253.87195816178482, 17.0], [263.92732329796183, 18.0], [267.94336563407256, 18.371177828142596], [277.58567724876366, 19.0], [287.1745887492579, 19.602341196595845], [301.4807746424659, 20.0], [307.78610333622805, 20.17970678315136], [329.87697769322244, 20.132226690915548], [335.36920416260625, 20.0], [353.55339059327247, 19.593355300485165], [370.7189037582762, 19.0], [378.929141627598, 18.72794438079404], [398.79322426814946, 18.0], [406.12619817811606, 17.74160797487264], [429.7153623707329, 17.0], [435.2752816480601, 16.834119181880613], [466.5164957684015, 16.210763574147055], [499.9999999999975, 16.00685427684255], [535.8867312681438, 16.305245102929565], [574.0153752783709, 17.0], [574.3491774985143, 17.0061332171679], [615.3801325308434, 18.0], [615.5722066724546, 18.00451551477013], [653.4974451724321, 19.0], [659.7539553864432, 19.15509712763526], [692.7597027875045, 20.0], [707.1067811865431, 20.34361100370461], [735.1665815718045, 21.0], [757.8582832551941, 21.499922605187017], [782.5956422561167, 22.0], [812.2523963562301, 22.572983952820806], [838.0656609556386, 23.0], [870.5505632961192, 23.5206916413015], [907.4303635177685, 24.0], [933.0329915368008, 24.325924211400643], [999.30967607018, 25.0], [999.9999999999926, 25.006964760212565], [1071.773462536285, 25.64647327871183], [1118.146425715757, 26.0], [1148.698354997026, 26.234174028003267], [1231.1444133449063, 26.750175820687076], [1291.9223798652843, 27.0], [1319.5079107728832, 27.117459737138986], [1414.2135623730828, 27.274082909369092], [1515.7165665103846, 27.178655788789705], [1575.4355857063263, 27.0], [1624.5047927124563, 26.869563984251265], [1741.1011265922318, 26.423602194435553], [1836.3833929807827, 26.000000000000004], [1866.065983073597, 25.87760449940199], [1999.9999999999802, 25.315409333052973], [2077.8475037254366, 25.0], [2143.5469250725646, 24.752711424612702], [2297.396709994046, 24.24551658001872], [2388.781000568361, 24.0], [2462.2888266898062, 23.818594738407707], [2639.0158215457564, 23.506941674209564], [2828.427124746159, 23.294233514661318], [3031.4331330207615, 23.18249640984996], [3249.0095854249043, 23.189437929916092], [3482.2022531844555, 23.35393310226801], [3732.1319661471844, 23.71592833505803], [3858.0680040790435, 24.0], [3999.999999999946, 24.321242184227298], [4232.212077175119, 25.0], [4287.093850145118, 25.15908287928236], [4526.787653087465, 26.0], [4594.793419988081, 26.23047616548515], [4784.24241749047, 27.0], [4924.577653379601, 27.535035708667163], [5024.79564382003, 28.0], [5254.827146780048, 29.0], [5278.031643091506, 29.095866431886005], [5451.4221796360125, 30.0], [5656.854249492303, 30.954432670874976], [5665.292061178195, 31.0], [5845.076669955613, 32.0], [6047.919110363387, 33.0], [6062.866266041508, 33.06988493591534], [6233.156413320249, 34.0], [6433.086411868917, 35.0], [6498.019170849792, 35.29953270369735], [6644.096452178575, 36.0], [6864.226258536413, 37.0], [6964.404506368894, 37.41749771319879], [7119.832597555216, 38.0], [7398.782891388891, 39.0], [7464.2639322943505, 39.22383370249889], [7762.7933782658965, 40.0], [7999.999999999892, 40.61183537127762]]}",,,,,,,,nlhglm,003,fr,1,2022-05-09_15h57.08.063,Continuous,2022.1.1,None,
0,0,0,0,5,0,5,0,,,,,,,,2.8825170902133284,frequency,212.0,4.014213084529473,0.00038406423359537415,0,92,['frequency'],0.010717566823586822,None,None,38.27248700009659,38.27248700009659,0.22265796666033566,3.105175056873664,38.49202490015887,38.27248700009659,,,,,,,,,nlhglm,003,fr,1,2022-05-09_15h57.08.063,Continuous,2022.1.1,None,
0,0,0,0,6,0,6,0,,,,,,,,1.2051261082488627,frequency,189.0,4.0,0.0004841911708835744,0,93,['frequency'],0.011462966678664088,None,['space'],41.39638129994273,41.39638129994273,0.21214286680333316,1.4172689750521958,41.601956400088966,41.39638129994273,,[-2.5448257999960333],,,,,,,nlhglm,003,fr,1,2022-05-09_15h57.08.063,Continuous,2022.1.1,None,
0,0,0,0,7,0,7,0,,,,,,,,1.099589312102401,frequency,168.0,5.435267133461655,0.0007141842020934992,0,94,['frequency'],0.008108366513624787,0.2006211664993316,['space'],42.834896499989554,42.834896499989554,0.2006211664993316,1.3002104786017326,43.042633400065824,42.834896499989554,,[-0.9275508001446724],,,,,,,nlhglm,003,fr,1,2022-05-09_15h57.08.063,Continuous,2022.1.1,None,
0,0,0,0,8,0,8,0,,,,,,,,2.1539806111210877,frequency,150.0,4.86751703821851,0.0008759426603036411,0,95,['frequency'],0.0086860666051507,None,['space'],44.16911750007421,44.16911750007421,0.2031281664967537,2.3571087776178414,44.38141859997995,44.16911750007421,,[-0.9019723001401871],,,,,,,nlhglm,003,fr,1,2022-05-09_15h57.08.063,Continuous,2022.1.1,None,
0,0,0,0,9,0,9,0,,,,,,,,2.667804299449906,frequency,134.0,3.884488384043997,0.0010049893307230002,0,96,['frequency'],0.011094766668975353,None,['space'],46.56614440004341,46.56614440004341,0.20979886665008962,2.8776031660999957,46.779078599996865,46.56614440004341,,[-1.9870422999374568],,,,,,,nlhglm,003,fr,1,2022-05-09_15h57.08.063,Continuous,2022.1.1,None,
1,0,1,0,0,0,0,0,,,,,,53.19518549996428,None,2.697689478292539,time,5040.0,-4.2312858051045295,9.293758765421412e-05,0,32,['frequency'],0.012800966622307897,None,None,54.22980640013702,None,0.22334876656532288,2.921038244857862,54.447603800101206,None,,,49.47500480012968,None,"[0.16666666666666666, 0.16666666666666666, 0.3333333333333333, 0.16666666666666666, 0.3333333333333333, 0.3333333333333333, 0.16666666666666666, 0.3333333333333333, 0.3333333333333333, 0.16666666666666666, 0.3333333333333333, 0.16666666666666666, 0.16666666666666666, 0.16666666666666666, 0.16666666666666666]",,,,nlhglm,003,fr,1,2022-05-09_15h57.08.063,Continuous,2022.1.1,None,
1,0,1,0,1,0,1,0,,,,,,,,2.697689478292539,time,3564.0,-9.638178626211541,2.515008145575302e-05,0,33,['frequency'],0.010768366511911154,0.2081807665526867,['space'],57.165757700102404,57.165757700102404,0.2081807665526867,2.9058702448452256,57.374390200013295,57.165757700102404,,[-2.3778957999311388],,,,,,,nlhglm,003,fr,1,2022-05-09_15h57.08.063,Continuous,2022.1.1,None,
1,0,1,0,2,0,2,0,,,,,,,,2.697689478292539,time,6350.0,-7.738683466891281,5.395969736395514e-05,0,34,['frequency'],0.010703966487199068,None,None,60.101876999950036,60.101876999950036,0.21091556642204523,2.908605044714584,60.31056850007735,60.101876999950036,,,,,,,,,nlhglm,003,fr,1,2022-05-09_15h57.08.063,Continuous,2022.1.1,None,
1,0,1,0,3,0,3,0,,,,,,,,2.697689478292539,time,1782.0,-1.742749578047504,5.3157522530327356e-05,0,35,['frequency'],0.010156466625630856,None,None,63.038768799975514,63.038768799975514,0.2083811666816473,2.906070644974186,63.24842940014787,63.038768799975514,,,,,,,,,nlhglm,003,fr,1,2022-05-09_15h57.08.063,Continuous,2022.1.1,None,
1,0,1,0,4,0,4,0,,,,,,,,2.697689478292539,time,8000.0,-10.0,5.740768107484415e-05,0,36,['frequency'],0.007323766592890024,0.19746586657129228,None,65.97644930006936,65.97644930006936,0.19746586657129228,2.895155344863831,66.18210480012931,65.97644930006936,,,,,,,,,nlhglm,003,fr,1,2022-05-09_15h57.08.063,Continuous,2022.1.1,None,
1,0,1,0,5,0,5,0,,,,,,,,2.697689478292539,time,2000.0,-7.210698045666199,3.261633071759494e-05,0,37,['frequency'],0.010743466904386878,None,['space'],68.90748589998111,68.90748589998111,0.20963216689415276,2.9073216451866917,69.12400780012831,68.90748589998111,,[-2.3753827000036836],,,,,,,nlhglm,003,fr,1,2022-05-09_15h57.08.063,Continuous,2022.1.1,None,
1,0,1,0,6,0,6,0,,,,,,,,2.697689478292539,time,4490.0,-9.697134358711619,3.852600065210654e-05,0,38,['frequency'],0.010706266853958368,None,None,71.84811200015247,71.84811200015247,0.2110297668259591,2.908719245118498,72.05651809996925,71.84811200015247,,,,,,,,,nlhglm,003,fr,1,2022-05-09_15h57.08.063,Continuous,2022.1.1,None,
1,0,1,0,7,0,7,0,,,,,,,,2.697689478292539,time,,,,1,38,['frequency'],0.007858466822654009,0.19949236675165594,None,74.78576250001788,74.78576250001788,0.19949236675165594,2.897181845044195,74.9911261999514,74.78576250001788,,,,,,,,,nlhglm,003,fr,1,2022-05-09_15h57.08.063,Continuous,2022.1.1,None,
1,0,1,0,8,0,8,0,,,,,,,,2.697689478292539,time,2829.0,-4.819775117564713,3.7577105499523244e-05,0,39,['frequency'],0.011988266604021192,None,None,77.71296100015752,77.71296100015752,0.21208576671779156,2.9097752450103305,77.93201690004207,77.71296100015752,,,,,,,,,nlhglm,003,fr,1,2022-05-09_15h57.08.063,Continuous,2022.1.1,None,
2,0,2,0,0,0,0,0,,,,,,83.48130109999329,None,2.9152772241450426,time,595.0,2.7778454747953196,7.796468008418425e-05,0,40,['frequency'],0.012922766851261258,None,None,84.51811910001561,None,0.21280286670662463,3.1280800908516673,84.72708209999837,None,,,80.65803820011206,None,"[0.16666666666666666, 0.3333333333333333, 0.3333333333333333, 0.5833333333333334, 0.16666666666666666, 0.16666666666666666, 0.16666666666666666, 0.16666666666666666, 0.5833333333333334, 0.16666666666666666, 0.5833333333333334, 0.16666666666666666, 0.16666666666666666, 0.5833333333333334, 0.5833333333333334]",,,,nlhglm,003,fr,1,2022-05-09_15h57.08.063,Continuous,2022.1.1,None,
2,0,2,0,1,0,1,0,,,,,,,,2.9152772241450426,time,265.0,2.1845853401538657,0.0001949415258765506,0,41,['frequency'],0.010259966598823667,None,None,87.671419700142,87.671419700142,0.21410446660593152,3.129381690750974,87.88962840009481,87.671419700142,,,,,,,,,nlhglm,003,fr,1,2022-05-09_15h57.08.063,Continuous,2022.1.1,None,
2,0,2,0,2,0,2,0,,,,,,,,2.9152772241450426,time,210.0,3.049507308959504,0.0003492578258711915,0,42,['frequency'],0.010477966396138072,None,None,90.83425760013051,90.83425760013051,0.21020406647585332,3.125481290620896,91.04278110014275,90.83425760013051,,,,,,,,,nlhglm,003,fr,1,2022-05-09_15h57.08.063,Continuous,2022.1.1,None,
2,0,2,0,3,0,3,0,,,,,,,,2.9152772241450426,time,397.0,3.8733208037295075,0.00012079028940089642,0,43,['frequency'],0.0064067665953189135,0.19616526667959988,None,93.98949820012785,93.98949820012785,0.19616526667959988,3.1114424908246425,94.1980695000384,93.98949820012785,,,,,,,,,nlhglm,003,fr,1,2022-05-09_15h57.08.063,Continuous,2022.1.1,None,
2,0,2,0,4,0,4,0,,,,,,,,2.9152772241450426,time,140.0,3.9207425150243758,0.0009253017553957241,0,44,['frequency'],0.007300066528841853,None,None,97.14228280005045,97.14228280005045,0.20220766658894718,3.11748489073399,97.35510970000178,97.14228280005045,,,,,,,,,nlhglm,003,fr,1,2022-05-09_15h57.08.063,Continuous,2022.1.1,None,
2,0,2,0,5,0,5,0,,,,,,,,2.9152772241450426,time,,,,1,44,['frequency'],0.0032942667603492737,0.19294816674664617,['space'],100.30114080011845,100.30114080011845,0.19294816674664617,3.108225390891689,100.51087939995341,100.30114080011845,,[-2.2504718001000583],,,,,,,nlhglm,003,fr,1,2022-05-09_15h57.08.063,Continuous,2022.1.1,None,
2,0,2,0,6,0,6,0,,,,,,,,2.9152772241450426,time,236.0,3.2703878328520033,0.0002840250131689919,0,45,['frequency'],0.008218466537073255,0.1996126666199416,None,103.44887079996988,103.44887079996988,0.1996126666199416,3.1148898907649842,103.65420059999451,103.44887079996988,,,,,,,,,nlhglm,003,fr,1,2022-05-09_15h57.08.063,Continuous,2022.1.1,None,
2,0,2,0,7,0,7,0,,,,,,,,2.9152772241450426,time,125.0,2.0,0.000909850429304992,0,46,['frequency'],0.010348466457799077,0.2077764666173607,None,106.60112620005384,106.60112620005384,0.2077764666173607,3.1230536907624034,106.80671060015447,106.60112620005384,,,,,,,,,nlhglm,003,fr,1,2022-05-09_15h57.08.063,Continuous,2022.1.1,None,
3,0,3,0,0,0,0,0,,,,,0.3333333333333333,114.25581530015916,None,2.8444126469393587,both,7294.0,-5.983290443400637,8.041391294577035e-05,0,57,['frequency'],0.007391666295006871,None,None,115.28502890001982,None,0.20400036638602614,3.048413013325385,115.50240650004707,None,,,109.75256920000538,None,,,,,nlhglm,003,fr,1,2022-05-09_15h57.08.063,Continuous,2022.1.1,None,
3,0,3,0,1,0,1,0,,,,,,,,2.8444126469393587,both,,,,1,57,['frequency'],0.009747166419401765,None,None,118.36945340014063,118.36945340014063,0.20923026651144028,3.053642913450799,118.58395580016077,118.36945340014063,,,,,,,,,nlhglm,003,fr,1,2022-05-09_15h57.08.063,Continuous,2022.1.1,None,
3,0,3,0,2,0,2,0,,,,,,,,2.8444126469393587,both,4595.0,1.0,0.00014011731055973747,0,58,['frequency'],0.011391166597604752,None,None,121.44979010010138,121.44979010010138,0.21146176662296057,3.0558744135623193,121.66215890017338,121.44979010010138,,,,,,,,,nlhglm,003,fr,1,2022-05-09_15h57.08.063,Continuous,2022.1.1,None,
3,0,3,0,3,0,3,0,,,,,,,,2.8444126469393587,both,3647.0,0.07926294874655948,7.845629740917072e-05,0,59,['frequency'],0.010008866665884852,None,['space'],124.53681359998882,124.53681359998882,0.20904496661387384,3.0534576135532325,124.74593420000747,124.53681359998882,,[-2.629833299899474],,,,,,,nlhglm,003,fr,1,2022-05-09_15h57.08.063,Continuous,2022.1.1,None,
3,0,3,0,4,0,4,0,,,,,,,,2.8444126469393587,both,2895.0,3.361486992437091,9.034025655401117e-05,0,60,['frequency'],0.013923133257776499,None,None,127.62492510001175,127.62492510001175,0.23401483334600925,3.078427480285368,127.8541226000525,127.62492510001175,,,,,,,,,nlhglm,003,fr,1,2022-05-09_15h57.08.063,Continuous,2022.1.1,None,
3,0,3,0,5,0,5,0,,,,,,,,2.8444126469393587,both,2298.0,1.0518561082826565,9.189910095094968e-05,0,61,['frequency'],0.009861866710707545,None,None,130.7204108000733,130.7204108000733,0.2092786666471511,3.05369131358651,130.93417989998125,130.7204108000733,,,,,,,,,nlhglm,003,fr,1,2022-05-09_15h57.08.063,Continuous,2022.1.1,None,
3,0,3,0,6,0,6,0,,,,,,,,2.8444126469393587,both,1824.0,1.0,7.502358028979826e-05,0,62,['frequency'],0.00992146646603942,None,None,133.8078575001564,133.8078575001564,0.2091067663859576,3.0535194133253163,134.022861600155,133.8078575001564,,,,,,,,,nlhglm,003,fr,1,2022-05-09_15h57.08.063,Continuous,2022.1.1,None,
3,0,3,0,7,0,7,0,,,,,,,,2.8444126469393587,both,1448.0,0.9854461601343687,5.555170089240888e-05,0,63,['frequency'],0.009555266704410315,None,None,136.89860290009528,136.89860290009528,0.20865626679733396,3.0530689137366926,137.10481490008533,136.89860290009528,,,,,,,,,nlhglm,003,fr,1,2022-05-09_15h57.08.063,Continuous,2022.1.1,None,
3,0,3,0,8,0,8,0,,,,,,,,2.8444126469393587,both,1149.0,0.8715179523905827,5.5591914721292286e-05,0,64,['frequency'],0.009889166569337249,None,None,139.97776240017265,139.97776240017265,0.211410166695714,3.0558228136350727,140.19393930002116,139.97776240017265,,,,,,,,,nlhglm,003,fr,1,2022-05-09_15h57.08.063,Continuous,2022.1.1,None,
3,0,3,0,9,0,9,0,,,,,,,,2.8444126469393587,both,912.0,4.245615044226192,6.774318162313296e-05,0,65,['frequency'],0.00880016665905714,None,['space'],143.0568005000241,143.0568005000241,0.20397756644524634,3.048390213384605,143.26431030011736,143.0568005000241,,[-1.9972213001456112],,,,,,,nlhglm,003,fr,1,2022-05-09_15h57.08.063,Continuous,2022.1.1,None,
3,0,3,0,10,0,10,0,,,,,,,,2.8444126469393587,both,724.0,5.911638778942317,8.47729300072103e-05,0,66,['frequency'],0.009628766681998968,None,['space'],146.13744960003532,146.13744960003532,0.20799436676315963,3.0524070137025183,146.34706060006283,146.13744960003532,,[-2.501421900000423],,,,,,,nlhglm,003,fr,1,2022-05-09_15h57.08.063,Continuous,2022.1.1,None,
4,0,4,0,0,0,0,0,,,,,,159.78658580011688,None,2.9418158381917037,none,1588.0,-2.064918811734289,4.394363145655228e-05,0,105,"['frequency', 'none']",0.012994866585358977,None,['space'],160.81132009997964,None,0.2271394666749984,3.168955304866702,161.02010380011052,None,,[-2.2154947000090033],149.22035340010189,None,"[0.3333333333333333, 0.5833333333333334, 0.16666666666666666, 0.16666666666666666, 0.5833333333333334, 0.16666666666666666, 0.5833333333333334, 0.3333333333333333, 0.3333333333333333, 0.5833333333333334, 0.16666666666666666, 0.3333333333333333, 0.3333333333333333, 0.16666666666666666, 0.3333333333333333]","{'estimation': [[125.0, -1.4525485511529248], [126.13368518700983, -1.0], [128.66301994300773, 0.0], [131.27963370870796, 1.0], [133.9716828170366, 1.9692612611037452], [134.05774450430522, 2.0], [136.84281646394095, 3.0], [139.63731311898752, 4.0], [142.51829319921814, 5.0], [143.5872943746293, 5.35876746709748], [145.91797009497935, 6.0], [149.57387955997012, 7.0], [153.348129760258, 8.0], [153.89305166811442, 8.140773556738676], [159.40829562477455, 9.0], [164.93848884661162, 9.824156583082875], [171.5243379130121, 10.0], [176.77669529663666, 10.133942786679915], [178.3356507296473, 10.0], [189.46457081379947, 9.093779301307109], [190.0618001477176, 9.0], [196.54317078164078, 8.0], [203.0630990890585, 7.0366384573537655], [203.2706499100537, 7.0], [208.9618316737477, 6.0], [214.773700039609, 5.0], [217.6376408240306, 4.523374676506568], [221.10110772405534, 4.0], [227.76089613521196, 3.0], [233.25824788420132, 2.197254855729117], [235.31490379215236, 2.0], [245.8506065693326, 1.0], [249.99999999999923, 0.6140929750765387], [267.94336563407256, 0.10579613408984179], [287.1745887492579, 0.7024893459766959], [291.2927264143991, 1.0], [305.47351369275253, 2.0], [307.78610333622805, 2.1588352377983604], [317.5131722977751, 3.0], [329.4096269143302, 4.0], [329.87697769322244, 4.038423587663164], [342.2369787358535, 5.0], [353.55339059327247, 5.854739454071691], [356.2280313819169, 6.0], [375.0541946495315, 7.0], [378.929141627598, 7.200333862085827], [406.12619817811606, 7.8353092449475845], [435.2752816480601, 7.7268258422850895], [466.5164957684015, 7.0223208945856435], [467.2048789029571, 7.0], [499.7712335187154, 6.0], [499.9999999999981, 5.993333189829552], [534.4362933572859, 5.000000000000001], [535.8867312681438, 4.960225991291601], [574.3491774985143, 4.218773322424735], [611.4851830917643, 4.0], [615.5722066724538, 3.9768202194235296], [618.5148656060203, 4.0], [659.7539553864432, 4.31170390687706], [698.5307444778437, 5.0], [707.1067811865431, 5.1472222523436955], [745.5480445068949, 6.0], [757.8582832551941, 6.265144970550628], [794.2831125960672, 7.0], [812.2523963562301, 7.353656001492813], [863.4059641051118, 8.0], [870.5505632961181, 8.088498805073801], [933.0329915368008, 8.230755965601274], [961.8965968827323, 8.0], [999.9999999999939, 7.70438885681956], [1046.6289887597407, 7.0], [1071.773462536285, 6.632402743788927], [1107.5357062085268, 6.0], [1148.698354997026, 5.298471820002686], [1167.858562300573, 5.0], [1231.1444133449063, 4.053457260757693], [1236.4299097222076, 4.0], [1319.5079107728816, 3.196977038720043], [1375.8894711870194, 3.0], [1414.2135623730828, 2.871714543131561], [1496.9223737009959, 3.0], [1515.7165665103828, 3.0281886309433172], [1624.5047927124563, 3.455092584075186], [1741.1011265922318, 3.8759597360882996], [1822.0507901501724, 4.0], [1866.065983073597, 4.065588612524021], [1929.5913615727059, 4.0], [1999.9999999999802, 3.92970686863956], [2143.5469250725646, 3.5340691448965975], [2297.396709994046, 3.057993381591805], [2324.2058927569087, 3.0], [2462.2888266898062, 2.7097891187946743], [2639.0158215457564, 2.63523652979807], [2828.427124746159, 2.8527427746701974], [2903.1640549545746, 3.0], [3031.433133020758, 3.244013918507659], [3249.0095854249043, 3.5885342078369495], [3482.2022531844555, 3.6358795567785513], [3732.1319661471844, 3.176015185254692], [3774.308452818041, 3.0], [3999.9999999999504, 2.0959905665710243], [4015.8013752944385, 2.0], [4183.877901086241, 1.0], [4287.093850145118, 0.40967647188743483], [4344.185935230335, 0.0], [4485.454112877378, -1.0], [4594.793419988081, -1.7476041128136708], [4628.917472726041, -2.0], [4764.600294385112, -3.0], [4903.762895493052, -4.0], [4924.577653379601, -4.145933368765054], [5051.286370646899, -5.0], [5201.021025406735, -6.0], [5278.031643091506, -6.502103453907264], [5370.198967460263, -7.0], [5556.06441580687, -8.0], [5656.854249492303, -8.53247789911179], [5785.166658774264, -9.0], [6062.866266041508, -9.997225137145117], [6064.448344436512, -10.0], [6498.019170849792, -10.740748872000989], [6964.404506368894, -10.711454949001217], [7440.834751321346, -10.0], [7464.2639322943505, -9.966311620040683], [7858.142058699397, -9.0], [7999.999999999872, -8.653080308356108]], 'plus_line': [[125.0, -9.912094348202954], [127.19974579607793, -9.0], [129.51835317611423, -8.0], [131.80973582967886, -7.0], [133.9716828170366, -6.081916476209816], [134.20931325898445, -6.0], [137.0850536822914, -5.0], [139.81728986558286, -4.0], [142.51018337236326, -3.0], [143.5872943746293, -2.6122077971446833], [145.89173434420584, -2.0], [149.55036183898582, -1.0], [153.14762085804625, 0.0], [153.89305166811442, 0.20111794900322288], [158.86287368356216, 1.0], [164.93848884661162, 1.9718605097879427], [165.65581871498046, 2.0], [176.77669529663666, 2.400462627658495], [182.0884835980221, 2.0], [189.46457081379947, 1.465429203142829], [192.43939502183466, 1.0], [199.0801066152793, 0.0], [203.0630990890585, -0.561208015930329], [205.41909823013353, -1.0], [210.870011807777, -2.0], [216.77986903651868, -3.0], [217.6376408240306, -3.140540156062876], [222.8045495584168, -4.0], [229.0996324235308, -5.0], [233.25824788420132, -5.622605301402406], [236.7566700683878, -6.0], [246.23268143554196, -7.0], [249.99999999999923, -7.383270785388881], [267.43680269664964, -8.0], [267.94336563407256, -8.018053893401277], [268.54716891552505, -8.0], [287.1745887492579, -7.47691644114495], [293.7524443852409, -7.0], [307.71424137436, -6.0], [307.78610333622805, -5.995018584976124], [319.34678500327743, -5.0], [329.87697769322244, -4.0861317154461085], [330.9862109992931, -4.0], [344.0363060629609, -3.0], [353.55339059327247, -2.2702854400383967], [358.63196580708365, -2.0], [377.75459447586087, -1.0], [378.929141627598, -0.9402987877151721], [406.12619817811606, -0.3103190236028511], [435.2752816480601, -0.3679588055705481], [466.5164957684015, -0.9682067652202958], [467.6279103644623, -1.0], [499.9999999999975, -1.890343469447882], [504.00994244017375, -2.0], [535.8867312681438, -2.8395062294340425], [544.6867594145971, -3.0], [574.3491774985143, -3.5308302951436508], [615.5722066724546, -3.7313445881670373], [659.7539553864432, -3.359657074212165], [678.7851324906708, -3.0], [707.1067811865431, -2.4920633118985096], [728.8355773593662, -2.0], [757.8582832551941, -1.3646580122734306], [776.1055979207227, -1.0], [812.2523963562301, -0.3017331954596589], [837.3712358731766, 0.0], [870.5505632961181, 0.3780809703720863], [933.0329915368008, 0.45560359215168234], [986.096210187675, 0.0], [999.9999999999926, -0.11920278865629345], [1056.960316975482, -1.0], [1071.773462536285, -1.2210370145907854], [1115.809544540525, -2.0], [1148.698354997026, -2.55189680930527], [1178.462067139556, -3.0], [1231.1444133449063, -3.7552979319042907], [1257.6898269272492, -4.0], [1319.5079107728832, -4.553302187319013], [1414.2135623730828, -4.818796067382674], [1515.7165665103846, -4.640625708053557], [1624.5047927124563, -4.2260109371968895], [1690.5088066416881, -4.0], [1741.1011265922318, -3.8380897857173215], [1866.065983073597, -3.692030156051571], [1999.9999999999802, -3.87239649953725], [2039.580140177472, -4.0], [2143.5469250725646, -4.338349473998871], [2297.396709994046, -4.8921397728164475], [2339.5292437427893, -5.0], [2462.2888266898062, -5.317732657417469], [2639.01582154576, -5.432042678015643], [2828.427124746159, -5.210605189125939], [2926.3761674136817, -5.0], [3031.4331330207656, -4.790792385663504], [3249.0095854249043, -4.408118388513035], [3482.2022531844555, -4.312023154987806], [3732.1319661471844, -4.717926256327007], [3803.1605238149764, -5.0], [3999.9999999999504, -5.749623878902769], [4041.2591616109653, -6.0], [4211.735191009888, -6.999999999999999], [4287.093850145118, -7.416233110303152], [4365.305616367529, -8.0], [4505.178896009851, -9.0], [4594.793419988081, -9.5985550623176], [4645.417173815776, -10.0], [4773.622247278224, -11.0], [4912.943685038665, -12.0], [4924.577653379601, -12.081213346488425], [5047.332054517228, -13.0], [5188.090308758728, -14.0], [5278.031643091506, -14.602108474605036], [5343.114341129463, -15.0], [5509.074991032232, -16.0], [5656.854249492303, -16.835174074947968], [5696.420621477672, -17.0], [5939.12624957659, -18.0], [6062.866266041508, -18.488184256916604], [6333.601977077694, -19.0], [6498.019170849792, -19.306236055088334], [6964.404506368902, -19.212853413227165], [7088.5005660167235, -19.0], [7464.2639322943505, -18.392834774218933], [7655.411987997379, -18.0], [7999.999999999882, -17.298837306217642]], 'minus_line': [[125.0, 6.827856544562407], [125.4417788693342, 7.0], [128.01706974245687, 8.0], [130.78867401911174, 9.0], [133.88511434465593, 10.0], [133.9716828170366, 10.026995943756786], [136.46351374096636, 11.0], [139.11944847618238, 12.0], [141.9858652511618, 13.0], [143.5872943746293, 13.52394268626983], [145.1872814923159, 14.0], [148.5954477685624, 15.0], [152.25669027532732, 16.0], [153.89305166811442, 16.424657226842292], [157.52922498895921, 17.0], [164.2553394557084, 18.0], [164.93848884661162, 18.098407385308448], [176.77669529663666, 18.279812791114544], [179.5385434224778, 18.0], [189.46457081379947, 17.040451658178707], [189.7073284243826, 17.0], [195.81360921065416, 16.0], [201.8656775568989, 15.0], [203.0630990890584, 14.809177367885876], [207.65604184858273, 14.0], [213.18163448842816, 13.0], [217.6376408240306, 12.196941038897005], [218.97727694140244, 12.0], [225.759840487341, 11.0], [232.38173601362496, 10.0], [233.25824788420132, 9.871293220867985], [243.0064693212569, 9.0], [249.99999999999937, 8.375247843594044], [266.5905228517215, 8.0], [267.94336563407256, 7.971034898251515], [268.73387423520956, 8.0], [287.1745887492579, 8.673562733911242], [291.42157962180505, 9.0], [304.8268937850556, 10.0], [307.78610333622805, 10.213925471216097], [316.26171669805467, 11.0], [327.6710828371605, 12.0], [329.87697769322244, 12.187645536699074], [339.505447856064, 13.0], [352.08635408287864, 14.0], [353.55339059327247, 14.113880372505447], [368.8464681702178, 15.0], [378.929141627598, 15.557444020697826], [397.27374190252283, 16.0], [406.12619817811606, 16.211599188511777], [435.2752816480601, 16.012592224815766], [435.6956391081113, 16.0], [466.5164957684015, 15.137912316537117], [470.0787747001986, 15.0], [497.23243742260723, 14.0], [499.9999999999975, 13.903522434898925], [526.5614253883682, 13.0], [535.8867312681438, 12.69859861524766], [566.6823322309917, 12.0], [574.3491774985143, 11.836540526950388], [615.5722066724546, 11.537821422784058], [659.7539553864424, 11.8567293007004], [667.3951565635118, 12.0], [707.1067811865431, 12.731074043400822], [718.2199026067208, 13.0], [757.8582832551941, 13.931872856157371], [760.8557516233604, 14.0], [805.4231897085982, 15.0], [812.2523963562301, 15.149828335505545], [869.3026767835747, 16.0], [870.5505632961181, 16.018544008845957], [933.0329915368008, 16.27728056284691], [971.5373816825636, 16.0], [999.9999999999926, 15.807127957379832], [1053.5608437115513, 15.0], [1071.773462536285, 14.734258886505575], [1112.1728603505778, 14.0], [1148.698354997026, 13.34916473822244], [1169.8854229046176, 13.0], [1231.1444133449063, 12.01524504088668], [1232.5095246710816, 12.0], [1319.5079107728832, 11.076594495920189], [1337.6698668396048, 11.0], [1414.2135623730828, 10.702737619426676], [1515.7165665103846, 10.852949480337184], [1550.1410379848971, 11.0], [1624.5047927124563, 11.319269208415484], [1741.1011265922298, 11.781057364105866], [1866.065983073597, 11.986454084619847], [1999.9999999999827, 11.855267108703776], [2143.5469250725646, 11.468354324651953], [2297.396709994046, 11.009452894162301], [2302.1709407662242, 11.0], [2462.2888266898062, 10.706328509758462], [2639.01582154576, 10.669771339782596], [2828.427124746159, 10.913167894496324], [2870.469943400945, 11.0], [3031.4331330207615, 11.334392715608143], [3249.0095854249043, 11.697217076908386], [3482.2022531844596, 11.742492940967642], [3732.1319661471844, 11.24913716291842], [3788.9462529786924, 11.0], [3999.9999999999504, 10.104812597063644], [4016.9054860961546, 10.0], [4180.70464891983, 9.0], [4287.093850145118, 8.354355551389101], [4336.943486456516, 8.0], [4476.692278710711, 7.000000000000001], [4594.793419988081, 6.1475871277609055], [4615.497385783518, 6.0], [4755.314124452646, 5.0], [4890.8306648586595, 4.0], [4924.577653379601, 3.756193074774345], [5044.480743703598, 3.0], [5197.950705576084, 2.0], [5278.031643091506, 1.4790463079630318], [5375.350193233226, 1.0], [5574.73301589721, 0.0], [5656.854249492303, -0.41207649190574774], [5837.885774650625, -1.0], [6062.866266041501, -1.7306120345097185], [6234.367301813729, -2.0], [6498.019170849792, -2.3960951045139787], [6964.404506368894, -2.3871006689195164], [7221.373010054946, -2.0], [7464.2639322943505, -1.6395809861308466], [7671.109910581769, -1.0], [7999.999999999882, -0.007703006590175004]]}",,,nlhglm,003,fr,1,2022-05-09_15h57.08.063,Continuous,2022.1.1,None,
4,0,4,0,1,0,1,0,,,,,,,,2.4531049227239494,none,2997.0,-0.4228870737683308,5.2396221152513495e-05,0,106,"['frequency', 'none']",0.0075635663233697414,None,None,163.98890150012448,163.98890150012448,0.20716676651500165,2.660271689238951,164.20314170001075,163.98890150012448,,,,,,,,,nlhglm,003,fr,1,2022-05-09_15h57.08.063,Continuous,2022.1.1,None,
4,0,4,0,2,0,2,0,,,,,,,,2.1583416349760816,none,6350.0,-7.834786857360594,5.336596115063183e-05,0,107,"['frequency', 'none']",0.0040928665548563,0.19424916640855372,None,166.6842510001734,166.6842510001734,0.19424916640855372,2.3525908013846353,166.8910821999889,166.6842510001734,,,,,,,,,nlhglm,003,fr,1,2022-05-09_15h57.08.063,Continuous,2022.1.1,None,
4,0,4,0,3,0,3,0,,,,,,,,2.545925788154927,none,3364.0,-3.1799190276936304,5.046508219087264e-05,0,108,"['frequency', 'none']",0.008628566516563296,None,None,169.08291819994338,169.08291819994338,0.20895216637291014,2.7548779545278372,169.2912089000456,169.08291819994338,,,,,,,,,nlhglm,003,fr,1,2022-05-09_15h57.08.063,Continuous,2022.1.1,None,
4,0,4,0,4,0,4,0,,,,,,,,1.1236424981727224,none,1060.0,-0.3952793516552866,4.449060606928895e-05,0,109,"['frequency', 'none']",0.008628066862002015,None,None,171.86918810009956,171.86918810009956,0.20854156673885882,1.3321840649115813,172.07837310014293,171.86918810009956,,,,,,,,,nlhglm,003,fr,1,2022-05-09_15h57.08.063,Continuous,2022.1.1,None,
4,0,4,0,5,0,5,0,,,,,,,,1.0280781034894966,none,8000.0,-9.0,6.441247758465671e-05,0,110,"['frequency', 'none']",0.008547666715458035,None,None,173.2324100001715,173.2324100001715,0.20967296650633216,1.2377510699958287,173.43880899995565,173.2324100001715,,,,,,,,,nlhglm,003,fr,1,2022-05-09_15h57.08.063,Continuous,2022.1.1,None,
4,0,4,0,6,0,6,0,,,,,,,,1.807497476192363,none,5040.0,-6.1174052485489145,7.479721425211583e-05,0,111,"['frequency', 'none']",0.008588166674599051,None,['space'],174.4998673000373,174.4998673000373,0.20867516659200191,2.016172642784365,174.71105080004781,174.4998673000373,,[-0.6246569000650197],,,,,,,nlhglm,003,fr,1,2022-05-09_15h57.08.063,Continuous,2022.1.1,None,
4,0,4,0,7,0,7,0,,,,,,,,1.4848019928983307,none,1782.0,-5.404136826573135,3.487348658657639e-05,0,112,"['frequency', 'none']",0.001257866621017456,0.19529956672340631,['space'],176.55099090002477,176.55099090002477,0.19529956672340631,1.680101559621737,176.7640597000718,176.55099090002477,,[-1.555717899929732],,,,,,,nlhglm,003,fr,1,2022-05-09_15h57.08.063,Continuous,2022.1.1,None,
4,0,4,0,8,0,8,0,,,,,,,,1.6314947163109284,none,,,,1,112,"['frequency', 'none']",0.008357766317203641,0.20621236646547914,None,178.27634890004992,178.27634890004992,0.20621236646547914,1.8377070827764075,178.48140899999999,178.27634890004992,,,,,,,,,nlhglm,003,fr,1,2022-05-09_15h57.08.063,Continuous,2022.1.1,None,
5,0,5,0,0,0,0,0,,,,,,183.37154650012963,None,2.6317458409752676,time,1189.0,-4.594828904031897,3.061322323558509e-05,0,47,"['frequency', 'none']",0.012769266730174422,None,None,184.3877578000538,None,0.22552856663241982,2.8572744076076875,184.60654469998553,None,,,180.14403600012884,None,"[0.16666666666666666, 0.5833333333333334, 0.16666666666666666, 0.16666666666666666, 0.5833333333333334, 0.3333333333333333, 0.5833333333333334, 0.5833333333333334, 0.3333333333333333, 0.3333333333333333, 0.16666666666666666, 0.16666666666666666, 0.5833333333333334, 0.3333333333333333, 0.5833333333333334]",,,,nlhglm,003,fr,1,2022-05-09_15h57.08.063,Continuous,2022.1.1,None,
5,0,5,0,1,0,1,0,,,,,,,,2.6317458409752676,time,6350.0,-6.514341555848009,6.212788950319224e-05,0,48,"['frequency', 'none']",0.00817916658706963,None,None,187.2639822999481,187.2639822999481,0.20934196677990258,2.8410878077551702,187.47916770004667,187.2639822999481,,,,,,,,,nlhglm,003,fr,1,2022-05-09_15h57.08.063,Continuous,2022.1.1,None,
5,0,5,0,2,0,2,0,,,,,,,,2.6317458409752676,time,1335.0,-6.368612498977496,2.5170508302192652e-05,0,49,"['frequency', 'none']",0.004192366497591138,0.1949981665238738,None,190.14102900004946,190.14102900004946,0.1949981665238738,2.8267440074991415,190.35069370013662,190.14102900004946,,,,,,,,,nlhglm,003,fr,1,2022-05-09_15h57.08.063,Continuous,2022.1.1,None,
5,0,5,0,3,0,3,0,,,,,,,,2.6317458409752676,time,794.0,5.068151284975427,6.925556387556542e-05,0,50,"['frequency', 'none']",0.0026795666199177504,0.19407436670735478,None,193.0139516000636,193.0139516000636,0.19407436670735478,2.8258202076826224,193.2253413000144,193.0139516000636,,,,,,,,,nlhglm,003,fr,1,2022-05-09_15h57.08.063,Continuous,2022.1.1,None,
5,0,5,0,4,0,4,0,,,,,,,,2.6317458409752676,time,2245.0,-1.1616125051550998,7.019808396617801e-05,0,51,"['frequency', 'none']",0.004608366871252656,0.19569146679714322,['space'],195.8806136001367,195.8806136001367,0.19569146679714322,2.827437307772411,196.09072070010006,195.8806136001367,,[-2.1170624000951648],,,,,,,nlhglm,003,fr,1,2022-05-09_15h57.08.063,Continuous,2022.1.1,None,
5,0,5,0,5,0,5,0,,,,,,,,2.6317458409752676,time,1498.0,-6.649076373880808,2.2488598816156402e-05,0,52,"['frequency', 'none']",0.004104766761884093,0.19618146680295467,None,198.75222360016778,198.75222360016778,0.19618146680295467,2.8279273077782223,198.96428630012088,198.75222360016778,,,,,,,,,nlhglm,003,fr,1,2022-05-09_15h57.08.063,Continuous,2022.1.1,None,
5,0,5,0,6,0,6,0,,,,,,,,2.6317458409752676,time,,,,1,52,"['frequency', 'none']",0.004911966621875763,0.19532386655919254,None,201.61963440012187,201.61963440012187,0.19532386655919254,2.82706970753446,201.82673790003173,201.61963440012187,,,,,,,,,nlhglm,003,fr,1,2022-05-09_15h57.08.063,Continuous,2022.1.1,None,
5,0,5,0,7,0,7,0,,,,,,,,2.6317458409752676,time,8000.0,-7.0,8.109050486794653e-05,0,53,"['frequency', 'none']",0.007823266787454486,0.20312026678584516,None,204.48789210012183,204.48789210012183,0.20312026678584516,2.834866107761113,204.69872650015168,204.48789210012183,,,,,,,,,nlhglm,003,fr,1,2022-05-09_15h57.08.063,Continuous,2022.1.1,None,
5,0,5,0,8,0,8,0,,,,,,,,2.6317458409752676,time,2829.0,2.537268013751345,8.765475509071502e-05,0,54,"['frequency', 'none']",0.003885166486725211,0.19245116668753326,['space'],207.3598164001014,207.3598164001014,0.19245116668753326,2.824197007662801,207.566380900098,207.3598164001014,,[-2.3168408998753875],,,,,,,nlhglm,003,fr,1,2022-05-09_15h57.08.063,Continuous,2022.1.1,None,
6,0,6,0,0,0,0,0,,,,,,213.39347090013325,None,2.130671620404158,time,141.0,5.662501561936118,0.0011136758715312484,0,55,"['frequency', 'none']",0.012893466744571924,None,None,214.42615760001354,None,0.21452016662806273,2.3451917870322205,214.63897319999523,None,,,210.23045459995046,None,"[0.5833333333333334, 0.3333333333333333, 0.5833333333333334, 0.16666666666666666, 0.16666666666666666, 0.5833333333333334, 0.16666666666666666, 0.16666666666666666, 0.16666666666666666, 0.5833333333333334, 0.16666666666666666, 0.5833333333333334, 0.5833333333333334, 0.3333333333333333, 0.3333333333333333]",,,,nlhglm,003,fr,1,2022-05-09_15h57.08.063,Continuous,2022.1.1,None,
6,0,6,0,1,0,1,0,,,,,,,,2.130671620404158,time,265.0,5.338430930869873,0.0002802829247179637,0,56,"['frequency', 'none']",0.005361766554415226,0.19816486653871834,None,216.801122300094,216.801122300094,0.19816486653871834,2.328836486942876,217.00672030006535,216.801122300094,,,,,,,,,nlhglm,003,fr,1,2022-05-09_15h57.08.063,Continuous,2022.1.1,None,
6,0,6,0,2,0,2,0,,,,,,,,2.130671620404158,time,158.0,10.708350886785345,0.001471637635050524,0,57,"['frequency', 'none']",0.007862966507673264,None,None,219.16996860015206,219.16996860015206,0.2125607666093856,2.3432323870135434,219.3856999001,219.16996860015206,,,,,,,,,nlhglm,003,fr,1,2022-05-09_15h57.08.063,Continuous,2022.1.1,None,
6,0,6,0,3,0,3,0,,,,,,,,2.130671620404158,time,297.0,3.831033553224656,0.00018293343060265908,0,58,"['frequency', 'none']",0.004778866656124592,0.1967107665259391,None,221.5400211000815,221.5400211000815,0.1967107665259391,2.327382386930097,221.746734400047,221.5400211000815,,,,,,,,,nlhglm,003,fr,1,2022-05-09_15h57.08.063,Continuous,2022.1.1,None,
6,0,6,0,4,0,4,0,,,,,,,,2.130671620404158,time,177.0,11.0,0.001239035698041918,0,59,"['frequency', 'none']",0.00642306637018919,0.20067466632463038,None,223.9085009000264,223.9085009000264,0.20067466632463038,2.331346286728788,224.11481019994244,223.9085009000264,,,,,,,,,nlhglm,003,fr,1,2022-05-09_15h57.08.063,Continuous,2022.1.1,None,
6,0,6,0,5,0,5,0,,,,,,,,2.130671620404158,time,1058.0,10.874699038570084,0.0001625497397346902,0,60,"['frequency', 'none']",0.006555366795510054,0.20308876666240394,['space'],226.27764159999788,226.27764159999788,0.20308876666240394,2.3337603870665617,226.48620210005902,226.27764159999788,,[-1.906397799961269],,,,,,,nlhglm,003,fr,1,2022-05-09_15h57.08.063,Continuous,2022.1.1,None,
6,0,6,0,6,0,6,0,,,,,,,,2.130671620404158,time,840.0,10.110320853450734,0.00012652243468367475,0,61,"['frequency', 'none']",0.003037666669115424,0.19422596669755876,['space'],228.64931340003386,228.64931340003386,0.19422596669755876,2.3248975871017166,228.85586210014299,228.64931340003386,,[-1.9095311998389661],,,,,,,nlhglm,003,fr,1,2022-05-09_15h57.08.063,Continuous,2022.1.1,None,
6,0,6,0,7,0,7,0,,,,,,,,2.130671620404158,time,,,,1,61,"['frequency', 'none']",0.005795466713607311,0.19978026673197746,['space'],231.016203999985,231.016203999985,0.19978026673197746,2.3304518871361353,231.226054900093,231.016203999985,,[-1.9085820999462157],,,,,,,nlhglm,003,fr,1,2022-05-09_15h57.08.063,Continuous,2022.1.1,None,
6,0,6,0,8,0,8,0,,,,,,,,2.130671620404158,time,445.0,10.725135324233634,0.0002552598920858266,0,62,"['frequency', 'none']",0.004835466621443629,0.19447546661831439,None,233.38703800016083,233.38703800016083,0.19447546661831439,2.325147087022472,233.59405010007322,233.38703800016083,,,,,,,,,nlhglm,003,fr,1,2022-05-09_15h57.08.063,Continuous,2022.1.1,None,
6,0,6,0,9,0,9,0,,,,,,,,2.130671620404158,time,667.0,10.92201448557987,0.00016850690925783386,0,63,"['frequency', 'none']",0.0028346667531877756,0.19146876665763557,['space'],235.7565701000858,235.7565701000858,0.19146876665763557,2.3221403870617934,235.96574250003323,235.7565701000858,,[-1.946116500068456],,,,,,,nlhglm,003,fr,1,2022-05-09_15h57.08.063,Continuous,2022.1.1,None,
7,0,7,0,0,0,0,0,,,,,0.16666666666666666,242.1213283999823,None,2.6902533268605753,both,8000.0,-6.0,9.098504293049921e-05,0,67,"['frequency', 'none']",0.013110666535794735,None,['space'],243.1710070001427,None,0.21740656648762524,2.9076598933482005,243.38506700005382,None,,[-0.8640441000461578],238.12757110013627,None,,,,,nlhglm,003,fr,1,2022-05-09_15h57.08.063,Continuous,2022.1.1,None,
7,0,7,0,1,0,1,0,,,,,,,,2.6902533268605753,both,7127.0,-6.502426197774335,7.335406250730097e-05,0,68,"['frequency', 'none']",0.00712886662222445,None,['space'],246.0980885999743,246.0980885999743,0.20574596640653908,2.8959992932671144,246.30663809995167,246.0980885999743,,[-2.3027933000121266],,,,,,,nlhglm,003,fr,1,2022-05-09_15h57.08.063,Continuous,2022.1.1,None,
7,0,7,0,2,0,2,0,,,,,,,,2.6902533268605753,both,6349.0,-5.999999999999999,6.590275568519513e-05,0,69,"['frequency', 'none']",0.007080066716298461,None,['space'],249.02889190008864,249.02889190008864,0.2055161667522043,2.8957694936127796,249.242158500012,249.02889190008864,,[-2.5296324000228196],,,,,,,nlhglm,003,fr,1,2022-05-09_15h57.08.063,Continuous,2022.1.1,None,
7,0,7,0,3,0,3,0,,,,,,,,2.6902533268605753,both,,,,1,69,"['frequency', 'none']",0.007204366382211447,None,None,251.96527200005949,251.96527200005949,0.2072894664015621,2.8975427932621374,252.17408949998207,251.96527200005949,,,,,,,,,nlhglm,003,fr,1,2022-05-09_15h57.08.063,Continuous,2022.1.1,None,
7,0,7,0,4,0,4,0,,,,,,,,2.6902533268605753,both,5039.0,-4.2497176121432245,9.276318743863238e-05,0,70,"['frequency', 'none']",0.004618566716089845,0.1943782668095082,None,254.89311540010385,254.89311540010385,0.1943782668095082,2.8846315936700835,255.10398590005934,254.89311540010385,,,,,,,,,nlhglm,003,fr,1,2022-05-09_15h57.08.063,Continuous,2022.1.1,None,
7,0,7,0,5,0,5,0,,,,,,,,2.6902533268605753,both,4489.0,-2.6678607998524853,8.648953288573489e-05,0,71,"['frequency', 'none']",0.006907566683366895,None,['space'],257.8275763001293,257.8275763001293,0.20952266664244235,2.8997759935030176,258.04454499995336,257.8275763001293,,[-2.4961765001062304],,,,,,,nlhglm,003,fr,1,2022-05-09_15h57.08.063,Continuous,2022.1.1,None,
7,0,7,0,6,0,6,0,,,,,,,,2.6902533268605753,both,3999.0,-4.000138196733358,5.295076788935598e-05,0,72,"['frequency', 'none']",0.0036257668398320675,None,['space'],260.7653989000246,260.7653989000246,0.20184536674059927,2.8920986936011746,260.9851963999681,260.7653989000246,,[-1.9779264000244439],,,,,,,nlhglm,003,fr,1,2022-05-09_15h57.08.063,Continuous,2022.1.1,None,
7,0,7,0,7,0,7,0,,,,,,,,2.6902533268605753,both,3563.0,-4.976480499908744,4.300553516959584e-05,0,73,"['frequency', 'none']",0.0006694665644317865,0.18955376651138067,['space'],263.7087143000681,263.7087143000681,0.18955376651138067,2.879807093371956,263.9165795999579,263.7087143000681,,[-1.9452976000029594],,,,,,,nlhglm,003,fr,1,2022-05-09_15h57.08.063,Continuous,2022.1.1,None,
7,0,7,0,8,0,8,0,,,,,,,,2.6902533268605753,both,3174.0,-0.9137173534269376,6.250676816367312e-05,0,74,"['frequency', 'none']",0.0030142664909362793,None,None,266.63820319995284,266.63820319995284,0.19856686634011567,2.888820193200691,266.8548453999683,266.63820319995284,,,,,,,,,nlhglm,003,fr,1,2022-05-09_15h57.08.063,Continuous,2022.1.1,None,
8,0,8,0,0,0,0,0,,,,,,273.8946704999544,None,1.917507786614791,time,1590.0,0.8052100603301846,6.133620644247399e-05,0,64,"['frequency', 'none']",0.012202766491100192,None,None,274.9320331001654,None,0.21468876651488245,2.132196553129673,275.14549509994686,None,,,269.57682269997895,None,"[0.5833333333333334, 0.16666666666666666, 0.3333333333333333, 0.3333333333333333, 0.5833333333333334, 0.3333333333333333, 0.5833333333333334, 0.5833333333333334, 0.5833333333333334, 0.5833333333333334, 0.3333333333333333, 0.16666666666666666, 0.16666666666666666, 0.3333333333333333, 0.5833333333333334]",,,,nlhglm,003,fr,1,2022-05-09_15h57.08.063,Continuous,2022.1.1,None,
8,0,8,0,1,0,1,0,,,,,,,,1.917507786614791,time,354.0,14.0,0.00044353259081958895,0,65,"['frequency', 'none']",0.006504766410216689,None,None,277.09582819999196,277.09582819999196,0.20666876644827425,2.124176553063065,277.30263860011473,277.09582819999196,,,,,,,,,nlhglm,003,fr,1,2022-05-09_15h57.08.063,Continuous,2022.1.1,None,
8,0,8,0,2,0,2,0,,,,,,,,1.917507786614791,time,158.0,11.797284190543024,0.0016681978262704747,0,66,"['frequency', 'none']",0.003810066496953368,0.19518816634081304,['space'],279.250887400005,279.250887400005,0.19518816634081304,2.1126959529556038,279.4626335001085,279.250887400005,,[-1.5843336000107229],,,,,,,nlhglm,003,fr,1,2022-05-09_15h57.08.063,Continuous,2022.1.1,None,
8,0,8,0,3,0,3,0,,,,,,,,1.917507786614791,time,530.0,8.464069468285011,0.00017690914733165523,0,67,"['frequency', 'none']",0.006595066748559475,None,['space'],281.4163514999673,281.4163514999673,0.20484956679865718,2.122357353413448,281.6337896999903,281.4163514999673,,[-1.6050418999511749],,,,,,,nlhglm,003,fr,1,2022-05-09_15h57.08.063,Continuous,2022.1.1,None,
8,0,8,0,4,0,4,0,,,,,,,,1.917507786614791,time,750.0,12.192598841754277,0.00016542454409835253,0,68,"['frequency', 'none']",0.004306166432797909,0.1978889664169401,['space'],283.57234960002825,283.57234960002825,0.1978889664169401,2.115396753031731,283.78175670001656,283.57234960002825,,[-1.5847684000618756],,,,,,,nlhglm,003,fr,1,2022-05-09_15h57.08.063,Continuous,2022.1.1,None,
8,0,8,0,5,0,5,0,,,,,,,,1.917507786614791,time,236.0,7.202716720427645,0.00044665585675340863,0,69,"['frequency', 'none']",0.006593666505068541,None,['space'],285.7345704000909,285.7345704000909,0.20565396663732827,2.123161753252119,285.94562130002305,285.7345704000909,,[-1.683584599988535],,,,,,,nlhglm,003,fr,1,2022-05-09_15h57.08.063,Continuous,2022.1.1,None,
8,0,8,0,6,0,6,0,,,,,,,,1.917507786614791,time,1061.0,2.3464912686499813,6.105859524747377e-05,0,70,"['frequency', 'none']",0.0022451665718108416,0.1941378666087985,['space'],287.8951996001415,287.8951996001415,0.1941378666087985,2.111645653223589,288.1067316001281,287.8951996001415,,[-1.6996691999956965],,,,,,,nlhglm,003,fr,1,2022-05-09_15h57.08.063,Continuous,2022.1.1,None,
8,0,8,0,7,0,7,0,,,,,,,,1.917507786614791,time,842.0,12.768547272358397,0.0001720692710406014,0,71,"['frequency', 'none']",0.015921133337542415,None,['space'],290.0554521000013,290.0554521000013,0.21004463313147426,2.127552419746265,290.2704308000393,290.0554521000013,,[-1.812045400030911],,,,,,,nlhglm,003,fr,1,2022-05-09_15h57.08.063,Continuous,2022.1.1,None,
8,0,8,0,8,0,8,0,,,,,,,,1.917507786614791,time,,,,1,71,"['frequency', 'none']",0.0026638666167855263,None,['space'],292.21895300014876,292.21895300014876,0.1938707665540278,2.1113785531688185,292.4307326001581,292.21895300014876,,[-1.671960199950263],,,,,,,nlhglm,003,fr,1,2022-05-09_15h57.08.063,Continuous,2022.1.1,None,
9,0,9,0,0,0,0,0,,,,,,298.2472795001231,None,2.7753063081787452,time,944.0,-0.2846255837703078,4.1091983082177435e-05,0,72,"['frequency', 'none']",0.012487566564232111,None,None,299.2649071000051,None,0.21365736657753587,2.988963674756281,299.47867980017327,None,,,294.3838301000651,None,"[0.16666666666666666, 0.5833333333333334, 0.16666666666666666, 0.3333333333333333, 0.3333333333333333, 0.5833333333333334, 0.5833333333333334, 0.3333333333333333, 0.5833333333333334, 0.3333333333333333, 0.3333333333333333, 0.5833333333333334, 0.16666666666666666, 0.3333333333333333, 0.5833333333333334]",,,,nlhglm,003,fr,1,2022-05-09_15h57.08.063,Continuous,2022.1.1,None,
9,0,9,0,1,0,1,0,,,,,,,,2.7753063081787452,time,4000.0,-3.0,5.942511137185092e-05,0,73,"['frequency', 'none']",0.006380566628649831,None,None,302.2895880001597,302.2895880001597,0.20868336642161012,2.9839896746003554,302.50023999996483,302.2895880001597,,,,,,,,,nlhglm,003,fr,1,2022-05-09_15h57.08.063,Continuous,2022.1.1,None,
9,0,9,0,2,0,2,0,,,,,,,,2.7753063081787452,time,1414.0,-2.8507577881001103,3.632594208601917e-05,0,74,"['frequency', 'none']",0.006332766730338335,None,None,305.30899309995584,305.30899309995584,0.2065180668141693,2.9818243749929145,305.52076059998944,305.30899309995584,,,,,,,,,nlhglm,003,fr,1,2022-05-09_15h57.08.063,Continuous,2022.1.1,None,
9,0,9,0,3,0,3,0,,,,,,,,2.7753063081787452,time,749.0,7.871524196896715,0.00010080504944193134,0,75,"['frequency', 'none']",0.006249766563996673,None,None,308.33024360006675,308.33024360006675,0.20502006658352911,2.9803263747622744,308.53824950009584,308.33024360006675,,,,,,,,,nlhglm,003,fr,1,2022-05-09_15h57.08.063,Continuous,2022.1.1,None,
9,0,9,0,4,0,4,0,,,,,,,,2.7753063081787452,time,5040.0,-2.861773184521838,0.0001088095530801996,0,76,"['frequency', 'none']",0.005798566620796919,None,['space'],311.3484865000937,311.3484865000937,0.20606676675379276,2.981373074932538,311.56029190006666,311.3484865000937,,[-2.529538699891418],,,,,,,nlhglm,003,fr,1,2022-05-09_15h57.08.063,Continuous,2022.1.1,None,
9,0,9,0,5,0,5,0,,,,,,,,2.7753063081787452,time,529.0,7.112522641986052,0.00015177020606605627,0,77,"['frequency', 'none']",0.005895066540688276,None,['space'],314.37036660010926,314.37036660010926,0.2043204663787037,2.979626774557449,314.5791657001246,314.37036660010926,,[-2.510303300106898],,,,,,,nlhglm,003,fr,1,2022-05-09_15h57.08.063,Continuous,2022.1.1,None,
9,0,9,0,6,0,6,0,,,,,,,,2.7753063081787452,time,2670.0,3.4539005079493243,0.0001121164581943246,0,78,"['frequency', 'none']",0.006166466511785984,None,['space'],317.3883088999428,317.3883088999428,0.20630286657251418,2.9816091747512594,317.5997528999578,317.3883088999428,,[-2.472786800004542],,,,,,,nlhglm,003,fr,1,2022-05-09_15h57.08.063,Continuous,2022.1.1,None,
9,0,9,0,7,0,7,0,,,,,,,,2.7753063081787452,time,6350.0,-5.718621681226478,6.80883162254712e-05,0,79,"['frequency', 'none']",0.006195066496729851,None,None,320.4102024999447,320.4102024999447,0.20480996649712324,2.9801162746758685,320.6182335000485,320.4102024999447,,,,,,,,,nlhglm,003,fr,1,2022-05-09_15h57.08.063,Continuous,2022.1.1,None,
9,0,9,0,8,0,8,0,,,,,,,,2.7753063081787452,time,594.0,-0.289063536713126,5.492211869329153e-05,0,80,"['frequency', 'none']",0.005896366434171796,None,None,323.42908250004984,323.42908250004984,0.20528906653635204,2.9805953747150973,323.63916720007546,323.42908250004984,,,,,,,,,nlhglm,003,fr,1,2022-05-09_15h57.08.063,Continuous,2022.1.1,None,
9,0,9,0,9,0,9,0,,,,,,,,2.7753063081787452,time,2119.0,1.433081378790063,9.134267864094146e-05,0,81,"['frequency', 'none']",0.0057449666783213615,None,None,326.4510083999485,326.4510083999485,0.20296696666628122,2.9782732748450265,326.658361800015,326.4510083999485,,,,,,,,,nlhglm,003,fr,1,2022-05-09_15h57.08.063,Continuous,2022.1.1,None,
9,0,9,0,10,0,10,0,,,,,,,,2.7753063081787452,time,,,,1,81,"['frequency', 'none']",0.0061311665922403336,None,None,329.469627100043,329.469627100043,0.20526446658186615,2.9805707747606114,329.67982139997184,329.469627100043,,,,,,,,,nlhglm,003,fr,1,2022-05-09_15h57.08.063,Continuous,2022.1.1,None,
10,0,10,0,0,0,0,0,,,,,,339.7789660000708,None,1.790939281310252,time,354.0,17.0,0.0006265064367964709,0,82,"['frequency', 'none']",0.01288906647823751,None,None,340.8179302001372,None,0.225429366575554,2.0163686478858063,341.0356680001132,None,,,332.48924720007926,None,"[0.3333333333333333, 0.5833333333333334, 0.16666666666666666, 0.5833333333333334, 0.3333333333333333, 0.3333333333333333, 0.16666666666666666, 0.5833333333333334, 0.5833333333333334, 0.16666666666666666, 0.16666666666666666, 0.5833333333333334, 0.3333333333333333, 0.5833333333333334, 0.3333333333333333]",,,,nlhglm,003,fr,1,2022-05-09_15h57.08.063,Continuous,2022.1.1,None,
10,0,10,0,1,0,1,0,,,,,,,,1.790939281310252,time,668.0,13.317100768992795,0.00022160346592149581,0,83,"['frequency', 'none']",0.0026112666819244623,0.1939335665665567,None,342.85147029999644,342.85147029999644,0.1939335665665567,1.9848728478768087,343.059195100097,342.85147029999644,,,,,,,,,nlhglm,003,fr,1,2022-05-09_15h57.08.063,Continuous,2022.1.1,None,
10,0,10,0,2,0,2,0,,,,,,,,1.790939281310252,time,1262.0,14.936403644823542,0.00030262864669170007,0,84,"['frequency', 'none']",0.00523716676980257,None,['space'],344.8864078000188,344.8864078000188,0.20178866665810347,1.9927279479683555,345.09589929995127,344.8864078000188,,[-0.8676901001017541],,,,,,,nlhglm,003,fr,1,2022-05-09_15h57.08.063,Continuous,2022.1.1,None,
10,0,10,0,3,0,3,0,,,,,,,,1.790939281310252,time,1590.0,5.389576973580346,0.00010397651515020739,0,85,"['frequency', 'none']",0.002234966494143009,0.1931841664481908,['space'],346.92249920009635,346.92249920009635,0.1931841664481908,1.9841234477584428,347.1289638001472,346.92249920009635,,[-1.5592139998916537],,,,,,,nlhglm,003,fr,1,2022-05-09_15h57.08.063,Continuous,2022.1.1,None,
10,0,10,0,4,0,4,0,,,,,,,,1.790939281310252,time,397.0,14.97760027325829,0.0004337564993600851,0,86,"['frequency', 'none']",0.005649466533213854,0.20319666666910052,['space'],348.9512422999833,348.9512422999833,0.20319666666910052,1.9941359479793526,349.166718600085,348.9512422999833,,[-1.3805835999082774],,,,,,,nlhglm,003,fr,1,2022-05-09_15h57.08.063,Continuous,2022.1.1,None,
10,0,10,0,5,0,5,0,,,,,,,,1.790939281310252,time,,,,1,86,"['frequency', 'none']",0.0017589665949344635,0.1926344665698707,['space'],350.97804279997945,350.97804279997945,0.1926344665698707,1.9835737478801228,351.1864112999756,350.97804279997945,,[-1.551541700027883],,,,,,,nlhglm,003,fr,1,2022-05-09_15h57.08.063,Continuous,2022.1.1,None,
10,0,10,0,6,0,6,0,,,,,,,,1.790939281310252,time,158.0,6.277014910722659,0.0008835560133401078,0,87,"['frequency', 'none']",0.006769966334104538,None,None,353.01095949998125,353.01095949998125,0.20462446636520326,1.9955637476754553,353.21619520010427,353.01095949998125,,,,,,,,,nlhglm,003,fr,1,2022-05-09_15h57.08.063,Continuous,2022.1.1,None,
10,0,10,0,7,0,7,0,,,,,,,,1.790939281310252,time,236.0,13.143905788570002,0.0008851818214157906,0,88,"['frequency', 'none']",0.005105466581881046,None,['space'],355.04245089995675,355.04245089995675,0.21396156656555831,2.0049008478758106,355.26458170008846,355.04245089995675,,[-1.5348873999901116],,,,,,,nlhglm,003,fr,1,2022-05-09_15h57.08.063,Continuous,2022.1.1,None,
10,0,10,0,8,0,8,0,,,,,,,,1.790939281310252,time,446.0,16.430788184842775,0.0004920013251269341,0,89,"['frequency', 'none']",0.005356466630473733,None,['space'],357.08128960011527,357.08128960011527,0.2050397666171193,1.9959790479273714,357.29305250011384,357.08128960011527,,[-1.6071152999065816],,,,,,,nlhglm,003,fr,1,2022-05-09_15h57.08.063,Continuous,2022.1.1,None,
10,0,10,0,9,0,9,0,,,,,,,,1.790939281310252,time,141.0,5.916097571959442,0.0011466704242296074,0,90,"['frequency', 'none']",0.0021502666641026735,0.19469286664389074,['space'],359.11847480013967,359.11847480013967,0.19469286664389074,1.9856321479541428,359.32585750008,359.11847480013967,,[-1.5471534000243992],,,,,,,nlhglm,003,fr,1,2022-05-09_15h57.08.063,Continuous,2022.1.1,None,
11,0,11,0,0,0,0,0,,,,,,365.0264306999743,None,2.543214606145078,time,8000.0,-4.0,0.00011454338263838867,0,91,"['frequency', 'none', 'time']",0.012854366796091199,None,None,366.0457317000255,None,0.2303977666888386,2.7736123728339166,366.2636057001073,None,,,361.152651600074,None,"[0.16666666666666666, 0.16666666666666666, 0.5833333333333334, 0.3333333333333333, 0.5833333333333334, 0.16666666666666666, 0.16666666666666666, 0.16666666666666666, 0.16666666666666666, 0.16666666666666666, 0.5833333333333334, 0.16666666666666666, 0.3333333333333333, 0.5833333333333334, 0.16666666666666666]",,"{'estimation': [[125.0, 6.083437846821434], [128.9464600432676, 7.0], [133.81613187024976, 8.0], [133.9716828170366, 8.029435699112298], [139.18083251932688, 9.0], [143.5872943746293, 9.758552307190504], [145.58000415892542, 10.0], [153.89305166811442, 10.97627983866267], [154.3976809681647, 11.0], [164.93848884661162, 11.488344746470323], [176.77669529663666, 11.271907346619232], [181.23296210903422, 11.0], [189.46457081379947, 10.512859066490119], [196.72700055640772, 10.0], [203.0630990890585, 9.57223742664432], [215.1563953059601, 9.0], [217.6376408240306, 8.888663351826418], [233.25824788420132, 8.847541979521111], [236.38282591419755, 9.0], [249.99999999999937, 9.646523954705103], [254.04204467396727, 10.0], [265.45470924047015, 11.0], [267.94336563407256, 11.214306330892352], [275.5029993335059, 12.0], [285.1222311263689, 13.0], [287.1745887492579, 13.208327718928157], [295.6669470574963, 14.0], [306.59221770987864, 15.0], [307.78610333622805, 15.106259450083282], [323.3549107406285, 16.0], [329.87697769322244, 16.358300634978267], [353.55339059327247, 16.552798135640387], [367.2528516128596, 16.0], [378.9291416275985, 15.55618835715546], [386.2893736478602, 15.0], [399.8012577629295, 14.0], [406.12619817811606, 13.556847975359084], [412.42712263578494, 13.0], [423.64367953630125, 12.0], [435.2752816480601, 11.017033415292724], [435.48832436795135, 11.0], [447.83335586394486, 10.0], [460.35432387404325, 9.0], [466.5164957684015, 8.534886643634986], [475.9175461000181, 8.0], [493.81897237676804, 7.000000000000001], [499.9999999999975, 6.670366230569878], [526.7960140339361, 6.0], [535.8867312681438, 5.781192758527759], [574.3491774985143, 5.926676478530702], [577.4386443870861, 6.0], [615.5722066724546, 6.863845435627516], [620.122630031487, 7.0], [654.6668689605317, 8.0], [659.7539553864424, 8.14111002880943], [696.59299588298, 9.0], [707.1067811865431, 9.235520908868095], [757.8582832551941, 9.716703096648365], [812.2523963562301, 9.365562885114883], [830.3808834041433, 9.0], [870.5505632961181, 8.20747979573713], [878.0516680179129, 8.0], [914.1093955442963, 7.0], [933.0329915368008, 6.48964897293109], [950.1622523498952, 6.0], [984.9803772440418, 5.0], [999.9999999999926, 4.582238784350146], [1024.0215954632738, 4.0], [1065.6084678165103, 3.0], [1071.773462536285, 2.856057351025942], [1122.8300934663596, 2.0], [1148.698354997026, 1.5788181315764174], [1213.5845309801493, 1.0], [1231.1444133449063, 0.8490354898106448], [1319.5079107728832, 0.6000598944934596], [1414.2135623730828, 0.6396875065127431], [1515.7165665103846, 0.7334184503766302], [1624.5047927124563, 0.6799891830607989], [1741.1011265922318, 0.3650024558592524], [1818.0193789928005, 0.0], [1866.065983073597, -0.22515197871058337], [1997.9270418856813, -1.0], [1999.9999999999802, -1.0120121861026077], [2143.5469250725646, -1.8785587273306827], [2165.496799335337, -2.0], [2297.396709994046, -2.70520263669195], [2365.7086848494237, -3.0], [2462.2888266898062, -3.402530465407457], [2639.01582154576, -3.919408519379278], [2685.1708119814607, -4.0], [2828.427124746159, -4.244366352565057], [3031.4331330207615, -4.373119995136017], [3249.0095854249043, -4.306673960741165], [3482.2022531844555, -4.039136833570792], [3502.215779631362, -4.0], [3732.1319661471844, -3.568207824896188], [3962.41604970856, -3.0], [3999.9999999999504, -2.9112342557251614], [4287.093850145118, -2.1198908501516436], [4329.553666078423, -2.0], [4594.793419988081, -1.2861909437993368], [4718.446208481789, -1.0], [4924.577653379601, -0.540620121419998], [5278.031643091506, -0.030844585504721436], [5353.939686855828, 0.0], [5656.854249492303, 0.12039947733257517], [5823.459284660063, 0.0], [6062.866266041508, -0.16646103729908604], [6498.019170849792, -0.8846405416465585], [6547.591622923519, -1.0], [6964.404506368894, -1.9453889494411762], [6986.38464814518, -2.0], [7390.7275796753775, -3.0], [7464.2639322943505, -3.1802215088616577], [7834.105820861539, -4.0], [7999.999999999892, -4.378146527546131]], 'plus_line': [[125.0, 0.8295738064630473], [125.6162149072462, 1.0], [129.2536542319984, 2.0], [132.9424086660959, 3.0], [133.9716828170366, 3.253931389952982], [137.69047726769338, 4.0], [142.6143237131153, 5.0], [143.5872943746293, 5.185054346474601], [150.43434575923166, 6.0], [153.89305166811442, 6.4032475448194415], [164.93848884661162, 6.825499956450104], [176.77669529663666, 6.5022048257666665], [184.68524858424203, 6.0], [189.46457081379947, 5.697410226111697], [199.88183383894705, 5.0], [203.0630990890585, 4.792917495844916], [217.6376408240306, 4.196639365581609], [233.25824788420132, 4.215246186043185], [249.99999999999937, 4.9900804196456345], [250.12453206481374, 5.0], [262.66858892575306, 6.0], [267.94336563407256, 6.429142527490154], [274.0642232658843, 7.0], [284.1758859647647, 8.0], [287.1745887492579, 8.294301814779182], [295.32194112810265, 9.0], [306.3133711486257, 10.0], [307.78610333622805, 10.130189467039706], [322.78258856607516, 11.0], [329.87697769322244, 11.403028496890174], [353.55339059327247, 11.688719889812656], [372.7407315836704, 11.0], [378.929141627598, 10.785786108879352], [389.2039799425794, 10.0], [403.55615514900654, 9.0], [406.12619817811606, 8.83178213972141], [414.9360933266314, 8.0], [426.12965859776114, 7.0], [435.2752816480601, 6.28162669274288], [438.5912946213095, 6.0], [450.2008886784444, 5.0], [463.29618481219615, 4.0], [466.5164957684015, 3.7717861478357433], [479.52752002232637, 3.0], [498.0931788861842, 2.0], [499.99999999999693, 1.9021720420130612], [535.8867312681438, 1.0413364759785333], [574.3491774985143, 1.235120180676236], [605.2388754332828, 2.0], [615.5722066724546, 2.2423905113118523], [640.3731845413432, 3.0], [659.7539553864432, 3.579521999298095], [676.8394176818498, 4.0], [707.1067811865431, 4.719949816025727], [734.5076526060268, 5.0], [757.8582832551941, 5.217946469497597], [789.9174718018171, 5.0], [812.2523963562301, 4.842929205132091], [852.079048572639, 4.0], [870.5505632961181, 3.62693895358509], [891.4896955110606, 3.0], [927.093339520359, 2.0], [933.0329915368008, 1.8416613283576877], [959.9019301988967, 1.0], [994.7287211088735, 0.0], [999.9999999999926, -0.1433665420397149], [1032.7146260354946, -1.0], [1071.773462536285, -1.9290209933665765], [1075.8098585285086, -2.0], [1133.9642593588917, -3.0], [1148.6983549970273, -3.238869891266513], [1231.1444133449063, -3.9338708399077427], [1263.3574848072976, -4.0], [1319.5079107728832, -4.118205284258868], [1414.2135623730828, -4.004363010024593], [1417.7733184417123, -4.0], [1515.7165665103828, -3.8941173323314486], [1624.5047927124563, -3.9977375146783327], [1625.129949386901, -4.0], [1741.101126592234, -4.437707849402308], [1840.2974523819528, -5.0], [1866.065983073597, -5.150179085027257], [1994.030062779563, -6.0], [1999.9999999999802, -6.039800184770517], [2143.5469250725646, -6.969151280750315], [2149.0324083991322, -7.0], [2297.396709994046, -7.819856566703178], [2339.8121542622207, -8.0], [2462.2888266898062, -8.515637082723531], [2630.711603833036, -9.0], [2639.015821545763, -9.024243218870804], [2828.427124746159, -9.396400243001896], [3031.4331330207615, -9.60051929829735], [3249.0095854249043, -9.613265389399874], [3482.2022531844596, -9.382395203648782], [3665.2745529084145, -9.0], [3732.1319661471844, -8.871695946133695], [3999.9999999999554, -8.124526550837533], [4037.50830193844, -8.0], [4287.093850145118, -7.227518243434682], [4359.8580846311515, -6.999999999999999], [4594.793419988081, -6.3111445874495775], [4719.7836967090025, -6.0], [4924.577653379601, -5.523477533390544], [5273.299855581803, -5.0], [5278.031643091506, -4.9934036997760565], [5656.854249492303, -4.859974457800515], [5842.785947090966, -5.0], [6062.866266041508, -5.170271106954727], [6498.019170849792, -5.915422776426527], [6532.415174340331, -6.0], [6948.093360205481, -7.000000000000001], [6964.404506368894, -7.0383546642032115], [7301.260760374813, -8.0], [7464.2639322943505, -8.44910128692158], [7652.865420080672, -9.0], [7994.520206660081, -10.0], [7999.999999999882, -10.016202781163397]], 'minus_line': [[125.0, 11.406252666395048], [128.20172555857138, 12.0], [133.9716828170366, 12.912105067905983], [134.4684179564346, 12.999999999999998], [140.32342355680785, 14.0], [143.5872943746293, 14.496598814148452], [147.64060433164872, 15.0], [153.89305166811442, 15.73900254723862], [158.62022307322835, 16.0], [164.93848884661162, 16.358418213787477], [176.77669529663666, 16.233185849934102], [180.64244191351926, 16.0], [189.46457081379947, 15.499461053044053], [196.04883618284785, 15.0], [203.0630990890585, 14.494000605545377], [211.86413201031965, 14.0], [217.63764082403046, 13.700545150471198], [233.25824788420132, 13.597711977080182], [241.143864267696, 14.0], [249.99999999999937, 14.448848700089076], [255.566802153508, 15.0], [266.0964096261778, 16.0], [267.94336563407256, 16.16923275518593], [274.93965620506475, 17.0], [283.87767581293167, 18.0], [287.1745887492579, 18.34690537539163], [293.5743293976232, 19.0], [303.93175937388133, 20.0], [307.78610333622805, 20.348832624852072], [319.1237750680689, 21.0], [329.87697769322244, 21.581496020726746], [353.55339059327247, 21.65499661143368], [367.6106978209597, 21.0], [378.929141627598, 20.5020647522285], [385.4354336301008, 20.0], [398.0298195579067, 19.0], [406.12619817811606, 18.36809511986995], [410.45770431384824, 18.0], [421.64743765537963, 17.0], [432.31563586270465, 16.0], [435.2752816480596, 15.738596170199571], [444.8914221069863, 15.0], [456.93712137892857, 14.0], [466.5164957684015, 13.207347286380186], [470.24499382531894, 13.0], [487.9273341504656, 12.0], [499.9999999999975, 11.311125775330249], [511.75238061784177, 11.0], [535.8867312681438, 10.392484469984442], [574.3491774985143, 10.511185201279488], [596.0253311715213, 11.0], [615.5722066724546, 11.42992706686082], [634.8817031891803, 12.0], [659.7539553864432, 12.693678599191824], [672.6588267433314, 13.0], [707.1067811865431, 13.786978799435168], [728.9706989215472, 14.0], [757.8582832551941, 14.287996015016212], [804.5497846695121, 14.0], [812.2523963562311, 13.956705073865104], [862.5376604971268, 13.000000000000002], [870.5505632961181, 12.849939346547298], [903.4027442626111, 12.0], [933.0329915368008, 11.199208760704463], [940.5937292098153, 11.0], [977.4859858270802, 10.0], [999.9999999999926, 9.370013755892781], [1016.4449772234916, 9.0], [1059.3634775631183, 8.0], [1071.773462536285, 7.71210178554483], [1116.169042652281, 7.0], [1148.698354997026, 6.47942364876614], [1201.1028682723183, 6.0], [1231.1444133449063, 5.740722145585643], [1319.5079107728832, 5.443902027396659], [1414.2135623730828, 5.419273652962219], [1515.7165665103846, 5.479019746781452], [1624.5047927124563, 5.444999806958668], [1741.1011265922318, 5.1871968633359815], [1784.4676174771666, 5.0], [1866.065983073597, 4.672966405474619], [1987.2650120827036, 4.0], [1999.9999999999802, 3.932622454494605], [2143.5469250725646, 3.0916816528322064], [2159.872246958423, 3.0], [2297.396709994046, 2.2695037305787196], [2358.2790784483595, 2.0], [2462.2888266898062, 1.5681390304124279], [2639.01582154576, 1.06098434187588], [2681.7516566491995, 1.0], [2828.427124746159, 0.8082579719821273], [3031.4331330207615, 0.7920955785684258], [3249.0095854249084, 0.9713350483123121], [3268.679927228259, 1.0], [3482.2022531844555, 1.3226254314808492], [3732.1319661471844, 1.7951067304335184], [3821.4754546241134, 2.0], [3999.9999999999504, 2.406678121013604], [4235.1724383443, 3.0], [4287.093850145118, 3.129187420432804], [4594.793419988081, 3.9213191179001123], [4628.955096099512, 4.0], [4924.577653379601, 4.674312923037157], [5139.532938520276, 5.0], [5278.031643091506, 5.21413852380913], [5656.854249492303, 5.405642112120434], [6062.866266041508, 5.141792525156051], [6146.47284446684, 5.0], [6498.019170849792, 4.44134085671454], [6692.920242666797, 4.0], [6964.404506368894, 3.403894470653426], [7142.48932927438, 3.0], [7464.2639322943505, 2.2765074162015937], [7631.514491114771, 2.0], [7999.999999999882, 1.389671733717348]]}",,nlhglm,003,fr,1,2022-05-09_15h57.08.063,Continuous,2022.1.1,None,
11,0,11,0,1,0,1,0,,,,,,,,2.543214606145078,time,7127.0,-4.529508965027535,9.205980118717718e-05,0,92,"['frequency', 'none', 'time']",4.8166606575250626e-05,0.1899001665879041,['space'],368.8347849000711,368.8347849000711,0.1899001665879041,2.733114772732982,369.0393409000244,368.8347849000711,,[-2.0795456001069397],,,,,,,nlhglm,003,fr,1,2022-05-09_15h57.08.063,Continuous,2022.1.1,None,
11,0,11,0,2,0,2,0,,,,,,,,2.543214606145078,time,1781.0,-1.709755753706955,5.3322743130725476e-05,0,93,"['frequency', 'none', 'time']",0.0036534667015075684,None,['space'],371.6141970001627,371.6141970001627,0.2027735668234527,2.7459881729685307,371.8266249001026,371.6141970001627,,[-2.283271700143814],,,,,,,nlhglm,003,fr,1,2022-05-09_15h57.08.063,Continuous,2022.1.1,None,
11,0,11,0,3,0,3,0,,,,,,,,2.543214606145078,time,5656.0,-3.547496179111669,8.545053727741538e-05,0,94,"['frequency', 'none', 'time']",0.00015146657824516296,0.19086816650815308,None,374.40348950005136,374.40348950005136,0.19086816650815308,2.734082772653231,374.6165569999721,374.40348950005136,,,,,,,,,nlhglm,003,fr,1,2022-05-09_15h57.08.063,Continuous,2022.1.1,None,
11,0,11,0,4,0,4,0,,,,,,,,2.543214606145078,time,1587.0,-3.6966047711869443,3.6362429173925004e-05,0,95,"['frequency', 'none', 'time']",0.0006929666269570589,None,['space'],377.19295249995776,377.19295249995776,0.19071396673098207,2.73392857287606,377.4035420999862,377.19295249995776,,[-2.2298928000964224],,,,,,,nlhglm,003,fr,1,2022-05-09_15h57.08.063,Continuous,2022.1.1,None,
11,0,11,0,5,0,5,0,,,,,,,,2.543214606145078,time,6349.0,-4.97434666093471,7.416282109975783e-05,0,96,"['frequency', 'none', 'time']",0.015672533307224512,None,None,379.98217440000735,379.98217440000735,0.24015803332440555,2.7833726394694835,380.21698180004023,379.98217440000735,,,,,,,,,nlhglm,003,fr,1,2022-05-09_15h57.08.063,Continuous,2022.1.1,None,
11,0,11,0,6,0,6,0,,,,,,,,2.543214606145078,time,,,,1,96,"['frequency', 'none', 'time']",0.0043480664025992155,None,None,382.79118619998917,382.79118619998917,0.2041695665102452,2.747384172655323,382.9995925000403,382.79118619998917,,,,,,,,,nlhglm,003,fr,1,2022-05-09_15h57.08.063,Continuous,2022.1.1,None,
11,0,11,0,7,0,7,0,,,,,,,,2.543214606145078,time,5039.0,-2.9963709854211484,0.00010716253889513723,0,97,"['frequency', 'none', 'time']",0.0023362666834145784,0.1931560665834695,None,385.5796779000666,385.5796779000666,0.1931560665834695,2.7363706727285475,385.78388889995404,385.5796779000666,,,,,,,,,nlhglm,003,fr,1,2022-05-09_15h57.08.063,Continuous,2022.1.1,None,
11,0,11,0,8,0,8,0,,,,,,,,2.543214606145078,time,3363.0,0.7004448302300861,7.886865051322387e-05,0,98,"['frequency', 'none', 'time']",0.004168366547673941,None,['space'],388.36471450002864,388.36471450002864,0.20338046667166054,2.7465950728167385,388.57224270002916,388.36471450002864,,[-2.0100101998541504],,,,,,,nlhglm,003,fr,1,2022-05-09_15h57.08.063,Continuous,2022.1.1,None,
12,0,12,0,0,0,0,0,,,,,0.16666666666666666,395.93957230006345,None,2.045179014535254,both,708.0,8.312070882294446,0.00011541135946030519,0,75,"['frequency', 'none', 'time']",0.01280986680649221,None,None,396.9644472999498,None,0.2126391667407006,2.2578181812759546,397.17443160014227,None,,,391.1523504999932,None,,,,,nlhglm,003,fr,1,2022-05-09_15h57.08.063,Continuous,2022.1.1,None,
12,0,12,0,1,0,1,0,,,,,,,,2.045179014535254,both,631.0,8.249536322000228,0.00013203887971038585,0,76,"['frequency', 'none', 'time']",0.0037560665514320135,None,None,399.25746100000106,399.25746100000106,0.20495386654511094,2.250132881080365,399.4698517001234,399.25746100000106,,,,,,,,,nlhglm,003,fr,1,2022-05-09_15h57.08.063,Continuous,2022.1.1,None,
12,0,12,0,2,0,2,0,,,,,,,,2.045179014535254,both,562.0,8.518301637161702,0.00016470678477496081,0,77,"['frequency', 'none', 'time']",0.0001901665236800909,0.19200206641107798,['space'],401.5485774001572,401.5485774001572,0.19200206641107798,2.237181080946332,401.75730350008234,401.5485774001572,,[-1.737579399952665],,,,,,,nlhglm,003,fr,1,2022-05-09_15h57.08.063,Continuous,2022.1.1,None,
12,0,12,0,3,0,3,0,,,,,,,,2.045179014535254,both,501.0,7.490755117843702,0.00016887230688316767,0,78,"['frequency', 'none', 'time']",0.00043046637438237667,0.19375656638294458,"['space', 'space']",403.83277190010995,403.83277190010995,0.19375656638294458,2.2389355809181986,404.0417256001383,403.83277190010995,,"[-1.7013296999502927, 0.13826859998516738]",,,,,,,nlhglm,003,fr,1,2022-05-09_15h57.08.063,Continuous,2022.1.1,None,
12,0,12,0,4,0,4,0,,,,,,,,2.045179014535254,both,446.0,6.729728074100267,0.00016103240048315822,0,79,"['frequency', 'none', 'time']",0.0002965666353702545,None,None,406.12069769995287,406.12069769995287,0.19544746656902134,2.2406264811042753,406.3373504001647,406.12069769995287,,,,,,,,,nlhglm,003,fr,1,2022-05-09_15h57.08.063,Continuous,2022.1.1,None,
12,0,12,0,5,0,5,0,,,,,,,,2.045179014535254,both,397.0,7.976855047940286,0.00019373528858774886,0,80,"['frequency', 'none', 'time']",0.01651463331654668,None,"['space', 'space']",408.41053310013376,408.41053310013376,0.24143053335137665,2.2866095478866306,408.6479193000123,408.41053310013376,,"[-1.8791430999990553, -0.07172430003993213]",,,,,,,nlhglm,003,fr,1,2022-05-09_15h57.08.063,Continuous,2022.1.1,None,
12,0,12,0,6,0,6,0,,,,,,,,2.045179014535254,both,354.0,8.0,0.00022229287221640665,0,81,"['frequency', 'none', 'time']",0.003473566612228751,None,None,410.71877550007775,410.71877550007775,0.20432636654004455,2.2495053810752985,410.9335599001497,410.71877550007775,,,,,,,,,nlhglm,003,fr,1,2022-05-09_15h57.08.063,Continuous,2022.1.1,None,
12,0,12,0,7,0,7,0,,,,,,,,2.045179014535254,both,315.0,5.765500092142899,0.00019153361647257896,0,82,"['frequency', 'none', 'time']",7.436680607497692e-05,0.1922300667501986,['space'],413.0115970999468,413.0115970999468,0.1922300667501986,2.2374090812854526,413.22422500001267,413.0115970999468,,[-1.839925599982962],,,,,,,nlhglm,003,fr,1,2022-05-09_15h57.08.063,Continuous,2022.1.1,None,
12,0,12,0,8,0,8,0,,,,,,,,2.045179014535254,both,281.0,7.059247463093911,0.0003034868206943554,0,83,"['frequency', 'none', 'time']",0.01284873322583735,None,['space'],415.3063825999852,415.3063825999852,0.24598213331773877,2.2911611478529927,415.5459251999855,415.3063825999852,,[-1.7677231000270694],,,,,,,nlhglm,003,fr,1,2022-05-09_15h57.08.063,Continuous,2022.1.1,None,
12,0,12,0,9,0,9,0,,,,,,,,2.045179014535254,both,250.0,6.469870681264324,0.0003527471701559682,0,84,"['frequency', 'none', 'time']",0.01415733341127634,None,['space'],417.62342040007934,417.62342040007934,0.2404329334385693,2.2856119479738233,417.86207080003805,417.62342040007934,,[-2.0205035000108182],,,,,,,nlhglm,003,fr,1,2022-05-09_15h57.08.063,Continuous,2022.1.1,None,
12,0,12,0,10,0,10,0,,,,,,,,2.045179014535254,both,223.0,7.43733000817902,0.0005188482497690536,0,85,"['frequency', 'none', 'time']",0.0021064667962491512,0.19992046663537621,['space'],419.9319848001469,419.9319848001469,0.19992046663537621,2.24509948117063,420.14264400000684,419.9319848001469,,[-1.8173865000717342],,,,,,,nlhglm,003,fr,1,2022-05-09_15h57.08.063,Continuous,2022.1.1,None,
12,0,12,0,11,0,11,0,,,,,,,,2.045179014535254,both,199.0,6.792172721682723,0.0005881618255251251,0,86,"['frequency', 'none', 'time']",0.016034833388403058,None,['space'],422.22142610000446,422.22142610000446,0.23594593349844217,2.281124948033696,422.4531811000779,422.22142610000446,,[-1.7381179998628795],,,,,,,nlhglm,003,fr,1,2022-05-09_15h57.08.063,Continuous,2022.1.1,None,
12,0,12,0,12,0,12,0,,,,,,,,2.045179014535254,both,,,,1,86,"['frequency', 'none', 'time']",0.016663433285430074,None,['space'],424.5217142000329,424.5217142000329,0.23938013333827257,2.2845591478735265,424.7535475001205,424.5217142000329,,[-1.8314282998908311],,,,,,,nlhglm,003,fr,1,2022-05-09_15h57.08.063,Continuous,2022.1.1,None,
12,0,12,0,13,0,13,0,,,,,,,,2.045179014535254,both,158.0,5.942182289580223,0.0008501439252819738,0,87,"['frequency', 'none', 'time']",0.0009985666256397963,0.19206046662293375,None,426.82345440005884,426.82345440005884,0.19206046662293375,2.2372394811581877,427.0303370000329,426.82345440005884,,,,,,,,,nlhglm,003,fr,1,2022-05-09_15h57.08.063,Continuous,2022.1.1,None,
12,0,12,0,14,0,14,0,,,,,,,,2.045179014535254,both,141.0,6.513672982916407,0.0012283365691895622,0,88,"['frequency', 'none', 'time']",0.01584373344667256,None,['space'],429.1095883999951,429.1095883999951,0.2358407333958894,2.2810197479311434,429.34241700009443,429.1095883999951,,[-1.7302115999627858],,,,,,,nlhglm,003,fr,1,2022-05-09_15h57.08.063,Continuous,2022.1.1,None,
13,0,13,0,0,0,0,0,,,,,0.3333333333333333,436.6561634000391,None,2.6379597013633385,both,499.0,5.346973532975041,0.00013232112187638848,0,89,"['frequency', 'none', 'time']",0.012897466542199254,None,None,437.6946650000755,None,0.22317126649431884,2.8611309678576573,437.9111840999685,None,,,431.41029480006546,None,,,,,nlhglm,003,fr,1,2022-05-09_15h57.08.063,Continuous,2022.1.1,None,
13,0,13,0,1,0,1,0,,,,,,,,2.6379597013633385,both,396.0,1.6915764040959989,9.427581483368317e-05,0,90,"['frequency', 'none', 'time']",0.0156035334803164,None,None,440.57345789996907,440.57345789996907,0.2358873332850635,2.873847034648402,440.8062029001303,440.57345789996907,,,,,,,,,nlhglm,003,fr,1,2022-05-09_15h57.08.063,Continuous,2022.1.1,None,
13,0,13,0,2,0,2,0,,,,,,,,2.6379597013633385,both,314.0,0.15458984983867108,0.00010147052319660875,0,91,"['frequency', 'none', 'time', 'both']",0.003313966328278184,None,None,443.4718969000969,443.4718969000969,0.20173996640369296,2.8396996677670314,443.67821760009974,443.4718969000969,,,,,,,,"{'estimation': [[125.0, 0.1631695465932712], [128.6924016919928, 1.0], [133.63839196971884, 2.0], [133.9716828170366, 2.0617159356030577], [139.22507663794863, 3.0], [143.5872943746293, 3.7257270505045126], [145.86644773810016, 4.0], [153.89305166811442, 4.938564707876819], [154.9264818005244, 5.0], [164.93848884661162, 5.57968581354942], [176.77669529663666, 5.658486650984601], [189.46457081379947, 5.312437951409901], [197.01008752710865, 5.0], [203.0630990890585, 4.760981203506209], [217.6376408240306, 4.259735011133254], [233.25824788420132, 4.01230540643026], [249.99999999999937, 4.130076110893639], [267.94336563407256, 4.592087912210825], [279.48685083290184, 5.0], [287.1745887492579, 5.26414853019258], [307.78610333622805, 5.93014779034119], [311.11255054106795, 6.0], [329.87697769322244, 6.383582240486673], [353.55339059327247, 6.480713742423253], [378.929141627598, 6.213528944305661], [390.2256976034802, 6.0], [406.12619817811606, 5.7096319587110855], [435.2752816480601, 5.210306542387498], [463.4723959245296, 5.0], [466.5164957684015, 4.977955752252348], [469.3959556761268, 5.0], [499.9999999999975, 5.222584152419783], [535.100889111684, 6.0], [535.8867312681438, 6.016771203447439], [565.8785554483238, 7.0], [574.3491774985143, 7.266430606026499], [594.6477257294638, 8.0], [615.5722066724546, 8.727703064318597], [624.2536386424055, 9.0], [657.0521917884163, 10.0], [659.7539553864432, 10.079744088840467], [707.103810142859, 11.0], [707.1067811865431, 11.000056483255273], [757.8582832551941, 11.263683170312772], [786.4416384593122, 11.0], [812.2523963562301, 10.770480497857948], [849.535205988781, 10.0], [870.5505632961181, 9.580063512749827], [891.2299829571416, 9.0], [927.5898838241485, 8.0], [933.0329915368008, 7.856603644896028], [961.0211088865616, 7.0], [994.3587142246921, 6.0], [999.9999999999926, 5.838731131800419], [1028.7374011360414, 5.0], [1063.5119293683083, 4.0], [1071.773462536285, 3.773560414995008], [1102.863025839874, 3.0], [1143.809717044675, 2.0], [1148.698354997026, 1.8852408808560528], [1195.7664731533469, 1.0], [1231.1444133449063, 0.3559909727576801], [1260.7844583911806, 0.0], [1319.5079107728832, -0.6824873310959035], [1384.26310744848, -1.0], [1414.2135623730828, -1.1423111239040824], [1503.566886444946, -1.0], [1515.7165665103846, -0.981437852398646], [1624.5047927124563, -0.22766528693392668], [1645.1888528657, 0.0], [1738.7841996156105, 1.0], [1741.1011265922318, 1.0239194150492745], [1818.4248320016418, 2.0], [1866.065983073597, 2.57917564954162], [1900.8253251177296, 3.0], [1984.9696695607745, 4.0], [1999.9999999999802, 4.172024077520888], [2089.6247722872718, 5.0], [2143.5469250725646, 5.481989687529481], [2252.594177580936, 6.0], [2297.396709994046, 6.208262569291767], [2462.2888266898062, 6.134008310774035], [2486.985931504656, 6.0], [2639.01582154576, 5.199966702891809], [2661.3184624019177, 5.0], [2773.7686530505853, 4.0], [2828.427124746159, 3.532563184548774], [2879.1189971906983, 3.0], [2974.5400796920753, 2.0], [3031.4331330207615, 1.4340029052781254], [3074.9941010286566, 1.0], [3175.4678698021567, 0.0], [3249.0095854249043, -0.6923862539244107], [3288.8834014617855, -1.0], [3420.3624433068094, -2.0], [3482.2022531844555, -2.446505231469059], [3606.324292593977, -3.0], [3732.1319661471844, -3.5394533106378816], [3999.9999999999504, -3.882737720793996], [4287.093850145118, -3.6076090375036842], [4594.7934199880865, -3.0188109668890446], [4606.412153385927, -3.0], [4924.577653379601, -2.4953936583221195], [5278.031643091506, -2.3809947761252674], [5656.854249492303, -2.87371536941847], [5701.401017436911, -3.0], [6062.866266041508, -3.9851318477942606], [6066.839908710341, -4.0], [6340.906515659814, -5.0], [6498.019170849792, -5.541240751239929], [6618.39026458632, -6.0], [6890.943010159974, -7.0], [6964.404506368894, -7.253862595976035], [7201.366012516055, -8.0], [7464.2639322943505, -8.793322873467865], [7566.554257965844, -9.0], [7999.999999999882, -9.888524510474646]], 'plus_line': [[124.99999999999991, -4.997517277556662], [128.72515734774956, -4.0], [132.4317275835075, -3.0], [133.9716828170366, -2.6195368870351263], [137.19016330825255, -2.0], [142.3110557847416, -1.0], [143.5872943746293, -0.7648023273315547], [150.07464191628065, 0.0], [153.89305166811442, 0.44281205020883563], [164.1922110411061, 1.0], [164.93848884661162, 1.0380491705931179], [176.77669529663666, 1.0816956730758327], [179.89457726421114, 1.0], [189.46457081379947, 0.7399852258357207], [203.0630990890585, 0.23891714556219656], [210.91713899541102, 0.0], [217.6376408240306, -0.20840669782037088], [233.25824788420132, -0.41177723057756654], [249.99999999999937, -0.25558308802117885], [258.85788100224744, 0.0], [267.94336563407256, 0.23580255427775065], [287.1745887492579, 0.9248672412977624], [289.38386595453005, 1.0], [307.78610333622805, 1.5762089557911947], [329.34581450019283, 2.0], [329.87697769322244, 2.00961018295551], [353.55339059327247, 2.0530212264187573], [357.7418286024958, 2.0], [378.929141627598, 1.7170216953058357], [406.12619817811606, 1.1697710632471925], [415.52578074781167, 1.0], [435.2752816480596, 0.6320519166794833], [466.5164957684015, 0.39435175352353424], [499.9999999999975, 0.6599798986269714], [513.8705920885488, 1.0], [535.8867312681438, 1.5032570106794425], [550.0783665143931, 2.0], [574.3491774985143, 2.8314877668549845], [578.7753824504116, 3.0], [605.4627278439463, 4.0], [615.5722066724546, 4.367473013641458], [635.2450157635176, 5.0], [659.7539553864432, 5.775931948709471], [670.5823662219707, 6.0], [707.1067811865431, 6.712630458912421], [757.8582832551941, 6.967494226103893], [812.2523963562301, 6.441516670659558], [833.109429114718, 6.0], [870.5505632961181, 5.24365000104879], [879.0288780089971, 5.0], [914.4353413018811, 4.0], [933.0329915368008, 3.5214984996222554], [949.3976480441304, 3.0], [982.012801977763, 2.0], [999.9999999999939, 1.5031660620961498], [1016.3557874903433, 1.0], [1049.8119550533656, 0.0], [1071.773462536285, -0.587392998021174], [1087.4014337064455, -1.0], [1126.1592251424518, -2.0], [1148.698354997026, -2.5283058364587045], [1172.3364474281193, -3.0], [1225.2917830517697, -4.0], [1231.1444133449063, -4.10622387272454], [1304.1153054667304, -5.0], [1319.5079107728832, -5.182822854181864], [1414.2135623730828, -5.650831778644119], [1515.7165665103846, -5.479370506661047], [1580.9098246609349, -5.0], [1624.5047927124563, -4.699762871864704], [1688.2903672724785, -4.0], [1741.101126592234, -3.4284324171421625], [1775.0979994643947, -3.0], [1852.9651647028625, -2.0], [1866.065983073597, -1.8375656786181591], [1936.2288168096977, -1.0], [1999.9999999999777, -0.22360932289696953], [2023.8827061414559, 0.0], [2131.7411061046896, 1.0], [2143.5469250725646, 1.1055736218142436], [2297.396709994049, 1.8167401762584399], [2462.2888266898062, 1.7108913117526627], [2591.6534873346795, 1.0], [2639.01582154576, 0.7454618255904562], [2718.8614147661347, 0.0], [2828.427124746159, -0.9317468350595914], [2834.7105448447646, -1.0], [2924.9606170511734, -2.0], [3028.2814669649447, -3.0], [3031.4331330207615, -3.029079072091536], [3123.9736873102524, -4.0], [3231.84238921433, -5.0], [3249.0095854249003, -5.148994229756448], [3356.7339760162204, -6.0], [3482.2022531844555, -6.884154990289256], [3508.0330252055596, -7.0], [3732.1319661471844, -7.962780890192504], [3761.262042523277, -8.0], [3999.9999999999504, -8.314540159647], [4287.093850145118, -8.03876500269218], [4307.04302844252, -8.0], [4594.7934199880865, -7.489829970376718], [4924.577653379594, -7.001701112278341], [4933.450899832114, -7.0], [5278.031643091506, -6.941672498930168], [5319.695849163538, -7.0], [5656.854249492303, -7.47897762694368], [5844.724903705827, -8.0], [6062.866266041508, -8.580138554696994], [6178.934485990091, -9.0], [6476.258656018718, -10.0], [6498.019170849792, -10.069756750396827], [6748.703866900848, -11.0], [6964.404506368894, -11.713810083465402], [7052.7569811628355, -12.0], [7372.608457553974, -13.0], [7464.263932294341, -13.269170189728284], [7751.71481477968, -14.0], [7999.999999999882, -14.622601050799677]], 'minus_line': [[125.0, 5.203514748363442], [129.4348266018756, 6.0], [133.9716828170366, 6.693292394430456], [135.76376032525627, 7.0], [142.01030241787674, 8.0], [143.5872943746293, 8.232552203557555], [149.80169507666415, 9.0], [153.89305166811442, 9.478776757320935], [162.2867259361932, 10.0], [164.93848884661162, 10.166880897541295], [176.77669529663666, 10.250390717677664], [184.1598180832953, 10.0], [189.46457081379947, 9.839675012646133], [203.0630990890585, 9.203753136248812], [207.86340224819043, 9.0], [217.6376408240306, 8.62580377266192], [233.25824788420132, 8.340247228532203], [249.99999999999937, 8.462823402249445], [267.94336563407256, 8.949869406369976], [269.27141553783963, 9.0], [287.17458874925825, 9.682509192400246], [296.2696933495605, 10.0], [307.78610333622805, 10.407853475082625], [329.87697769322244, 10.89582187064154], [351.155481512456, 11.0], [353.55339059327247, 11.012584642404109], [354.60774400148335, 11.0], [378.929141627598, 10.745277103812132], [406.12619817811606, 10.203661350853796], [416.13246015869146, 10.0], [435.2752816480601, 9.649847932968225], [466.5164957684015, 9.369582120304518], [499.9999999999975, 9.585545912211826], [518.6761424127759, 10.0], [535.8867312681438, 10.379326457757667], [554.1971775910874, 11.0], [574.3491774985137, 11.65099377106115], [583.6001447806657, 12.0], [611.0988473602657, 13.0], [615.5722066724546, 13.156410751989636], [641.0828254158617, 14.0], [659.7539553864432, 14.583142431996244], [679.2973960398264, 15.0], [707.1067811865431, 15.589710356464066], [757.8582832551941, 15.917464769173396], [812.2523963562301, 15.473624977202991], [834.7488493857711, 15.0], [870.5505632961181, 14.258181976288238], [879.6527346412951, 14.0], [914.5406835405843, 13.000000000000002], [933.0329915368008, 12.470519699774517], [948.5181097777688, 12.0], [980.1059632557467, 11.0], [999.9999999999926, 10.370267641584476], [1012.9624198211806, 10.0], [1046.671229892197, 9.0], [1071.773462536285, 8.242066794152358], [1081.737218815446, 8.0], [1122.0246350020977, 7.0], [1148.698354997026, 6.32733838918645], [1166.2377040337058, 6.0], [1219.2047980345742, 5.0], [1231.1444133449077, 4.780721244844969], [1296.0049932161826, 4.0], [1319.5079107728832, 3.7277567032937444], [1414.2135623730828, 3.244445714056121], [1515.7165665103846, 3.3827058042868265], [1606.3529189309697, 4.0], [1624.5047927124563, 4.1232892584801], [1703.4311618462336, 5.0], [1741.1011265922318, 5.393908693465361], [1786.8766583255924, 6.0], [1866.065983073597, 6.968417415436526], [1868.5616185401036, 7.0], [1946.9543241884915, 8.0], [1999.9999999999802, 8.61646624179001], [2039.1583907046222, 9.0], [2143.5469250725646, 9.972998552740362], [2148.7649803213426, 10.0], [2297.396709994046, 10.772587702845982], [2462.2888266898062, 10.755259326486472], [2607.2251757639738, 10.0], [2639.01582154576, 9.84069061515041], [2734.7937276918087, 9.0], [2828.427124746159, 8.149877187139149], [2843.0300045106537, 8.0], [2938.7097662883393, 7.0], [3029.375906912281, 6.0], [3031.4331330207615, 5.97865255128498], [3131.4762558198445, 5.0], [3226.827552304009, 4.0], [3249.0095854249043, 3.77918701593652], [3350.767889473621, 3.0], [3476.1726626157083, 2.0], [3482.2022531844555, 1.9544864016808705], [3695.0810173243212, 1.0], [3732.1319661471844, 0.8391421079055803], [3999.9999999999554, 0.5234265986049644], [4287.093850145118, 0.8578542521189861], [4351.003668621473, 1.0], [4594.793419988081, 1.5565716401378271], [4829.753620073076, 2.0], [4924.577653379601, 2.186225296966175], [5278.031643091506, 2.3935374916909766], [5587.5120797782665, 2.0], [5656.85424949231, 1.9189149257449234], [5976.027792699257, 1.0], [6062.866266041508, 0.7587194645280699], [6258.096926871696, 0.0], [6498.019170849792, -0.9401890481916566], [6512.7619940216855, -1.0], [6762.674993761787, -2.0], [6964.404506368894, -2.810948865240445], [7022.487017230322, -3.0], [7331.343495901555, -4.0], [7464.2639322943505, -4.420831800540048], [7806.163235773349, -5.0], [7999.999999999892, -5.326069341413839]]}",nlhglm,003,fr,1,2022-05-09_15h57.08.063,Continuous,2022.1.1,None,
13,0,13,0,3,0,3,0,,,,,,,,2.6379597013633385,both,249.0,3.5777097784039245,0.000255803408052882,0,92,"['frequency', 'none', 'time', 'both']",0.014130433555692434,None,None,446.3533221001271,446.3533221001271,0.24016433348879218,2.8781240348521306,446.5909472000785,446.3533221001271,,,,,,,,,nlhglm,003,fr,1,2022-05-09_15h57.08.063,Continuous,2022.1.1,None,
