tTrials.thisRepN,tTrials.thisTrialN,tTrials.thisN,tTrials.thisIndex,blocks.thisRepN,blocks.thisTrialN,blocks.thisN,blocks.thisIndex,trials.thisRepN,trials.thisTrialN,trials.thisN,trials.thisIndex,tStart_text.started,tStart_text.stopped,Prediction,practice_Frequency,practice_Level,practice_Psychopy_Level,practice_isCatchTrial,Practice_trial_detection,practice_Cue_Delays,practice_Cue_Frequencies,practice_Interval,practice_Cue_Intensities,tCue_visual_cue.started,tCue_visual_cue.stopped,tProbe_visual_cue.started,tProbe_visual_cue.stopped,tFeedback.keys,tFeedback.corr,tFeedback.rt,tFeedback.started,tFeedback.stopped,tToo_late.keys,tToo_late.corr,tToo_early.keys,tToo_early.corr,tToo_early.rt,more_instructions.started,more_instructions.stopped,readyy.keys,readyy.rt,readyy.started,readyy.stopped,txt_rhythm.started,txt_rhythm.stopped,sound_1.started,sound_1.stopped,sound_2.started,sound_2.stopped,sound_3.started,sound_3.stopped,sound_4.started,sound_4.stopped,cross.started,cross.stopped,sound_5.started,sound_5.stopped,circle.started,circle.stopped,rhythm_ready.keys,rhythm_ready.rt,rhythm_ready.started,rhythm_ready.stopped,rhytm_ready_txt.started,rhytm_ready_txt.stopped,txt_freq.started,txt_freq.stopped,sound_6.started,sound_6.stopped,sound_7.started,sound_7.stopped,sound_8.started,sound_8.stopped,sound_9.started,sound_9.stopped,cross_2.started,cross_2.stopped,sound_10.started,sound_10.stopped,circle_2.started,circle_2.stopped,freq_ready.keys,freq_ready.rt,freq_ready.started,freq_ready.stopped,freq_ready_txt.started,freq_ready_txt.stopped,txt_freq_2.started,txt_freq_2.stopped,sound_11.started,sound_11.stopped,sound_12.started,sound_12.stopped,sound_13.started,sound_13.stopped,sound_14.started,sound_14.stopped,cross_3.started,cross_3.stopped,sound_15.started,sound_15.stopped,circle_3.started,circle_3.stopped,freq_ready_2.keys,freq_ready_2.rt,freq_ready_2.started,freq_ready_2.stopped,freq_ready_txt_2.started,freq_ready_txt_2.stopped,txt_freq_3.started,txt_freq_3.stopped,sound_16.started,sound_16.stopped,sound_17.started,sound_17.stopped,sound_18.started,sound_18.stopped,sound_19.started,sound_19.stopped,cross_4.started,cross_4.stopped,sound_20.started,sound_20.stopped,circle_4.started,circle_4.stopped,freq_ready_txt_3.started,freq_ready_txt_3.stopped,tStart_text_2.started,tStart_text_2.stopped,this_trial_is.started,this_trial_is.stopped,Frequency,Level,Psychopy_Level,Real trial detection,Cue Delays,Cue Frequencies,Interval,Cue Intensities,Catch trial,cue_visual_cue.started,cue_visual_cue.stopped,probe_visual_cue.started,probe_visual_cue.stopped,feedback.keys,feedback.corr,feedback.started,feedback.stopped,answer_too_late.keys,answer_too_late.corr,answer_too_late.rt,answer_too_early.keys,answer_too_early.corr,answer_too_early.rt,feedback.rt,Catch trial answer,Audiogram_frequency,Audiogram_both,Audiogram_none,Audiogram_time,participant,session,Language (english or french),Skip training? (1 for yes),Resume previous experiment,date,expName,psychopyVersion,frameRate,
0,0,0,0,,,,,,,,,23.215469599992502,None,time,1000,30,0.0013930605843148849,False,1,"[0.7732070846774832, 0.7732070846774832, 0.7732070846774832, 0.7732070846774832]","[3467.2038310793496, 756.6812683928773, 430.4028755448245, 5715.553217786569]",None,"[30, 30, 30, 30]",46.188553099986166,49.43808510003146,49.43808510003146,50.657861199986655,"['space', 'space']",1,"[0.34502889995928854, 1.2736962999915704]",49.43808510003146,51.42756540002301,None,1,"['space', 'space', 'space']",0,"[0.7311889000120573, 1.8993553000036627, 2.7466982000041753]",,,,,,,,,,,,,,,,,,,,,,,,,,,,,,,,,,,,,,,,,,,,,,,,,,,,,,,,,,,,,,,,,,,,,,,,,,,,,,,,,,,,,,,,,,,,,,,,,,,,,,,,,,,,,,,,,,,,,,,,,,,,tvzljm,001,fr,0,0,2022-04-29_15h17.25.861,Cluster,2022.1.1,None,
1,0,1,0,,,,,,,,,,,none,2500,30,0.002716251657462167,False,1,"[0.4901406833093659, 0.5747303580973224, 0.7210185996714353, 0.6972054459315924]","[296.4995088347773, 4826.391321238038, 248.41368997645614, 7781.0750400528805]",None,"[30, 30, 30, 30]",58.71260590001475,61.42341170000145,61.42341170000145,62.63736250001239,['space'],1,[0.9528087000362575],61.42341170000145,63.33464630000526,None,1,"['space', 'space', 'space']",0,"[0.6556726000271738, 1.3110830000368878, 2.1752080000005662]",,,,,,,,,,,,,,,,,,,,,,,,,,,,,,,,,,,,,,,,,,,,,,,,,,,,,,,,,,,,,,,,,,,,,,,,,,,,,,,,,,,,,,,,,,,,,,,,,,,,,,,,,,,,,,,,,,,,,,,,,,,,tvzljm,001,fr,0,0,2022-04-29_15h17.25.861,Cluster,2022.1.1,None,
2,0,2,0,,,,,,,,,,,none,6000,30,0.003664122665694519,True,0,"[0.5226863362918348, 0.6224326755587427, 0.6906467458003849, 0.6861135452517114]","[3127.7187949774425, 7590.991204174481, 3519.7368231866008, 4121.762402433865]",None,"[30, 30, 30, 30]",71.2679550999892,74.05139729997609,74.05139729997609,75.28435460000765,['space'],0,[0.2293434999883175],74.05139729997609,75.95218010002282,None,1,"['space', 'space']",0,"[0.6115552000119351, 1.9865396000095643]",,,,,,,,,,,,,,,,,,,,,,,,,,,,,,,,,,,,,,,,,,,,,,,,,,,,,,,,,,,,,,,,,,,,,,,,,,,,,,,,,,,,,,,,,,,,,,,,,,,,,,,,,,,,,,,,,,,,,,,,,,,,tvzljm,001,fr,0,0,2022-04-29_15h17.25.861,Cluster,2022.1.1,None,
3,0,3,0,,,,,,,,,,,both,440,30,0.0023562289915021436,False,1,"[0.5199853458713957, 0.5199853458713957, 0.5199853458713957, 0.5199853458713957]","[174.614115716502, 220.00000000000006, 277.18263097687213, 349.2282314330039]",Major_3rd,"[30, 30, 30, 30]",84.1078542000032,86.5963770999806,86.5963770999806,87.81954649998806,"['space', 'space']",1,"[0.7235212000086904, 1.2829783000051975]",86.5963770999806,88.34644260001369,None,1,"['space', 'space', 'space']",0,"[0.7955245000193827, 1.3877927000285126, 2.2043376000365242]",,,,,,,,,,,,,,,,,,,,,,,,,,,,,,,,,,,,,,,,,,,,,,,,,,,,,,,,,,,,,,,,,,,,,,,,,,,,,,,,,,,,,,,,,,,,,,,,,,,,,,,,,,,,,,,,,,,,,,,,,,,,tvzljm,001,fr,0,0,2022-04-29_15h17.25.861,Cluster,2022.1.1,None,
4,0,4,0,,,,,,,,,,,frequency,250,30,0.005296268625886445,True,0,"[0.7119145882121687, 0.5916920873160065, 0.7167655214589782, 0.7000718471206789]","[157.49013123685913, 176.77669529663686, 198.42513149602493, 222.72467953508482]",Tone,"[30, 30, 30, 30]",92.36366750003072,95.30261720000999,95.30261720000999,96.53913689998444,['space'],0,[0.14428020000923425],95.30261720000999,97.22600299998885,None,1,"['space', 'space', 'space']",0,"[0.5552924000076018, 1.3235169000108726, 2.1399995000101626]",,,,,,,,,,,,,,,,,,,,,,,,,,,,,,,,,,,,,,,,,,,,,,,,,,,,,,,,,,,,,,,,,,,,,,,,,,,,,,,,,,,,,,,,,,,,,,,,,,,,,,,,,,,,,,,,,,,,,,,,,,,,tvzljm,001,fr,0,0,2022-04-29_15h17.25.861,Cluster,2022.1.1,None,
,,,,,,,,,,,,,,,,,,,,,,,,,,,,,,,,,,,,,,101.60860490001505,None,u,46.49491950002266,101.60860490001505,None,,,,,,,,,,,,,,,,,,,,,,,,,,,,,,,,,,,,,,,,,,,,,,,,,,,,,,,,,,,,,,,,,,,,,,,,,,,,,,,,,,,,,,,,,,,,,,,,,,,,,,,,,,,,,,,,,,,,,,tvzljm,001,fr,0,0,2022-04-29_15h17.25.861,Cluster,2022.1.1,None,
,,,,,,,,,,,,,,,,,,,,,,,,,,,,,,,,,,,,,,,,,,,,148.17340319999494,149.19882619997952,149.66007916664628,None,150.14093966666067,None,150.64092306665069,None,151.14136476669617,None,149.55840729997726,151.36388369998895,151.6454155666909,151.87455559999216,151.36388369998895,152.19877249997808,space,1.8729650000459515,152.37559409998357,None,,,,,,,,,,,,,,,,,,,,,,,,,,,,,,,,,,,,,,,,,,,,,,,,,,,,,,,,,,,,,,,,,,,,,,,,,,,,,,,,,,,,,,,,,,,,,,,,,,tvzljm,001,fr,0,0,2022-04-29_15h17.25.861,Cluster,2022.1.1,None,
,,,,,,,,,,,,,,,,,,,,,,,,,,,,,,,,,,,,,,,,,,,,,,,,,,,,,,,,,,,,,,,,152.37559409998357,None,154.30041070003062,155.33237000001827,155.78522756667033,156.00989129999653,156.08668306668213,None,156.774277566645,156.99482590000844,157.1862252666654,157.4153827999835,155.67961779999314,157.475306599983,157.78640236665186,158.01433440000983,157.475306599983,158.30866169999354,space,1.5698557999567129,158.48594739998225,None,,,,,,,,,,,,,,,,,,,,,,,,,,,,,,,,,,,,,,,,,,,,,,,,,,,,,,,,,,,,,,,,,,,,,,,,,,,,tvzljm,001,fr,0,0,2022-04-29_15h17.25.861,Cluster,2022.1.1,None,
,,,,,,,,,,,,,,,,,,,,,,,,,,,,,,,,,,,,,,,,,,,,,,,,,,,,,,,,,,,,,,,,,,,,,,,,,,,,,,,,,,,,,,158.48594739998225,None,160.10625120002078,161.13011610001558,161.57877056667738,None,162.08704676665755,None,162.5880119666729,None,163.08619786665466,None,161.50508969998918,163.30684209999163,163.58871976664912,None,163.30684209999163,164.14323510002578,space,4.0368810999789275,164.29028529999778,None,,,,,,,,,,,,,,,,,,,,,,,,,,,,,,,,,,,,,,,,,,,,,,,,,,,,,,tvzljm,001,fr,0,0,2022-04-29_15h17.25.861,Cluster,2022.1.1,None,
,,,,0,0,0,0,0,0,0,0,,,frequency,,,,,,,,,,,,,,,,,,,,,,,,,,,,,,,,,,,,,,,,,,,,,,,,,,,,,,,,,,,,,,,,,,,,,,,,,,,,,,,,,,,,,,,,,,,,,,164.29028529999778,None,168.38682569999946,169.39895539998543,169.845962866679,None,170.1433242666574,None,170.8555535666567,None,171.24967276666237,None,169.77136479999172,171.59016810002504,171.8396633666746,None,171.59016810002504,172.42043060000287,172.58741680003004,None,173.59406249999302,None,227.26479789998848,None,604.2314149548388,19.0,0.0004918328949564207,0,"[0.43733029432769976, 0.6701271545106382, 0.7947666651347176, 0.6414223659696208]","[3045.1355148374614, 2032.3841232768148, 1356.4536633661583, 905.3242050980457]",Perfect_5th,"[18.113642233224674, 17.68494805930083, 15.401470255701224, 15.0]",False,228.2593715999974,231.18284620001214,231.18284620001214,232.4158810999943,None,0,3.5808700667112134,4.60531216673553,['space'],0,[-0.03789030003827065],"['space', 'space']",0,"[-0.599083699984476, 0.23353319999296218]",,,,,,,tvzljm,001,fr,0,0,2022-04-29_15h17.25.861,Cluster,2022.1.1,None,
,,,,0,0,0,0,1,0,1,0,,,none,,,,,,,,,,,,,,,,,,,,,,,,,,,,,,,,,,,,,,,,,,,,,,,,,,,,,,,,,,,,,,,,,,,,,,,,,,,,,,,,,,,,,,,,,,,,,,,,,,,,,,,,,,,,,,,,,,,,232.89910540002165,None,7070.585686692437,8.0,0.0003852386420603116,1,"[0.7506844029259028, 0.41375615583965153, 0.7238122081861615, 0.6024355838244929]","[222.57867228700806, 181.91552943490015, 2955.6099580279865, 169.02186072314092]",None,"[16.0, 15.301736209859286, 18.0, 15.593117235502163]",False,233.89804820000427,236.79986319999443,236.79986319999443,238.01727479998954,['space'],1,3.5111921666539274,4.55337996664457,None,1,,"['space', 'space', 'space']",0,"[-2.2166509999660775, -1.304501499980688, -0.4087039000005461]",[0.36050070001510903],,,,,,tvzljm,001,fr,0,0,2022-04-29_15h17.25.861,Cluster,2022.1.1,None,
,,,,0,0,0,0,2,0,2,0,,,both,,,,,,,,,,,,,,,,,,,,,,,,,,,,,,,,,,,,,,,,,,,,,,,,,,,,,,,,,,,,,,,,,,,,,,,,,,,,,,,,,,,,,,,,,,,,,,,,,,,,,,,,,,,,,,,,,,,,238.4841987999971,None,2690.437723261824,11.634980621918327,0.0002827084975410428,1,"[0.6681408298922977, 0.6681408298922977, 0.6681408298922977, 0.6681408298922977]","[4270.803672160748, 3804.8535169570637, 3389.73912096881, 3019.914237701273]",Tone,"[16.01533696934428, 17.730040329576703, 18.14131397789337, 18.113642233224674]",False,239.50005360000068,242.52740600000834,242.52740600000834,243.755796500016,['space'],1,3.7024285666411743,4.733943666622508,None,1,,"['space', 'space', 'space', 'space']",0,"[-2.5678546999697573, -1.671339699998498, -0.7762350999983028, 0.2952473000041209]",[0.7890726000186987],,,,,,tvzljm,001,fr,0,0,2022-04-29_15h17.25.861,Cluster,2022.1.1,None,
,,,,0,0,0,0,3,0,3,0,,,frequency,,,,,,,,,,,,,,,,,,,,,,,,,,,,,,,,,,,,,,,,,,,,,,,,,,,,,,,,,,,,,,,,,,,,,,,,,,,,,,,,,,,,,,,,,,,,,,,,,,,,,,,,,,,,,,,,,,,,244.27640879998216,None,,,,,"[0.5949336563673685, 0.6028096808063541, 0.49358480085719164, 0.4861197379883899]","[196.33008561169328, 220.37307004045581, 247.36040758983495, 277.6526697739275]",Tone,"[15.349362697800428, 16.0, 17.918162811098448, 21.0]",True,245.26784679997945,247.99488220002968,247.99488220002968,249.22749409999233,None,1,3.193579866667278,4.226838666654658,None,1,,"['space', 'space', 'space', 'space']",0,"[-2.2270417000399902, -1.5075273000402376, -0.8045317000360228, -0.004133000038564205]",,0,,,,,tvzljm,001,fr,0,0,2022-04-29_15h17.25.861,Cluster,2022.1.1,None,
,,,,0,0,0,0,4,0,4,0,,,both,,,,,,,,,,,,,,,,,,,,,,,,,,,,,,,,,,,,,,,,,,,,,,,,,,,,,,,,,,,,,,,,,,,,,,,,,,,,,,,,,,,,,,,,,,,,,,,,,,,,,,,,,,,,,,,,,,,,249.53490309999324,None,353.5533905932738,18.0,0.0007038727582816146,1,"[0.4861020391062344, 0.4861020391062344, 0.4861020391062344, 0.4861020391062344]","[1781.7974362806788, 1189.2071150027211, 793.7005259840998, 529.7315471796477]",Perfect_5th,"[17.633147810913545, 14.273568653459192, 17.0, 28.0]",False,250.55539400002453,253.0297581999912,253.0297581999912,254.2662553000264,['space'],1,2.960887833382003,3.9818365333485417,None,1,,"['space', 'space', 'space', 'space']",0,"[-2.030017899989616, -1.3268755999743007, -0.5275341999949887, 0.3062295999843627]",[0.8443595999851823],,,,,,tvzljm,001,fr,0,0,2022-04-29_15h17.25.861,Cluster,2022.1.1,None,
,,,,0,0,0,0,5,0,5,0,,,frequency,,,,,,,,,,,,,,,,,,,,,,,,,,,,,,,,,,,,,,,,,,,,,,,,,,,,,,,,,,,,,,,,,,,,,,,,,,,,,,,,,,,,,,,,,,,,,,,,,,,,,,,,,,,,,,,,,,,,254.5758613999933,None,353.5533905932738,19.0,0.0007897582242723967,1,"[0.567404708741947, 0.41317632710299207, 0.7977536126449564, 0.6059331612738008]","[222.72467953508485, 250.00000000000003, 280.6155120773433, 314.9802624737183]",Tone,"[16.0, 17.918162811098448, 21.0, 24.0]",False,255.6034040999948,258.4098230000236,258.4098230000236,259.63938820001204,['space'],1,3.401049966691062,4.4176989666884765,None,1,,"['space', 'space', 'space']",0,"[-1.9223176999948919, -1.026771100005135, -0.08157340000616387]",[0.31868590001249686],,,,,,tvzljm,001,fr,0,0,2022-04-29_15h17.25.861,Cluster,2022.1.1,None,
,,,,0,0,0,0,6,0,6,0,,,both,,,,,,,,,,,,,,,,,,,,,,,,,,,,,,,,,,,,,,,,,,,,,,,,,,,,,,,,,,,,,,,,,,,,,,,,,,,,,,,,,,,,,,,,,,,,,,,,,,,,,,,,,,,,,,,,,,,,260.06757840001956,None,1989.8924435735023,11.68494805930083,0.0002854696151099009,1,"[0.6812047733900319, 0.6812047733900319, 0.6812047733900319, 0.6812047733900319]","[5014.2147533700045, 3979.784887147005, 3158.757358232149, 2507.107376685002]",Major_3rd,"[13.816603791135027, 17.003046537838127, 18.242212058307175, 17.495035524627113]",False,261.07610449998174,264.13983240001835,264.13983240001835,265.366302200011,['space'],1,3.7681525666848756,4.802497966680676,None,1,,"['space', 'space', 'space']",0,"[-2.6451709999819286, -0.8204707999830134, 0.108102299971506]",[0.636657600000035],,,,,,tvzljm,001,fr,0,0,2022-04-29_15h17.25.861,Cluster,2022.1.1,None,
,,,,0,0,0,0,7,0,7,0,,,none,,,,,,,,,,,,,,,,,,,,,,,,,,,,,,,,,,,,,,,,,,,,,,,,,,,,,,,,,,,,,,,,,,,,,,,,,,,,,,,,,,,,,,,,,,,,,,,,,,,,,,,,,,,,,,,,,,,,265.9217134999926,None,353.5533905932738,19.0,0.0007897582242723967,1,"[0.6925212053137717, 0.7075623242711917, 0.7079041757317203, 0.5894334045278873]","[429.6111822991842, 529.0244436041817, 168.9271460873917, 1494.9863720234948]",None,"[30.56888273247342, 28.0, 15.593117235502163, 16.799106454687937]",False,266.95910680003,270.0998641999904,270.0998641999904,271.3158896000241,['space'],1,3.7312072332715616,4.772367333294824,None,1,,"['space', 'space', 'space', 'space']",0,"[-2.588718599989079, -1.6126273999689147, -0.6527926999842748, 0.4037192000541836]",[0.9340482000261545],,,,,,tvzljm,001,fr,0,0,2022-04-29_15h17.25.861,Cluster,2022.1.1,None,
,,,,0,0,0,0,8,0,8,0,,,none,,,,,,,,,,,,,,,,,,,,,,,,,,,,,,,,,,,,,,,,,,,,,,,,,,,,,,,,,,,,,,,,,,,,,,,,,,,,,,,,,,,,,,,,,,,,,,,,,,,,,,,,,,,,,,,,,,,,271.765100300021,None,,,,,"[0.5216475599899539, 0.7162827806280807, 0.41278575675814233, 0.5967203454473351]","[679.552552761558, 514.4968147068046, 326.0999573326212, 957.2939839767253]",None,"[21.0, 29.0, 25.0, 14.79019500895358]",True,272.7779923999915,275.46952159999637,275.46952159999637,276.68712499999674,['space'],0,3.284100366581697,4.30179606663296,None,1,,"['space', 'space', 'space']",0,"[-2.1498540999600664, -1.4145532000111416, -0.38994039996759966]",[0.5062373999971896],0,,,,,tvzljm,001,fr,0,0,2022-04-29_15h17.25.861,Cluster,2022.1.1,None,
,,,,0,0,0,0,9,0,9,0,,,frequency,,,,,,,,,,,,,,,,,,,,,,,,,,,,,,,,,,,,,,,,,,,,,,,,,,,,,,,,,,,,,,,,,,,,,,,,,,,,,,,,,,,,,,,,,,,,,,,,,,,,,,,,,,,,,,,,,,,,277.11493959999643,None,2384.172625828846,11.495035524627113,0.0003129982523576261,1,"[0.5740548488333845, 0.5855054707298113, 0.4348823467153187, 0.6338192044677728]","[6007.738555729792, 4768.345251657692, 3784.6381343144944, 3003.869277864896]",Major_3rd,"[12.404123558701539, 14.0, 17.730040329576703, 18.113642233224674]",False,278.1197194000124,280.7536410000175,280.7536410000175,281.99419689999195,['space'],1,3.2663756666588597,4.28537716664141,None,1,,"['space', 'space', 'space', 'space']",0,"[-2.1859518000273965, -1.4976087000104599, -0.6979513000114821, 0.10196429997449741]",[0.8778204999980517],,,,,,tvzljm,001,fr,0,0,2022-04-29_15h17.25.861,Cluster,2022.1.1,None,
,,,,0,0,0,0,10,0,10,0,,,none,,,,,,,,,,,,,,,,,,,,,,,,,,,,,,,,,,,,,,,,,,,,,,,,,,,,,,,,,,,,,,,,,,,,,,,,,,,,,,,,,,,,,,,,,,,,,,,,,,,,,,,,,,,,,,,,,,,,282.44671109999763,None,1856.9876902426074,11.736035787077933,0.00026397806367524026,1,"[0.7113705027086092, 0.6741290560094408, 0.7957409587981784, 0.42945497710816555]","[152.6780193435222, 331.0899982567468, 5162.428027341792, 5459.594069300828]",None,"[16.00998635593256, 25.684115313435463, 13.0, 12.95884971653413]",False,283.45383399998536,286.6498255999759,286.6498255999759,287.8760877000168,['space'],1,3.652536866720766,4.690819466719404,None,1,,"['space', 'space', 'space']",0,"[-2.6419129999703728, -1.6035192999988794, -0.05113059998257086]",[0.4697320999694057],,,,,,tvzljm,001,fr,0,0,2022-04-29_15h17.25.861,Cluster,2022.1.1,None,
,,,,0,0,0,0,11,0,11,0,,,both,,,,,,,,,,,,,,,,,,,,,,,,,,,,,,,,,,,,,,,,,,,,,,,,,,,,,,,,,,,,,,,,,,,,,,,,,,,,,,,,,,,,,,,,,,,,,,,,,,,,,,,,,,,,,,,,,,,,288.1941031999886,None,189.4645708137998,16.0,0.001916924246771917,1,"[0.7090621990880392, 0.7090621990880392, 0.7090621990880392, 0.7090621990880392]","[477.4208019552084, 378.9291416275996, 300.7562590205292, 238.7104009776042]",Major_3rd,"[30.0, 29.1779254713205, 23.0, 17.0]",False,289.2012582999887,292.34064589999616,292.34064589999616,293.5687655999791,['space'],1,3.848174566635862,4.8906699666404165,None,1,,"['space', 'space', 'space', 'space']",0,"[-2.7646173000102863, -1.8853709999821149, -0.8451482999953441, 0.25876689999131486]",[0.46549279999453574],,,,,,tvzljm,001,fr,0,0,2022-04-29_15h17.25.861,Cluster,2022.1.1,None,
,,,,0,0,0,0,12,0,12,0,,,both,,,,,,,,,,,,,,,,,,,,,,,,,,,,,,,,,,,,,,,,,,,,,,,,,,,,,,,,,,,,,,,,,,,,,,,,,,,,,,,,,,,,,,,,,,,,,,,,,,,,,,,,,,,,,,,,,,,,294.1382512000273,None,7219.293944959927,8.0,0.0003965614763356646,0,"[0.6793258278978221, 0.6793258278978221, 0.6793258278978221, 0.6793258278978221]","[2864.978700674261, 3609.646972479964, 4547.8702033168065, 5729.957401348521]",Major_3rd,"[17.869204681409798, 18.0, 15.0, 12.460225176586967]",False,295.15944820002187,298.22786059998907,298.22786059998907,299.44800929998746,None,0,3.764507866697386,4.787783866690006,None,1,,"['space', 'space', 'space', 'space']",0,"[-3.2448617999907583, -1.9485097999568097, -1.0685749999829568, -0.15594379999674857]",,,,,,,tvzljm,001,fr,0,0,2022-04-29_15h17.25.861,Cluster,2022.1.1,None,
,,,,0,0,0,0,13,0,13,0,,,frequency,,,,,,,,,,,,,,,,,,,,,,,,,,,,,,,,,,,,,,,,,,,,,,,,,,,,,,,,,,,,,,,,,,,,,,,,,,,,,,,,,,,,,,,,,,,,,,,,,,,,,,,,,,,,,,,,,,,,299.9889161000028,None,189.4645708137998,16.0,0.001916924246771917,1,"[0.6714823836675283, 0.5540064241305341, 0.49580570697325116, 0.5507323421382935]","[954.8416039104168, 637.2803136596312, 425.333580475428, 283.8761072677194]",Perfect_5th,"[14.79019500895358, 23.0, 30.56888273247342, 21.0]",False,301.08410819998244,303.82975919998717,303.82975919998717,305.06260100001236,['space'],1,3.29866433335701,4.3284255333128385,None,1,,"['space', 'space', 'space', 'space']",0,"[-2.237414199975319, -1.5503241999540478, -0.6387955999816768, 0.273902699991595]",[0.8319621999980882],,,,,,tvzljm,001,fr,0,0,2022-04-29_15h17.25.861,Cluster,2022.1.1,None,
,,,,0,0,0,0,14,0,14,0,,,frequency,,,,,,,,,,,,,,,,,,,,,,,,,,,,,,,,,,,,,,,,,,,,,,,,,,,,,,,,,,,,,,,,,,,,,,,,,,,,,,,,,,,,,,,,,,,,,,,,,,,,,,,,,,,,,,,,,,,,305.4570494000218,None,,,,,"[0.6142761834242252, 0.5580504982818963, 0.7161712797215805, 0.44056912365676587]","[2927.1852604025294, 2607.825596251909, 2323.3084808343915, 2069.8325474199382]",Tone,"[18.0, 17.634980621918327, 17.481046052572484, 17.68494805930083]",True,306.4590571000008,309.3638324000058,309.3638324000058,310.5969026000239,['space'],0,3.363027166633401,4.407740966649726,None,1,,"['space', 'space', 'space']",0,"[-2.412501099985093, -1.6122218999662437, -0.5881587999756448]",[0.18553260003682226],0,,,,,tvzljm,001,fr,0,0,2022-04-29_15h17.25.861,Cluster,2022.1.1,None,
,,,,0,0,0,0,15,0,15,0,,,none,,,,,,,,,,,,,,,,,,,,,,,,,,,,,,,,,,,,,,,,,,,,,,,,,,,,,,,,,,,,,,,,,,,,,,,,,,,,,,,,,,,,,,,,,,,,,,,,,,,,,,,,,,,,,,,,,,,,310.8971715000225,None,189.4645708137998,16.0,0.001916924246771917,1,"[0.577511360106506, 0.7278316073887205, 0.6410643817862716, 0.6841066827673568]","[4746.879726127198, 578.6532295591779, 1587.0290705447278, 1585.2332000681943]",None,"[14.0, 26.0, 17.0, 17.0]",False,311.9069299999974,314.88547129998915,314.88547129998915,316.1098422000068,['space'],1,3.67412763327593,4.700917833310086,None,1,,"['space', 'space', 'space']",0,"[-2.414422800007742, -1.51755679998314, -0.301699000003282]",[0.10481250000884756],,,,,,tvzljm,001,fr,0,0,2022-04-29_15h17.25.861,Cluster,2022.1.1,None,
,,,,0,0,0,0,16,0,16,0,,,time,,,,,,,,,,,,,,,,,,,,,,,,,,,,,,,,,,,,,,,,,,,,,,,,,,,,,,,,,,,,,,,,,,,,,,,,,,,,,,,,,,,,,,,,,,,,,,,,,,,,,,,,,,,,,,,,,,,,316.648916599981,None,1168.9658742978552,8.273568653459192,0.00013251577488585463,0,"[0.6770071378166245, 0.6770071378166245, 0.6770071378166245, 0.6770071378166245]","[2924.575645764545, 1480.9652599635351, 489.31117293966787, 235.0247041275754]",None,"[18.0, 16.799106454687937, 29.379301110301753, 16.67353767314307]",False,317.6457356000319,320.7092311999877,320.7092311999877,321.9351795000257,None,0,3.724897966720164,4.763158766727429,None,1,,"['space', 'space', 'space']",0,"[-2.6696933999774046, -1.7102863999898545, -0.8769478999893181]",,,,,,,tvzljm,001,fr,0,0,2022-04-29_15h17.25.861,Cluster,2022.1.1,None,
,,,,0,0,0,0,17,0,17,0,,,time,,,,,,,,,,,,,,,,,,,,,,,,,,,,,,,,,,,,,,,,,,,,,,,,,,,,,,,,,,,,,,,,,,,,,,,,,,,,,,,,,,,,,,,,,,,,,,,,,,,,,,,,,,,,,,,,,,,,322.44287790003,None,353.5533905932738,18.0,0.0007038727582816146,1,"[0.46381699032458873, 0.46381699032458873, 0.46381699032458873, 0.46381699032458873]","[1267.19409147552, 215.35272602275148, 155.59285823898242, 7602.578629693957]",None,"[15.0, 15.82279187518521, 16.0, 15.0]",False,324.0175640999805,326.42888399999356,326.42888399999356,327.66146889998345,['space'],1,2.8799540333566256,3.8923575333319604,None,1,,"['space', 'space', 'space']",0,"[-1.9741119999671355, -1.2533371999743395, -0.2766954000107944]",[0.40721779997693375],,,,,,tvzljm,001,fr,0,0,2022-04-29_15h17.25.861,Cluster,2022.1.1,None,
,,,,0,0,0,0,18,0,18,0,,,both,,,,,,,,,,,,,,,,,,,,,,,,,,,,,,,,,,,,,,,,,,,,,,,,,,,,,,,,,,,,,,,,,,,,,,,,,,,,,,,,,,,,,,,,,,,,,,,,,,,,,,,,,,,,,,,,,,,,327.959290400031,None,,,,,"[0.5446672839495521, 0.5446672839495521, 0.5446672839495521, 0.5446672839495521]","[960.7762876459797, 855.9543630834372, 762.5686448576647, 679.3714281977091]",Tone,"[14.79019500895358, 16.0, 18.496205326765622, 21.0]",True,328.9518885000143,331.60726289998274,331.60726289998274,332.81998819997534,None,1,3.2078838666784577,4.23735616664635,None,1,,"['space', 'space', 'space', 'space']",0,"[-2.1761185999494046, -1.4084065000060946, -0.43123339995509014, 0.4008352000382729]",,0,,,,,tvzljm,001,fr,0,0,2022-04-29_15h17.25.861,Cluster,2022.1.1,None,
,,,,0,0,0,0,19,0,19,0,,,time,,,,,,,,,,,,,,,,,,,,,,,,,,,,,,,,,,,,,,,,,,,,,,,,,,,,,,,,,,,,,,,,,,,,,,,,,,,,,,,,,,,,,,,,,,,,,,,,,,,,,,,,,,,,,,,,,,,,333.23240490001626,None,3185.285526886326,12.242212058307176,0.0002850760634072441,1,"[0.4266202659625938, 0.4266202659625938, 0.4266202659625938, 0.4266202659625938]","[804.6952594180946, 2911.8869119637548, 458.157453403785, 3458.431989723987]",None,"[17.0, 18.0, 30.282871582023972, 18.14131397789337]",False,334.23196720000124,336.5254376999801,336.5254376999801,337.76787610002793,['space'],1,2.730674466700293,3.7658639667206444,None,1,,"['space', 'space']",0,"[-1.8937709999736398, -0.5661210999824107]",[0.19710519997170195],,,,,,tvzljm,001,fr,0,0,2022-04-29_15h17.25.861,Cluster,2022.1.1,None,
,,,,1,0,1,0,0,0,0,0,,,time,,,,,,,,,,,,,,,,,,,,,,,,,,,,,,,,,,,,,,,,,,,,,,,,,,,,,,,,,,,,,,,,,,,,,,,,,,,,,,,,,,,,,,,,,,,,,,,,,,,,,,,,,,,,,,,,,,,,347.8255276000127,None,189.4645708137998,16.0,0.001916924246771917,1,"[0.5899907701509958, 0.5899907701509958, 0.5899907701509958, 0.5899907701509958]","[749.9015725081377, 1487.5583539843158, 367.24662981938394, 165.92656740611125]",None,"[19.0, 16.799106454687937, 28.0, 15.593117235502163]",False,348.83928040001774,351.6285085999989,351.6285085999989,352.84510640002554,['space'],1,3.382549433328677,4.421232833352406,None,1,,"['space', 'space']",0,"[-1.8761510000331327, -0.7411811000201851]",[0.3767915000207722],,,,,,tvzljm,001,fr,0,0,2022-04-29_15h17.25.861,Cluster,2022.1.1,None,
,,,,1,0,1,0,1,0,1,0,,,time,,,,,,,,,,,,,,,,,,,,,,,,,,,,,,,,,,,,,,,,,,,,,,,,,,,,,,,,,,,,,,,,,,,,,,,,,,,,,,,,,,,,,,,,,,,,,,,,,,,,,,,,,,,,,,,,,,,,353.29401489999145,None,1314.7893529545324,9.401470255701224,0.0001561475138205453,1,"[0.44666685347048607, 0.44666685347048607, 0.44666685347048607, 0.44666685347048607]","[1339.1287218558916, 483.8033024057741, 216.14946802512893, 3711.5625362595197]",None,"[15.401470255701224, 30.0, 15.82279187518521, 17.730040329576703]",False,354.2968140000012,356.6509624000173,356.6509624000173,357.8900101999752,['space'],1,2.813377266691532,3.8259296666947193,None,1,,"['space', 'space']",0,"[-1.9235159999807365, -1.1085418000002392]",[0.22503329999744892],,,,,,tvzljm,001,fr,0,0,2022-04-29_15h17.25.861,Cluster,2022.1.1,None,
,,,,1,0,1,0,2,0,2,0,,,frequency,,,,,,,,,,,,,,,,,,,,,,,,,,,,,,,,,,,,,,,,,,,,,,,,,,,,,,,,,,,,,,,,,,,,,,,,,,,,,,,,,,,,,,,,,,,,,,,,,,,,,,,,,,,,,,,,,,,,358.1667232000036,None,,,,,"[0.43512753862870995, 0.6861279109328107, 0.4372005643403613, 0.5468026988382869]","[600.3805632028206, 756.4321095269729, 953.0447376094173, 1200.7611264056409]",Major_3rd,"[25.0, 18.496205326765622, 14.79019500895358, 14.7385252899293]",True,359.18463470001006,361.7936010999838,361.7936010999838,363.0240534999757,None,1,3.1488661667099223,4.174958866671659,None,1,,"['space', 'space', 'space']",0,"[-2.121687699982431, -1.338574699999299, -0.05875879997620359]",,0,,,,,tvzljm,001,fr,0,0,2022-04-29_15h17.25.861,Cluster,2022.1.1,None,
,,,,1,0,1,0,3,0,3,0,,,none,,,,,,,,,,,,,,,,,,,,,,,,,,,,,,,,,,,,,,,,,,,,,,,,,,,,,,,,,,,,,,,,,,,,,,,,,,,,,,,,,,,,,,,,,,,,,,,,,,,,,,,,,,,,,,,,,,,,363.3929064000258,None,529.933734546794,22.0,0.0008406477485374522,1,"[0.7532539617964127, 0.7773739987334376, 0.46346617318137207, 0.4138317398403788]","[4998.025947116702, 954.247135011178, 707.6613630252506, 1688.3613525840371]",None,"[13.816603791135027, 14.79019500895358, 20.28160917266453, 17.633147810913545]",False,364.40694200003054,367.4338499000296,367.4338499000296,368.6471482000197,['space'],1,3.4446659666718915,4.477851166680921,None,1,,"['space', 'space', 'space']",0,"[-2.530627700034529, -1.1225416000233963, -0.03466980002122]",[0.7959723999956623],,,,,,tvzljm,001,fr,0,0,2022-04-29_15h17.25.861,Cluster,2022.1.1,None,
,,,,1,0,1,0,4,0,4,0,,,none,,,,,,,,,,,,,,,,,,,,,,,,,,,,,,,,,,,,,,,,,,,,,,,,,,,,,,,,,,,,,,,,,,,,,,,,,,,,,,,,,,,,,,,,,,,,,,,,,,,,,,,,,,,,,,,,,,,,368.9301146999933,None,3031.4331330207992,16.0,0.0003646844836013305,0,"[0.6853894189755365, 0.42745086993777465, 0.7638586399498074, 0.6115478424441214]","[3211.935475057417, 895.5561199807295, 143.11370102794334, 2842.117640179493]",None,"[18.242212058307175, 15.0, 16.48237047555321, 17.869204681409798]",False,370.54999620001763,373.4453044999973,373.4453044999973,374.66190379997715,None,0,3.5190186667023227,4.5509938666946255,None,1,,"['space', 'space', 'space']",0,"[-2.382103299954906, -0.8942444999702275, 0.3703397000208497]",,,,,,,tvzljm,001,fr,0,0,2022-04-29_15h17.25.861,Cluster,2022.1.1,None,
,,,,1,0,1,0,5,0,5,0,,,none,,,,,,,,,,,,,,,,,,,,,,,,,,,,,,,,,,,,,,,,,,,,,,,,,,,,,,,,,,,,,,,,,,,,,,,,,,,,,,,,,,,,,,,,,,,,,,,,,,,,,,,,,,,,,,,,,,,,375.1375817999942,None,5259.59266532655,7.000000000000001,0.0003205249423964295,1,"[0.6421493816291491, 0.5480819384581789, 0.5042343890747467, 0.6991244963976819]","[6395.252682890694, 5097.160519099886, 4610.5560202925735, 2477.3842687258198]",None,"[12.789279036862018, 13.0, 14.894798918563994, 17.495035524627113]",False,376.15350190002937,378.88771079998696,378.88771079998696,380.1125834999839,['space'],1,3.4209881666465662,4.456314566603396,None,1,,"['space', 'space', 'space', 'space']",0,"[-3.760168199951295, -2.144434799964074, -1.2647911999956705, 0.3034612000337802]",[0.8499406999908388],,,,,,tvzljm,001,fr,0,0,2022-04-29_15h17.25.861,Cluster,2022.1.1,None,
,,,,1,0,1,0,6,0,6,0,,,frequency,,,,,,,,,,,,,,,,,,,,,,,,,,,,,,,,,,,,,,,,,,,,,,,,,,,,,,,,,,,,,,,,,,,,,,,,,,,,,,,,,,,,,,,,,,,,,,,,,,,,,,,,,,,,,,,,,,,,380.65328899997985,None,6484.527740627056,6.789279036862018,0.00029629771110330433,0,"[0.6411414085422273, 0.49962450598935365, 0.7181905144066199, 0.5650646903746157]","[4084.996499521635, 4585.253538189673, 5146.7730784941805, 5777.057451870115]",Tone,"[17.0, 14.894798918563994, 13.0, 12.460225176586967]",False,381.6652586000273,384.5521633999888,384.5521633999888,385.78054280002834,None,0,3.4511903667007573,4.477974266686942,None,1,,"['space', 'space']",0,"[-0.8336534000118263, 0.2545949000050314]",,,,,,,tvzljm,001,fr,0,0,2022-04-29_15h17.25.861,Cluster,2022.1.1,None,
,,,,1,0,1,0,7,0,7,0,,,both,,,,,,,,,,,,,,,,,,,,,,,,,,,,,,,,,,,,,,,,,,,,,,,,,,,,,,,,,,,,,,,,,,,,,,,,,,,,,,,,,,,,,,,,,,,,,,,,,,,,,,,,,,,,,,,,,,,,386.1868390000309,None,870.5505632961246,17.0,0.0002858207334789734,0,"[0.7792761308132253, 0.7792761308132253, 0.7792761308132253, 0.7792761308132253]","[345.47821999194434, 435.27528164806245, 548.4124898473134, 690.9564399838885]",Major_3rd,"[27.0, 30.56888273247342, 27.0, 21.0]",False,387.2169517999864,390.5876561999903,390.5876561999903,391.8294010999962,None,0,4.12577036669245,5.154448366665747,None,1,,"['space', 'space', 'space', 'space']",0,"[-2.837198900000658, -1.8759960999595933, -0.8046396999852732, 0.3949568000389263]",,,,,,,tvzljm,001,fr,0,0,2022-04-29_15h17.25.861,Cluster,2022.1.1,None,
,,,,1,0,1,0,8,0,8,0,,,time,,,,,,,,,,,,,,,,,,,,,,,,,,,,,,,,,,,,,,,,,,,,,,,,,,,,,,,,,,,,,,,,,,,,,,,,,,,,,,,,,,,,,,,,,,,,,,,,,,,,,,,,,,,,,,,,,,,,392.4220811999985,None,812.2523963562351,18.0,0.0003075345832776403,0,"[0.46891801662202753, 0.46891801662202753, 0.46891801662202753, 0.46891801662202753]","[526.3665821051626, 508.6783514477036, 1951.7493278109434, 2810.193645428921]",None,"[28.0, 29.0, 17.68494805930083, 17.869204681409798]",False,393.4310918999836,395.87456879997626,395.87456879997626,397.11176840000553,None,0,2.8950863666832447,3.933165766648017,['space'],0,[-0.030523399997036904],"['space', 'space', 'space']",0,"[-2.027482399949804, -1.098237399943173, 0.0518279000534676]",,,,,,,tvzljm,001,fr,0,0,2022-04-29_15h17.25.861,Cluster,2022.1.1,None,
,,,,1,0,1,0,9,0,9,0,,,time,,,,,,,,,,,,,,,,,,,,,,,,,,,,,,,,,,,,,,,,,,,,,,,,,,,,,,,,,,,,,,,,,,,,,,,,,,,,,,,,,,,,,,,,,,,,,,,,,,,,,,,,,,,,,,,,,,,,397.42700959998183,None,340.7119177315203,21.0,0.0010316521195995344,0,"[0.5303311188132565, 0.5303311188132565, 0.5303311188132565, 0.5303311188132565]","[267.2963367041021, 4992.341811146909, 4698.229174677306, 715.636653309336]",None,"[19.538121259105882, 13.816603791135027, 14.894798918563994, 20.0]",False,398.4223303999752,401.050848999992,401.050848999992,402.2760578999878,None,0,3.1675509667256847,4.186713266710285,['space'],0,[-0.05376780004007742],"['space', 'space']",0,"[-1.4268997000181116, 0.07678920001490042]",,,,,,,tvzljm,001,fr,0,0,2022-04-29_15h17.25.861,Cluster,2022.1.1,None,
,,,,1,0,1,0,10,0,10,0,,,both,,,,,,,,,,,,,,,,,,,,,,,,,,,,,,,,,,,,,,,,,,,,,,,,,,,,,,,,,,,,,,,,,,,,,,,,,,,,,,,,,,,,,,,,,,,,,,,,,,,,,,,,,,,,,,,,,,,,402.6547495999839,None,,,,,"[0.4585381980249615, 0.4585381980249615, 0.4585381980249615, 0.4585381980249615]","[2336.1779220961093, 2622.271055651134, 2943.3997403485537, 3303.8545015449145]",Tone,"[17.481046052572484, 17.634980621918327, 18.0, 18.242212058307175]",True,403.669261300005,406.06887249997817,406.06887249997817,407.2968323000241,None,1,2.8665039666811936,3.8964362666592933,None,1,,"['space', 'space', 'space']",0,"[-1.8380510000279173, -0.7179504000232555, -0.25360080000245944]",,0,,,,,tvzljm,001,fr,0,0,2022-04-29_15h17.25.861,Cluster,2022.1.1,None,
,,,,1,0,1,0,11,0,11,0,,,frequency,,,,,,,,,,,,,,,,,,,,,,,,,,,,,,,,,,,,,,,,,,,,,,,,,,,,,,,,,,,,,,,,,,,,,,,,,,,,,,,,,,,,,,,,,,,,,,,,,,,,,,,,,,,,,,,,,,,,407.59988739999244,None,435.2752816480623,17.0,0.0005292030719125924,0,"[0.4443626039109063, 0.7407688531659424, 0.449030020947475, 0.7626492451561914]","[274.2062449236566, 307.7861033362292, 345.4782199919442, 387.78619045843385]",Tone,"[20.0, 23.567420424198872, 27.0, 29.1779254713205]",False,408.6292474999791,411.2967973999912,411.2967973999912,412.515593899996,None,0,3.4222339666448534,4.456328966654837,None,1,,"['space', 'space', 'space', 'space']",0,"[-2.2024182000313886, -1.5295242000138387, -0.3454127000295557, 0.3424269999959506]",,,,,,,tvzljm,001,fr,0,0,2022-04-29_15h17.25.861,Cluster,2022.1.1,None,
,,,,1,0,1,0,12,0,12,0,,,time,,,,,,,,,,,,,,,,,,,,,,,,,,,,,,,,,,,,,,,,,,,,,,,,,,,,,,,,,,,,,,,,,,,,,,,,,,,,,,,,,,,,,,,,,,,,,,,,,,,,,,,,,,,,,,,,,,,,413.13505039998563,None,353.5533905932738,19.0,0.0007897582242723967,1,"[0.5392516898109792, 0.5392516898109792, 0.5392516898109792, 0.5392516898109792]","[400.08010115165604, 4825.209984716361, 1230.5254452032498, 230.18906161513084]",None,"[30.0, 14.0, 14.7385252899293, 16.67353767314307]",False,414.20417380001163,416.8519074000069,416.8519074000069,418.07047739997506,['space'],1,3.1761313333408907,4.200069733313285,None,1,,"['space', 'space', 'space']",0,"[-2.2041641999967396, -1.372184699983336, -0.5241446999716572]",[0.05755259998841211],,,,,,tvzljm,001,fr,0,0,2022-04-29_15h17.25.861,Cluster,2022.1.1,None,
,,,,1,0,1,0,13,0,13,0,,,both,,,,,,,,,,,,,,,,,,,,,,,,,,,,,,,,,,,,,,,,,,,,,,,,,,,,,,,,,,,,,,,,,,,,,,,,,,,,,,,,,,,,,,,,,,,,,,,,,,,,,,,,,,,,,,,,,,,,418.4647848000168,None,476.26375779273366,24.0,0.00115154444960222,1,"[0.5565940552320356, 0.5565940552320356, 0.5565940552320356, 0.5565940552320356]","[2400.2189349803944, 1601.9539465726923, 1069.1759862151018, 713.5893587607346]",Perfect_5th,"[17.495035524627113, 17.32461680880577, 14.089441365949824, 20.0]",False,419.48135920002824,422.1870796000003,422.1870796000003,423.40149499999825,['space'],1,3.268739966675639,4.296191266621463,None,1,,"['space', 'space', 'space']",0,"[-2.3086876000161283, -1.41176639997866, -0.06851359998108819]",[0.05569820001255721],,,,,,tvzljm,001,fr,0,0,2022-04-29_15h17.25.861,Cluster,2022.1.1,None,
,,,,1,0,1,0,14,0,14,0,,,both,,,,,,,,,,,,,,,,,,,,,,,,,,,,,,,,,,,,,,,,,,,,,,,,,,,,,,,,,,,,,,,,,,,,,,,,,,,,,,,,,,,,,,,,,,,,,,,,,,,,,,,,,,,,,,,,,,,,423.8208018000005,None,,,,,"[0.7703978421979399, 0.7703978421979399, 0.7703978421979399, 0.7703978421979399]","[140.09324080030646, 157.24934602301022, 176.50642303229742, 198.12176113659325]",Tone,"[16.48237047555321, 16.0, 15.301736209859286, 15.349362697800428]",True,424.8205384000321,428.1638134000241,428.1638134000241,429.3879369000206,None,1,4.099109366652556,5.113439466687851,None,1,,"['space', 'space', 'space']",0,"[-4.36490899999626, -2.476494000002276, 0.14748869999311864]",,0,,,,,tvzljm,001,fr,0,0,2022-04-29_15h17.25.861,Cluster,2022.1.1,None,
,,,,1,0,1,0,15,0,15,0,,,none,,,,,,,,,,,,,,,,,,,,,,,,,,,,,,,,,,,,,,,,,,,,,,,,,,,,,,,,,,,,,,,,,,,,,,,,,,,,,,,,,,,,,,,,,,,,,,,,,,,,,,,,,,,,,,,,,,,,429.9703087999951,None,933.0329915368076,16.0,0.00026594295347594297,0,"[0.5276408859880385, 0.7879503487604264, 0.49154422485211574, 0.6574807862901554]","[1010.7840709624512, 743.8717897805411, 1181.8180252887921, 140.1246910981015]",None,"[14.255459156384784, 19.0, 14.273568653459192, 16.48237047555321]",False,430.997909000027,433.83305570000084,433.83305570000084,435.0682437000214,None,0,3.472490566666238,4.495734966651071,None,1,,"['space', 'space', 'space']",0,"[-2.1458452999941073, -0.6419069999828935, 0.2857660000445321]",,,,,,,tvzljm,001,fr,0,0,2022-04-29_15h17.25.861,Cluster,2022.1.1,None,
,,,,1,0,1,0,16,0,16,0,,,none,,,,,,,,,,,,,,,,,,,,,,,,,,,,,,,,,,,,,,,,,,,,,,,,,,,,,,,,,,,,,,,,,,,,,,,,,,,,,,,,,,,,,,,,,,,,,,,,,,,,,,,,,,,,,,,,,,,,435.54089489998296,None,941.1603933959002,8.79019500895358,0.00011659283570300239,0,"[0.7514000718963291, 0.4735886876825821, 0.5899331295342806, 0.6656474231089434]","[7772.540627742809, 448.25552079581655, 3674.904056606747, 1998.5059878417176]",None,"[15.0, 30.56888273247342, 17.730040329576703, 17.68494805930083]",False,436.56384060002165,439.4140621999977,439.4140621999977,440.64435620000586,None,0,3.5035105666611344,4.520639666647185,None,1,,"['space', 'space', 'space']",0,"[-3.4393110000528395, -1.487169400032144, 0.0490651999716647]",,,,,,,tvzljm,001,fr,0,0,2022-04-29_15h17.25.861,Cluster,2022.1.1,None,
,,,,1,0,1,0,17,0,17,0,,,none,,,,,,,,,,,,,,,,,,,,,,,,,,,,,,,,,,,,,,,,,,,,,,,,,,,,,,,,,,,,,,,,,,,,,,,,,,,,,,,,,,,,,,,,,,,,,,,,,,,,,,,,,,,,,,,,,,,,441.12374890001956,None,353.5533905932738,14.0,0.00044411368641731654,0,"[0.6659238903995448, 0.5561202569080309, 0.402022289039336, 0.48646018542943703]","[413.9624607038004, 6966.154818677717, 136.01173559845907, 4128.638474777603]",None,"[30.194537947803656, 13.552112816577587, 16.957541303895, 17.0]",False,442.9600840000203,445.6085060000187,445.6085060000187,446.83295790001284,None,0,3.1440665333066136,4.160863133263774,['space'],0,[-0.0316298000398092],"['space', 'space', 'space']",0,"[-2.1938565999735147, -1.1850668999832124, -0.03349729999899864]",,,,,,,tvzljm,001,fr,0,0,2022-04-29_15h17.25.861,Cluster,2022.1.1,None,
,,,,1,0,1,0,18,0,18,0,,,none,,,,,,,,,,,,,,,,,,,,,,,,,,,,,,,,,,,,,,,,,,,,,,,,,,,,,,,,,,,,,,,,,,,,,,,,,,,,,,,,,,,,,,,,,,,,,,,,,,,,,,,,,,,,,,,,,,,,447.1705382000073,None,4509.605082669206,9.0,0.0003353988823915399,0,"[0.5662130984539556, 0.5958737606474784, 0.6617885280346048, 0.5148092779006825]","[1013.2585132081583, 4625.67193743967, 7848.397859858328, 1505.726234862856]",None,"[14.255459156384784, 14.894798918563994, 15.678064134582272, 16.799106454687937]",False,448.16017039999133,451.01579979999224,451.01579979999224,452.26017710001906,None,0,3.3682134666014463,4.390708166640252,None,1,,"['space', 'space']",0,"[-2.288671499991324, -0.7371936999843456]",,,,,,,tvzljm,001,fr,0,0,2022-04-29_15h17.25.861,Cluster,2022.1.1,None,
,,,,1,0,1,0,19,0,19,0,,,both,,,,,,,,,,,,,,,,,,,,,,,,,,,,,,,,,,,,,,,,,,,,,,,,,,,,,,,,,,,,,,,,,,,,,,,,,,,,,,,,,,,,,,,,,,,,,,,,,,,,,,,,,,,,,,,,,,,,452.5970079000108,None,406.12619817811805,15.0,0.00042873658564129775,1,"[0.6509336925370901, 0.6509336925370901, 0.6509336925370901, 0.6509336925370901]","[161.17128855494758, 203.06309908905908, 255.84347299919395, 322.34257710989505]",Major_3rd,"[15.593117235502163, 15.349362697800428, 18.0, 25.0]",False,453.62625809997553,456.59368619997986,456.59368619997986,457.8084780999925,['space'],1,3.632344566693064,4.670805366651621,None,1,,"['space', 'space', 'space']",0,"[-3.914752500015311, -1.994320500001777, -0.2511565000168048]",[0.6221492000040598],,,,,,tvzljm,001,fr,0,0,2022-04-29_15h17.25.861,Cluster,2022.1.1,None,
,,,,2,0,2,0,0,0,0,0,,,none,,,,,,,,,,,,,,,,,,,,,,,,,,,,,,,,,,,,,,,,,,,,,,,,,,,,,,,,,,,,,,,,,,,,,,,,,,,,,,,,,,,,,,,,,,,,,,,,,,,,,,,,,,,,,,,,,,,,483.69986539997626,None,164.93848884661182,12.0,0.0015651004536898975,0,"[0.7847896581292771, 0.5666769011580779, 0.6162972540007845, 0.6452860510708673]","[3439.6727553338824, 945.399515453528, 2141.7525860754317, 1238.613320965635]",None,"[18.14131397789337, 14.79019500895358, 17.568232151664297, 14.7385252899293]",False,484.7139882000047,487.69609430001583,487.69609430001583,488.9339850000106,None,0,3.654222433338873,4.687953833374195,None,1,,['space'],0,[0.5346405999734998],,,,,,,tvzljm,001,fr,0,0,2022-04-29_15h17.25.861,Cluster,2022.1.1,None,
,,,,2,0,2,0,1,0,1,0,,,both,,,,,,,,,,,,,,,,,,,,,,,,,,,,,,,,,,,,,,,,,,,,,,,,,,,,,,,,,,,,,,,,,,,,,,,,,,,,,,,,,,,,,,,,,,,,,,,,,,,,,,,,,,,,,,,,,,,,489.4475737999892,None,314.60668113454346,18.0,0.0007866853858884135,1,"[0.7079883077249148, 0.7079883077249148, 0.7079883077249148, 0.7079883077249148]","[499.4069765891983, 444.9210352736592, 396.37957999897566, 353.13405971809345]",Tone,"[29.379301110301753, 30.56888273247342, 30.0, 27.619031884387162]",False,490.4605657000211,493.6088536999887,493.6088536999887,494.8430357000325,['space'],1,3.8710153666324914,4.911574366677087,None,1,,None,1,,[0.09210629999870434],,,,,,tvzljm,001,fr,0,0,2022-04-29_15h17.25.861,Cluster,2022.1.1,None,
,,,,2,0,2,0,2,0,2,0,,,frequency,,,,,,,,,,,,,,,,,,,,,,,,,,,,,,,,,,,,,,,,,,,,,,,,,,,,,,,,,,,,,,,,,,,,,,,,,,,,,,,,,,,,,,,,,,,,,,,,,,,,,,,,,,,,,,,,,,,,495.41687110002385,None,,,,,"[0.7084920038535765, 0.6403261835399023, 0.48571092701999286, 0.4873009981710918]","[960.8065285117384, 1078.468864022304, 1210.5403701483579, 1358.7856234379124]",Tone,"[14.79019500895358, 14.089441365949824, 14.7385252899293, 16.0]",True,496.42918620002456,499.29755090002436,499.29755090002436,500.5360832000151,['space'],0,3.350176666630432,4.370653766614851,None,1,,None,1,,[0.2282513999962248],0,,,,,tvzljm,001,fr,0,0,2022-04-29_15h17.25.861,Cluster,2022.1.1,None,
,,,,2,0,2,0,3,0,3,0,,,both,,,,,,,,,,,,,,,,,,,,,,,,,,,,,,,,,,,,,,,,,,,,,,,,,,,,,,,,,,,,,,,,,,,,,,,,,,,,,,,,,,,,,,,,,,,,,,,,,,,,,,,,,,,,,,,,,,,,500.8396709000226,None,125.0,14.0,0.0036221798003749518,0,"[0.7123115260830214, 0.7123115260830214, 0.7123115260830214, 0.7123115260830214]","[314.9802624737183, 250.00000000000003, 198.42513149602496, 157.49013123685916]",Major_3rd,"[24.0, 17.918162811098448, 15.349362697800428, 16.0]",False,501.84498270001495,505.0177440000116,505.0177440000116,506.25109610002255,None,0,3.855779766687192,4.871630966663361,None,1,,['space'],0,[0.6216295000049286],,,,,,,tvzljm,001,fr,0,0,2022-04-29_15h17.25.861,Cluster,2022.1.1,None,
,,,,2,0,2,0,4,0,4,0,,,both,,,,,,,,,,,,,,,,,,,,,,,,,,,,,,,,,,,,,,,,,,,,,,,,,,,,,,,,,,,,,,,,,,,,,,,,,,,,,,,,,,,,,,,,,,,,,,,,,,,,,,,,,,,,,,,,,,,,506.76177550002467,None,928.6410137117467,8.79019500895358,0.00011561392102184506,0,"[0.779172566763335, 0.779172566763335, 0.779172566763335, 0.779172566763335]","[184.26571525835524, 276.0866251973372, 413.66254436417023, 619.7935176596504]",Perfect_5th,"[15.196392041115487, 20.0, 30.194537947803656, 24.0]",False,507.7733860000153,511.1478638999979,511.1478638999979,512.3731328999856,None,0,4.15363906667335,5.188410966657102,None,1,,None,1,,,,,,,,tvzljm,001,fr,0,0,2022-04-29_15h17.25.861,Cluster,2022.1.1,None,
,,,,2,0,2,0,5,0,5,0,,,frequency,,,,,,,,,,,,,,,,,,,,,,,,,,,,,,,,,,,,,,,,,,,,,,,,,,,,,,,,,,,,,,,,,,,,,,,,,,,,,,,,,,,,,,,,,,,,,,,,,,,,,,,,,,,,,,,,,,,,513.0100827999995,None,6507.745971555412,6.789279036862018,0.0002978355581469068,0,"[0.6892234420070009, 0.6572506521654513, 0.40977169969609134, 0.6978415214497472]","[2582.600700297219, 3253.872985777707, 4099.623068465614, 5165.2014005944375]",Major_3rd,"[17.634980621918327, 18.242212058307175, 17.0, 13.0]",False,514.0081509000156,516.7950985999778,516.7950985999778,518.0306550000096,None,0,3.4779102666070685,4.497175466618501,None,1,,['space'],0,[0.6198968000244349],,,,,,,tvzljm,001,fr,0,0,2022-04-29_15h17.25.861,Cluster,2022.1.1,None,
,,,,2,0,2,0,6,0,6,0,,,none,,,,,,,,,,,,,,,,,,,,,,,,,,,,,,,,,,,,,,,,,,,,,,,,,,,,,,,,,,,,,,,,,,,,,,,,,,,,,,,,,,,,,,,,,,,,,,,,,,,,,,,,,,,,,,,,,,,,518.5486050000181,None,1916.2156153181681,11.736035787077933,0.0002743060565245651,1,"[0.714921462779031, 0.6216664336061629, 0.41020559620139563, 0.6396474351678243]","[142.36785768396769, 1002.2875619663306, 338.5709004190564, 431.9178573966354]",None,"[16.48237047555321, 14.255459156384784, 25.999999999999996, 30.56888273247342]",False,519.5555747000035,522.3417017000029,522.3417017000029,523.5601703000139,['space'],1,3.4075045666540973,4.445200566668063,None,1,,None,1,,[0.5475277000223286],,,,,,tvzljm,001,fr,0,0,2022-04-29_15h17.25.861,Cluster,2022.1.1,None,
,,,,2,0,2,0,7,0,7,0,,,frequency,,,,,,,,,,,,,,,,,,,,,,,,,,,,,,,,,,,,,,,,,,,,,,,,,,,,,,,,,,,,,,,,,,,,,,,,,,,,,,,,,,,,,,,,,,,,,,,,,,,,,,,,,,,,,,,,,,,,524.0509490999975,None,1231.1444133449168,15.0,0.0003020928508603416,1,"[0.5514820504159685, 0.5068925006534376, 0.5696698936267361, 0.6744920983427125]","[3102.2895236674703, 2462.2888266898335, 1954.3199368684927, 1551.1447618337352]",Major_3rd,"[18.113642233224674, 17.495035524627113, 17.68494805930083, 17.0]",False,525.0661969999783,527.7121628000168,527.7121628000168,528.9416409999831,['space'],1,3.3144000666798092,4.342621466668788,None,1,,None,1,,[0.2690110999974422],,,,,,tvzljm,001,fr,0,0,2022-04-29_15h17.25.861,Cluster,2022.1.1,None,
,,,,2,0,2,0,8,0,8,0,,,frequency,,,,,,,,,,,,,,,,,,,,,,,,,,,,,,,,,,,,,,,,,,,,,,,,,,,,,,,,,,,,,,,,,,,,,,,,,,,,,,,,,,,,,,,,,,,,,,,,,,,,,,,,,,,,,,,,,,,,529.4547723000287,None,693.9767604518773,15.0,0.00025617096278070586,1,"[0.7331344266955574, 0.578566462452722, 0.44865617536328245, 0.5166090770262687]","[1748.7118572623447, 1387.953520903755, 1101.6194395827933, 874.3559286311722]",Major_3rd,"[17.633147810913545, 16.0, 14.089441365949824, 15.699648179946783]",False,530.4765780000016,533.2840500000166,533.2840500000166,534.5144125000224,['space'],1,3.305626066692639,4.338397266692482,None,1,,None,1,,[0.3691118999850005],,,,,,tvzljm,001,fr,0,0,2022-04-29_15h17.25.861,Cluster,2022.1.1,None,
,,,,2,0,2,0,9,0,9,0,,,frequency,,,,,,,,,,,,,,,,,,,,,,,,,,,,,,,,,,,,,,,,,,,,,,,,,,,,,,,,,,,,,,,,,,,,,,,,,,,,,,,,,,,,,,,,,,,,,,,,,,,,,,,,,,,,,,,,,,,,534.8606561999768,None,1000.0,11.0,0.0001563039683561977,1,"[0.6575179348271758, 0.6219998476682311, 0.4702753477472786, 0.5090688016596667]","[629.9605249474365, 707.1067811865474, 793.7005259840997, 890.8987181403393]",Tone,"[24.0, 20.28160917266453, 17.0, 15.699648179946783]",False,536.5493905000039,539.3177029999788,539.3177029999788,540.5362918999745,['space'],1,3.2818429333274253,4.294962033338379,None,1,,None,1,,[0.5134457999956794],,,,,,tvzljm,001,fr,0,0,2022-04-29_15h17.25.861,Cluster,2022.1.1,None,
,,,,2,0,2,0,10,0,10,0,,,both,,,,,,,,,,,,,,,,,,,,,,,,,,,,,,,,,,,,,,,,,,,,,,,,,,,,,,,,,,,,,,,,,,,,,,,,,,,,,,,,,,,,,,,,,,,,,,,,,,,,,,,,,,,,,,,,,,,,540.8827786999755,None,,,,,"[0.45404217535692015, 0.45404217535692015, 0.45404217535692015, 0.45404217535692015]","[709.1797902589448, 796.0273999936667, 893.5105459072756, 1002.9316775451067]",Tone,"[20.28160917266453, 17.0, 15.699648179946783, 14.255459156384784]",True,541.8806652000058,544.2604045000044,544.2604045000044,545.4932754000183,None,1,2.8482296665897593,3.8816977665992454,None,1,,['space'],0,[0.35540230001788586],,0,,,,,tvzljm,001,fr,0,0,2022-04-29_15h17.25.861,Cluster,2022.1.1,None,
,,,,2,0,2,0,11,0,11,0,,,frequency,,,,,,,,,,,,,,,,,,,,,,,,,,,,,,,,,,,,,,,,,,,,,,,,,,,,,,,,,,,,,,,,,,,,,,,,,,,,,,,,,,,,,,,,,,,,,,,,,,,,,,,,,,,,,,,,,,,,545.8059634999954,None,787.13840841763,12.0,0.000155074202526983,1,"[0.6816881947372038, 0.7311982947945277, 0.6985615082855356, 0.5083941408831736]","[1983.4644998922397, 1574.27681683526, 1249.50433756672, 991.7322499461199]",Major_3rd,"[17.68494805930083, 17.0, 15.0, 14.255459156384784]",False,546.8103280999931,549.9584684000001,549.9584684000001,551.1929544000304,['space'],1,3.6388663666439243,4.681511166680139,None,1,,None,1,,[0.4047776000224985],,,,,,tvzljm,001,fr,0,0,2022-04-29_15h17.25.861,Cluster,2022.1.1,None,
,,,,2,0,2,0,12,0,12,0,,,both,,,,,,,,,,,,,,,,,,,,,,,,,,,,,,,,,,,,,,,,,,,,,,,,,,,,,,,,,,,,,,,,,,,,,,,,,,,,,,,,,,,,,,,,,,,,,,,,,,,,,,,,,,,,,,,,,,,,551.5388846999849,None,1319.5079107728945,15.0,0.0002968238326132414,1,"[0.5409026040662881, 0.5409026040662881, 0.5409026040662881, 0.5409026040662881]","[2094.588245641254, 1866.0659830736154, 1662.475792285576, 1481.0975522865647]",Tone,"[17.568232151664297, 17.73603578707793, 17.32461680880577, 16.799106454687937]",False,552.6374242000165,555.2735144000035,555.2735144000035,556.5014392000157,['space'],1,3.183452133263927,4.211914233281277,None,1,,None,1,,[0.41297910001594573],,,,,,tvzljm,001,fr,0,0,2022-04-29_15h17.25.861,Cluster,2022.1.1,None,
,,,,2,0,2,0,13,0,13,0,,,both,,,,,,,,,,,,,,,,,,,,,,,,,,,,,,,,,,,,,,,,,,,,,,,,,,,,,,,,,,,,,,,,,,,,,,,,,,,,,,,,,,,,,,,,,,,,,,,,,,,,,,,,,,,,,,,,,,,,556.8929402999929,None,4469.8697691389825,9.0,0.0003276933608572577,0,"[0.5676992041726321, 0.5676992041726321, 0.5676992041726321, 0.5676992041726321]","[7095.475973692074, 6321.3504495578445, 5631.683012426941, 5017.259176743886]",Tone,"[14.0, 12.789279036862018, 12.460225176586967, 13.816603791135027]",False,557.900759799988,560.638658699987,560.638658699987,561.8699672999792,None,0,3.2973402666975744,4.331053766713012,None,1,,None,1,,,,,,,,tvzljm,001,fr,0,0,2022-04-29_15h17.25.861,Cluster,2022.1.1,None,
,,,,2,0,2,0,14,0,14,0,,,both,,,,,,,,,,,,,,,,,,,,,,,,,,,,,,,,,,,,,,,,,,,,,,,,,,,,,,,,,,,,,,,,,,,,,,,,,,,,,,,,,,,,,,,,,,,,,,,,,,,,,,,,,,,,,,,,,,,,562.2766898000264,None,,,,,"[0.4393454699704152, 0.4393454699704152, 0.4393454699704152, 0.4393454699704152]","[1332.454987180205, 1495.6301541903324, 1678.788086385744, 1884.375914121915]",Tone,"[15.401470255701224, 16.799106454687937, 17.32461680880577, 17.73603578707793]",True,563.2775387000293,565.6161201000214,565.6161201000214,566.8513762999792,['space'],0,2.8002498666755855,3.815875466680154,None,1,,None,1,,[0.47424780001165345],0,,,,,tvzljm,001,fr,0,0,2022-04-29_15h17.25.861,Cluster,2022.1.1,None,
,,,,2,0,2,0,15,0,15,0,,,none,,,,,,,,,,,,,,,,,,,,,,,,,,,,,,,,,,,,,,,,,,,,,,,,,,,,,,,,,,,,,,,,,,,,,,,,,,,,,,,,,,,,,,,,,,,,,,,,,,,,,,,,,,,,,,,,,,,,567.1299607999972,None,250.0,15.0,0.0009418245447449003,1,"[0.5019350378370684, 0.7066978376214358, 0.7059056251309692, 0.7312999185702574]","[1786.7342389021098, 200.06910350928214, 6545.971309836108, 236.1132105986493]",None,"[17.633147810913545, 15.349362697800428, 12.789279036862018, 17.0]",False,568.1697659000056,571.1194153000251,571.1194153000251,572.3469760000007,['space'],1,3.674551033298485,4.705280333291739,None,1,,None,1,,[0.4426452000043355],,,,,,tvzljm,001,fr,0,0,2022-04-29_15h17.25.861,Cluster,2022.1.1,None,
,,,,2,0,2,0,16,0,16,0,,,both,,,,,,,,,,,,,,,,,,,,,,,,,,,,,,,,,,,,,,,,,,,,,,,,,,,,,,,,,,,,,,,,,,,,,,,,,,,,,,,,,,,,,,,,,,,,,,,,,,,,,,,,,,,,,,,,,,,,572.9251655000262,None,164.93848884661182,14.0,0.0019703447331607922,1,"[0.650441344196455, 0.650441344196455, 0.650441344196455, 0.650441344196455]","[415.6189480713941, 329.8769776932237, 261.82353070515677, 207.809474035697]",Major_3rd,"[30.194537947803656, 25.684115313435463, 19.0, 15.349362697800428]",False,573.9509923000005,576.9302652999759,576.9302652999759,578.1576133000199,['space'],1,3.6285001332871616,4.657571233285125,None,1,,None,1,,[0.376601199968718],,,,,,tvzljm,001,fr,0,0,2022-04-29_15h17.25.861,Cluster,2022.1.1,None,
,,,,2,0,2,0,17,0,17,0,,,time,,,,,,,,,,,,,,,,,,,,,,,,,,,,,,,,,,,,,,,,,,,,,,,,,,,,,,,,,,,,,,,,,,,,,,,,,,,,,,,,,,,,,,,,,,,,,,,,,,,,,,,,,,,,,,,,,,,,578.6481234999956,None,3370.4827764927036,12.141313977893368,0.00029493832534795725,1,"[0.43610602418326, 0.43610602418326, 0.43610602418326, 0.43610602418326]","[4987.592594149745, 4597.97106088761, 3548.3493329312882, 3591.93844687538]",None,"[13.816603791135027, 14.894798918563994, 18.0, 18.0]",False,579.645171399985,581.9829187000287,581.9829187000287,583.1973518999876,['space'],1,2.766314066713676,3.78966806671815,None,1,,None,1,,[0.5719611999811605],,,,,,tvzljm,001,fr,0,0,2022-04-29_15h17.25.861,Cluster,2022.1.1,None,
,,,,2,0,2,0,18,0,18,0,,,both,,,,,,,,,,,,,,,,,,,,,,,,,,,,,,,,,,,,,,,,,,,,,,,,,,,,,,,,,,,,,,,,,,,,,,,,,,,,,,,,,,,,,,,,,,,,,,,,,,,,,,,,,,,,,,,,,,,,583.4807031999808,None,,,,,"[0.4442287186313112, 0.4442287186313112, 0.4442287186313112, 0.4442287186313112]","[312.86866517957316, 394.18981711225535, 496.64804823394076, 625.7373303591462]",Major_3rd,"[24.0, 30.0, 29.379301110301753, 24.0]",True,584.4892583999899,586.8557379000122,586.8557379000122,588.0833666999824,['space'],0,2.8162942666676827,3.860973466653377,None,1,,None,1,,[0.893463900021743],0,,,,,tvzljm,001,fr,0,0,2022-04-29_15h17.25.861,Cluster,2022.1.1,None,
,,,,2,0,2,0,19,0,19,0,,,time,,,,,,,,,,,,,,,,,,,,,,,,,,,,,,,,,,,,,,,,,,,,,,,,,,,,,,,,,,,,,,,,,,,,,,,,,,,,,,,,,,,,,,,,,,,,,,,,,,,,,,,,,,,,,,,,,,,,588.3896168000065,None,176.7766952966369,11.0,0.0012419212914516222,0,"[0.5471968597518606, 0.5471968597518606, 0.5471968597518606, 0.5471968597518606]","[6654.887023038927, 2541.072948890416, 720.7191002900287, 2206.5347078032482]",None,"[13.0, 17.495035524627113, 20.0, 17.568232151664297]",False,589.4335938000004,592.0880210000323,592.0880210000323,593.3179312000284,None,0,3.217027200036682,4.233172400039621,None,1,,None,1,,,,,,,,tvzljm,001,fr,0,0,2022-04-29_15h17.25.861,Cluster,2022.1.1,None,
,,,,3,0,3,0,0,0,0,0,,,time,,,,,,,,,,,,,,,,,,,,,,,,,,,,,,,,,,,,,,,,,,,,,,,,,,,,,,,,,,,,,,,,,,,,,,,,,,,,,,,,,,,,,,,,,,,,,,,,,,,,,,,,,,,,,,,,,,,,604.249006500002,None,4601.551688927823,8.894798918563994,0.0003489768719819853,0,"[0.4236878691976838, 0.4236878691976838, 0.4236878691976838, 0.4236878691976838]","[2085.5707760827154, 3774.126844543623, 156.15332020444055, 408.9585134235087]",None,"[17.568232151664297, 17.730040329576703, 16.0, 30.194537947803656]",False,605.211172499985,607.5069483999978,607.5069483999978,608.7252426000196,None,0,2.7162316666799597,3.749183666659519,None,1,,None,1,,,,,,,,tvzljm,001,fr,0,0,2022-04-29_15h17.25.861,Cluster,2022.1.1,None,
,,,,3,0,3,0,1,0,1,0,,,time,,,,,,,,,,,,,,,,,,,,,,,,,,,,,,,,,,,,,,,,,,,,,,,,,,,,,,,,,,,,,,,,,,,,,,,,,,,,,,,,,,,,,,,,,,,,,,,,,,,,,,,,,,,,,,,,,,,,609.0040415999829,None,500.0,21.0,0.0008016226953450209,1,"[0.5343361738146518, 0.5343361738146518, 0.5343361738146518, 0.5343361738146518]","[2922.0547655826713, 6967.71154456496, 375.12479753762705, 233.32916586596042]",None,"[18.0, 13.552112816577587, 29.0, 16.67353767314307]",False,611.0533315999783,613.6803640000289,613.6803640000289,614.9029511000263,['space'],1,3.1630016999552026,4.204683899937663,None,1,,None,1,,[0.4134988999576308],,,,,,tvzljm,001,fr,0,0,2022-04-29_15h17.25.861,Cluster,2022.1.1,None,
,,,,3,0,3,0,2,0,2,0,,,both,,,,,,,,,,,,,,,,,,,,,,,,,,,,,,,,,,,,,,,,,,,,,,,,,,,,,,,,,,,,,,,,,,,,,,,,,,,,,,,,,,,,,,,,,,,,,,,,,,,,,,,,,,,,,,,,,,,,615.3020269999979,None,670.0412850649449,16.0,0.0003006721305049801,1,"[0.7174431678350854, 0.7174431678350854, 0.7174431678350854, 0.7174431678350854]","[265.9060601935544, 335.02064253247244, 422.09955967596767, 531.8121203871088]",Major_3rd,"[19.538121259105882, 25.999999999999996, 30.56888273247342, 28.0]",False,616.3037450999836,619.4812050000182,619.4812050000182,620.7031007999904,['space'],1,3.8948705666698515,4.92731236666441,None,1,,None,1,,[0.24051979999057949],,,,,,tvzljm,001,fr,0,0,2022-04-29_15h17.25.861,Cluster,2022.1.1,None,
,,,,3,0,3,0,3,0,3,0,,,both,,,,,,,,,,,,,,,,,,,,,,,,,,,,,,,,,,,,,,,,,,,,,,,,,,,,,,,,,,,,,,,,,,,,,,,,,,,,,,,,,,,,,,,,,,,,,,,,,,,,,,,,,,,,,,,,,,,,621.2755461999914,None,615.5722066724584,18.0,0.0004242935302955497,1,"[0.6097116589033498, 0.6097116589033498, 0.6097116589033498, 0.6097116589033498]","[977.1599684342465, 870.5505632961246, 775.5723809168677, 690.9564399838883]",Tone,"[14.255459156384784, 15.699648179946783, 18.0, 21.0]",False,623.6666971999803,626.5292016000021,626.5292016000021,627.7522173000034,['space'],1,3.487190633371938,4.516247333376668,None,1,,None,1,,[0.29059790004976094],,,,,,tvzljm,001,fr,0,0,2022-04-29_15h17.25.861,Cluster,2022.1.1,None,
,,,,3,0,3,0,4,0,4,0,,,frequency,,,,,,,,,,,,,,,,,,,,,,,,,,,,,,,,,,,,,,,,,,,,,,,,,,,,,,,,,,,,,,,,,,,,,,,,,,,,,,,,,,,,,,,,,,,,,,,,,,,,,,,,,,,,,,,,,,,,628.2357781999744,None,,,,,"[0.4968179398857788, 0.7862858039136705, 0.4773907569064548, 0.6108204245036142]","[326.33210198058424, 259.0099609874866, 205.57634227088923, 163.1660509902921]",Major_3rd,"[25.684115313435463, 19.0, 15.349362697800428, 15.593117235502163]",True,629.2295478000306,632.0290658000158,632.0290658000158,633.2419752000133,['space'],0,3.395970066660084,4.431406766641885,None,1,,None,1,,[0.3429492000141181],0,,,,,tvzljm,001,fr,0,0,2022-04-29_15h17.25.861,Cluster,2022.1.1,None,
,,,,3,0,3,0,5,0,5,0,,,time,,,,,,,,,,,,,,,,,,,,,,,,,,,,,,,,,,,,,,,,,,,,,,,,,,,,,,,,,,,,,,,,,,,,,,,,,,,,,,,,,,,,,,,,,,,,,,,,,,,,,,,,,,,,,,,,,,,,633.697343399981,None,2215.9441728274683,11.568232151664295,0.0003015209223762081,0,"[0.7306134749719483, 0.7306134749719483, 0.7306134749719483, 0.7306134749719483]","[2550.7125113801103, 1163.2828812194757, 7526.1985797578, 1432.314902719841]",None,"[17.634980621918327, 14.273568653459192, 14.564248930231013, 16.129914452154452]",False,634.7153977000271,637.9435494000209,637.9435494000209,639.1723973000189,None,0,3.9414977666456252,4.968907166621648,None,1,,None,1,,,,,,,,tvzljm,001,fr,0,0,2022-04-29_15h17.25.861,Cluster,2022.1.1,None,
,,,,3,0,3,0,6,0,6,0,,,time,,,,,,,,,,,,,,,,,,,,,,,,,,,,,,,,,,,,,,,,,,,,,,,,,,,,,,,,,,,,,,,,,,,,,,,,,,,,,,,,,,,,,,,,,,,,,,,,,,,,,,,,,,,,,,,,,,,,639.7322558999876,None,250.0,17.0,0.0011856868528308277,0,"[0.5256551428611057, 0.5256551428611057, 0.5256551428611057, 0.5256551428611057]","[1050.636055823203, 217.18853252176208, 332.5932918178532, 1746.5704979666943]",None,"[14.089441365949824, 15.82279187518521, 25.999999999999996, 17.633147810913545]",False,641.7856264000293,644.3900708000292,644.3900708000292,645.6066498000291,None,0,3.1351401666761376,4.16247526666848,None,1,,None,1,,,,,,,,tvzljm,001,fr,0,0,2022-04-29_15h17.25.861,Cluster,2022.1.1,None,
,,,,3,0,3,0,7,0,7,0,,,none,,,,,,,,,,,,,,,,,,,,,,,,,,,,,,,,,,,,,,,,,,,,,,,,,,,,,,,,,,,,,,,,,,,,,,,,,,,,,,,,,,,,,,,,,,,,,,,,,,,,,,,,,,,,,,,,,,,,645.9910941999988,None,2793.089762137679,11.8692046814098,0.0002654196128185943,1,"[0.4154722243888785, 0.736104898249361, 0.7657008163884664, 0.750307631577258]","[7661.963572511768, 1258.203706202103, 776.2033786101543, 1251.7957197889605]",None,"[15.0, 15.0, 18.0, 15.0]",False,647.0049231000012,649.9600438000052,649.9600438000052,651.1915618000203,['space'],1,3.7087589667062275,4.743183466722257,None,1,,None,1,,[0.49387449998175725],,,,,,tvzljm,001,fr,0,0,2022-04-29_15h17.25.861,Cluster,2022.1.1,None,
,,,,3,0,3,0,8,0,8,0,,,frequency,,,,,,,,,,,,,,,,,,,,,,,,,,,,,,,,,,,,,,,,,,,,,,,,,,,,,,,,,,,,,,,,,,,,,,,,,,,,,,,,,,,,,,,,,,,,,,,,,,,,,,,,,,,,,,,,,,,,651.795614600007,None,164.93848884661182,13.0,0.0017560715918764403,1,"[0.4195828464000582, 0.71241732532164, 0.6549821378957932, 0.4500202107592653]","[415.6189480713941, 329.8769776932237, 261.82353070515677, 207.809474035697]",Major_3rd,"[30.194537947803656, 25.684115313435463, 19.0, 15.349362697800428]",False,652.8264090000303,655.6265865000314,655.6265865000314,656.8422602000064,['space'],1,3.267743533302564,4.299979433300905,None,1,,None,1,,[0.6063330000033602],,,,,,tvzljm,001,fr,0,0,2022-04-29_15h17.25.861,Cluster,2022.1.1,None,
,,,,3,0,3,0,9,0,9,0,,,both,,,,,,,,,,,,,,,,,,,,,,,,,,,,,,,,,,,,,,,,,,,,,,,,,,,,,,,,,,,,,,,,,,,,,,,,,,,,,,,,,,,,,,,,,,,,,,,,,,,,,,,,,,,,,,,,,,,,657.1802365999902,None,743.8544903256404,13.0,0.00018394627818995237,1,"[0.46076808638137595, 0.46076808638137595, 0.46076808638137595, 0.46076808638137595]","[468.5989652100483, 525.9845543253234, 590.3977002270952, 662.6990119140485]",Tone,"[30.282871582023972, 28.0, 25.0, 22.0]",False,658.1695684000151,660.582931699988,660.582931699988,661.7889500000165,['space'],1,2.893923766678199,3.926003066706471,None,1,,None,1,,[0.7835249000345357],,,,,,tvzljm,001,fr,0,0,2022-04-29_15h17.25.861,Cluster,2022.1.1,None,
,,,,3,0,3,0,10,0,10,0,,,none,,,,,,,,,,,,,,,,,,,,,,,,,,,,,,,,,,,,,,,,,,,,,,,,,,,,,,,,,,,,,,,,,,,,,,,,,,,,,,,,,,,,,,,,,,,,,,,,,,,,,,,,,,,,,,,,,,,,662.1384860000107,None,125.0,15.0,0.004064152580820497,1,"[0.6566030958735485, 0.5422288161383121, 0.5281384196844618, 0.41485100398179936]","[2678.68932615344, 755.8260405318484, 395.6189818588456, 2621.712910718361]",None,"[17.634980621918327, 18.496205326765622, 30.0, 17.634980621918327]",False,663.1801695000031,665.9267434999929,665.9267434999929,667.1701729000197,['space'],1,3.1621008333167993,4.1929542333236896,None,1,,None,1,,[0.8808458999847062],,,,,,tvzljm,001,fr,0,0,2022-04-29_15h17.25.861,Cluster,2022.1.1,None,
,,,,3,0,3,0,11,0,11,0,,,both,,,,,,,,,,,,,,,,,,,,,,,,,,,,,,,,,,,,,,,,,,,,,,,,,,,,,,,,,,,,,,,,,,,,,,,,,,,,,,,,,,,,,,,,,,,,,,,,,,,,,,,,,,,,,,,,,,,,667.4108478000271,None,4000.0,15.0,0.0004720304381429618,0,"[0.5188108421939255, 0.5188108421939255, 0.5188108421939255, 0.5188108421939255]","[793.7005259840998, 1189.2071150027211, 1781.7974362806788, 2669.679708340069]",Perfect_5th,"[17.0, 14.273568653459192, 17.633147810913545, 17.634980621918327]",False,668.5072760999901,671.0974068000214,671.0974068000214,672.3407309000031,None,0,3.078989633359015,4.114106633351184,None,1,,None,1,,,,,,,,tvzljm,001,fr,0,0,2022-04-29_15h17.25.861,Cluster,2022.1.1,None,
,,,,3,0,3,0,12,0,12,0,,,none,,,,,,,,,,,,,,,,,,,,,,,,,,,,,,,,,,,,,,,,,,,,,,,,,,,,,,,,,,,,,,,,,,,,,,,,,,,,,,,,,,,,,,,,,,,,,,,,,,,,,,,,,,,,,,,,,,,,672.6710582000087,None,,,,,"[0.7510998696982035, 0.73690805057062, 0.6984631319657808, 0.5870844292523172]","[2654.763744979522, 2361.918428550424, 320.8764683516446, 5827.372628098807]",None,"[17.634980621918327, 17.481046052572484, 25.0, 12.460225176586967]",True,673.6857744000154,676.895834600029,676.895834600029,678.1087788000004,None,1,3.809973766678013,4.832994566648267,None,1,,None,1,,,0,,,,,tvzljm,001,fr,0,0,2022-04-29_15h17.25.861,Cluster,2022.1.1,None,
,,,,3,0,3,0,13,0,13,0,,,time,,,,,,,,,,,,,,,,,,,,,,,,,,,,,,,,,,,,,,,,,,,,,,,,,,,,,,,,,,,,,,,,,,,,,,,,,,,,,,,,,,,,,,,,,,,,,,,,,,,,,,,,,,,,,,,,,,,,678.5569321999792,None,565.0252050108597,21.0,0.0006878056353814055,1,"[0.5697373863008228, 0.5697373863008228, 0.5697373863008228, 0.5697373863008228]","[188.64332788415362, 1066.0735389414945, 441.3505235770934, 342.8224497749324]",None,"[15.196392041115487, 14.089441365949824, 30.56888273247342, 27.0]",False,679.572578500025,682.3101576999761,682.3101576999761,683.5366746999789,['space'],1,3.3020300667267293,4.31528406671714,None,1,,None,1,,[0.5413731999578886],,,,,,tvzljm,001,fr,0,0,2022-04-29_15h17.25.861,Cluster,2022.1.1,None,
,,,,3,0,3,0,14,0,14,0,,,both,,,,,,,,,,,,,,,,,,,,,,,,,,,,,,,,,,,,,,,,,,,,,,,,,,,,,,,,,,,,,,,,,,,,,,,,,,,,,,,,,,,,,,,,,,,,,,,,,,,,,,,,,,,,,,,,,,,,683.9334035000065,None,571.559832801876,20.209190244689157,0.0006175077198266176,1,"[0.6530567505684357, 0.6530567505684357, 0.6530567505684357, 0.6530567505684357]","[2880.481058485911, 1922.49045802444, 1283.108441316313, 856.3721423455037]",Perfect_5th,"[17.869204681409798, 17.73603578707793, 15.0, 16.0]",False,684.9442785999854,687.9325906999875,687.9325906999875,689.1716821999871,['space'],1,3.6436544666648842,4.663239166722633,None,1,,None,1,,[0.37844860000768676],,,,,,tvzljm,001,fr,0,0,2022-04-29_15h17.25.861,Cluster,2022.1.1,None,
,,,,3,0,3,0,15,0,15,0,,,both,,,,,,,,,,,,,,,,,,,,,,,,,,,,,,,,,,,,,,,,,,,,,,,,,,,,,,,,,,,,,,,,,,,,,,,,,,,,,,,,,,,,,,,,,,,,,,,,,,,,,,,,,,,,,,,,,,,,689.6505273000221,None,287.17458874925893,12.0,0.0005099738003808805,1,"[0.6502354573359782, 0.6502354573359782, 0.6502354573359782, 0.6502354573359782]","[455.8612442791087, 406.126198178118, 361.8173093600947, 322.342577109895]",Tone,"[30.282871582023972, 30.194537947803656, 28.0, 25.0]",False,692.1626051000203,695.147658700007,695.147658700007,696.358535700012,['space'],1,3.627164899953641,4.652930099982768,None,1,,None,1,,[0.5920254999655299],,,,,,tvzljm,001,fr,0,0,2022-04-29_15h17.25.861,Cluster,2022.1.1,None,
,,,,3,0,3,0,16,0,16,0,,,both,,,,,,,,,,,,,,,,,,,,,,,,,,,,,,,,,,,,,,,,,,,,,,,,,,,,,,,,,,,,,,,,,,,,,,,,,,,,,,,,,,,,,,,,,,,,,,,,,,,,,,,,,,,,,,,,,,,,696.8629297000007,None,,,,,"[0.65237891866891, 0.65237891866891, 0.65237891866891, 0.65237891866891]","[1085.681756188971, 1367.8732981093178, 1723.4123618770543, 2171.3635123779413]",Major_3rd,"[14.089441365949824, 16.0, 17.633147810913545, 17.568232151664297]",True,697.8781804000027,700.8633987000212,700.8633987000212,702.0979895999772,None,1,3.631684666732326,4.653136466688011,None,1,,None,1,,,0,,,,,tvzljm,001,fr,0,0,2022-04-29_15h17.25.861,Cluster,2022.1.1,None,
,,,,3,0,3,0,17,0,17,0,,,frequency,,,,,,,,,,,,,,,,,,,,,,,,,,,,,,,,,,,,,,,,,,,,,,,,,,,,,,,,,,,,,,,,,,,,,,,,,,,,,,,,,,,,,,,,,,,,,,,,,,,,,,,,,,,,,,,,,,,,702.5723601999925,None,2206.775238690814,11.568232151664295,0.00030075100746192337,0,"[0.4830765226177738, 0.77445067122067, 0.43823294809492225, 0.4710598066514456]","[875.7593338387935, 1103.3876193454073, 1390.18128780667, 1751.5186676775866]",Major_3rd,"[15.699648179946783, 14.089441365949824, 16.0, 17.633147810913545]",False,703.5905796000152,706.3109152999823,706.3109152999823,707.5396394000272,None,0,3.191792866680771,4.214279966661707,None,1,,None,1,,,,,,,,tvzljm,001,fr,0,0,2022-04-29_15h17.25.861,Cluster,2022.1.1,None,
,,,,3,0,3,0,18,0,18,0,,,none,,,,,,,,,,,,,,,,,,,,,,,,,,,,,,,,,,,,,,,,,,,,,,,,,,,,,,,,,,,,,,,,,,,,,,,,,,,,,,,,,,,,,,,,,,,,,,,,,,,,,,,,,,,,,,,,,,,,707.8525009999867,None,832.3664553063275,10.949800256527007,0.0001385957174474273,0,"[0.46067956742964933, 0.7785014488864671, 0.4994561523991363, 0.6327271422330729]","[215.05775816762423, 144.76475655986738, 468.5356544717998, 299.6120596551318]",None,"[15.82279187518521, 16.48237047555321, 30.282871582023972, 23.0]",False,708.8726268000319,711.6528416000074,711.6528416000074,712.8913260999834,None,0,3.4019594666315243,4.435140366666019,None,1,,None,1,,,,,,,,tvzljm,001,fr,0,0,2022-04-29_15h17.25.861,Cluster,2022.1.1,None,
,,,,3,0,3,0,19,0,19,0,,,both,,,,,,,,,,,,,,,,,,,,,,,,,,,,,,,,,,,,,,,,,,,,,,,,,,,,,,,,,,,,,,,,,,,,,,,,,,,,,,,,,,,,,,,,,,,,,,,,,,,,,,,,,,,,,,,,,,,,713.3579839000013,None,302.7433173652037,17.0,0.0007901098041899876,0,"[0.4836160052288198, 0.4836160052288198, 0.4836160052288198, 0.4836160052288198]","[1525.7307130536972, 1018.3030812576698, 679.6357682434423, 453.6024548854079]",Perfect_5th,"[16.799106454687937, 14.255459156384784, 21.0, 30.282871582023972]",False,714.3715016000206,716.8467493000207,716.8467493000207,718.0881474000053,None,0,2.9512087667244487,3.976259066723287,None,1,,None,1,,,,,,,,tvzljm,001,fr,0,0,2022-04-29_15h17.25.861,Cluster,2022.1.1,None,
,,,,4,0,4,0,0,0,0,0,,,frequency,,,,,,,,,,,,,,,,,,,,,,,,,,,,,,,,,,,,,,,,,,,,,,,,,,,,,,,,,,,,,,,,,,,,,,,,,,,,,,,,,,,,,,,,,,,,,,,,,,,,,,,,,,,,,,,,,,,,728.8106570999953,None,4000.0,14.0,0.0004206975708225976,0,"[0.7856567018543942, 0.5182827885005834, 0.713630976090768, 0.5956460061039477]","[2519.842099789746, 2828.4271247461897, 3174.802103936399, 3563.594872561357]",Tone,"[17.495035524627113, 17.869204681409798, 18.242212058307175, 18.0]",False,729.8211103000212,732.8735150999855,732.8735150999855,734.1131160000223,None,0,3.628299166681245,4.657960066688247,None,1,,None,1,,,,,,,,tvzljm,001,fr,0,0,2022-04-29_15h17.25.861,Cluster,2022.1.1,None,
,,,,4,0,4,0,1,0,1,0,,,time,,,,,,,,,,,,,,,,,,,,,,,,,,,,,,,,,,,,,,,,,,,,,,,,,,,,,,,,,,,,,,,,,,,,,,,,,,,,,,,,,,,,,,,,,,,,,,,,,,,,,,,,,,,,,,,,,,,,734.5365938000032,None,125.0,15.0,0.004064152580820497,1,"[0.49025197605140497, 0.49025197605140497, 0.49025197605140497, 0.49025197605140497]","[278.48929229485657, 170.5486358749231, 670.4661800682567, 270.1540891451827]",None,"[21.0, 15.593117235502163, 22.0, 19.538121259105882]",False,735.5518082000199,738.0514771000016,738.0514771000016,739.287233399984,['space'],1,2.9937662333250046,4.025602433306631,None,1,,None,1,,[0.4815478000091389],,,,,,tvzljm,001,fr,0,0,2022-04-29_15h17.25.861,Cluster,2022.1.1,None,
,,,,4,0,4,0,2,0,2,0,,,none,,,,,,,,,,,,,,,,,,,,,,,,,,,,,,,,,,,,,,,,,,,,,,,,,,,,,,,,,,,,,,,,,,,,,,,,,,,,,,,,,,,,,,,,,,,,,,,,,,,,,,,,,,,,,,,,,,,,739.6277770000161,None,,,,,"[0.4303353804954061, 0.6211251740978307, 0.505429479183089, 0.6287536390424362]","[1844.0604289900914, 499.2953412485187, 311.7829055533726, 160.96196845420087]",None,"[17.73603578707793, 29.379301110301753, 24.0, 15.593117235502163]",True,740.6434239000082,743.2251897000242,743.2251897000242,744.454951599997,None,1,3.202456466620788,4.22067896660883,None,1,,None,1,,,0,,,,,tvzljm,001,fr,0,0,2022-04-29_15h17.25.861,Cluster,2022.1.1,None,
,,,,4,0,4,0,3,0,3,0,,,none,,,,,,,,,,,,,,,,,,,,,,,,,,,,,,,,,,,,,,,,,,,,,,,,,,,,,,,,,,,,,,,,,,,,,,,,,,,,,,,,,,,,,,,,,,,,,,,,,,,,,,,,,,,,,,,,,,,,744.9039034000016,None,3031.4331330207992,16.0,0.0003646844836013305,1,"[0.7491873633382539, 0.6837088429157858, 0.6970097159094679, 0.4794479072973301]","[2190.883528839825, 179.01539472174144, 617.8089439107193, 185.0282505913992]",None,"[17.568232151664297, 15.301736209859286, 24.246310835369716, 15.196392041115487]",False,745.9137610000325,749.0626287999912,749.0626287999912,750.2967591999914,['space'],1,3.6422986332909204,4.675236133334693,None,1,,None,1,,[0.48031320003792644],,,,,,tvzljm,001,fr,0,0,2022-04-29_15h17.25.861,Cluster,2022.1.1,None,
,,,,4,0,4,0,4,0,4,0,,,frequency,,,,,,,,,,,,,,,,,,,,,,,,,,,,,,,,,,,,,,,,,,,,,,,,,,,,,,,,,,,,,,,,,,,,,,,,,,,,,,,,,,,,,,,,,,,,,,,,,,,,,,,,,,,,,,,,,,,,750.6329302000231,None,1065.7138646305575,8.089441365949824,0.00011877575778195612,1,"[0.6357967615671067, 0.6621172539917191, 0.4973815884037791, 0.5550757030339031]","[422.9288274529107, 532.8569323152789, 671.3576656064274, 845.8576549058212]",Major_3rd,"[30.56888273247342, 28.0, 22.0, 16.0]",False,751.6465176999918,754.4549698000192,754.4549698000192,755.6678552000085,['space'],1,3.3815074666636065,4.403734566643834,None,1,,None,1,,[0.6599443000159226],,,,,,tvzljm,001,fr,0,0,2022-04-29_15h17.25.861,Cluster,2022.1.1,None,
,,,,4,0,4,0,5,0,5,0,,,both,,,,,,,,,,,,,,,,,,,,,,,,,,,,,,,,,,,,,,,,,,,,,,,,,,,,,,,,,,,,,,,,,,,,,,,,,,,,,,,,,,,,,,,,,,,,,,,,,,,,,,,,,,,,,,,,,,,,756.0994716000278,None,189.4645708137998,10.0,0.0009607379603126595,0,"[0.6246905477754101, 0.6246905477754101, 0.6246905477754101, 0.6246905477754101]","[300.7562590205293, 267.9433656340734, 238.71040097760422, 212.666790237714]",Tone,"[23.0, 19.538121259105882, 17.0, 15.82279187518521]",False,757.1387720999774,760.0377599999774,760.0377599999774,761.2744569000206,None,0,3.5195419333758764,4.545103433367331,['space'],0,[-0.009773900033906102],None,1,,,,,,,,tvzljm,001,fr,0,0,2022-04-29_15h17.25.861,Cluster,2022.1.1,None,
,,,,4,0,4,0,6,0,6,0,,,time,,,,,,,,,,,,,,,,,,,,,,,,,,,,,,,,,,,,,,,,,,,,,,,,,,,,,,,,,,,,,,,,,,,,,,,,,,,,,,,,,,,,,,,,,,,,,,,,,,,,,,,,,,,,,,,,,,,,761.724349999975,None,,,,,"[0.735497101905017, 0.735497101905017, 0.735497101905017, 0.735497101905017]","[2428.9999834736886, 981.6337902132896, 4850.476029512134, 801.8488739598713]",None,"[17.495035524627113, 14.255459156384784, 14.0, 17.0]",True,762.745130299998,765.9931255999836,765.9931255999836,767.2233674000017,None,1,3.967928566620685,4.9921224666177295,None,1,,None,1,,,0,,,,,tvzljm,001,fr,0,0,2022-04-29_15h17.25.861,Cluster,2022.1.1,None,
,,,,4,0,4,0,7,0,7,0,,,both,,,,,,,,,,,,,,,,,,,,,,,,,,,,,,,,,,,,,,,,,,,,,,,,,,,,,,,,,,,,,,,,,,,,,,,,,,,,,,,,,,,,,,,,,,,,,,,,,,,,,,,,,,,,,,,,,,,,767.7784689000109,None,2061.750567317371,11.68494805930083,0.0002924771427949126,0,"[0.45749359552531454, 0.45749359552531454, 0.45749359552531454, 0.45749359552531454]","[1298.8214696979262, 1457.8778072653245, 1636.4125097278134, 1836.810937548163]",Tone,"[15.401470255701224, 16.129914452154452, 17.32461680880577, 17.73603578707793]",False,768.7990239000064,771.2144400000107,771.2144400000107,772.426090300025,None,0,2.8586470666341484,3.8932751666288823,None,1,,None,1,,,,,,,,tvzljm,001,fr,0,0,2022-04-29_15h17.25.861,Cluster,2022.1.1,None,
,,,,4,0,4,0,8,0,8,0,,,frequency,,,,,,,,,,,,,,,,,,,,,,,,,,,,,,,,,,,,,,,,,,,,,,,,,,,,,,,,,,,,,,,,,,,,,,,,,,,,,,,,,,,,,,,,,,,,,,,,,,,,,,,,,,,,,,,,,,,,772.7402456999989,None,267.9433656340732,14.0,0.0007441295113766622,0,"[0.5742197359085952, 0.5365016862916532, 0.5586340488510486, 0.5680360233142097]","[425.3335804754277, 378.9291416275994, 337.5874865420474, 300.75625902052906]",Tone,"[30.56888273247342, 29.1779254713205, 25.999999999999996, 23.0]",False,773.7770202999818,776.4834308000281,776.4834308000281,777.7058576000272,None,0,3.2822341332794167,4.311604233284015,None,1,,None,1,,,,,,,,tvzljm,001,fr,0,0,2022-04-29_15h17.25.861,Cluster,2022.1.1,None,
,,,,4,0,4,0,9,0,9,0,,,time,,,,,,,,,,,,,,,,,,,,,,,,,,,,,,,,,,,,,,,,,,,,,,,,,,,,,,,,,,,,,,,,,,,,,,,,,,,,,,,,,,,,,,,,,,,,,,,,,,,,,,,,,,,,,,,,,,,,778.1293785999878,None,7748.897550683497,9.0,0.0004901943368639922,0,"[0.7533135836118716, 0.7533135836118716, 0.7533135836118716, 0.7533135836118716]","[162.15589345110152, 2376.787158768767, 1296.7512476814504, 766.724983686257]",None,"[15.593117235502163, 17.481046052572484, 15.401470255701224, 18.0]",False,779.1424733999884,782.4171170999762,782.4171170999762,783.6396250000107,None,0,4.052667466690764,5.083168666693382,None,1,,['space'],0,[-4.234251099987887],,,,,,,tvzljm,001,fr,0,0,2022-04-29_15h17.25.861,Cluster,2022.1.1,None,
,,,,4,0,4,0,10,0,10,0,,,both,,,,,,,,,,,,,,,,,,,,,,,,,,,,,,,,,,,,,,,,,,,,,,,,,,,,,,,,,,,,,,,,,,,,,,,,,,,,,,,,,,,,,,,,,,,,,,,,,,,,,,,,,,,,,,,,,,,,784.2757631000131,None,,,,,"[0.7924578390898716, 0.7924578390898716, 0.7924578390898716, 0.7924578390898716]","[161.8265973536218, 242.4659360418048, 363.288427872965, 544.3176224294673]",Perfect_5th,"[15.593117235502163, 17.0, 28.0, 27.9687080657157]",True,785.2703663000138,788.6712023,788.6712023,789.9104394000024,None,1,4.199382066668477,5.233620966668241,None,1,,None,1,,,0,,,,,tvzljm,001,fr,0,0,2022-04-29_15h17.25.861,Cluster,2022.1.1,None,
,,,,4,0,4,0,11,0,11,0,,,frequency,,,,,,,,,,,,,,,,,,,,,,,,,,,,,,,,,,,,,,,,,,,,,,,,,,,,,,,,,,,,,,,,,,,,,,,,,,,,,,,,,,,,,,,,,,,,,,,,,,,,,,,,,,,,,,,,,,,,790.5495068000164,None,676.6752109362938,16.0,0.0002970015559622189,1,"[0.5168981455905803, 0.5597245533697368, 0.7205279162443947, 0.72818456477003]","[134.2693677101345, 201.1767438478519, 301.4245390102439, 451.6265199433398]",Perfect_5th,"[16.957541303895, 15.349362697800428, 23.0, 30.282871582023972]",False,791.5609983999748,794.4059034999809,794.4059034999809,795.6248309999937,['space'],1,3.5571768666850403,4.592878166702576,None,1,,None,1,,[0.6801364999846555],,,,,,tvzljm,001,fr,0,0,2022-04-29_15h17.25.861,Cluster,2022.1.1,None,
,,,,4,0,4,0,12,0,12,0,,,time,,,,,,,,,,,,,,,,,,,,,,,,,,,,,,,,,,,,,,,,,,,,,,,,,,,,,,,,,,,,,,,,,,,,,,,,,,,,,,,,,,,,,,,,,,,,,,,,,,,,,,,,,,,,,,,,,,,,796.206244800007,None,1741.101126592249,15.0,0.0003549593748842735,1,"[0.4287505903070963, 0.4287505903070963, 0.4287505903070963, 0.4287505903070963]","[209.4935748336934, 206.87735451101616, 814.016425927845, 775.1344471252144]",None,"[15.349362697800428, 15.349362697800428, 16.949800256527006, 18.0]",False,797.217131900019,799.5408699000254,799.5408699000254,800.7799823000096,['space'],1,2.743682233383879,3.7749704333837144,None,1,,None,1,,[0.5906458999961615],,,,,,tvzljm,001,fr,0,0,2022-04-29_15h17.25.861,Cluster,2022.1.1,None,
,,,,4,0,4,0,13,0,13,0,,,frequency,,,,,,,,,,,,,,,,,,,,,,,,,,,,,,,,,,,,,,,,,,,,,,,,,,,,,,,,,,,,,,,,,,,,,,,,,,,,,,,,,,,,,,,,,,,,,,,,,,,,,,,,,,,,,,,,,,,,801.033653600025,None,3249.0095854249403,16.0,0.0004464479880532507,1,"[0.4754937553477259, 0.6382288996493872, 0.4698325121580847, 0.5377681006664808]","[1289.3703084395788, 1624.5047927124706, 2046.747783993549, 2578.740616879157]",Major_3rd,"[15.0, 17.32461680880577, 17.68494805930083, 17.634980621918327]",False,802.1284753999789,804.7233645999804,804.7233645999804,805.9631885000272,['space'],1,3.1308615333400667,4.1515797332976945,None,1,,None,1,,[0.8857107000076212],,,,,,tvzljm,001,fr,0,0,2022-04-29_15h17.25.861,Cluster,2022.1.1,None,
,,,,4,0,4,0,14,0,14,0,,,both,,,,,,,,,,,,,,,,,,,,,,,,,,,,,,,,,,,,,,,,,,,,,,,,,,,,,,,,,,,,,,,,,,,,,,,,,,,,,,,,,,,,,,,,,,,,,,,,,,,,,,,,,,,,,,,,,,,,806.3371114999754,None,,,,,"[0.4492874192765297, 0.4492874192765297, 0.4492874192765297, 0.4492874192765297]","[434.9946109066413, 387.5361412546824, 345.25545147685, 307.58763915168976]",Tone,"[30.56888273247342, 29.1779254713205, 27.0, 23.567420424198872]",True,807.3433389000129,809.7123188999831,809.7123188999831,810.9521818999783,None,1,2.826685866690241,3.8457290666992776,None,1,,None,1,,,0,,,,,tvzljm,001,fr,0,0,2022-04-29_15h17.25.861,Cluster,2022.1.1,None,
,,,,4,0,4,0,15,0,15,0,,,frequency,,,,,,,,,,,,,,,,,,,,,,,,,,,,,,,,,,,,,,,,,,,,,,,,,,,,,,,,,,,,,,,,,,,,,,,,,,,,,,,,,,,,,,,,,,,,,,,,,,,,,,,,,,,,,,,,,,,,811.2365343000274,None,2542.6404897948983,11.495035524627113,0.00031268937133124695,0,"[0.7899893353340889, 0.7286451857666009, 0.6331829631060966, 0.737236083765932]","[504.5237735346699, 755.9315403395241, 1132.6175765249995, 1697.0089303023233]",Perfect_5th,"[29.379301110301753, 18.496205326765622, 14.273568653459192, 17.633147810913545]",False,812.2325163999922,815.4289362999843,815.4289362999843,816.6630082000047,None,0,3.9272300667362288,4.9640445667319,None,1,,None,1,,,,,,,,tvzljm,001,fr,0,0,2022-04-29_15h17.25.861,Cluster,2022.1.1,None,
,,,,4,0,4,0,16,0,16,0,,,both,,,,,,,,,,,,,,,,,,,,,,,,,,,,,,,,,,,,,,,,,,,,,,,,,,,,,,,,,,,,,,,,,,,,,,,,,,,,,,,,,,,,,,,,,,,,,,,,,,,,,,,,,,,,,,,,,,,,817.2489842000068,None,4924.577653379667,13.0,0.0006591109276268536,0,"[0.5751717243244173, 0.5751717243244173, 0.5751717243244173, 0.5751717243244173]","[7817.279747473972, 6964.404506368996, 6204.579047334942, 5527.651519871107]",Tone,"[15.0, 13.552112816577587, 12.404123558701539, 12.460225176586967]",False,818.2633271000232,821.0280488000135,821.0280488000135,822.2666027999949,None,0,3.3232434666715562,4.34555876662489,None,1,,None,1,,,,,,,,tvzljm,001,fr,0,0,2022-04-29_15h17.25.861,Cluster,2022.1.1,None,
,,,,4,0,4,0,17,0,17,0,,,time,,,,,,,,,,,,,,,,,,,,,,,,,,,,,,,,,,,,,,,,,,,,,,,,,,,,,,,,,,,,,,,,,,,,,,,,,,,,,,,,,,,,,,,,,,,,,,,,,,,,,,,,,,,,,,,,,,,,822.6655996000045,None,453.7656015279817,24.282871582023972,0.00120848668756566,1,"[0.5765260502321948, 0.5765260502321948, 0.5765260502321948, 0.5765260502321948]","[315.73680283892116, 5519.697402805719, 316.87563367372223, 6290.916218680101]",None,"[24.0, 12.460225176586967, 24.0, 12.789279036862018]",False,823.6705248000217,826.4400189000298,826.4400189000298,827.6685293000191,['space'],1,3.325682266615331,4.355758966645226,None,1,,None,1,,[0.4198834999697283],,,,,,tvzljm,001,fr,0,0,2022-04-29_15h17.25.861,Cluster,2022.1.1,None,
,,,,4,0,4,0,18,0,18,0,,,both,,,,,,,,,,,,,,,,,,,,,,,,,,,,,,,,,,,,,,,,,,,,,,,,,,,,,,,,,,,,,,,,,,,,,,,,,,,,,,,,,,,,,,,,,,,,,,,,,,,,,,,,,,,,,,,,,,,,828.0752327999799,None,196.40619689834372,9.349362697800428,0.0008172243876983624,0,"[0.4438807048320738, 0.4438807048320738, 0.4438807048320738, 0.4438807048320738]","[494.9126036040409, 392.8123937966875, 311.7754035695042, 247.45630180202042]",Major_3rd,"[29.379301110301753, 30.0, 24.0, 17.918162811098448]",False,829.092753999983,831.4521076999954,831.4521076999954,832.6787228999892,None,0,2.818202166701667,3.8550045666634105,None,1,,None,1,,,,,,,,tvzljm,001,fr,0,0,2022-04-29_15h17.25.861,Cluster,2022.1.1,None,
,,,,4,0,4,0,19,0,19,0,,,time,,,,,,,,,,,,,,,,,,,,,,,,,,,,,,,,,,,,,,,,,,,,,,,,,,,,,,,,,,,,,,,,,,,,,,,,,,,,,,,,,,,,,,,,,,,,,,,,,,,,,,,,,,,,,,,,,,,,833.0002812999883,None,,,,,"[0.50674737773946, 0.50674737773946, 0.50674737773946, 0.50674737773946]","[5866.169151994087, 268.0804738222482, 270.4885841709678, 168.4484151564742]",None,"[12.404123558701539, 19.538121259105882, 20.0, 15.593117235502163]",True,834.0091822000104,836.5473741000169,836.5473741000169,837.7865851999959,None,1,3.056383666698821,4.0751001666649245,None,1,,['space'],0,[-3.4525841000140645],,0,,,,,tvzljm,001,fr,0,0,2022-04-29_15h17.25.861,Cluster,2022.1.1,None,
,,,,5,0,5,0,0,0,0,0,,,none,,,,,,,,,,,,,,,,,,,,,,,,,,,,,,,,,,,,,,,,,,,,,,,,,,,,,,,,,,,,,,,,,,,,,,,,,,,,,,,,,,,,,,,,,,,,,,,,,,,,,,,,,,,,,,,,,,,,858.2436982999789,None,2994.5901468299353,12.113642233224672,0.00022248826663784078,1,"[0.5060728815372479, 0.6003933149787041, 0.6376997103135651, 0.6500311915098351]","[5768.139397651036, 331.5280095036096, 3754.4701682349064, 3698.5190364097784]",None,"[12.460225176586967, 25.684115313435463, 17.730040329576703, 17.730040329576703]",False,859.2247530000168,861.9954732999904,861.9954732999904,863.2409325999906,['space'],1,3.421318366599735,4.45614726661006,None,1,,None,1,,[0.44905589998234063],,,,,,tvzljm,001,fr,0,0,2022-04-29_15h17.25.861,Cluster,2022.1.1,None,
,,,,5,0,5,0,1,0,1,0,,,time,,,,,,,,,,,,,,,,,,,,,,,,,,,,,,,,,,,,,,,,,,,,,,,,,,,,,,,,,,,,,,,,,,,,,,,,,,,,,,,,,,,,,,,,,,,,,,,,,,,,,,,,,,,,,,,,,,,,863.7359985000221,None,250.0,20.0,0.0016748271957891384,1,"[0.4548754327877378, 0.4548754327877378, 0.4548754327877378, 0.4548754327877378]","[410.17378738726387, 533.2548843927374, 371.8978953098878, 404.7411346613122]",None,"[30.194537947803656, 28.0, 29.0, 30.194537947803656]",False,864.7484104000032,867.1375658999896,867.1375658999896,868.3503877000185,['space'],1,2.845774866640568,3.861381466675084,None,1,,None,1,,[0.46228450001217425],,,,,,tvzljm,001,fr,0,0,2022-04-29_15h17.25.861,Cluster,2022.1.1,None,
,,,,5,0,5,0,2,0,2,0,,,none,,,,,,,,,,,,,,,,,,,,,,,,,,,,,,,,,,,,,,,,,,,,,,,,,,,,,,,,,,,,,,,,,,,,,,,,,,,,,,,,,,,,,,,,,,,,,,,,,,,,,,,,,,,,,,,,,,,,868.6645476000267,None,1319.5079107728945,15.0,0.0002968238326132414,1,"[0.4958188036887007, 0.6520435422931923, 0.6096461226482457, 0.4069061809342027]","[1365.7736560790097, 1831.0664304858162, 193.73997386551179, 2451.7483197308297]",None,"[16.0, 17.73603578707793, 15.196392041115487, 17.495035524627113]",False,869.6871245999937,872.4874697999912,872.4874697999912,873.7170702000149,['space'],1,3.1894306666217744,4.221848566608969,None,1,,None,1,,[0.3643496999866329],,,,,,tvzljm,001,fr,0,0,2022-04-29_15h17.25.861,Cluster,2022.1.1,None,
,,,,5,0,5,0,3,0,3,0,,,both,,,,,,,,,,,,,,,,,,,,,,,,,,,,,,,,,,,,,,,,,,,,,,,,,,,,,,,,,,,,,,,,,,,,,,,,,,,,,,,,,,,,,,,,,,,,,,,,,,,,,,,,,,,,,,,,,,,,873.9698603000143,None,,,,,"[0.7220057491410676, 0.7220057491410676, 0.7220057491410676, 0.7220057491410676]","[7809.335048258469, 5212.105828491137, 3478.6632920109478, 2321.7292007072724]",Perfect_5th,"[15.0, 13.0, 18.14131397789337, 17.481046052572484]",True,874.9711939999834,878.1785720000044,878.1785720000044,879.4106731999782,None,1,3.931703466689214,4.949860366701614,None,1,,None,1,,,0,,,,,tvzljm,001,fr,0,0,2022-04-29_15h17.25.861,Cluster,2022.1.1,None,
,,,,5,0,5,0,4,0,4,0,,,none,,,,,,,,,,,,,,,,,,,,,,,,,,,,,,,,,,,,,,,,,,,,,,,,,,,,,,,,,,,,,,,,,,,,,,,,,,,,,,,,,,,,,,,,,,,,,,,,,,,,,,,,,,,,,,,,,,,,879.9591199000133,None,4821.370870523732,8.0,0.00035280782691706944,1,"[0.5172229276968541, 0.6666273828146544, 0.7216218095548603, 0.40811922487206787]","[3116.620354034825, 680.198204680908, 4558.884754122721, 355.0559793409318]",None,"[18.113642233224674, 21.0, 15.0, 27.619031884387162]",False,880.9805349999806,883.9264015000081,883.9264015000081,885.1380689999787,['space'],1,3.336074566585012,4.36878136661835,None,1,,None,1,,[0.4271720999968238],,,,,,tvzljm,001,fr,0,0,2022-04-29_15h17.25.861,Cluster,2022.1.1,None,
,,,,5,0,5,0,5,0,5,0,,,none,,,,,,,,,,,,,,,,,,,,,,,,,,,,,,,,,,,,,,,,,,,,,,,,,,,,,,,,,,,,,,,,,,,,,,,,,,,,,,,,,,,,,,,,,,,,,,,,,,,,,,,,,,,,,,,,,,,,885.3955827000318,None,757.8582832551998,21.0,0.00045199635245948133,1,"[0.5022617009746515, 0.7247387818950276, 0.4327669489392949, 0.7124863948092355]","[1456.935169575032, 3767.6290076296414, 560.901887169792, 434.2171194775873]",None,"[16.129914452154452, 17.730040329576703, 27.0, 30.56888273247342]",False,887.6323539000005,890.3081423999975,890.3081423999975,891.5459268999984,['space'],1,3.4053619334008545,4.43990913341986,None,1,,None,1,,[0.37191129999700934],,,,,,tvzljm,001,fr,0,0,2022-04-29_15h17.25.861,Cluster,2022.1.1,None,
,,,,5,0,5,0,6,0,6,0,,,none,,,,,,,,,,,,,,,,,,,,,,,,,,,,,,,,,,,,,,,,,,,,,,,,,,,,,,,,,,,,,,,,,,,,,,,,,,,,,,,,,,,,,,,,,,,,,,,,,,,,,,,,,,,,,,,,,,,,892.1195792999933,None,915.535815904359,9.0,0.0001173907662136451,1,"[0.6069590445921226, 0.6407905173113146, 0.798431710846886, 0.4555584008169635]","[3974.4237710089283, 6552.770860194183, 5877.872585009491, 1862.9737848919028]",None,"[17.003046537838127, 12.789279036862018, 12.404123558701539, 17.73603578707793]",False,893.1344677000307,896.2110511999927,896.2110511999927,897.4511360999895,['space'],1,3.5208848665934056,4.531095266633201,None,1,,None,1,,[0.8233586000278592],,,,,,tvzljm,001,fr,0,0,2022-04-29_15h17.25.861,Cluster,2022.1.1,None,
,,,,5,0,5,0,7,0,7,0,,,none,,,,,,,,,,,,,,,,,,,,,,,,,,,,,,,,,,,,,,,,,,,,,,,,,,,,,,,,,,,,,,,,,,,,,,,,,,,,,,,,,,,,,,,,,,,,,,,,,,,,,,,,,,,,,,,,,,,,897.7130487000104,None,1071.7734625362941,13.0,0.00021018482538189467,1,"[0.7853531845708063, 0.5307451863642862, 0.760380786103129, 0.44449820085083097]","[1868.7743048640948, 464.465232429434, 155.8570135461889, 1452.924128643982]",None,"[17.73603578707793, 30.282871582023972, 16.0, 16.129914452154452]",False,902.4599598000059,905.5678992000176,905.5678992000176,906.790007499978,['space'],1,3.551037199969869,4.590155799931381,None,1,,None,1,,[0.45410470000933856],,,,,,tvzljm,001,fr,0,0,2022-04-29_15h17.25.861,Cluster,2022.1.1,None,
,,,,5,0,5,0,8,0,8,0,,,time,,,,,,,,,,,,,,,,,,,,,,,,,,,,,,,,,,,,,,,,,,,,,,,,,,,,,,,,,,,,,,,,,,,,,,,,,,,,,,,,,,,,,,,,,,,,,,,,,,,,,,,,,,,,,,,,,,,,907.1028375999886,None,287.03926231412515,15.463078262892944,0.0007606547093203066,1,"[0.6333947352738822, 0.6333947352738822, 0.6333947352738822, 0.6333947352738822]","[241.84665291499022, 2190.2265605288503, 165.40693861578282, 1338.63622438612]",None,"[17.0, 17.568232151664297, 15.593117235502163, 15.401470255701224]",False,908.0983013000223,911.0151426999946,911.0151426999946,912.2445056000142,['space'],1,3.5502978666336276,4.59160186664667,None,1,,None,1,,[0.5339438999653794],,,,,,tvzljm,001,fr,0,0,2022-04-29_15h17.25.861,Cluster,2022.1.1,None,
,,,,5,0,5,0,9,0,9,0,,,both,,,,,,,,,,,,,,,,,,,,,,,,,,,,,,,,,,,,,,,,,,,,,,,,,,,,,,,,,,,,,,,,,,,,,,,,,,,,,,,,,,,,,,,,,,,,,,,,,,,,,,,,,,,,,,,,,,,,912.7427235000068,None,3732.1319661472303,19.0,0.0007062095770881294,1,"[0.5932708374370281, 0.5932708374370281, 0.5932708374370281, 0.5932708374370281]","[2351.0958125672173, 2639.0158215457886, 2962.195104573129, 3324.9515845711517]",Tone,"[17.481046052572484, 17.634980621918327, 18.0, 18.242212058307175]",False,913.7583802000154,916.5731422000099,916.5731422000099,917.7789822000195,['space'],1,3.397650866652839,4.4310062666772865,None,1,,None,1,,[0.5028782000299543],,,,,,tvzljm,001,fr,0,0,2022-04-29_15h17.25.861,Cluster,2022.1.1,None,
,,,,5,0,5,0,10,0,10,0,,,none,,,,,,,,,,,,,,,,,,,,,,,,,,,,,,,,,,,,,,,,,,,,,,,,,,,,,,,,,,,,,,,,,,,,,,,,,,,,,,,,,,,,,,,,,,,,,,,,,,,,,,,,,,,,,,,,,,,,918.242472700018,None,,,,,"[0.6568696547487995, 0.42768853365075693, 0.44701780815522874, 0.5357701253144103]","[691.7589144486893, 7870.2062875512565, 5427.300960423187, 908.5675784331297]",None,"[21.0, 15.678064134582272, 12.95884971653413, 15.0]",True,919.2608210000326,921.8108951000031,921.8108951000031,923.0470876999898,None,1,3.102483766619116,4.13702616665978,None,1,,None,1,,,0,,,,,tvzljm,001,fr,0,0,2022-04-29_15h17.25.861,Cluster,2022.1.1,None,
,,,,5,0,5,0,11,0,11,0,,,frequency,,,,,,,,,,,,,,,,,,,,,,,,,,,,,,,,,,,,,,,,,,,,,,,,,,,,,,,,,,,,,,,,,,,,,,,,,,,,,,,,,,,,,,,,,,,,,,,,,,,,,,,,,,,,,,,,,,,,923.4471316999989,None,125.0,13.0,0.003228271145173279,1,"[0.44974676507389066, 0.6739823903142836, 0.4421971468893502, 0.5662480042651525]","[629.9605249474366, 420.4482076268573, 280.6155120773433, 187.2883846095852]",Perfect_5th,"[24.0, 30.194537947803656, 21.0, 15.196392041115487]",False,924.4582310999976,927.0645081999828,927.0645081999828,928.2864117000136,['space'],1,3.167604533373378,4.1894591333693825,None,1,,None,1,,[0.5652228000108153],,,,,,tvzljm,001,fr,0,0,2022-04-29_15h17.25.861,Cluster,2022.1.1,None,
,,,,5,0,5,0,12,0,12,0,,,frequency,,,,,,,,,,,,,,,,,,,,,,,,,,,,,,,,,,,,,,,,,,,,,,,,,,,,,,,,,,,,,,,,,,,,,,,,,,,,,,,,,,,,,,,,,,,,,,,,,,,,,,,,,,,,,,,,,,,,928.7054504000116,None,1880.41944015345,11.736035787077933,0.00026806402389109476,1,"[0.5208770584592426, 0.49123182593267356, 0.6579031393567404, 0.4443867744287644]","[1184.5900176404318, 1329.6573376075155, 1492.4898987205195, 1675.263268798883]",Tone,"[14.273568653459192, 15.401470255701224, 16.799106454687937, 17.32461680880577]",False,929.7223425999982,932.4317744,932.4317744,933.6457250000094,['space'],1,3.152147366607096,4.186034666607156,None,1,,None,1,,[0.5234172999626026],,,,,,tvzljm,001,fr,0,0,2022-04-29_15h17.25.861,Cluster,2022.1.1,None,
,,,,5,0,5,0,13,0,13,0,,,none,,,,,,,,,,,,,,,,,,,,,,,,,,,,,,,,,,,,,,,,,,,,,,,,,,,,,,,,,,,,,,,,,,,,,,,,,,,,,,,,,,,,,,,,,,,,,,,,,,,,,,,,,,,,,,,,,,,,933.9614096999867,None,376.9857532911249,23.0,0.0011657542163856114,1,"[0.5798054717142587, 0.48336259076204197, 0.5505371232920324, 0.6027263093776456]","[3862.6248789962137, 920.0223707539225, 1602.3032197258508, 133.68340587340012]",None,"[17.730040329576703, 15.0, 17.32461680880577, 16.957541303895]",False,934.9835023999913,937.6189856000128,937.6189856000128,938.8698994999868,['space'],1,3.2601341666886583,4.268303766672034,None,1,,None,1,,[0.5632149999728426],,,,,,tvzljm,001,fr,0,0,2022-04-29_15h17.25.861,Cluster,2022.1.1,None,
,,,,5,0,5,0,14,0,14,0,,,none,,,,,,,,,,,,,,,,,,,,,,,,,,,,,,,,,,,,,,,,,,,,,,,,,,,,,,,,,,,,,,,,,,,,,,,,,,,,,,,,,,,,,,,,,,,,,,,,,,,,,,,,,,,,,,,,,,,,939.2990545000066,None,,,,,"[0.44469854361430894, 0.46749329560284497, 0.6047828238501529, 0.4970037448988814]","[1118.9825475863427, 338.53018696944565, 460.9855983400261, 897.9425035263237]",None,"[14.273568653459192, 25.999999999999996, 30.282871582023972, 15.0]",True,940.2992069000029,942.8289035999915,942.8289035999915,944.057466200029,None,1,3.052457466663327,4.081211966695264,None,1,,None,1,,,0,,,,,tvzljm,001,fr,0,0,2022-04-29_15h17.25.861,Cluster,2022.1.1,None,
,,,,5,0,5,0,15,0,15,0,,,frequency,,,,,,,,,,,,,,,,,,,,,,,,,,,,,,,,,,,,,,,,,,,,,,,,,,,,,,,,,,,,,,,,,,,,,,,,,,,,,,,,,,,,,,,,,,,,,,,,,,,,,,,,,,,,,,,,,,,,944.4204012000118,None,8000.0,13.0,0.0008109050486794653,1,"[0.6937237136077228, 0.4681161807858253, 0.43379299806747823, 0.46360897739775364]","[5039.684199579492, 5656.8542494923795, 6349.604207872798, 7127.189745122714]",Tone,"[13.816603791135027, 12.460225176586967, 12.789279036862018, 14.0]",False,945.517168099992,948.1252659999882,948.1252659999882,949.3455502000288,['space'],1,3.0914885999518447,4.12209689989686,None,1,,None,1,,[0.5830159999895841],,,,,,tvzljm,001,fr,0,0,2022-04-29_15h17.25.861,Cluster,2022.1.1,None,
,,,,5,0,5,0,16,0,16,0,,,frequency,,,,,,,,,,,,,,,,,,,,,,,,,,,,,,,,,,,,,,,,,,,,,,,,,,,,,,,,,,,,,,,,,,,,,,,,,,,,,,,,,,,,,,,,,,,,,,,,,,,,,,,,,,,,,,,,,,,,949.679523000028,None,1590.5514655825343,11.0,0.00019852635450802385,1,"[0.46890191927801106, 0.46499341705844444, 0.7869681077208068, 0.44638574740931564]","[1001.9846362142878, 1124.6897271396115, 1262.421534837638, 1417.0202618237179]",Tone,"[14.255459156384784, 14.273568653459192, 15.0, 16.129914452154452]",False,950.6941595000098,953.4427600000054,953.4427600000054,954.6483552000136,['space'],1,3.186751566710882,4.2183168667252176,None,1,,None,1,,[0.5578630000236444],,,,,,tvzljm,001,fr,0,0,2022-04-29_15h17.25.861,Cluster,2022.1.1,None,
,,,,5,0,5,0,17,0,17,0,,,none,,,,,,,,,,,,,,,,,,,,,,,,,,,,,,,,,,,,,,,,,,,,,,,,,,,,,,,,,,,,,,,,,,,,,,,,,,,,,,,,,,,,,,,,,,,,,,,,,,,,,,,,,,,,,,,,,,,,954.9740854999982,None,8000.0,11.0,0.000644124775846567,0,"[0.6170116589479167, 0.4329166082010611, 0.46424159904783907, 0.4507093226252753]","[548.2465216925636, 6152.664426394765, 780.8319601041644, 1787.577385496249]",None,"[27.0, 12.404123558701539, 18.0, 17.633147810913545]",False,955.9971191000077,958.54107690003,958.54107690003,959.7660716000246,None,0,2.974089366616681,4.020655466592871,None,1,,None,1,,,,,,,,tvzljm,001,fr,0,0,2022-04-29_15h17.25.861,Cluster,2022.1.1,None,
,,,,5,0,5,0,18,0,18,0,,,time,,,,,,,,,,,,,,,,,,,,,,,,,,,,,,,,,,,,,,,,,,,,,,,,,,,,,,,,,,,,,,,,,,,,,,,,,,,,,,,,,,,,,,,,,,,,,,,,,,,,,,,,,,,,,,,,,,,,960.0729026999907,None,812.2523963562351,21.0,0.0004344041451495799,1,"[0.780986660729831, 0.780986660729831, 0.780986660729831, 0.780986660729831]","[1600.7701591312311, 359.49369259081476, 3711.1247829656195, 912.8209665580107]",None,"[17.32461680880577, 28.0, 17.730040329576703, 15.0]",False,961.100146599987,964.4954311000183,964.4954311000183,965.7168308999971,['space'],1,4.129971566668246,5.152003766677808,None,1,,None,1,,[0.14026200002990663],,,,,,tvzljm,001,fr,0,0,2022-04-29_15h17.25.861,Cluster,2022.1.1,None,
,,,,5,0,5,0,19,0,19,0,,,frequency,,,,,,,,,,,,,,,,,,,,,,,,,,,,,,,,,,,,,,,,,,,,,,,,,,,,,,,,,,,,,,,,,,,,,,,,,,,,,,,,,,,,,,,,,,,,,,,,,,,,,,,,,,,,,,,,,,,,966.3058317999821,None,,,,,"[0.4119722988094225, 0.5919494255862398, 0.6287927199970869, 0.5467706431243282]","[1817.1279618560216, 1618.8769719144968, 1442.2554191055392, 1284.9035041120826]",Tone,"[17.73603578707793, 17.32461680880577, 16.129914452154452, 15.0]",True,967.3205310999765,969.984081499977,969.984081499977,971.2005434000166,None,1,3.2057402666541748,4.230329966638237,None,1,,['space'],0,[-2.5215297000249848],,0,,,,,tvzljm,001,fr,0,0,2022-04-29_15h17.25.861,Cluster,2022.1.1,None,
,,,,6,0,6,0,0,0,0,0,,,both,,,,,,,,,,,,,,,,,,,,,,,,,,,,,,,,,,,,,,,,,,,,,,,,,,,,,,,,,,,,,,,,,,,,,,,,,,,,,,,,,,,,,,,,,,,,,,,,,,,,,,,,,,,,,,,,,,,,979.9665160999866,None,4593.384504609216,8.894798918563994,0.0003474121481502217,1,"[0.5826343470525841, 0.5826343470525841, 0.5826343470525841, 0.5826343470525841]","[7291.543394711096, 6496.0266636127735, 5787.301827618085, 5155.899779716195]",Tone,"[14.0, 12.789279036862018, 12.460225176586967, 13.0]",False,980.9749632999883,983.7585392000037,983.7585392000037,984.9787242999882,['space'],1,3.3726953666773625,4.396307866671123,None,1,,None,1,,[0.41129160003038123],,,,,,tvzljm,001,fr,0,0,2022-04-29_15h17.25.861,Cluster,2022.1.1,None,
,,,,6,0,6,0,1,0,1,0,,,both,,,,,,,,,,,,,,,,,,,,,,,,,,,,,,,,,,,,,,,,,,,,,,,,,,,,,,,,,,,,,,,,,,,,,,,,,,,,,,,,,,,,,,,,,,,,,,,,,,,,,,,,,,,,,,,,,,,,985.4214569000178,None,1148.6983549970344,14.0,0.0002519571877230455,1,"[0.48463790692888054, 0.48463790692888054, 0.48463790692888054, 0.48463790692888054]","[2894.5384748807546, 2297.3967099940687, 1823.4449771164327, 1447.2692374403773]",Major_3rd,"[18.0, 17.481046052572484, 17.73603578707793, 16.129914452154452]",False,987.9950083000003,990.4876985999872,990.4876985999872,991.7250332999974,['space'],1,2.947543266636785,3.9846250666305423,None,1,,None,1,,[0.7502914000069723],,,,,,tvzljm,001,fr,0,0,2022-04-29_15h17.25.861,Cluster,2022.1.1,None,
,,,,6,0,6,0,2,0,2,0,,,time,,,,,,,,,,,,,,,,,,,,,,,,,,,,,,,,,,,,,,,,,,,,,,,,,,,,,,,,,,,,,,,,,,,,,,,,,,,,,,,,,,,,,,,,,,,,,,,,,,,,,,,,,,,,,,,,,,,,992.0353404000052,None,186.24128347833044,9.196392041115487,0.0009096815402114465,0,"[0.5542634561799717, 0.5542634561799717, 0.5542634561799717, 0.5542634561799717]","[815.9498151941833, 624.2263110323102, 540.0544665132106, 2711.668110422908]",None,"[16.949800256527006, 24.0, 27.9687080657157, 17.634980621918327]",False,993.0471322999801,995.7470827000216,995.7470827000216,996.9603281000163,None,0,3.2403932667220943,4.264539566705935,None,1,,None,1,,,,,,,,tvzljm,001,fr,0,0,2022-04-29_15h17.25.861,Cluster,2022.1.1,None,
,,,,6,0,6,0,3,0,3,0,,,time,,,,,,,,,,,,,,,,,,,,,,,,,,,,,,,,,,,,,,,,,,,,,,,,,,,,,,,,,,,,,,,,,,,,,,,,,,,,,,,,,,,,,,,,,,,,,,,,,,,,,,,,,,,,,,,,,,,,997.3595032999874,None,5278.031643091578,9.0,0.0004016006026395102,1,"[0.41533846896588117, 0.41533846896588117, 0.41533846896588117, 0.41533846896588117]","[170.06092796146763, 3773.3417503259025, 125.18555284009484, 2796.8846117754865]",None,"[15.593117235502163, 17.730040329576703, 17.399714025031077, 17.869204681409798]",False,1000.0288553999853,1002.3050986999879,1002.3050986999879,1003.5482399000321,['space'],1,2.697104766673874,3.7182673666393384,None,1,,None,1,,[0.4336572000174783],,,,,,tvzljm,001,fr,0,0,2022-04-29_15h17.25.861,Cluster,2022.1.1,None,
,,,,6,0,6,0,4,0,4,0,,,none,,,,,,,,,,,,,,,,,,,,,,,,,,,,,,,,,,,,,,,,,,,,,,,,,,,,,,,,,,,,,,,,,,,,,,,,,,,,,,,,,,,,,,,,,,,,,,,,,,,,,,,,,,,,,,,,,,,,1003.7997232999769,None,,,,,"[0.7096682679788706, 0.42154833514006995, 0.7799965306356833, 0.5872018105908855]","[158.76741021824245, 266.86691319774894, 3775.895768291226, 239.8075695931546]",None,"[16.0, 19.538121259105882, 17.730040329576703, 17.0]",True,1004.8020362000098,1007.7403183000279,1007.7403183000279,1008.9538340999861,None,1,3.5409413666347973,4.570466066652443,None,1,,None,1,,,0,,,,,tvzljm,001,fr,0,0,2022-04-29_15h17.25.861,Cluster,2022.1.1,None,
,,,,6,0,6,0,5,0,5,0,,,none,,,,,,,,,,,,,,,,,,,,,,,,,,,,,,,,,,,,,,,,,,,,,,,,,,,,,,,,,,,,,,,,,,,,,,,,,,,,,,,,,,,,,,,,,,,,,,,,,,,,,,,,,,,,,,,,,,,,1009.412118999986,None,1079.5976742872394,8.089441365949824,0.00012024955835769895,1,"[0.47126846462195576, 0.42590560469152816, 0.6592429809382842, 0.4667659767222007]","[7908.063703991845, 1237.6540663319013, 1028.224001728986, 705.9105106355262]",None,"[15.678064134582272, 14.7385252899293, 14.255459156384784, 20.28160917266453]",False,1010.427302600001,1013.0227794999955,1013.0227794999955,1014.2480116999941,['space'],1,3.047116666624788,4.0589025666122325,None,1,,None,1,,[0.6292888000025414],,,,,,tvzljm,001,fr,0,0,2022-04-29_15h17.25.861,Cluster,2022.1.1,None,
,,,,6,0,6,0,6,0,6,0,,,time,,,,,,,,,,,,,,,,,,,,,,,,,,,,,,,,,,,,,,,,,,,,,,,,,,,,,,,,,,,,,,,,,,,,,,,,,,,,,,,,,,,,,,,,,,,,,,,,,,,,,,,,,,,,,,,,,,,,1014.5366535999929,None,1199.9800319049998,8.7385252899293,0.0001433503312745567,1,"[0.6934143040116001, 0.6934143040116001, 0.6934143040116001, 0.6934143040116001]","[1666.2517701149645, 176.0955052474353, 345.3850500186157, 276.23938064909277]",None,"[17.32461680880577, 15.301736209859286, 27.0, 20.0]",False,1015.5467177000246,1018.6554877000162,1018.6554877000162,1019.8944419000181,['space'],1,3.8158468666370027,4.846601266646758,None,1,,None,1,,[0.5174132999964058],,,,,,tvzljm,001,fr,0,0,2022-04-29_15h17.25.861,Cluster,2022.1.1,None,
,,,,6,0,6,0,7,0,7,0,,,none,,,,,,,,,,,,,,,,,,,,,,,,,,,,,,,,,,,,,,,,,,,,,,,,,,,,,,,,,,,,,,,,,,,,,,,,,,,,,,,,,,,,,,,,,,,,,,,,,,,,,,,,,,,,,,,,,,,,1020.4449426999781,None,466.5164957684038,18.0,0.0005810955560840541,0,"[0.5605283187093066, 0.6496437825733961, 0.7322185409149741, 0.4612212709240215]","[1603.320820406762, 352.35839904019423, 1326.7170726154266, 171.934500922647]",None,"[17.32461680880577, 27.619031884387162, 15.401470255701224, 15.301736209859286]",False,1021.4708799999789,1024.429893499997,1024.429893499997,1025.6434900999884,None,0,3.425164666667115,4.455898466636427,None,1,,None,1,,,,,,,,tvzljm,001,fr,0,0,2022-04-29_15h17.25.861,Cluster,2022.1.1,None,
,,,,6,0,6,0,8,0,8,0,,,frequency,,,,,,,,,,,,,,,,,,,,,,,,,,,,,,,,,,,,,,,,,,,,,,,,,,,,,,,,,,,,,,,,,,,,,,,,,,,,,,,,,,,,,,,,,,,,,,,,,,,,,,,,,,,,,,,,,,,,1025.9877379999962,None,203.0630990890589,12.0,0.0010328533392327272,0,"[0.7116136238240596, 0.6756084989661293, 0.6445728043078292, 0.7120851259175303]","[511.6869459983876, 406.1261981781179, 322.3425771098949, 255.84347299919378]",Major_3rd,"[29.0, 30.194537947803656, 25.0, 18.0]",False,1026.991879899986,1030.0420431999955,1030.0420431999955,1031.2640115999966,None,0,3.7511452666367404,4.780638066644315,None,1,,['space'],0,[-0.05174959998112172],,,,,,,tvzljm,001,fr,0,0,2022-04-29_15h17.25.861,Cluster,2022.1.1,None,
,,,,6,0,6,0,9,0,9,0,,,both,,,,,,,,,,,,,,,,,,,,,,,,,,,,,,,,,,,,,,,,,,,,,,,,,,,,,,,,,,,,,,,,,,,,,,,,,,,,,,,,,,,,,,,,,,,,,,,,,,,,,,,,,,,,,,,,,,,,1031.828685000015,None,4522.21256592367,9.0,0.0003378437412608799,1,"[0.7735410378733044, 0.7735410378733044, 0.7735410378733044, 0.7735410378733044]","[7178.564984371045, 6395.374342663289, 5697.630803906339, 5076.011979637068]",Tone,"[14.0, 12.789279036862018, 12.460225176586967, 13.816603791135027]",False,1032.8486487999908,1036.195202599978,1036.195202599978,1037.4121187999845,['space'],1,4.112631366646383,5.147001966659445,None,1,,None,1,,[0.4056041000294499],,,,,,tvzljm,001,fr,0,0,2022-04-29_15h17.25.861,Cluster,2022.1.1,None,
,,,,6,0,6,0,10,0,10,0,,,time,,,,,,,,,,,,,,,,,,,,,,,,,,,,,,,,,,,,,,,,,,,,,,,,,,,,,,,,,,,,,,,,,,,,,,,,,,,,,,,,,,,,,,,,,,,,,,,,,,,,,,,,,,,,,,,,,,,,1038.0498694999842,None,153.8930516681146,14.0,0.0023329782699312526,0,"[0.5690744696085298, 0.5690744696085298, 0.5690744696085298, 0.5690744696085298]","[1559.8919249956055, 703.118959528861, 1028.2637204936218, 176.6939409666824]",None,"[17.0, 20.28160917266453, 14.255459156384784, 15.301736209859286]",False,1039.07762679999,1041.8137084000045,1041.8137084000045,1043.0305644000182,None,0,3.2823507666471414,4.318742266623303,None,1,,None,1,,,,,,,,tvzljm,001,fr,0,0,2022-04-29_15h17.25.861,Cluster,2022.1.1,None,
