tTrials.thisRepN,tTrials.thisTrialN,tTrials.thisN,tTrials.thisIndex,blocks.thisRepN,blocks.thisTrialN,blocks.thisN,blocks.thisIndex,trials.thisRepN,trials.thisTrialN,trials.thisN,trials.thisIndex,tStart_text.started,tStart_text.stopped,Prediction,practice_Frequency,practice_Level,practice_Psychopy_Level,practice_isCatchTrial,Practice_trial_detection,practice_Cue_Delays,practice_Cue_Frequencies,practice_Interval,practice_Cue_Intensities,tCue_visual_cue.started,tCue_visual_cue.stopped,tProbe_visual_cue.started,tProbe_visual_cue.stopped,tFeedback.keys,tFeedback.corr,tFeedback.rt,tFeedback.started,tFeedback.stopped,tToo_late.keys,tToo_late.corr,tToo_early.keys,tToo_early.corr,more_instructions.started,more_instructions.stopped,readyy.keys,readyy.rt,readyy.started,readyy.stopped,txt_rhythm.started,txt_rhythm.stopped,sound_1.started,sound_1.stopped,sound_2.started,sound_2.stopped,sound_3.started,sound_3.stopped,sound_4.started,sound_4.stopped,cross.started,cross.stopped,sound_5.started,sound_5.stopped,circle.started,circle.stopped,rhythm_ready.keys,rhythm_ready.rt,rhythm_ready.started,rhythm_ready.stopped,rhytm_ready_txt.started,rhytm_ready_txt.stopped,txt_freq.started,txt_freq.stopped,sound_6.started,sound_6.stopped,sound_7.started,sound_7.stopped,sound_8.started,sound_8.stopped,sound_9.started,sound_9.stopped,cross_2.started,cross_2.stopped,sound_10.started,sound_10.stopped,circle_2.started,circle_2.stopped,freq_ready.keys,freq_ready.rt,freq_ready.started,freq_ready.stopped,freq_ready_txt.started,freq_ready_txt.stopped,txt_freq_2.started,txt_freq_2.stopped,sound_11.started,sound_11.stopped,sound_12.started,sound_12.stopped,sound_13.started,sound_13.stopped,sound_14.started,sound_14.stopped,cross_3.started,cross_3.stopped,sound_15.started,sound_15.stopped,circle_3.started,circle_3.stopped,freq_ready_2.keys,freq_ready_2.rt,freq_ready_2.started,freq_ready_2.stopped,freq_ready_txt_2.started,freq_ready_txt_2.stopped,txt_freq_3.started,txt_freq_3.stopped,sound_16.started,sound_16.stopped,sound_17.started,sound_17.stopped,sound_18.started,sound_18.stopped,sound_19.started,sound_19.stopped,cross_4.started,cross_4.stopped,sound_20.started,sound_20.stopped,circle_4.started,circle_4.stopped,freq_ready_txt_3.started,freq_ready_txt_3.stopped,tStart_text_2.started,tStart_text_2.stopped,this_trial_is.started,this_trial_is.stopped,Frequency,Level,Psychopy_Level,Real trial detection,Cue Delays,Cue Frequencies,Interval,Cue Intensities,Catch trial,cue_visual_cue.started,cue_visual_cue.stopped,probe_visual_cue.started,probe_visual_cue.stopped,feedback.keys,feedback.corr,feedback.started,feedback.stopped,answer_too_late.keys,answer_too_late.corr,answer_too_early.keys,answer_too_early.corr,feedback.rt,Catch trial answer,answer_too_early.rt,Audiogram_none,Audiogram_time,Audiogram_frequency,Audiogram_both,participant,session,Language (english or french),Skip training? (1 for yes),Resume previous experiment,date,expName,psychopyVersion,frameRate,
0,0,0,0,,,,,,,,,30.503081499948166,None,time,1000,30,0.0013930605843148849,False,1,"[0.44296894241449436, 0.44296894241449436, 0.44296894241449436, 0.44296894241449436]","[879.0550230463076, 2172.729713359471, 384.4485233077653, 145.53041264202682]",None,"[30, 30, 30, 30]",89.03755350003485,91.30818749999162,91.30818749999162,92.54345609992743,['space'],1,[0.44935699994675815],91.30818749999162,92.96215899998788,None,1,None,1,,,,,,,,,,,,,,,,,,,,,,,,,,,,,,,,,,,,,,,,,,,,,,,,,,,,,,,,,,,,,,,,,,,,,,,,,,,,,,,,,,,,,,,,,,,,,,,,,,,,,,,,,,,,,,,,,,,,,,,,,,,nfsmrp,001,fr,0,0,2022-06-21_16h44.46.818,Cluster,2022.1.1,None,
1,0,1,0,,,,,,,,,,,both,2500,30,0.002716251657462167,False,1,"[0.41796310825842914, 0.41796310825842914, 0.41796310825842914, 0.41796310825842914]","[3968.502629920499, 3535.533905932738, 3149.802624737183, 2806.1551207734324]",Tone,"[30, 30, 30, 30]",101.67766159994062,103.85563619993627,103.85563619993627,105.09077370003797,['space'],1,[0.3740498000988737],103.85563619993627,105.50714759994298,None,1,None,1,,,,,,,,,,,,,,,,,,,,,,,,,,,,,,,,,,,,,,,,,,,,,,,,,,,,,,,,,,,,,,,,,,,,,,,,,,,,,,,,,,,,,,,,,,,,,,,,,,,,,,,,,,,,,,,,,,,,,,,,,,,nfsmrp,001,fr,0,0,2022-06-21_16h44.46.818,Cluster,2022.1.1,None,
2,0,2,0,,,,,,,,,,,time,6000,30,0.003664122665694519,True,0,"[0.5905851946981737, 0.5905851946981737, 0.5905851946981737, 0.5905851946981737]","[6218.256757595888, 1407.8038892143024, 272.6585123196253, 1788.209765649642]",None,"[30, 30, 30, 30]",109.64779399998952,112.3633695000317,112.3633695000317,113.59804009995423,['space'],0,[0.4345522999064997],112.3633695000317,114.19423150003422,None,1,None,1,,,,,,,,,,,,,,,,,,,,,,,,,,,,,,,,,,,,,,,,,,,,,,,,,,,,,,,,,,,,,,,,,,,,,,,,,,,,,,,,,,,,,,,,,,,,,,,,,,,,,,,,,,,,,,,,,,,,,,,,,,,nfsmrp,001,fr,0,0,2022-06-21_16h44.46.818,Cluster,2022.1.1,None,
3,0,3,0,,,,,,,,,,,time,440,30,0.0023562289915021436,False,1,"[0.7839307233320938, 0.7839307233320938, 0.7839307233320938, 0.7839307233320938]","[964.0593604468492, 836.861583427024, 389.6488073033126, 2522.1638728101166]",None,"[30, 30, 30, 30]",119.15954160003457,122.44078129995614,122.44078129995614,123.67794520000461,['space'],1,[1.205038100015372],122.44078129995614,124.43962199997623,None,1,None,1,,,,,,,,,,,,,,,,,,,,,,,,,,,,,,,,,,,,,,,,,,,,,,,,,,,,,,,,,,,,,,,,,,,,,,,,,,,,,,,,,,,,,,,,,,,,,,,,,,,,,,,,,,,,,,,,,,,,,,,,,,,nfsmrp,001,fr,0,0,2022-06-21_16h44.46.818,Cluster,2022.1.1,None,
4,0,4,0,,,,,,,,,,,both,250,30,0.005296268625886445,True,1,"[0.4578924149470475, 0.4578924149470475, 0.4578924149470475, 0.4578924149470475]","[396.85026299205003, 353.5533905932739, 314.98026247371837, 280.6155120773433]",Tone,"[30, 30, 30, 30]",127.60254600003827,129.9134774999693,129.9134774999693,131.15030330000445,None,1,,129.9134774999693,131.5987930999836,None,1,None,1,,,,,,,,,,,,,,,,,,,,,,,,,,,,,,,,,,,,,,,,,,,,,,,,,,,,,,,,,,,,,,,,,,,,,,,,,,,,,,,,,,,,,,,,,,,,,,,,,,,,,,,,,,,,,,,,,,,,,,,,,,,nfsmrp,001,fr,0,0,2022-06-21_16h44.46.818,Cluster,2022.1.1,None,
,,,,,,,,,,,,,,,,,,,,,,,,,,,,,,,,,,,,,134.45624690002296,None,space,31.470491799991578,134.45624690002296,None,,,,,,,,,,,,,,,,,,,,,,,,,,,,,,,,,,,,,,,,,,,,,,,,,,,,,,,,,,,,,,,,,,,,,,,,,,,,,,,,,,,,,,,,,,,,,,,,,,,,,,,,,,,,,,,,,,,,,nfsmrp,001,fr,0,0,2022-06-21_16h44.46.818,Cluster,2022.1.1,None,
,,,,,,,,,,,,,,,,,,,,,,,,,,,,,,,,,,,,,,,,,,,165.97877089993563,167.0233467000071,167.4417003666206,None,167.943094966646,None,168.44777956669375,None,168.94530446659,None,167.3633524000179,169.17859559995122,169.44586316665325,None,169.17859559995122,169.9979570999276,space,2.474684700020589,170.16216519998852,None,,,,,,,,,,,,,,,,,,,,,,,,,,,,,,,,,,,,,,,,,,,,,,,,,,,,,,,,,,,,,,,,,,,,,,,,,,,,,,,,,,,,,,,,,,,,,,,,,nfsmrp,001,fr,0,0,2022-06-21_16h44.46.818,Cluster,2022.1.1,None,
,,,,,,,,,,,,,,,,,,,,,,,,,,,,,,,,,,,,,,,,,,,,,,,,,,,,,,,,,,,,,,,170.16216519998852,None,172.67942509998102,173.70232719997875,174.15002756665152,None,174.45899266662698,None,175.15184716665343,None,175.55546736665227,175.7863543999847,174.066770000034,175.8779602999566,176.15045796666917,None,175.8779602999566,176.7074583999347,space,2.1712177000008523,176.87322519998997,None,,,,,,,,,,,,,,,,,,,,,,,,,,,,,,,,,,,,,,,,,,,,,,,,,,,,,,,,,,,,,,,,,,,,,,,,,,,nfsmrp,001,fr,0,0,2022-06-21_16h44.46.818,Cluster,2022.1.1,None,
,,,,,,,,,,,,,,,,,,,,,,,,,,,,,,,,,,,,,,,,,,,,,,,,,,,,,,,,,,,,,,,,,,,,,,,,,,,,,,,,,,,,,176.87322519998997,None,179.11106459994335,180.14056660002097,180.59471366665483,None,181.0898465666144,None,181.59287196660105,None,182.08500466664944,182.31718429992907,180.50690369994845,182.31718429992907,182.59198606660746,None,182.31718429992907,183.14465809997637,space,2.484095499967225,183.3125784000149,None,,,,,,,,,,,,,,,,,,,,,,,,,,,,,,,,,,,,,,,,,,,,,,,,,,,,,nfsmrp,001,fr,0,0,2022-06-21_16h44.46.818,Cluster,2022.1.1,None,
,,,,0,0,0,0,0,0,0,0,,,both,,,,,,,,,,,,,,,,,,,,,,,,,,,,,,,,,,,,,,,,,,,,,,,,,,,,,,,,,,,,,,,,,,,,,,,,,,,,,,,,,,,,,,,,,,,,,183.3125784000149,None,185.8529889000347,186.88062329997774,187.33292246662702,None,187.60550356662523,None,188.33613916667335,None,188.73188486666575,None,187.24892959999852,189.0493562000338,189.33235136670217,None,189.0493562000338,189.88860920001753,190.0506295999512,None,191.0875423999969,None,217.9513640999794,None,159.66663153366795,0.0,0.0004140892430932962,0,"[0.5135392077101655, 0.5135392077101655, 0.5135392077101655, 0.5135392077101655]","[804.6694001403073, 537.0523923691884, 358.43946855587774, 239.2296439679562]",Perfect_5th,"[11.612439159137557, 12.543365251228744, 9.111763019987018, 2.3518981835911785]",False,218.9308215000201,221.51525129994843,221.51525129994843,222.75649049994536,None,0,3.085684966761619,4.124942866736092,None,1,None,1,,,,,,,,nfsmrp,001,fr,0,0,2022-06-21_16h44.46.818,Cluster,2022.1.1,None,
,,,,0,0,0,0,1,0,1,0,,,none,,,,,,,,,,,,,,,,,,,,,,,,,,,,,,,,,,,,,,,,,,,,,,,,,,,,,,,,,,,,,,,,,,,,,,,,,,,,,,,,,,,,,,,,,,,,,,,,,,,,,,,,,,,,,,,,,,,223.09277789993212,None,183.03913830807272,-2.0,0.0002599147629593447,0,"[0.41393771105155924, 0.5367582389769171, 0.5629398093116951, 0.6405683861529625]","[495.7352546514269, 329.01450539761754, 7300.43392245111, 1340.0960924088263]",None,"[12.540220128986695, 7.6392326970469115, 8.793879838606054, 5.419783536075185]",False,224.10879089997616,226.6603340000147,226.6603340000147,227.8920664000325,None,0,3.1866199667565525,4.218965066713281,None,1,None,1,,,,,,,,nfsmrp,001,fr,0,0,2022-06-21_16h44.46.818,Cluster,2022.1.1,None,
,,,,0,0,0,0,2,0,2,0,,,both,,,,,,,,,,,,,,,,,,,,,,,,,,,,,,,,,,,,,,,,,,,,,,,,,,,,,,,,,,,,,,,,,,,,,,,,,,,,,,,,,,,,,,,,,,,,,,,,,,,,,,,,,,,,,,,,,,,228.36925220000558,None,353.5533905932738,2.0,0.0001115563142959358,1,"[0.5613442787039452, 0.5613442787039452, 0.5613442787039452, 0.5613442787039452]","[222.72467953508485, 250.00000000000003, 280.6155120773433, 314.9802624737183]",Tone,"[2.4140431281402135, 2.7189213988014735, 4.0, 7.0]",False,229.39163540001027,232.09518770000432,232.09518770000432,233.32686070003547,['space'],1,3.257902366691269,4.287398466723971,None,1,None,1,[0.2553333999821916],,,,,,,nfsmrp,001,fr,0,0,2022-06-21_16h44.46.818,Cluster,2022.1.1,None,
,,,,0,0,0,0,3,0,3,0,,,none,,,,,,,,,,,,,,,,,,,,,,,,,,,,,,,,,,,,,,,,,,,,,,,,,,,,,,,,,,,,,,,,,,,,,,,,,,,,,,,,,,,,,,,,,,,,,,,,,,,,,,,,,,,,,,,,,,,233.73026400001254,None,,,,,"[0.47981987025021233, 0.7401007526659871, 0.6103869255883723, 0.7244381355897522]","[1707.640075046152, 616.1286754535897, 371.71667894331665, 2986.3512772941067]",None,"[6.0, 12.43619861205731, 10.0, 7.725845229991597]",True,234.75166589999571,237.60019909997936,237.60019909997936,238.83266890002415,['space'],0,3.5886169667355716,4.6094110667472705,None,1,None,1,[0.21900869999080896],0,,,,,,nfsmrp,001,fr,0,0,2022-06-21_16h44.46.818,Cluster,2022.1.1,None,
,,,,0,0,0,0,4,0,4,0,,,none,,,,,,,,,,,,,,,,,,,,,,,,,,,,,,,,,,,,,,,,,,,,,,,,,,,,,,,,,,,,,,,,,,,,,,,,,,,,,,,,,,,,,,,,,,,,,,,,,,,,,,,,,,,,,,,,,,,239.39826059993356,None,353.5533905932738,2.0,0.0001115563142959358,0,"[0.7672686075246815, 0.5288478414892709, 0.5194540304315263, 0.7723503866718393]","[676.4648317518279, 348.9840552371544, 158.3906251981527, 3145.691854529593]",None,"[12.374164758239809, 9.0, 6.0, 7.0]",False,240.41110130003653,243.26183740003034,243.26183740003034,244.4960570000112,None,0,3.617151933372952,4.641883933451027,None,1,['space'],0,,,[0.5032384999794886],,,,,nfsmrp,001,fr,0,0,2022-06-21_16h44.46.818,Cluster,2022.1.1,None,
,,,,0,0,0,0,5,0,5,0,,,both,,,,,,,,,,,,,,,,,,,,,,,,,,,,,,,,,,,,,,,,,,,,,,,,,,,,,,,,,,,,,,,,,,,,,,,,,,,,,,,,,,,,,,,,,,,,,,,,,,,,,,,,,,,,,,,,,,,245.09204559994396,None,538.296856518851,6.543365251228744,0.00013906347734287503,1,"[0.4986740469689286, 0.4986740469689286, 0.4986740469689286, 0.4986740469689286]","[213.6232490772998, 269.14842825942554, 339.1057703101704, 427.2464981545995]",Major_3rd,"[2.4140431281402135, 3.523597500375282, 8.0, 12.0]",False,246.08482180000283,248.61571709997952,248.61571709997952,249.83358869992662,['space'],1,3.017939266632311,4.050139366649091,None,1,None,1,[0.3289305999642238],,,,,,,nfsmrp,001,fr,0,0,2022-06-21_16h44.46.818,Cluster,2022.1.1,None,
,,,,0,0,0,0,6,0,6,0,,,both,,,,,,,,,,,,,,,,,,,,,,,,,,,,,,,,,,,,,,,,,,,,,,,,,,,,,,,,,,,,,,,,,,,,,,,,,,,,,,,,,,,,,,,,,,,,,,,,,,,,,,,,,,,,,,,,,,,250.17349630000535,None,8000.0,1.0,0.0002036901389020564,0,"[0.4002477760606425, 0.4002477760606425, 0.4002477760606425, 0.4002477760606425]","[3174.8021039364003, 4000.0000000000014, 5039.684199579494, 6349.604207872799]",Major_3rd,"[7.0, 5.217880866515777, 6.0, 8.0]",False,251.59875180001836,253.8412638999289,253.8412638999289,255.0723830999341,None,0,2.6291780666215345,3.6448289665859193,None,1,None,1,,,,,,,,nfsmrp,001,fr,0,0,2022-06-21_16h44.46.818,Cluster,2022.1.1,None,
,,,,0,0,0,0,7,0,7,0,,,time,,,,,,,,,,,,,,,,,,,,,,,,,,,,,,,,,,,,,,,,,,,,,,,,,,,,,,,,,,,,,,,,,,,,,,,,,,,,,,,,,,,,,,,,,,,,,,,,,,,,,,,,,,,,,,,,,,,255.2896233999636,None,,,,,"[0.5382904743678676, 0.5382904743678676, 0.5382904743678676, 0.5382904743678676]","[243.642813302841, 191.22214777263457, 1264.228451942053, 3889.3909274732173]",None,"[2.7189213988014735, 3.6015323171227767, 6.0, 5.217880866515777]",True,256.297683199984,258.9427415999817,258.9427415999817,260.1685568999965,None,1,3.1916116666980088,4.232563066645525,None,1,None,1,,0,,,,,,nfsmrp,001,fr,0,0,2022-06-21_16h44.46.818,Cluster,2022.1.1,None,
,,,,0,0,0,0,8,0,8,0,,,time,,,,,,,,,,,,,,,,,,,,,,,,,,,,,,,,,,,,,,,,,,,,,,,,,,,,,,,,,,,,,,,,,,,,,,,,,,,,,,,,,,,,,,,,,,,,,,,,,,,,,,,,,,,,,,,,,,,260.56047689996194,None,462.6644395395157,6.403272966353022,0.00015331269471392176,1,"[0.5209574228289965, 0.5209574228289965, 0.5209574228289965, 0.5209574228289965]","[2579.1101863410586, 167.29095054287822, 186.34190196592522, 687.7774572819011]",None,"[8.71248236914871, 5.504814901485191, 4.0, 12.264078453096529]",False,261.5655160000315,264.1558386000106,264.1558386000106,265.3813234999543,['space'],1,3.116331566707231,4.150304966722615,None,1,None,1,[0.2925869000609964],,,,,,,nfsmrp,001,fr,0,0,2022-06-21_16h44.46.818,Cluster,2022.1.1,None,
,,,,0,0,0,0,9,0,9,0,,,none,,,,,,,,,,,,,,,,,,,,,,,,,,,,,,,,,,,,,,,,,,,,,,,,,,,,,,,,,,,,,,,,,,,,,,,,,,,,,,,,,,,,,,,,,,,,,,,,,,,,,,,,,,,,,,,,,,,265.75482149992604,None,1352.9116236164145,-0.5802164639248147,4.859710435422932e-05,0,"[0.40828955315876453, 0.7885338415650284, 0.4912672921750317, 0.6120558800100189]","[300.7557830215502, 218.00847314128634, 6156.214973915581, 1707.5598639979585]",None,"[6.0, 2.4140431281402135, 7.665899311942048, 6.0]",False,266.753921699943,269.4839575999649,269.4839575999649,270.70063800003845,None,0,3.3240783667424694,4.35007666668389,None,1,None,1,,,,,,,,nfsmrp,001,fr,0,0,2022-06-21_16h44.46.818,Cluster,2022.1.1,None,
,,,,0,0,0,0,10,0,10,0,,,none,,,,,,,,,,,,,,,,,,,,,,,,,,,,,,,,,,,,,,,,,,,,,,,,,,,,,,,,,,,,,,,,,,,,,,,,,,,,,,,,,,,,,,,,,,,,,,,,,,,,,,,,,,,,,,,,,,,271.14357770001516,None,8000.0,3.0,0.0002564306919956826,1,"[0.46450154304724656, 0.5416390146650142, 0.43574549847018806, 0.6960430238997162]","[4307.331744496326, 6802.021592584429, 356.8046173654496, 608.976013574192]",None,"[5.105671826033465, 8.580840414865701, 9.111763019987018, 12.43619861205731]",False,272.6354105999926,275.09602689999156,275.09602689999156,276.30720549996477,['space'],1,3.163257533335127,4.176772033330053,None,1,None,1,[0.45960569998715073],,,,,,,nfsmrp,001,fr,0,0,2022-06-21_16h44.46.818,Cluster,2022.1.1,None,
,,,,0,0,0,0,11,0,11,0,,,frequency,,,,,,,,,,,,,,,,,,,,,,,,,,,,,,,,,,,,,,,,,,,,,,,,,,,,,,,,,,,,,,,,,,,,,,,,,,,,,,,,,,,,,,,,,,,,,,,,,,,,,,,,,,,,,,,,,,,276.84880489995703,None,,,,,"[0.583613067945087, 0.582750388440894, 0.7244222526003669, 0.4556436618715221]","[2710.981988866823, 2151.707830497018, 1707.8116368295896, 1355.4909944334115]",Major_3rd,"[8.71248236914871, 8.199389784623765, 6.0, 5.419783536075185]",True,277.8534806999378,280.78354690002743,280.78354690002743,282.0176259999862,None,1,3.379782066680491,4.403679866692983,None,1,None,1,,0,,,,,,nfsmrp,001,fr,0,0,2022-06-21_16h44.46.818,Cluster,2022.1.1,None,
,,,,0,0,0,0,12,0,12,0,,,time,,,,,,,,,,,,,,,,,,,,,,,,,,,,,,,,,,,,,,,,,,,,,,,,,,,,,,,,,,,,,,,,,,,,,,,,,,,,,,,,,,,,,,,,,,,,,,,,,,,,,,,,,,,,,,,,,,,282.2958584999433,None,329.87697769322364,1.0,0.00010632127908437066,1,"[0.7099338652954904, 0.7099338652954904, 0.7099338652954904, 0.7099338652954904]","[126.3702240141374, 344.64162140241694, 6353.157115727774, 404.8271051350954]",None,"[8.336059618646484, 9.0, 8.0, 11.373333354359222]",False,283.3659116999479,286.5224739999976,286.5224739999976,287.7475406000158,['space'],1,3.849350633332506,4.88225303334184,None,1,None,1,[0.308292799978517],,,,,,,nfsmrp,001,fr,0,0,2022-06-21_16h44.46.818,Cluster,2022.1.1,None,
,,,,0,0,0,0,13,0,13,0,,,time,,,,,,,,,,,,,,,,,,,,,,,,,,,,,,,,,,,,,,,,,,,,,,,,,,,,,,,,,,,,,,,,,,,,,,,,,,,,,,,,,,,,,,,,,,,,,,,,,,,,,,,,,,,,,,,,,,,288.2904426000314,None,985.3549206739843,3.049049531369052,6.198683106956774e-05,0,"[0.6634802176723267, 0.6634802176723267, 0.6634802176723267, 0.6634802176723267]","[179.2508746310638, 259.96763730806924, 384.9411594211718, 2257.7600956131105]",None,"[4.523954383956677, 3.0, 10.386860652875287, 8.629370669639023]",False,289.2971666000085,292.3071376000298,292.3071376000298,293.51991189992987,None,0,3.6738416666630656,4.70277786673978,None,1,None,1,,,,,,,,nfsmrp,001,fr,0,0,2022-06-21_16h44.46.818,Cluster,2022.1.1,None,
,,,,0,0,0,0,14,0,14,0,,,both,,,,,,,,,,,,,,,,,,,,,,,,,,,,,,,,,,,,,,,,,,,,,,,,,,,,,,,,,,,,,,,,,,,,,,,,,,,,,,,,,,,,,,,,,,,,,,,,,,,,,,,,,,,,,,,,,,,294.0430137999356,None,6110.697719513501,1.6658993119420478,0.00014668685101255178,1,"[0.7029390071373642, 0.7029390071373642, 0.7029390071373642, 0.7029390071373642]","[2425.0319970538535, 3055.3488597567516, 3849.4983431798296, 4850.063994107705]",Major_3rd,"[8.812406925636111, 7.725845229991597, 5.61341503639132, 5.72713630682007]",False,295.0412990000332,298.17786099994555,298.17786099994555,299.41942389996257,['space'],1,3.838456366676837,4.858155866735615,None,1,None,1,[0.33359100006055087],,,,,,,nfsmrp,001,fr,0,0,2022-06-21_16h44.46.818,Cluster,2022.1.1,None,
,,,,0,0,0,0,15,0,15,0,,,none,,,,,,,,,,,,,,,,,,,,,,,,,,,,,,,,,,,,,,,,,,,,,,,,,,,,,,,,,,,,,,,,,,,,,,,,,,,,,,,,,,,,,,,,,,,,,,,,,,,,,,,,,,,,,,,,,,,299.9427746000001,None,,,,,"[0.49870031091540173, 0.6040048963889415, 0.761843322392902, 0.6851895252431537]","[1808.0652919783904, 614.2701380899967, 301.58750332648884, 368.14956390666987]",None,"[6.862369257319694, 12.43619861205731, 6.0, 10.0]",True,300.95007649995387,303.8461954999948,303.8461954999948,305.08559949998744,None,1,3.567302666720934,4.602100066724233,None,1,None,1,,0,,,,,,nfsmrp,001,fr,0,0,2022-06-21_16h44.46.818,Cluster,2022.1.1,None,
,,,,0,0,0,0,16,0,16,0,,,time,,,,,,,,,,,,,,,,,,,,,,,,,,,,,,,,,,,,,,,,,,,,,,,,,,,,,,,,,,,,,,,,,,,,,,,,,,,,,,,,,,,,,,,,,,,,,,,,,,,,,,,,,,,,,,,,,,,305.5914783999324,None,8000.0,1.0,0.0002036901389020564,1,"[0.6300828705129873, 0.6300828705129873, 0.6300828705129873, 0.6300828705129873]","[242.5131465467952, 3142.0923296893648, 352.3650243917974, 7052.854934388735]",None,"[2.7189213988014735, 7.0, 9.0, 8.580840414865701]",False,306.6104892999865,309.5361143000191,309.5361143000191,310.7641714999918,['space'],1,3.544334033387713,4.565288333338685,None,1,None,1,[0.6319865999976173],,,,,,,nfsmrp,001,fr,0,0,2022-06-21_16h44.46.818,Cluster,2022.1.1,None,
,,,,0,0,0,0,17,0,17,0,,,time,,,,,,,,,,,,,,,,,,,,,,,,,,,,,,,,,,,,,,,,,,,,,,,,,,,,,,,,,,,,,,,,,,,,,,,,,,,,,,,,,,,,,,,,,,,,,,,,,,,,,,,,,,,,,,,,,,,311.21478489995934,None,290.7457356978467,-1.0,0.00011079703848742703,1,"[0.4035074234422546, 0.4035074234422546, 0.4035074234422546, 0.4035074234422546]","[5346.720114412024, 2606.0619725683246, 7163.442505329777, 2428.107458123799]",None,"[6.347451680331581, 8.71248236914871, 8.580840414865701, 8.812406925636111]",False,312.2426073999377,314.48098300001584,314.48098300001584,315.6963170999661,['space'],1,2.651191766606644,3.676799266715534,None,1,None,1,[0.3926907000131905],,,,,,,nfsmrp,001,fr,0,0,2022-06-21_16h44.46.818,Cluster,2022.1.1,None,
,,,,0,0,0,0,18,0,18,0,,,none,,,,,,,,,,,,,,,,,,,,,,,,,,,,,,,,,,,,,,,,,,,,,,,,,,,,,,,,,,,,,,,,,,,,,,,,,,,,,,,,,,,,,,,,,,,,,,,,,,,,,,,,,,,,,,,,,,,315.9572635999648,None,460.3287532910163,6.403272966353022,0.00015356213778419125,1,"[0.5886255988256249, 0.6822392309786551, 0.7012426205091012, 0.6590970009057913]","[1574.1395763527398, 760.1401663130667, 6779.234582704648, 320.7941024488529]",None,"[5.58640812440147, 12.0, 8.580840414865701, 7.0]",False,316.9786187999416,319.98605369997676,319.98605369997676,321.20242859993596,['space'],1,3.655186166637577,4.684344366658479,None,1,None,1,[0.27574620000086725],,,,,,,nfsmrp,001,fr,0,0,2022-06-21_16h44.46.818,Cluster,2022.1.1,None,
,,,,0,0,0,0,19,0,19,0,,,both,,,,,,,,,,,,,,,,,,,,,,,,,,,,,,,,,,,,,,,,,,,,,,,,,,,,,,,,,,,,,,,,,,,,,,,,,,,,,,,,,,,,,,,,,,,,,,,,,,,,,,,,,,,,,,,,,,,321.70572480000556,None,2462.2888266898335,1.0,9.543828998156852e-05,1,"[0.5486079704293304, 0.5486079704293304, 0.5486079704293304, 0.5486079704293304]","[3908.639873736986, 3482.202253184498, 3102.289523667471, 2763.8257599355534]",Tone,"[5.217880866515777, 6.249301591637303, 7.725845229991597, 8.33985994771843]",False,322.73431540001184,325.40551119996235,325.40551119996235,326.6411931000184,['space'],1,3.226466766791418,4.270812266739085,None,1,None,1,[0.24092220002785325],,,,,,,nfsmrp,001,fr,0,0,2022-06-21_16h44.46.818,Cluster,2022.1.1,None,
,,,,1,0,1,0,0,0,0,0,,,frequency,,,,,,,,,,,,,,,,,,,,,,,,,,,,,,,,,,,,,,,,,,,,,,,,,,,,,,,,,,,,,,,,,,,,,,,,,,,,,,,,,,,,,,,,,,,,,,,,,,,,,,,,,,,,,,,,,,,339.34151629998814,None,,,,,"[0.45428781071260094, 0.4883780673149277, 0.4284482278005952, 0.7637180940224161]","[1425.4075380828422, 1269.893748505581, 1131.3467127180525, 1007.9153361327997]",Tone,"[5.159676622472672, 6.0, 7.0, 9.0]",True,340.3399631000357,342.75387250003405,342.75387250003405,343.9962605999317,None,1,3.1520284668076783,4.188217366696335,None,1,None,1,,0,,,,,,nfsmrp,001,fr,0,0,2022-06-21_16h44.46.818,Cluster,2022.1.1,None,
,,,,1,0,1,0,1,0,1,0,,,frequency,,,,,,,,,,,,,,,,,,,,,,,,,,,,,,,,,,,,,,,,,,,,,,,,,,,,,,,,,,,,,,,,,,,,,,,,,,,,,,,,,,,,,,,,,,,,,,,,,,,,,,,,,,,,,,,,,,,344.56310969998594,None,386.05186013916773,4.386860652875287,0.00013285697515841584,1,"[0.5734655760612181, 0.5702051221457236, 0.6534022146727516, 0.7981858221879167]","[153.2047822247988, 193.0259300695839, 243.1974324702045, 306.40956444959755]",Major_3rd,"[6.440830814488993, 3.6015323171227767, 2.7189213988014735, 6.0]",False,345.5793980000308,348.4051105999388,348.4051105999388,349.63562810001895,['space'],1,3.6216407667379826,4.651864766725339,None,1,None,1,[0.3798644000198692],,,,,,,nfsmrp,001,fr,0,0,2022-06-21_16h44.46.818,Cluster,2022.1.1,None,
,,,,1,0,1,0,2,0,2,0,,,time,,,,,,,,,,,,,,,,,,,,,,,,,,,,,,,,,,,,,,,,,,,,,,,,,,,,,,,,,,,,,,,,,,,,,,,,,,,,,,,,,,,,,,,,,,,,,,,,,,,,,,,,,,,,,,,,,,,350.2741631999379,None,2462.2888266898335,0.0,8.505946547995337e-05,1,"[0.4253864005801971, 0.4253864005801971, 0.4253864005801971, 0.4253864005801971]","[165.3684181898507, 693.4795444398522, 3684.7029772281976, 1601.2370816937607]",None,"[5.504814901485191, 12.264078453096529, 5.61341503639132, 5.58640812440147]",False,351.30043669999577,353.60601889993995,353.60601889993995,354.83592929993756,['space'],1,2.7070108666084707,3.7426187666133046,None,1,None,1,[0.4251351000275463],,,,,,,nfsmrp,001,fr,0,0,2022-06-21_16h44.46.818,Cluster,2022.1.1,None,
,,,,1,0,1,0,3,0,3,0,,,none,,,,,,,,,,,,,,,,,,,,,,,,,,,,,,,,,,,,,,,,,,,,,,,,,,,,,,,,,,,,,,,,,,,,,,,,,,,,,,,,,,,,,,,,,,,,,,,,,,,,,,,,,,,,,,,,,,,355.09193310001865,None,4594.793419988137,1.0,0.0001401013622855946,1,"[0.7010754714396383, 0.7882077334767138, 0.6512651062753909, 0.42609507881081793]","[325.6548746373712, 199.92376942619202, 1905.2900201779041, 1680.018722284629]",None,"[7.6392326970469115, 3.0, 7.0, 6.0]",False,356.1057987000095,359.27601939998567,359.27601939998567,360.52004760003183,['space'],1,3.597549866652116,4.626238766708411,None,1,None,1,[0.3131960000609979],,,,,,,nfsmrp,001,fr,0,0,2022-06-21_16h44.46.818,Cluster,2022.1.1,None,
,,,,1,0,1,0,4,0,4,0,,,time,,,,,,,,,,,,,,,,,,,,,,,,,,,,,,,,,,,,,,,,,,,,,,,,,,,,,,,,,,,,,,,,,,,,,,,,,,,,,,,,,,,,,,,,,,,,,,,,,,,,,,,,,,,,,,,,,,,360.7930033999728,None,,,,,"[0.7441433003101711, 0.7441433003101711, 0.7441433003101711, 0.7441433003101711]","[691.3772617972122, 3526.7133302993802, 3185.392081918078, 800.112983424183]",None,"[12.264078453096529, 6.249301591637303, 7.0, 11.612439159137557]",True,361.79511790000834,365.055464199977,365.055464199977,366.2827081999276,None,1,4.021063666907139,5.060508366907015,None,1,None,1,,0,,,,,,nfsmrp,001,fr,0,0,2022-06-21_16h44.46.818,Cluster,2022.1.1,None,
,,,,1,0,1,0,5,0,5,0,,,none,,,,,,,,,,,,,,,,,,,,,,,,,,,,,,,,,,,,,,,,,,,,,,,,,,,,,,,,,,,,,,,,,,,,,,,,,,,,,,,,,,,,,,,,,,,,,,,,,,,,,,,,,,,,,,,,,,,366.8911594999954,None,719.7424303738516,6.264078453096529,8.905136907390909e-05,1,"[0.518931732545871, 0.6696986542379796, 0.6009665549058881, 0.7939694546885523]","[321.0824503838217, 4968.031608258837, 2147.1312563679594, 1151.056581920002]",None,"[7.0, 5.72713630682007, 8.199389784623765, 6.881873475493382]",False,367.90158449998125,370.7278558999533,370.7278558999533,371.9549072999507,['space'],1,3.6188805667916313,4.657159966765903,None,1,None,1,[0.2217849000589922],,,,,,,nfsmrp,001,fr,0,0,2022-06-21_16h44.46.818,Cluster,2022.1.1,None,
,,,,1,0,1,0,6,0,6,0,,,both,,,,,,,,,,,,,,,,,,,,,,,,,,,,,,,,,,,,,,,,,,,,,,,,,,,,,,,,,,,,,,,,,,,,,,,,,,,,,,,,,,,,,,,,,,,,,,,,,,,,,,,,,,,,,,,,,,,372.603197599994,None,1642.9438520580156,-0.41359187559852983,5.596048563894747e-05,0,"[0.6155961404976718, 0.6155961404976718, 0.6155961404976718, 0.6155961404976718]","[1034.989771501631, 1161.7367388989705, 1304.0053995407898, 1463.6965717750372]",Tone,"[9.0, 6.881873475493382, 5.419783536075185, 5.159676622472672]",False,373.60806180001236,376.4893298000097,376.4893298000097,377.72700509999413,None,0,3.4849158668657765,4.505496866768226,None,1,None,1,,,,,,,,nfsmrp,001,fr,0,0,2022-06-21_16h44.46.818,Cluster,2022.1.1,None,
,,,,1,0,1,0,7,0,7,0,,,time,,,,,,,,,,,,,,,,,,,,,,,,,,,,,,,,,,,,,,,,,,,,,,,,,,,,,,,,,,,,,,,,,,,,,,,,,,,,,,,,,,,,,,,,,,,,,,,,,,,,,,,,,,,,,,,,,,,378.1576183999423,None,1308.23605289652,-0.5802164639248147,4.9634581835739696e-05,0,"[0.42802815359696483, 0.42802815359696483, 0.42802815359696483, 0.42802815359696483]","[3753.726156474118, 973.6323916428156, 3359.6815080069123, 6786.71470015074]",None,"[5.61341503639132, 9.049049531369052, 6.992450636195946, 8.580840414865701]",False,379.17869069997687,381.49777280003764,381.49777280003764,382.7334792999318,None,0,2.7521687666885555,3.782925466657616,None,1,None,1,,,,,,,,nfsmrp,001,fr,0,0,2022-06-21_16h44.46.818,Cluster,2022.1.1,None,
,,,,1,0,1,0,8,0,8,0,,,frequency,,,,,,,,,,,,,,,,,,,,,,,,,,,,,,,,,,,,,,,,,,,,,,,,,,,,,,,,,,,,,,,,,,,,,,,,,,,,,,,,,,,,,,,,,,,,,,,,,,,,,,,,,,,,,,,,,,,383.0015490000369,None,,,,,"[0.43974204350163854, 0.4664040517670063, 0.5922051622101084, 0.6713155632694131]","[1627.6259274475347, 1826.9483324042028, 2050.680167345815, 2301.8106610663913]",Tone,"[5.58640812440147, 6.862369257319694, 8.0, 8.629370669639023]",True,384.0050656000385,386.5398028999334,386.5398028999334,387.7715541999787,None,1,3.2069955667247996,4.226311266655102,None,1,None,1,,0,,,,,,nfsmrp,001,fr,0,0,2022-06-21_16h44.46.818,Cluster,2022.1.1,None,
,,,,1,0,1,0,9,0,9,0,,,both,,,,,,,,,,,,,,,,,,,,,,,,,,,,,,,,,,,,,,,,,,,,,,,,,,,,,,,,,,,,,,,,,,,,,,,,,,,,,,,,,,,,,,,,,,,,,,,,,,,,,,,,,,,,,,,,,,,388.26400259998627,None,233.2582478842019,1.0,0.0002247212150770772,1,"[0.5474731716439043, 0.5474731716439043, 0.5474731716439043, 0.5474731716439043]","[146.94348828545108, 164.9384888466118, 185.13719403582056, 207.80947403569698]",Tone,"[7.0, 5.504814901485191, 4.0, 2.8596761437836795]",False,389.30278799997177,391.95714189996943,391.95714189996943,393.1771670000162,['space'],1,3.200686866766773,4.22931336669717,None,1,None,1,[0.24117000005207956],,,,,,,nfsmrp,001,fr,0,0,2022-06-21_16h44.46.818,Cluster,2022.1.1,None,
,,,,1,0,1,0,10,0,10,0,,,both,,,,,,,,,,,,,,,,,,,,,,,,,,,,,,,,,,,,,,,,,,,,,,,,,,,,,,,,,,,,,,,,,,,,,,,,,,,,,,,,,,,,,,,,,,,,,,,,,,,,,,,,,,,,,,,,,,,393.5831005999353,None,3813.7465086128154,-0.38658496360868005,7.715898609118829e-05,1,"[0.6318835924206326, 0.6318835924206326, 0.6318835924206326, 0.6318835924206326]","[6053.945219712032, 5393.452035933284, 4805.019505164366, 4280.785717790261]",Tone,"[7.665899311942048, 6.347451680331581, 5.72713630682007, 5.105671826033465]",False,394.59884679992683,397.51490870001726,397.51490870001726,398.7505481999833,['space'],1,3.5500535666942596,4.585887866676785,None,1,None,1,[0.33582339994609356],,,,,,,nfsmrp,001,fr,0,0,2022-06-21_16h44.46.818,Cluster,2022.1.1,None,
,,,,1,0,1,0,11,0,11,0,,,time,,,,,,,,,,,,,,,,,,,,,,,,,,,,,,,,,,,,,,,,,,,,,,,,,,,,,,,,,,,,,,,,,,,,,,,,,,,,,,,,,,,,,,,,,,,,,,,,,,,,,,,,,,,,,,,,,,,399.2320379000157,None,4594.793419988137,-1.0,0.0001112864677867834,1,"[0.40414051262822526, 0.40414051262822526, 0.40414051262822526, 0.40414051262822526]","[7959.121726275514, 202.5605255582527, 420.62991762362964, 216.17239355779333]",None,"[8.864617032170457, 2.8596761437836795, 12.0, 2.4140431281402135]",False,400.24761700001545,402.48639269999694,402.48639269999694,403.72117359994445,['space'],1,2.6268046668265015,3.6426067667780444,None,1,None,1,[0.36609599995426834],,,,,,,nfsmrp,001,fr,0,0,2022-06-21_16h44.46.818,Cluster,2022.1.1,None,
,,,,1,0,1,0,12,0,12,0,,,frequency,,,,,,,,,,,,,,,,,,,,,,,,,,,,,,,,,,,,,,,,,,,,,,,,,,,,,,,,,,,,,,,,,,,,,,,,,,,,,,,,,,,,,,,,,,,,,,,,,,,,,,,,,,,,,,,,,,,403.9416581999976,None,,,,,"[0.7048561106261311, 0.594556761284222, 0.6645433531122411, 0.6108446951120099]","[398.16566607443235, 596.5744352486396, 893.8516982167463, 1339.2643251163909]",Perfect_5th,"[11.0, 12.43619861205731, 10.963408096870712, 5.419783536075185]",True,404.94015829998534,407.941390199936,407.941390199936,409.15915490000043,None,1,3.6202587666921318,4.6360205666860566,None,1,None,1,,0,,,,,,nfsmrp,001,fr,0,0,2022-06-21_16h44.46.818,Cluster,2022.1.1,None,
,,,,1,0,1,0,13,0,13,0,,,none,,,,,,,,,,,,,,,,,,,,,,,,,,,,,,,,,,,,,,,,,,,,,,,,,,,,,,,,,,,,,,,,,,,,,,,,,,,,,,,,,,,,,,,,,,,,,,,,,,,,,,,,,,,,,,,,,,,409.6144190999912,None,2462.2888266898335,1.0,9.543828998156852e-05,1,"[0.7294929575648413, 0.7062895116180614, 0.4952628971220172, 0.49170649199188987]","[4127.162087586884, 827.0766304757137, 1192.5292169474362, 963.6490357623346]",None,"[5.217880866515777, 11.612439159137557, 6.014686025405318, 10.0]",False,410.6342978000175,413.58436480001546,413.58436480001546,414.7991064999951,['space'],1,3.463092233170755,4.493174333241768,None,1,None,1,[0.3767269999952987],,,,,,,nfsmrp,001,fr,0,0,2022-06-21_16h44.46.818,Cluster,2022.1.1,None,
,,,,1,0,1,0,14,0,14,0,,,none,,,,,,,,,,,,,,,,,,,,,,,,,,,,,,,,,,,,,,,,,,,,,,,,,,,,,,,,,,,,,,,,,,,,,,,,,,,,,,,,,,,,,,,,,,,,,,,,,,,,,,,,,,,,,,,,,,,415.17416329996195,None,280.50945096980024,-2.0,0.00010736198698939899,1,"[0.5065130676541243, 0.7212618094524429, 0.4489392463064666, 0.4319707723252235]","[2765.3731566759807, 317.9282698011909, 258.1163906530609, 4821.345581271709]",None,"[8.33985994771843, 7.0, 3.0, 5.72713630682007]",False,416.1714786000084,418.8789917000104,418.8789917000104,420.1093086999608,['space'],1,3.131284366711043,4.168907966814004,None,1,None,1,[0.3593917000107467],,,,,,,nfsmrp,001,fr,0,0,2022-06-21_16h44.46.818,Cluster,2022.1.1,None,
,,,,1,0,1,0,15,0,15,0,,,both,,,,,,,,,,,,,,,,,,,,,,,,,,,,,,,,,,,,,,,,,,,,,,,,,,,,,,,,,,,,,,,,,,,,,,,,,,,,,,,,,,,,,,,,,,,,,,,,,,,,,,,,,,,,,,,,,,,420.3991553999949,None,615.5722066724584,0.0,5.34153907348926e-05,0,"[0.5756028084372773, 0.5756028084372773, 0.5756028084372773, 0.5756028084372773]","[1551.1447618337352, 1231.1444133449168, 977.1599684342464, 775.5723809168676]",Major_3rd,"[5.229957997039526, 6.014686025405318, 9.049049531369052, 12.0]",False,421.47129130002577,424.22503820003476,424.22503820003476,425.4423117999686,None,0,3.3254118332406506,4.349353033234365,None,1,None,1,,,,,,,,nfsmrp,001,fr,0,0,2022-06-21_16h44.46.818,Cluster,2022.1.1,None,
,,,,1,0,1,0,16,0,16,0,,,both,,,,,,,,,,,,,,,,,,,,,,,,,,,,,,,,,,,,,,,,,,,,,,,,,,,,,,,,,,,,,,,,,,,,,,,,,,,,,,,,,,,,,,,,,,,,,,,,,,,,,,,,,,,,,,,,,,,425.8660343999509,None,366.69662835599803,4.0,0.0001350332607072731,1,"[0.4473231024309041, 0.4473231024309041, 0.4473231024309041, 0.4473231024309041]","[582.0946136055032, 518.5873450975389, 462.00880099119917, 411.60304857261445]",Tone,"[12.492993717878832, 12.543365251228744, 12.403272966353022, 11.373333354359222]",False,426.86500160000287,429.24724860000424,429.24724860000424,430.4820264999289,['space'],1,2.8244077666895464,3.8655759666580707,None,1,None,1,[0.24388149997685105],,,,,,,nfsmrp,001,fr,0,0,2022-06-21_16h44.46.818,Cluster,2022.1.1,None,
,,,,1,0,1,0,17,0,17,0,,,both,,,,,,,,,,,,,,,,,,,,,,,,,,,,,,,,,,,,,,,,,,,,,,,,,,,,,,,,,,,,,,,,,,,,,,,,,,,,,,,,,,,,,,,,,,,,,,,,,,,,,,,,,,,,,,,,,,,430.77258640003856,None,125.0,3.0,0.001020868972334765,1,"[0.7486409821624834, 0.7486409821624834, 0.7486409821624834, 0.7486409821624834]","[198.42513149602502, 176.77669529663694, 157.49013123685918, 140.30775603867164]",Tone,"[3.0, 4.523954383956677, 6.0, 7.25280808554968]",False,432.30218080000486,435.584287900012,435.584287900012,436.82206259993836,['space'],1,4.03423786663916,5.051443666685373,None,1,None,1,[0.4131267999764532],,,,,,,nfsmrp,001,fr,0,0,2022-06-21_16h44.46.818,Cluster,2022.1.1,None,
,,,,1,0,1,0,18,0,18,0,,,time,,,,,,,,,,,,,,,,,,,,,,,,,,,,,,,,,,,,,,,,,,,,,,,,,,,,,,,,,,,,,,,,,,,,,,,,,,,,,,,,,,,,,,,,,,,,,,,,,,,,,,,,,,,,,,,,,,,437.3979222000344,None,,,,,"[0.7877604262243414, 0.7877604262243414, 0.7877604262243414, 0.7877604262243414]","[2807.0292857192608, 1310.894471347767, 441.50676080772837, 400.41502076310235]",None,"[8.33985994771843, 5.419783536075185, 12.033165800560354, 11.0]",True,438.4017527999822,441.8049445999786,441.8049445999786,443.0280266000191,None,1,4.1926911666523665,5.226089466712438,None,1,None,1,,0,,,,,,nfsmrp,001,fr,0,0,2022-06-21_16h44.46.818,Cluster,2022.1.1,None,
,,,,1,0,1,0,19,0,19,0,,,frequency,,,,,,,,,,,,,,,,,,,,,,,,,,,,,,,,,,,,,,,,,,,,,,,,,,,,,,,,,,,,,,,,,,,,,,,,,,,,,,,,,,,,,,,,,,,,,,,,,,,,,,,,,,,,,,,,,,,443.67022550001275,None,8000.0,1.0,0.0002036901389020564,0,"[0.6098408281472798, 0.42636644926867284, 0.7085504692138671, 0.6323137240421973]","[5039.684199579492, 5656.8542494923795, 6349.604207872798, 7127.189745122714]",Tone,"[6.0, 7.0267508366060865, 8.0, 8.580840414865701]",False,444.7058307999978,447.4738646999467,447.4738646999467,448.6990120999981,None,0,3.3798254667781293,4.3993019667686895,None,1,None,1,,,,,,,,nfsmrp,001,fr,0,0,2022-06-21_16h44.46.818,Cluster,2022.1.1,None,
,,,,2,0,2,0,0,0,0,0,,,none,,,,,,,,,,,,,,,,,,,,,,,,,,,,,,,,,,,,,,,,,,,,,,,,,,,,,,,,,,,,,,,,,,,,,,,,,,,,,,,,,,,,,,,,,,,,,,,,,,,,,,,,,,,,,,,,,,,458.14502679998986,None,307.7861033362292,0.0,0.00010626360360927124,1,"[0.625235135485968, 0.6436684429480427, 0.6607018484180179, 0.7275682454395123]","[545.7392727083233, 187.9877817383382, 737.1420936923433, 373.44118345895913]",None,"[12.543365251228744, 3.6015323171227767, 12.030931211648069, 10.0]",False,459.142055699951,462.0967263999628,462.0967263999628,463.31595930003095,['space'],1,3.660159866674803,4.682197166723199,None,1,None,1,[0.36577260005287826],,,,,,,nfsmrp,001,fr,0,0,2022-06-21_16h44.46.818,Cluster,2022.1.1,None,
,,,,2,0,2,0,1,0,1,0,,,none,,,,,,,,,,,,,,,,,,,,,,,,,,,,,,,,,,,,,,,,,,,,,,,,,,,,,,,,,,,,,,,,,,,,,,,,,,,,,,,,,,,,,,,,,,,,,,,,,,,,,,,,,,,,,,,,,,,463.87229800003115,None,337.08246447986255,2.0,0.00011693947987250133,1,"[0.7007263290665205, 0.5926387261867616, 0.6662049239228789, 0.46448867307871]","[361.18068990650124, 1481.005240699602, 7952.160255521907, 272.14930373865076]",None,"[9.111763019987018, 5.229957997039526, 8.864617032170457, 4.0]",False,464.8983099999605,467.8871265000198,467.8871265000198,469.1188939999556,['space'],1,3.454146566684358,4.4905973667046055,None,1,None,1,[0.3657008999725804],,,,,,,nfsmrp,001,fr,0,0,2022-06-21_16h44.46.818,Cluster,2022.1.1,None,
,,,,2,0,2,0,2,0,2,0,,,none,,,,,,,,,,,,,,,,,,,,,,,,,,,,,,,,,,,,,,,,,,,,,,,,,,,,,,,,,,,,,,,,,,,,,,,,,,,,,,,,,,,,,,,,,,,,,,,,,,,,,,,,,,,,,,,,,,,469.4348621999379,None,125.0,3.0,0.001020868972334765,1,"[0.7256803838378256, 0.6571688236817108, 0.604598664277955, 0.7309998500723861]","[832.4113801362012, 4233.513645735356, 1850.5681090819492, 4934.751485048776]",None,"[11.612439159137557, 5.105671826033465, 6.862369257319694, 5.72713630682007]",False,471.3811213999288,474.3930215999717,474.3930215999717,475.6264368999982,['space'],1,3.7480950000463054,4.781836000038311,None,1,None,1,[0.3478033000137657],,,,,,,nfsmrp,001,fr,0,0,2022-06-21_16h44.46.818,Cluster,2022.1.1,None,
,,,,2,0,2,0,3,0,3,0,,,time,,,,,,,,,,,,,,,,,,,,,,,,,,,,,,,,,,,,,,,,,,,,,,,,,,,,,,,,,,,,,,,,,,,,,,,,,,,,,,,,,,,,,,,,,,,,,,,,,,,,,,,,,,,,,,,,,,,476.2086622000206,None,,,,,"[0.6711003522034855, 0.6711003522034855, 0.6711003522034855, 0.6711003522034855]","[511.7073042016548, 2388.181664589995, 1249.823295221061, 195.1715873960346]",None,"[12.540220128986695, 8.812406925636111, 6.0, 3.0]",True,477.21422680001706,480.26475119998213,480.26475119998213,481.486197500024,None,1,3.719822966726497,4.759117066743784,None,1,None,1,,0,,,,,,nfsmrp,001,fr,0,0,2022-06-21_16h44.46.818,Cluster,2022.1.1,None,
,,,,2,0,2,0,4,0,4,0,,,none,,,,,,,,,,,,,,,,,,,,,,,,,,,,,,,,,,,,,,,,,,,,,,,,,,,,,,,,,,,,,,,,,,,,,,,,,,,,,,,,,,,,,,,,,,,,,,,,,,,,,,,,,,,,,,,,,,,482.01429630001076,None,494.31172726234394,6.540220128986695,0.00015231554513659259,1,"[0.45894751935310785, 0.7095256206458623, 0.43882034081284393, 0.7794046762635055]","[3054.9874364798156, 1579.657954651861, 1734.2640215014762, 270.0239282117688]",None,"[7.725845229991597, 5.58640812440147, 6.172489810500375, 3.523597500375282]",False,483.01927759998944,485.6720040999353,485.6720040999353,486.9034430999309,['space'],1,3.416750166681595,4.433966966695152,None,1,None,1,[0.24159979994874448],,,,,,,nfsmrp,001,fr,0,0,2022-06-21_16h44.46.818,Cluster,2022.1.1,None,
,,,,2,0,2,0,5,0,5,0,,,time,,,,,,,,,,,,,,,,,,,,,,,,,,,,,,,,,,,,,,,,,,,,,,,,,,,,,,,,,,,,,,,,,,,,,,,,,,,,,,,,,,,,,,,,,,,,,,,,,,,,,,,,,,,,,,,,,,,487.49927229993045,None,2863.780117521439,2.339859947718431,8.285551090355987e-05,1,"[0.42901894014480774, 0.42901894014480774, 0.42901894014480774, 0.42901894014480774]","[134.98075995430517, 5064.534209370536, 5822.49574163434, 160.32493396666138]",None,"[7.882025936411902, 6.0, 7.0267508366060865, 6.0]",False,488.52480419992935,490.8454316999996,490.8454316999996,492.0794232999906,['space'],1,2.754259066656232,3.7801761666778475,None,1,None,1,[0.42343070008791983],,,,,,,nfsmrp,001,fr,0,0,2022-06-21_16h44.46.818,Cluster,2022.1.1,None,
,,,,2,0,2,0,6,0,6,0,,,time,,,,,,,,,,,,,,,,,,,,,,,,,,,,,,,,,,,,,,,,,,,,,,,,,,,,,,,,,,,,,,,,,,,,,,,,,,,,,,,,,,,,,,,,,,,,,,,,,,,,,,,,,,,,,,,,,,,492.35203349997755,None,535.8867312681471,-1.0,5.868562523083328e-05,1,"[0.7284280253853653, 0.7284280253853653, 0.7284280253853653, 0.7284280253853653]","[231.97588862404515, 737.4585459026642, 4665.705077508165, 4203.981690798777]",None,"[2.3518981835911785, 12.030931211648069, 5.291521398262874, 5.105671826033465]",False,493.86272410000674,497.0863385000266,497.0863385000266,498.3224858000176,['space'],1,3.9585643666796386,4.995532666682266,None,1,None,1,[0.353378500090912],,,,,,,nfsmrp,001,fr,0,0,2022-06-21_16h44.46.818,Cluster,2022.1.1,None,
,,,,2,0,2,0,7,0,7,0,,,both,,,,,,,,,,,,,,,,,,,,,,,,,,,,,,,,,,,,,,,,,,,,,,,,,,,,,,,,,,,,,,,,,,,,,,,,,,,,,,,,,,,,,,,,,,,,,,,,,,,,,,,,,,,,,,,,,,,498.8980882000178,None,,,,,"[0.7866574745410663, 0.7866574745410663, 0.7866574745410663, 0.7866574745410663]","[3153.5414477398112, 2809.4860333938277, 2502.9675057837476, 2229.890542449663]",Tone,"[7.0, 8.33985994771843, 8.812406925636111, 8.629370669639023]",True,499.90410479996353,503.28938159998506,503.28938159998506,504.52231110003777,['space'],0,4.187904066639021,5.213579066679813,None,1,None,1,[0.34684700006619096],0,,,,,,nfsmrp,001,fr,0,0,2022-06-21_16h44.46.818,Cluster,2022.1.1,None,
,,,,2,0,2,0,8,0,8,0,,,frequency,,,,,,,,,,,,,,,,,,,,,,,,,,,,,,,,,,,,,,,,,,,,,,,,,,,,,,,,,,,,,,,,,,,,,,,,,,,,,,,,,,,,,,,,,,,,,,,,,,,,,,,,,,,,,,,,,,,505.1530583000276,None,364.4754064100468,4.0,0.00013594718805878909,1,"[0.6146486795776551, 0.7337354453198257, 0.46859472356949844, 0.7081038617814691]","[918.4204734100136, 728.9508128200937, 578.5686435518454, 459.21023670500676]",Major_3rd,"[10.093553796726027, 12.264078453096529, 12.492993717878832, 12.403272966353022]",False,506.1800535999937,509.02939249994233,509.02939249994233,510.26582119998056,['space'],1,3.5473012666916475,4.589552266756073,None,1,None,1,[0.2709638000233099],,,,,,,nfsmrp,001,fr,0,0,2022-06-21_16h44.46.818,Cluster,2022.1.1,None,
,,,,2,0,2,0,9,0,9,0,,,none,,,,,,,,,,,,,,,,,,,,,,,,,,,,,,,,,,,,,,,,,,,,,,,,,,,,,,,,,,,,,,,,,,,,,,,,,,,,,,,,,,,,,,,,,,,,,,,,,,,,,,,,,,,,,,,,,,,510.8229863999877,None,659.7539553864473,0.0,4.855544497866433e-05,0,"[0.6108812488879529, 0.7855737579327801, 0.6917619995137583, 0.7624802084577678]","[348.89339561916137, 625.6353021907022, 415.6612959782918, 5663.140113234363]",None,"[9.0, 12.43619861205731, 11.373333354359222, 7.0267508366060865]",False,511.85128419997636,514.9667159999954,514.9667159999954,516.2022031999659,None,0,3.882216333411634,4.912178733386099,None,1,None,1,,,,,,,,nfsmrp,001,fr,0,0,2022-06-21_16h44.46.818,Cluster,2022.1.1,None,
,,,,2,0,2,0,10,0,10,0,,,time,,,,,,,,,,,,,,,,,,,,,,,,,,,,,,,,,,,,,,,,,,,,,,,,,,,,,,,,,,,,,,,,,,,,,,,,,,,,,,,,,,,,,,,,,,,,,,,,,,,,,,,,,,,,,,,,,,,516.7997916999739,None,149.27705528416513,1.0,0.0005683985364884269,1,"[0.498986462976438, 0.498986462976438, 0.498986462976438, 0.498986462976438]","[4966.79830059576, 2487.745903897641, 337.30642684646085, 1445.0945668071488]",None,"[5.72713630682007, 8.812406925636111, 8.0, 5.159676622472672]",False,517.7937674999703,520.3063754999312,520.3063754999312,521.541336699971,['space'],1,3.0152235666755587,4.035998966661282,None,1,None,1,[0.4469049000181258],,,,,,,nfsmrp,001,fr,0,0,2022-06-21_16h44.46.818,Cluster,2022.1.1,None,
,,,,2,0,2,0,11,0,11,0,,,frequency,,,,,,,,,,,,,,,,,,,,,,,,,,,,,,,,,,,,,,,,,,,,,,,,,,,,,,,,,,,,,,,,,,,,,,,,,,,,,,,,,,,,,,,,,,,,,,,,,,,,,,,,,,,,,,,,,,,521.8693562999833,None,,,,,"[0.5839433666980339, 0.6824662058679254, 0.7895357849702715, 0.6686839439498022]","[1822.4595481340982, 1216.3458187310532, 811.8134376476451, 541.8204653614284]",Perfect_5th,"[6.862369257319694, 6.014686025405318, 11.612439159137557, 12.543365251228744]",True,522.895004699938,525.9757332999725,525.9757332999725,527.2110937000252,None,1,3.7558446667389944,4.786109466687776,None,1,None,1,,0,,,,,,nfsmrp,001,fr,0,0,2022-06-21_16h44.46.818,Cluster,2022.1.1,None,
,,,,2,0,2,0,12,0,12,0,,,time,,,,,,,,,,,,,,,,,,,,,,,,,,,,,,,,,,,,,,,,,,,,,,,,,,,,,,,,,,,,,,,,,,,,,,,,,,,,,,,,,,,,,,,,,,,,,,,,,,,,,,,,,,,,,,,,,,,527.7269413999747,None,1741.101126592249,0.0,6.312169477569904e-05,1,"[0.7259558214055152, 0.7259558214055152, 0.7259558214055152, 0.7259558214055152]","[460.5858108994811, 4733.823923421836, 176.79110713362033, 348.9337448750316]",None,"[12.403272966353022, 5.291521398262874, 4.523954383956677, 9.0]",False,528.7484255000018,531.9560249999631,531.9560249999631,533.1932815000182,['space'],1,3.919446266721934,4.954209066694602,None,1,None,1,[0.4353824999416247],,,,,,,nfsmrp,001,fr,0,0,2022-06-21_16h44.46.818,Cluster,2022.1.1,None,
,,,,2,0,2,0,13,0,13,0,,,time,,,,,,,,,,,,,,,,,,,,,,,,,,,,,,,,,,,,,,,,,,,,,,,,,,,,,,,,,,,,,,,,,,,,,,,,,,,,,,,,,,,,,,,,,,,,,,,,,,,,,,,,,,,,,,,,,,,533.7583406999474,None,381.0518839250609,4.386860652875287,0.0001350079270157302,1,"[0.7728644566152733, 0.7728644566152733, 0.7728644566152733, 0.7728644566152733]","[255.30920047381017, 263.1460942560654, 192.70339739947735, 5789.035912074313]",None,"[3.0, 3.523597500375282, 3.6015323171227767, 7.0267508366060865]",False,534.7815500999568,538.121005199966,538.121005199966,539.3548306999728,['space'],1,4.117137466673739,5.158740766695701,None,1,None,1,[0.4656544999452308],,,,,,,nfsmrp,001,fr,0,0,2022-06-21_16h44.46.818,Cluster,2022.1.1,None,
,,,,2,0,2,0,14,0,14,0,,,none,,,,,,,,,,,,,,,,,,,,,,,,,,,,,,,,,,,,,,,,,,,,,,,,,,,,,,,,,,,,,,,,,,,,,,,,,,,,,,,,,,,,,,,,,,,,,,,,,,,,,,,,,,,,,,,,,,,539.984071200015,None,190.8798809021154,-2.3984676828772233,0.0002265948466261528,0,"[0.5764341296492042, 0.7804846941654575, 0.6748186589947591, 0.7353089766799639]","[196.40184527078003, 2343.659430531242, 2597.579061429702, 551.6352719375827]",None,"[3.0, 8.629370669639023, 8.71248236914871, 12.543365251228744]",False,540.9910685999785,544.0545082000317,544.0545082000317,545.2997696999228,None,0,3.8034228667384014,4.838023566757329,None,1,None,1,,,,,,,,nfsmrp,001,fr,0,0,2022-06-21_16h44.46.818,Cluster,2022.1.1,None,
,,,,2,0,2,0,15,0,15,0,,,none,,,,,,,,,,,,,,,,,,,,,,,,,,,,,,,,,,,,,,,,,,,,,,,,,,,,,,,,,,,,,,,,,,,,,,,,,,,,,,,,,,,,,,,,,,,,,,,,,,,,,,,,,,,,,,,,,,,545.8711209000321,None,,,,,"[0.6916771466891047, 0.4808981202242344, 0.5355761782056122, 0.790845278120238]","[3028.3149376154815, 160.9374757986115, 144.80491861146186, 6819.142323836529]",None,"[7.725845229991597, 6.0, 7.25280808554968, 8.580840414865701]",True,546.8798919999972,549.6050785999978,549.6050785999978,550.8335511999903,None,1,3.5201630666851997,4.555802266695537,None,1,None,1,,0,,,,,,nfsmrp,001,fr,0,0,2022-06-21_16h44.46.818,Cluster,2022.1.1,None,
,,,,2,0,2,0,16,0,16,0,,,both,,,,,,,,,,,,,,,,,,,,,,,,,,,,,,,,,,,,,,,,,,,,,,,,,,,,,,,,,,,,,,,,,,,,,,,,,,,,,,,,,,,,,,,,,,,,,,,,,,,,,,,,,,,,,,,,,,,551.4823932999279,None,813.734309281637,5.612439159137557,7.395850473116161e-05,0,"[0.6334442802861482, 0.6334442802861482, 0.6334442802861482, 0.6334442802861482]","[4100.963941142399, 2737.0650545755443, 1826.7717591517583, 1219.223874294035]",Perfect_5th,"[5.217880866515777, 8.33985994771843, 6.862369257319694, 6.014686025405318]",False,552.4771536999615,555.3952701999806,555.3952701999806,556.6366999000311,None,0,3.5621331667061895,4.605013666674495,None,1,None,1,,,,,,,,nfsmrp,001,fr,0,0,2022-06-21_16h44.46.818,Cluster,2022.1.1,None,
,,,,2,0,2,0,17,0,17,0,,,none,,,,,,,,,,,,,,,,,,,,,,,,,,,,,,,,,,,,,,,,,,,,,,,,,,,,,,,,,,,,,,,,,,,,,,,,,,,,,,,,,,,,,,,,,,,,,,,,,,,,,,,,,,,,,,,,,,,557.1349071000004,None,8000.0,-2.0,0.00014420157515633036,0,"[0.6421172249888216, 0.7386760695256991, 0.4651199773911132, 0.4186810875182301]","[366.58510185209747, 3566.7065885763295, 2433.319942734269, 5333.036245135121]",None,"[10.0, 6.0, 8.812406925636111, 6.347451680331581]",False,558.21811659995,561.1018327999627,561.1018327999627,562.314345599967,None,0,3.285738299950026,4.3048868998885155,None,1,None,1,,,,,,,,nfsmrp,001,fr,0,0,2022-06-21_16h44.46.818,Cluster,2022.1.1,None,
,,,,2,0,2,0,18,0,18,0,,,none,,,,,,,,,,,,,,,,,,,,,,,,,,,,,,,,,,,,,,,,,,,,,,,,,,,,,,,,,,,,,,,,,,,,,,,,,,,,,,,,,,,,,,,,,,,,,,,,,,,,,,,,,,,,,,,,,,,562.5604804999894,None,4125.946185037172,-0.7821191334842225,8.463175309556612e-05,0,"[0.47342860510527, 0.7464091343698533, 0.7953233475015209, 0.5157589093666036]","[285.0479348002819, 444.6816258426576, 3203.4597115028873, 573.5235100720573]",None,"[4.691777011888568, 12.033165800560354, 7.0, 12.492993717878832]",False,563.5647820000304,566.6174317999976,566.6174317999976,567.8464665999636,None,0,3.5745989666320384,4.604339966666885,None,1,None,1,,,,,,,,nfsmrp,001,fr,0,0,2022-06-21_16h44.46.818,Cluster,2022.1.1,None,
,,,,2,0,2,0,19,0,19,0,,,frequency,,,,,,,,,,,,,,,,,,,,,,,,,,,,,,,,,,,,,,,,,,,,,,,,,,,,,,,,,,,,,,,,,,,,,,,,,,,,,,,,,,,,,,,,,,,,,,,,,,,,,,,,,,,,,,,,,,,568.2131958999671,None,2462.2888266898335,2.0,0.00010708352260634206,1,"[0.7732585962826637, 0.4990853985226249, 0.7345723792963995, 0.40019223764758666]","[3908.639873736986, 3482.202253184498, 3102.289523667471, 2763.8257599355534]",Tone,"[5.217880866515777, 6.249301591637303, 7.725845229991597, 8.33985994771843]",False,569.2395144000184,572.2818015000084,572.2818015000084,573.5216744999634,['space'],1,3.429930833284743,4.457646233262494,None,1,None,1,[0.41820230009034276],,,,,,,nfsmrp,001,fr,0,0,2022-06-21_16h44.46.818,Cluster,2022.1.1,None,
,,,,3,0,3,0,0,0,0,0,,,time,,,,,,,,,,,,,,,,,,,,,,,,,,,,,,,,,,,,,,,,,,,,,,,,,,,,,,,,,,,,,,,,,,,,,,,,,,,,,,,,,,,,,,,,,,,,,,,,,,,,,,,,,,,,,,,,,,,578.6606667999877,None,,,,,"[0.5876664236886879, 0.5876664236886879, 0.5876664236886879, 0.5876664236886879]","[384.3905278978133, 963.6194180191749, 2573.15139954632, 1578.4980497468994]",None,"[10.386860652875287, 10.0, 8.71248236914871, 5.58640812440147]",True,579.6603100999491,582.4485599999316,582.4485599999316,583.6737546999939,None,1,3.376328866695985,4.402160666650161,None,1,None,1,,0,,,,,,nfsmrp,001,fr,0,0,2022-06-21_16h44.46.818,Cluster,2022.1.1,None,
,,,,3,0,3,0,1,0,1,0,,,both,,,,,,,,,,,,,,,,,,,,,,,,,,,,,,,,,,,,,,,,,,,,,,,,,,,,,,,,,,,,,,,,,,,,,,,,,,,,,,,,,,,,,,,,,,,,,,,,,,,,,,,,,,,,,,,,,,,584.1034074999625,None,1148.6983549970344,6.0,0.00010030596310503799,1,"[0.6530815183578718, 0.6530815183578718, 0.6530815183578718, 0.6530815183578718]","[5789.07694976151, 3863.7453156993806, 2578.740616879157, 1721.1028744886592]",Perfect_5th,"[7.0267508366060865, 5.61341503639132, 8.71248236914871, 6.0]",False,585.1202420999762,588.0952301999787,588.0952301999787,589.3156717999373,['space'],1,3.64560023334343,4.674952533328906,None,1,None,1,[0.4072504999348894],,,,,,,nfsmrp,001,fr,0,0,2022-06-21_16h44.46.818,Cluster,2022.1.1,None,
,,,,3,0,3,0,2,0,2,0,,,time,,,,,,,,,,,,,,,,,,,,,,,,,,,,,,,,,,,,,,,,,,,,,,,,,,,,,,,,,,,,,,,,,,,,,,,,,,,,,,,,,,,,,,,,,,,,,,,,,,,,,,,,,,,,,,,,,,,589.8405229999917,None,378.9291416275994,-6.0,4.110966093181886e-05,1,"[0.5266657228226119, 0.5266657228226119, 0.5266657228226119, 0.5266657228226119]","[4386.355373592848, 593.2115320811394, 799.5856369865189, 1701.0916359067282]",None,"[5.105671826033465, 12.492993717878832, 11.612439159137557, 6.0]",False,590.8527682999847,593.4735510000028,593.4735510000028,594.7069244999439,['space'],1,3.1547492333920673,4.193877733312547,None,1,None,1,[0.6154773000162095],,,,,,,nfsmrp,001,fr,0,0,2022-06-21_16h44.46.818,Cluster,2022.1.1,None,
,,,,3,0,3,0,3,0,3,0,,,none,,,,,,,,,,,,,,,,,,,,,,,,,,,,,,,,,,,,,,,,,,,,,,,,,,,,,,,,,,,,,,,,,,,,,,,,,,,,,,,,,,,,,,,,,,,,,,,,,,,,,,,,,,,,,,,,,,,595.0833330999594,None,1866.0659830736151,0.0,6.876424606830584e-05,0,"[0.6669880742156873, 0.4417317853073672, 0.5152491891087624, 0.5089851856401516]","[5544.575121242199, 188.65076345449594, 486.9484500015011, 1978.390401375894]",None,"[7.0, 3.6015323171227767, 12.540220128986695, 7.574658982062939]",False,596.1064079999924,598.7639500999358,598.7639500999358,600.0120302999858,None,0,3.160740266670473,4.182175166672096,None,1,None,1,,,,,,,,nfsmrp,001,fr,0,0,2022-06-21_16h44.46.818,Cluster,2022.1.1,None,
,,,,3,0,3,0,4,0,4,0,,,frequency,,,,,,,,,,,,,,,,,,,,,,,,,,,,,,,,,,,,,,,,,,,,,,,,,,,,,,,,,,,,,,,,,,,,,,,,,,,,,,,,,,,,,,,,,,,,,,,,,,,,,,,,,,,,,,,,,,,600.3371127999853,None,,,,,"[0.5619480845816838, 0.5967719540630224, 0.7595427174314867, 0.4408668969110202]","[206.89037274462285, 184.31836787376147, 164.20899766845358, 146.29358552993526]",Tone,"[2.8596761437836795, 4.0, 5.504814901485191, 7.0]",True,601.3644329999806,604.3213620999595,604.3213620999595,605.5519741999451,None,1,3.388149866834283,4.407317166798748,None,1,None,1,,0,,,,,,nfsmrp,001,fr,0,0,2022-06-21_16h44.46.818,Cluster,2022.1.1,None,
,,,,3,0,3,0,5,0,5,0,,,both,,,,,,,,,,,,,,,,,,,,,,,,,,,,,,,,,,,,,,,,,,,,,,,,,,,,,,,,,,,,,,,,,,,,,,,,,,,,,,,,,,,,,,,,,,,,,,,,,,,,,,,,,,,,,,,,,,,605.8211210999871,None,7724.430996510985,2.7938798386060544,0.00023889466922934094,1,"[0.5409253516020823, 0.5409253516020823, 0.5409253516020823, 0.5409253516020823]","[3065.442472429327, 3862.2154982554935, 4866.086605482312, 6130.884944858653]",Major_3rd,"[7.725845229991597, 5.61341503639132, 5.72713630682007, 7.665899311942048]",False,606.8428394999355,609.488940399955,609.488940399955,610.7257640999742,['space'],1,3.180724266800098,4.209123266744427,None,1,None,1,[0.26232249999884516],,,,,,,nfsmrp,001,fr,0,0,2022-06-21_16h44.46.818,Cluster,2022.1.1,None,
,,,,3,0,3,0,6,0,6,0,,,time,,,,,,,,,,,,,,,,,,,,,,,,,,,,,,,,,,,,,,,,,,,,,,,,,,,,,,,,,,,,,,,,,,,,,,,,,,,,,,,,,,,,,,,,,,,,,,,,,,,,,,,,,,,,,,,,,,,611.0960832999554,None,5601.702984500226,1.0,0.00014648788166212476,0,"[0.5327805222530384, 0.5327805222530384, 0.5327805222530384, 0.5327805222530384]","[4151.748241237752, 138.37043771032222, 7598.07611398389, 679.0615525117846]",None,"[5.105671826033465, 7.882025936411902, 8.793879838606054, 12.374164758239809]",False,612.110772099928,614.728368000011,614.728368000011,615.9650018999819,None,0,3.1528556667035446,4.181107366690412,None,1,None,1,,,,,,,,nfsmrp,001,fr,0,0,2022-06-21_16h44.46.818,Cluster,2022.1.1,None,
,,,,3,0,3,0,7,0,7,0,,,both,,,,,,,,,,,,,,,,,,,,,,,,,,,,,,,,,,,,,,,,,,,,,,,,,,,,,,,,,,,,,,,,,,,,,,,,,,,,,,,,,,,,,,,,,,,,,,,,,,,,,,,,,,,,,,,,,,,616.3365187000018,None,378.9291416275994,-3.0,5.806893951290537e-05,0,"[0.6306325741804677, 0.6306325741804677, 0.6306325741804677, 0.6306325741804677]","[150.37812951026456, 189.46457081379972, 238.71040097760408, 300.75625902052906]",Major_3rd,"[6.440830814488993, 3.6015323171227767, 2.3518981835911785, 6.0]",False,617.3642652999843,620.2714422999416,620.2714422999416,621.5039610000094,None,0,3.5241475666407496,4.5647322667064145,None,1,None,1,,,,,,,,nfsmrp,001,fr,0,0,2022-06-21_16h44.46.818,Cluster,2022.1.1,None,
,,,,3,0,3,0,8,0,8,0,,,time,,,,,,,,,,,,,,,,,,,,,,,,,,,,,,,,,,,,,,,,,,,,,,,,,,,,,,,,,,,,,,,,,,,,,,,,,,,,,,,,,,,,,,,,,,,,,,,,,,,,,,,,,,,,,,,,,,,621.981050399947,None,707.1067811865476,1.0,4.982092697845807e-05,0,"[0.6519125085804247, 0.6519125085804247, 0.6519125085804247, 0.6519125085804247]","[1466.3587469919962, 230.73869223861226, 3183.110354347831, 210.27574324706512]",None,"[5.229957997039526, 2.3518981835911785, 7.0, 2.8596761437836795]",False,622.9986447999254,625.9755970999831,625.9755970999831,627.2078622999834,None,0,3.626358366687782,4.645038966671564,None,1,None,1,,,,,,,,nfsmrp,001,fr,0,0,2022-06-21_16h44.46.818,Cluster,2022.1.1,None,
,,,,3,0,3,0,9,0,9,0,,,both,,,,,,,,,,,,,,,,,,,,,,,,,,,,,,,,,,,,,,,,,,,,,,,,,,,,,,,,,,,,,,,,,,,,,,,,,,,,,,,,,,,,,,,,,,,,,,,,,,,,,,,,,,,,,,,,,,,627.697895499994,None,,,,,"[0.7240493592302176, 0.7240493592302176, 0.7240493592302176, 0.7240493592302176]","[1091.932484815073, 728.7774993970377, 486.400625508772, 324.63347001117137]",Perfect_5th,"[7.935265083037154, 12.264078453096529, 12.540220128986695, 7.0]",True,628.6941443999531,631.9137600000249,631.9137600000249,633.1483601999935,None,1,3.9200451667420566,4.953369766706601,None,1,None,1,,0,,,,,,nfsmrp,001,fr,0,0,2022-06-21_16h44.46.818,Cluster,2022.1.1,None,
,,,,3,0,3,0,10,0,10,0,,,time,,,,,,,,,,,,,,,,,,,,,,,,,,,,,,,,,,,,,,,,,,,,,,,,,,,,,,,,,,,,,,,,,,,,,,,,,,,,,,,,,,,,,,,,,,,,,,,,,,,,,,,,,,,,,,,,,,,633.6949506999226,None,1057.671554875848,2.0,5.849556504359855e-05,0,"[0.44104678191095087, 0.44104678191095087, 0.44104678191095087, 0.44104678191095087]","[3875.4524076408807, 971.1177627206768, 687.7402118274863, 6135.885166091399]",None,"[5.217880866515777, 9.049049531369052, 12.264078453096529, 7.665899311942048]",False,634.6799927999964,637.0213083999697,637.0213083999697,638.2530191999394,None,0,2.8074033667799085,3.8488068667938933,None,1,None,1,,,,,,,,nfsmrp,001,fr,0,0,2022-06-21_16h44.46.818,Cluster,2022.1.1,None,
,,,,3,0,3,0,11,0,11,0,,,frequency,,,,,,,,,,,,,,,,,,,,,,,,,,,,,,,,,,,,,,,,,,,,,,,,,,,,,,,,,,,,,,,,,,,,,,,,,,,,,,,,,,,,,,,,,,,,,,,,,,,,,,,,,,,,,,,,,,,638.5765271999408,None,952.192302009234,4.0,6.766489208536589e-05,0,"[0.7808744462912973, 0.462224343749541, 0.6157328330070417, 0.7805454763795325]","[2399.3742496985806, 1904.384604018468, 1511.5110618854796, 1199.6871248492903]",Major_3rd,"[8.812406925636111, 7.0, 5.229957997039526, 6.014686025405318]",False,639.5708577999612,642.4432489000028,642.4432489000028,643.6907745000208,None,0,3.6881335666403174,4.719661566661671,None,1,None,1,,,,,,,,nfsmrp,001,fr,0,0,2022-06-21_16h44.46.818,Cluster,2022.1.1,None,
,,,,3,0,3,0,12,0,12,0,,,frequency,,,,,,,,,,,,,,,,,,,,,,,,,,,,,,,,,,,,,,,,,,,,,,,,,,,,,,,,,,,,,,,,,,,,,,,,,,,,,,,,,,,,,,,,,,,,,,,,,,,,,,,,,,,,,,,,,,,644.3380962000228,None,4287.0938501451765,1.0,0.0001163465127759661,1,"[0.46833376044202457, 0.6730413375611902, 0.6714373542046811, 0.7910791724993212]","[2700.6998923363817, 3031.4331330207983, 3402.6686438034253, 3819.3664156416694]",Tone,"[8.71248236914871, 7.725845229991597, 6.249301591637303, 5.61341503639132]",False,645.8248962999787,648.6662064000266,648.6662064000266,649.9026956999442,['space'],1,3.626324133365415,4.661016033263877,None,1,None,1,[0.31636599998455495],,,,,,,nfsmrp,001,fr,0,0,2022-06-21_16h44.46.818,Cluster,2022.1.1,None,
,,,,3,0,3,0,13,0,13,0,,,frequency,,,,,,,,,,,,,,,,,,,,,,,,,,,,,,,,,,,,,,,,,,,,,,,,,,,,,,,,,,,,,,,,,,,,,,,,,,,,,,,,,,,,,,,,,,,,,,,,,,,,,,,,,,,,,,,,,,,650.5416326000122,None,,,,,"[0.5635364424026508, 0.6084825756668285, 0.5309623242345403, 0.6531759361381188]","[431.5352855132454, 384.4542326960757, 342.5097830925615, 305.1415267076887]",Tone,"[12.0, 10.386860652875287, 8.0, 6.0]",True,651.5511093999958,654.2699601999484,654.2699601999484,655.5034511999693,None,1,3.3885701667750254,4.416308766813017,None,1,None,1,,0,,,,,,nfsmrp,001,fr,0,0,2022-06-21_16h44.46.818,Cluster,2022.1.1,None,
,,,,3,0,3,0,14,0,14,0,,,both,,,,,,,,,,,,,,,,,,,,,,,,,,,,,,,,,,,,,,,,,,,,,,,,,,,,,,,,,,,,,,,,,,,,,,,,,,,,,,,,,,,,,,,,,,,,,,,,,,,,,,,,,,,,,,,,,,,656.0064595999429,None,2500.9673428852707,2.812406925636112,0.00011865507133126515,1,"[0.6519147637197922, 0.6519147637197922, 0.6519147637197922, 0.6519147637197922]","[992.509547758548, 1250.4836714426356, 1575.510700200401, 1985.0190955170958]",Major_3rd,"[9.049049531369052, 6.0, 5.58640812440147, 7.574658982062939]",False,657.0245999000035,660.0183063999284,660.0183063999284,661.2437930000015,['space'],1,3.6506208666833118,4.682948266621679,None,1,None,1,[0.40157620003446937],,,,,,,nfsmrp,001,fr,0,0,2022-06-21_16h44.46.818,Cluster,2022.1.1,None,
,,,,3,0,3,0,15,0,15,0,,,time,,,,,,,,,,,,,,,,,,,,,,,,,,,,,,,,,,,,,,,,,,,,,,,,,,,,,,,,,,,,,,,,,,,,,,,,,,,,,,,,,,,,,,,,,,,,,,,,,,,,,,,,,,,,,,,,,,,661.7584056999767,None,125.0,-1.0,0.000644124775846567,0,"[0.7233576743159106, 0.7233576743159106, 0.7233576743159106, 0.7233576743159106]","[447.1330856105011, 1151.680963876216, 150.06114984917446, 3683.729166798667]",None,"[12.033165800560354, 6.881873475493382, 7.0, 5.61341503639132]",False,662.7689710999839,665.9815472000046,665.9815472000046,667.2165919999825,None,0,3.899915066664107,4.927746566710994,None,1,None,1,,,,,,,,nfsmrp,001,fr,0,0,2022-06-21_16h44.46.818,Cluster,2022.1.1,None,
,,,,3,0,3,0,16,0,16,0,,,time,,,,,,,,,,,,,,,,,,,,,,,,,,,,,,,,,,,,,,,,,,,,,,,,,,,,,,,,,,,,,,,,,,,,,,,,,,,,,,,,,,,,,,,,,,,,,,,,,,,,,,,,,,,,,,,,,,,667.7477847000118,None,146.3488959309869,1.0,0.0005976482829493159,1,"[0.5529092876993367, 0.5529092876993367, 0.5529092876993367, 0.5529092876993367]","[2365.4676683797584, 1068.2026949090957, 3346.187184992638, 639.1359975641338]",None,"[8.629370669639023, 8.0, 6.992450636195946, 12.374164758239809]",False,668.7583861999447,671.4558044000296,671.4558044000296,672.6886895999778,['space'],1,3.2295484667411074,4.264357066829689,None,1,None,1,[0.4415793999796733],,,,,,,nfsmrp,001,fr,0,0,2022-06-21_16h44.46.818,Cluster,2022.1.1,None,
,,,,3,0,3,0,17,0,17,0,,,frequency,,,,,,,,,,,,,,,,,,,,,,,,,,,,,,,,,,,,,,,,,,,,,,,,,,,,,,,,,,,,,,,,,,,,,,,,,,,,,,,,,,,,,,,,,,,,,,,,,,,,,,,,,,,,,,,,,,,673.0783760999329,None,,,,,"[0.5624269599892593, 0.725826512673256, 0.7488962243113358, 0.4666248168716616]","[480.00035355629404, 604.7625494025563, 761.9530661803688, 960.0007071125879]",Major_3rd,"[12.403272966353022, 12.43619861205731, 12.0, 10.0]",True,674.0751297000097,677.1386616999516,677.1386616999516,678.360882799956,None,1,3.519535666680895,4.563251666724682,None,1,None,1,,0,,,,,,nfsmrp,001,fr,0,0,2022-06-21_16h44.46.818,Cluster,2022.1.1,None,
,,,,3,0,3,0,18,0,18,0,,,frequency,,,,,,,,,,,,,,,,,,,,,,,,,,,,,,,,,,,,,,,,,,,,,,,,,,,,,,,,,,,,,,,,,,,,,,,,,,,,,,,,,,,,,,,,,,,,,,,,,,,,,,,,,,,,,,,,,,,678.6765759999398,None,3062.0762180387956,1.725845229991597,7.404066764530168e-05,1,"[0.45512731001936546, 0.5119930193293988, 0.5634128951804173, 0.6751158722501842]","[607.5928762151987, 910.3607062930897, 1363.9998887493905, 2043.6906861722182]",Perfect_5th,"[12.43619861205731, 10.093553796726027, 5.419783536075185, 7.574658982062939]",False,679.6803735999856,682.2462987999897,682.2462987999897,683.4673842999619,['space'],1,3.252593266661279,4.274365666671656,None,1,None,1,[0.4415252999169752],,,,,,,nfsmrp,001,fr,0,0,2022-06-21_16h44.46.818,Cluster,2022.1.1,None,
,,,,3,0,3,0,19,0,19,0,,,both,,,,,,,,,,,,,,,,,,,,,,,,,,,,,,,,,,,,,,,,,,,,,,,,,,,,,,,,,,,,,,,,,,,,,,,,,,,,,,,,,,,,,,,,,,,,,,,,,,,,,,,,,,,,,,,,,,,684.0024838999379,None,4924.577653379667,-3.0,0.00010446204222725298,1,"[0.6960067084194534, 0.6960067084194534, 0.6960067084194534, 0.6960067084194534]","[1954.3199368684932, 2462.288826689834, 3102.289523667471, 3908.6398737369855]",Major_3rd,"[7.574658982062939, 8.812406925636111, 7.725845229991597, 5.217880866515777]",False,685.0318867999595,688.1376187999267,688.1376187999267,689.3567701999564,['space'],1,3.811359866755083,4.824529966688715,None,1,None,1,[0.5729305000277236],,,,,,,nfsmrp,001,fr,0,0,2022-06-21_16h44.46.818,Cluster,2022.1.1,None,
,,,,4,0,4,0,0,0,0,0,,,time,,,,,,,,,,,,,,,,,,,,,,,,,,,,,,,,,,,,,,,,,,,,,,,,,,,,,,,,,,,,,,,,,,,,,,,,,,,,,,,,,,,,,,,,,,,,,,,,,,,,,,,,,,,,,,,,,,,702.0730389000382,None,250.0,-3.0,0.00011856868528308277,0,"[0.7206277705058575, 0.7206277705058575, 0.7206277705058575, 0.7206277705058575]","[1151.35550013761, 155.74207743139712, 431.5988411106075, 132.85038301503036]",None,"[6.881873475493382, 6.440830814488993, 12.0, 7.882025936411902]",False,703.0835864000255,706.2653463999741,706.2653463999741,707.5001710000215,None,0,3.895237566786818,4.912470166687854,None,1,None,1,,,,,,,,nfsmrp,001,fr,0,0,2022-06-21_16h44.46.818,Cluster,2022.1.1,None,
,,,,4,0,4,0,1,0,1,0,,,frequency,,,,,,,,,,,,,,,,,,,,,,,,,,,,,,,,,,,,,,,,,,,,,,,,,,,,,,,,,,,,,,,,,,,,,,,,,,,,,,,,,,,,,,,,,,,,,,,,,,,,,,,,,,,,,,,,,,,708.0494710999774,None,,,,,"[0.6804876365137571, 0.6121755938162127, 0.5147702247370206, 0.5157750875220749]","[1353.5106994321197, 1074.2821540643802, 852.6583107362302, 676.7553497160599]",Major_3rd,"[5.419783536075185, 7.935265083037154, 11.0, 12.374164758239809]",True,709.0771206000354,711.9293724999297,711.9293724999297,713.1541825999739,None,1,3.351612366735935,4.376783466665074,None,1,None,1,,0,,,,,,nfsmrp,001,fr,0,0,2022-06-21_16h44.46.818,Cluster,2022.1.1,None,
,,,,4,0,4,0,2,0,2,0,,,none,,,,,,,,,,,,,,,,,,,,,,,,,,,,,,,,,,,,,,,,,,,,,,,,,,,,,,,,,,,,,,,,,,,,,,,,,,,,,,,,,,,,,,,,,,,,,,,,,,,,,,,,,,,,,,,,,,,713.4907241000328,None,208.0079170932252,-3.1403238562163205,0.00017397820761429764,0,"[0.6398990938183249, 0.4397189082736086, 0.5843852499143152, 0.7983321794126598]","[2998.1179358743652, 854.1226729433967, 2989.639136553015, 1116.692664717163]",None,"[7.725845229991597, 11.0, 7.725845229991597, 7.0]",False,714.5162361999974,717.2140448000282,717.2140448000282,718.4364489000291,None,0,3.4859339667018503,4.5231699666474015,None,1,None,1,,,,,,,,nfsmrp,001,fr,0,0,2022-06-21_16h44.46.818,Cluster,2022.1.1,None,
,,,,4,0,4,0,3,0,3,0,,,frequency,,,,,,,,,,,,,,,,,,,,,,,,,,,,,,,,,,,,,,,,,,,,,,,,,,,,,,,,,,,,,,,,,,,,,,,,,,,,,,,,,,,,,,,,,,,,,,,,,,,,,,,,,,,,,,,,,,,719.0884581999853,None,1515.7165665103996,2.0,6.248081941585461e-05,1,"[0.4672400984890143, 0.7001041977876802, 0.44374831650680896, 0.46550540827080655]","[601.5125180410591, 757.8582832552, 954.8416039104177, 1203.025036082118]",Major_3rd,"[12.43619861205731, 12.030931211648069, 10.0, 6.014686025405318]",False,720.1074828000274,722.7398612999823,722.7398612999823,723.9766214999836,['space'],1,3.0980490333167836,4.126622933312319,None,1,None,1,[0.4215182999614626],,,,,,,nfsmrp,001,fr,0,0,2022-06-21_16h44.46.818,Cluster,2022.1.1,None,
,,,,4,0,4,0,4,0,4,0,,,frequency,,,,,,,,,,,,,,,,,,,,,,,,,,,,,,,,,,,,,,,,,,,,,,,,,,,,,,,,,,,,,,,,,,,,,,,,,,,,,,,,,,,,,,,,,,,,,,,,,,,,,,,,,,,,,,,,,,,724.2738717999309,None,1038.9027774182355,2.0,5.750725322816586e-05,0,"[0.543085219959848, 0.43801433750962804, 0.46811467593869255, 0.4138671199573682]","[206.14442022079888, 308.86764367546346, 462.7785763371721, 693.3844159529006]",Perfect_5th,"[2.8596761437836795, 6.12041693751124, 12.403272966353022, 12.264078453096529]",False,725.2952191999648,727.7651284999447,727.7651284999447,729.0114268999314,None,0,2.8853278666501865,3.9236636667046696,None,1,None,1,,,,,,,,nfsmrp,001,fr,0,0,2022-06-21_16h44.46.818,Cluster,2022.1.1,None,
,,,,4,0,4,0,5,0,5,0,,,both,,,,,,,,,,,,,,,,,,,,,,,,,,,,,,,,,,,,,,,,,,,,,,,,,,,,,,,,,,,,,,,,,,,,,,,,,,,,,,,,,,,,,,,,,,,,,,,,,,,,,,,,,,,,,,,,,,,729.2661601,None,,,,,"[0.47827375551046275, 0.47827375551046275, 0.47827375551046275, 0.47827375551046275]","[3001.216286459054, 3368.75138031828, 3781.2955745970844, 4244.360775925411]",Tone,"[7.725845229991597, 6.249301591637303, 5.61341503639132, 5.105671826033465]",True,730.2659655000316,732.7491640000371,732.7491640000371,733.979674299946,None,1,2.9506567666539922,3.983801666647196,None,1,None,1,,0,,,,,,nfsmrp,001,fr,0,0,2022-06-21_16h44.46.818,Cluster,2022.1.1,None,
,,,,4,0,4,0,6,0,6,0,,,frequency,,,,,,,,,,,,,,,,,,,,,,,,,,,,,,,,,,,,,,,,,,,,,,,,,,,,,,,,,,,,,,,,,,,,,,,,,,,,,,,,,,,,,,,,,,,,,,,,,,,,,,,,,,,,,,,,,,,734.2987240999937,None,250.0,1.0,0.00018791870214422208,1,"[0.45223808150792016, 0.6748319726112914, 0.41229808920103017, 0.7789736380143213]","[396.85026299205003, 353.5533905932739, 314.98026247371837, 280.6155120773433]",Tone,"[11.0, 9.111763019987018, 7.0, 4.0]",False,735.3245109999552,737.8891094999854,737.8891094999854,739.1261030000169,['space'],1,3.363671233295463,4.393495433381759,None,1,None,1,[0.2500904999906197],,,,,,,nfsmrp,001,fr,0,0,2022-06-21_16h44.46.818,Cluster,2022.1.1,None,
,,,,4,0,4,0,7,0,7,0,,,none,,,,,,,,,,,,,,,,,,,,,,,,,,,,,,,,,,,,,,,,,,,,,,,,,,,,,,,,,,,,,,,,,,,,,,,,,,,,,,,,,,,,,,,,,,,,,,,,,,,,,,,,,,,,,,,,,,,739.7691955999471,None,1148.6983549970344,5.0,8.9397783717774e-05,1,"[0.6419162623728257, 0.567146023114969, 0.6484447575652086, 0.6611482182669708]","[286.6377785074555, 215.2348117032821, 184.81853375873968, 6116.046808403654]",None,"[4.691777011888568, 2.4140431281402135, 4.0, 7.665899311942048]",False,740.7887335999403,743.6926833000034,743.6926833000034,744.9295300999656,['space'],1,3.526544766733423,4.549339766730554,None,1,None,1,[0.3725173999555409],,,,,,,nfsmrp,001,fr,0,0,2022-06-21_16h44.46.818,Cluster,2022.1.1,None,
,,,,4,0,4,0,8,0,8,0,,,none,,,,,,,,,,,,,,,,,,,,,,,,,,,,,,,,,,,,,,,,,,,,,,,,,,,,,,,,,,,,,,,,,,,,,,,,,,,,,,,,,,,,,,,,,,,,,,,,,,,,,,,,,,,,,,,,,,,745.3924046999309,None,823.129551351073,5.612439159137557,7.446804934213578e-05,0,"[0.5343393157240888, 0.7611806541324136, 0.47521627829938884, 0.5597910446964908]","[1473.0671213989067, 166.2100036468184, 248.9881706279608, 232.72419287821302]",None,"[5.229957997039526, 5.504814901485191, 2.7189213988014735, 2.3518981835911785]",False,746.4159236999694,749.2296016999753,749.2296016999753,750.4683201999869,None,0,3.35350596671924,4.3893952667713165,None,1,None,1,,,,,,,,nfsmrp,001,fr,0,0,2022-06-21_16h44.46.818,Cluster,2022.1.1,None,
,,,,4,0,4,0,9,0,9,0,,,both,,,,,,,,,,,,,,,,,,,,,,,,,,,,,,,,,,,,,,,,,,,,,,,,,,,,,,,,,,,,,,,,,,,,,,,,,,,,,,,,,,,,,,,,,,,,,,,,,,,,,,,,,,,,,,,,,,,750.8553911999334,None,131.29045128804808,2.0,0.0008393471688163575,1,"[0.4445128486932946, 0.4445128486932946, 0.4445128486932946, 0.4445128486932946]","[330.8312064560185, 262.58090257609615, 208.41060048802717, 165.41560322800925]",Major_3rd,"[7.6392326970469115, 3.523597500375282, 2.8596761437836795, 5.504814901485191]",False,751.8552426999668,754.2190258000046,754.2190258000046,755.4396273000166,['space'],1,2.822879866696894,3.8402428667759523,None,1,None,1,[0.35151910001877695],,,,,,,nfsmrp,001,fr,0,0,2022-06-21_16h44.46.818,Cluster,2022.1.1,None,
,,,,4,0,4,0,10,0,10,0,,,none,,,,,,,,,,,,,,,,,,,,,,,,,,,,,,,,,,,,,,,,,,,,,,,,,,,,,,,,,,,,,,,,,,,,,,,,,,,,,,,,,,,,,,,,,,,,,,,,,,,,,,,,,,,,,,,,,,,755.7418467999669,None,3031.4331330207992,-1.0,5.1513052502824035e-05,0,"[0.562483217457679, 0.7321734274739558, 0.6880351250644947, 0.670222889060843]","[348.49718003278196, 2335.4122441587583, 4298.3300066878055, 777.353933920639]",None,"[9.0, 8.629370669639023, 5.105671826033465, 12.0]",False,756.7801061000209,759.8095607999712,759.8095607999712,761.0456049999921,None,0,3.691771633340977,4.715813533286564,None,1,None,1,,,,,,,,nfsmrp,001,fr,0,0,2022-06-21_16h44.46.818,Cluster,2022.1.1,None,
,,,,4,0,4,0,11,0,11,0,,,time,,,,,,,,,,,,,,,,,,,,,,,,,,,,,,,,,,,,,,,,,,,,,,,,,,,,,,,,,,,,,,,,,,,,,,,,,,,,,,,,,,,,,,,,,,,,,,,,,,,,,,,,,,,,,,,,,,,761.5403972000349,None,,,,,"[0.4640910496597321, 0.4640910496597321, 0.4640910496597321, 0.4640910496597321]","[461.103413906149, 235.56948453431212, 6658.472614392654, 440.8946319673092]",None,"[12.403272966353022, 2.3518981835911785, 8.207841187533027, 12.033165800560354]",True,762.5480968999909,764.9836125000147,764.9836125000147,766.2173665999435,None,1,2.8722772668115795,3.9133226667763665,None,1,None,1,,0,,,,,,nfsmrp,001,fr,0,0,2022-06-21_16h44.46.818,Cluster,2022.1.1,None,
,,,,4,0,4,0,12,0,12,0,,,frequency,,,,,,,,,,,,,,,,,,,,,,,,,,,,,,,,,,,,,,,,,,,,,,,,,,,,,,,,,,,,,,,,,,,,,,,,,,,,,,,,,,,,,,,,,,,,,,,,,,,,,,,,,,,,,,,,,,,766.4978842999553,None,187.17168026552426,-2.3984676828772233,0.00023684138349153514,1,"[0.7274077316505172, 0.5149401976005183, 0.7746701646580159, 0.7553908971442493]","[297.1165221521488, 264.70072872366507, 235.82153991072687, 210.09310761634742]",Tone,"[5.0, 3.523597500375282, 2.3518981835911785, 2.8596761437836795]",False,767.5073959999718,770.5562526999274,770.5562526999274,771.7926644999534,['space'],1,3.820520566776395,4.854936766671017,None,1,None,1,[0.3688962999731302],,,,,,,nfsmrp,001,fr,0,0,2022-06-21_16h44.46.818,Cluster,2022.1.1,None,
,,,,4,0,4,0,13,0,13,0,,,frequency,,,,,,,,,,,,,,,,,,,,,,,,,,,,,,,,,,,,,,,,,,,,,,,,,,,,,,,,,,,,,,,,,,,,,,,,,,,,,,,,,,,,,,,,,,,,,,,,,,,,,,,,,,,,,,,,,,,772.4099160999758,None,535.8867312681471,0.0,6.584635451124388e-05,1,"[0.7601658000949901, 0.5160818395873782, 0.6074634959534939, 0.6923489047078915]","[212.66679023771422, 267.94336563407364, 337.5874865420479, 425.3335804754283]",Major_3rd,"[2.4140431281402135, 3.523597500375282, 8.0, 12.0]",False,774.1203785999678,777.0194675000384,777.0194675000384,778.2328068999341,['space'],1,3.6075465000467375,4.627116800053045,None,1,None,1,[0.4320261999964714],,,,,,,nfsmrp,001,fr,0,0,2022-06-21_16h44.46.818,Cluster,2022.1.1,None,
,,,,4,0,4,0,14,0,14,0,,,none,,,,,,,,,,,,,,,,,,,,,,,,,,,,,,,,,,,,,,,,,,,,,,,,,,,,,,,,,,,,,,,,,,,,,,,,,,,,,,,,,,,,,,,,,,,,,,,,,,,,,,,,,,,,,,,,,,,778.7926298000384,None,766.815462973839,6.0,7.956496174683252e-05,1,"[0.56913424333865, 0.6944213715236409, 0.46289535207852817, 0.6461986361748899]","[1106.2779258529124, 5511.514831951783, 6963.4759936525215, 980.6612284102919]",None,"[7.0, 7.0, 8.580840414865701, 9.049049531369052]",False,779.8161316999467,782.5668849999784,782.5668849999784,783.7997524000239,['space'],1,3.415648466674611,4.437257266719826,None,1,None,1,[0.6049252999946475],,,,,,,nfsmrp,001,fr,0,0,2022-06-21_16h44.46.818,Cluster,2022.1.1,None,
,,,,4,0,4,0,15,0,15,0,,,both,,,,,,,,,,,,,,,,,,,,,,,,,,,,,,,,,,,,,,,,,,,,,,,,,,,,,,,,,,,,,,,,,,,,,,,,,,,,,,,,,,,,,,,,,,,,,,,,,,,,,,,,,,,,,,,,,,,784.304131199955,None,,,,,"[0.5495418644260937, 0.5495418644260937, 0.5495418644260937, 0.5495418644260937]","[849.0835040096955, 566.6952503352419, 378.2237026581727, 252.43403604994285]",Perfect_5th,"[11.0, 12.492993717878832, 10.386860652875287, 2.7189213988014735]",True,785.3227316000266,788.011748299934,788.011748299934,789.2401372999884,None,1,3.217783866683021,4.250570466625504,None,1,None,1,,0,,,,,,nfsmrp,001,fr,0,0,2022-06-21_16h44.46.818,Cluster,2022.1.1,None,
,,,,4,0,4,0,16,0,16,0,,,both,,,,,,,,,,,,,,,,,,,,,,,,,,,,,,,,,,,,,,,,,,,,,,,,,,,,,,,,,,,,,,,,,,,,,,,,,,,,,,,,,,,,,,,,,,,,,,,,,,,,,,,,,,,,,,,,,,,789.6219223999651,None,3249.0095854249403,-4.0,4.464479880532507e-05,1,"[0.5874633128030137, 0.5874633128030137, 0.5874633128030137, 0.5874633128030137]","[644.6851542197893, 965.936328924845, 1447.2692374403773, 2168.4537406028358]",Perfect_5th,"[12.374164758239809, 10.0, 5.159676622472672, 8.199389784623765]",False,790.64290909993,793.4345270999474,793.4345270999474,794.6822863999987,['space'],1,3.358264866634272,4.378679766668938,None,1,None,1,[0.04615359997842461],,,,,,,nfsmrp,001,fr,0,0,2022-06-21_16h44.46.818,Cluster,2022.1.1,None,
,,,,4,0,4,0,17,0,17,0,,,frequency,,,,,,,,,,,,,,,,,,,,,,,,,,,,,,,,,,,,,,,,,,,,,,,,,,,,,,,,,,,,,,,,,,,,,,,,,,,,,,,,,,,,,,,,,,,,,,,,,,,,,,,,,,,,,,,,,,,795.0760602999944,None,2375.449225406267,2.629370669639023,0.00011252516466105371,1,"[0.7904673675508591, 0.7493097180774446, 0.7582373420726448, 0.6998561343793503]","[1496.4392410229134, 1679.696255649103, 1885.3952996534765, 2116.2846699219053]",Tone,"[5.229957997039526, 6.0, 7.0, 8.0]",False,796.1000863999361,799.4197395000374,799.4197395000374,800.6522489000345,['space'],1,4.018319566734135,5.0485151667380705,None,1,None,1,[0.334376799990423],,,,,,,nfsmrp,001,fr,0,0,2022-06-21_16h44.46.818,Cluster,2022.1.1,None,
,,,,4,0,4,0,18,0,18,0,,,time,,,,,,,,,,,,,,,,,,,,,,,,,,,,,,,,,,,,,,,,,,,,,,,,,,,,,,,,,,,,,,,,,,,,,,,,,,,,,,,,,,,,,,,,,,,,,,,,,,,,,,,,,,,,,,,,,,,801.1988432999933,None,3448.7531810715964,0.2493015916373027,7.642594696746763e-05,1,"[0.5045727782419063, 0.5045727782419063, 0.5045727782419063, 0.5045727782419063]","[1024.5201762748814, 3231.487818166433, 1134.1424513646837, 3905.292046723232]",None,"[9.0, 7.0, 7.0, 5.217880866515777]",False,802.2113006999716,804.7666941999923,804.7666941999923,805.9951703000115,['space'],1,3.049971066764556,4.0774741667555645,None,1,None,1,[0.3041585999308154],,,,,,,nfsmrp,001,fr,0,0,2022-06-21_16h44.46.818,Cluster,2022.1.1,None,
,,,,4,0,4,0,19,0,19,0,,,none,,,,,,,,,,,,,,,,,,,,,,,,,,,,,,,,,,,,,,,,,,,,,,,,,,,,,,,,,,,,,,,,,,,,,,,,,,,,,,,,,,,,,,,,,,,,,,,,,,,,,,,,,,,,,,,,,,,806.3427336999448,None,6062.8662660415985,-1.0,0.00010590954282987185,0,"[0.6862568578456454, 0.40896785803090596, 0.520232306349117, 0.7904291258303691]","[185.22107045628943, 152.08978442158747, 2920.832007377473, 302.7230950229336]",None,"[4.0, 6.440830814488993, 8.0, 6.0]",False,807.43098309997,810.0939729999518,810.0939729999518,811.3305603000335,None,0,3.4309415998868644,4.45526529988274,None,1,None,1,,,,,,,,nfsmrp,001,fr,0,0,2022-06-21_16h44.46.818,Cluster,2022.1.1,None,
,,,,5,0,5,0,0,0,0,0,,,none,,,,,,,,,,,,,,,,,,,,,,,,,,,,,,,,,,,,,,,,,,,,,,,,,,,,,,,,,,,,,,,,,,,,,,,,,,,,,,,,,,,,,,,,,,,,,,,,,,,,,,,,,,,,,,,,,,,819.903384199948,None,,,,,"[0.4916204466000431, 0.5567188088946671, 0.4662409799149629, 0.7144033355153947]","[1738.9249943500865, 332.95736249424255, 785.8001676226731, 351.7788668865178]",None,"[6.172489810500375, 8.0, 12.0, 9.0]",True,820.8934659999795,823.4405217999592,823.4405217999592,824.6784607999725,None,1,3.259392166743055,4.284010266768746,None,1,None,1,,0,,,,,,nfsmrp,001,fr,0,0,2022-06-21_16h44.46.818,Cluster,2022.1.1,None,
,,,,5,0,5,0,1,0,1,0,,,frequency,,,,,,,,,,,,,,,,,,,,,,,,,,,,,,,,,,,,,,,,,,,,,,,,,,,,,,,,,,,,,,,,,,,,,,,,,,,,,,,,,,,,,,,,,,,,,,,,,,,,,,,,,,,,,,,,,,,825.225091499975,None,353.5533905932738,-4.0,5.591060055563459e-05,0,"[0.5876794832832364, 0.5067463573393999, 0.5435731650771565, 0.7512013921442952]","[140.30775603867167, 176.77669529663694, 222.72467953508487, 280.6155120773433]",Major_3rd,"[7.25280808554968, 4.523954383956677, 2.4140431281402135, 4.0]",False,826.2409808000084,828.9166228999384,828.9166228999384,830.1423073000042,None,0,3.392526466632262,4.423500866629183,None,1,None,1,,,,,,,,nfsmrp,001,fr,0,0,2022-06-21_16h44.46.818,Cluster,2022.1.1,None,
,,,,5,0,5,0,2,0,2,0,,,none,,,,,,,,,,,,,,,,,,,,,,,,,,,,,,,,,,,,,,,,,,,,,,,,,,,,,,,,,,,,,,,,,,,,,,,,,,,,,,,,,,,,,,,,,,,,,,,,,,,,,,,,,,,,,,,,,,,830.7173330000369,None,452.86122347945627,6.403272966353022,0.00015435964368410452,1,"[0.4355055911898202, 0.6292133680521319, 0.587724777348213, 0.45408959503210067]","[660.0311306805198, 146.6025955089812, 6666.724978157366, 1600.3223555839475]",None,"[12.374164758239809, 7.0, 8.207841187533027, 5.58640812440147]",False,831.7344906999497,834.4183854999719,834.4183854999719,835.6518686999334,['space'],1,3.1487268666969612,4.188433366711251,None,1,None,1,[0.3140521999448538],,,,,,,nfsmrp,001,fr,0,0,2022-06-21_16h44.46.818,Cluster,2022.1.1,None,
,,,,5,0,5,0,3,0,3,0,,,time,,,,,,,,,,,,,,,,,,,,,,,,,,,,,,,,,,,,,,,,,,,,,,,,,,,,,,,,,,,,,,,,,,,,,,,,,,,,,,,,,,,,,,,,,,,,,,,,,,,,,,,,,,,,,,,,,,,835.9759659999982,None,8000.0,-2.0,0.00014420157515633036,0,"[0.657267999486448, 0.657267999486448, 0.657267999486448, 0.657267999486448]","[622.8091811387677, 242.10734675260514, 2886.513625223009, 2964.1268440223657]",None,"[12.43619861205731, 2.7189213988014735, 8.0, 8.0]",False,837.0009110999526,839.9870528000174,839.9870528000174,841.2231315999525,None,0,3.6557329333154485,4.6999075333587825,None,1,None,1,,,,,,,,nfsmrp,001,fr,0,0,2022-06-21_16h44.46.818,Cluster,2022.1.1,None,
,,,,5,0,5,0,4,0,4,0,,,none,,,,,,,,,,,,,,,,,,,,,,,,,,,,,,,,,,,,,,,,,,,,,,,,,,,,,,,,,,,,,,,,,,,,,,,,,,,,,,,,,,,,,,,,,,,,,,,,,,,,,,,,,,,,,,,,,,,841.7450991999358,None,,,,,"[0.7128267544353503, 0.7914257010685066, 0.4996627140827656, 0.7735448468591266]","[982.0086414738305, 644.800368006904, 454.22950706937667, 5562.087401875457]",None,"[9.049049531369052, 12.374164758239809, 12.403272966353022, 7.0]",True,842.7451593999285,845.7959359999513,845.7959359999513,847.03637909994,None,1,3.8185932667693123,4.858294466743246,None,1,None,1,,0,,,,,,nfsmrp,001,fr,0,0,2022-06-21_16h44.46.818,Cluster,2022.1.1,None,
,,,,5,0,5,0,5,0,5,0,,,none,,,,,,,,,,,,,,,,,,,,,,,,,,,,,,,,,,,,,,,,,,,,,,,,,,,,,,,,,,,,,,,,,,,,,,,,,,,,,,,,,,,,,,,,,,,,,,,,,,,,,,,,,,,,,,,,,,,847.6461992999539,None,125.0,1.0,0.0008109050486794653,0,"[0.5939596520533705, 0.5904332742209597, 0.519308556644904, 0.694894090231863]","[603.2002011361544, 467.5229245934488, 2216.3342327005575, 641.8435845486657]",None,"[12.43619861205731, 12.403272966353022, 8.199389784623765, 12.374164758239809]",False,848.670207099989,851.3862735999282,851.3862735999282,852.6026165999938,None,0,3.442069933284074,4.481404933263548,None,1,None,1,,,,"{'estimation': [[125.0, 0.5918632416460181], [130.44357373667785, 1.0], [133.9716828170366, 1.2393657816984942], [143.5872943746293, 1.805119729422263], [148.7090128527788, 2.0], [153.89305166811442, 2.190769394071199], [164.93848884661162, 2.2813604194598347], [176.77669529663666, 2.020817517741997], [177.20584041619747, 2.0], [189.46457081379947, 1.4463960752912077], [196.65605864350215, 1.0], [203.0630990890585, 0.6187823555950236], [212.65890517397725, 0.0], [217.6376408240306, -0.3068436768275035], [230.2123693399203, -1.0], [233.25824788420132, -1.1589702419486114], [249.99999999999937, -1.765920956484524], [265.65551550705254, -2.0], [267.94336563407256, -2.032118947399814], [272.2604933064079, -2.0], [287.1745887492579, -1.8982877705906618], [307.78610333622805, -1.4256378173081998], [320.70269924793644, -1.0], [329.87697769322244, -0.6993737393775664], [350.13633562315556, 0.0], [353.55339059327247, 0.12067133764410343], [378.929141627598, 0.8927055510477502], [383.430163966239, 1.0], [406.12619817811606, 1.5280089691864818], [435.2752816480607, 1.9902323448007408], [436.23153723271867, 2.0], [466.5164957684015, 2.290363961159571], [499.9999999999975, 2.498482708276383], [535.8867312681438, 2.6992162340249686], [574.3491774985143, 2.9620935890693683], [578.4413535231479, 3.0], [615.5722066724546, 3.3040543125093538], [659.753955386444, 3.7057397359566595], [691.5541379761685, 4.0], [707.1067811865431, 4.129843098120996], [757.8582832551941, 4.4753405915374], [812.2523963562301, 4.685560378987956], [870.5505632961181, 4.721361252583318], [933.0329915368008, 4.5795755406586665], [999.9999999999926, 4.297645045960512], [1057.5556233796785, 4.0], [1071.773462536285, 3.9269418572485875], [1148.6983549970246, 3.5523627268427522], [1231.1444133449063, 3.2209503919280773], [1301.3789195201855, 3.0], [1319.5079107728832, 2.943512816992663], [1414.2135623730828, 2.7228583912129265], [1515.7165665103864, 2.5209666307533682], [1624.5047927124563, 2.2925881025665173], [1741.1011265922318, 2.0029474756819607], [1742.0894796513176, 2.0], [1866.065983073597, 1.6610881170377279], [1999.9999999999802, 1.2944585246902096], [2117.4010225202514, 1.0], [2143.5469250725646, 0.937751240660714], [2297.396709994046, 0.658787333280692], [2462.2888266898062, 0.49354134363132995], [2639.01582154576, 0.44774738280809867], [2828.427124746159, 0.49995984538885196], [3031.4331330207615, 0.6057461349625738], [3249.0095854249043, 0.7136663410863178], [3482.2022531844555, 0.782294528686682], [3732.1319661471844, 0.7929720848014026], [3999.9999999999554, 0.7543744056560728], [4287.093850145118, 0.6958968101888592], [4594.793419988076, 0.6531615994308329], [4924.577653379601, 0.6531771781587716], [5278.031643091506, 0.7045016435012483], [5656.854249492303, 0.7947853512087628], [6062.866266041508, 0.8959185803881997], [6498.019170849792, 0.9740742095045432], [6945.038238626302, 1.0], [6964.404506368894, 1.0010863352958446], [6978.313603837849, 1.0], [7464.2639322943505, 0.9640121523173594], [7999.999999999892, 0.869506173828176]], 'plus_line': [[125.0, -2.1149235952019314], [126.02990545938631, -2.0], [133.97168281703668, -1.252795414952188], [136.93523847866527, -1.0], [143.5872943746293, -0.5287236485408179], [153.8930516681145, -0.039455639771691996], [156.79213279375975, 0.0], [164.93848884661162, 0.08755801650430328], [169.07565164713088, 0.0], [176.77669529663666, -0.17666184396555354], [189.46457081379947, -0.7690926784689819], [193.1485612536449, -1.0], [203.0630990890585, -1.6218279018836301], [208.9435123830498, -2.0], [217.6376408240306, -2.5557335403821932], [226.01700733536737, -3.0], [233.25824788420132, -3.388415547804055], [249.99999999999937, -3.9282452525368527], [256.6371219835711, -4.0], [267.94336563407256, -4.139751498396428], [281.8549293347006, -4.0], [287.1745887492579, -3.9577067688167373], [307.78610333622805, -3.5293867403238455], [325.3964752411027, -3.0], [329.87697769322244, -2.87388055649585], [353.55339059327247, -2.1904011193958217], [360.6434370567938, -2.0], [378.929141627598, -1.5454025576015074], [405.0543305873208, -1.0], [406.12619817811606, -0.9792527001859245], [435.2752816480601, -0.6120042642690688], [466.5164957684015, -0.35161762225836507], [499.9999999999975, -0.14234179386475365], [520.0534520564938, 0.0], [535.8867312681438, 0.09116617452711229], [574.3491774985143, 0.408576660235461], [615.5722066724546, 0.9018572224405519], [621.9601777675741, 1.0], [659.7539553864432, 1.46189054316396], [701.1895231539697, 2.0], [707.1067811865431, 2.063027104317565], [757.8582832551941, 2.4759033721653703], [812.2523963562301, 2.692153733594295], [870.5505632961181, 2.6630820257040577], [933.0329915368008, 2.4402556110639257], [999.9999999999926, 2.1135218706128684], [1020.9306066683398, 2.0], [1071.773462536285, 1.6955530938992212], [1148.698354997026, 1.3031858042925288], [1221.004748671559, 1.0], [1231.1444133449063, 0.9515271872144584], [1319.5079107728832, 0.6122956167246063], [1414.2135623730828, 0.34819852039910104], [1515.7165665103846, 0.12309621293934603], [1574.5482279401458, 0.0], [1624.5047927124563, -0.11713837814296146], [1741.1011265922318, -0.3923071704583013], [1866.065983073597, -0.68679114828003], [1999.9999999999802, -0.992414813507874], [2003.4937962664005, -1.0], [2143.5469250725646, -1.3258538518807026], [2297.396709994046, -1.5659725903303017], [2462.2888266898062, -1.6992636864575008], [2639.01582154576, -1.7323303164749908], [2828.427124746159, -1.6898144255111585], [3031.4331330207615, -1.604666685955173], [3249.0095854249043, -1.5071890771392549], [3482.202253184451, -1.4206582250199116], [3732.1319661471844, -1.3615465231940442], [3999.9999999999504, -1.340572766603373], [4287.093850145118, -1.3607337832346622], [4594.793419988081, -1.4105468957483929], [4924.577653379601, -1.4615722052743525], [5278.0316430915, -1.4806202245317333], [5656.854249492303, -1.4483596841701474], [6062.866266041501, -1.3698005896146626], [6498.019170849792, -1.2745541177324062], [6964.404506368894, -1.2136077110196717], [7464.2639322943505, -1.2509753086074493], [7999.999999999882, -1.4335238051473782]], 'minus_line': [[125.0, 3.199809031296893], [133.97168281703668, 3.717504705398232], [139.28472530283244, 4.0], [143.5872943746293, 4.246374016912215], [153.89305166811442, 4.641634485931551], [164.93848884661162, 4.7658255049959415], [176.77669529663666, 4.562722122819714], [188.8058525123592, 4.0], [189.46457081379947, 3.972423290192867], [203.0630990890585, 3.1424902086879403], [205.0351545822202, 3.0], [217.6376408240306, 2.1568207865354694], [219.98178803084807, 2.0], [233.25824788420132, 1.2023179799761907], [237.2321826734043, 1.0], [249.99999999999937, 0.45773723350718853], [267.94336563407256, 0.02677561452528532], [287.1745887492579, 0.06193775550427605], [307.78610333622805, 0.5411030932532596], [320.98779585336035, 1.0], [329.87697769322244, 1.3231500568150907], [347.4121725848955, 2.0], [353.55339059327247, 2.2449447718545774], [375.5308477168406, 3.0], [378.929141627598, 3.121902087582379], [406.12619817811606, 3.837083247083653], [415.6036922192638, 4.0], [435.2752816480601, 4.360604521460608], [466.5164957684015, 4.68168981509495], [499.9999999999975, 4.889369463060269], [522.3065757908996, 5.0], [535.8867312681438, 5.075000777278707], [574.3491774985143, 5.288729136160564], [615.5722066724546, 5.528797856885432], [659.7539553864432, 5.793471925415195], [693.1667390609895, 6.0], [707.1067811865431, 6.094413789594048], [757.8582832551941, 6.4138368201575435], [812.2523963562301, 6.652447794832604], [870.5505632961181, 6.767753896652403], [933.0329915368008, 6.721709015055713], [999.9999999999939, 6.51444112586193], [1071.773462536285, 6.182679629253296], [1109.029109337678, 6.0], [1148.6983549970246, 5.835146816799616], [1231.1444133449063, 5.565790964575342], [1319.5079107728832, 5.364335107543644], [1414.2135623730828, 5.20954813797605], [1515.7165665103846, 5.040563974237788], [1533.3641523253498, 5.0], [1624.5047927124563, 4.829370687377681], [1741.1011265922318, 4.527761479163283], [1866.065983073597, 4.109959722751717], [1895.0562528769017, 4.0], [1999.9999999999802, 3.675626666843297], [2143.5469250725646, 3.254617261435048], [2247.855512883909, 3.0], [2297.396709994046, 2.9011753018325805], [2462.2888266898062, 2.7120756269494968], [2639.01582154576, 2.6637967615355507], [2828.427124746159, 2.7373447210043813], [3031.4331330207656, 2.8737329617288325], [3249.0095854249043, 2.999294518364028], [3251.8470235064874, 3.0], [3482.2022531844555, 3.0679703024526663], [3732.1319661471844, 3.024363273571574], [3782.2663048518943, 3.0], [3999.9999999999504, 2.920336417164966], [4287.093850145118, 2.818200715444688], [4594.793419988081, 2.774257844422454], [4924.577653379601, 2.8179482104995555], [5278.031643091506, 2.9340954455750365], [5449.386250847839, 3.0], [5656.854249492303, 3.0958960772600035], [6062.866266041501, 3.236768995802307], [6498.019170849792, 3.3029349291018884], [6964.404506368902, 3.2911758792927563], [7464.2639322943505, 3.2364590103006616], [7999.999999999882, 3.205361383389817]]}",,,,nfsmrp,001,fr,0,0,2022-06-21_16h44.46.818,Cluster,2022.1.1,None,
,,,,5,0,5,0,6,0,6,0,,,both,,,,,,,,,,,,,,,,,,,,,,,,,,,,,,,,,,,,,,,,,,,,,,,,,,,,,,,,,,,,,,,,,,,,,,,,,,,,,,,,,,,,,,,,,,,,,,,,,,,,,,,,,,,,,,,,,,,853.1940431999974,None,474.6364029309326,6.403272966353022,0.00015203413116223426,1,"[0.4013795190761783, 0.4013795190761783, 0.4013795190761783, 0.4013795190761783]","[1196.0087901981333, 949.2728058618652, 753.4383253149646, 598.0043950990666]",Major_3rd,"[6.014686025405318, 10.0, 12.030931211648069, 12.43619861205731]",False,854.1961469999515,856.4191970999818,856.4191970999818,857.6508864000207,['space'],1,2.650880266679451,3.665063066757284,None,1,None,1,[0.24755830003414303],,,,,,,nfsmrp,001,fr,0,0,2022-06-21_16h44.46.818,Cluster,2022.1.1,None,
,,,,5,0,5,0,7,0,7,0,,,both,,,,,,,,,,,,,,,,,,,,,,,,,,,,,,,,,,,,,,,,,,,,,,,,,,,,,,,,,,,,,,,,,,,,,,,,,,,,,,,,,,,,,,,,,,,,,,,,,,,,,,,,,,,,,,,,,,,857.9078317999374,None,2143.5469250725882,-1.0,6.951207121178725e-05,0,"[0.5198554017723862, 0.5198554017723862, 0.5198554017723862, 0.5198554017723862]","[3402.668643803426, 3031.4331330207992, 2700.6998923363826, 2406.0500721642356]",Tone,"[6.249301591637303, 7.725845229991597, 8.71248236914871, 8.812406925636111]",False,859.6154401999665,862.2192556000082,862.2192556000082,863.4590496999444,None,0,3.0964179332368076,4.116918533225544,None,1,None,1,,,,,,,,nfsmrp,001,fr,0,0,2022-06-21_16h44.46.818,Cluster,2022.1.1,None,
,,,,5,0,5,0,8,0,8,0,,,frequency,,,,,,,,,,,,,,,,,,,,,,,,,,,,,,,,,,,,,,,,,,,,,,,,,,,,,,,,,,,,,,,,,,,,,,,,,,,,,,,,,,,,,,,,,,,,,,,,,,,,,,,,,,,,,,,,,,,863.7865585000254,None,6318.326185194826,2.0,0.00016436969350327123,1,"[0.7332827710688236, 0.5203312711212514, 0.5066168234580769, 0.5803461722194908]","[3980.296080414467, 4467.731291299791, 5014.858816528244, 5628.988699182611]",Tone,"[5.217880866515777, 5.291521398262874, 6.0, 7.0]",False,864.7983538999688,867.5935375000117,867.5935375000117,868.8341623999877,['space'],1,3.375311066629365,4.396165566635318,None,1,None,1,[0.5380602999357507],,,,,,,nfsmrp,001,fr,0,0,2022-06-21_16h44.46.818,Cluster,2022.1.1,None,
,,,,5,0,5,0,9,0,9,0,,,time,,,,,,,,,,,,,,,,,,,,,,,,,,,,,,,,,,,,,,,,,,,,,,,,,,,,,,,,,,,,,,,,,,,,,,,,,,,,,,,,,,,,,,,,,,,,,,,,,,,,,,,,,,,,,,,,,,,869.2523790999549,None,370.3998668209668,4.0,0.00013350955393475077,1,"[0.5862213460216916, 0.5862213460216916, 0.5862213460216916, 0.5862213460216916]","[3869.5452420100055, 268.05421837775793, 5460.352276869693, 739.7654458124239]",None,"[5.217880866515777, 3.523597500375282, 7.0, 12.030931211648069]",False,870.2485448999796,873.0450705999974,873.0450705999974,874.2592310999753,['space'],1,3.3752903667045757,4.400278266752139,None,1,None,1,[0.32512309995945543],,,,,,,nfsmrp,001,fr,0,0,2022-06-21_16h44.46.818,Cluster,2022.1.1,None,
,,,,5,0,5,0,10,0,10,0,,,time,,,,,,,,,,,,,,,,,,,,,,,,,,,,,,,,,,,,,,,,,,,,,,,,,,,,,,,,,,,,,,,,,,,,,,,,,,,,,,,,,,,,,,,,,,,,,,,,,,,,,,,,,,,,,,,,,,,874.6963697000174,None,2462.2888266898335,-5.0,4.783245253797975e-05,0,"[0.5288149917775274, 0.5288149917775274, 0.5288149917775274, 0.5288149917775274]","[1445.7371936679795, 214.02880344559054, 1265.3704364030734, 740.1642475752415]",None,"[5.159676622472672, 2.4140431281402135, 6.0, 12.030931211648069]",False,876.4405224999646,879.0552918999456,879.0552918999456,880.2758519999916,None,0,3.12595273333136,4.158272633329034,None,1,None,1,,,,,,,,nfsmrp,001,fr,0,0,2022-06-21_16h44.46.818,Cluster,2022.1.1,None,
,,,,5,0,5,0,11,0,11,0,,,time,,,,,,,,,,,,,,,,,,,,,,,,,,,,,,,,,,,,,,,,,,,,,,,,,,,,,,,,,,,,,,,,,,,,,,,,,,,,,,,,,,,,,,,,,,,,,,,,,,,,,,,,,,,,,,,,,,,880.6458057999844,None,728.5301934032644,6.264078453096529,8.746630911995558e-05,1,"[0.45209310916223133, 0.45209310916223133, 0.45209310916223133, 0.45209310916223133]","[751.4586957540388, 143.15758017038345, 138.21840993906568, 7455.716654275758]",None,"[12.030931211648069, 7.25280808554968, 7.882025936411902, 8.793879838606054]",False,881.6754646999761,884.0707042999566,884.0707042999566,885.292446599924,['space'],1,2.827450166689232,3.85997696663253,None,1,None,1,[0.3587503000162542],,,,,,,nfsmrp,001,fr,0,0,2022-06-21_16h44.46.818,Cluster,2022.1.1,None,
,,,,5,0,5,0,12,0,12,0,,,both,,,,,,,,,,,,,,,,,,,,,,,,,,,,,,,,,,,,,,,,,,,,,,,,,,,,,,,,,,,,,,,,,,,,,,,,,,,,,,,,,,,,,,,,,,,,,,,,,,,,,,,,,,,,,,,,,,,885.5872027999721,None,6685.412650332809,2.2078411875330284,0.000182697905934166,0,"[0.5444580877784322, 0.5444580877784322, 0.5444580877784322, 0.5444580877784322]","[1326.5538842474764, 1987.585072626244, 2978.0127802103543, 4461.977623618375]",Perfect_5th,"[5.419783536075185, 7.574658982062939, 8.0, 5.291521398262874]",False,886.593754200032,889.2681466999929,889.2681466999929,890.5027018999681,None,0,3.2002987668383867,4.2311290667857975,None,1,None,1,,,,,,,,nfsmrp,001,fr,0,0,2022-06-21_16h44.46.818,Cluster,2022.1.1,None,
,,,,5,0,5,0,13,0,13,0,,,frequency,,,,,,,,,,,,,,,,,,,,,,,,,,,,,,,,,,,,,,,,,,,,,,,,,,,,,,,,,,,,,,,,,,,,,,,,,,,,,,,,,,,,,,,,,,,,,,,,,,,,,,,,,,,,,,,,,,,890.8772591999732,None,125.0,2.0,0.000909850429304992,0,"[0.7737544798684679, 0.7563209198689178, 0.5256492116847925, 0.7027159685024476]","[629.9605249474366, 420.4482076268573, 280.6155120773433, 187.2883846095852]",Perfect_5th,"[12.43619861205731, 12.0, 4.0, 3.6015323171227767]",False,891.9146117999917,894.988551300019,894.988551300019,896.2076868999284,None,0,3.779158466728404,4.817146166693419,None,1,['space'],0,,,[0.5526745000388473],,,,,nfsmrp,001,fr,0,0,2022-06-21_16h44.46.818,Cluster,2022.1.1,None,
