tTrials.thisRepN,tTrials.thisTrialN,tTrials.thisN,tTrials.thisIndex,blocks.thisRepN,blocks.thisTrialN,blocks.thisN,blocks.thisIndex,trials.thisRepN,trials.thisTrialN,trials.thisN,trials.thisIndex,tStart_text.started,tStart_text.stopped,Prediction,practice_Frequency,practice_Level,practice_Psychopy_Level,practice_isCatchTrial,Practice_trial_detection,practice_Cue_Delays,practice_Cue_Frequencies,practice_Interval,practice_Cue_Intensities,tCue_visual_cue.started,tCue_visual_cue.stopped,tProbe_visual_cue.started,tProbe_visual_cue.stopped,tFeedback.keys,tFeedback.corr,tFeedback.rt,tFeedback.started,tFeedback.stopped,tToo_late.keys,tToo_late.corr,tToo_early.keys,tToo_early.corr,tToo_early.rt,more_instructions.started,more_instructions.stopped,readyy.keys,readyy.rt,readyy.started,readyy.stopped,txt_rhythm.started,txt_rhythm.stopped,sound_1.started,sound_1.stopped,sound_2.started,sound_2.stopped,sound_3.started,sound_3.stopped,sound_4.started,sound_4.stopped,cross.started,cross.stopped,sound_5.started,sound_5.stopped,circle.started,circle.stopped,rhythm_ready.keys,rhythm_ready.rt,rhythm_ready.started,rhythm_ready.stopped,rhytm_ready_txt.started,rhytm_ready_txt.stopped,txt_freq.started,txt_freq.stopped,sound_6.started,sound_6.stopped,sound_7.started,sound_7.stopped,sound_8.started,sound_8.stopped,sound_9.started,sound_9.stopped,cross_2.started,cross_2.stopped,sound_10.started,sound_10.stopped,circle_2.started,circle_2.stopped,freq_ready.keys,freq_ready.rt,freq_ready.started,freq_ready.stopped,freq_ready_txt.started,freq_ready_txt.stopped,txt_freq_2.started,txt_freq_2.stopped,sound_11.started,sound_11.stopped,sound_12.started,sound_12.stopped,sound_13.started,sound_13.stopped,sound_14.started,sound_14.stopped,cross_3.started,cross_3.stopped,sound_15.started,sound_15.stopped,circle_3.started,circle_3.stopped,freq_ready_2.keys,freq_ready_2.rt,freq_ready_2.started,freq_ready_2.stopped,freq_ready_txt_2.started,freq_ready_txt_2.stopped,txt_freq_3.started,txt_freq_3.stopped,sound_16.started,sound_16.stopped,sound_17.started,sound_17.stopped,sound_18.started,sound_18.stopped,sound_19.started,sound_19.stopped,cross_4.started,cross_4.stopped,sound_20.started,sound_20.stopped,circle_4.started,circle_4.stopped,freq_ready_txt_3.started,freq_ready_txt_3.stopped,tStart_text_2.started,tStart_text_2.stopped,this_trial_is.started,this_trial_is.stopped,Frequency,Level,Psychopy_Level,Real trial detection,Cue Delays,Cue Frequencies,Interval,Cue Intensities,Catch trial,cue_visual_cue.started,cue_visual_cue.stopped,probe_visual_cue.started,probe_visual_cue.stopped,feedback.keys,feedback.corr,feedback.started,feedback.stopped,answer_too_late.keys,answer_too_late.corr,answer_too_early.keys,answer_too_early.corr,feedback.rt,Catch trial answer,answer_too_early.rt,Audiogram_time,Audiogram_both,Audiogram_frequency,Audiogram_none,participant,session,Language (english or french),Skip training? (1 for yes),Resume previous experiment,date,expName,psychopyVersion,frameRate,
0,0,0,0,,,,,,,,,17.48786839999957,None,both,1000,30,0.0013930605843148849,False,1,"[0.5118465179150682, 0.5118465179150682, 0.5118465179150682, 0.5118465179150682]","[629.9605249474365, 707.1067811865474, 793.7005259840997, 890.8987181403393]",Tone,"[30, 30, 30, 30]",56.986057200003415,59.437544899992645,59.437544899992645,60.66649159998633,['space'],1,[0.81885229999898],59.437544899992645,61.168030399945565,None,1,['space'],0,[0.5827456999686547],,,,,,,,,,,,,,,,,,,,,,,,,,,,,,,,,,,,,,,,,,,,,,,,,,,,,,,,,,,,,,,,,,,,,,,,,,,,,,,,,,,,,,,,,,,,,,,,,,,,,,,,,,,,,,,,,,,,,,,,,,,regvnx,001,fr,0,0,2022-04-28_15h48.55.640,Cluster,2022.1.1,36.190527198261876,
1,0,1,0,,,,,,,,,,,time,2500,30,0.002716251657462167,False,1,"[0.6636508427566887, 0.6636508427566887, 0.6636508427566887, 0.6636508427566887]","[1653.5266946484055, 199.63463823587685, 4820.266328097262, 572.8807825529902]",None,"[30, 30, 30, 30]",71.79805099999066,74.71480099996552,74.71480099996552,75.94469169998774,['space'],1,[0.9656817999784835],74.71480099996552,76.58944859995972,None,1,None,1,,,,,,,,,,,,,,,,,,,,,,,,,,,,,,,,,,,,,,,,,,,,,,,,,,,,,,,,,,,,,,,,,,,,,,,,,,,,,,,,,,,,,,,,,,,,,,,,,,,,,,,,,,,,,,,,,,,,,,,,,,,,regvnx,001,fr,0,0,2022-04-28_15h48.55.640,Cluster,2022.1.1,36.190527198261876,
2,0,2,0,,,,,,,,,,,time,6000,30,0.003664122665694519,True,0,"[0.7667048250215848, 0.7667048250215848, 0.7667048250215848, 0.7667048250215848]","[3020.8897501873703, 3099.4556671286823, 190.11880153567168, 3164.212597138452]",None,"[30, 30, 30, 30]",85.80806549999397,89.02198249998037,89.02198249998037,90.23614669998642,"['space', 'space']",0,"[0.4497395000071265, 0.6746418000548147]",89.02198249998037,91.02349289995618,None,1,None,1,,,,,,,,,,,,,,,,,,,,,,,,,,,,,,,,,,,,,,,,,,,,,,,,,,,,,,,,,,,,,,,,,,,,,,,,,,,,,,,,,,,,,,,,,,,,,,,,,,,,,,,,,,,,,,,,,,,,,,,,,,,,regvnx,001,fr,0,0,2022-04-28_15h48.55.640,Cluster,2022.1.1,36.190527198261876,
3,0,3,0,,,,,,,,,,,time,440,30,0.0023562289915021436,False,1,"[0.7369989158878375, 0.7369989158878375, 0.7369989158878375, 0.7369989158878375]","[1798.5909375337812, 172.11270256675405, 169.07687956477355, 3815.161376519572]",None,"[30, 30, 30, 30]",95.77792869997211,98.9054067999823,98.9054067999823,100.12768279999727,['space'],1,[1.127999699965585],98.9054067999823,100.86753369995859,None,1,None,1,,,,,,,,,,,,,,,,,,,,,,,,,,,,,,,,,,,,,,,,,,,,,,,,,,,,,,,,,,,,,,,,,,,,,,,,,,,,,,,,,,,,,,,,,,,,,,,,,,,,,,,,,,,,,,,,,,,,,,,,,,,,regvnx,001,fr,0,0,2022-04-28_15h48.55.640,Cluster,2022.1.1,36.190527198261876,
4,0,4,0,,,,,,,,,,,frequency,250,30,0.005296268625886445,True,1,"[0.44188350192474735, 0.7584524092861611, 0.6674424308614877, 0.5579762064317146]","[396.85026299205003, 353.5533905932739, 314.98026247371837, 280.6155120773433]",Tone,"[30, 30, 30, 30]",104.85935539996717,107.66985129995737,107.66985129995737,108.87558259995421,None,1,,107.66985129995737,109.43468859995482,None,1,None,1,,,,,,,,,,,,,,,,,,,,,,,,,,,,,,,,,,,,,,,,,,,,,,,,,,,,,,,,,,,,,,,,,,,,,,,,,,,,,,,,,,,,,,,,,,,,,,,,,,,,,,,,,,,,,,,,,,,,,,,,,,,,regvnx,001,fr,0,0,2022-04-28_15h48.55.640,Cluster,2022.1.1,36.190527198261876,
,,,,,,,,,,,,,,,,,,,,,,,,,,,,,,,,,,,,,,114.18683259998215,None,space,25.44592670002021,114.18683259998215,None,,,,,,,,,,,,,,,,,,,,,,,,,,,,,,,,,,,,,,,,,,,,,,,,,,,,,,,,,,,,,,,,,,,,,,,,,,,,,,,,,,,,,,,,,,,,,,,,,,,,,,,,,,,,,,,,,,,,,regvnx,001,fr,0,0,2022-04-28_15h48.55.640,Cluster,2022.1.1,36.190527198261876,
,,,,,,,,,,,,,,,,,,,,,,,,,,,,,,,,,,,,,,,,,,,,139.68576389999362,140.6890833999496,141.14830771995474,141.36584929999663,141.65432081999023,None,142.1492351199733,142.3644759999588,142.65555441995383,142.87533779995283,141.06260209996253,142.87533779995283,143.135734019964,143.3610954999458,142.87533779995283,143.68251649994636,r,4.1229428999940865,143.86129149998305,None,,,,,,,,,,,,,,,,,,,,,,,,,,,,,,,,,,,,,,,,,,,,,,,,,,,,,,,,,,,,,,,,,,,,,,,,,,,,,,,,,,,,,,,,,,,,,,,,,regvnx,001,fr,0,0,2022-04-28_15h48.55.640,Cluster,2022.1.1,36.190527198261876,
,,,,,,,,,,,,,,,,,,,,,,,,,,,,,,,,,,,,,,,,,,,,,,,,,,,,,,,,,,,,,,,,143.86129149998305,None,148.04399929998908,149.06986429996323,149.49821671999524,None,149.82339991994667,150.03368449996924,150.5065755199641,150.72854009998264,150.92941181994973,None,149.4132153999526,151.21627609996358,151.5159540199558,151.73629909998272,151.21627609996358,152.02556179999374,space,0.21617579995654523,152.20033659995534,None,,,,,,,,,,,,,,,,,,,,,,,,,,,,,,,,,,,,,,,,,,,,,,,,,,,,,,,,,,,,,,,,,,,,,,,,,,,regvnx,001,fr,0,0,2022-04-28_15h48.55.640,Cluster,2022.1.1,36.190527198261876,
,,,,,,,,,,,,,,,,,,,,,,,,,,,,,,,,,,,,,,,,,,,,,,,,,,,,,,,,,,,,,,,,,,,,,,,,,,,,,,,,,,,,,,152.20033659995534,None,152.45846709999023,153.45949179999297,153.92616731998277,154.13612659997307,154.42753571998327,154.6435309999506,154.93190801998134,None,155.4165017199586,None,153.8390913999756,155.60876559995813,155.90815981994382,None,155.60876559995813,156.40797379997093,r,3.409423799952492,156.6224323999486,None,,,,,,,,,,,,,,,,,,,,,,,,,,,,,,,,,,,,,,,,,,,,,,,,,,,,,regvnx,001,fr,0,0,2022-04-28_15h48.55.640,Cluster,2022.1.1,36.190527198261876,
,,,,0,0,0,0,0,0,0,0,,,none,,,,,,,,,,,,,,,,,,,,,,,,,,,,,,,,,,,,,,,,,,,,,,,,,,,,,,,,,,,,,,,,,,,,,,,,,,,,,,,,,,,,,,,,,,,,,,156.6224323999486,None,160.07073999999557,161.07426319998922,161.51427171995164,None,161.83286181999136,None,162.5151468199794,None,162.92103601996786,163.13768909999635,161.42421989998547,163.22816129995044,163.5515248199692,163.77489249996142,163.22816129995044,164.05134229996474,164.2132745999843,None,165.23350380000193,None,177.81893279997166,None,3318.4702741846795,11.657572712235277,0.00027546708211079857,0,"[0.4776592176474484, 0.4943578574905161, 0.7985439376093902, 0.7511338712241904]","[533.0582287195978, 256.03892646315416, 312.2839099949131, 285.9776745657518]",None,"[13.265893656062651, 19.0, 20.98075289920411, 20.633006653856143]",False,178.80261759995483,181.6203133999952,181.6203133999952,182.85334469994996,None,0,3.540339359897189,4.572923859930597,None,1,None,1,,,,,,,,regvnx,001,fr,0,0,2022-04-28_15h48.55.640,Cluster,2022.1.1,36.190527198261876,
,,,,0,0,0,0,1,0,1,0,,,none,,,,,,,,,,,,,,,,,,,,,,,,,,,,,,,,,,,,,,,,,,,,,,,,,,,,,,,,,,,,,,,,,,,,,,,,,,,,,,,,,,,,,,,,,,,,,,,,,,,,,,,,,,,,,,,,,,,,183.4297109999461,None,353.5533905932738,9.0,0.0002497434789550849,1,"[0.5839441319482171, 0.700367241579983, 0.7560795694114394, 0.40567353605384543]","[1174.2805303493396, 224.0565943998458, 560.3070280328727, 842.7057199123542]",None,"[5.284124547217322, 17.0, 13.0, 7.0]",False,185.06122769997455,188.12784579995787,188.12784579995787,189.3620299999602,['space'],1,3.450560499972198,4.481156299938448,None,1,None,1,[0.5157586000277661],,,,,,,regvnx,001,fr,0,0,2022-04-28_15h48.55.640,Cluster,2022.1.1,36.190527198261876,
,,,,0,0,0,0,2,0,2,0,,,time,,,,,,,,,,,,,,,,,,,,,,,,,,,,,,,,,,,,,,,,,,,,,,,,,,,,,,,,,,,,,,,,,,,,,,,,,,,,,,,,,,,,,,,,,,,,,,,,,,,,,,,,,,,,,,,,,,,,189.59324719995493,None,697.3635462989563,3.613931926345404,6.860974390003283e-05,1,"[0.747726587160342, 0.747726587160342, 0.747726587160342, 0.747726587160342]","[211.4208537182348, 249.19488386844037, 1661.1685477021965, 253.0052560046692]",None,"[16.0, 18.617590404467318, 10.0, 19.0]",False,190.61795309995068,193.89870729995891,193.89870729995891,195.1352700999705,['space'],1,4.002755359921139,5.0251112599507906,None,1,None,1,[0.615140000008978],,,,,,,regvnx,001,fr,0,0,2022-04-28_15h48.55.640,Cluster,2022.1.1,36.190527198261876,
,,,,0,0,0,0,3,0,3,0,,,both,,,,,,,,,,,,,,,,,,,,,,,,,,,,,,,,,,,,,,,,,,,,,,,,,,,,,,,,,,,,,,,,,,,,,,,,,,,,,,,,,,,,,,,,,,,,,,,,,,,,,,,,,,,,,,,,,,,,195.69590039999457,None,,,,,"[0.6594691095301196, 0.6594691095301196, 0.6594691095301196, 0.6594691095301196]","[913.1615637838072, 1024.9891993221624, 1150.5114761661387, 1291.4054681408845]",Tone,"[6.0, 5.426462069149605, 5.284124547217322, 6.0]",True,196.68389789998764,199.70491029997356,199.70491029997356,200.9411208999809,['space'],0,3.669086559966672,4.704755759972613,None,1,None,1,[0.5003588999970816],0,,,,,,regvnx,001,fr,0,0,2022-04-28_15h48.55.640,Cluster,2022.1.1,36.190527198261876,
,,,,0,0,0,0,4,0,4,0,,,both,,,,,,,,,,,,,,,,,,,,,,,,,,,,,,,,,,,,,,,,,,,,,,,,,,,,,,,,,,,,,,,,,,,,,,,,,,,,,,,,,,,,,,,,,,,,,,,,,,,,,,,,,,,,,,,,,,,,201.4356505999458,None,1256.9510749692383,0.0,5.433665220867375e-05,1,"[0.4859434641529914, 0.4859434641529914, 0.4859434641529914, 0.4859434641529914]","[1995.2854586787287, 1777.5972574609382, 1583.6591180417324, 1410.8798782346396]",Tone,"[12.52289804512909, 11.0, 9.0, 7.2981642474797095]",False,202.45348119997652,204.9428938999772,204.9428938999772,206.17513170000166,['space'],1,2.975629759952426,4.012356059916783,None,1,None,1,[0.7855349999736063],,,,,,,regvnx,001,fr,0,0,2022-04-28_15h48.55.640,Cluster,2022.1.1,36.190527198261876,
,,,,0,0,0,0,5,0,5,0,,,time,,,,,,,,,,,,,,,,,,,,,,,,,,,,,,,,,,,,,,,,,,,,,,,,,,,,,,,,,,,,,,,,,,,,,,,,,,,,,,,,,,,,,,,,,,,,,,,,,,,,,,,,,,,,,,,,,,,,206.52455249999184,None,353.5533905932738,9.0,0.0002497434789550849,1,"[0.41963619554048975, 0.41963619554048975, 0.41963619554048975, 0.41963619554048975]","[335.3544514229928, 3797.295763502801, 698.286118449625, 1949.3127805797828]",None,"[20.80204783270314, 17.0, 9.613931926345405, 12.0]",False,207.5415829999838,209.8158341999515,209.8158341999515,211.0469481999753,['space'],1,2.7109009799314663,3.74272077990463,None,1,None,1,[0.6157768000266515],,,,,,,regvnx,001,fr,0,0,2022-04-28_15h48.55.640,Cluster,2022.1.1,36.190527198261876,
,,,,0,0,0,0,6,0,6,0,,,time,,,,,,,,,,,,,,,,,,,,,,,,,,,,,,,,,,,,,,,,,,,,,,,,,,,,,,,,,,,,,,,,,,,,,,,,,,,,,,,,,,,,,,,,,,,,,,,,,,,,,,,,,,,,,,,,,,,,211.32710779999616,None,519.8494537243505,8.0,0.0001716828553299767,1,"[0.4290300122375509, 0.4290300122375509, 0.4290300122375509, 0.4290300122375509]","[2021.3806897455524, 5529.104600723217, 1146.0867948307707, 1514.1735407024155]",None,"[12.52289804512909, 9.0, 5.284124547217322, 8.3344877233999]",False,212.3363084999728,214.6553881999571,214.6553881999571,215.88583499996457,['space'],1,2.739490459964145,3.769985659921076,None,1,None,1,[0.6254537999629974],,,,,,,regvnx,001,fr,0,0,2022-04-28_15h48.55.640,Cluster,2022.1.1,36.190527198261876,
,,,,0,0,0,0,7,0,7,0,,,both,,,,,,,,,,,,,,,,,,,,,,,,,,,,,,,,,,,,,,,,,,,,,,,,,,,,,,,,,,,,,,,,,,,,,,,,,,,,,,,,,,,,,,,,,,,,,,,,,,,,,,,,,,,,,,,,,,,,216.17060499999207,None,,,,,"[0.7610570063802452, 0.7610570063802452, 0.7610570063802452, 0.7610570063802452]","[357.0694926375827, 449.8793700493728, 566.81248823865, 714.1389852751653]",Major_3rd,"[20.0, 16.0, 12.355327238191471, 9.613931926345405]",True,217.1777392999502,220.49719909997657,220.49719909997657,221.73229009995703,['space'],0,4.077164259913843,5.104836359911133,None,1,None,1,[0.6702704000053927],0,,,,,,regvnx,001,fr,0,0,2022-04-28_15h48.55.640,Cluster,2022.1.1,36.190527198261876,
,,,,0,0,0,0,8,0,8,0,,,time,,,,,,,,,,,,,,,,,,,,,,,,,,,,,,,,,,,,,,,,,,,,,,,,,,,,,,,,,,,,,,,,,,,,,,,,,,,,,,,,,,,,,,,,,,,,,,,,,,,,,,,,,,,,,,,,,,,,222.3383280999842,None,176.7766952966369,15.0,0.0019683126003941904,1,"[0.6049708136220099, 0.6049708136220099, 0.6049708136220099, 0.6049708136220099]","[363.41578181363167, 1357.9759564813405, 407.8153045295107, 584.7530571702046]",None,"[20.0, 7.0, 17.88825572092145, 12.0]",False,223.3648009999888,226.20050479995552,226.20050479995552,227.43698559998302,['space'],1,3.43727527995361,4.467243879917078,None,1,None,1,[0.4298358999658376],,,,,,,regvnx,001,fr,0,0,2022-04-28_15h48.55.640,Cluster,2022.1.1,36.190527198261876,
,,,,0,0,0,0,9,0,9,0,,,time,,,,,,,,,,,,,,,,,,,,,,,,,,,,,,,,,,,,,,,,,,,,,,,,,,,,,,,,,,,,,,,,,,,,,,,,,,,,,,,,,,,,,,,,,,,,,,,,,,,,,,,,,,,,,,,,,,,,227.8771988999797,None,172.08424238847257,8.126603313503237,0.0009356799197568565,0,"[0.4996331915877346, 0.4996331915877346, 0.4996331915877346, 0.4996331915877346]","[772.898172710768, 4122.651702659084, 1587.218948597037, 716.8550502968876]",None,"[8.622515359074454, 16.0, 9.0, 9.613931926345405]",False,228.884743099974,231.40260989998933,231.40260989998933,232.64115829998627,None,0,3.00902535993373,4.042338659928646,None,1,None,1,,,,,,,,regvnx,001,fr,0,0,2022-04-28_15h48.55.640,Cluster,2022.1.1,36.190527198261876,
,,,,0,0,0,0,10,0,10,0,,,time,,,,,,,,,,,,,,,,,,,,,,,,,,,,,,,,,,,,,,,,,,,,,,,,,,,,,,,,,,,,,,,,,,,,,,,,,,,,,,,,,,,,,,,,,,,,,,,,,,,,,,,,,,,,,,,,,,,,232.99014599999646,None,8000.0,2.0,0.0002285440948074376,1,"[0.41221245944264834, 0.41221245944264834, 0.41221245944264834, 0.41221245944264834]","[376.6110779014642, 592.917888403728, 421.6918957977838, 1872.1471352587946]",None,"[19.12277952867055, 12.0, 17.0, 11.536491143744154]",False,234.66979889996583,236.93202659999952,236.93202659999952,238.14733809995232,['space'],1,2.6611095399130136,3.666569439927116,None,1,['space'],0,[0.367407199984882],,[-3.908060399990063],,,,,regvnx,001,fr,0,0,2022-04-28_15h48.55.640,Cluster,2022.1.1,36.190527198261876,
,,,,0,0,0,0,11,0,11,0,,,time,,,,,,,,,,,,,,,,,,,,,,,,,,,,,,,,,,,,,,,,,,,,,,,,,,,,,,,,,,,,,,,,,,,,,,,,,,,,,,,,,,,,,,,,,,,,,,,,,,,,,,,,,,,,,,,,,,,,238.38279479998164,None,1976.2448463189155,6.5228980451290886,0.00015625830570828878,1,"[0.42992523524299686, 0.42992523524299686, 0.42992523524299686, 0.42992523524299686]","[2817.5750752707418, 7128.256689835996, 423.2059303249241, 2752.119331023495]",None,"[16.81325778338057, 3.0, 17.0, 16.81325778338057]",False,239.37735460000113,241.68463239999255,241.68463239999255,242.8980563999503,['space'],1,2.7449272599769756,3.7728411599528044,None,1,None,1,[0.5898435999988578],,,,,,,regvnx,001,fr,0,0,2022-04-28_15h48.55.640,Cluster,2022.1.1,36.190527198261876,
,,,,0,0,0,0,12,0,12,0,,,both,,,,,,,,,,,,,,,,,,,,,,,,,,,,,,,,,,,,,,,,,,,,,,,,,,,,,,,,,,,,,,,,,,,,,,,,,,,,,,,,,,,,,,,,,,,,,,,,,,,,,,,,,,,,,,,,,,,,243.20354959997348,None,,,,,"[0.5626881938055267, 0.5626881938055267, 0.5626881938055267, 0.5626881938055267]","[230.68962353169007, 290.6507126799, 366.1969510723527, 461.3792470633801]",Major_3rd,"[17.0, 20.633006653856143, 20.0, 15.372550712580114]",True,244.1931652999483,246.9212397999945,246.9212397999945,248.1211345999618,None,1,3.2763671599677764,4.296011159953196,None,1,None,1,,0,,,,,,regvnx,001,fr,0,0,2022-04-28_15h48.55.640,Cluster,2022.1.1,36.190527198261876,
,,,,0,0,0,0,13,0,13,0,,,both,,,,,,,,,,,,,,,,,,,,,,,,,,,,,,,,,,,,,,,,,,,,,,,,,,,,,,,,,,,,,,,,,,,,,,,,,,,,,,,,,,,,,,,,,,,,,,,,,,,,,,,,,,,,,,,,,,,,248.53087969997432,None,353.5533905932738,9.0,0.0002497434789550849,1,"[0.45152798132553773, 0.45152798132553773, 0.45152798132553773, 0.45152798132553773]","[1781.7974362806788, 1189.2071150027211, 793.7005259840998, 529.7315471796477]",Perfect_5th,"[11.0, 5.284124547217322, 8.0, 13.265893656062651]",False,249.6045062999474,251.97220619994914,251.97220619994914,253.1863369999919,['space'],1,2.821162319916766,3.8431518199504353,None,1,None,1,[0.741404100030195],,,,,,,regvnx,001,fr,0,0,2022-04-28_15h48.55.640,Cluster,2022.1.1,36.190527198261876,
,,,,0,0,0,0,14,0,14,0,,,none,,,,,,,,,,,,,,,,,,,,,,,,,,,,,,,,,,,,,,,,,,,,,,,,,,,,,,,,,,,,,,,,,,,,,,,,,,,,,,,,,,,,,,,,,,,,,,,,,,,,,,,,,,,,,,,,,,,,253.4819778999663,None,1303.9059902552358,0.3909938402499131,5.561908379209044e-05,0,"[0.650258782167902, 0.7502383563044012, 0.5711843372022372, 0.654203280074614]","[445.3345941904228, 5611.4682779090745, 5346.846613008614, 418.07114657587147]",None,"[16.0, 9.0, 10.0, 17.0]",False,254.4971606999752,257.48119799996493,257.48119799996493,258.6885188999586,None,0,3.649631859967485,4.674697659967933,None,1,None,1,,,,,,,,regvnx,001,fr,0,0,2022-04-28_15h48.55.640,Cluster,2022.1.1,36.190527198261876,
,,,,0,0,0,0,15,0,15,0,,,time,,,,,,,,,,,,,,,,,,,,,,,,,,,,,,,,,,,,,,,,,,,,,,,,,,,,,,,,,,,,,,,,,,,,,,,,,,,,,,,,,,,,,,,,,,,,,,,,,,,,,,,,,,,,,,,,,,,,259.22496909997426,None,5278.031643091578,7.0,0.00031900269775884976,1,"[0.506649658395927, 0.506649658395927, 0.506649658395927, 0.506649658395927]","[474.290617738884, 1547.8319968944606, 1697.2505600442732, 7710.392391740396]",None,"[15.0, 8.3344877233999, 10.0, 2.0]",False,260.2277882999624,262.7913583999616,262.7913583999616,263.9978033999796,['space'],1,3.0752143799327314,4.095273579936475,None,1,None,1,[0.29946780001046136],,,,,,,regvnx,001,fr,0,0,2022-04-28_15h48.55.640,Cluster,2022.1.1,36.190527198261876,
,,,,0,0,0,0,16,0,16,0,,,both,,,,,,,,,,,,,,,,,,,,,,,,,,,,,,,,,,,,,,,,,,,,,,,,,,,,,,,,,,,,,,,,,,,,,,,,,,,,,,,,,,,,,,,,,,,,,,,,,,,,,,,,,,,,,,,,,,,,264.3569900000002,None,700.7266909258194,3.613931926345404,6.816264296912952e-05,1,"[0.6621817099466377, 0.6621817099466377, 0.6621817099466377, 0.6621817099466377]","[139.04178578973014, 208.32729163032428, 312.1382553562671, 467.67895696423574]",Perfect_5th,"[15.327392786078, 15.0, 20.98075289920411, 15.372550712580114]",False,265.35145550000016,268.3709842999815,268.3709842999815,269.60111479996704,['space'],1,3.660853759967722,4.6742350599961355,None,1,None,1,[0.7213625999866053],,,,,,,regvnx,001,fr,0,0,2022-04-28_15h48.55.640,Cluster,2022.1.1,36.190527198261876,
,,,,0,0,0,0,17,0,17,0,,,none,,,,,,,,,,,,,,,,,,,,,,,,,,,,,,,,,,,,,,,,,,,,,,,,,,,,,,,,,,,,,,,,,,,,,,,,,,,,,,,,,,,,,,,,,,,,,,,,,,,,,,,,,,,,,,,,,,,,270.08012199995574,None,176.7766952966369,15.0,0.0019683126003941904,1,"[0.4980661057679746, 0.6509568985369856, 0.611443167952586, 0.5008111712688721]","[127.97283227781755, 5296.800367431437, 244.03453857954457, 1146.7874293443494]",None,"[16.304623667533402, 10.594403300340517, 18.0, 5.284124547217322]",False,271.11065579997376,273.8917666999623,273.8917666999623,275.1158400999848,['space'],1,3.284307279973291,4.297334279981442,None,1,None,1,[0.4028447999735363],,,,,,,regvnx,001,fr,0,0,2022-04-28_15h48.55.640,Cluster,2022.1.1,36.190527198261876,
,,,,0,0,0,0,18,0,18,0,,,time,,,,,,,,,,,,,,,,,,,,,,,,,,,,,,,,,,,,,,,,,,,,,,,,,,,,,,,,,,,,,,,,,,,,,,,,,,,,,,,,,,,,,,,,,,,,,,,,,,,,,,,,,,,,,,,,,,,,275.4517766999779,None,239.4728422889805,12.0,0.0007488691362362986,1,"[0.46159521946106363, 0.46159521946106363, 0.46159521946106363, 0.46159521946106363]","[4287.2946549184, 1249.3236693739198, 3566.6220030763066, 1785.6127012496197]",None,"[15.470557145006092, 5.693825703056729, 17.64434753057462, 11.0]",False,276.447826299991,278.87054409994744,278.87054409994744,280.0708896999713,['space'],1,2.852965259924531,3.8828977599623613,None,1,None,1,[0.4972548999940045],,,,,,,regvnx,001,fr,0,0,2022-04-28_15h48.55.640,Cluster,2022.1.1,36.190527198261876,
,,,,0,0,0,0,19,0,19,0,,,both,,,,,,,,,,,,,,,,,,,,,,,,,,,,,,,,,,,,,,,,,,,,,,,,,,,,,,,,,,,,,,,,,,,,,,,,,,,,,,,,,,,,,,,,,,,,,,,,,,,,,,,,,,,,,,,,,,,,280.3807200999581,None,176.7766952966369,15.0,0.0019683126003941904,1,"[0.6508324953251301, 0.6508324953251301, 0.6508324953251301, 0.6508324953251301]","[280.61551207734334, 250.00000000000006, 222.72467953508487, 198.42513149602496]",Tone,"[20.633006653856143, 18.617590404467318, 16.003153653638293, 14.97933237528106]",False,281.41170489997603,284.37704559997655,284.37704559997655,285.5861006999621,['space'],1,3.638527079951018,4.6698879799223505,None,1,None,1,[0.32026070001302287],,,,,,,regvnx,001,fr,0,0,2022-04-28_15h48.55.640,Cluster,2022.1.1,36.190527198261876,
,,,,1,0,1,0,0,0,0,0,,,time,,,,,,,,,,,,,,,,,,,,,,,,,,,,,,,,,,,,,,,,,,,,,,,,,,,,,,,,,,,,,,,,,,,,,,,,,,,,,,,,,,,,,,,,,,,,,,,,,,,,,,,,,,,,,,,,,,,,317.9895057999529,None,,,,,"[0.642768643085594, 0.642768643085594, 0.642768643085594, 0.642768643085594]","[1001.8759290637782, 4026.1081580223613, 455.52660466223796, 6085.418989453055]",None,"[5.426462069149605, 16.54979423815134, 16.0, 6.726715130339082]",True,318.99488069996005,321.95440919999965,321.95440919999965,323.16578059998574,['space'],0,3.5869463598937728,4.602740759903099,None,1,None,1,[0.5440012000035495],0,,,,,,regvnx,001,fr,0,0,2022-04-28_15h48.55.640,Cluster,2022.1.1,36.190527198261876,
,,,,1,0,1,0,1,0,1,0,,,time,,,,,,,,,,,,,,,,,,,,,,,,,,,,,,,,,,,,,,,,,,,,,,,,,,,,,,,,,,,,,,,,,,,,,,,,,,,,,,,,,,,,,,,,,,,,,,,,,,,,,,,,,,,,,,,,,,,,323.64116969995666,None,1319.5079107728945,-3.0,3.7367906570294796e-05,0,"[0.4652878549463266, 0.4652878549463266, 0.4652878549463266, 0.4652878549463266]","[1877.4219494586491, 415.8573381472074, 893.7173862073038, 600.6201533062066]",None,"[11.536491143744154, 17.88825572092145, 6.71683490903075, 12.0]",False,324.6568876999663,327.0975141999661,327.0975141999661,328.31184169999324,None,0,2.9073231799411587,3.927693779929541,None,1,None,1,,,,,,,,regvnx,001,fr,0,0,2022-04-28_15h48.55.640,Cluster,2022.1.1,36.190527198261876,
,,,,1,0,1,0,2,0,2,0,,,frequency,,,,,,,,,,,,,,,,,,,,,,,,,,,,,,,,,,,,,,,,,,,,,,,,,,,,,,,,,,,,,,,,,,,,,,,,,,,,,,,,,,,,,,,,,,,,,,,,,,,,,,,,,,,,,,,,,,,,328.6162027999526,None,5204.241379450807,5.0,0.00025823175008500234,1,"[0.7202821855353723, 0.6849017353913602, 0.6252708778613558, 0.5725393421058207]","[2065.3045601091617, 2602.120689725404, 3278.4666313520024, 4130.6091202183225]",Major_3rd,"[13.0, 16.0, 17.65757271223528, 16.0]",False,329.61706469999626,332.6679405999603,332.6679405999603,333.89234199997736,['space'],1,3.625977259944193,4.649307459942065,None,1,None,1,[0.3616893999860622],,,,,,,regvnx,001,fr,0,0,2022-04-28_15h48.55.640,Cluster,2022.1.1,36.190527198261876,
,,,,1,0,1,0,3,0,3,0,,,both,,,,,,,,,,,,,,,,,,,,,,,,,,,,,,,,,,,,,,,,,,,,,,,,,,,,,,,,,,,,,,,,,,,,,,,,,,,,,,,,,,,,,,,,,,,,,,,,,,,,,,,,,,,,,,,,,,,,334.31695149996085,None,2349.8015539572275,8.384666307639753,0.00021678747607870602,1,"[0.4553047405688204, 0.4553047405688204, 0.4553047405688204, 0.4553047405688204]","[3730.0774586682137, 3323.121226491686, 2960.564440906395, 2637.5630653753774]",Tone,"[17.282368672321383, 17.65757271223528, 17.0, 16.09584262251017]",False,335.31807749997824,337.69879479997326,337.69879479997326,338.90628139994806,['space'],1,2.847523159929551,3.876138759893365,None,1,None,1,[0.2709335000254214],,,,,,,regvnx,001,fr,0,0,2022-04-28_15h48.55.640,Cluster,2022.1.1,36.190527198261876,
,,,,1,0,1,0,4,0,4,0,,,both,,,,,,,,,,,,,,,,,,,,,,,,,,,,,,,,,,,,,,,,,,,,,,,,,,,,,,,,,,,,,,,,,,,,,,,,,,,,,,,,,,,,,,,,,,,,,,,,,,,,,,,,,,,,,,,,,,,,339.2462853999459,None,,,,,"[0.7585371661843472, 0.7585371661843472, 0.7585371661843472, 0.7585371661843472]","[596.8583646527792, 531.7403519805001, 473.7267979629204, 422.04259705389325]",Tone,"[12.0, 13.265893656062651, 15.0, 17.0]",True,340.26409549999516,343.5659029999515,343.5659029999515,344.7865696999943,None,1,4.064354459929746,5.084391159936786,None,1,None,1,,0,,,,,,regvnx,001,fr,0,0,2022-04-28_15h48.55.640,Cluster,2022.1.1,36.190527198261876,
,,,,1,0,1,0,5,0,5,0,,,both,,,,,,,,,,,,,,,,,,,,,,,,,,,,,,,,,,,,,,,,,,,,,,,,,,,,,,,,,,,,,,,,,,,,,,,,,,,,,,,,,,,,,,,,,,,,,,,,,,,,,,,,,,,,,,,,,,,,345.3930300999782,None,8000.0,1.0,0.0002036901389020564,1,"[0.7916245172589024, 0.7916245172589024, 0.7916245172589024, 0.7916245172589024]","[3174.8021039364003, 4000.0000000000014, 5039.684199579494, 6349.604207872799]",Major_3rd,"[17.65757271223528, 16.54979423815134, 12.0, 6.0]",False,346.4225721999537,349.8253637999878,349.8253637999878,351.0315660999622,['space'],1,4.206707279896364,5.2348380798939615,None,1,None,1,[0.2828730000182986],,,,,,,regvnx,001,fr,0,0,2022-04-28_15h48.55.640,Cluster,2022.1.1,36.190527198261876,
,,,,1,0,1,0,6,0,6,0,,,time,,,,,,,,,,,,,,,,,,,,,,,,,,,,,,,,,,,,,,,,,,,,,,,,,,,,,,,,,,,,,,,,,,,,,,,,,,,,,,,,,,,,,,,,,,,,,,,,,,,,,,,,,,,,,,,,,,,,351.70114819996525,None,423.36600670929994,11.0,0.00026738895274930596,0,"[0.7375510413347393, 0.7375510413347393, 0.7375510413347393, 0.7375510413347393]","[3675.987510489478, 269.62305190201437, 1555.1091683995794, 1099.07567774672]",None,"[17.282368672321383, 19.799277483978315, 9.0, 5.192894796171436]",False,352.70723859994905,355.9650952999946,355.9650952999946,357.2001922999625,None,0,3.9792488599778153,5.007356659974903,None,1,None,1,,,,,,,,regvnx,001,fr,0,0,2022-04-28_15h48.55.640,Cluster,2022.1.1,36.190527198261876,
,,,,1,0,1,0,7,0,7,0,,,time,,,,,,,,,,,,,,,,,,,,,,,,,,,,,,,,,,,,,,,,,,,,,,,,,,,,,,,,,,,,,,,,,,,,,,,,,,,,,,,,,,,,,,,,,,,,,,,,,,,,,,,,,,,,,,,,,,,,357.77354629995534,None,353.5533905932738,9.0,0.0002497434789550849,1,"[0.7674880666909035, 0.7674880666909035, 0.7674880666909035, 0.7674880666909035]","[333.556818454392, 678.9961805253653, 211.49056210830784, 778.4995867593378]",None,"[20.80204783270314, 10.0, 16.0, 8.0]",False,360.000057999976,363.33733759995084,363.33733759995084,364.5731038999511,['space'],1,4.110938539844938,5.116483839810826,None,1,None,1,[0.34501009999075904],,,,,,,regvnx,001,fr,0,0,2022-04-28_15h48.55.640,Cluster,2022.1.1,36.190527198261876,
,,,,1,0,1,0,8,0,8,0,,,time,,,,,,,,,,,,,,,,,,,,,,,,,,,,,,,,,,,,,,,,,,,,,,,,,,,,,,,,,,,,,,,,,,,,,,,,,,,,,,,,,,,,,,,,,,,,,,,,,,,,,,,,,,,,,,,,,,,,365.1496801999747,None,,,,,"[0.7172793253774649, 0.7172793253774649, 0.7172793253774649, 0.7172793253774649]","[649.240987447931, 340.0930897405701, 152.95112438888177, 3779.0472041664925]",None,"[10.566442251539915, 20.80204783270314, 14.744118982546988, 17.282368672321383]",True,366.15717429999495,369.3408511999878,369.3408511999878,370.57491769996705,None,1,3.875159759889357,4.910673959879205,None,1,None,1,,0,,,,,,regvnx,001,fr,0,0,2022-04-28_15h48.55.640,Cluster,2022.1.1,36.190527198261876,
,,,,1,0,1,0,9,0,9,0,,,time,,,,,,,,,,,,,,,,,,,,,,,,,,,,,,,,,,,,,,,,,,,,,,,,,,,,,,,,,,,,,,,,,,,,,,,,,,,,,,,,,,,,,,,,,,,,,,,,,,,,,,,,,,,,,,,,,,,,371.12143689999357,None,6521.557884434093,-1.0865581870397054,0.00012064702276710329,0,"[0.7048227824341924, 0.7048227824341924, 0.7048227824341924, 0.7048227824341924]","[697.2303981473946, 7672.8602551106505, 3136.7321610645345, 168.99075762327791]",None,"[10.0, 2.0, 17.362623897012146, 14.298594675522626]",False,372.12924869998824,375.27943199995207,375.27943199995207,376.48395599995274,None,0,3.842175359954126,4.874003059929237,None,1,None,1,,,,,,,,regvnx,001,fr,0,0,2022-04-28_15h48.55.640,Cluster,2022.1.1,36.190527198261876,
,,,,1,0,1,0,10,0,10,0,,,none,,,,,,,,,,,,,,,,,,,,,,,,,,,,,,,,,,,,,,,,,,,,,,,,,,,,,,,,,,,,,,,,,,,,,,,,,,,,,,,,,,,,,,,,,,,,,,,,,,,,,,,,,,,,,,,,,,,,377.06072189996485,None,2231.497917411372,8.0,0.00020080889337505695,1,"[0.44132122314461797, 0.7631001722965838, 0.41867839640090787, 0.5179400778906047]","[508.43185040526834, 1300.4239688811667, 5247.595415713828, 500.39420386054877]",None,"[14.0, 6.390993840249913, 10.594403300340517, 14.259268945125038]",False,378.08161319996,380.7186557999812,380.7186557999812,381.95507559995167,['space'],1,3.1477158598718233,4.157771459897049,None,1,['space'],0,[0.3728359999950044],,[-3.566963100049179],,,,,regvnx,001,fr,0,0,2022-04-28_15h48.55.640,Cluster,2022.1.1,36.190527198261876,
,,,,1,0,1,0,11,0,11,0,,,frequency,,,,,,,,,,,,,,,,,,,,,,,,,,,,,,,,,,,,,,,,,,,,,,,,,,,,,,,,,,,,,,,,,,,,,,,,,,,,,,,,,,,,,,,,,,,,,,,,,,,,,,,,,,,,,,,,,,,,382.2818784999545,None,353.5533905932738,9.0,0.0002497434789550849,1,"[0.7740830797804034, 0.5772094947597525, 0.7234186914061278, 0.4164023900633031]","[140.30775603867167, 176.77669529663694, 222.72467953508487, 280.6155120773433]",Major_3rd,"[15.327392786078, 14.126603313503237, 16.003153653638293, 20.633006653856143]",False,383.2986081999843,386.4232329999795,386.4232329999795,387.63336339994567,['space'],1,3.5323929799487814,4.552396479994059,None,1,None,1,[0.3991712999995798],,,,,,,regvnx,001,fr,0,0,2022-04-28_15h48.55.640,Cluster,2022.1.1,36.190527198261876,
,,,,1,0,1,0,12,0,12,0,,,frequency,,,,,,,,,,,,,,,,,,,,,,,,,,,,,,,,,,,,,,,,,,,,,,,,,,,,,,,,,,,,,,,,,,,,,,,,,,,,,,,,,,,,,,,,,,,,,,,,,,,,,,,,,,,,,,,,,,,,387.8865037999931,None,679.9879593870917,4.0,7.414300028049737e-05,1,"[0.4378415525934825, 0.575908643010111, 0.5585496622209236, 0.4224096958759957]","[1079.413602056779, 961.6481944156305, 856.731143706857, 763.2606777193457]",Tone,"[5.192894796171436, 5.955121556066337, 7.0, 8.622515359074454]",False,388.88900029996876,391.5047869999544,391.5047869999544,392.738011199981,['space'],1,3.0169370599323884,4.023919359955471,None,1,None,1,[0.4495982999796979],,,,,,,regvnx,001,fr,0,0,2022-04-28_15h48.55.640,Cluster,2022.1.1,36.190527198261876,
,,,,1,0,1,0,13,0,13,0,,,both,,,,,,,,,,,,,,,,,,,,,,,,,,,,,,,,,,,,,,,,,,,,,,,,,,,,,,,,,,,,,,,,,,,,,,,,,,,,,,,,,,,,,,,,,,,,,,,,,,,,,,,,,,,,,,,,,,,,392.97812329995213,None,,,,,"[0.5626317098387599, 0.5626317098387599, 0.5626317098387599, 0.5626317098387599]","[229.43324302604447, 343.76145169668996, 515.0602158345521, 771.7183664025404]",Perfect_5th,"[17.0, 20.14564464232935, 14.0, 8.622515359074454]",True,393.98070379998535,396.6984107999597,396.6984107999597,397.91093459998956,None,1,3.2785317599773407,4.301478259963915,None,1,None,1,,0,,,,,,regvnx,001,fr,0,0,2022-04-28_15h48.55.640,Cluster,2022.1.1,36.190527198261876,
,,,,1,0,1,0,14,0,14,0,,,both,,,,,,,,,,,,,,,,,,,,,,,,,,,,,,,,,,,,,,,,,,,,,,,,,,,,,,,,,,,,,,,,,,,,,,,,,,,,,,,,,,,,,,,,,,,,,,,,,,,,,,,,,,,,,,,,,,,,398.3298182999715,None,150.7934536061238,9.0,0.0013897037952368407,1,"[0.601486058836359, 0.601486058836359, 0.601486058836359, 0.601486058836359]","[379.97569276940266, 301.5869072122476, 239.3696868842788, 189.98784638470133]",Major_3rd,"[19.12277952867055, 20.98075289920411, 18.0, 14.339567537691675]",False,399.3225354999886,402.1504893999663,402.1504893999663,403.378978099965,['space'],1,3.423400259925984,4.445010059920605,None,1,None,1,[0.25277900003129616],,,,,,,regvnx,001,fr,0,0,2022-04-28_15h48.55.640,Cluster,2022.1.1,36.190527198261876,
,,,,1,0,1,0,15,0,15,0,,,both,,,,,,,,,,,,,,,,,,,,,,,,,,,,,,,,,,,,,,,,,,,,,,,,,,,,,,,,,,,,,,,,,,,,,,,,,,,,,,,,,,,,,,,,,,,,,,,,,,,,,,,,,,,,,,,,,,,,403.8180082999752,None,5278.031643091578,7.0,0.00031900269775884976,1,"[0.5448696783250988, 0.5448696783250988, 0.5448696783250988, 0.5448696783250988]","[1047.294122820627, 1569.168195793502, 2351.095812567218, 3522.6634943845947]",Perfect_5th,"[5.192894796171436, 9.0, 14.384666307639753, 17.64434753057462]",False,405.5553971999907,408.21358569996664,408.21358569996664,409.43187929998385,['space'],1,3.2113640998722985,4.2498868998955,None,1,None,1,[0.21500700002070516],,,,,,,regvnx,001,fr,0,0,2022-04-28_15h48.55.640,Cluster,2022.1.1,36.190527198261876,
,,,,1,0,1,0,16,0,16,0,,,none,,,,,,,,,,,,,,,,,,,,,,,,,,,,,,,,,,,,,,,,,,,,,,,,,,,,,,,,,,,,,,,,,,,,,,,,,,,,,,,,,,,,,,,,,,,,,,,,,,,,,,,,,,,,,,,,,,,,409.8384043999831,None,574.3491774985172,1.0,6.714853925532655e-05,0,"[0.5311520691306326, 0.662341233071594, 0.6135752451745545, 0.4885852816655228]","[199.1448653202347, 5566.0932389641985, 2307.5437768261663, 3685.7919707880856]",None,"[14.97933237528106, 9.0, 14.384666307639753, 17.282368672321383]",False,410.8592417999753,413.68171909998637,413.68171909998637,414.89871139999013,None,0,3.3193971799337305,4.343031579919625,None,1,None,1,,,,,,,,regvnx,001,fr,0,0,2022-04-28_15h48.55.640,Cluster,2022.1.1,36.190527198261876,
,,,,1,0,1,0,17,0,17,0,,,frequency,,,,,,,,,,,,,,,,,,,,,,,,,,,,,,,,,,,,,,,,,,,,,,,,,,,,,,,,,,,,,,,,,,,,,,,,,,,,,,,,,,,,,,,,,,,,,,,,,,,,,,,,,,,,,,,,,,,,415.2451431999798,None,176.7766952966369,15.0,0.0019683126003941904,1,"[0.518478195171451, 0.432810891963949, 0.5255892147524035, 0.6536680880441517]","[890.8987181403394, 594.6035575013606, 396.8502629920499, 264.86577358982385]",Perfect_5th,"[6.71683490903075, 12.0, 18.0, 19.799277483978315]",False,416.26492909999797,418.7788737999508,418.7788737999508,420.0058882999583,['space'],1,3.160676279978361,4.178319779981393,None,1,None,1,[0.2083188000251539],,,,,,,regvnx,001,fr,0,0,2022-04-28_15h48.55.640,Cluster,2022.1.1,36.190527198261876,
,,,,1,0,1,0,18,0,18,0,,,time,,,,,,,,,,,,,,,,,,,,,,,,,,,,,,,,,,,,,,,,,,,,,,,,,,,,,,,,,,,,,,,,,,,,,,,,,,,,,,,,,,,,,,,,,,,,,,,,,,,,,,,,,,,,,,,,,,,,420.4838613999891,None,2462.2888266898335,9.0,0.0002397301456511786,1,"[0.4582954424161399, 0.4582954424161399, 0.4582954424161399, 0.4582954424161399]","[538.9438390233422, 2926.5861882956247, 4979.365229911552, 355.0234524428034]",None,"[13.265893656062651, 17.0, 12.0, 20.14564464232935]",False,421.5120389999938,423.9216444999911,423.9216444999911,425.1340638999827,['space'],1,2.870249179948587,3.894307079957798,None,1,None,1,[0.4441662000026554],,,,,,,regvnx,001,fr,0,0,2022-04-28_15h48.55.640,Cluster,2022.1.1,36.190527198261876,
,,,,1,0,1,0,19,0,19,0,,,both,,,,,,,,,,,,,,,,,,,,,,,,,,,,,,,,,,,,,,,,,,,,,,,,,,,,,,,,,,,,,,,,,,,,,,,,,,,,,,,,,,,,,,,,,,,,,,,,,,,,,,,,,,,,,,,,,,,,425.4552821999532,None,,,,,"[0.4302668122602936, 0.4302668122602936, 0.4302668122602936, 0.4302668122602936]","[3408.3800448338525, 3825.777246540999, 4294.289764527803, 4820.177285125853]",Tone,"[17.64434753057462, 17.0, 15.470557145006092, 13.0]",True,426.4553973999573,428.7823339999886,428.7823339999886,429.99021249997895,None,1,2.749877159949392,3.7658279599272646,None,1,None,1,,0,,,,,,regvnx,001,fr,0,0,2022-04-28_15h48.55.640,Cluster,2022.1.1,36.190527198261876,
,,,,2,0,2,0,0,0,0,0,,,frequency,,,,,,,,,,,,,,,,,,,,,,,,,,,,,,,,,,,,,,,,,,,,,,,,,,,,,,,,,,,,,,,,,,,,,,,,,,,,,,,,,,,,,,,,,,,,,,,,,,,,,,,,,,,,,,,,,,,,492.0184866999625,None,4254.284302447147,9.470557145006092,0.00030180184998512653,1,"[0.7884671695789106, 0.4720858021715828, 0.5840666302297257, 0.6733049937978859]","[6753.2553770764, 6016.466558711718, 5360.062344890488, 4775.2726722152365]",Tone,"[4.0, 7.0, 10.0, 13.0]",False,493.00315039994894,495.8637060999754,495.8637060999754,497.0699937999598,['space'],1,3.532921259989962,4.542400459991768,None,1,None,1,[0.18717360001755878],,,,,,,regvnx,001,fr,0,0,2022-04-28_15h48.55.640,Cluster,2022.1.1,36.190527198261876,
,,,,2,0,2,0,1,0,1,0,,,both,,,,,,,,,,,,,,,,,,,,,,,,,,,,,,,,,,,,,,,,,,,,,,,,,,,,,,,,,,,,,,,,,,,,,,,,,,,,,,,,,,,,,,,,,,,,,,,,,,,,,,,,,,,,,,,,,,,,497.60242779995315,None,989.4079052111202,-0.5735379308503946,4.095576344429143e-05,1,"[0.44727753439242723, 0.44727753439242723, 0.44727753439242723, 0.44727753439242723]","[1570.5871495577849, 1399.23407826872, 1246.5758467078817, 1110.57282389676]",Tone,"[9.0, 7.2981642474797095, 5.693825703056729, 5.284124547217322]",False,498.60227390000364,500.97148979996564,500.97148979996564,502.19981239998015,['space'],1,2.797497159917839,3.817622859904077,None,1,None,1,[0.6980441999621689],,,,,,,regvnx,001,fr,0,0,2022-04-28_15h48.55.640,Cluster,2022.1.1,36.190527198261876,
,,,,2,0,2,0,2,0,2,0,,,frequency,,,,,,,,,,,,,,,,,,,,,,,,,,,,,,,,,,,,,,,,,,,,,,,,,,,,,,,,,,,,,,,,,,,,,,,,,,,,,,,,,,,,,,,,,,,,,,,,,,,,,,,,,,,,,,,,,,,,502.4765339999576,None,8000.0,1.0,0.0002036901389020564,1,"[0.582872490194618, 0.6693240408518337, 0.5342785594991172, 0.5867040473467391]","[5039.684199579492, 5656.8542494923795, 6349.604207872798, 7127.189745122714]",Tone,"[12.0, 8.659620615606642, 6.0, 3.0]",False,503.5034681999823,506.3139752999996,506.3139752999996,507.5383646999835,['space'],1,3.4114153999253176,4.422989099926781,None,1,None,1,[0.2805621000006795],,,,,,,regvnx,001,fr,0,0,2022-04-28_15h48.55.640,Cluster,2022.1.1,36.190527198261876,
,,,,2,0,2,0,3,0,3,0,,,none,,,,,,,,,,,,,,,,,,,,,,,,,,,,,,,,,,,,,,,,,,,,,,,,,,,,,,,,,,,,,,,,,,,,,,,,,,,,,,,,,,,,,,,,,,,,,,,,,,,,,,,,,,,,,,,,,,,,507.950446199975,None,,,,,"[0.44089638539617654, 0.4113008080520904, 0.6191520031473241, 0.7832031582083097]","[7680.573373649769, 4003.9725442018394, 678.4800764507795, 4292.511647012616]",None,"[2.0, 16.54979423815134, 10.0, 15.470557145006092]",True,508.9623040999868,511.46859899995616,511.46859899995616,512.6789335999638,['space'],0,3.269753959903028,4.288431959925219,None,1,None,1,[0.3325585999991745],0,,,,,,regvnx,001,fr,0,0,2022-04-28_15h48.55.640,Cluster,2022.1.1,36.190527198261876,
,,,,2,0,2,0,4,0,4,0,,,time,,,,,,,,,,,,,,,,,,,,,,,,,,,,,,,,,,,,,,,,,,,,,,,,,,,,,,,,,,,,,,,,,,,,,,,,,,,,,,,,,,,,,,,,,,,,,,,,,,,,,,,,,,,,,,,,,,,,513.3037598999799,None,1077.5223174334144,-0.8071052038285635,4.30982641715166e-05,0,"[0.5857123109224811, 0.5857123109224811, 0.5857123109224811, 0.5857123109224811]","[215.95404447994906, 813.1147353300486, 4788.996753767922, 373.702714919553]",None,"[16.0, 7.634078609966959, 13.0, 19.12277952867055]",False,514.3019581999979,517.079516400001,517.079516400001,518.2869511999888,None,0,3.3628696599043906,4.38702005991945,None,1,None,1,,,,,,,,regvnx,001,fr,0,0,2022-04-28_15h48.55.640,Cluster,2022.1.1,36.190527198261876,
,,,,2,0,2,0,5,0,5,0,,,time,,,,,,,,,,,,,,,,,,,,,,,,,,,,,,,,,,,,,,,,,,,,,,,,,,,,,,,,,,,,,,,,,,,,,,,,,,,,,,,,,,,,,,,,,,,,,,,,,,,,,,,,,,,,,,,,,,,,518.7409647000022,None,1741.101126592249,0.0,6.312169477569904e-05,1,"[0.4834402442343076, 0.4834402442343076, 0.4834402442343076, 0.4834402442343076]","[1892.085697283803, 210.74504826775336, 7516.604878609925, 5426.640089419094]",None,"[11.536491143744154, 16.0, 2.0, 10.0]",False,520.814115599962,523.2978297999944,523.2978297999944,524.5094295999734,['space'],1,2.9475000198581256,3.9523487198748626,None,1,None,1,[0.8854573999997228],,,,,,,regvnx,001,fr,0,0,2022-04-28_15h48.55.640,Cluster,2022.1.1,36.190527198261876,
,,,,2,0,2,0,6,0,6,0,,,none,,,,,,,,,,,,,,,,,,,,,,,,,,,,,,,,,,,,,,,,,,,,,,,,,,,,,,,,,,,,,,,,,,,,,,,,,,,,,,,,,,,,,,,,,,,,,,,,,,,,,,,,,,,,,,,,,,,,524.823317399947,None,4438.586971128196,9.0,0.00032162696166950834,1,"[0.40579828858538397, 0.7304864806132345, 0.45517068626482354, 0.7953756374387154]","[212.50856879117669, 1248.4509207900528, 852.4948738466747, 2623.7339687197855]",None,"[16.0, 5.693825703056729, 7.0, 16.0]",False,525.837747099984,528.4435998999979,528.4435998999979,529.6633298999513,['space'],1,3.396216759982053,4.402335759950802,None,1,None,1,[0.27445670001907274],,,,,,,regvnx,001,fr,0,0,2022-04-28_15h48.55.640,Cluster,2022.1.1,36.190527198261876,
,,,,2,0,2,0,7,0,7,0,,,frequency,,,,,,,,,,,,,,,,,,,,,,,,,,,,,,,,,,,,,,,,,,,,,,,,,,,,,,,,,,,,,,,,,,,,,,,,,,,,,,,,,,,,,,,,,,,,,,,,,,,,,,,,,,,,,,,,,,,,530.2985352999531,None,153.4217696145501,8.744118982546988,0.001285327077280382,1,"[0.5879575856534769, 0.5520511477396741, 0.6720980233735426, 0.7670742555945669]","[773.1972681979734, 516.0472643630259, 344.4202275535933, 229.87292316042425]",Perfect_5th,"[8.622515359074454, 14.0, 20.14564464232935, 17.0]",False,531.3103100999724,534.1380989999743,534.1380989999743,535.3440182999475,['space'],1,3.609820759971626,4.637659759959206,None,1,None,1,[0.30009450000943616],,,,,,,regvnx,001,fr,0,0,2022-04-28_15h48.55.640,Cluster,2022.1.1,36.190527198261876,
,,,,2,0,2,0,8,0,8,0,,,frequency,,,,,,,,,,,,,,,,,,,,,,,,,,,,,,,,,,,,,,,,,,,,,,,,,,,,,,,,,,,,,,,,,,,,,,,,,,,,,,,,,,,,,,,,,,,,,,,,,,,,,,,,,,,,,,,,,,,,536.0016818000004,None,,,,,"[0.5329797488508827, 0.6215196217558596, 0.43081070097717356, 0.785765581115307]","[472.7533939455303, 708.3297557660578, 1061.2954858266157, 1590.1465370712942]",Perfect_5th,"[15.0, 9.613931926345405, 5.192894796171436, 9.0]",True,537.0215549999848,539.6472580999834,539.6472580999834,540.8486909999629,None,1,3.379761559946928,4.3931685599382035,None,1,None,1,,0,,,,,,regvnx,001,fr,0,0,2022-04-28_15h48.55.640,Cluster,2022.1.1,36.190527198261876,
,,,,2,0,2,0,9,0,9,0,,,frequency,,,,,,,,,,,,,,,,,,,,,,,,,,,,,,,,,,,,,,,,,,,,,,,,,,,,,,,,,,,,,,,,,,,,,,,,,,,,,,,,,,,,,,,,,,,,,,,,,,,,,,,,,,,,,,,,,,,,541.4616882999544,None,233.2582478842019,10.0,0.0006333504368662428,1,"[0.6643075987170424, 0.7963927909723436, 0.547590316622173, 0.6267287050407839]","[146.94348828545108, 164.9384888466118, 185.13719403582056, 207.80947403569698]",Tone,"[15.0, 14.298594675522626, 14.339567537691675, 15.0]",False,542.4877542000031,545.5251361999544,545.5251361999544,546.7339041999658,['space'],1,3.660168279951904,4.689209679956548,None,1,None,1,[0.20508849999168888],,,,,,,regvnx,001,fr,0,0,2022-04-28_15h48.55.640,Cluster,2022.1.1,36.190527198261876,
,,,,2,0,2,0,10,0,10,0,,,frequency,,,,,,,,,,,,,,,,,,,,,,,,,,,,,,,,,,,,,,,,,,,,,,,,,,,,,,,,,,,,,,,,,,,,,,,,,,,,,,,,,,,,,,,,,,,,,,,,,,,,,,,,,,,,,,,,,,,,547.2171411999734,None,1063.9942140095516,-0.8071052038285635,4.2582632414342174e-05,1,"[0.5629091145199738, 0.6337041458700392, 0.41907841987714, 0.5459300910451111]","[5362.1948287879395, 3578.8356816453024, 2388.5862496929653, 1594.1900606063534]",Perfect_5th,"[10.0, 17.64434753057462, 15.0, 9.0]",False,548.2294578999863,550.874696099956,550.874696099956,552.085285499983,['space'],1,3.1737536599393934,4.194594059954397,None,1,None,1,[0.5843563000089489],,,,,,,regvnx,001,fr,0,0,2022-04-28_15h48.55.640,Cluster,2022.1.1,36.190527198261876,
,,,,2,0,2,0,11,0,11,0,,,both,,,,,,,,,,,,,,,,,,,,,,,,,,,,,,,,,,,,,,,,,,,,,,,,,,,,,,,,,,,,,,,,,,,,,,,,,,,,,,,,,,,,,,,,,,,,,,,,,,,,,,,,,,,,,,,,,,,,552.4808424999937,None,466.5164957684038,0.0,7.315559622348784e-05,0,"[0.5917959981838407, 0.5917959981838407, 0.5917959981838407, 0.5917959981838407]","[740.5487761432823, 659.7539553864473, 587.7739531418044, 523.6470614103134]",Tone,"[9.0, 10.566442251539915, 12.0, 13.265893656062651]",False,553.5094189999509,556.320001599961,556.320001599961,557.5404645999661,None,0,3.406543779943604,4.414396379957907,None,1,None,1,,,,,,,,regvnx,001,fr,0,0,2022-04-28_15h48.55.640,Cluster,2022.1.1,36.190527198261876,
,,,,2,0,2,0,12,0,12,0,,,frequency,,,,,,,,,,,,,,,,,,,,,,,,,,,,,,,,,,,,,,,,,,,,,,,,,,,,,,,,,,,,,,,,,,,,,,,,,,,,,,,,,,,,,,,,,,,,,,,,,,,,,,,,,,,,,,,,,,,,557.9582996999961,None,,,,,"[0.48607186943350955, 0.4759449356970548, 0.7986861371098564, 0.6097606297108921]","[403.06796784585714, 319.915258086599, 253.91690861367263, 201.53398392292854]",Major_3rd,"[18.0, 20.80204783270314, 19.0, 14.97933237528106]",True,558.9775888999575,561.7567450999632,561.7567450999632,562.9611996999593,None,1,3.386397359892726,4.403840059938375,None,1,None,1,,0,,,,,,regvnx,001,fr,0,0,2022-04-28_15h48.55.640,Cluster,2022.1.1,36.190527198261876,
,,,,2,0,2,0,13,0,13,0,,,none,,,,,,,,,,,,,,,,,,,,,,,,,,,,,,,,,,,,,,,,,,,,,,,,,,,,,,,,,,,,,,,,,,,,,,,,,,,,,,,,,,,,,,,,,,,,,,,,,,,,,,,,,,,,,,,,,,,,563.4323821999715,None,8000.0,2.0,0.0002285440948074376,1,"[0.4488943571313653, 0.6012928655650003, 0.4844436959476923, 0.4396971903556387]","[1030.8771055756088, 215.99316933047615, 418.2140290480277, 299.27566760812664]",None,"[5.426462069149605, 16.0, 17.0, 20.98075289920411]",False,564.5152455999632,567.0733226999873,567.0733226999873,568.2772478999686,['space'],1,3.0016703198780306,4.028496419894509,None,1,None,1,[0.22654770000372082],,,,,,,regvnx,001,fr,0,0,2022-04-28_15h48.55.640,Cluster,2022.1.1,36.190527198261876,
,,,,2,0,2,0,14,0,14,0,,,frequency,,,,,,,,,,,,,,,,,,,,,,,,,,,,,,,,,,,,,,,,,,,,,,,,,,,,,,,,,,,,,,,,,,,,,,,,,,,,,,,,,,,,,,,,,,,,,,,,,,,,,,,,,,,,,,,,,,,,568.5810348999803,None,466.5164957684038,0.0,7.315559622348784e-05,0,"[0.6387902555318399, 0.5626024171362579, 0.7475031803038129, 0.6974304184267812]","[185.1371940358206, 233.25824788420195, 293.8869765709023, 370.27438807164117]",Major_3rd,"[14.339567537691675, 17.281977057807488, 20.633006653856143, 19.12277952867055]",False,569.6083096999791,572.574848899967,572.574848899967,573.777313300001,None,0,3.6716412799432874,4.696532379952259,None,1,None,1,,,,,,,,regvnx,001,fr,0,0,2022-04-28_15h48.55.640,Cluster,2022.1.1,36.190527198261876,
,,,,2,0,2,0,15,0,15,0,,,time,,,,,,,,,,,,,,,,,,,,,,,,,,,,,,,,,,,,,,,,,,,,,,,,,,,,,,,,,,,,,,,,,,,,,,,,,,,,,,,,,,,,,,,,,,,,,,,,,,,,,,,,,,,,,,,,,,,,574.3564101999509,None,436.24658339433023,10.600949711291051,0.00025315202359465605,0,"[0.6420679283200692, 0.6420679283200692, 0.6420679283200692, 0.6420679283200692]","[374.5653553761312, 5655.007548361033, 575.4631704907215, 2328.124089960064]",None,"[19.12277952867055, 8.659620615606642, 12.355327238191471, 14.384666307639753]",False,575.3576598999789,578.312529399991,578.312529399991,579.5326730999514,None,0,3.5741379599203356,4.598704559903126,None,1,None,1,,,,,,,,regvnx,001,fr,0,0,2022-04-28_15h48.55.640,Cluster,2022.1.1,36.190527198261876,
,,,,2,0,2,0,16,0,16,0,,,time,,,,,,,,,,,,,,,,,,,,,,,,,,,,,,,,,,,,,,,,,,,,,,,,,,,,,,,,,,,,,,,,,,,,,,,,,,,,,,,,,,,,,,,,,,,,,,,,,,,,,,,,,,,,,,,,,,,,580.0143972999649,None,125.0,13.0,0.003228271145173279,1,"[0.6175077086842687, 0.6175077086842687, 0.6175077086842687, 0.6175077086842687]","[4400.727832377579, 1011.7570009239724, 938.4868648140969, 874.8803443437049]",None,"[15.0, 5.426462069149605, 5.955121556066337, 6.71683490903075]",False,581.9884575000033,584.8823108999641,584.8823108999641,586.0864146999666,['space'],1,3.509826959867496,4.527771059889346,None,1,None,1,[0.35282899998128414],,,,,,,regvnx,001,fr,0,0,2022-04-28_15h48.55.640,Cluster,2022.1.1,36.190527198261876,
,,,,2,0,2,0,17,0,17,0,,,frequency,,,,,,,,,,,,,,,,,,,,,,,,,,,,,,,,,,,,,,,,,,,,,,,,,,,,,,,,,,,,,,,,,,,,,,,,,,,,,,,,,,,,,,,,,,,,,,,,,,,,,,,,,,,,,,,,,,,,586.5512393999961,None,228.53869164518548,11.0,0.0007434387253024739,1,"[0.7891692668044099, 0.5923859958505345, 0.4476421432759552, 0.669937358749968]","[143.97035415960138, 161.60125862581202, 181.3912797665017, 203.60482743216602]",Tone,"[15.327392786078, 14.298594675522626, 14.126603313503237, 15.0]",False,587.5642917999648,590.4082429999835,590.4082429999835,591.6277328999713,['space'],1,3.5190399599377997,4.549316759919748,None,1,None,1,[0.19884690002072603],,,,,,,regvnx,001,fr,0,0,2022-04-28_15h48.55.640,Cluster,2022.1.1,36.190527198261876,
,,,,2,0,2,0,18,0,18,0,,,time,,,,,,,,,,,,,,,,,,,,,,,,,,,,,,,,,,,,,,,,,,,,,,,,,,,,,,,,,,,,,,,,,,,,,,,,,,,,,,,,,,,,,,,,,,,,,,,,,,,,,,,,,,,,,,,,,,,,592.1770918999682,None,2452.166937753174,9.26914224171804,0.000246622468909822,1,"[0.5706328441741747, 0.5706328441741747, 0.5706328441741747, 0.5706328441741747]","[3600.6575644160102, 145.82519182589058, 130.73986892700336, 186.0746690305196]",None,"[17.64434753057462, 15.327392786078, 16.0, 14.339567537691675]",False,593.1685237999773,595.9011197999935,595.9011197999935,597.130334299989,['space'],1,3.2988358599250205,4.308189359959215,None,1,None,1,[0.3063127999776043],,,,,,,regvnx,001,fr,0,0,2022-04-28_15h48.55.640,Cluster,2022.1.1,36.190527198261876,
,,,,2,0,2,0,19,0,19,0,,,time,,,,,,,,,,,,,,,,,,,,,,,,,,,,,,,,,,,,,,,,,,,,,,,,,,,,,,,,,,,,,,,,,,,,,,,,,,,,,,,,,,,,,,,,,,,,,,,,,,,,,,,,,,,,,,,,,,,,597.5323260999867,None,707.1067811865476,-2.0,3.527051522850936e-05,1,"[0.6712112004041684, 0.6712112004041684, 0.6712112004041684, 0.6712112004041684]","[1259.4739822164859, 420.46501835630846, 680.9647536566489, 6819.347699953799]",None,"[6.0, 17.0, 10.0, 4.0]",False,599.6068815999897,602.636634399998,602.636634399998,603.8634249999886,['space'],1,3.7134579198318534,4.727221119857859,None,1,None,1,[0.40540420002071187],,,,,,,regvnx,001,fr,0,0,2022-04-28_15h48.55.640,Cluster,2022.1.1,36.190527198261876,
,,,,3,0,3,0,0,0,0,0,,,frequency,,,,,,,,,,,,,,,,,,,,,,,,,,,,,,,,,,,,,,,,,,,,,,,,,,,,,,,,,,,,,,,,,,,,,,,,,,,,,,,,,,,,,,,,,,,,,,,,,,,,,,,,,,,,,,,,,,,,645.806343299977,None,,,,,"[0.4808401830999151, 0.41641274938317335, 0.6561803611936061, 0.4234089650162218]","[473.67164042699926, 375.95343015066067, 298.39443525610585, 236.8358202134996]",Major_3rd,"[15.0, 19.12277952867055, 20.98075289920411, 17.281977057807488]",True,646.77278509998,649.3506637999672,649.3506637999672,650.5571598999668,None,1,2.9936924599460326,4.018866159953177,None,1,None,1,,0,,,,,,regvnx,001,fr,0,0,2022-04-28_15h48.55.640,Cluster,2022.1.1,36.190527198261876,
,,,,3,0,3,0,1,0,1,0,,,both,,,,,,,,,,,,,,,,,,,,,,,,,,,,,,,,,,,,,,,,,,,,,,,,,,,,,,,,,,,,,,,,,,,,,,,,,,,,,,,,,,,,,,,,,,,,,,,,,,,,,,,,,,,,,,,,,,,,650.8482332999702,None,459.26144152378123,9.372550712580114,0.00021630685481031635,1,"[0.6922992642889303, 0.6922992642889303, 0.6922992642889303, 0.6922992642889303]","[729.0320954032821, 649.4937592779496, 578.6331575808754, 515.5035383622989]",Tone,"[9.0, 10.566442251539915, 12.355327238191471, 14.0]",False,651.8392361999722,654.9328535999521,654.9328535999521,656.1572860999731,['space'],1,3.7850622599362396,4.795878559933044,None,1,None,1,[0.2829778000013903],,,,,,,regvnx,001,fr,0,0,2022-04-28_15h48.55.640,Cluster,2022.1.1,36.190527198261876,
,,,,3,0,3,0,2,0,2,0,,,frequency,,,,,,,,,,,,,,,,,,,,,,,,,,,,,,,,,,,,,,,,,,,,,,,,,,,,,,,,,,,,,,,,,,,,,,,,,,,,,,,,,,,,,,,,,,,,,,,,,,,,,,,,,,,,,,,,,,,,656.6938305999502,None,2143.5469250725882,6.0,0.00015561814320749588,0,"[0.5233601582189618, 0.4952398162186262, 0.7940905200002251, 0.558441505737077]","[3402.668643803426, 3031.4331330207992, 2700.6998923363826, 2406.0500721642356]",Tone,"[17.64434753057462, 17.362623897012146, 16.09584262251017, 15.0]",False,657.7253318000003,660.5636871999595,660.5636871999595,661.7955352999852,None,0,3.392350079957396,4.401111079961993,None,1,None,1,,,,,,,,regvnx,001,fr,0,0,2022-04-28_15h48.55.640,Cluster,2022.1.1,36.190527198261876,
,,,,3,0,3,0,3,0,3,0,,,time,,,,,,,,,,,,,,,,,,,,,,,,,,,,,,,,,,,,,,,,,,,,,,,,,,,,,,,,,,,,,,,,,,,,,,,,,,,,,,,,,,,,,,,,,,,,,,,,,,,,,,,,,,,,,,,,,,,,662.1631075999467,None,4345.106321829283,9.0,0.0003034990776234051,1,"[0.6011694683083461, 0.6011694683083461, 0.6011694683083461, 0.6011694683083461]","[322.2069087468394, 395.2167459890628, 3086.990591220473, 545.5925469048917]",None,"[20.80204783270314, 18.0, 17.362623897012146, 13.0]",False,663.1875950999674,666.0335646999883,666.0335646999883,667.2575697999564,['space'],1,3.435210859926883,4.4440830599633045,None,1,None,1,[0.7247287000063807],,,,,,,regvnx,001,fr,0,0,2022-04-28_15h48.55.640,Cluster,2022.1.1,36.190527198261876,
,,,,3,0,3,0,4,0,4,0,,,time,,,,,,,,,,,,,,,,,,,,,,,,,,,,,,,,,,,,,,,,,,,,,,,,,,,,,,,,,,,,,,,,,,,,,,,,,,,,,,,,,,,,,,,,,,,,,,,,,,,,,,,,,,,,,,,,,,,,667.6949088999536,None,8000.0,-1.0,0.00016179682846481421,1,"[0.4195499356109959, 0.4195499356109959, 0.4195499356109959, 0.4195499356109959]","[3234.74363307947, 5314.986999706092, 3352.9825103119338, 880.8947758661515]",None,"[17.65757271223528, 10.594403300340517, 17.65757271223528, 6.71683490903075]",False,669.7220745999948,672.0076155999559,672.0076155999559,673.2176252999925,['space'],1,2.712730399915017,3.728712099895347,None,1,None,1,[0.26655980001669377],,,,,,,regvnx,001,fr,0,0,2022-04-28_15h48.55.640,Cluster,2022.1.1,36.190527198261876,
,,,,3,0,3,0,5,0,5,0,,,frequency,,,,,,,,,,,,,,,,,,,,,,,,,,,,,,,,,,,,,,,,,,,,,,,,,,,,,,,,,,,,,,,,,,,,,,,,,,,,,,,,,,,,,,,,,,,,,,,,,,,,,,,,,,,,,,,,,,,,673.4903339999728,None,200.81102676820217,8.97933237528106,0.0007418721944731897,1,"[0.4647478284531985, 0.7946268670685706, 0.7242504533914489, 0.41750287575815054]","[318.7676351386584, 283.98967752965814, 253.00603967626077, 225.40275642934455]",Tone,"[20.98075289920411, 20.633006653856143, 19.0, 17.0]",False,674.4930248999735,677.5135872999672,677.5135872999672,678.7201898999629,['space'],1,3.4037230599788018,4.425012859981507,None,1,None,1,[0.34522240003570914],,,,,,,regvnx,001,fr,0,0,2022-04-28_15h48.55.640,Cluster,2022.1.1,36.190527198261876,
,,,,3,0,3,0,6,0,6,0,,,frequency,,,,,,,,,,,,,,,,,,,,,,,,,,,,,,,,,,,,,,,,,,,,,,,,,,,,,,,,,,,,,,,,,,,,,,,,,,,,,,,,,,,,,,,,,,,,,,,,,,,,,,,,,,,,,,,,,,,,678.9737384999753,None,,,,,"[0.6231985198238434, 0.5580071759110719, 0.7925852684388861, 0.664241245959369]","[130.6821655741215, 195.8020135012765, 293.3715424956661, 439.5606582754846]",Perfect_5th,"[16.0, 14.339567537691675, 20.633006653856143, 16.60094971129105]",True,679.965909099963,682.9699383999687,682.9699383999687,684.1940100999782,['space'],0,3.655908259912394,4.664813359908294,None,1,None,1,[0.5269310000003316],0,,,,,,regvnx,001,fr,0,0,2022-04-28_15h48.55.640,Cluster,2022.1.1,36.190527198261876,
,,,,3,0,3,0,7,0,7,0,,,both,,,,,,,,,,,,,,,,,,,,,,,,,,,,,,,,,,,,,,,,,,,,,,,,,,,,,,,,,,,,,,,,,,,,,,,,,,,,,,,,,,,,,,,,,,,,,,,,,,,,,,,,,,,,,,,,,,,,684.6847252000007,None,233.2582478842019,10.0,0.0006333504368662428,1,"[0.5414508605848887, 0.5414508605848887, 0.5414508605848887, 0.5414508605848887]","[146.94348828545108, 164.9384888466118, 185.13719403582056, 207.80947403569698]",Tone,"[15.0, 14.298594675522626, 14.339567537691675, 15.0]",False,685.695029399998,688.363719899964,688.363719899964,689.5741063999594,['space'],1,3.203700179932639,4.242449479934294,None,1,None,1,[0.23662629997124895],,,,,,,regvnx,001,fr,0,0,2022-04-28_15h48.55.640,Cluster,2022.1.1,36.190527198261876,
,,,,3,0,3,0,8,0,8,0,,,frequency,,,,,,,,,,,,,,,,,,,,,,,,,,,,,,,,,,,,,,,,,,,,,,,,,,,,,,,,,,,,,,,,,,,,,,,,,,,,,,,,,,,,,,,,,,,,,,,,,,,,,,,,,,,,,,,,,,,,689.9934401999926,None,1515.7165665103996,-2.0,3.942273189957413e-05,0,"[0.47014721893816114, 0.5149032280397827, 0.7128419019265245, 0.7165776465291085]","[7638.7328312833415, 5098.2425092770545, 3402.6686438034267, 2271.008858141757]",Perfect_5th,"[2.0, 12.0, 17.64434753057462, 14.384666307639753]",False,691.020068999962,693.7316053999821,693.7316053999821,694.9400961999781,None,0,3.4293973799212836,4.4489405798958614,None,1,None,1,,,,,,,,regvnx,001,fr,0,0,2022-04-28_15h48.55.640,Cluster,2022.1.1,36.190527198261876,
,,,,3,0,3,0,9,0,9,0,,,both,,,,,,,,,,,,,,,,,,,,,,,,,,,,,,,,,,,,,,,,,,,,,,,,,,,,,,,,,,,,,,,,,,,,,,,,,,,,,,,,,,,,,,,,,,,,,,,,,,,,,,,,,,,,,,,,,,,,695.5136379999458,None,191.75158497699886,8.339567537691675,0.0007718102299906608,1,"[0.6537900285444074, 0.6537900285444074, 0.6537900285444074, 0.6537900285444074]","[483.18371652645277, 383.5031699539977, 304.3866677090576, 241.59185826322638]",Major_3rd,"[15.0, 19.0, 20.98075289920411, 18.0]",False,696.5200198999955,699.4993561999872,699.4993561999872,700.7052832999616,['space'],1,3.6229524599038996,4.625905259861611,None,1,None,1,[0.2930697000119835],,,,,,,regvnx,001,fr,0,0,2022-04-28_15h48.55.640,Cluster,2022.1.1,36.190527198261876,
,,,,3,0,3,0,10,0,10,0,,,time,,,,,,,,,,,,,,,,,,,,,,,,,,,,,,,,,,,,,,,,,,,,,,,,,,,,,,,,,,,,,,,,,,,,,,,,,,,,,,,,,,,,,,,,,,,,,,,,,,,,,,,,,,,,,,,,,,,,701.2031111999531,None,,,,,"[0.4026505518541639, 0.4026505518541639, 0.4026505518541639, 0.4026505518541639]","[5456.270070517921, 702.4049611067901, 3561.6077104499936, 214.06616745357482]",None,"[10.0, 9.613931926345405, 17.64434753057462, 16.0]",True,702.2086754999473,704.4473605999956,704.4473605999956,705.6527320999885,None,1,2.617325059894938,3.6285457598860376,None,1,None,1,,0,,,,,,regvnx,001,fr,0,0,2022-04-28_15h48.55.640,Cluster,2022.1.1,36.190527198261876,
,,,,3,0,3,0,11,0,11,0,,,none,,,,,,,,,,,,,,,,,,,,,,,,,,,,,,,,,,,,,,,,,,,,,,,,,,,,,,,,,,,,,,,,,,,,,,,,,,,,,,,,,,,,,,,,,,,,,,,,,,,,,,,,,,,,,,,,,,,,705.8897179999622,None,4808.268745302358,7.0,0.0003124220930661792,1,"[0.42539853495992697, 0.6728344173786965, 0.7432326474077007, 0.703546408426297]","[7944.307355575975, 261.2440834426575, 399.01324203329693, 1431.2657054163615]",None,"[1.3824614138877873, 19.0, 18.0, 7.2981642474797095]",False,706.8855417000013,709.7428652999806,709.7428652999806,710.9695309999515,['space'],1,3.5667499599512666,4.568673659930937,None,1,None,1,[0.3682851000339724],,,,,,,regvnx,001,fr,0,0,2022-04-28_15h48.55.640,Cluster,2022.1.1,36.190527198261876,
,,,,3,0,3,0,12,0,12,0,,,frequency,,,,,,,,,,,,,,,,,,,,,,,,,,,,,,,,,,,,,,,,,,,,,,,,,,,,,,,,,,,,,,,,,,,,,,,,,,,,,,,,,,,,,,,,,,,,,,,,,,,,,,,,,,,,,,,,,,,,711.514174699958,None,320.6863640670208,14.802047832703137,0.0005339768416067727,1,"[0.7691922746850548, 0.7151615587472616, 0.5439226732909829, 0.6984147541478383]","[808.0790010045807, 641.3727281340416, 509.0578716718458, 404.03950050229037]",Major_3rd,"[7.634078609966959, 11.0, 14.0, 18.0]",False,712.532107899955,715.57692089997,715.57692089997,716.8021032999968,['space'],1,3.748873759934213,4.754454759939108,None,1,None,1,[0.2828414000105113],,,,,,,regvnx,001,fr,0,0,2022-04-28_15h48.55.640,Cluster,2022.1.1,36.190527198261876,
,,,,3,0,3,0,13,0,13,0,,,both,,,,,,,,,,,,,,,,,,,,,,,,,,,,,,,,,,,,,,,,,,,,,,,,,,,,,,,,,,,,,,,,,,,,,,,,,,,,,,,,,,,,,,,,,,,,,,,,,,,,,,,,,,,,,,,,,,,,717.3524838999729,None,1741.101126592249,-2.0,5.0139344383985924e-05,0,"[0.5218533313089266, 0.5218533313089266, 0.5218533313089266, 0.5218533313089266]","[1096.8249796946263, 1231.1444133449168, 1381.9128799677767, 1551.1447618337354]",Tone,"[5.192894796171436, 5.693825703056729, 7.0, 9.0]",False,718.3807995999814,720.9755501999753,720.9755501999753,722.1872784000007,None,0,3.1262915799743496,4.134827779955231,None,1,None,1,,,,,,,,regvnx,001,fr,0,0,2022-04-28_15h48.55.640,Cluster,2022.1.1,36.190527198261876,
,,,,3,0,3,0,14,0,14,0,,,none,,,,,,,,,,,,,,,,,,,,,,,,,,,,,,,,,,,,,,,,,,,,,,,,,,,,,,,,,,,,,,,,,,,,,,,,,,,,,,,,,,,,,,,,,,,,,,,,,,,,,,,,,,,,,,,,,,,,722.5560907999752,None,,,,,"[0.4172636379960522, 0.6921496122990425, 0.4529603557376529, 0.7522924571780644]","[275.551086064559, 5057.389595261392, 293.0382874497761, 204.79628091917334]",None,"[20.0, 12.0, 20.633006653856143, 15.0]",True,723.5708690999891,726.1796462999773,726.1796462999773,727.3773343999637,None,1,3.337309159920551,4.357212659902871,None,1,None,1,,0,,,,,,regvnx,001,fr,0,0,2022-04-28_15h48.55.640,Cluster,2022.1.1,36.190527198261876,
,,,,3,0,3,0,15,0,15,0,,,time,,,,,,,,,,,,,,,,,,,,,,,,,,,,,,,,,,,,,,,,,,,,,,,,,,,,,,,,,,,,,,,,,,,,,,,,,,,,,,,,,,,,,,,,,,,,,,,,,,,,,,,,,,,,,,,,,,,,727.979553299956,None,1279.6517242436455,0.0,5.3773069484503365e-05,0,"[0.7389882067663677, 0.7389882067663677, 0.7389882067663677, 0.7389882067663677]","[1468.5642491612475, 271.24128661281514, 635.0502383911014, 211.0951648746933]",None,"[8.0, 20.0, 11.0, 16.0]",False,728.9741449999856,732.2125861999812,732.2125861999812,733.4316845999565,None,0,3.9783011599211022,5.002799959911499,None,1,None,1,,,,,,,,regvnx,001,fr,0,0,2022-04-28_15h48.55.640,Cluster,2022.1.1,36.190527198261876,
,,,,3,0,3,0,16,0,16,0,,,frequency,,,,,,,,,,,,,,,,,,,,,,,,,,,,,,,,,,,,,,,,,,,,,,,,,,,,,,,,,,,,,,,,,,,,,,,,,,,,,,,,,,,,,,,,,,,,,,,,,,,,,,,,,,,,,,,,,,,,734.0319233999471,None,125.0,10.0,0.002285440948074376,1,"[0.6706690146289838, 0.46147963783120594, 0.6937271907925961, 0.41757031104329956]","[314.9802624737183, 250.00000000000003, 198.42513149602496, 157.49013123685916]",Major_3rd,"[20.98075289920411, 18.617590404467318, 14.97933237528106, 14.744118982546988]",False,735.05320819997,737.9140511999722,737.9140511999722,739.1307316999882,['space'],1,3.2748076799325645,4.2747252799454145,None,1,None,1,[0.38659259997075424],,,,,,,regvnx,001,fr,0,0,2022-04-28_15h48.55.640,Cluster,2022.1.1,36.190527198261876,
,,,,3,0,3,0,17,0,17,0,,,time,,,,,,,,,,,,,,,,,,,,,,,,,,,,,,,,,,,,,,,,,,,,,,,,,,,,,,,,,,,,,,,,,,,,,,,,,,,,,,,,,,,,,,,,,,,,,,,,,,,,,,,,,,,,,,,,,,,,739.3697999999858,None,2000.0,-3.0,5.296268625886443e-05,1,"[0.582009809685404, 0.582009809685404, 0.582009809685404, 0.582009809685404]","[2811.298078388899, 166.6365081162923, 1082.7851561494708, 177.67186665723253]",None,"[16.81325778338057, 14.298594675522626, 5.192894796171436, 14.126603313503237]",False,740.4006742999773,743.1863700999529,743.1863700999529,744.3911481999676,['space'],1,3.3593997799325734,4.384056779905222,None,1,None,1,[0.5463606999837793],,,,,,,regvnx,001,fr,0,0,2022-04-28_15h48.55.640,Cluster,2022.1.1,36.190527198261876,
,,,,3,0,3,0,18,0,18,0,,,frequency,,,,,,,,,,,,,,,,,,,,,,,,,,,,,,,,,,,,,,,,,,,,,,,,,,,,,,,,,,,,,,,,,,,,,,,,,,,,,,,,,,,,,,,,,,,,,,,,,,,,,,,,,,,,,,,,,,,,744.8227043999941,None,,,,,"[0.7484420014104627, 0.4375329394737308, 0.44013958173499135, 0.5127732389315449]","[1018.1451415875925, 1525.4940709283007, 2285.658562205291, 3424.6183990759682]",Perfect_5th,"[5.426462069149605, 8.3344877233999, 14.384666307639753, 17.64434753057462]",True,745.8217575000017,748.4637632999802,748.4637632999802,749.6786208999692,None,1,3.1664789599599317,4.172030559973791,None,1,None,1,,0,,,,,,regvnx,001,fr,0,0,2022-04-28_15h48.55.640,Cluster,2022.1.1,36.190527198261876,
,,,,3,0,3,0,19,0,19,0,,,none,,,,,,,,,,,,,,,,,,,,,,,,,,,,,,,,,,,,,,,,,,,,,,,,,,,,,,,,,,,,,,,,,,,,,,,,,,,,,,,,,,,,,,,,,,,,,,,,,,,,,,,,,,,,,,,,,,,,750.0448421999463,None,757.8582832551998,1.0,4.5199635245948114e-05,0,"[0.45965756197411234, 0.4925150049004368, 0.7442341852572302, 0.46832404941985517]","[251.3368219896218, 949.962511662192, 1389.8129377288449, 194.60715177334137]",None,"[18.617590404467318, 5.955121556066337, 7.0, 14.339567537691675]",False,751.0861895999988,753.8149948999635,753.8149948999635,755.0194747999776,None,0,3.1995375799015164,4.225987579906359,None,1,None,1,,,,,,,,regvnx,001,fr,0,0,2022-04-28_15h48.55.640,Cluster,2022.1.1,36.190527198261876,
,,,,4,0,4,0,0,0,0,0,,,time,,,,,,,,,,,,,,,,,,,,,,,,,,,,,,,,,,,,,,,,,,,,,,,,,,,,,,,,,,,,,,,,,,,,,,,,,,,,,,,,,,,,,,,,,,,,,,,,,,,,,,,,,,,,,,,,,,,,800.3582325999741,None,177.4977681754,8.126603313503237,0.000885428580296869,1,"[0.5882488901819711, 0.5882488901819711, 0.5882488901819711, 0.5882488901819711]","[170.6535842017867, 3409.849993541977, 151.83317859508125, 7416.996926376431]",None,"[14.298594675522626, 17.64434753057462, 14.744118982546988, 2.136293798126348]",False,801.3497789999819,804.1215808999841,804.1215808999841,805.3513648999506,['space'],1,3.366219259914942,4.369343759957701,None,1,None,1,[0.3266058000153862],,,,,,,regvnx,001,fr,0,0,2022-04-28_15h48.55.640,Cluster,2022.1.1,36.190527198261876,
,,,,4,0,4,0,1,0,1,0,,,time,,,,,,,,,,,,,,,,,,,,,,,,,,,,,,,,,,,,,,,,,,,,,,,,,,,,,,,,,,,,,,,,,,,,,,,,,,,,,,,,,,,,,,,,,,,,,,,,,,,,,,,,,,,,,,,,,,,,805.7730090999976,None,250.0,7.0,0.00037494710466622793,1,"[0.5037649180224428, 0.5037649180224428, 0.5037649180224428, 0.5037649180224428]","[3533.4886109322524, 686.2915211908107, 260.9644792460456, 3635.351950325182]",None,"[17.64434753057462, 10.0, 19.0, 17.282368672321383]",False,807.9219154999591,810.4619507999741,810.4619507999741,811.6639795999508,['space'],1,3.041688579833135,4.066528679803014,None,1,None,1,[0.31805840000743046],,,,,,,regvnx,001,fr,0,0,2022-04-28_15h48.55.640,Cluster,2022.1.1,36.190527198261876,
,,,,4,0,4,0,2,0,2,0,,,time,,,,,,,,,,,,,,,,,,,,,,,,,,,,,,,,,,,,,,,,,,,,,,,,,,,,,,,,,,,,,,,,,,,,,,,,,,,,,,,,,,,,,,,,,,,,,,,,,,,,,,,,,,,,,,,,,,,,812.0214992999681,None,,,,,"[0.6091233751761705, 0.6091233751761705, 0.6091233751761705, 0.6091233751761705]","[5714.273009316649, 205.2561903926834, 5098.321114823944, 2857.937857076459]",None,"[8.659620615606642, 15.0, 12.0, 16.81325778338057]",True,813.0198193999822,815.8763820999884,815.8763820999884,817.0792339000036,None,1,3.4620999599574134,4.481802859925665,None,1,None,1,,0,,,,,,regvnx,001,fr,0,0,2022-04-28_15h48.55.640,Cluster,2022.1.1,36.190527198261876,
,,,,4,0,4,0,3,0,3,0,,,both,,,,,,,,,,,,,,,,,,,,,,,,,,,,,,,,,,,,,,,,,,,,,,,,,,,,,,,,,,,,,,,,,,,,,,,,,,,,,,,,,,,,,,,,,,,,,,,,,,,,,,,,,,,,,,,,,,,,817.5553475999623,None,313.0496309181644,14.98075289920411,0.0005649534496788995,1,"[0.6145322990572788, 0.6145322990572788, 0.6145322990572788, 0.6145322990572788]","[788.8356393112324, 626.0992618363288, 496.9353134377507, 394.4178196556162]",Major_3rd,"[8.0, 11.47188555211849, 14.259268945125038, 18.0]",False,818.5695219999761,821.4317868999788,821.4317868999788,822.6518488999573,['space'],1,3.4770309599116445,4.505575059913099,None,1,None,1,[0.2921930000302382],,,,,,,regvnx,001,fr,0,0,2022-04-28_15h48.55.640,Cluster,2022.1.1,36.190527198261876,
,,,,4,0,4,0,4,0,4,0,,,frequency,,,,,,,,,,,,,,,,,,,,,,,,,,,,,,,,,,,,,,,,,,,,,,,,,,,,,,,,,,,,,,,,,,,,,,,,,,,,,,,,,,,,,,,,,,,,,,,,,,,,,,,,,,,,,,,,,,,,823.1390491999919,None,946.7987046223019,-0.04487844393366321,4.232113300063071e-05,0,"[0.6034289922039043, 0.6661004744715768, 0.661037337849951, 0.41889941838309364]","[4771.566471867346, 3184.638546735017, 2125.49122665402, 1418.5951995132698]",Perfect_5th,"[13.0, 17.65757271223528, 13.468582492803527, 7.2981642474797095]",False,824.1475298999576,827.1081433999934,827.1081433999934,828.3242135999608,None,0,3.3673247598926537,4.400839559908491,None,1,None,1,,,,,,,,regvnx,001,fr,0,0,2022-04-28_15h48.55.640,Cluster,2022.1.1,36.190527198261876,
,,,,4,0,4,0,5,0,5,0,,,time,,,,,,,,,,,,,,,,,,,,,,,,,,,,,,,,,,,,,,,,,,,,,,,,,,,,,,,,,,,,,,,,,,,,,,,,,,,,,,,,,,,,,,,,,,,,,,,,,,,,,,,,,,,,,,,,,,,,828.6109438999556,None,2575.769481540987,10.0,0.0002567354411720087,1,"[0.6278870855884091, 0.6278870855884091, 0.6278870855884091, 0.6278870855884091]","[6526.927667448866, 1305.620024203642, 320.7957290744392, 1394.4360238904312]",None,"[4.913441812960294, 6.390993840249913, 20.80204783270314, 7.0]",False,829.6253977000015,832.543742299953,832.543742299953,833.7683127999771,['space'],1,3.5323567599407397,4.541407459939364,None,1,None,1,[0.3016926000127569],,,,,,,regvnx,001,fr,0,0,2022-04-28_15h48.55.640,Cluster,2022.1.1,36.190527198261876,
,,,,4,0,4,0,6,0,6,0,,,both,,,,,,,,,,,,,,,,,,,,,,,,,,,,,,,,,,,,,,,,,,,,,,,,,,,,,,,,,,,,,,,,,,,,,,,,,,,,,,,,,,,,,,,,,,,,,,,,,,,,,,,,,,,,,,,,,,,,834.2266635999549,None,,,,,"[0.7399635880148414, 0.7399635880148414, 0.7399635880148414, 0.7399635880148414]","[436.6401843135321, 346.5615439554447, 275.0660797232981, 218.32009215676604]",Major_3rd,"[16.60094971129105, 20.14564464232935, 20.0, 16.003153653638293]",True,835.2183204999892,838.4502502999967,838.4502502999967,839.6605423999717,['space'],0,3.9915687599568628,5.009059459960554,None,1,None,1,[0.683117599983234],0,,,,,,regvnx,001,fr,0,0,2022-04-28_15h48.55.640,Cluster,2022.1.1,36.190527198261876,
,,,,4,0,4,0,7,0,7,0,,,both,,,,,,,,,,,,,,,,,,,,,,,,,,,,,,,,,,,,,,,,,,,,,,,,,,,,,,,,,,,,,,,,,,,,,,,,,,,,,,,,,,,,,,,,,,,,,,,,,,,,,,,,,,,,,,,,,,,,840.2814064999693,None,125.0,10.0,0.002285440948074376,1,"[0.6905415515073003, 0.6905415515073003, 0.6905415515073003, 0.6905415515073003]","[314.9802624737183, 250.00000000000003, 198.42513149602496, 157.49013123685916]",Major_3rd,"[20.98075289920411, 18.617590404467318, 14.97933237528106, 14.744118982546988]",False,841.2881548999576,844.3868336000014,844.3868336000014,845.6090051999781,['space'],1,3.78041167993797,4.788912579941098,None,1,None,1,[0.4196251999819651],,,,,,,regvnx,001,fr,0,0,2022-04-28_15h48.55.640,Cluster,2022.1.1,36.190527198261876,
,,,,4,0,4,0,8,0,8,0,,,both,,,,,,,,,,,,,,,,,,,,,,,,,,,,,,,,,,,,,,,,,,,,,,,,,,,,,,,,,,,,,,,,,,,,,,,,,,,,,,,,,,,,,,,,,,,,,,,,,,,,,,,,,,,,,,,,,,,,846.1123518999666,None,277.9209452592113,14.0,0.0006911523302212519,1,"[0.7890420411434619, 0.7890420411434619, 0.7890420411434619, 0.7890420411434619]","[1400.6337965550442, 934.8109063695784, 623.9114269674628, 416.4109190941331]",Perfect_5th,"[7.2981642474797095, 5.955121556066337, 11.47188555211849, 17.0]",False,847.1333234999911,850.5216975999647,850.5216975999647,851.7342045999831,['space'],1,4.170470659970306,5.189907359948847,None,1,None,1,[0.17111379996640608],,,,,,,regvnx,001,fr,0,0,2022-04-28_15h48.55.640,Cluster,2022.1.1,36.190527198261876,
,,,,4,0,4,0,9,0,9,0,,,both,,,,,,,,,,,,,,,,,,,,,,,,,,,,,,,,,,,,,,,,,,,,,,,,,,,,,,,,,,,,,,,,,,,,,,,,,,,,,,,,,,,,,,,,,,,,,,,,,,,,,,,,,,,,,,,,,,,,852.392562199966,None,8000.0,-3.0,0.00012851978913844324,1,"[0.7374422200917631, 0.7374422200917631, 0.7374422200917631, 0.7374422200917631]","[3174.8021039364003, 4000.0000000000014, 5039.684199579494, 6349.604207872799]",Major_3rd,"[17.65757271223528, 16.54979423815134, 12.0, 6.0]",False,854.3846917999908,857.6330465999781,857.6330465999781,858.8422595000011,['space'],1,3.971433159778826,4.9726744598010555,None,1,None,1,[0.2228198999655433],,,,,,,regvnx,001,fr,0,0,2022-04-28_15h48.55.640,Cluster,2022.1.1,36.190527198261876,
,,,,4,0,4,0,10,0,10,0,,,none,,,,,,,,,,,,,,,,,,,,,,,,,,,,,,,,,,,,,,,,,,,,,,,,,,,,,,,,,,,,,,,,,,,,,,,,,,,,,,,,,,,,,,,,,,,,,,,,,,,,,,,,,,,,,,,,,,,,859.4067516999785,None,,,,,"[0.4568200806361229, 0.730436270816081, 0.5219093480508082, 0.5982593498769675]","[464.6591887853305, 548.8177238181992, 948.7978636073609, 527.7707372030295]",None,"[15.372550712580114, 13.0, 5.955121556066337, 13.265893656062651]",True,860.4251186999609,863.1457523999852,863.1457523999852,864.3603462000028,None,1,3.3382467599003576,4.357854459900409,None,1,None,1,,0,,,,,,regvnx,001,fr,0,0,2022-04-28_15h48.55.640,Cluster,2022.1.1,36.190527198261876,
,,,,4,0,4,0,11,0,11,0,,,none,,,,,,,,,,,,,,,,,,,,,,,,,,,,,,,,,,,,,,,,,,,,,,,,,,,,,,,,,,,,,,,,,,,,,,,,,,,,,,,,,,,,,,,,,,,,,,,,,,,,,,,,,,,,,,,,,,,,864.8337520999485,None,175.76041024060748,8.126603313503237,0.0009015556972223272,1,"[0.471104951425045, 0.4109112967835586, 0.7532505034984317, 0.5683913133752643]","[158.87567315377487, 3910.799443564923, 181.02737697433093, 296.9570063877641]",None,"[14.744118982546988, 17.0, 14.126603313503237, 20.633006653856143]",False,865.846328399959,868.5019131999579,868.5019131999579,869.718993699993,['space'],1,3.2348113599582575,4.243269359925762,None,1,None,1,[0.31375889998162165],,,,,,,regvnx,001,fr,0,0,2022-04-28_15h48.55.640,Cluster,2022.1.1,36.190527198261876,
,,,,4,0,4,0,12,0,12,0,,,both,,,,,,,,,,,,,,,,,,,,,,,,,,,,,,,,,,,,,,,,,,,,,,,,,,,,,,,,,,,,,,,,,,,,,,,,,,,,,,,,,,,,,,,,,,,,,,,,,,,,,,,,,,,,,,,,,,,,870.1541730999597,None,243.56377021155495,12.0,0.0007169612235869546,1,"[0.699883160595032, 0.699883160595032, 0.699883160595032, 0.699883160595032]","[613.742242162592, 487.12754042310996, 386.63338505516316, 306.87112108129594]",Major_3rd,"[11.47188555211849, 15.0, 19.0, 20.98075289920411]",False,871.1650210999651,874.3040892999852,874.3040892999852,875.5096219999832,['space'],1,3.807330359937623,4.831635459908284,None,1,None,1,[0.31095470004947856],,,,,,,regvnx,001,fr,0,0,2022-04-28_15h48.55.640,Cluster,2022.1.1,36.190527198261876,
,,,,4,0,4,0,13,0,13,0,,,time,,,,,,,,,,,,,,,,,,,,,,,,,,,,,,,,,,,,,,,,,,,,,,,,,,,,,,,,,,,,,,,,,,,,,,,,,,,,,,,,,,,,,,,,,,,,,,,,,,,,,,,,,,,,,,,,,,,,876.0623456999892,None,267.9433656340732,5.0,0.00026402711396027797,0,"[0.7893966736683387, 0.7893966736683387, 0.7893966736683387, 0.7893966736683387]","[1504.1187504070194, 159.18476521690383, 7180.492599052977, 281.00989944042203]",None,"[8.3344877233999, 14.744118982546988, 3.0, 20.633006653856143]",False,877.0881942999549,880.4835160999792,880.4835160999792,881.695955299947,None,0,4.188460879959166,5.20877217996167,None,1,None,1,,,,,,,,regvnx,001,fr,0,0,2022-04-28_15h48.55.640,Cluster,2022.1.1,36.190527198261876,
,,,,4,0,4,0,14,0,14,0,,,frequency,,,,,,,,,,,,,,,,,,,,,,,,,,,,,,,,,,,,,,,,,,,,,,,,,,,,,,,,,,,,,,,,,,,,,,,,,,,,,,,,,,,,,,,,,,,,,,,,,,,,,,,,,,,,,,,,,,,,882.3365170999896,None,,,,,"[0.7596999690323147, 0.7208095633141807, 0.7041065850701378, 0.5684328016422953]","[143.20782087567233, 180.430548030834, 227.32824550811569, 286.4156417513446]",Major_3rd,"[15.327392786078, 14.126603313503237, 17.0, 20.633006653856143]",True,883.3351953999954,886.5596434999607,886.5596434999607,887.772447699972,None,1,3.778267559944652,4.8074119599186815,None,1,None,1,,0,,,,,,regvnx,001,fr,0,0,2022-04-28_15h48.55.640,Cluster,2022.1.1,36.190527198261876,
,,,,4,0,4,0,15,0,15,0,,,both,,,,,,,,,,,,,,,,,,,,,,,,,,,,,,,,,,,,,,,,,,,,,,,,,,,,,,,,,,,,,,,,,,,,,,,,,,,,,,,,,,,,,,,,,,,,,,,,,,,,,,,,,,,,,,,,,,,,888.1997669999837,None,1000.0,-7.0,1.9677503772788864e-05,0,"[0.5317326227083247, 0.5317326227083247, 0.5317326227083247, 0.5317326227083247]","[396.85026299205003, 500.00000000000017, 629.9605249474367, 793.7005259840998]",Major_3rd,"[18.0, 14.259268945125038, 11.0, 8.0]",False,889.2180402999511,891.8494899999932,891.8494899999932,893.0718926999834,None,0,3.1473881799029186,4.171826279954985,None,1,None,1,,,,,,,,regvnx,001,fr,0,0,2022-04-28_15h48.55.640,Cluster,2022.1.1,36.190527198261876,
,,,,4,0,4,0,16,0,16,0,,,none,,,,,,,,,,,,,,,,,,,,,,,,,,,,,,,,,,,,,,,,,,,,,,,,,,,,,,,,,,,,,,,,,,,,,,,,,,,,,,,,,,,,,,,,,,,,,,,,,,,,,,,,,,,,,,,,,,,,893.4408060999704,None,267.9433656340732,9.0,0.0004184547755407993,0,"[0.7420929931539233, 0.6973380135442195, 0.739242687318526, 0.4638880578824207]","[422.974227818525, 254.4007278313461, 138.78650714926994, 581.0301969203296]",None,"[17.0, 19.0, 15.327392786078, 12.355327238191471]",False,894.5400888999575,897.7551833000034,897.7551833000034,898.9816786999581,None,0,3.6737288399599493,4.686221639974974,None,1,None,1,,,,,,,,regvnx,001,fr,0,0,2022-04-28_15h48.55.640,Cluster,2022.1.1,36.190527198261876,
,,,,4,0,4,0,17,0,17,0,,,both,,,,,,,,,,,,,,,,,,,,,,,,,,,,,,,,,,,,,,,,,,,,,,,,,,,,,,,,,,,,,,,,,,,,,,,,,,,,,,,,,,,,,,,,,,,,,,,,,,,,,,,,,,,,,,,,,,,,899.2614252999774,None,395.02433824949645,12.0,0.00030991090442680937,1,"[0.5067399119608238, 0.5067399119608238, 0.5067399119608238, 0.5067399119608238]","[995.3989579626663, 790.048676498993, 627.0620500902926, 497.6994789813331]",Major_3rd,"[5.426462069149605, 8.0, 11.0, 14.259268945125038]",False,900.2554825999541,902.7998682999751,902.7998682999751,904.0056918999762,['space'],1,3.045173159916885,4.071950759913307,None,1,None,1,[0.6568660999764688],,,,,,,regvnx,001,fr,0,0,2022-04-28_15h48.55.640,Cluster,2022.1.1,36.190527198261876,
,,,,4,0,4,0,18,0,18,0,,,none,,,,,,,,,,,,,,,,,,,,,,,,,,,,,,,,,,,,,,,,,,,,,,,,,,,,,,,,,,,,,,,,,,,,,,,,,,,,,,,,,,,,,,,,,,,,,,,,,,,,,,,,,,,,,,,,,,,,904.3906572999549,None,1129.3001128733197,-0.7158754527826777,4.554769944723204e-05,1,"[0.5726559651997937, 0.6295571757211688, 0.6406989175224621, 0.5714767566431549]","[307.6994678821565, 202.40675280889775, 7962.319681884692, 681.4930412541161]",None,"[20.98075289920411, 14.97933237528106, 1.3824614138877873, 10.0]",False,905.4071883999859,908.2743515999755,908.2743515999755,909.5095863000024,['space'],1,3.4277276599314064,4.447699259908404,None,1,None,1,[0.17756029998417944],,,,,,,regvnx,001,fr,0,0,2022-04-28_15h48.55.640,Cluster,2022.1.1,36.190527198261876,
,,,,4,0,4,0,19,0,19,0,,,time,,,,,,,,,,,,,,,,,,,,,,,,,,,,,,,,,,,,,,,,,,,,,,,,,,,,,,,,,,,,,,,,,,,,,,,,,,,,,,,,,,,,,,,,,,,,,,,,,,,,,,,,,,,,,,,,,,,,909.9195291999495,None,,,,,"[0.4309566287794484, 0.4309566287794484, 0.4309566287794484, 0.4309566287794484]","[2216.4037374236577, 145.04941492610425, 754.605588718071, 855.7327866298383]",None,"[14.0, 15.327392786078, 8.622515359074454, 7.0]",True,910.9103770999936,913.2200962999486,913.2200962999486,914.4506079999846,None,1,2.739649359951727,3.7414514599367976,None,1,None,1,,0,,,,,,regvnx,001,fr,0,0,2022-04-28_15h48.55.640,Cluster,2022.1.1,36.190527198261876,
,,,,5,0,5,0,0,0,0,0,,,none,,,,,,,,,,,,,,,,,,,,,,,,,,,,,,,,,,,,,,,,,,,,,,,,,,,,,,,,,,,,,,,,,,,,,,,,,,,,,,,,,,,,,,,,,,,,,,,,,,,,,,,,,,,,,,,,,,,,1004.1325467999559,None,125.0,11.0,0.0025643069199568253,1,"[0.4545633800623363, 0.5566894169816394, 0.7720750501555815, 0.6312965193802158]","[4922.7895867140205, 257.4946967058645, 591.3356127001765, 1805.4875502257817]",None,"[12.43024748186614, 19.0, 12.0, 11.0]",False,1005.1373773999512,1007.9514501999947,1007.9514501999947,1009.1746670999564,['space'],1,3.437039279961027,4.443203879985958,None,1,None,1,[0.5097250000108033],,,,,,,regvnx,001,fr,0,0,2022-04-28_15h48.55.640,Cluster,2022.1.1,36.190527198261876,
,,,,5,0,5,0,1,0,1,0,,,none,,,,,,,,,,,,,,,,,,,,,,,,,,,,,,,,,,,,,,,,,,,,,,,,,,,,,,,,,,,,,,,,,,,,,,,,,,,,,,,,,,,,,,,,,,,,,,,,,,,,,,,,,,,,,,,,,,,,1009.6270482999971,None,1663.6365671401545,4.0,9.449755978989825e-05,1,"[0.7300605649188733, 0.528205508935183, 0.6968167825372767, 0.5808961452747631]","[651.8770785200268, 446.58677006806977, 300.79502674291257, 260.891607984331]",None,"[10.566442251539915, 16.0, 20.98075289920411, 19.0]",False,1010.6237099999562,1013.6018122999812,1013.6018122999812,1014.8048097999999,['space'],1,3.5638096599141136,4.585226959898137,None,1,None,1,[0.5215222999686375],,,,,,,regvnx,001,fr,0,0,2022-04-28_15h48.55.640,Cluster,2022.1.1,36.190527198261876,
,,,,5,0,5,0,2,0,2,0,,,frequency,,,,,,,,,,,,,,,,,,,,,,,,,,,,,,,,,,,,,,,,,,,,,,,,,,,,,,,,,,,,,,,,,,,,,,,,,,,,,,,,,,,,,,,,,,,,,,,,,,,,,,,,,,,,,,,,,,,,1015.2678295999649,None,8000.0,-3.0,0.00012851978913844324,1,"[0.7806622968390204, 0.5999678390149232, 0.43530932030881025, 0.4378889078483402]","[3174.8021039364003, 4000.0000000000014, 5039.684199579494, 6349.604207872799]",Major_3rd,"[17.65757271223528, 16.54979423815134, 12.0, 6.0]",False,1016.2748126999941,1019.1207106999937,1019.1207106999937,1020.323607600003,['space'],1,3.2690869799698703,4.28595797996968,None,1,None,1,[0.38961730001028627],,,,,,,regvnx,001,fr,0,0,2022-04-28_15h48.55.640,Cluster,2022.1.1,36.190527198261876,
,,,,5,0,5,0,3,0,3,0,,,time,,,,,,,,,,,,,,,,,,,,,,,,,,,,,,,,,,,,,,,,,,,,,,,,,,,,,,,,,,,,,,,,,,,,,,,,,,,,,,,,,,,,,,,,,,,,,,,,,,,,,,,,,,,,,,,,,,,,1020.6065119999694,None,,,,,"[0.4971710587461147, 0.4971710587461147, 0.4971710587461147, 0.4971710587461147]","[6612.849600618645, 1857.091214490385, 1056.1308829196869, 459.84802533531405]",None,"[4.913441812960294, 11.536491143744154, 5.192894796171436, 15.372550712580114]",True,1021.6064775999985,1024.1209191999515,1024.1209191999515,1025.3233166999999,['space'],0,3.0095279599772766,4.016404559952207,None,1,None,1,[0.26720030000433326],0,,,,,,regvnx,001,fr,0,0,2022-04-28_15h48.55.640,Cluster,2022.1.1,36.190527198261876,
,,,,5,0,5,0,4,0,4,0,,,both,,,,,,,,,,,,,,,,,,,,,,,,,,,,,,,,,,,,,,,,,,,,,,,,,,,,,,,,,,,,,,,,,,,,,,,,,,,,,,,,,,,,,,,,,,,,,,,,,,,,,,,,,,,,,,,,,,,,1025.6896967999637,None,5656.85424949238,0.0,0.0001285236860859306,0,"[0.686586454510334, 0.686586454510334, 0.686586454510334, 0.686586454510334]","[2244.9240966187467, 2828.427124746191, 3563.594872561358, 4489.8481932374925]",Major_3rd,"[14.0, 16.81325778338057, 17.64434753057462, 15.0]",False,1026.6968117999495,1029.796515599999,1029.796515599999,1031.012119299965,None,0,3.7833626799401827,4.8216022799606435,None,1,None,1,,,,,,,,regvnx,001,fr,0,0,2022-04-28_15h48.55.640,Cluster,2022.1.1,36.190527198261876,
,,,,5,0,5,0,5,0,5,0,,,frequency,,,,,,,,,,,,,,,,,,,,,,,,,,,,,,,,,,,,,,,,,,,,,,,,,,,,,,,,,,,,,,,,,,,,,,,,,,,,,,,,,,,,,,,,,,,,,,,,,,,,,,,,,,,,,,,,,,,,1031.5636391000007,None,2250.5498232687733,8.0,0.00020186973535825874,1,"[0.7716157263637592, 0.7081397099194683, 0.7647866107865271, 0.43191409810196624]","[5671.030192347028, 4501.0996465375465, 3572.525156963696, 2835.515096173514]",Major_3rd,"[8.659620615606642, 14.079166903500758, 17.64434753057462, 16.81325778338057]",False,1032.5645949000027,1035.8313991999603,1035.8313991999603,1037.065509499982,['space'],1,3.716052759962622,4.727444159972947,None,1,None,1,[0.3639511999790557],,,,,,,regvnx,001,fr,0,0,2022-04-28_15h48.55.640,Cluster,2022.1.1,36.190527198261876,
,,,,5,0,5,0,6,0,6,0,,,both,,,,,,,,,,,,,,,,,,,,,,,,,,,,,,,,,,,,,,,,,,,,,,,,,,,,,,,,,,,,,,,,,,,,,,,,,,,,,,,,,,,,,,,,,,,,,,,,,,,,,,,,,,,,,,,,,,,,1037.3520312999608,None,1154.4717040966113,-0.7158754527826777,4.651725991667488e-05,1,"[0.41161560911336226, 0.41161560911336226, 0.41161560911336226, 0.41161560911336226]","[2909.086402998652, 2308.9434081932227, 1832.6095975504809, 1454.543201499326]",Major_3rd,"[17.0, 14.384666307639753, 11.0, 8.0]",False,1038.3451401999919,1040.5935338999843,1040.5935338999843,1041.792225399986,['space'],1,2.651831259892788,3.6541978599270806,None,1,None,1,[0.7204297999851406],,,,,,,regvnx,001,fr,0,0,2022-04-28_15h48.55.640,Cluster,2022.1.1,36.190527198261876,
,,,,5,0,5,0,7,0,7,0,,,frequency,,,,,,,,,,,,,,,,,,,,,,,,,,,,,,,,,,,,,,,,,,,,,,,,,,,,,,,,,,,,,,,,,,,,,,,,,,,,,,,,,,,,,,,,,,,,,,,,,,,,,,,,,,,,,,,,,,,,1042.0608646000037,None,,,,,"[0.5333390276703839, 0.510624479219383, 0.6969658260637632, 0.6066792586268075]","[1288.8625104236694, 1148.2459583955867, 1022.9708524444535, 911.3634211376938]",Tone,"[6.0, 5.284124547217322, 5.426462069149605, 6.0]",True,1043.0786868999712,1045.8470001999522,1045.8470001999522,1047.0719526999746,['space'],0,3.364120459998958,4.388664059981238,None,1,None,1,[0.8096938999951817],0,,,,,,regvnx,001,fr,0,0,2022-04-28_15h48.55.640,Cluster,2022.1.1,36.190527198261876,
,,,,5,0,5,0,8,0,8,0,,,time,,,,,,,,,,,,,,,,,,,,,,,,,,,,,,,,,,,,,,,,,,,,,,,,,,,,,,,,,,,,,,,,,,,,,,,,,,,,,,,,,,,,,,,,,,,,,,,,,,,,,,,,,,,,,,,,,,,,1047.5289028999978,None,752.5004145203253,2.6225153590744537,5.481244384399221e-05,0,"[0.5680215388841818, 0.5680215388841818, 0.5680215388841818, 0.5680215388841818]","[468.8810895606161, 5326.29587226517, 482.6491599735334, 280.015166352735]",None,"[15.372550712580114, 10.594403300340517, 15.0, 20.633006653856143]",False,1048.5183319999487,1051.2498569999589,1051.2498569999589,1052.4730025999597,None,0,3.2844557599164546,4.293655859946739,None,1,None,1,,,,,,,,regvnx,001,fr,0,0,2022-04-28_15h48.55.640,Cluster,2022.1.1,36.190527198261876,
,,,,5,0,5,0,9,0,9,0,,,both,,,,,,,,,,,,,,,,,,,,,,,,,,,,,,,,,,,,,,,,,,,,,,,,,,,,,,,,,,,,,,,,,,,,,,,,,,,,,,,,,,,,,,,,,,,,,,,,,,,,,,,,,,,,,,,,,,,,1052.871875599958,None,125.0,8.0,0.0018153902738505074,1,"[0.501883886366804, 0.501883886366804, 0.501883886366804, 0.501883886366804]","[314.9802624737183, 250.00000000000003, 198.42513149602496, 157.49013123685916]",Major_3rd,"[20.98075289920411, 18.617590404467318, 14.97933237528106, 14.744118982546988]",False,1053.8806569000008,1056.4042099999497,1056.4042099999497,1057.6050926999887,['space'],1,3.0292184799327515,4.064396179921459,None,1,None,1,[0.4146975999465212],,,,,,,regvnx,001,fr,0,0,2022-04-28_15h48.55.640,Cluster,2022.1.1,36.190527198261876,
,,,,5,0,5,0,10,0,10,0,,,both,,,,,,,,,,,,,,,,,,,,,,,,,,,,,,,,,,,,,,,,,,,,,,,,,,,,,,,,,,,,,,,,,,,,,,,,,,,,,,,,,,,,,,,,,,,,,,,,,,,,,,,,,,,,,,,,,,,,1057.9870071999612,None,263.9658331264686,13.799277483978313,0.0007477673162709055,0,"[0.4175647247175338, 0.4175647247175338, 0.4175647247175338, 0.4175647247175338]","[419.01964118861855, 373.3040612105652, 332.5761096090753, 296.29162973482613]",Tone,"[17.0, 19.12277952867055, 20.80204783270314, 20.633006653856143]",False,1058.9911978999735,1061.2564242999651,1061.2564242999651,1062.4696321999654,None,0,2.6983463599462993,3.7066745599149726,None,1,None,1,,,,,,,,regvnx,001,fr,0,0,2022-04-28_15h48.55.640,Cluster,2022.1.1,36.190527198261876,
,,,,5,0,5,0,11,0,11,0,,,frequency,,,,,,,,,,,,,,,,,,,,,,,,,,,,,,,,,,,,,,,,,,,,,,,,,,,,,,,,,,,,,,,,,,,,,,,,,,,,,,,,,,,,,,,,,,,,,,,,,,,,,,,,,,,,,,,,,,,,1062.762035999971,None,307.7861033362292,7.0,0.00023789457566052247,0,"[0.532473899537677, 0.42058658087286976, 0.7701823735176992, 0.5219607998326136]","[193.89309522921687, 217.63764082403108, 244.28999210856156, 274.2062449236566]",Tone,"[14.339567537691675, 16.003153653638293, 18.0, 20.0]",False,1063.7926519999746,1066.5450617999886,1066.5450617999886,1067.7629944999935,None,0,3.263489579956513,4.268320579954889,None,1,None,1,,,,,,,,regvnx,001,fr,0,0,2022-04-28_15h48.55.640,Cluster,2022.1.1,36.190527198261876,
,,,,5,0,5,0,12,0,12,0,,,none,,,,,,,,,,,,,,,,,,,,,,,,,,,,,,,,,,,,,,,,,,,,,,,,,,,,,,,,,,,,,,,,,,,,,,,,,,,,,,,,,,,,,,,,,,,,,,,,,,,,,,,,,,,,,,,,,,,,1068.0989786999999,None,,,,,"[0.6418357474044603, 0.7952946410739214, 0.5586183001731991, 0.7429740143070067]","[751.1344840517457, 4384.988114235604, 922.5960919125255, 267.8660806566739]",None,"[8.622515359074454, 15.0, 6.0, 19.799277483978315]",True,1069.1100754999788,1072.1458837999962,1072.1458837999962,1073.3567038999754,None,1,3.7684995598974638,4.7803794599021785,None,1,None,1,,0,,,,,,regvnx,001,fr,0,0,2022-04-28_15h48.55.640,Cluster,2022.1.1,36.190527198261876,
,,,,5,0,5,0,13,0,13,0,,,time,,,,,,,,,,,,,,,,,,,,,,,,,,,,,,,,,,,,,,,,,,,,,,,,,,,,,,,,,,,,,,,,,,,,,,,,,,,,,,,,,,,,,,,,,,,,,,,,,,,,,,,,,,,,,,,,,,,,1073.9452028999804,None,933.0329915368076,1.0,4.7292087841120866e-05,0,"[0.4992026561764408, 0.4992026561764408, 0.4992026561764408, 0.4992026561764408]","[302.7833018350429, 628.516588877797, 825.7932762939847, 746.7601327895508]",None,"[20.98075289920411, 11.0, 7.634078609966959, 9.0]",False,1074.976741499966,1077.5072050999734,1077.5072050999734,1078.7184829000034,None,0,3.036194779968355,4.065565679979045,None,1,None,1,,,,,,,,regvnx,001,fr,0,0,2022-04-28_15h48.55.640,Cluster,2022.1.1,36.190527198261876,
,,,,5,0,5,0,14,0,14,0,,,none,,,,,,,,,,,,,,,,,,,,,,,,,,,,,,,,,,,,,,,,,,,,,,,,,,,,,,,,,,,,,,,,,,,,,,,,,,,,,,,,,,,,,,,,,,,,,,,,,,,,,,,,,,,,,,,,,,,,1079.0855592999724,None,406.12619817811805,4.0,0.00012083438749800345,1,"[0.7257313754783908, 0.7427239110312364, 0.7439504661349786, 0.4622544840563854]","[437.4381322415557, 2074.224648083745, 170.2843221670613, 3143.804524100856]",None,"[16.60094971129105, 13.0, 14.298594675522626, 17.65757271223528]",False,1080.1115537000005,1083.361518199963,1083.361518199963,1084.5668068999657,['space'],1,3.6959942799294367,4.704238479898777,None,1,None,1,[0.40289229998597875],,,,,,,regvnx,001,fr,0,0,2022-04-28_15h48.55.640,Cluster,2022.1.1,36.190527198261876,
,,,,5,0,5,0,15,0,15,0,,,both,,,,,,,,,,,,,,,,,,,,,,,,,,,,,,,,,,,,,,,,,,,,,,,,,,,,,,,,,,,,,,,,,,,,,,,,,,,,,,,,,,,,,,,,,,,,,,,,,,,,,,,,,,,,,,,,,,,,1084.8521439999458,None,615.5722066724584,-1.0,4.760651710325358e-05,0,"[0.7206462216684287, 0.7206462216684287, 0.7206462216684287, 0.7206462216684287]","[3102.289523667471, 2070.529847682756, 1381.9128799677767, 922.3161935859396]",Perfect_5th,"[17.362623897012146, 13.0, 7.0, 6.0]",False,1085.955473399954,1089.1487172999769,1089.1487172999769,1090.356319399958,None,0,3.8835912199574523,4.903032819973305,None,1,None,1,,,,,,,,regvnx,001,fr,0,0,2022-04-28_15h48.55.640,Cluster,2022.1.1,36.190527198261876,
,,,,5,0,5,0,16,0,16,0,,,time,,,,,,,,,,,,,,,,,,,,,,,,,,,,,,,,,,,,,,,,,,,,,,,,,,,,,,,,,,,,,,,,,,,,,,,,,,,,,,,,,,,,,,,,,,,,,,,,,,,,,,,,,,,,,,,,,,,,1090.9276819999795,None,3926.0258685345275,10.549794238151339,0.0002784124798990239,1,"[0.5041068274923419, 0.5041068274923419, 0.5041068274923419, 0.5041068274923419]","[227.20714756481635, 184.44357454702106, 597.4800484634732, 1471.8280372958825]",None,"[17.0, 14.339567537691675, 12.0, 8.0]",False,1091.943302999949,1094.4915382999461,1094.4915382999461,1095.7087271999917,['space'],1,3.040320559986867,4.05346795998048,None,1,None,1,[0.3166360000032],,,,,,,regvnx,001,fr,0,0,2022-04-28_15h48.55.640,Cluster,2022.1.1,36.190527198261876,
,,,,5,0,5,0,17,0,17,0,,,time,,,,,,,,,,,,,,,,,,,,,,,,,,,,,,,,,,,,,,,,,,,,,,,,,,,,,,,,,,,,,,,,,,,,,,,,,,,,,,,,,,,,,,,,,,,,,,,,,,,,,,,,,,,,,,,,,,,,1096.0563468000037,None,1319.5079107728945,4.0,8.36563223429657e-05,1,"[0.6822115919298315, 0.6822115919298315, 0.6822115919298315, 0.6822115919298315]","[1618.3799118479742, 1021.7564991960247, 7910.63460500292, 1447.5953860234297]",None,"[9.421843001848778, 5.426462069149605, 1.3824614138877873, 7.2981642474797095]",False,1098.6732713999809,1101.731777799956,1101.731777799956,1102.954716899956,['space'],1,3.76507261977531,4.787467819813173,None,1,None,1,[0.530937300005462],,,,,,,regvnx,001,fr,0,0,2022-04-28_15h48.55.640,Cluster,2022.1.1,36.190527198261876,
,,,,5,0,5,0,18,0,18,0,,,frequency,,,,,,,,,,,,,,,,,,,,,,,,,,,,,,,,,,,,,,,,,,,,,,,,,,,,,,,,,,,,,,,,,,,,,,,,,,,,,,,,,,,,,,,,,,,,,,,,,,,,,,,,,,,,,,,,,,,,1103.4933075999725,None,2033.4631253636317,6.5228980451290886,0.00016010315376218832,1,"[0.7312758860126761, 0.6262786899984605, 0.7267825136449432, 0.5494992014957072]","[1281.0014979153282, 1437.8755652374143, 1613.9607521703856, 1811.6096917721075]",Tone,"[6.0, 7.2981642474797095, 9.421843001848778, 11.0]",False,1104.4890110999695,1107.6097053999547,1107.6097053999547,1108.814292999974,['space'],1,3.6510777599178255,4.6753110599238425,None,1,None,1,[0.26567270001396537],,,,,,,regvnx,001,fr,0,0,2022-04-28_15h48.55.640,Cluster,2022.1.1,36.190527198261876,
,,,,5,0,5,0,19,0,19,0,,,none,,,,,,,,,,,,,,,,,,,,,,,,,,,,,,,,,,,,,,,,,,,,,,,,,,,,,,,,,,,,,,,,,,,,,,,,,,,,,,,,,,,,,,,,,,,,,,,,,,,,,,,,,,,,,,,,,,,,1109.2272169999778,None,,,,,"[0.5832984598149928, 0.47496255891737627, 0.4870255698633024, 0.7585530874897715]","[327.6106459493646, 6311.562444449839, 189.67715399846307, 195.58478794564155]",None,"[20.80204783270314, 6.0, 14.339567537691675, 14.339567537691675]",True,1110.2319529999513,1112.8055185999838,1112.8055185999838,1114.0127679999568,None,1,3.334169259935152,4.355602659925353,None,1,None,1,,0,,,,,,regvnx,001,fr,0,0,2022-04-28_15h48.55.640,Cluster,2022.1.1,36.190527198261876,
,,,,6,0,6,0,0,0,0,0,,,time,,,,,,,,,,,,,,,,,,,,,,,,,,,,,,,,,,,,,,,,,,,,,,,,,,,,,,,,,,,,,,,,,,,,,,,,,,,,,,,,,,,,,,,,,,,,,,,,,,,,,,,,,,,,,,,,,,,,1171.4105544999475,None,3004.297259791183,11.362623897012146,0.00020431997115634906,1,"[0.4180352177426001, 0.4180352177426001, 0.4180352177426001, 0.4180352177426001]","[4128.644540997042, 2459.0983877873455, 4842.6138504574255, 3423.24809523654]",None,"[16.0, 15.26914224171804, 13.0, 17.64434753057462]",False,1172.4140920999926,1174.6976718999795,1174.6976718999795,1175.9222751999623,['space'],1,2.6880466599250212,3.711704659915995,None,1,None,1,[0.5487322999979369],,,,,,,regvnx,001,fr,0,0,2022-04-28_15h48.55.640,Cluster,2022.1.1,36.190527198261876,
,,,,6,0,6,0,1,0,1,0,,,frequency,,,,,,,,,,,,,,,,,,,,,,,,,,,,,,,,,,,,,,,,,,,,,,,,,,,,,,,,,,,,,,,,,,,,,,,,,,,,,,,,,,,,,,,,,,,,,,,,,,,,,,,,,,,,,,,,,,,,1176.18774569995,None,6062.8662660415985,-4.0,7.497821437245907e-05,0,"[0.7466615699595907, 0.621105462683689, 0.6535899872392301, 0.61654705060753]","[1203.0250360821178, 1802.5009252216623, 2700.6998923363826, 4046.477761207694]",Perfect_5th,"[5.693825703056729, 11.0, 16.09584262251017, 16.54979423815134]",False,1177.2088764999644,1180.2751992999692,1180.2751992999692,1181.4970622999826,None,0,3.6637093799072318,4.688470279914327,None,1,None,1,,,,,,,,regvnx,001,fr,0,0,2022-04-28_15h48.55.640,Cluster,2022.1.1,36.190527198261876,
,,,,6,0,6,0,2,0,2,0,,,none,,,,,,,,,,,,,,,,,,,,,,,,,,,,,,,,,,,,,,,,,,,,,,,,,,,,,,,,,,,,,,,,,,,,,,,,,,,,,,,,,,,,,,,,,,,,,,,,,,,,,,,,,,,,,,,,,,,,1181.9495416999562,None,151.2946641240392,9.0,0.0013771276491290963,1,"[0.6424169689564263, 0.5243672012817103, 0.7026399910046845, 0.44943425056982217]","[852.8073508722381, 145.64881869781547, 168.60594200165576, 171.2698037211641]",None,"[7.0, 15.327392786078, 14.298594675522626, 14.126603313503237]",False,1182.9692160999984,1185.8551184999524,1185.8551184999524,1187.0782965999679,['space'],1,3.3417707599001005,4.367300259938929,None,1,None,1,[0.2691173999919556],,,,,,,regvnx,001,fr,0,0,2022-04-28_15h48.55.640,Cluster,2022.1.1,36.190527198261876,
,,,,6,0,6,0,3,0,3,0,,,time,,,,,,,,,,,,,,,,,,,,,,,,,,,,,,,,,,,,,,,,,,,,,,,,,,,,,,,,,,,,,,,,,,,,,,,,,,,,,,,,,,,,,,,,,,,,,,,,,,,,,,,,,,,,,,,,,,,,1187.3987124999985,None,5656.85424949238,1.0,0.00014420594760332662,1,"[0.765945380933411, 0.765945380933411, 0.765945380933411, 0.765945380933411]","[231.57765441890373, 502.85338733716236, 177.7844487550333, 163.75199261673853]",None,"[17.281977057807488, 14.259268945125038, 14.126603313503237, 14.298594675522626]",False,1188.4305676999502,1191.7569094999926,1191.7569094999926,1192.9601999999722,['space'],1,4.108825979928952,5.130806879955344,None,1,None,1,[0.6612518000183627],,,,,,,regvnx,001,fr,0,0,2022-04-28_15h48.55.640,Cluster,2022.1.1,36.190527198261876,
,,,,6,0,6,0,4,0,4,0,,,none,,,,,,,,,,,,,,,,,,,,,,,,,,,,,,,,,,,,,,,,,,,,,,,,,,,,,,,,,,,,,,,,,,,,,,,,,,,,,,,,,,,,,,,,,,,,,,,,,,,,,,,,,,,,,,,,,,,,1193.6009291999508,None,6498.0191708498805,-3.0,9.628799702066432e-05,0,"[0.6969189047024689, 0.6260108185112045, 0.7359461411164229, 0.557772688789476]","[3360.9344543867155, 1892.7956258904212, 190.69472190658286, 1199.548060773697]",None,"[17.65757271223528, 11.536491143744154, 14.339567537691675, 5.693825703056729]",False,1194.6278344999882,1197.7264723999542,1197.7264723999542,1198.9339958999772,None,0,3.6422971799620427,4.663564979971852,None,1,None,1,,,,,,,,regvnx,001,fr,0,0,2022-04-28_15h48.55.640,Cluster,2022.1.1,36.190527198261876,
,,,,6,0,6,0,5,0,5,0,,,frequency,,,,,,,,,,,,,,,,,,,,,,,,,,,,,,,,,,,,,,,,,,,,,,,,,,,,,,,,,,,,,,,,,,,,,,,,,,,,,,,,,,,,,,,,,,,,,,,,,,,,,,,,,,,,,,,,,,,,1199.3335405999678,None,,,,,"[0.44180812590080376, 0.45473177285809574, 0.7851656003622222, 0.49777780465109756]","[1008.3570256768267, 1131.842492468358, 1270.4502424596192, 1426.0321814263636]",Tone,"[5.426462069149605, 5.284124547217322, 6.0, 7.2981642474797095]",True,1200.3380619999953,1203.0407251999713,1203.0407251999713,1204.2705372999771,None,1,3.1891058598994277,4.214691459899768,None,1,None,1,,0,,,,,,regvnx,001,fr,0,0,2022-04-28_15h48.55.640,Cluster,2022.1.1,36.190527198261876,
,,,,6,0,6,0,6,0,6,0,,,both,,,,,,,,,,,,,,,,,,,,,,,,,,,,,,,,,,,,,,,,,,,,,,,,,,,,,,,,,,,,,,,,,,,,,,,,,,,,,,,,,,,,,,,,,,,,,,,,,,,,,,,,,,,,,,,,,,,,1204.6077313999995,None,2831.1271605459406,10.813257783380573,0.00022682814983610418,1,"[0.6239648976571652, 0.6239648976571652, 0.6239648976571652, 0.6239648976571652]","[561.766779113296, 841.6991406996709, 1261.1237791113385, 1889.5506830599834]",Perfect_5th,"[12.355327238191471, 7.0, 6.0, 11.536491143744154]",False,1205.59844099998,1208.4991868999787,1208.4991868999787,1209.7098424999858,['space'],1,3.5311093599302694,4.5453905599424616,None,1,None,1,[0.0576672000461258],,,,,,,regvnx,001,fr,0,0,2022-04-28_15h48.55.640,Cluster,2022.1.1,36.190527198261876,
,,,,6,0,6,0,7,0,7,0,,,frequency,,,,,,,,,,,,,,,,,,,,,,,,,,,,,,,,,,,,,,,,,,,,,,,,,,,,,,,,,,,,,,,,,,,,,,,,,,,,,,,,,,,,,,,,,,,,,,,,,,,,,,,,,,,,,,,,,,,,1210.2044602999813,None,299.0055097784582,14.98075289920411,0.0006484360284403583,0,"[0.7717248144282548, 0.7309293617922854, 0.7549237730976206, 0.7894477994452775]","[188.36166790221336, 211.4288235764883, 237.32083038330612, 266.3836253785271]",Tone,"[14.339567537691675, 16.0, 17.281977057807488, 19.799277483978315]",False,1211.1960690999986,1214.4844086999656,1214.4844086999656,1215.697245999996,None,0,4.0730917598702945,5.083375259884633,None,1,None,1,,,,,,,,regvnx,001,fr,0,0,2022-04-28_15h48.55.640,Cluster,2022.1.1,36.190527198261876,
,,,,6,0,6,0,8,0,8,0,,,both,,,,,,,,,,,,,,,,,,,,,,,,,,,,,,,,,,,,,,,,,,,,,,,,,,,,,,,,,,,,,,,,,,,,,,,,,,,,,,,,,,,,,,,,,,,,,,,,,,,,,,,,,,,,,,,,,,,,1216.3459787999745,None,164.93848884661182,3.0,0.000555318596464719,1,"[0.6325130282988416, 0.6325130282988416, 0.6325130282988416, 0.6325130282988416]","[415.6189480713941, 329.8769776932237, 261.82353070515677, 207.809474035697]",Major_3rd,"[17.88825572092145, 20.80204783270314, 19.0, 15.0]",False,1217.3577709999518,1220.2909954999923,1220.2909954999923,1221.5214320999803,['space'],1,3.5639698798768222,4.585679879877716,None,1,None,1,[0.2792127000284381],,,,,,,regvnx,001,fr,0,0,2022-04-28_15h48.55.640,Cluster,2022.1.1,36.190527198261876,
,,,,6,0,6,0,9,0,9,0,,,both,,,,,,,,,,,,,,,,,,,,,,,,,,,,,,,,,,,,,,,,,,,,,,,,,,,,,,,,,,,,,,,,,,,,,,,,,,,,,,,,,,,,,,,,,,,,,,,,,,,,,,,,,,,,,,,,,,,,1221.9832917999593,None,141.38511641426464,9.327392786078,0.0016882224912198598,1,"[0.7605522383665243, 0.7605522383665243, 0.7605522383665243, 0.7605522383665243]","[712.5363372486767, 475.560950251937, 317.3988547416293, 211.8383204885262]",Perfect_5th,"[9.613931926345405, 15.0, 20.98075289920411, 16.0]",False,1222.9876340999617,1226.3087386999978,1226.3087386999978,1227.5199020999717,['space'],1,4.054842659912538,5.061252759944182,None,1,None,1,[0.28927250002743676],,,,,,,regvnx,001,fr,0,0,2022-04-28_15h48.55.640,Cluster,2022.1.1,36.190527198261876,
,,,,6,0,6,0,10,0,10,0,,,frequency,,,,,,,,,,,,,,,,,,,,,,,,,,,,,,,,,,,,,,,,,,,,,,,,,,,,,,,,,,,,,,,,,,,,,,,,,,,,,,,,,,,,,,,,,,,,,,,,,,,,,,,,,,,,,,,,,,,,1228.1204656999907,None,164.93848884661182,2.0,0.0004949282200622958,1,"[0.5703142703357559, 0.49983598483574293, 0.478791757259896, 0.6600948833673606]","[831.2378961427879, 554.7847360339226, 370.27438807164117, 247.1285050882241]",Perfect_5th,"[7.634078609966959, 13.0, 19.12277952867055, 18.617590404467318]",False,1229.1285458999919,1231.7053047999507,1231.7053047999507,1232.9225514999707,['space'],1,3.2381879799067974,4.242764979891945,None,1,None,1,[0.3231604000320658],,,,,,,regvnx,001,fr,0,0,2022-04-28_15h48.55.640,Cluster,2022.1.1,36.190527198261876,
,,,,6,0,6,0,11,0,11,0,,,frequency,,,,,,,,,,,,,,,,,,,,,,,,,,,,,,,,,,,,,,,,,,,,,,,,,,,,,,,,,,,,,,,,,,,,,,,,,,,,,,,,,,,,,,,,,,,,,,,,,,,,,,,,,,,,,,,,,,,,1233.4140732999658,None,351.0191286550655,14.145644642329351,0.00045497650511244645,1,"[0.6114186031809296, 0.5722800191882172, 0.552073539431718, 0.5081331663428259]","[1769.0255564330948, 1180.682907886108, 788.0113002918723, 525.934444582971]",Perfect_5th,"[10.500280192502128, 5.284124547217322, 8.0, 13.265893656062651]",False,1234.4314554999582,1237.2082765999949,1237.2082765999949,1238.4339866999653,['space'],1,3.260998359939549,4.290174359921366,None,1,None,1,[0.32740629999898374],,,,,,,regvnx,001,fr,0,0,2022-04-28_15h48.55.640,Cluster,2022.1.1,36.190527198261876,
,,,,6,0,6,0,12,0,12,0,,,none,,,,,,,,,,,,,,,,,,,,,,,,,,,,,,,,,,,,,,,,,,,,,,,,,,,,,,,,,,,,,,,,,,,,,,,,,,,,,,,,,,,,,,,,,,,,,,,,,,,,,,,,,,,,,,,,,,,,1238.7852631999995,None,745.2480148723467,3.0,5.799630580813113e-05,0,"[0.49586375654620024, 0.471522030399414, 0.6432098104318105, 0.42941222353348635]","[214.77590019047827, 1393.7768830790378, 6006.571934844307, 344.62423817997336]",None,"[16.0, 7.0, 7.0, 20.14564464232935]",False,1239.7768437999766,1242.4135675999569,1242.4135675999569,1243.6461230999557,None,0,3.059169259853661,4.073948659875896,None,1,None,1,,,,,,,,regvnx,001,fr,0,0,2022-04-28_15h48.55.640,Cluster,2022.1.1,36.190527198261876,
,,,,6,0,6,0,13,0,13,0,,,time,,,,,,,,,,,,,,,,,,,,,,,,,,,,,,,,,,,,,,,,,,,,,,,,,,,,,,,,,,,,,,,,,,,,,,,,,,,,,,,,,,,,,,,,,,,,,,,,,,,,,,,,,,,,,,,,,,,,1243.9134210999473,None,1508.0384636104582,2.3344877233998993,6.408518569087698e-05,0,"[0.7572457999451178, 0.7572457999451178, 0.7572457999451178, 0.7572457999451178]","[499.7273265763669, 7458.390598512071, 3982.3304974422344, 470.8873121609439]",None,"[14.259268945125038, 2.136293798126348, 16.54979423815134, 15.372550712580114]",False,1244.910427099967,1248.21711519995,1248.21711519995,1249.4227706999518,None,0,4.03576085990062,5.063344859867357,None,1,None,1,,,,,,,,regvnx,001,fr,0,0,2022-04-28_15h48.55.640,Cluster,2022.1.1,36.190527198261876,
,,,,6,0,6,0,14,0,14,0,,,frequency,,,,,,,,,,,,,,,,,,,,,,,,,,,,,,,,,,,,,,,,,,,,,,,,,,,,,,,,,,,,,,,,,,,,,,,,,,,,,,,,,,,,,,,,,,,,,,,,,,,,,,,,,,,,,,,,,,,,1250.0434905999573,None,125.0,7.0,0.0016179682846481417,1,"[0.44364351176971245, 0.48894328266439624, 0.4216096136092057, 0.4570412925327392]","[314.9802624737183, 250.00000000000003, 198.42513149602496, 157.49013123685916]",Major_3rd,"[20.98075289920411, 18.617590404467318, 14.97933237528106, 14.744118982546988]",False,1251.0600177999586,1253.4331017999793,1253.4331017999793,1254.6406331000035,['space'],1,2.84203517989954,3.8542652798932977,None,1,None,1,[0.7996099999872968],,,,,,,regvnx,001,fr,0,0,2022-04-28_15h48.55.640,Cluster,2022.1.1,36.190527198261876,
