practice.thisRepN,practice.thisTrialN,practice.thisN,practice.thisIndex,trials.thisRepN,trials.thisTrialN,trials.thisN,trials.thisIndex,blank_txt.started,blank_txt.stopped,practice_frequency,practice_level,psychopy_volume,tProbe.started,tProbe.stopped,tFeedback.keys,tFeedback.corr,tFeedback.rt,tFeedback.started,tFeedback.stopped,tToo_early.keys,tToo_early.corr,tToo_early.started,tToo_early.stopped,tToo_late.keys,tToo_late.corr,tToo_late.started,tToo_late.stopped,you_done_goofed.started,you_done_goofed.stopped,Init_phase,Frequency,Level,Psychopy_Volume,Catch trial,probe.started,probe.stopped,feedback.keys,feedback.corr,feedback.rt,feedback.started,feedback.stopped,too_late.keys,too_late.corr,too_late.started,too_late.stopped,too_late.rt,Audiogram,participant,session,Language (english or french),Tone duration (ms),date,expName,psychopyVersion,frameRate,
0,0,0,0,,,,,159.8036257000058,None,567,40,0.006099267302654233,1.0142924666288309,None,['space'],1,[0.47337700001662597],161.805974900024,162.81868470000336,None,1,160.8043007000233,161.83482520002872,None,1,162.81868470000336,None,163.8566783000133,None,,,,,,,,,,,,,,,,,,,tvzljm,001,fr,200,2022-04-29_15h11.19.452,Bayesian,2022.1.1,None,
1,0,1,0,,,,,,,234,40,0.019882976039061955,1.0068903666106053,None,['space'],1,[0.5034400000004098],166.6071378000197,167.62835780001478,None,1,165.61159599997336,166.6268780999817,None,1,167.62835780001478,None,168.6575348000042,None,,,,,,,,,,,,,,,,,,,tvzljm,001,fr,200,2022-04-29_15h11.19.452,Bayesian,2022.1.1,None,
2,0,2,0,,,,,,,2345,40,0.008245949202640053,1.001429266645573,None,['space'],1,[0.5592626999714412],170.8560479999869,171.85727839998435,None,1,169.88086239999393,170.89958309999201,None,1,171.85727839998435,None,172.88131289999,None,,,,,,,,,,,,,,,,,,,tvzljm,001,fr,200,2022-04-29_15h11.19.452,Bayesian,2022.1.1,None,
,,,,0,0,0,0,179.21967540000333,None,,,,,,,,,,,,,,,,,,,,,"{'x': [], 'y': [], 'is_init_phase': True, 'is_exam_finished': False, 'threshold_uncertainty_db': 6}",1000,60,0.0440524436504007,False,0.01252099999692291,None,['space'],1,[0.49526980001246557],180.29577959998278,181.30866079998668,None,1,181.30866079998668,None,,,tvzljm,001,fr,200,2022-04-29_15h11.19.452,Bayesian,2022.1.1,None,
,,,,1,0,1,0,,,,,,,,,,,,,,,,,,,,,,,"{'x': [[1000, 60]], 'y': [[1]], 'audiogram': {}, 'is_init_phase': True, 'is_exam_finished': False, 'threshold_uncertainty_db': 6}",1000,40,0.004405244365040069,False,0.010846766585018486,None,['space'],1,[0.6314182000351138],183.85532710002735,184.8620130000054,None,1,184.8620130000054,183.85532710002735,,,tvzljm,001,fr,200,2022-04-29_15h11.19.452,Bayesian,2022.1.1,None,
,,,,2,0,2,0,,,,,,,,,,,,,,,,,,,,,,,"{'x': [[1000, 60], [1000, 40]], 'y': [[1], [1]], 'audiogram': {}, 'is_init_phase': True, 'is_exam_finished': False, 'threshold_uncertainty_db': 6}",1000,20,0.0004405244365040069,False,0.009147099917754531,None,['space'],1,[0.6660327999852598],186.82836959999986,187.83174489997327,None,1,187.83174489997327,186.82836959999986,,,tvzljm,001,fr,200,2022-04-29_15h11.19.452,Bayesian,2022.1.1,None,
,,,,3,0,3,0,,,,,,,,,,,,,,,,,,,,,,,"{'x': [[1000, 60], [1000, 40], [1000, 20]], 'y': [[1], [1], [1]], 'audiogram': {}, 'is_init_phase': True, 'is_exam_finished': False, 'threshold_uncertainty_db': 6}",,,,True,0.01091243332484737,None,None,0,,190.5773754999973,191.5789586000028,None,1,191.5789586000028,190.5773754999973,,,tvzljm,001,fr,200,2022-04-29_15h11.19.452,Bayesian,2022.1.1,None,
,,,,4,0,4,0,,,,,,,,,,,,,,,,,,,,,,,"{'x': [[1000, 60], [1000, 40], [1000, 20]], 'y': [[1], [1], [1]], 'audiogram': {}, 'is_init_phase': True, 'is_exam_finished': False, 'threshold_uncertainty_db': 6}",1000,0,4.405244365040069e-05,False,0.009691999934148043,None,None,0,,193.30304879997857,194.32550919998903,None,1,194.32550919998903,193.30304879997857,,,tvzljm,001,fr,200,2022-04-29_15h11.19.452,Bayesian,2022.1.1,None,
,,,,5,0,5,0,,,,,,,,,,,,,,,,,,,,,,,"{'x': [[1000, 60], [1000, 40], [1000, 20], [1000, 0]], 'y': [[1], [1], [1], [-1]], 'audiogram': {}, 'is_init_phase': True, 'is_exam_finished': False, 'threshold_uncertainty_db': 6}",1500,10,0.0001527460556607757,False,0.01108819991350174,0.20505159994354472,None,0,,197.30825589998858,198.32217449997552,['space'],0,198.32217449997552,197.30825589998858,[0.35699669999303296],,tvzljm,001,fr,200,2022-04-29_15h11.19.452,Bayesian,2022.1.1,None,
,,,,6,0,6,0,,,,,,,,,,,,,,,,,,,,,,,"{'x': [[1000, 60], [1000, 40], [1000, 20], [1000, 0], [1500, 10]], 'y': [[1], [1], [1], [-1], [-1]], 'audiogram': {}, 'is_init_phase': True, 'is_exam_finished': False, 'threshold_uncertainty_db': 6}",1500,30,0.001527460556607757,False,0.006914999976288527,0.19635669997660443,['space'],1,[0.79734589997679],199.43475040001795,200.4388112000306,None,1,200.4388112000306,199.43475040001795,,,tvzljm,001,fr,200,2022-04-29_15h11.19.452,Bayesian,2022.1.1,None,
,,,,7,0,7,0,,,,,,,,,,,,,,,,,,,,,,,"{'x': [[1000, 60], [1000, 40], [1000, 20], [1000, 0], [1500, 10], [1500, 30]], 'y': [[1], [1], [1], [-1], [-1], [1]], 'audiogram': {}, 'is_init_phase': True, 'is_exam_finished': False, 'threshold_uncertainty_db': 6}",,,,True,0.014755933312699199,None,None,0,,202.22632780001732,203.24833319999743,None,1,203.24833319999743,202.22632780001732,,,tvzljm,001,fr,200,2022-04-29_15h11.19.452,Bayesian,2022.1.1,None,
,,,,8,0,8,0,,,,,,,,,,,,,,,,,,,,,,,"{'x': [[1000, 60], [1000, 40], [1000, 20], [1000, 0], [1500, 10], [1500, 30]], 'y': [[1], [1], [1], [-1], [-1], [1]], 'audiogram': {}, 'is_init_phase': True, 'is_exam_finished': False, 'threshold_uncertainty_db': 6}",2000,10,0.00023657562948074026,False,0.004591799923218787,None,None,0,,204.41998639999656,205.45041940000374,['space'],0,205.45041940000374,204.41998639999656,[0.14120559999719262],,tvzljm,001,fr,200,2022-04-29_15h11.19.452,Bayesian,2022.1.1,None,
,,,,9,0,9,0,,,,,,,,,,,,,,,,,,,,,,,"{'x': [[1000, 60], [1000, 40], [1000, 20], [1000, 0], [1500, 10], [1500, 30], [2000, 10]], 'y': [[1], [1], [1], [-1], [-1], [1], [-1]], 'audiogram': {}, 'is_init_phase': True, 'is_exam_finished': False, 'threshold_uncertainty_db': 6}",2000,30,0.0023657562948074026,False,0.009404300013557076,None,['space'],1,[0.5554284999961965],208.284322099993,209.29719519999344,None,1,209.29719519999344,208.284322099993,,,tvzljm,001,fr,200,2022-04-29_15h11.19.452,Bayesian,2022.1.1,None,
,,,,10,0,10,0,,,,,,,,,,,,,,,,,,,,,,,"{'x': [[1000, 60], [1000, 40], [1000, 20], [1000, 0], [1500, 10], [1500, 30], [2000, 10], [2000, 30]], 'y': [[1], [1], [1], [-1], [-1], [1], [-1], [1]], 'audiogram': {}, 'is_init_phase': True, 'is_exam_finished': False, 'threshold_uncertainty_db': 6}",3000,10,0.00017336842522626576,False,0.007727099990006536,None,None,0,,210.4565503000049,211.46740580000915,['space'],0,211.46740580000915,210.4565503000049,[0.3001115000224672],,tvzljm,001,fr,200,2022-04-29_15h11.19.452,Bayesian,2022.1.1,None,
,,,,11,0,11,0,,,,,,,,,,,,,,,,,,,,,,,"{'x': [[1000, 60], [1000, 40], [1000, 20], [1000, 0], [1500, 10], [1500, 30], [2000, 10], [2000, 30], [3000, 10]], 'y': [[1], [1], [1], [-1], [-1], [1], [-1], [1], [-1]], 'audiogram': {}, 'is_init_phase': True, 'is_exam_finished': False, 'threshold_uncertainty_db': 6}",3000,30,0.001733684252262658,False,0.011288099980447441,None,['space'],1,[0.6072584000066854],212.87310010002693,213.8762176000164,None,1,213.8762176000164,212.87310010002693,,,tvzljm,001,fr,200,2022-04-29_15h11.19.452,Bayesian,2022.1.1,None,
,,,,12,0,12,0,,,,,,,,,,,,,,,,,,,,,,,"{'x': [[1000, 60], [1000, 40], [1000, 20], [1000, 0], [1500, 10], [1500, 30], [2000, 10], [2000, 30], [3000, 10], [3000, 30]], 'y': [[1], [1], [1], [-1], [-1], [1], [-1], [1], [-1], [1]], 'audiogram': {}, 'is_init_phase': True, 'is_exam_finished': False, 'threshold_uncertainty_db': 6}",,,,True,0.007254633354023099,0.2029085333342664,None,0,,215.4764985999791,216.49642610002775,None,1,216.49642610002775,215.4764985999791,,,tvzljm,001,fr,200,2022-04-29_15h11.19.452,Bayesian,2022.1.1,None,
,,,,13,0,13,0,,,,,,,,,,,,,,,,,,,,,,,"{'x': [[1000, 60], [1000, 40], [1000, 20], [1000, 0], [1500, 10], [1500, 30], [2000, 10], [2000, 30], [3000, 10], [3000, 30]], 'y': [[1], [1], [1], [-1], [-1], [1], [-1], [1], [-1], [1]], 'audiogram': {}, 'is_init_phase': True, 'is_exam_finished': False, 'threshold_uncertainty_db': 6}",4000,10,0.00026544222211549425,False,0.005542099941521883,0.19562609994318336,None,0,,218.54715629998827,219.54171929997392,None,1,219.54171929997392,218.54715629998827,,,tvzljm,001,fr,200,2022-04-29_15h11.19.452,Bayesian,2022.1.1,None,
,,,,14,0,14,0,,,,,,,,,,,,,,,,,,,,,,,"{'x': [[1000, 60], [1000, 40], [1000, 20], [1000, 0], [1500, 10], [1500, 30], [2000, 10], [2000, 30], [3000, 10], [3000, 30], [4000, 10]], 'y': [[1], [1], [1], [-1], [-1], [1], [-1], [1], [-1], [1], [-1]], 'audiogram': {}, 'is_init_phase': True, 'is_exam_finished': False, 'threshold_uncertainty_db': 6}",4000,30,0.0026544222211549416,False,0.01370640000095591,None,['space'],1,[0.6782527000177652],222.20889319997514,223.21172680001473,None,1,223.21172680001473,222.20889319997514,,,tvzljm,001,fr,200,2022-04-29_15h11.19.452,Bayesian,2022.1.1,None,
,,,,15,0,15,0,,,,,,,,,,,,,,,,,,,,,,,"{'x': [[1000, 60], [1000, 40], [1000, 20], [1000, 0], [1500, 10], [1500, 30], [2000, 10], [2000, 30], [3000, 10], [3000, 30], [4000, 10], [4000, 30]], 'y': [[1], [1], [1], [-1], [-1], [1], [-1], [1], [-1], [1], [-1], [1]], 'audiogram': {}, 'is_init_phase': True, 'is_exam_finished': False, 'threshold_uncertainty_db': 6}",6000,10,0.00036641226656945183,False,0.016059699933975935,None,['space'],1,[0.946408900024835],225.57232380000642,226.58199769997736,None,1,226.58199769997736,225.57232380000642,,,tvzljm,001,fr,200,2022-04-29_15h11.19.452,Bayesian,2022.1.1,None,
,,,,16,0,16,0,,,,,,,,,,,,,,,,,,,,,,,"{'x': [[1000, 60], [1000, 40], [1000, 20], [1000, 0], [1500, 10], [1500, 30], [2000, 10], [2000, 30], [3000, 10], [3000, 30], [4000, 10], [4000, 30], [6000, 10]], 'y': [[1], [1], [1], [-1], [-1], [1], [-1], [1], [-1], [1], [-1], [1], [1]], 'audiogram': {}, 'is_init_phase': True, 'is_exam_finished': False, 'threshold_uncertainty_db': 6}",,,,True,0.016217933385632932,None,None,0,,229.15416839998215,230.15384129999438,None,1,230.15384129999438,229.15416839998215,,,tvzljm,001,fr,200,2022-04-29_15h11.19.452,Bayesian,2022.1.1,None,
,,,,17,0,17,0,,,,,,,,,,,,,,,,,,,,,,,"{'x': [[1000, 60], [1000, 40], [1000, 20], [1000, 0], [1500, 10], [1500, 30], [2000, 10], [2000, 30], [3000, 10], [3000, 30], [4000, 10], [4000, 30], [6000, 10]], 'y': [[1], [1], [1], [-1], [-1], [1], [-1], [1], [-1], [1], [-1], [1], [1]], 'audiogram': {}, 'is_init_phase': True, 'is_exam_finished': False, 'threshold_uncertainty_db': 6}",6000,-10,3.664122665694518e-05,False,0.012472899921704084,None,None,0,,231.58401970000705,232.60689809999894,None,1,232.60689809999894,231.58401970000705,,,tvzljm,001,fr,200,2022-04-29_15h11.19.452,Bayesian,2022.1.1,None,
,,,,18,0,18,0,,,,,,,,,,,,,,,,,,,,,,,"{'x': [[1000, 60], [1000, 40], [1000, 20], [1000, 0], [1500, 10], [1500, 30], [2000, 10], [2000, 30], [3000, 10], [3000, 30], [4000, 10], [4000, 30], [6000, 10], [6000, -10]], 'y': [[1], [1], [1], [-1], [-1], [1], [-1], [1], [-1], [1], [-1], [1], [1], [-1]], 'audiogram': {}, 'is_init_phase': True, 'is_exam_finished': False, 'threshold_uncertainty_db': 6}",8000,10,0.0005740768107484417,False,0.009187799994833767,None,None,0,,234.51177420001477,235.52003880002303,None,1,235.52003880002303,234.51177420001477,,,tvzljm,001,fr,200,2022-04-29_15h11.19.452,Bayesian,2022.1.1,None,
,,,,19,0,19,0,,,,,,,,,,,,,,,,,,,,,,,"{'x': [[1000, 60], [1000, 40], [1000, 20], [1000, 0], [1500, 10], [1500, 30], [2000, 10], [2000, 30], [3000, 10], [3000, 30], [4000, 10], [4000, 30], [6000, 10], [6000, -10], [8000, 10]], 'y': [[1], [1], [1], [-1], [-1], [1], [-1], [1], [-1], [1], [-1], [1], [1], [-1], [-1]], 'audiogram': {}, 'is_init_phase': True, 'is_exam_finished': False, 'threshold_uncertainty_db': 6}",8000,20,0.0018153902738505074,False,0.014830599946435541,None,['space'],1,[0.578267999982927],237.20502619998297,238.2203867000062,None,1,238.2203867000062,237.20502619998297,,,tvzljm,001,fr,200,2022-04-29_15h11.19.452,Bayesian,2022.1.1,None,
,,,,20,0,20,0,,,,,,,,,,,,,,,,,,,,,,,"{'x': [[1000, 60], [1000, 40], [1000, 20], [1000, 0], [1500, 10], [1500, 30], [2000, 10], [2000, 30], [3000, 10], [3000, 30], [4000, 10], [4000, 30], [6000, 10], [6000, -10], [8000, 10], [8000, 20]], 'y': [[1], [1], [1], [-1], [-1], [1], [-1], [1], [-1], [1], [-1], [1], [1], [-1], [-1], [1]], 'audiogram': {}, 'is_init_phase': True, 'is_exam_finished': False, 'threshold_uncertainty_db': 6}",750,10,0.00012851978913844324,False,0.010206199949607253,None,None,0,,239.88818619999802,240.8908866000129,None,1,240.8908866000129,239.88818619999802,,,tvzljm,001,fr,200,2022-04-29_15h11.19.452,Bayesian,2022.1.1,None,
,,,,21,0,21,0,,,,,,,,,,,,,,,,,,,,,,,"{'x': [[1000, 60], [1000, 40], [1000, 20], [1000, 0], [1500, 10], [1500, 30], [2000, 10], [2000, 30], [3000, 10], [3000, 30], [4000, 10], [4000, 30], [6000, 10], [6000, -10], [8000, 10], [8000, 20], [750, 10]], 'y': [[1], [1], [1], [-1], [-1], [1], [-1], [1], [-1], [1], [-1], [1], [1], [-1], [-1], [1], [-1]], 'audiogram': {}, 'is_init_phase': True, 'is_exam_finished': False, 'threshold_uncertainty_db': 6}",750,30,0.0012851978913844323,False,0.009229600022081286,None,['space'],1,[0.8509593000053428],243.0599640000146,244.09250999998767,None,1,244.09250999998767,243.0599640000146,,,tvzljm,001,fr,200,2022-04-29_15h11.19.452,Bayesian,2022.1.1,None,
,,,,22,0,22,0,,,,,,,,,,,,,,,,,,,,,,,"{'x': [[1000, 60], [1000, 40], [1000, 20], [1000, 0], [1500, 10], [1500, 30], [2000, 10], [2000, 30], [3000, 10], [3000, 30], [4000, 10], [4000, 30], [6000, 10], [6000, -10], [8000, 10], [8000, 20], [750, 10], [750, 30]], 'y': [[1], [1], [1], [-1], [-1], [1], [-1], [1], [-1], [1], [-1], [1], [1], [-1], [-1], [1], [-1], [1]], 'audiogram': {}, 'is_init_phase': True, 'is_exam_finished': False, 'threshold_uncertainty_db': 6}",,,,True,0.011527733353432268,None,None,0,,245.53240630001528,246.53951460000826,None,1,246.53951460000826,245.53240630001528,,,tvzljm,001,fr,200,2022-04-29_15h11.19.452,Bayesian,2022.1.1,None,
,,,,23,0,23,0,,,,,,,,,,,,,,,,,,,,,,,"{'x': [[1000, 60], [1000, 40], [1000, 20], [1000, 0], [1500, 10], [1500, 30], [2000, 10], [2000, 30], [3000, 10], [3000, 30], [4000, 10], [4000, 30], [6000, 10], [6000, -10], [8000, 10], [8000, 20], [750, 10], [750, 30]], 'y': [[1], [1], [1], [-1], [-1], [1], [-1], [1], [-1], [1], [-1], [1], [1], [-1], [-1], [1], [-1], [1]], 'audiogram': {}, 'is_init_phase': True, 'is_exam_finished': False, 'threshold_uncertainty_db': 6}",500,10,0.0002259279721874612,False,0.005178899969905615,0.19293409993406385,None,0,,248.77955729997484,249.77625489997445,None,1,249.77625489997445,248.77955729997484,,,tvzljm,001,fr,200,2022-04-29_15h11.19.452,Bayesian,2022.1.1,None,
,,,,24,0,24,0,,,,,,,,,,,,,,,,,,,,,,,"{'x': [[1000, 60], [1000, 40], [1000, 20], [1000, 0], [1500, 10], [1500, 30], [2000, 10], [2000, 30], [3000, 10], [3000, 30], [4000, 10], [4000, 30], [6000, 10], [6000, -10], [8000, 10], [8000, 20], [750, 10], [750, 30], [500, 10]], 'y': [[1], [1], [1], [-1], [-1], [1], [-1], [1], [-1], [1], [-1], [1], [1], [-1], [-1], [1], [-1], [1], [-1]], 'audiogram': {}, 'is_init_phase': True, 'is_exam_finished': False, 'threshold_uncertainty_db': 6}",500,30,0.002259279721874612,False,0.010965600027702749,None,['space'],1,[0.6950652000377886],252.8328959000064,253.84719800000312,None,1,253.84719800000312,252.8328959000064,,,tvzljm,001,fr,200,2022-04-29_15h11.19.452,Bayesian,2022.1.1,None,
,,,,25,0,25,0,,,,,,,,,,,,,,,,,,,,,,,"{'x': [[1000, 60], [1000, 40], [1000, 20], [1000, 0], [1500, 10], [1500, 30], [2000, 10], [2000, 30], [3000, 10], [3000, 30], [4000, 10], [4000, 30], [6000, 10], [6000, -10], [8000, 10], [8000, 20], [750, 10], [750, 30], [500, 10], [500, 30]], 'y': [[1], [1], [1], [-1], [-1], [1], [-1], [1], [-1], [1], [-1], [1], [1], [-1], [-1], [1], [-1], [1], [-1], [1]], 'audiogram': {}, 'is_init_phase': True, 'is_exam_finished': False, 'threshold_uncertainty_db': 6}",250,10,0.0005296268625886444,False,0.01456109998980537,None,None,0,,256.7998696999857,257.818342100014,None,1,257.818342100014,256.7998696999857,,,tvzljm,001,fr,200,2022-04-29_15h11.19.452,Bayesian,2022.1.1,None,
,,,,26,0,26,0,,,,,,,,,,,,,,,,,,,,,,,"{'x': [[1000, 60], [1000, 40], [1000, 20], [1000, 0], [1500, 10], [1500, 30], [2000, 10], [2000, 30], [3000, 10], [3000, 30], [4000, 10], [4000, 30], [6000, 10], [6000, -10], [8000, 10], [8000, 20], [750, 10], [750, 30], [500, 10], [500, 30], [250, 10]], 'y': [[1], [1], [1], [-1], [-1], [1], [-1], [1], [-1], [1], [-1], [1], [1], [-1], [-1], [1], [-1], [1], [-1], [1], [-1]], 'audiogram': {}, 'is_init_phase': True, 'is_exam_finished': False, 'threshold_uncertainty_db': 6}",250,30,0.005296268625886445,False,0.010641900007613003,None,['space'],1,[0.6781967999995686],260.2090501000057,261.22027140000137,None,1,261.22027140000137,260.2090501000057,,,tvzljm,001,fr,200,2022-04-29_15h11.19.452,Bayesian,2022.1.1,None,
,,,,27,0,27,0,,,,,,,,,,,,,,,,,,,,,,,"{'x': [[1000, 60], [1000, 40], [1000, 20], [1000, 0], [1500, 10], [1500, 30], [2000, 10], [2000, 30], [3000, 10], [3000, 30], [4000, 10], [4000, 30], [6000, 10], [6000, -10], [8000, 10], [8000, 20], [750, 10], [750, 30], [500, 10], [500, 30], [250, 10], [250, 30]], 'y': [[1], [1], [1], [-1], [-1], [1], [-1], [1], [-1], [1], [-1], [1], [1], [-1], [-1], [1], [-1], [1], [-1], [1], [-1], [1]], 'audiogram': {}, 'is_init_phase': True, 'is_exam_finished': False, 'threshold_uncertainty_db': 6}",125,10,0.002285440948074376,False,0.010003000032156706,None,None,0,,262.6770184999914,263.7042645000038,None,1,263.7042645000038,262.6770184999914,,,tvzljm,001,fr,200,2022-04-29_15h11.19.452,Bayesian,2022.1.1,None,
,,,,28,0,28,0,,,,,,,,,,,,,,,,,,,,,,,"{'x': [[1000, 60], [1000, 40], [1000, 20], [1000, 0], [1500, 10], [1500, 30], [2000, 10], [2000, 30], [3000, 10], [3000, 30], [4000, 10], [4000, 30], [6000, 10], [6000, -10], [8000, 10], [8000, 20], [750, 10], [750, 30], [500, 10], [500, 30], [250, 10], [250, 30], [125, 10]], 'y': [[1], [1], [1], [-1], [-1], [1], [-1], [1], [-1], [1], [-1], [1], [1], [-1], [-1], [1], [-1], [1], [-1], [1], [-1], [1], [-1]], 'audiogram': {}, 'is_init_phase': True, 'is_exam_finished': False, 'threshold_uncertainty_db': 6}",,,,True,0.0003469666698947549,0.18437726667616516,None,0,,265.3064473000122,266.3166587000014,None,1,266.3166587000014,265.3064473000122,,,tvzljm,001,fr,200,2022-04-29_15h11.19.452,Bayesian,2022.1.1,None,
,,,,29,0,29,0,,,,,,,,,,,,,,,,,,,,,,,"{'x': [[1000, 60], [1000, 40], [1000, 20], [1000, 0], [1500, 10], [1500, 30], [2000, 10], [2000, 30], [3000, 10], [3000, 30], [4000, 10], [4000, 30], [6000, 10], [6000, -10], [8000, 10], [8000, 20], [750, 10], [750, 30], [500, 10], [500, 30], [250, 10], [250, 30], [125, 10]], 'y': [[1], [1], [1], [-1], [-1], [1], [-1], [1], [-1], [1], [-1], [1], [1], [-1], [-1], [1], [-1], [1], [-1], [1], [-1], [1], [-1]], 'audiogram': {}, 'is_init_phase': True, 'is_exam_finished': False, 'threshold_uncertainty_db': 6}",125,20,0.00722719885372964,False,0.009219200001098216,None,['space'],1,[0.9544813000247814],267.51636280003004,268.54267860000255,None,1,268.54267860000255,267.51636280003004,,,tvzljm,001,fr,200,2022-04-29_15h11.19.452,Bayesian,2022.1.1,None,
,,,,30,0,30,0,,,,,,,,,,,,,,,,,,,,,,,"{'x': [[1000, 60], [1000, 40], [1000, 20], [1000, 0], [1500, 10], [1500, 30], [2000, 10], [2000, 30], [3000, 10], [3000, 30], [4000, 10], [4000, 30], [6000, 10], [6000, -10], [8000, 10], [8000, 20], [750, 10], [750, 30], [500, 10], [500, 30], [250, 10], [250, 30], [125, 10], [125, 20]], 'y': [[1], [1], [1], [-1], [-1], [1], [-1], [1], [-1], [1], [-1], [1], [1], [-1], [-1], [1], [-1], [1], [-1], [1], [-1], [1], [-1], [1]], 'audiogram': {}, 'is_init_phase': True, 'is_exam_finished': False, 'threshold_uncertainty_db': 6}",353.5533905932738,17.0,0.0006273272561452761,False,0.013299033395014703,None,None,0,,270.7413720000186,271.75564270000905,None,1,271.75564270000905,270.7413720000186,,,tvzljm,001,fr,200,2022-04-29_15h11.19.452,Bayesian,2022.1.1,None,
,,,,31,0,31,0,,,,,,,,,,,,,,,,,,,,,,,,203.0630990890589,17.0,0.0018367018267475058,False,0.005302033387124538,None,['space'],1,[0.8262721999781206],274.4929714999744,275.5182927999995,None,1,275.5182927999995,274.4929714999744,,,tvzljm,001,fr,200,2022-04-29_15h11.19.452,Bayesian,2022.1.1,None,
,,,,32,0,32,0,,,,,,,,,,,,,,,,,,,,,,,,,,,True,0.010810033360030502,None,None,0,,278.26429500000086,279.28728390001925,None,1,279.28728390001925,278.26429500000086,,,tvzljm,001,fr,200,2022-04-29_15h11.19.452,Bayesian,2022.1.1,None,
,,,,33,0,33,0,,,,,,,,,,,,,,,,,,,,,,,,2462.2888266898335,18.0,0.0006756513506128233,False,0.0007915000314824283,None,['space'],1,[0.5512247000006028],282.06468379998114,283.07075999997323,None,1,283.07075999997323,282.06468379998114,,,tvzljm,001,fr,200,2022-04-29_15h11.19.452,Bayesian,2022.1.1,None,
,,,,34,0,34,0,,,,,,,,,,,,,,,,,,,,,,,,574.3491774985172,18.0,0.00047537525293361236,False,0.00017383333761245012,0.1849238333525136,None,0,,286.45892449998064,287.4801626999979,None,1,287.4801626999979,286.45892449998064,,,tvzljm,001,fr,200,2022-04-29_15h11.19.452,Bayesian,2022.1.1,None,
,,,,35,0,35,0,,,,,,,,,,,,,,,,,,,,,,,,1414.213562373095,16.0,0.0003182065535139584,False,0.011394566623494029,None,['space'],1,[0.6275277999811806],290.8194654000108,291.8403614999843,None,1,291.8403614999843,290.8194654000108,,,tvzljm,001,fr,200,2022-04-29_15h11.19.452,Bayesian,2022.1.1,None,
,,,,36,0,36,0,,,,,,,,,,,,,,,,,,,,,,,,,,,True,0.012150233262218535,None,None,0,,294.55315310001606,295.5547349000117,['space'],0,295.5547349000117,294.55315310001606,[1.6209355000173673],,tvzljm,001,fr,200,2022-04-29_15h11.19.452,Bayesian,2022.1.1,None,
,,,,37,0,37,0,,,,,,,,,,,,,,,,,,,,,,,,870.5505632961246,16.0,0.0002547379968512103,False,0.01631570002064109,None,['space'],1,[0.6900328999618068],299.70101309998427,300.69474890001584,None,1,300.69474890001584,299.70101309998427,,,tvzljm,001,fr,200,2022-04-29_15h11.19.452,Bayesian,2022.1.1,None,
,,,,38,0,38,0,,,,,,,,,,,,,,,,,,,,,,,,406.12619817811805,22.0,0.0009598216571527887,False,0.004626066714990884,None,None,0,,304.5521718999953,305.5670724000083,None,1,305.5670724000083,304.5521718999953,,,tvzljm,001,fr,200,2022-04-29_15h11.19.452,Bayesian,2022.1.1,None,
,,,,39,0,39,0,,,,,,,,,,,,,,,,,,,,,,,,287.17458874925893,19.0,0.0011416891270287079,False,0.005505433364305645,0.19774833333212882,['space'],1,[0.7820608000038192],309.27311140001984,310.2708661999786,None,1,310.2708661999786,309.27311140001984,,,tvzljm,001,fr,200,2022-04-29_15h11.19.452,Bayesian,2022.1.1,None,
,,,,40,0,40,0,,,,,,,,,,,,,,,,,,,,,,,,,,,True,0.014424233348108828,None,None,0,,311.92495160002727,312.93890579999425,None,1,312.93890579999425,311.92495160002727,,,tvzljm,001,fr,200,2022-04-29_15h11.19.452,Bayesian,2022.1.1,None,
,,,,41,0,41,0,,,,,,,,,,,,,,,,,,,,,,,,164.93848884661182,13.0,0.0017560715918764403,False,0.006663966574706137,None,['space'],1,[0.888251299969852],315.9674500999972,316.9771955999895,None,1,316.9771955999895,315.9674500999972,,,tvzljm,001,fr,200,2022-04-29_15h11.19.452,Bayesian,2022.1.1,None,
,,,,42,0,42,0,,,,,,,,,,,,,,,,,,,,,,,,4594.793419988137,12.0,0.0004970983918879286,False,0.012327066622674465,None,['space'],1,[0.7221870999783278],319.9249680999783,320.9330187999876,None,1,320.9330187999876,319.9249680999783,,,tvzljm,001,fr,200,2022-04-29_15h11.19.452,Bayesian,2022.1.1,None,
,,,,43,0,43,0,,,,,,,,,,,,,,,,,,,,,,,,1071.7734625362941,11.0,0.00016695574131143172,False,0.011453200015239418,None,['space'],1,[0.7395543000311591],324.1475554999779,325.14716420002514,None,1,325.14716420002514,324.1475554999779,,,tvzljm,001,fr,200,2022-04-29_15h11.19.452,Bayesian,2022.1.1,None,
,,,,44,0,44,0,,,,,,,,,,,,,,,,,,,,,,,,,,,True,0.014601233298890293,None,None,0,,327.8715720999753,328.87831489997916,None,1,328.87831489997916,327.8715720999753,,,tvzljm,001,fr,200,2022-04-29_15h11.19.452,Bayesian,2022.1.1,None,
,,,,45,0,45,0,,,,,,,,,,,,,,,,,,,,,,,,615.5722066724584,20.0,0.000534153907348926,False,0.010324999981094152,None,['space'],1,[0.5703272999962792],331.94800779997604,332.9770836000098,None,1,332.9770836000098,331.94800779997604,,,tvzljm,001,fr,200,2022-04-29_15h11.19.452,Bayesian,2022.1.1,None,
,,,,46,0,46,0,,,,,,,,,,,,,,,,,,,,,,,,125.0,13.0,0.003228271145173279,False,0.01153806661022827,None,['space'],1,[0.8037416000152007],335.65226629999233,336.6586008000304,None,1,336.6586008000304,335.65226629999233,,,tvzljm,001,fr,200,2022-04-29_15h11.19.452,Bayesian,2022.1.1,None,
,,,,47,0,47,0,,,,,,,,,,,,,,,,,,,,,,,,189.4645708137998,10.0,0.0009607379603126595,False,0.009122233313973993,None,['space'],1,[0.11823620001086965],340.2727005999768,341.27252800000133,['space'],0,341.27252800000133,340.2727005999768,[0.029982900014147162],,tvzljm,001,fr,200,2022-04-29_15h11.19.452,Bayesian,2022.1.1,None,
,,,,48,0,48,0,,,,,,,,,,,,,,,,,,,,,,,,8000.0,13.0,0.0008109050486794653,False,0.0060745333903469145,None,['space'],1,[0.5945569999748841],344.58055850001983,345.57463849999476,None,1,345.57463849999476,344.58055850001983,,,tvzljm,001,fr,200,2022-04-29_15h11.19.452,Bayesian,2022.1.1,None,
,,,,49,0,49,0,,,,,,,,,,,,,,,,,,,,,,,,,,,True,0.012383333349134773,None,None,0,,346.7666645999998,347.77699739998206,None,1,347.77699739998206,346.7666645999998,,,tvzljm,001,fr,200,2022-04-29_15h11.19.452,Bayesian,2022.1.1,None,
,,,,50,0,50,0,,,,,,,,,,,,,,,,,,,,,,,,2000.0,15.0,0.0004206975708225976,False,0.007227800029795617,None,['space'],1,[0.6959868000121787],350.35059500002535,351.36309669999173,None,1,351.36309669999173,350.35059500002535,,,tvzljm,001,fr,200,2022-04-29_15h11.19.452,Bayesian,2022.1.1,None,
,,,,51,0,51,0,,,,,,,,,,,,,,,,,,,,,,,,3031.4331330207992,14.0,0.000289679182090381,False,0.012644466653000563,None,['space'],1,[0.5314368999679573],355.65140109998174,356.64746120001655,None,1,356.64746120001655,355.65140109998174,,,tvzljm,001,fr,200,2022-04-29_15h11.19.452,Bayesian,2022.1.1,None,
,,,,52,0,52,0,,,,,,,,,,,,,,,,,,,,,,,,933.0329915368076,10.0,0.00013328721315527422,False,0.011791266617365181,None,['space'],1,[0.8658813000074588],360.7262582000112,361.72509199997876,None,1,361.72509199997876,360.7262582000112,,,tvzljm,001,fr,200,2022-04-29_15h11.19.452,Bayesian,2022.1.1,None,
,,,,53,0,53,0,,,,,,,,,,,,,,,,,,,,,,,,,,,True,0.013589933281764388,None,None,0,,364.2140703999903,365.2285704999813,['space'],0,365.2285704999813,364.2140703999903,[0.18683889997191727],,tvzljm,001,fr,200,2022-04-29_15h11.19.452,Bayesian,2022.1.1,None,
,,,,54,0,54,0,,,,,,,,,,,,,,,,,,,,,,,,176.7766952966369,8.0,0.0008792129428200801,False,0.006692000082693994,None,None,0,,369.5389557000017,370.5570170999854,None,1,370.5570170999854,369.5389557000017,,,tvzljm,001,fr,200,2022-04-29_15h11.19.452,Bayesian,2022.1.1,None,
,,,,55,0,55,0,,,,,,,,,,,,,,,,,,,,,,,,406.12619817811805,23.0,0.0010769376121641213,False,0.011860999919008464,None,None,0,,374.70057310000993,375.7048120999825,None,1,375.7048120999825,374.70057310000993,,,tvzljm,001,fr,200,2022-04-29_15h11.19.452,Bayesian,2022.1.1,None,
,,,,56,0,56,0,,,,,,,,,,,,,,,,,,,,,,,,1319.5079107728945,10.0,0.00016691630737980854,False,0.005946200049947947,None,"['space', 'space']",0,"[-1.3821561000077054, 0.6975814999896102]",378.4611733999918,379.4839384999941,None,1,379.4839384999941,378.4611733999918,,,tvzljm,001,fr,200,2022-04-29_15h11.19.452,Bayesian,2022.1.1,None,
,,,,57,0,57,0,,,,,,,,,,,,,,,,,,,,,,,,5656.85424949238,8.0,0.0003228369032068458,False,0.00038296659477055073,None,['space'],1,[0.4170496999868192],382.0701453000074,383.0784404000151,None,1,383.0784404000151,382.0701453000074,,,tvzljm,001,fr,200,2022-04-29_15h11.19.452,Bayesian,2022.1.1,None,
,,,,58,0,58,0,,,,,,,,,,,,,,,,,,,,,,,,,,,True,0.013191533333156258,None,None,0,,384.9725772999809,385.9830850000144,None,1,385.9830850000144,384.9725772999809,,,tvzljm,001,fr,200,2022-04-29_15h11.19.452,Bayesian,2022.1.1,None,
,,,,59,0,59,0,,,,,,,,,,,,,,,,,,,,,,,,287.17458874925893,17.0,0.0009068759088766196,False,0.01500676671275869,None,['space'],1,[0.696832399989944],389.6786828999757,390.68679050001083,None,1,390.68679050001083,389.6786828999757,,,tvzljm,001,fr,200,2022-04-29_15h11.19.452,Bayesian,2022.1.1,None,
,,,,60,0,60,0,,,,,,,,,,,,,,,,,,,,,,,,1000.0,7.0,9.862113680574268e-05,False,0.009548066591378301,None,None,0,,393.5467585999868,394.5540215999936,None,1,394.5540215999936,393.5467585999868,,,tvzljm,001,fr,200,2022-04-29_15h11.19.452,Bayesian,2022.1.1,None,
,,,,61,0,61,0,,,,,,,,,,,,,,,,,,,,,,,,2297.3967099940687,13.0,0.0003636194588672079,False,0.012096100021153688,None,['space'],1,[0.7559162999968976],398.1627948000096,399.163331800024,None,1,399.163331800024,398.1627948000096,,,tvzljm,001,fr,200,2022-04-29_15h11.19.452,Bayesian,2022.1.1,None,
,,,,62,0,62,0,,,,,,,,,,,,,,,,,,,,,,,,,,,True,0.013980533287394792,None,None,0,,400.8561681000283,401.8646833000239,None,1,401.8646833000239,400.8561681000283,,,tvzljm,001,fr,200,2022-04-29_15h11.19.452,Bayesian,2022.1.1,None,
,,,,63,0,63,0,,,,,,,,,,,,,,,,,,,,,,,,8000.0,11.0,0.000644124775846567,False,0.009134499996434897,None,['space'],1,[0.6625643000006676],405.8250922000152,406.837168500002,None,1,406.837168500002,405.8250922000152,,,tvzljm,001,fr,200,2022-04-29_15h11.19.452,Bayesian,2022.1.1,None,
,,,,64,0,64,0,,,,,,,,,,,,,,,,,,,,,,,,5656.85424949238,6.0,0.0002564384674281475,False,0.003424833354074508,None,['space'],1,[0.6193170000333339],410.6674789999961,411.67455430002883,None,1,411.67455430002883,410.6674789999961,,,tvzljm,001,fr,200,2022-04-29_15h11.19.452,Bayesian,2022.1.1,None,
,,,,65,0,65,0,,,,,,,,,,,,,,,,,,,,,,,,5656.85424949238,6.0,0.0002564384674281475,False,None,None,None,0,,None,None,None,1,None,None,,"{'estimation': [[125.0, 11.399714025031077], [133.0659890172315, 11.0], [133.9716828170366, 10.957541303894997], [143.5872943746293, 10.482370475553209], [153.89305166811442, 10.00998635593256], [154.14112533900425, 10.0], [164.93848884661162, 9.593117235502163], [176.77669529663666, 9.301736209859286], [189.46457081379947, 9.196392041115487], [203.0630990890585, 9.349362697800428], [217.63764082403046, 9.82279187518521], [220.80637733258396, 10.0], [233.25824788420132, 10.67353767314307], [237.56155000281942, 11.0], [249.99999999999937, 11.918162811098446], [250.90423534602462, 12.0], [261.71787399814684, 13.0], [267.94336563407256, 13.538121259105882], [272.5939359845695, 14.0], [282.2447408636596, 15.0], [287.1745887492579, 15.463078262892944], [292.51599080936546, 16.0], [301.87677925622205, 17.0], [307.78610333622805, 17.567420424198872], [312.3985118594298, 18.0], [322.35670745872767, 19.0], [329.87697769322244, 19.684115313435463], [333.7924154755719, 19.999999999999996], [345.5791621133798, 21.0], [353.55339059327247, 21.619031884387162], [359.7040799237522, 22.0], [375.85135035408365, 23.0], [378.929141627598, 23.1779254713205], [400.8038386673741, 24.0], [406.12619817811606, 24.194537947803656], [435.2752816480601, 24.56888273247342], [466.5164957684015, 24.282871582023972], [476.75397453013784, 24.0], [499.9999999999975, 23.379301110301753], [509.5299578296452, 23.0], [535.0417611610493, 22.0], [535.8867312681444, 21.9687080657157], [556.6374986068932, 21.0], [574.3491774985143, 20.209190244689157], [578.828456435424, 20.0], [599.1719941839041, 19.0], [615.5722066724546, 18.246310835369716], [621.1237401527574, 18.0], [642.3192706506427, 17.0], [659.7539553864432, 16.2296957460484], [665.4788954032396, 16.0], [689.0487438796013, 15.0], [707.1067811865431, 14.28160917266453], [715.157651902223, 14.0], [742.8033557859768, 13.0], [757.8582832551941, 12.496205326765622], [774.9610914014711, 12.0], [810.3377975763501, 11.0], [812.2523963562311, 10.949800256527007], [855.7333617531436, 10.0], [870.5505632961181, 9.699648179946783], [917.9740554084578, 9.0], [933.0329915368008, 8.79019500895358], [999.9999999999926, 8.255459156384784], [1071.773462536285, 8.089441365949824], [1148.698354997026, 8.273568653459192], [1231.1444133449063, 8.7385252899293], [1265.305504520047, 9.0], [1319.5079107728832, 9.401470255701224], [1397.1149764856048, 10.0], [1414.2135623730828, 10.129914452154454], [1515.7165665103846, 10.799106454687935], [1556.624006247564, 11.0], [1624.5047927124563, 11.324616808805773], [1741.1011265922298, 11.633147810913545], [1866.065983073597, 11.736035787077933], [1999.9999999999802, 11.68494805930083], [2143.5469250725646, 11.568232151664295], [2297.396709994046, 11.481046052572484], [2462.2888266898062, 11.495035524627113], [2639.01582154576, 11.634980621918327], [2828.427124746159, 11.8692046814098], [2935.7003155071175, 12.0], [3031.4331330207615, 12.113642233224672], [3249.0095854249043, 12.242212058307176], [3482.2022531844555, 12.141313977893368], [3566.0845578897174, 12.0], [3732.1319661471844, 11.730040329576703], [3999.9999999999504, 11.003046537838127], [4000.853476895295, 11.0], [4287.093850145118, 10.015336969344279], [4291.18091925739, 10.0], [4564.822112494545, 9.0], [4594.793419988081, 8.894798918563994], [4866.84158256135, 8.0], [4924.577653379601, 7.816603791135027], [5260.795352371621, 7.000000000000001], [5278.031643091506, 6.9588497165341305], [5656.854249492303, 6.460225176586967], [6062.866266041508, 6.404123558701539], [6498.019170849792, 6.789279036862018], [6619.267836968875, 7.000000000000001], [6964.4045063688845, 7.552112816577588], [7176.694115160515, 8.0], [7464.2639322943505, 8.564248930231013], [7670.4616780343395, 9.0], [7999.999999999892, 9.678064134582272]], 'plus_line': [[125.0, 8.956056982620408], [133.9716828170366, 8.570083773385297], [143.5872943746293, 8.119412061830062], [146.25045412627478, 8.0], [153.89305166811442, 7.641596417481496], [164.93848884661162, 7.26612535056266], [176.77669529663666, 7.012015507265586], [178.15257910197562, 7.0], [189.46457081379947, 6.888615376192366], [201.26506045760445, 7.0], [203.0630990890585, 7.014324947672046], [217.6376408240306, 7.428912521458458], [228.09205087827976, 8.0], [233.25824788420132, 8.26800968760147], [243.09472142021315, 9.0], [249.99999999999937, 9.514076677983041], [255.59678733403214, 10.0], [266.0407829341998, 11.0], [267.94336563407256, 11.167228497046363], [276.83485145069506, 12.0], [286.0640388168684, 13.0], [287.1745887492579, 13.105183994622823], [296.74384244923834, 14.0], [305.68289301225025, 15.0], [307.78610333622805, 15.203418780451939], [316.951453194074, 16.0], [326.47647569254286, 17.0], [329.87697769322244, 17.313599141948796], [338.95717813919566, 18.0], [350.29373126121413, 19.0], [353.55339059327247, 19.2559773765087], [366.0422632337051, 20.0], [378.929141627598, 20.813765155940658], [383.82862951142926, 21.0], [406.12619817811606, 21.820245878961234], [420.01500610062175, 22.0], [435.2752816480601, 22.173575173290637], [452.4595599317937, 22.0], [466.5164957684015, 21.84459272583318], [497.4401660078213, 21.0], [499.9999999999981, 20.93047618932681], [522.6513429918845, 20.0], [535.8867312681438, 19.517342150895914], [546.6749409699187, 19.0], [568.6956880282706, 18.0], [574.3491774985143, 17.777423965189225], [589.4745489126498, 17.0], [611.1845962430132, 16.0], [615.5722066724546, 15.826121256987916], [632.1159478652066, 15.0], [654.4298741858091, 14.000000000000002], [659.7539553864432, 13.796625096225226], [677.4932319492649, 13.0], [702.3593599389585, 12.0], [707.1067811865431, 11.83446214325784], [729.0738012317972, 11.0], [757.8582832551941, 10.066920078399608], [760.1728321303124, 10.0], [794.081240519807, 9.0], [812.2523963562301, 8.542159998353998], [837.7002164857965, 8.0], [870.5505632961181, 7.360960104410902], [896.4188856101124, 7.0], [933.0329915368008, 6.505127651186333], [999.9999999999926, 6.015109642707269], [1006.3693734640791, 6.0], [1071.773462536285, 5.826899034655269], [1145.2561947920215, 6.0], [1148.698354997026, 6.006861727756567], [1231.1444133449063, 6.439127138863727], [1304.5188514456074, 7.0], [1319.5079107728832, 7.105940534137548], [1414.2135623730828, 7.8092413527667475], [1442.0025637247181, 8.0], [1515.7165665103846, 8.456441059414951], [1624.5047927124542, 8.973952809049662], [1633.3670109295606, 9.0], [1741.1011265922318, 9.26633014749124], [1866.065983073597, 9.37471252262114], [1999.9999999999802, 9.34058172011655], [2143.5469250725646, 9.233326085501073], [2297.396709994046, 9.13911731909391], [2462.2888266898062, 9.135124265817346], [2639.01582154576, 9.257587354708404], [2828.427124746159, 9.480639180442743], [3031.4331330207615, 9.719728815872017], [3249.0095854249043, 9.841950016996424], [3482.2022531844555, 9.713324907471428], [3732.1319661471844, 9.287667350942964], [3835.064743675325, 9.0], [3999.9999999999504, 8.532989668417873], [4151.08558945783, 8.0], [4287.093850145118, 7.53207852174257], [4428.593581882861, 7.0], [4594.793419988081, 6.402744979066577], [4713.336899041078, 6.0], [4924.577653379601, 5.30638451142583], [5045.400897894978, 5.0], [5278.031643091506, 4.4099904252918725], [5582.714915711063, 4.0], [5656.85424949231, 3.8920342090460913], [6062.866266041516, 3.8287000159605062], [6216.812707591666, 4.0], [6498.019170849792, 4.266344787324629], [6884.493314985024, 5.0], [6964.404506368894, 5.137784521559005], [7345.877872276034, 6.0], [7464.2639322943505, 6.249181361328083], [7820.603518240253, 7.0], [7999.999999999882, 7.367134673022698]], 'minus_line': [[125.0, 13.88200001189451], [133.9716828170366, 13.362924899783351], [140.48613790220418, 13.0], [143.5872943746293, 12.847697122966853], [153.89305166811442, 12.371352419189973], [162.43265475702407, 12.0], [164.93848884661162, 11.904436047214082], [176.77669529663666, 11.599567562662322], [189.46457081379947, 11.504446435941299], [203.0630990890585, 11.690859236552921], [211.97785560794634, 12.0], [217.6376408240306, 12.211587378749787], [232.0093111674443, 13.0], [233.25824788420132, 13.06893781764484], [245.4067047044603, 14.0], [249.99999999999937, 14.320075529340484], [257.10997600898173, 15.0], [267.94336563407256, 15.908255896969262], [268.85059894176055, 16.0], [277.8429670006761, 17.0], [287.1745887492579, 17.838691998645082], [288.73810730878694, 18.0], [297.3529362120858, 19.0], [307.78610333622805, 19.958414477039344], [308.22205524695653, 20.0], [317.40911289600723, 21.0], [328.47427461251016, 22.0], [329.87697769322244, 22.110655086873976], [339.6916383729313, 23.0], [352.70525447821376, 24.0], [353.55339059327247, 24.058620616495627], [367.70858787831264, 25.0], [378.929141627598, 25.643816848350657], [388.0716620753092, 26.0], [406.12619817811606, 26.683689956221997], [429.4658832896669, 27.0], [435.2752816480601, 27.087193007042558], [444.82737030633695, 27.0], [466.5164957684015, 26.832103245554748], [497.29616653093285, 26.0], [499.9999999999981, 25.930075870831843], [523.7451170329239, 25.0], [535.8867312681438, 24.518386353407227], [547.6711010929224, 24.0], [568.0272018358646, 23.0], [574.3491774985143, 22.71144207131792], [590.3442284094423, 22.0], [609.6489857120356, 21.0], [615.5722066724546, 20.72261465560848], [632.8618157957211, 20.0], [653.1321332465216, 19.0], [659.7539553864424, 18.70392195955948], [678.3775245503847, 18.0], [701.0478408246688, 17.0], [707.1067811865431, 16.757557267774573], [729.7446336829822, 16.0], [756.3097342842556, 15.0], [757.8582832551941, 14.94793988569347], [790.9558875300083, 14.0], [812.2523963562301, 13.372740674966543], [828.5921514344996, 13.0], [870.5505632961181, 12.028979180685582], [872.2873886611624, 12.0], [933.0329915368008, 11.054697320918631], [938.7502622137283, 11.0], [999.9999999999926, 10.498220659673432], [1071.773462536285, 10.335540701282186], [1148.698354997026, 10.54016979370863], [1229.3431077368175, 11.0], [1231.1444133449063, 11.011340461078412], [1319.5079107728832, 11.70587944636464], [1356.5658761941713, 12.0], [1414.2135623730828, 12.46690130435019], [1492.6159832366823, 13.0], [1515.7165665103846, 13.164860595424717], [1624.5047927124563, 13.71408510714973], [1734.4574197645627, 14.0], [1741.1011265922318, 14.019316284811088], [1866.065983073597, 14.11467101410397], [1999.9999999999802, 14.026230515298666], [2023.8071907610442, 14.0], [2143.5469250725646, 13.892915829632528], [2297.396709994046, 13.811449775985908], [2462.2888266898062, 13.840626733383635], [2639.01582154576, 13.993070296468547], [2644.2500696061184, 14.0], [2828.427124746159, 14.26577547531779], [3031.4331330207615, 14.529432127454742], [3249.0095854249043, 14.681870735842235], [3482.2022531844555, 14.617571075328222], [3732.1319661471844, 14.234503243634993], [3814.4327605642184, 14.0], [3999.999999999946, 13.51735328039097], [4145.645718790115, 13.0], [4287.093850145118, 12.51891943583005], [4425.9307916122525, 12.0], [4594.793419988081, 11.383051657238795], [4708.398736564751, 11.0], [4924.577653379601, 10.291525050752082], [5039.326592884705, 10.0], [5278.031643091506, 9.434168881520172], [5595.622999610016, 9.0], [5656.854249492303, 8.924109238818067], [6062.866266041508, 8.861301819622248], [6239.393399008586, 9.0], [6498.019170849792, 9.213129675527032], [6964.404506368894, 9.880423036795783], [7024.706635271665, 10.0], [7464.2639322943505, 10.823389088662946], [7545.408715099089, 11.0], [7999.999999999882, 11.966537890683071]]}",tvzljm,001,fr,200,2022-04-29_15h11.19.452,Bayesian,2022.1.1,None,
