tTrials.thisRepN,tTrials.thisTrialN,tTrials.thisN,tTrials.thisIndex,blocks.thisRepN,blocks.thisTrialN,blocks.thisN,blocks.thisIndex,trials.thisRepN,trials.thisTrialN,trials.thisN,trials.thisIndex,tStart_text.started,tStart_text.stopped,Prediction,practice_Frequency,practice_Level,practice_Psychopy_Level,practice_isCatchTrial,Practice_trial_detection,practice_Cue_Delays,practice_Cue_Frequencies,practice_Interval,practice_Cue_Intensities,tCue_visual_cue.started,tCue_visual_cue.stopped,tProbe_visual_cue.started,tProbe_visual_cue.stopped,tFeedback.keys,tFeedback.corr,tFeedback.rt,tFeedback.started,tFeedback.stopped,tToo_late.keys,tToo_late.corr,tToo_early.keys,tToo_early.corr,tToo_early.rt,more_instructions.started,more_instructions.stopped,readyy.keys,readyy.rt,readyy.started,readyy.stopped,txt_rhythm.started,txt_rhythm.stopped,sound_1.started,sound_1.stopped,sound_2.started,sound_2.stopped,sound_3.started,sound_3.stopped,sound_4.started,sound_4.stopped,cross.started,cross.stopped,sound_5.started,sound_5.stopped,circle.started,circle.stopped,rhythm_ready.keys,rhythm_ready.rt,rhythm_ready.started,rhythm_ready.stopped,rhytm_ready_txt.started,rhytm_ready_txt.stopped,txt_freq.started,txt_freq.stopped,sound_6.started,sound_6.stopped,sound_7.started,sound_7.stopped,sound_8.started,sound_8.stopped,sound_9.started,sound_9.stopped,cross_2.started,cross_2.stopped,sound_10.started,sound_10.stopped,circle_2.started,circle_2.stopped,freq_ready.keys,freq_ready.rt,freq_ready.started,freq_ready.stopped,freq_ready_txt.started,freq_ready_txt.stopped,txt_freq_2.started,txt_freq_2.stopped,sound_11.started,sound_11.stopped,sound_12.started,sound_12.stopped,sound_13.started,sound_13.stopped,sound_14.started,sound_14.stopped,cross_3.started,cross_3.stopped,sound_15.started,sound_15.stopped,circle_3.started,circle_3.stopped,freq_ready_2.keys,freq_ready_2.rt,freq_ready_2.started,freq_ready_2.stopped,freq_ready_txt_2.started,freq_ready_txt_2.stopped,txt_freq_3.started,txt_freq_3.stopped,sound_16.started,sound_16.stopped,sound_17.started,sound_17.stopped,sound_18.started,sound_18.stopped,sound_19.started,sound_19.stopped,cross_4.started,cross_4.stopped,sound_20.started,sound_20.stopped,circle_4.started,circle_4.stopped,freq_ready_txt_3.started,freq_ready_txt_3.stopped,tStart_text_2.started,tStart_text_2.stopped,this_trial_is.started,this_trial_is.stopped,Frequency,Level,Psychopy_Level,Real trial detection,Cue Delays,Cue Frequencies,Interval,Cue Intensities,Catch trial,cue_visual_cue.started,cue_visual_cue.stopped,probe_visual_cue.started,probe_visual_cue.stopped,feedback.keys,feedback.corr,feedback.rt,feedback.started,feedback.stopped,answer_too_late.keys,answer_too_late.corr,answer_too_early.keys,answer_too_early.corr,Catch trial answer,answer_too_early.rt,answer_too_late.rt,Audiogram_none,Audiogram_frequency,Audiogram_time,Audiogram_both,participant,session,Language (english or french),Skip training? (1 for yes),Resume previous experiment,date,expName,psychopyVersion,frameRate,
0,0,0,0,,,,,,,,,22.51522830000613,None,time,1000,30,0.0013930605843148849,False,1,"[0.578525493104081, 0.578525493104081, 0.578525493104081, 0.578525493104081]","[129.3524060468257, 1110.1896976252992, 310.14921735577235, 420.258307192852]",None,"[30, 30, 30, 30]",43.149028400017414,45.807716300012544,45.807716300012544,47.044270500016864,['space'],1,[0.984195799974259],45.807716300012544,47.61155960004544,None,1,"['space', 'space']",0,"[0.6664720000117086, 2.298297100001946]",,,,,,,,,,,,,,,,,,,,,,,,,,,,,,,,,,,,,,,,,,,,,,,,,,,,,,,,,,,,,,,,,,,,,,,,,,,,,,,,,,,,,,,,,,,,,,,,,,,,,,,,,,,,,,,,,,,,,,,,,,,,lkbxgs,001,fr,0,0,2022-04-29_11h04.04.543,Cluster,2022.1.1,36.63843796696743,
1,0,1,0,,,,,,,,,,,none,2500,30,0.002716251657462167,False,1,"[0.7916644989881566, 0.7883315532268846, 0.7575530582173635, 0.4791856493204605]","[4968.910121023561, 1319.5197348060417, 3731.834535208474, 1371.3352392120382]",None,"[30, 30, 30, 30]",54.865154600003734,58.11627679999219,58.11627679999219,59.34022080001887,['space'],1,[0.8834689999930561],58.11627679999219,59.81870010000421,None,1,None,1,,,,,,,,,,,,,,,,,,,,,,,,,,,,,,,,,,,,,,,,,,,,,,,,,,,,,,,,,,,,,,,,,,,,,,,,,,,,,,,,,,,,,,,,,,,,,,,,,,,,,,,,,,,,,,,,,,,,,,,,,,,,,lkbxgs,001,fr,0,0,2022-04-29_11h04.04.543,Cluster,2022.1.1,36.63843796696743,
2,0,2,0,,,,,,,,,,,both,6000,30,0.003664122665694519,True,1,"[0.4209749328531132, 0.4209749328531132, 0.4209749328531132, 0.4209749328531132]","[2381.1015779523, 3000.000000000001, 3779.76314968462, 4762.203155904599]",Major_3rd,"[30, 30, 30, 30]",63.84306290000677,66.04014699999243,66.04014699999243,67.24990500003332,None,1,,66.04014699999243,67.67806750000454,None,1,None,1,,,,,,,,,,,,,,,,,,,,,,,,,,,,,,,,,,,,,,,,,,,,,,,,,,,,,,,,,,,,,,,,,,,,,,,,,,,,,,,,,,,,,,,,,,,,,,,,,,,,,,,,,,,,,,,,,,,,,,,,,,,,,lkbxgs,001,fr,0,0,2022-04-29_11h04.04.543,Cluster,2022.1.1,36.63843796696743,
3,0,3,0,,,,,,,,,,,time,440,30,0.0023562289915021436,False,1,"[0.6353648033320431, 0.6353648033320431, 0.6353648033320431, 0.6353648033320431]","[946.3735232416512, 1836.9356485255817, 1600.553666831418, 2341.2147312760976]",None,"[30, 30, 30, 30]",71.63195300003281,74.45345020003151,74.45345020003151,75.67395389999729,['space'],1,[1.1227204999886453],74.45345020003151,76.29199670004891,None,1,None,1,,,,,,,,,,,,,,,,,,,,,,,,,,,,,,,,,,,,,,,,,,,,,,,,,,,,,,,,,,,,,,,,,,,,,,,,,,,,,,,,,,,,,,,,,,,,,,,,,,,,,,,,,,,,,,,,,,,,,,,,,,,,,lkbxgs,001,fr,0,0,2022-04-29_11h04.04.543,Cluster,2022.1.1,36.63843796696743,
4,0,4,0,,,,,,,,,,,none,250,30,0.005296268625886445,True,1,"[0.6899228122224985, 0.7031138016374038, 0.5271177930127127, 0.5708778704718884]","[904.4847353394943, 511.6498121086666, 836.1498386239176, 243.1035023017198]",None,"[30, 30, 30, 30]",79.2096493000281,82.05575330002466,82.05575330002466,83.27409150003223,None,1,,82.05575330002466,83.84351640002569,None,1,None,1,,,,,,,,,,,,,,,,,,,,,,,,,,,,,,,,,,,,,,,,,,,,,,,,,,,,,,,,,,,,,,,,,,,,,,,,,,,,,,,,,,,,,,,,,,,,,,,,,,,,,,,,,,,,,,,,,,,,,,,,,,,,,lkbxgs,001,fr,0,0,2022-04-29_11h04.04.543,Cluster,2022.1.1,36.63843796696743,
,,,,,,,,,,,,,,,,,,,,,,,,,,,,,,,,,,,,,,86.28239060001215,None,space,30.82900480000535,86.28239060001215,None,,,,,,,,,,,,,,,,,,,,,,,,,,,,,,,,,,,,,,,,,,,,,,,,,,,,,,,,,,,,,,,,,,,,,,,,,,,,,,,,,,,,,,,,,,,,,,,,,,,,,,,,,,,,,,,,,,,,,,lkbxgs,001,fr,0,0,2022-04-29_11h04.04.543,Cluster,2022.1.1,36.63843796696743,
,,,,,,,,,,,,,,,,,,,,,,,,,,,,,,,,,,,,,,,,,,,,117.17421200004173,118.17254980001599,118.6568932800379,118.86311080004089,119.14627618004451,119.35536040004808,119.63783878000103,119.85359460004838,120.13807728001265,120.35457030002726,118.5425209000241,120.35457030002726,120.63863008003099,120.85151080001378,120.35457030002726,121.16868080000859,space,0.3633624999783933,121.34057620004751,None,,,,,,,,,,,,,,,,,,,,,,,,,,,,,,,,,,,,,,,,,,,,,,,,,,,,,,,,,,,,,,,,,,,,,,,,,,,,,,,,,,,,,,,,,,,,,,,,,,lkbxgs,001,fr,0,0,2022-04-29_11h04.04.543,Cluster,2022.1.1,36.63843796696743,
,,,,,,,,,,,,,,,,,,,,,,,,,,,,,,,,,,,,,,,,,,,,,,,,,,,,,,,,,,,,,,,,121.34057620004751,None,121.74691220000386,122.75676660001045,123.212071080046,123.42494340002304,123.50660378002212,123.720087099995,124.20300048001226,124.41202570003225,124.6243809800304,124.83750590001,123.12818110000808,124.92163120000623,125.21035927999182,125.42716560000554,124.92163120000623,125.73809009999968,space,1.8251928000245243,125.91039530001581,None,,,,,,,,,,,,,,,,,,,,,,,,,,,,,,,,,,,,,,,,,,,,,,,,,,,,,,,,,,,,,,,,,,,,,,,,,,,,lkbxgs,001,fr,0,0,2022-04-29_11h04.04.543,Cluster,2022.1.1,36.63843796696743,
,,,,,,,,,,,,,,,,,,,,,,,,,,,,,,,,,,,,,,,,,,,,,,,,,,,,,,,,,,,,,,,,,,,,,,,,,,,,,,,,,,,,,,125.91039530001581,None,127.79007670003921,128.8096072000335,129.26749638001783,129.48772040003678,129.74448407999589,129.95975010003895,130.2475080800301,130.4564401000389,130.75382258003228,130.97051980003016,129.15268310002284,130.97051980003016,131.2545999800146,131.4708532000077,130.97051980003016,131.78070250002202,space,1.7346434999490157,131.95321020000847,None,,,,,,,,,,,,,,,,,,,,,,,,,,,,,,,,,,,,,,,,,,,,,,,,,,,,,,lkbxgs,001,fr,0,0,2022-04-29_11h04.04.543,Cluster,2022.1.1,36.63843796696743,
,,,,0,0,0,0,0,0,0,0,,,frequency,,,,,,,,,,,,,,,,,,,,,,,,,,,,,,,,,,,,,,,,,,,,,,,,,,,,,,,,,,,,,,,,,,,,,,,,,,,,,,,,,,,,,,,,,,,,,,131.95321020000847,None,133.72602340002777,134.73652700003004,135.191251380014,135.4040208000224,135.48501018003444,135.6977999000228,136.1820774800086,136.39046110003255,136.5740043800266,136.7829938000068,135.07825270004105,136.8948865000275,137.18381188000203,137.3915463000303,136.8948865000275,137.71839860000182,137.88963290001266,None,138.9230279000476,None,174.25874320004368,None,260.03778546884917,11.0,0.000556519832408508,1,"[0.5853889433094447, 0.561728367422663, 0.717074604168665, 0.7248681224458057]","[1310.5083187210012, 874.659366525079, 583.7650906303955, 389.616454223317]",Perfect_5th,"[9.0, 14.293514526086224, 10.0, 15.0]",False,175.24997599999188,178.1269878000021,178.1269878000021,179.34503050002968,['space'],1,[0.8636445000302047],3.6178995199734345,4.637326019932516,None,1,None,1,,,,,,,,lkbxgs,001,fr,0,0,2022-04-29_11h04.04.543,Cluster,2022.1.1,36.63843796696743,
,,,,0,0,0,0,1,0,1,0,,,frequency,,,,,,,,,,,,,,,,,,,,,,,,,,,,,,,,,,,,,,,,,,,,,,,,,,,,,,,,,,,,,,,,,,,,,,,,,,,,,,,,,,,,,,,,,,,,,,,,,,,,,,,,,,,,,,,,,,,,179.92654600000242,None,406.12619817811805,5.0,0.00013557841268703428,1,"[0.5490578683572203, 0.47181446349460177, 0.7159768822504102, 0.7667408606432506]","[161.17128855494758, 203.06309908905908, 255.84347299919395, 322.34257710989505]",Major_3rd,"[15.0, 15.542516398817245, 17.0, 17.0]",False,181.47412600001553,184.25182440003846,184.25182440003846,185.46454220003216,['space'],1,[0.8015366999898106],3.5246971199521795,4.548672219971195,None,1,None,1,,,,,,,,lkbxgs,001,fr,0,0,2022-04-29_11h04.04.543,Cluster,2022.1.1,36.63843796696743,
,,,,0,0,0,0,2,0,2,0,,,time,,,,,,,,,,,,,,,,,,,,,,,,,,,,,,,,,,,,,,,,,,,,,,,,,,,,,,,,,,,,,,,,,,,,,,,,,,,,,,,,,,,,,,,,,,,,,,,,,,,,,,,,,,,,,,,,,,,,186.05404960003216,None,1990.8586202166307,1.8976787800151786,9.256592823449761e-05,1,"[0.6848443876161938, 0.6848443876161938, 0.6848443876161938, 0.6848443876161938]","[587.2555781262737, 1552.1034814297684, 233.78007833630093, 7685.6675954881]",None,"[10.0, 6.842176152629632, 16.4155217517478, 4.169685870525205]",False,187.06166730000405,190.13579050003318,190.13579050003318,191.3674558000057,['space'],1,[0.061937499966006726],3.7747002199757844,4.793931619962677,None,1,None,1,,,,,,,,lkbxgs,001,fr,0,0,2022-04-29_11h04.04.543,Cluster,2022.1.1,36.63843796696743,
,,,,0,0,0,0,3,0,3,0,,,none,,,,,,,,,,,,,,,,,,,,,,,,,,,,,,,,,,,,,,,,,,,,,,,,,,,,,,,,,,,,,,,,,,,,,,,,,,,,,,,,,,,,,,,,,,,,,,,,,,,,,,,,,,,,,,,,,,,,191.89232520002406,None,330.90959895860357,10.83421893885338,0.00032892793434413376,1,"[0.4256105947449359, 0.6945871379252381, 0.508684893149752, 0.4933738922002416]","[157.2371289565186, 7213.256045423198, 4309.764119988971, 1230.8468420604258]",None,"[15.0, 4.0, 10.440910573743857, 10.270511836376757]",False,192.88855690002674,195.54177770001115,195.54177770001115,196.7457517000148,['space'],1,[0.9062604000209831],3.1518704199697822,4.183190719981212,None,1,None,1,,,,,,,,lkbxgs,001,fr,0,0,2022-04-29_11h04.04.543,Cluster,2022.1.1,36.63843796696743,
,,,,0,0,0,0,4,0,4,0,,,none,,,,,,,,,,,,,,,,,,,,,,,,,,,,,,,,,,,,,,,,,,,,,,,,,,,,,,,,,,,,,,,,,,,,,,,,,,,,,,,,,,,,,,,,,,,,,,,,,,,,,,,,,,,,,,,,,,,,197.11232130002463,None,4924.577653379667,2.0,0.00018576269882334046,1,"[0.7270862251646387, 0.616239021764057, 0.7531754272351955, 0.404930782434501]","[4266.653642511488, 395.64640239358306, 2004.0265510129934, 431.212619425745]",None,"[10.440910573743857, 14.0, 7.897678780015179, 12.652266053110589]",False,198.66746160003822,201.78511470003286,201.78511470003286,202.9860324000474,['space'],1,[0.801244999980554],3.540570699959062,4.5479614999494515,None,1,None,1,,,,,,,,lkbxgs,001,fr,0,0,2022-04-29_11h04.04.543,Cluster,2022.1.1,36.63843796696743,
,,,,0,0,0,0,5,0,5,0,,,both,,,,,,,,,,,,,,,,,,,,,,,,,,,,,,,,,,,,,,,,,,,,,,,,,,,,,,,,,,,,,,,,,,,,,,,,,,,,,,,,,,,,,,,,,,,,,,,,,,,,,,,,,,,,,,,,,,,,203.26117010001326,None,1328.6014158760054,2.8937323571482487,7.33371233422224e-05,0,"[0.5148462071430917, 0.5148462071430917, 0.5148462071430917, 0.5148462071430917]","[263.62791065100123, 394.99556419060866, 591.8246491616865, 886.7350601090141]",Perfect_5th,"[17.17266412098619, 14.0, 10.0, 14.293514526086224]",False,204.26985630003037,206.8264562000404,206.8264562000404,208.05042380001396,None,0,,3.09119321993785,4.102165719959885,None,1,None,1,,,,,,,,lkbxgs,001,fr,0,0,2022-04-29_11h04.04.543,Cluster,2022.1.1,36.63843796696743,
,,,,0,0,0,0,6,0,6,0,,,both,,,,,,,,,,,,,,,,,,,,,,,,,,,,,,,,,,,,,,,,,,,,,,,,,,,,,,,,,,,,,,,,,,,,,,,,,,,,,,,,,,,,,,,,,,,,,,,,,,,,,,,,,,,,,,,,,,,,208.40707449999172,None,,,,,"[0.6936847505176185, 0.6936847505176185, 0.6936847505176185, 0.6936847505176185]","[404.8002992010319, 606.5151530147042, 908.7459459948747, 1361.5804819671152]",Perfect_5th,"[14.0, 10.33848715814247, 14.286105052735719, 8.0]",True,209.40122780000092,212.49867360002827,212.49867360002827,213.69991950003896,None,1,,3.797434619977139,4.809714319941122,None,1,['space'],0,0,[-4.107375400024466],,,,,,lkbxgs,001,fr,0,0,2022-04-29_11h04.04.543,Cluster,2022.1.1,36.63843796696743,
,,,,0,0,0,0,7,0,7,0,,,both,,,,,,,,,,,,,,,,,,,,,,,,,,,,,,,,,,,,,,,,,,,,,,,,,,,,,,,,,,,,,,,,,,,,,,,,,,,,,,,,,,,,,,,,,,,,,,,,,,,,,,,,,,,,,,,,,,,,214.24242600001162,None,4924.577653379667,2.0,0.00018576269882334046,1,"[0.43360584342656283, 0.43360584342656283, 0.43360584342656283, 0.43360584342656283]","[7817.279747473972, 6964.404506368996, 6204.579047334942, 5527.651519871107]",Tone,"[5.0, 3.573446947211485, 3.6658685268620657, 5.0]",False,215.25092459999723,217.58543640002608,217.58543640002608,218.7914345000172,['space'],1,[0.3306414000107907],2.7842301999335177,3.807439199939836,None,1,None,1,,,,,,,,lkbxgs,001,fr,0,0,2022-04-29_11h04.04.543,Cluster,2022.1.1,36.63843796696743,
,,,,0,0,0,0,8,0,8,0,,,frequency,,,,,,,,,,,,,,,,,,,,,,,,,,,,,,,,,,,,,,,,,,,,,,,,,,,,,,,,,,,,,,,,,,,,,,,,,,,,,,,,,,,,,,,,,,,,,,,,,,,,,,,,,,,,,,,,,,,,219.08522920001997,None,4681.920559746407,2.0,0.0001647433921817851,1,"[0.7412551188272198, 0.6398552051887073, 0.7883018160991883, 0.5623321609597395]","[7432.085621772988, 6621.235553546801, 5898.850267160085, 5255.278141514718]",Tone,"[4.169685870525205, 3.389691341329473, 4.0, 5.589902104562253]",False,220.09111209999537,223.29268630000297,223.29268630000297,224.49407840002095,['space'],1,[0.4558511000359431],3.759436119988095,4.78448222001316,None,1,None,1,,,,,,,,lkbxgs,001,fr,0,0,2022-04-29_11h04.04.543,Cluster,2022.1.1,36.63843796696743,
,,,,0,0,0,0,9,0,9,0,,,both,,,,,,,,,,,,,,,,,,,,,,,,,,,,,,,,,,,,,,,,,,,,,,,,,,,,,,,,,,,,,,,,,,,,,,,,,,,,,,,,,,,,,,,,,,,,,,,,,,,,,,,,,,,,,,,,,,,,224.92232020001393,None,139.9668744542739,9.184035227740313,0.0016969355646538175,1,"[0.696918968012667, 0.696918968012667, 0.696918968012667, 0.696918968012667]","[352.69442282586533, 279.9337489085478, 222.1835637494153, 176.34721141293267]",Major_3rd,"[16.13050582112513, 17.32493363747519, 16.0, 15.01659648795322]",False,225.9155334000243,229.0381505000405,229.0381505000405,230.2617669000174,['space'],1,[0.33114899997599423],3.8196683199494146,4.837309719994664,None,1,None,1,,,,,,,,lkbxgs,001,fr,0,0,2022-04-29_11h04.04.543,Cluster,2022.1.1,36.63843796696743,
,,,,0,0,0,0,10,0,10,0,,,none,,,,,,,,,,,,,,,,,,,,,,,,,,,,,,,,,,,,,,,,,,,,,,,,,,,,,,,,,,,,,,,,,,,,,,,,,,,,,,,,,,,,,,,,,,,,,,,,,,,,,,,,,,,,,,,,,,,,230.79739990003873,None,,,,,"[0.694588967881973, 0.4424640560506949, 0.6152401376466641, 0.7409696992406464]","[133.80144989621007, 7847.49547585526, 214.50428058069312, 2893.887184778389]",None,"[15.380481822894366, 5.0, 15.95853876766314, 14.044510832506466]",True,231.79305610002484,234.56110150000313,234.56110150000313,235.77919790003216,None,1,,3.516775320051238,4.523987420019694,None,1,['space'],0,0,[0.5023403000086546],,,,,,lkbxgs,001,fr,0,0,2022-04-29_11h04.04.543,Cluster,2022.1.1,36.63843796696743,
,,,,0,0,0,0,11,0,11,0,,,time,,,,,,,,,,,,,,,,,,,,,,,,,,,,,,,,,,,,,,,,,,,,,,,,,,,,,,,,,,,,,,,,,,,,,,,,,,,,,,,,,,,,,,,,,,,,,,,,,,,,,,,,,,,,,,,,,,,,236.35811030003242,None,406.12619817811805,4.0,0.00012083438749800345,1,"[0.6819700344138967, 0.6819700344138967, 0.6819700344138967, 0.6819700344138967]","[157.0988472134109, 4665.2968719294595, 947.1097456521351, 255.15357874640952]",None,"[15.0, 8.747285531350771, 14.286105052735719, 17.0]",False,237.38949020003201,240.46131919999607,240.46131919999607,241.66199930000585,['space'],1,[0.4354899000027217],3.7576848000171594,4.781738199992105,None,1,None,1,,,,,,,,lkbxgs,001,fr,0,0,2022-04-29_11h04.04.543,Cluster,2022.1.1,36.63843796696743,
,,,,0,0,0,0,12,0,12,0,,,time,,,,,,,,,,,,,,,,,,,,,,,,,,,,,,,,,,,,,,,,,,,,,,,,,,,,,,,,,,,,,,,,,,,,,,,,,,,,,,,,,,,,,,,,,,,,,,,,,,,,,,,,,,,,,,,,,,,,242.2000904000015,None,3563.267024082196,8.0,0.00019159098564488144,1,"[0.5170695646091684, 0.5170695646091684, 0.5170695646091684, 0.5170695646091684]","[770.0557349473299, 1020.0696491660927, 6119.992643799923, 6042.303560302955]",None,"[13.049623191621642, 13.794555457361811, 3.6658685268620657, 3.6658685268620657]",False,243.197539100016,245.78452750004362,245.78452750004362,246.9886983000324,['space'],1,[0.4555951000074856],3.08601142000407,4.10488041996723,None,1,None,1,,,,,,,,lkbxgs,001,fr,0,0,2022-04-29_11h04.04.543,Cluster,2022.1.1,36.63843796696743,
,,,,0,0,0,0,13,0,13,0,,,none,,,,,,,,,,,,,,,,,,,,,,,,,,,,,,,,,,,,,,,,,,,,,,,,,,,,,,,,,,,,,,,,,,,,,,,,,,,,,,,,,,,,,,,,,,,,,,,,,,,,,,,,,,,,,,,,,,,,247.35066610004287,None,4446.663531911124,4.0,0.00018174488023667425,1,"[0.556869930882205, 0.6968439883373647, 0.5491041559700715, 0.7698373849425908]","[1027.8598255574498, 1808.392378182717, 3959.218377163195, 627.9417733427622]",None,"[13.794555457361811, 6.971029497225497, 12.0, 10.33848715814247]",False,248.36647480004467,251.19383860001108,251.19383860001108,252.4109927000245,['space'],1,[0.39707419998012483],3.5931188199319877,4.59763481997652,None,1,None,1,,,,,,,,lkbxgs,001,fr,0,0,2022-04-29_11h04.04.543,Cluster,2022.1.1,36.63843796696743,
,,,,0,0,0,0,14,0,14,0,,,both,,,,,,,,,,,,,,,,,,,,,,,,,,,,,,,,,,,,,,,,,,,,,,,,,,,,,,,,,,,,,,,,,,,,,,,,,,,,,,,,,,,,,,,,,,,,,,,,,,,,,,,,,,,,,,,,,,,,253.00861670001177,None,8000.0,1.0,0.0002036901389020564,1,"[0.5896726216074409, 0.5896726216074409, 0.5896726216074409, 0.5896726216074409]","[1587.4010519681997, 2378.4142300054423, 3563.5948725613575, 5339.359416680138]",Perfect_5th,"[6.410335264009759, 11.0, 14.0, 5.589902104562253]",False,254.10139050002908,256.88920530001633,256.88920530001633,258.0864719999954,['space'],1,[0.7254855000064708],3.372371059958823,4.382720559951849,None,1,None,1,,,,,,,,lkbxgs,001,fr,0,0,2022-04-29_11h04.04.543,Cluster,2022.1.1,36.63843796696743,
,,,,0,0,0,0,15,0,15,0,,,time,,,,,,,,,,,,,,,,,,,,,,,,,,,,,,,,,,,,,,,,,,,,,,,,,,,,,,,,,,,,,,,,,,,,,,,,,,,,,,,,,,,,,,,,,,,,,,,,,,,,,,,,,,,,,,,,,,,,258.53319290000945,None,8000.0,2.0,0.0002285440948074376,1,"[0.5940420229442018, 0.5940420229442018, 0.5940420229442018, 0.5940420229442018]","[235.07762283110037, 1497.1062612743387, 188.83367268589734, 2442.291100323566]",None,"[16.4155217517478, 7.0, 15.219649067321496, 11.899622844574992]",False,259.55725320003694,262.3529126000358,262.3529126000358,263.57902580004884,['space'],1,[0.7738758000195958],3.4288693999988027,4.429500999976881,None,1,None,1,,,,,,,,lkbxgs,001,fr,0,0,2022-04-29_11h04.04.543,Cluster,2022.1.1,36.63843796696743,
,,,,0,0,0,0,16,0,16,0,,,time,,,,,,,,,,,,,,,,,,,,,,,,,,,,,,,,,,,,,,,,,,,,,,,,,,,,,,,,,,,,,,,,,,,,,,,,,,,,,,,,,,,,,,,,,,,,,,,,,,,,,,,,,,,,,,,,,,,,264.0069665000192,None,,,,,"[0.6222482099778206, 0.6222482099778206, 0.6222482099778206, 0.6222482099778206]","[465.0840077028978, 514.2036042165083, 938.3131154641445, 357.7334699389342]",None,"[11.470807719132008, 10.54331460666868, 14.286105052735719, 16.0]",True,265.00740390003193,267.9105937000131,267.9105937000131,269.1291539000231,None,1,,3.515829119947739,4.530289419984911,None,1,None,1,0,,,,,,,lkbxgs,001,fr,0,0,2022-04-29_11h04.04.543,Cluster,2022.1.1,36.63843796696743,
,,,,0,0,0,0,17,0,17,0,,,time,,,,,,,,,,,,,,,,,,,,,,,,,,,,,,,,,,,,,,,,,,,,,,,,,,,,,,,,,,,,,,,,,,,,,,,,,,,,,,,,,,,,,,,,,,,,,,,,,,,,,,,,,,,,,,,,,,,,269.56811740004923,None,1960.4459793396898,1.8976787800151786,9.085738609948484e-05,0,"[0.4674278844659629, 0.4674278844659629, 0.4674278844659629, 0.4674278844659629]","[247.1369173216697, 889.7080708192462, 1289.9011829012163, 774.5526247004142]",None,"[16.838723675150135, 14.293514526086224, 9.0, 13.049623191621642]",False,270.5704020000412,272.9977936000214,272.9977936000214,274.22207680001156,None,0,,2.881632119999267,3.903479619999416,None,1,None,1,,,,,,,,lkbxgs,001,fr,0,0,2022-04-29_11h04.04.543,Cluster,2022.1.1,36.63843796696743,
,,,,0,0,0,0,18,0,18,0,,,frequency,,,,,,,,,,,,,,,,,,,,,,,,,,,,,,,,,,,,,,,,,,,,,,,,,,,,,,,,,,,,,,,,,,,,,,,,,,,,,,,,,,,,,,,,,,,,,,,,,,,,,,,,,,,,,,,,,,,,274.51961550000124,None,8000.0,2.0,0.0002285440948074376,1,"[0.714152894253634, 0.48143605697909825, 0.4807532347545992, 0.7907026473262485]","[3174.8021039364003, 4000.0000000000014, 5039.684199579494, 6349.604207872799]",Major_3rd,"[14.605639852636942, 11.993414470012839, 7.0, 3.389691341329473]",False,275.53835170000093,278.2467792000389,278.2467792000389,279.44135830004234,['space'],1,[0.2918420999776572],3.4977497999789193,4.520394699939061,None,1,None,1,,,,,,,,lkbxgs,001,fr,0,0,2022-04-29_11h04.04.543,Cluster,2022.1.1,36.63843796696743,
,,,,0,0,0,0,19,0,19,0,,,time,,,,,,,,,,,,,,,,,,,,,,,,,,,,,,,,,,,,,,,,,,,,,,,,,,,,,,,,,,,,,,,,,,,,,,,,,,,,,,,,,,,,,,,,,,,,,,,,,,,,,,,,,,,,,,,,,,,,280.0843622999964,None,176.7766952966369,13.0,0.0015634862732566773,1,"[0.4568120764075851, 0.4568120764075851, 0.4568120764075851, 0.4568120764075851]","[147.03498705759245, 272.58101712421717, 156.22792895920955, 708.2925991403903]",None,"[15.184035227740313, 17.17266412098619, 15.0, 12.068159352451232]",False,281.11320350004826,283.51186510000844,283.51186510000844,284.7316454999964,['space'],1,[0.5713471999624744],2.8684006999246776,3.9027574999490753,None,1,None,1,,,,,,,,lkbxgs,001,fr,0,0,2022-04-29_11h04.04.543,Cluster,2022.1.1,36.63843796696743,
,,,,1,0,1,0,0,0,0,0,,,time,,,,,,,,,,,,,,,,,,,,,,,,,,,,,,,,,,,,,,,,,,,,,,,,,,,,,,,,,,,,,,,,,,,,,,,,,,,,,,,,,,,,,,,,,,,,,,,,,,,,,,,,,,,,,,,,,,,,298.66759810002986,None,648.1609532556985,5.0,8.815298537961337e-05,0,"[0.5009251033622818, 0.5009251033622818, 0.5009251033622818, 0.5009251033622818]","[441.61271718102796, 190.55079241952373, 407.8894865148751, 3822.0222960496444]",None,"[12.652266053110589, 15.219649067321496, 13.927271431497378, 13.0]",False,299.6391215000185,302.1540474999929,302.1540474999929,303.3556130999932,None,0,,3.0293874199851416,4.058495219971519,None,1,None,1,,,,,,,,lkbxgs,001,fr,0,0,2022-04-29_11h04.04.543,Cluster,2022.1.1,36.63843796696743,
,,,,1,0,1,0,1,0,1,0,,,none,,,,,,,,,,,,,,,,,,,,,,,,,,,,,,,,,,,,,,,,,,,,,,,,,,,,,,,,,,,,,,,,,,,,,,,,,,,,,,,,,,,,,,,,,,,,,,,,,,,,,,,,,,,,,,,,,,,,303.74130150000565,None,,,,,"[0.456202145553688, 0.7241076057820974, 0.4130155267372437, 0.5262835726510537]","[365.616682661097, 850.0265700021521, 731.9887880904204, 374.4397527928846]",None,"[16.0, 14.0, 13.0, 15.133781809767155]",True,304.74136490002275,307.3761460999958,307.3761460999958,308.5814991000225,['space'],0,[0.3860548000084236],3.150027220021002,4.152983520005364,None,1,None,1,0,,,,,,,lkbxgs,001,fr,0,0,2022-04-29_11h04.04.543,Cluster,2022.1.1,36.63843796696743,
,,,,1,0,1,0,2,0,2,0,,,time,,,,,,,,,,,,,,,,,,,,,,,,,,,,,,,,,,,,,,,,,,,,,,,,,,,,,,,,,,,,,,,,,,,,,,,,,,,,,,,,,,,,,,,,,,,,,,,,,,,,,,,,,,,,,,,,,,,,308.93097220000345,None,4924.577653379667,1.0,0.0001655611795965586,1,"[0.7902682986886197, 0.7902682986886197, 0.7902682986886197, 0.7902682986886197]","[879.9786199879812, 524.6785423416464, 2635.3804159378533, 129.32671874804828]",None,"[14.293514526086224, 10.012584718170508, 13.125812735173945, 15.550316744423025]",False,309.94678530003875,313.3415337000042,313.3415337000042,314.5544489000458,['space'],1,[0.35346749995369464],4.184579899942037,5.190809999941848,None,1,None,1,,,,,,,,lkbxgs,001,fr,0,0,2022-04-29_11h04.04.543,Cluster,2022.1.1,36.63843796696743,
,,,,1,0,1,0,3,0,3,0,,,frequency,,,,,,,,,,,,,,,,,,,,,,,,,,,,,,,,,,,,,,,,,,,,,,,,,,,,,,,,,,,,,,,,,,,,,,,,,,,,,,,,,,,,,,,,,,,,,,,,,,,,,,,,,,,,,,,,,,,,315.1875981000485,None,4596.755383308526,2.7472855313507716,0.0001715046523944662,1,"[0.503669464876954, 0.44702169822309, 0.6958401248393589, 0.6277201856657951]","[2895.774434323994, 3250.396902993226, 3648.447165552219, 4095.2434785942696]",Tone,"[14.044510832506466, 14.605639852636942, 13.276481047333279, 11.0]",False,316.19007630000124,318.87324310000986,318.87324310000986,320.07278530002804,['space'],1,[0.5573064999771304],3.2864685200038366,4.306615019973833,None,1,None,1,,,,,,,,lkbxgs,001,fr,0,0,2022-04-29_11h04.04.543,Cluster,2022.1.1,36.63843796696743,
,,,,1,0,1,0,4,0,4,0,,,both,,,,,,,,,,,,,,,,,,,,,,,,,,,,,,,,,,,,,,,,,,,,,,,,,,,,,,,,,,,,,,,,,,,,,,,,,,,,,,,,,,,,,,,,,,,,,,,,,,,,,,,,,,,,,,,,,,,,320.54294870002195,None,146.24833761678153,9.184035227740313,0.0015359488725354082,1,"[0.4211226539225334, 0.4211226539225334, 0.4211226539225334, 0.4211226539225334]","[737.045436302061, 491.9188113550663, 328.31641720634667, 219.12491923267396]",Perfect_5th,"[13.0, 10.54331460666868, 16.834218938853382, 16.0]",False,321.54568500001915,323.8532861000276,323.8532861000276,325.05872380000073,['space'],1,[0.625550500000827],2.7102605199906975,3.7406114200130105,None,1,None,1,,,,,,,,lkbxgs,001,fr,0,0,2022-04-29_11h04.04.543,Cluster,2022.1.1,36.63843796696743,
,,,,1,0,1,0,5,0,5,0,,,none,,,,,,,,,,,,,,,,,,,,,,,,,,,,,,,,,,,,,,,,,,,,,,,,,,,,,,,,,,,,,,,,,,,,,,,,,,,,,,,,,,,,,,,,,,,,,,,,,,,,,,,,,,,,,,,,,,,,325.3317885000142,None,8000.0,1.0,0.0002036901389020564,1,"[0.5483168542877908, 0.45376868960043776, 0.5907954623520695, 0.5848660250748711]","[593.849811145789, 4550.514225832028, 241.26354962734925, 1510.2192723171634]",None,"[10.0, 9.0, 16.4155217517478, 6.842176152629632]",False,326.36533210001653,328.9893558000331,328.9893558000331,330.2038632000331,['space'],1,[0.6649228000314906],3.208449679950718,4.2182024799403735,None,1,None,1,,,,,,,,lkbxgs,001,fr,0,0,2022-04-29_11h04.04.543,Cluster,2022.1.1,36.63843796696743,
,,,,1,0,1,0,6,0,6,0,,,frequency,,,,,,,,,,,,,,,,,,,,,,,,,,,,,,,,,,,,,,,,,,,,,,,,,,,,,,,,,,,,,,,,,,,,,,,,,,,,,,,,,,,,,,,,,,,,,,,,,,,,,,,,,,,,,,,,,,,,330.61521050002193,None,2462.2888266898335,1.0,9.543828998156852e-05,1,"[0.42389886970242535, 0.45317469454634146, 0.4811073318319795, 0.7405049883165024]","[977.1599684342466, 1231.144413344917, 1551.1447618337354, 1954.3199368684927]",Major_3rd,"[14.0, 10.270511836376757, 6.842176152629632, 7.897678780015179]",False,331.6111501000123,333.9976190000307,333.9976190000307,335.2127753000241,['space'],1,[0.34584399999585],3.1482819999800995,4.157295399985742,None,1,None,1,,,,,,,,lkbxgs,001,fr,0,0,2022-04-29_11h04.04.543,Cluster,2022.1.1,36.63843796696743,
,,,,1,0,1,0,7,0,7,0,,,frequency,,,,,,,,,,,,,,,,,,,,,,,,,,,,,,,,,,,,,,,,,,,,,,,,,,,,,,,,,,,,,,,,,,,,,,,,,,,,,,,,,,,,,,,,,,,,,,,,,,,,,,,,,,,,,,,,,,,,335.7887711999938,None,,,,,"[0.6276663194731157, 0.6333683605246347, 0.4246829853446059, 0.6976288362814271]","[3759.89375569047, 3349.6845272885057, 2984.229651535858, 2658.646371189687]",Tone,"[13.276481047333279, 14.605639852636942, 14.559362849577278, 13.125812735173945]",True,336.7928688999964,339.5060333000147,339.5060333000147,340.7228141000378,None,1,,3.415550119942054,4.434447119943798,None,1,None,1,0,,,,,,,lkbxgs,001,fr,0,0,2022-04-29_11h04.04.543,Cluster,2022.1.1,36.63843796696743,
,,,,1,0,1,0,8,0,8,0,,,both,,,,,,,,,,,,,,,,,,,,,,,,,,,,,,,,,,,,,,,,,,,,,,,,,,,,,,,,,,,,,,,,,,,,,,,,,,,,,,,,,,,,,,,,,,,,,,,,,,,,,,,,,,,,,,,,,,,,341.26817049999954,None,500.0,1.0,8.01622695345021e-05,0,"[0.43706621413201996, 0.43706621413201996, 0.43706621413201996, 0.43706621413201996]","[793.7005259841001, 707.1067811865478, 629.9605249474367, 561.2310241546866]",Tone,"[13.84245098635827, 12.068159352451232, 10.33848715814247, 9.943778458132101]",False,342.2948142000241,344.6360512000392,344.6360512000392,345.8508782000281,None,0,,2.7821068999473937,3.793736799969338,None,1,None,1,,,,,,,,lkbxgs,001,fr,0,0,2022-04-29_11h04.04.543,Cluster,2022.1.1,36.63843796696743,
,,,,1,0,1,0,9,0,9,0,,,none,,,,,,,,,,,,,,,,,,,,,,,,,,,,,,,,,,,,,,,,,,,,,,,,,,,,,,,,,,,,,,,,,,,,,,,,,,,,,,,,,,,,,,,,,,,,,,,,,,,,,,,,,,,,,,,,,,,,346.1115137000452,None,126.62113758681454,9.550316744423025,0.002126793028195719,1,"[0.4707190776597309, 0.40587209575274114, 0.6776349710096998, 0.6372591279246169]","[3675.5854207672596, 2068.7719521644694, 512.3414693544913, 819.068104096465]",None,"[13.276481047333279, 8.0, 10.54331460666868, 13.84245098635827]",False,347.11489480000455,349.69180480000796,349.69180480000796,350.9013277000049,['space'],1,[0.45891210000263527],3.212215119972825,4.217054919980001,None,1,None,1,,,,,,,,lkbxgs,001,fr,0,0,2022-04-29_11h04.04.543,Cluster,2022.1.1,36.63843796696743,
,,,,1,0,1,0,10,0,10,0,,,none,,,,,,,,,,,,,,,,,,,,,,,,,,,,,,,,,,,,,,,,,,,,,,,,,,,,,,,,,,,,,,,,,,,,,,,,,,,,,,,,,,,,,,,,,,,,,,,,,,,,,,,,,,,,,,,,,,,,351.3726208000444,None,164.93848884661182,10.0,0.0012432034805456682,1,"[0.6547784509039272, 0.5289330158767604, 0.5385614885118862, 0.774140570415909]","[3055.2230296260836, 156.07336762334143, 150.69041611262114, 1424.6537937484602]",None,"[14.559362849577278, 15.0, 15.02244988057681, 7.704585993294453]",False,353.43826910003554,356.1895918000373,356.1895918000373,357.4034707000246,['space'],1,[0.4011081999633461],3.5176629399647936,4.529031039972324,None,1,None,1,,,,,,,,lkbxgs,001,fr,0,0,2022-04-29_11h04.04.543,Cluster,2022.1.1,36.63843796696743,
,,,,1,0,1,0,11,0,11,0,,,frequency,,,,,,,,,,,,,,,,,,,,,,,,,,,,,,,,,,,,,,,,,,,,,,,,,,,,,,,,,,,,,,,,,,,,,,,,,,,,,,,,,,,,,,,,,,,,,,,,,,,,,,,,,,,,,,,,,,,,358.0117917000316,None,368.09841318900544,9.133781809767155,0.00024281240431976963,0,"[0.6907507334787473, 0.6345930195432556, 0.5284898916066129, 0.5390305461198944]","[584.3198083240522, 520.5697682199069, 463.7749392097286, 413.176498847561]",Tone,"[10.0, 10.012584718170508, 11.470807719132008, 13.927271431497378]",False,359.0241399999941,361.8922845000052,361.8922845000052,363.0964173999964,None,0,,3.414573419955559,4.4566538199433126,None,1,None,1,,,,,,,,lkbxgs,001,fr,0,0,2022-04-29_11h04.04.543,Cluster,2022.1.1,36.63843796696743,
,,,,1,0,1,0,12,0,12,0,,,time,,,,,,,,,,,,,,,,,,,,,,,,,,,,,,,,,,,,,,,,,,,,,,,,,,,,,,,,,,,,,,,,,,,,,,,,,,,,,,,,,,,,,,,,,,,,,,,,,,,,,,,,,,,,,,,,,,,,363.52706370002124,None,,,,,"[0.54791418137773, 0.54791418137773, 0.54791418137773, 0.54791418137773]","[136.29343781282313, 1718.0994986140697, 1528.5245622261584, 463.33370808476224]",None,"[15.380481822894366, 6.45369187610424, 6.842176152629632, 11.470807719132008]",True,364.52746160002425,367.2127957000048,367.2127957000048,368.4324129000306,['space'],0,[0.4069401000160724],3.2120872200466692,4.216421120043378,None,1,None,1,0,,,,,,,lkbxgs,001,fr,0,0,2022-04-29_11h04.04.543,Cluster,2022.1.1,36.63843796696743,
,,,,1,0,1,0,13,0,13,0,,,none,,,,,,,,,,,,,,,,,,,,,,,,,,,,,,,,,,,,,,,,,,,,,,,,,,,,,,,,,,,,,,,,,,,,,,,,,,,,,,,,,,,,,,,,,,,,,,,,,,,,,,,,,,,,,,,,,,,,368.78583060001256,None,197.60753486573876,9.542516398817245,0.0008224752250829425,1,"[0.4202560980253625, 0.6048497060488734, 0.43661373163797107, 0.4648675291342743]","[7161.068881648312, 831.3160251881811, 2654.4769778477726, 3886.812257482362]",None,"[4.0, 14.0, 13.125812735173945, 13.0]",False,369.79649400000926,372.2955790000269,372.2955790000269,373.4962651000242,['space'],1,[0.6093726999824867],2.938623219903093,3.9592852198984474,None,1,None,1,,,,,,,,lkbxgs,001,fr,0,0,2022-04-29_11h04.04.543,Cluster,2022.1.1,36.63843796696743,
,,,,1,0,1,0,14,0,14,0,,,none,,,,,,,,,,,,,,,,,,,,,,,,,,,,,,,,,,,,,,,,,,,,,,,,,,,,,,,,,,,,,,,,,,,,,,,,,,,,,,,,,,,,,,,,,,,,,,,,,,,,,,,,,,,,,,,,,,,,373.7985561999958,None,535.8867312681471,0.0,6.584635451124388e-05,0,"[0.46446487696473293, 0.6948819571251605, 0.7743236487862803, 0.4398241763707109]","[2088.436679336975, 6226.25192998985, 145.84372167542338, 146.4732533911179]",None,"[9.0, 3.6658685268620657, 15.184035227740313, 15.184035227740313]",False,375.53902379999636,378.4867941000266,378.4867941000266,379.70182380004553,None,0,,3.3879248799057677,4.417020579916425,None,1,None,1,,,,,,,,lkbxgs,001,fr,0,0,2022-04-29_11h04.04.543,Cluster,2022.1.1,36.63843796696743,
,,,,1,0,1,0,15,0,15,0,,,none,,,,,,,,,,,,,,,,,,,,,,,,,,,,,,,,,,,,,,,,,,,,,,,,,,,,,,,,,,,,,,,,,,,,,,,,,,,,,,,,,,,,,,,,,,,,,,,,,,,,,,,,,,,,,,,,,,,,380.00302340002963,None,6635.888009339957,-2.610308658670527,0.00010380067781754279,1,"[0.6651693316831624, 0.6620954764848066, 0.6476336595383706, 0.7576552594135156]","[2590.706677597681, 1389.3486787445142, 6723.034280529584, 961.3382379651327]",None,"[13.0, 8.0, 3.389691341329473, 14.0]",False,381.011207500007,383.99911710002925,383.99911710002925,385.22157029999653,['space'],1,[0.34091280004940927],3.7708243199740537,4.780994019994978,None,1,None,1,,,,,,,,lkbxgs,001,fr,0,0,2022-04-29_11h04.04.543,Cluster,2022.1.1,36.63843796696743,
,,,,1,0,1,0,16,0,16,0,,,frequency,,,,,,,,,,,,,,,,,,,,,,,,,,,,,,,,,,,,,,,,,,,,,,,,,,,,,,,,,,,,,,,,,,,,,,,,,,,,,,,,,,,,,,,,,,,,,,,,,,,,,,,,,,,,,,,,,,,,385.8410934000276,None,176.7766952966369,11.0,0.0012419212914516222,1,"[0.5777549332400989, 0.5957639154459357, 0.5216088115590619, 0.7276942030044864]","[890.8987181403394, 594.6035575013606, 396.8502629920499, 264.86577358982385]",Perfect_5th,"[14.293514526086224, 10.0, 14.0, 17.17266412098619]",False,386.8580320000183,389.5822030000272,389.5822030000272,390.79630590003217,['space'],1,[0.4678140999749303],3.457837199966889,4.45923319994472,None,1,None,1,,,,,,,,lkbxgs,001,fr,0,0,2022-04-29_11h04.04.543,Cluster,2022.1.1,36.63843796696743,
,,,,1,0,1,0,17,0,17,0,,,time,,,,,,,,,,,,,,,,,,,,,,,,,,,,,,,,,,,,,,,,,,,,,,,,,,,,,,,,,,,,,,,,,,,,,,,,,,,,,,,,,,,,,,,,,,,,,,,,,,,,,,,,,,,,,,,,,,,,391.34536170004867,None,351.04191169819416,10.13050582112513,0.0002865518744974245,1,"[0.532551090689248, 0.532551090689248, 0.532551090689248, 0.532551090689248]","[2068.7651420053985, 7855.628256234227, 5100.186216447586, 1160.0827276799391]",None,"[8.0, 5.0, 6.0, 11.653326638641452]",False,392.3560439000139,394.98091860004934,394.98091860004934,396.2035164000117,['space'],1,[0.45412129996111616],3.1454375199973583,4.159026519977488,None,1,None,1,,,,,,,,lkbxgs,001,fr,0,0,2022-04-29_11h04.04.543,Cluster,2022.1.1,36.63843796696743,
,,,,1,0,1,0,18,0,18,0,,,frequency,,,,,,,,,,,,,,,,,,,,,,,,,,,,,,,,,,,,,,,,,,,,,,,,,,,,,,,,,,,,,,,,,,,,,,,,,,,,,,,,,,,,,,,,,,,,,,,,,,,,,,,,,,,,,,,,,,,,396.55939340003533,None,250.53984140567846,10.838723675150135,0.0005813271949025851,0,"[0.47348960309033095, 0.5153849548338866, 0.7213819852818281, 0.664602497748908]","[157.8302100121687, 177.15842081535737, 198.8536039036599, 223.20562355140282]",Tone,"[15.0, 15.01659648795322, 15.542516398817245, 16.0]",False,397.5685407000128,400.29380510002375,400.29380510002375,401.5017324000364,None,0,,3.392398619966116,4.411067419976462,None,1,None,1,,,,,,,,lkbxgs,001,fr,0,0,2022-04-29_11h04.04.543,Cluster,2022.1.1,36.63843796696743,
,,,,1,0,1,0,19,0,19,0,,,time,,,,,,,,,,,,,,,,,,,,,,,,,,,,,,,,,,,,,,,,,,,,,,,,,,,,,,,,,,,,,,,,,,,,,,,,,,,,,,,,,,,,,,,,,,,,,,,,,,,,,,,,,,,,,,,,,,,,402.03212069999427,None,1231.1444133449168,4.0,8.51413334521805e-05,1,"[0.4202356503629585, 0.4202356503629585, 0.4202356503629585, 0.4202356503629585]","[1166.440972597784, 188.18713577282324, 477.79804577315036, 3871.67397807464]",None,"[11.653326638641452, 15.219649067321496, 11.0, 13.0]",False,403.034184499993,405.32734200003324,405.32734200003324,406.53738950000843,['space'],1,[0.5096544999978505],2.7087258999818005,3.737115600029938,None,1,None,1,,,,,,,,lkbxgs,001,fr,0,0,2022-04-29_11h04.04.543,Cluster,2022.1.1,36.63843796696743,
,,,,2,0,2,0,0,0,0,0,,,none,,,,,,,,,,,,,,,,,,,,,,,,,,,,,,,,,,,,,,,,,,,,,,,,,,,,,,,,,,,,,,,,,,,,,,,,,,,,,,,,,,,,,,,,,,,,,,,,,,,,,,,,,,,,,,,,,,,,440.37707980000414,None,3031.4331330207992,-1.0,5.1513052502824035e-05,0,"[0.40644537580804685, 0.5740297888023203, 0.7774597581468516, 0.71784466121648]","[5009.493028117716, 146.9003500376667, 1814.5401529005878, 764.8894903909145]",None,"[7.0, 15.184035227740313, 6.971029497225497, 13.049623191621642]",False,441.37852940004086,444.16521810000995,444.16521810000995,445.3843610000331,None,0,,3.5022282999707386,4.5319292999920435,None,1,None,1,,,,,,,,lkbxgs,001,fr,0,0,2022-04-29_11h04.04.543,Cluster,2022.1.1,36.63843796696743,
,,,,2,0,2,0,1,0,1,0,,,time,,,,,,,,,,,,,,,,,,,,,,,,,,,,,,,,,,,,,,,,,,,,,,,,,,,,,,,,,,,,,,,,,,,,,,,,,,,,,,,,,,,,,,,,,,,,,,,,,,,,,,,,,,,,,,,,,,,,445.9367642000434,None,,,,,"[0.7538618923751281, 0.7538618923751281, 0.7538618923751281, 0.7538618923751281]","[1740.4238011433074, 1225.9322630023378, 489.9048666665898, 4499.810226800245]",None,"[6.45369187610424, 10.270511836376757, 11.0, 9.0]",True,446.92911790002836,450.2190036000102,450.2190036000102,451.4240603999933,None,1,,4.052281619980931,5.067778819939122,None,1,None,1,0,,,,,,,lkbxgs,001,fr,0,0,2022-04-29_11h04.04.543,Cluster,2022.1.1,36.63843796696743,
,,,,2,0,2,0,2,0,2,0,,,none,,,,,,,,,,,,,,,,,,,,,,,,,,,,,,,,,,,,,,,,,,,,,,,,,,,,,,,,,,,,,,,,,,,,,,,,,,,,,,,,,,,,,,,,,,,,,,,,,,,,,,,,,,,,,,,,,,,,452.0416798000224,None,1379.5888535569904,2.0,6.457274945980386e-05,1,"[0.5879760658538224, 0.7111313290414083, 0.44704604133010933, 0.40121926776946937]","[957.0455552941214, 4118.795114979153, 634.274708253307, 6309.778544564744]",None,"[14.0, 11.0, 10.33848715814247, 3.389691341329473]",False,453.0522831000271,455.83242390002124,455.83242390002124,457.0626046000398,['space'],1,[0.6809197000111453],3.180687219952233,4.20936051994795,None,1,None,1,,,,,,,,lkbxgs,001,fr,0,0,2022-04-29_11h04.04.543,Cluster,2022.1.1,36.63843796696743,
,,,,2,0,2,0,3,0,3,0,,,both,,,,,,,,,,,,,,,,,,,,,,,,,,,,,,,,,,,,,,,,,,,,,,,,,,,,,,,,,,,,,,,,,,,,,,,,,,,,,,,,,,,,,,,,,,,,,,,,,,,,,,,,,,,,,,,,,,,,457.3106247000396,None,1061.2185624942988,7.0,0.00010435359808687913,0,"[0.7283764076599001, 0.7283764076599001, 0.7283764076599001, 0.7283764076599001]","[421.1448656179077, 530.6092812471495, 668.5258027128726, 842.2897312358152]",Major_3rd,"[13.0, 10.012584718170508, 11.099108102107508, 14.0]",False,458.3206790999975,461.52610640000785,461.52610640000785,462.736072300002,None,0,,3.9449446199578233,4.952804319967981,None,1,None,1,,,,,,,,lkbxgs,001,fr,0,0,2022-04-29_11h04.04.543,Cluster,2022.1.1,36.63843796696743,
,,,,2,0,2,0,4,0,4,0,,,both,,,,,,,,,,,,,,,,,,,,,,,,,,,,,,,,,,,,,,,,,,,,,,,,,,,,,,,,,,,,,,,,,,,,,,,,,,,,,,,,,,,,,,,,,,,,,,,,,,,,,,,,,,,,,,,,,,,,463.32172530004755,None,3031.4331330207992,-1.0,5.1513052502824035e-05,0,"[0.6130135920954972, 0.6130135920954972, 0.6130135920954972, 0.6130135920954972]","[1203.0250360821183, 1515.7165665104, 1909.6832078208354, 2406.050072164236]",Major_3rd,"[11.0, 6.842176152629632, 7.0, 11.0]",False,465.2130673000356,468.07316379999975,468.07316379999975,469.29735350003466,None,0,,3.4741925599519163,4.491661959909834,None,1,None,1,,,,,,,,lkbxgs,001,fr,0,0,2022-04-29_11h04.04.543,Cluster,2022.1.1,36.63843796696743,
,,,,2,0,2,0,5,0,5,0,,,time,,,,,,,,,,,,,,,,,,,,,,,,,,,,,,,,,,,,,,,,,,,,,,,,,,,,,,,,,,,,,,,,,,,,,,,,,,,,,,,,,,,,,,,,,,,,,,,,,,,,,,,,,,,,,,,,,,,,469.7442804000457,None,,,,,"[0.6278783104742318, 0.6278783104742318, 0.6278783104742318, 0.6278783104742318]","[5959.710895699088, 189.1353655903586, 2483.512757572761, 3085.3554143520105]",None,"[4.0, 15.219649067321496, 12.0, 14.559362849577278]",True,470.757283700048,473.68060200003674,473.68060200003674,474.88594790000934,None,1,,3.5346756200306118,4.539456219994463,['space'],0,None,1,0,,[-0.02646439999807626],,,,,lkbxgs,001,fr,0,0,2022-04-29_11h04.04.543,Cluster,2022.1.1,36.63843796696743,
,,,,2,0,2,0,6,0,6,0,,,frequency,,,,,,,,,,,,,,,,,,,,,,,,,,,,,,,,,,,,,,,,,,,,,,,,,,,,,,,,,,,,,,,,,,,,,,,,,,,,,,,,,,,,,,,,,,,,,,,,,,,,,,,,,,,,,,,,,,,,475.338962000038,None,615.5722066724584,1.0,5.99330541482996e-05,0,"[0.7509049471610363, 0.4267691131608008, 0.5293017438419387, 0.627422435945671]","[244.28999210856165, 307.78610333622925, 387.78619045843385, 488.5799842171232]",Major_3rd,"[16.838723675150135, 17.231704830781403, 15.0, 11.0]",False,476.36719280004036,479.0896047000424,479.0896047000424,480.2995884999982,None,0,,3.374097099993378,4.378746799950022,None,1,None,1,,,,,,,,lkbxgs,001,fr,0,0,2022-04-29_11h04.04.543,Cluster,2022.1.1,36.63843796696743,
,,,,2,0,2,0,7,0,7,0,,,none,,,,,,,,,,,,,,,,,,,,,,,,,,,,,,,,,,,,,,,,,,,,,,,,,,,,,,,,,,,,,,,,,,,,,,,,,,,,,,,,,,,,,,,,,,,,,,,,,,,,,,,,,,,,,,,,,,,,480.7720629000105,None,378.9291416275994,5.0,0.00014586258125461746,0,"[0.44299527510768133, 0.5053556553353715, 0.6200000828274062, 0.6092765482532582]","[322.60844334873417, 650.5415365243027, 3632.3190164137277, 490.0337133737651]",None,"[17.0, 11.0, 13.276481047333279, 11.0]",False,481.79845620004926,484.3908761999919,484.3908761999919,485.610374800046,None,0,,3.2131811999715865,4.231908999965526,None,1,None,1,,,,,,,,lkbxgs,001,fr,0,0,2022-04-29_11h04.04.543,Cluster,2022.1.1,36.63843796696743,
,,,,2,0,2,0,8,0,8,0,,,both,,,,,,,,,,,,,,,,,,,,,,,,,,,,,,,,,,,,,,,,,,,,,,,,,,,,,,,,,,,,,,,,,,,,,,,,,,,,,,,,,,,,,,,,,,,,,,,,,,,,,,,,,,,,,,,,,,,,486.06164060003357,None,166.2061289106262,8.953542491157226,0.0010891535194043995,1,"[0.6055467895868762, 0.6055467895868762, 0.6055467895868762, 0.6055467895868762]","[418.8132008720777, 332.41225782125247, 263.83578387629024, 209.40660043603881]",Major_3rd,"[13.0, 16.834218938853382, 17.17266412098619, 15.542516398817245]",False,487.082722000021,489.92615890002344,489.92615890002344,491.15362739999546,['space'],1,[0.29603480000514537],3.4544841200113297,4.4791680200141855,None,1,None,1,,,,,,,,lkbxgs,001,fr,0,0,2022-04-29_11h04.04.543,Cluster,2022.1.1,36.63843796696743,
,,,,2,0,2,0,9,0,9,0,,,none,,,,,,,,,,,,,,,,,,,,,,,,,,,,,,,,,,,,,,,,,,,,,,,,,,,,,,,,,,,,,,,,,,,,,,,,,,,,,,,,,,,,,,,,,,,,,,,,,,,,,,,,,,,,,,,,,,,,491.60923830000684,None,1357.1244246123163,2.0,6.527487500837702e-05,0,"[0.4581927284826096, 0.7173987644697103, 0.7255301582190532, 0.6196309090080989]","[4152.954358227143, 278.41898666654834, 6633.1365355452335, 226.22879734135822]",None,"[11.0, 17.32493363747519, 3.389691341329473, 16.4155217517478]",False,492.6255064000143,495.54164569999557,495.54164569999557,496.7548255000147,None,0,,3.5388291199924424,4.56203531997744,None,1,None,1,,,,,,,,lkbxgs,001,fr,0,0,2022-04-29_11h04.04.543,Cluster,2022.1.1,36.63843796696743,
,,,,2,0,2,0,10,0,10,0,,,none,,,,,,,,,,,,,,,,,,,,,,,,,,,,,,,,,,,,,,,,,,,,,,,,,,,,,,,,,,,,,,,,,,,,,,,,,,,,,,,,,,,,,,,,,,,,,,,,,,,,,,,,,,,,,,,,,,,,497.23443650000263,None,757.8582832551998,4.0,6.384618178815568e-05,0,"[0.7617899203780573, 0.6382461246874135, 0.7423517226738355, 0.7840366879767128]","[178.69276573207128, 5879.172052316408, 740.3091367192673, 336.4056859372627]",None,"[15.01659648795322, 4.0, 13.0, 16.834218938853382]",False,499.16025210003136,502.3196619999944,502.3196619999944,503.5331353000365,None,0,,3.9710285199107602,4.99250311992364,None,1,None,1,,,,,,,,lkbxgs,001,fr,0,0,2022-04-29_11h04.04.543,Cluster,2022.1.1,36.63843796696743,
,,,,2,0,2,0,11,0,11,0,,,none,,,,,,,,,,,,,,,,,,,,,,,,,,,,,,,,,,,,,,,,,,,,,,,,,,,,,,,,,,,,,,,,,,,,,,,,,,,,,,,,,,,,,,,,,,,,,,,,,,,,,,,,,,,,,,,,,,,,504.18848070001695,None,1347.1906731491008,2.8937323571482487,7.269314976392651e-05,1,"[0.710848244121779, 0.6281647838938197, 0.4864145058999894, 0.7521740510765831]","[280.4755623000496, 1485.2676950906134, 219.00731609607746, 835.8653336293187]",None,"[17.32493363747519, 7.0, 16.0, 14.0]",False,505.2030613000388,508.05550030001905,508.05550030001905,509.2784746999969,['space'],1,[0.4208546999725513],3.60677571996348,4.608565919974353,None,1,None,1,,,,,,,,lkbxgs,001,fr,0,0,2022-04-29_11h04.04.543,Cluster,2022.1.1,36.63843796696743,
,,,,2,0,2,0,12,0,12,0,,,both,,,,,,,,,,,,,,,,,,,,,,,,,,,,,,,,,,,,,,,,,,,,,,,,,,,,,,,,,,,,,,,,,,,,,,,,,,,,,,,,,,,,,,,,,,,,,,,,,,,,,,,,,,,,,,,,,,,,509.874473200005,None,707.1067811865476,5.0,7.896084801026046e-05,0,"[0.611252867711824, 0.611252867711824, 0.611252867711824, 0.611252867711824]","[3563.5948725613575, 2378.4142300054423, 1587.4010519681997, 1059.4630943592954]",Perfect_5th,"[14.0, 11.0, 6.410335264009759, 13.0]",False,510.88658280001255,513.7385892000166,513.7385892000166,514.9465686000185,None,0,,3.4801365999737754,4.496066999970935,None,1,None,1,,,,,,,,lkbxgs,001,fr,0,0,2022-04-29_11h04.04.543,Cluster,2022.1.1,36.63843796696743,
,,,,2,0,2,0,13,0,13,0,,,both,,,,,,,,,,,,,,,,,,,,,,,,,,,,,,,,,,,,,,,,,,,,,,,,,,,,,,,,,,,,,,,,,,,,,,,,,,,,,,,,,,,,,,,,,,,,,,,,,,,,,,,,,,,,,,,,,,,,515.4116384999943,None,602.146401988101,4.338487158142471,9.147326625107575e-05,1,"[0.5693987345457201, 0.5693987345457201, 0.5693987345457201, 0.5693987345457201]","[379.32846349163424, 425.781804112867, 477.9239159773889, 536.4514576640166]",Tone,"[15.133781809767155, 13.0, 11.0, 10.012584718170508]",False,516.4302836999996,519.1739859000081,519.1739859000081,520.4038810000056,['space'],1,[0.36497239995514974],3.30294382001739,4.319472019968089,None,1,None,1,,,,,,,,lkbxgs,001,fr,0,0,2022-04-29_11h04.04.543,Cluster,2022.1.1,36.63843796696743,
,,,,2,0,2,0,14,0,14,0,,,none,,,,,,,,,,,,,,,,,,,,,,,,,,,,,,,,,,,,,,,,,,,,,,,,,,,,,,,,,,,,,,,,,,,,,,,,,,,,,,,,,,,,,,,,,,,,,,,,,,,,,,,,,,,,,,,,,,,,520.7981240000227,None,125.0,8.0,0.0018153902738505074,1,"[0.5297928836694681, 0.5527118468377286, 0.625663035314254, 0.6341317867345466]","[234.8892231674174, 905.3914760395194, 180.8165084395556, 362.9059158394811]",None,"[16.4155217517478, 14.286105052735719, 15.01659648795322, 16.0]",False,521.8243163000443,524.5683648000122,524.5683648000122,525.7766753000324,['space'],1,[0.3985036999802105],3.391442299936898,4.423676399921533,None,1,None,1,,,,,,,,lkbxgs,001,fr,0,0,2022-04-29_11h04.04.543,Cluster,2022.1.1,36.63843796696743,
,,,,2,0,2,0,15,0,15,0,,,frequency,,,,,,,,,,,,,,,,,,,,,,,,,,,,,,,,,,,,,,,,,,,,,,,,,,,,,,,,,,,,,,,,,,,,,,,,,,,,,,,,,,,,,,,,,,,,,,,,,,,,,,,,,,,,,,,,,,,,526.2836543000303,None,,,,,"[0.5053053704551997, 0.5569133726469095, 0.5907096504015062, 0.503902132271632]","[3881.129429176323, 3457.6932333899326, 3080.454469349616, 2744.372938033252]",Tone,"[13.0, 14.170865312533543, 14.559362849577278, 14.0]",True,527.2739536000299,529.9447889000294,529.9447889000294,531.1484422000358,None,1,,3.1953924199333414,4.215879919938743,None,1,None,1,0,,,,,,,lkbxgs,001,fr,0,0,2022-04-29_11h04.04.543,Cluster,2022.1.1,36.63843796696743,
,,,,2,0,2,0,16,0,16,0,,,none,,,,,,,,,,,,,,,,,,,,,,,,,,,,,,,,,,,,,,,,,,,,,,,,,,,,,,,,,,,,,,,,,,,,,,,,,,,,,,,,,,,,,,,,,,,,,,,,,,,,,,,,,,,,,,,,,,,,531.52674510004,None,7379.3964813891225,-2.0,0.00012925869554868645,0,"[0.5615821562936796, 0.7088859991438714, 0.4622097116945204, 0.7016538108372745]","[1227.8439523416544, 1137.33911221778, 5177.516588452214, 3096.739465163102]",None,"[10.270511836376757, 12.0, 6.0, 14.559362849577278]",False,532.5364553999971,535.2946760000195,535.2946760000195,536.5340744000277,None,0,,3.4688401200110093,4.478543920035008,None,1,None,1,,,,,,,,lkbxgs,001,fr,0,0,2022-04-29_11h04.04.543,Cluster,2022.1.1,36.63843796696743,
,,,,2,0,2,0,17,0,17,0,,,frequency,,,,,,,,,,,,,,,,,,,,,,,,,,,,,,,,,,,,,,,,,,,,,,,,,,,,,,,,,,,,,,,,,,,,,,,,,,,,,,,,,,,,,,,,,,,,,,,,,,,,,,,,,,,,,,,,,,,,537.0620650000055,None,4890.475244505098,1.0834126495080125,0.00016450060161553846,1,"[0.7214142668542602, 0.5349810081666241, 0.6750020728162813, 0.6667871990472771]","[7763.14554775183, 6916.176417228988, 6161.61270454175, 5489.372860153474]",Tone,"[5.0, 3.573446947211485, 3.6658685268620657, 5.0]",False,538.0545046000043,541.0247817999916,541.0247817999916,542.2394062000094,['space'],1,[0.39899710001191124],3.6132375199813396,4.64471591997426,None,1,None,1,,,,,,,,lkbxgs,001,fr,0,0,2022-04-29_11h04.04.543,Cluster,2022.1.1,36.63843796696743,
,,,,2,0,2,0,18,0,18,0,,,frequency,,,,,,,,,,,,,,,,,,,,,,,,,,,,,,,,,,,,,,,,,,,,,,,,,,,,,,,,,,,,,,,,,,,,,,,,,,,,,,,,,,,,,,,,,,,,,,,,,,,,,,,,,,,,,,,,,,,,542.7473886000225,None,1414.213562373095,3.0,7.123757377826762e-05,1,"[0.7489626116281782, 0.40886799037473065, 0.532251836719666, 0.5166881259729028]","[561.2310241546867, 707.1067811865478, 890.8987181403395, 1122.4620483093731]",Major_3rd,"[9.943778458132101, 12.068159352451232, 14.293514526086224, 12.0]",False,544.4913404000108,547.2088952000486,547.2088952000486,548.4376230000053,['space'],1,[0.436893499980215],3.2138295799377374,4.2203788799233735,None,1,None,1,,,,,,,,lkbxgs,001,fr,0,0,2022-04-29_11h04.04.543,Cluster,2022.1.1,36.63843796696743,
,,,,2,0,2,0,19,0,19,0,,,none,,,,,,,,,,,,,,,,,,,,,,,,,,,,,,,,,,,,,,,,,,,,,,,,,,,,,,,,,,,,,,,,,,,,,,,,,,,,,,,,,,,,,,,,,,,,,,,,,,,,,,,,,,,,,,,,,,,,548.7516567000421,None,,,,,"[0.6123955437611122, 0.506817747182607, 0.5056357084676628, 0.7930750717083361]","[3346.11734148368, 2802.0231869058803, 3772.2428492738804, 2164.5256071796]",None,"[14.605639852636942, 14.0, 13.0, 9.132621243599296]",True,549.7620915000443,552.4266429000418,552.4266429000418,553.6399740999914,None,1,,3.443285220011603,4.448060520051513,None,1,None,1,0,,,,,,,lkbxgs,001,fr,0,0,2022-04-29_11h04.04.543,Cluster,2022.1.1,36.63843796696743,
,,,,3,0,3,0,0,0,0,0,,,none,,,,,,,,,,,,,,,,,,,,,,,,,,,,,,,,,,,,,,,,,,,,,,,,,,,,,,,,,,,,,,,,,,,,,,,,,,,,,,,,,,,,,,,,,,,,,,,,,,,,,,,,,,,,,,,,,,,,571.2807507000398,None,2462.2888266898335,1.0,9.543828998156852e-05,0,"[0.6956203650201436, 0.48254727127096647, 0.5650805389593644, 0.771095097296998]","[334.56643889413243, 192.6017892266981, 4544.651380791633, 186.34662391059967]",None,"[16.834218938853382, 15.219649067321496, 9.0, 15.219649067321496]",False,572.2744731000275,575.0483188999933,575.0483188999933,576.2531420000014,None,0,,3.564395199995488,4.568931199959479,None,1,None,1,,,,,,,,lkbxgs,001,fr,0,0,2022-04-29_11h04.04.543,Cluster,2022.1.1,36.63843796696743,
,,,,3,0,3,0,1,0,1,0,,,none,,,,,,,,,,,,,,,,,,,,,,,,,,,,,,,,,,,,,,,,,,,,,,,,,,,,,,,,,,,,,,,,,,,,,,,,,,,,,,,,,,,,,,,,,,,,,,,,,,,,,,,,,,,,,,,,,,,,576.8686206000275,None,1026.4446434915087,7.794555457361811,0.00011078162542644973,0,"[0.68675993048117, 0.5999020409181604, 0.47767447114460215, 0.4008772426668177]","[5619.120040187539, 140.63307224675026, 726.5460594326463, 2685.251472748319]",None,"[4.420310465030703, 15.184035227740313, 12.068159352451232, 13.125812735173945]",False,577.8733289000229,580.6659846000257,580.6659846000257,581.86975360004,None,0,,3.1933310199528933,4.197164319979493,None,1,None,1,,,,,,,,lkbxgs,001,fr,0,0,2022-04-29_11h04.04.543,Cluster,2022.1.1,36.63843796696743,
,,,,3,0,3,0,2,0,2,0,,,time,,,,,,,,,,,,,,,,,,,,,,,,,,,,,,,,,,,,,,,,,,,,,,,,,,,,,,,,,,,,,,,,,,,,,,,,,,,,,,,,,,,,,,,,,,,,,,,,,,,,,,,,,,,,,,,,,,,,582.1224854000029,None,165.46936647841767,8.953542491157226,0.0010966756672379724,1,"[0.5621430057423467, 0.5621430057423467, 0.5621430057423467, 0.5621430057423467]","[5252.506684066498, 4189.183519651551, 514.7412430976407, 288.18580198190523]",None,"[5.589902104562253, 11.0, 10.54331460666868, 17.32493363747519]",False,583.1210682000383,585.8365114000044,585.8365114000044,587.0464650000213,['space'],1,[0.2764274000073783],3.276556820026599,4.284399620024487,None,1,None,1,,,,,,,,lkbxgs,001,fr,0,0,2022-04-29_11h04.04.543,Cluster,2022.1.1,36.63843796696743,
,,,,3,0,3,0,3,0,3,0,,,both,,,,,,,,,,,,,,,,,,,,,,,,,,,,,,,,,,,,,,,,,,,,,,,,,,,,,,,,,,,,,,,,,,,,,,,,,,,,,,,,,,,,,,,,,,,,,,,,,,,,,,,,,,,,,,,,,,,,587.4572422000347,None,4000.0,1.0,9.418245447449e-05,1,"[0.5938109941730744, 0.5938109941730744, 0.5938109941730744, 0.5938109941730744]","[6349.6042078728005, 5656.854249492382, 5039.684199579494, 4489.8481932374925]",Tone,"[3.389691341329473, 4.420310465030703, 7.0, 9.0]",False,588.4938426000299,591.2844723000308,591.2844723000308,592.4996087000472,['space'],1,[0.4002951000002213],3.3953252999926917,4.401071699976455,None,1,None,1,,,,,,,,lkbxgs,001,fr,0,0,2022-04-29_11h04.04.543,Cluster,2022.1.1,36.63843796696743,
,,,,3,0,3,0,4,0,4,0,,,both,,,,,,,,,,,,,,,,,,,,,,,,,,,,,,,,,,,,,,,,,,,,,,,,,,,,,,,,,,,,,,,,,,,,,,,,,,,,,,,,,,,,,,,,,,,,,,,,,,,,,,,,,,,,,,,,,,,,592.9413814000436,None,323.1494444626557,11.0,0.0003424143210997382,1,"[0.6808941343605643, 0.6808941343605643, 0.6808941343605643, 0.6808941343605643]","[1628.5711493613371, 1086.9408377595062, 725.445974683177, 484.17709952716524]",Perfect_5th,"[6.410335264009759, 12.880297343895435, 12.068159352451232, 11.0]",False,593.9393074000254,597.0171775000053,597.0171775000053,598.2275990000344,['space'],1,[0.33442279999144375],3.7460050199879333,4.771488119964488,None,1,None,1,,,,,,,,lkbxgs,001,fr,0,0,2022-04-29_11h04.04.543,Cluster,2022.1.1,36.63843796696743,
,,,,3,0,3,0,5,0,5,0,,,none,,,,,,,,,,,,,,,,,,,,,,,,,,,,,,,,,,,,,,,,,,,,,,,,,,,,,,,,,,,,,,,,,,,,,,,,,,,,,,,,,,,,,,,,,,,,,,,,,,,,,,,,,,,,,,,,,,,,598.7596625000006,None,,,,,"[0.6312695967896352, 0.6870795395381039, 0.6201773864294254, 0.5596182113406798]","[1973.4065818184104, 3248.373941545117, 6193.277476076749, 689.1667120408969]",None,"[7.897678780015179, 14.605639852636942, 3.6658685268620657, 12.0]",True,599.7588646000368,602.7095427000313,602.7095427000313,603.9212576000136,None,1,,3.5290638199658133,4.5338923200033605,None,1,None,1,0,,,,,,,lkbxgs,001,fr,0,0,2022-04-29_11h04.04.543,Cluster,2022.1.1,36.63843796696743,
,,,,3,0,3,0,6,0,6,0,,,both,,,,,,,,,,,,,,,,,,,,,,,,,,,,,,,,,,,,,,,,,,,,,,,,,,,,,,,,,,,,,,,,,,,,,,,,,,,,,,,,,,,,,,,,,,,,,,,,,,,,,,,,,,,,,,,,,,,,604.3367954000132,None,217.63764082403114,7.0,0.000516891006859825,1,"[0.6818326413091029, 0.6818326413091029, 0.6818326413091029, 0.6818326413091029]","[345.47821999194423, 307.78610333622925, 274.20624492365664, 244.28999210856162]",Tone,"[16.13050582112513, 17.231704830781403, 17.17266412098619, 16.838723675150135]",False,605.3490210000309,608.4372643000097,608.4372643000097,609.651982600044,['space'],1,[0.362011999997776],3.7631526000332087,4.779054399987217,None,1,None,1,,,,,,,,lkbxgs,001,fr,0,0,2022-04-29_11h04.04.543,Cluster,2022.1.1,36.63843796696743,
,,,,3,0,3,0,7,0,7,0,,,both,,,,,,,,,,,,,,,,,,,,,,,,,,,,,,,,,,,,,,,,,,,,,,,,,,,,,,,,,,,,,,,,,,,,,,,,,,,,,,,,,,,,,,,,,,,,,,,,,,,,,,,,,,,,,,,,,,,,610.1519767999998,None,600.6789464519323,4.338487158142471,9.185050382386399e-05,1,"[0.7949945145994943, 0.7949945145994943, 0.7949945145994943, 0.7949945145994943]","[1513.6160977269299, 1201.3578929038647, 953.5183914929472, 756.8080488634649]",Major_3rd,"[6.842176152629632, 11.0, 14.0, 13.049623191621642]",False,611.1565225000377,614.574713500042,614.574713500042,615.793086700025,['space'],1,[0.34210369997890666],4.199869719916023,5.212684419937432,None,1,None,1,,,,,,,,lkbxgs,001,fr,0,0,2022-04-29_11h04.04.543,Cluster,2022.1.1,36.63843796696743,
,,,,3,0,3,0,8,0,8,0,,,both,,,,,,,,,,,,,,,,,,,,,,,,,,,,,,,,,,,,,,,,,,,,,,,,,,,,,,,,,,,,,,,,,,,,,,,,,,,,,,,,,,,,,,,,,,,,,,,,,,,,,,,,,,,,,,,,,,,,616.426511800033,None,125.0,8.0,0.0018153902738505074,1,"[0.644935185332514, 0.644935185332514, 0.644935185332514, 0.644935185332514]","[198.42513149602502, 176.77669529663694, 157.49013123685918, 140.30775603867164]",Tone,"[15.542516398817245, 15.01659648795322, 15.0, 15.184035227740313]",False,618.3494171000202,621.2962186000077,621.2962186000077,622.4999871000182,['space'],1,[0.5907909999950789],3.603949240001384,4.622018339985516,None,1,None,1,,,,,,,,lkbxgs,001,fr,0,0,2022-04-29_11h04.04.543,Cluster,2022.1.1,36.63843796696743,
,,,,3,0,3,0,9,0,9,0,,,time,,,,,,,,,,,,,,,,,,,,,,,,,,,,,,,,,,,,,,,,,,,,,,,,,,,,,,,,,,,,,,,,,,,,,,,,,,,,,,,,,,,,,,,,,,,,,,,,,,,,,,,,,,,,,,,,,,,,623.0180381000391,None,,,,,"[0.5405354924007824, 0.5405354924007824, 0.5405354924007824, 0.5405354924007824]","[1107.555425542525, 3387.789815092096, 1761.1534458646565, 256.41961740038647]",None,"[12.0, 14.170865312533543, 6.45369187610424, 17.0]",True,624.0354900000384,626.6698687000317,626.6698687000317,627.8836808000342,None,1,,3.188725619984325,4.210473219980486,None,1,None,1,0,,,,,,,lkbxgs,001,fr,0,0,2022-04-29_11h04.04.543,Cluster,2022.1.1,36.63843796696743,
,,,,3,0,3,0,10,0,10,0,,,none,,,,,,,,,,,,,,,,,,,,,,,,,,,,,,,,,,,,,,,,,,,,,,,,,,,,,,,,,,,,,,,,,,,,,,,,,,,,,,,,,,,,,,,,,,,,,,,,,,,,,,,,,,,,,,,,,,,,628.2866947000148,None,4000.0,-1.0,7.481178280472168e-05,0,"[0.6802863082902306, 0.628815859103471, 0.7598940919488912, 0.6511625295416628]","[1194.0966732405016, 448.4910679775267, 125.59862892672342, 890.3467398547774]",None,"[11.0, 12.0, 15.550316744423025, 14.293514526086224]",False,629.310015199997,632.4126209000242,632.4126209000242,633.6261678000446,None,0,,3.7415803999756463,4.750096199975815,None,1,None,1,,,,,,,,lkbxgs,001,fr,0,0,2022-04-29_11h04.04.543,Cluster,2022.1.1,36.63843796696743,
,,,,3,0,3,0,11,0,11,0,,,time,,,,,,,,,,,,,,,,,,,,,,,,,,,,,,,,,,,,,,,,,,,,,,,,,,,,,,,,,,,,,,,,,,,,,,,,,,,,,,,,,,,,,,,,,,,,,,,,,,,,,,,,,,,,,,,,,,,,634.0979839999927,None,3031.4331330207992,0.0,5.779859554559452e-05,0,"[0.7756271275307043, 0.7756271275307043, 0.7756271275307043, 0.7756271275307043]","[1413.8569719205193, 517.5147306475922, 238.49621824162952, 294.8821761261589]",None,"[7.704585993294453, 10.54331460666868, 16.4155217517478, 17.32493363747519]",False,635.1745216000127,638.5154429000104,638.5154429000104,639.7356285999995,None,0,,4.129496760026086,5.144635059987195,None,1,None,1,,,,,,,,lkbxgs,001,fr,0,0,2022-04-29_11h04.04.543,Cluster,2022.1.1,36.63843796696743,
,,,,3,0,3,0,12,0,12,0,,,frequency,,,,,,,,,,,,,,,,,,,,,,,,,,,,,,,,,,,,,,,,,,,,,,,,,,,,,,,,,,,,,,,,,,,,,,,,,,,,,,,,,,,,,,,,,,,,,,,,,,,,,,,,,,,,,,,,,,,,640.3493368000491,None,421.3410252040707,7.0,0.00016894266399461994,1,"[0.5829057767325909, 0.5762309835094881, 0.7583741012018336, 0.6168792256308402]","[167.20929666157542, 210.67051260203542, 265.42821341944756, 334.4185933231508]",Major_3rd,"[14.953542491157226, 15.95853876766314, 17.17266412098619, 16.834218938853382]",False,641.3507846000139,644.2924154000357,644.2924154000357,645.499529200024,['space'],1,[0.31260060000931844],3.5705474199494347,4.575645819946658,None,1,None,1,,,,,,,,lkbxgs,001,fr,0,0,2022-04-29_11h04.04.543,Cluster,2022.1.1,36.63843796696743,
,,,,3,0,3,0,13,0,13,0,,,both,,,,,,,,,,,,,,,,,,,,,,,,,,,,,,,,,,,,,,,,,,,,,,,,,,,,,,,,,,,,,,,,,,,,,,,,,,,,,,,,,,,,,,,,,,,,,,,,,,,,,,,,,,,,,,,,,,,,645.9756572000333,None,1176.2639880266872,5.0,9.144812413521611e-05,1,"[0.6219539655451262, 0.6219539655451262, 0.6219539655451262, 0.6219539655451262]","[740.9998793740571, 831.7442423992024, 933.6013459929364, 1047.932079127619]",Tone,"[13.0, 14.0, 14.286105052735719, 13.0]",False,646.9796198999975,649.8710107000079,649.8710107000079,651.0774191000382,['space'],1,[0.29697040002793074],3.525756319926586,4.551863419939764,None,1,None,1,,,,,,,,lkbxgs,001,fr,0,0,2022-04-29_11h04.04.543,Cluster,2022.1.1,36.63843796696743,
,,,,3,0,3,0,14,0,14,0,,,both,,,,,,,,,,,,,,,,,,,,,,,,,,,,,,,,,,,,,,,,,,,,,,,,,,,,,,,,,,,,,,,,,,,,,,,,,,,,,,,,,,,,,,,,,,,,,,,,,,,,,,,,,,,,,,,,,,,,651.5764991000178,None,,,,,"[0.6400191351466836, 0.6400191351466836, 0.6400191351466836, 0.6400191351466836]","[7708.02562506172, 6867.070148760374, 6117.863992910406, 5450.397189040818]",Tone,"[4.169685870525205, 3.573446947211485, 3.6658685268620657, 5.0]",True,652.5808744000387,655.5245228999993,655.5245228999993,656.7519721999997,None,1,,3.5819244199083187,4.589317319914699,None,1,None,1,0,,,,,,,lkbxgs,001,fr,0,0,2022-04-29_11h04.04.543,Cluster,2022.1.1,36.63843796696743,
,,,,3,0,3,0,15,0,15,0,,,time,,,,,,,,,,,,,,,,,,,,,,,,,,,,,,,,,,,,,,,,,,,,,,,,,,,,,,,,,,,,,,,,,,,,,,,,,,,,,,,,,,,,,,,,,,,,,,,,,,,,,,,,,,,,,,,,,,,,657.2137092000339,None,3627.502562529467,8.0,0.00019442338192178564,1,"[0.4952961480302025, 0.4952961480302025, 0.4952961480302025, 0.4952961480302025]","[5134.735754732746, 4187.624020304257, 372.8985353865325, 2187.919189730312]",None,"[6.0, 11.0, 15.133781809767155, 9.132621243599296]",False,658.2194413000252,660.7377340000239,660.7377340000239,661.9481024999986,['space'],1,[0.331263099971693],3.00378292001551,4.038650619972032,None,1,None,1,,,,,,,,lkbxgs,001,fr,0,0,2022-04-29_11h04.04.543,Cluster,2022.1.1,36.63843796696743,
,,,,3,0,3,0,16,0,16,0,,,frequency,,,,,,,,,,,,,,,,,,,,,,,,,,,,,,,,,,,,,,,,,,,,,,,,,,,,,,,,,,,,,,,,,,,,,,,,,,,,,,,,,,,,,,,,,,,,,,,,,,,,,,,,,,,,,,,,,,,,662.3091235000174,None,3249.0095854249403,-2.0,5.62044717204616e-05,0,"[0.4059351543577121, 0.6058839143646159, 0.7777544393014226, 0.5691906050790074]","[5157.481233758315, 4594.793419988138, 4093.4955679870977, 3646.8899542328654]",Tone,"[6.0, 8.747285531350771, 11.0, 13.276481047333279]",False,663.3317112000077,666.1414418000495,666.1414418000495,667.3516703000059,None,0,,3.3922296999953687,4.397239300014917,None,1,None,1,,,,,,,,lkbxgs,001,fr,0,0,2022-04-29_11h04.04.543,Cluster,2022.1.1,36.63843796696743,
,,,,3,0,3,0,17,0,17,0,,,none,,,,,,,,,,,,,,,,,,,,,,,,,,,,,,,,,,,,,,,,,,,,,,,,,,,,,,,,,,,,,,,,,,,,,,,,,,,,,,,,,,,,,,,,,,,,,,,,,,,,,,,,,,,,,,,,,,,,667.7624129000469,None,443.6629387679254,6.652266053110589,0.00015985952324711083,0,"[0.5735633760126656, 0.6196788136588987, 0.7513620900951067, 0.44573762884539375]","[1462.853163945887, 164.61977996877226, 622.7398908401242, 151.1010016819007]",None,"[7.0, 14.953542491157226, 10.33848715814247, 15.02244988057681]",False,668.7628931000363,671.7432954999967,671.7432954999967,672.9585379000055,None,0,,3.4052251199027523,4.418174619902857,None,1,None,1,,,,,,,,lkbxgs,001,fr,0,0,2022-04-29_11h04.04.543,Cluster,2022.1.1,36.63843796696743,
,,,,3,0,3,0,18,0,18,0,,,frequency,,,,,,,,,,,,,,,,,,,,,,,,,,,,,,,,,,,,,,,,,,,,,,,,,,,,,,,,,,,,,,,,,,,,,,,,,,,,,,,,,,,,,,,,,,,,,,,,,,,,,,,,,,,,,,,,,,,,673.2317934000166,None,338.3578553721956,10.83421893885338,0.0003221968460819309,1,"[0.7731641360821093, 0.44604694581827636, 0.6236879387067231, 0.5152785366336459]","[537.1096155595274, 478.5102680028333, 426.3041843807144, 379.7938514026413]",Tone,"[10.012584718170508, 11.0, 13.0, 15.133781809767155]",False,674.2349664000212,677.1098469000426,677.1098469000426,678.3203567000455,['space'],1,[0.26416510000126436],3.3916426199721172,4.39771801995812,None,1,None,1,,,,,,,,lkbxgs,001,fr,0,0,2022-04-29_11h04.04.543,Cluster,2022.1.1,36.63843796696743,
,,,,3,0,3,0,19,0,19,0,,,time,,,,,,,,,,,,,,,,,,,,,,,,,,,,,,,,,,,,,,,,,,,,,,,,,,,,,,,,,,,,,,,,,,,,,,,,,,,,,,,,,,,,,,,,,,,,,,,,,,,,,,,,,,,,,,,,,,,,678.6835150000406,None,,,,,"[0.7188720138558995, 0.7188720138558995, 0.7188720138558995, 0.7188720138558995]","[4626.734451085482, 3172.8186378367354, 2108.9824234580415, 217.95442583096764]",None,"[8.747285531350771, 14.605639852636942, 9.0, 15.95853876766314]",True,679.6884428000194,682.8827768000192,682.8827768000192,684.1148097999976,None,1,,3.9043860199744813,4.906502319965512,None,1,None,1,0,,,,,,,lkbxgs,001,fr,0,0,2022-04-29_11h04.04.543,Cluster,2022.1.1,36.63843796696743,
,,,,4,0,4,0,0,0,0,0,,,none,,,,,,,,,,,,,,,,,,,,,,,,,,,,,,,,,,,,,,,,,,,,,,,,,,,,,,,,,,,,,,,,,,,,,,,,,,,,,,,,,,,,,,,,,,,,,,,,,,,,,,,,,,,,,,,,,,,,706.2625682000071,None,176.7766952966369,5.0,0.0006224350964454478,0,"[0.5916715717203456, 0.6898485506684217, 0.7824695875140865, 0.5697904327150605]","[447.50969292368194, 155.17406727678926, 1359.3405372085513, 5291.564747927472]",None,"[12.0, 15.02244988057681, 8.0, 5.589902104562253]",False,707.2515867000329,710.3413887000061,710.3413887000061,711.5579965999932,None,0,,3.677221199963242,4.6936391000053845,None,1,None,1,,,,,,,,lkbxgs,001,fr,0,0,2022-04-29_11h04.04.543,Cluster,2022.1.1,36.63843796696743,
,,,,4,0,4,0,1,0,1,0,,,none,,,,,,,,,,,,,,,,,,,,,,,,,,,,,,,,,,,,,,,,,,,,,,,,,,,,,,,,,,,,,,,,,,,,,,,,,,,,,,,,,,,,,,,,,,,,,,,,,,,,,,,,,,,,,,,,,,,,711.9734883000492,None,1994.8696419849407,1.8976787800151786,9.279126215809012e-05,1,"[0.7215864669871084, 0.7420316203334574, 0.6003652412624909, 0.5238391979834061]","[298.37344250721986, 250.96245812640592, 3275.0097919729296, 500.3950841567949]",None,"[17.231704830781403, 16.838723675150135, 14.605639852636942, 10.54331460666868]",False,712.9768584000412,716.0601148999995,716.0601148999995,717.2640814000042,['space'],1,[0.4424777999520302],3.606985419988632,4.6280297199846245,None,1,None,1,,,,,,,,lkbxgs,001,fr,0,0,2022-04-29_11h04.04.543,Cluster,2022.1.1,36.63843796696743,
,,,,4,0,4,0,2,0,2,0,,,frequency,,,,,,,,,,,,,,,,,,,,,,,,,,,,,,,,,,,,,,,,,,,,,,,,,,,,,,,,,,,,,,,,,,,,,,,,,,,,,,,,,,,,,,,,,,,,,,,,,,,,,,,,,,,,,,,,,,,,717.6544084000052,None,125.0,11.0,0.0025643069199568253,1,"[0.5459749292739744, 0.5966491953236375, 0.49645177844492105, 0.7112146408376737]","[314.9802624737183, 250.00000000000003, 198.42513149602496, 157.49013123685916]",Major_3rd,"[17.0, 16.838723675150135, 15.542516398817245, 15.0]",False,718.6710764000309,721.3223879000288,721.3223879000288,722.5283009000123,['space'],1,[0.3000888000242412],3.3947931000147946,4.412881899974309,None,1,None,1,,,,,,,,lkbxgs,001,fr,0,0,2022-04-29_11h04.04.543,Cluster,2022.1.1,36.63843796696743,
,,,,4,0,4,0,3,0,3,0,,,none,,,,,,,,,,,,,,,,,,,,,,,,,,,,,,,,,,,,,,,,,,,,,,,,,,,,,,,,,,,,,,,,,,,,,,,,,,,,,,,,,,,,,,,,,,,,,,,,,,,,,,,,,,,,,,,,,,,,723.1118356999941,None,,,,,"[0.7679957477434537, 0.5225089406487202, 0.6680263223118145, 0.6749291361788081]","[184.69671869748058, 5939.232268213525, 1109.9978667499931, 4177.69966255555]",None,"[15.219649067321496, 4.0, 12.0, 11.0]",True,724.1276082000113,727.1058842000202,727.1058842000202,728.338008199993,None,1,,3.6516107199713588,4.666158219974022,None,1,None,1,0,,,,,,,lkbxgs,001,fr,0,0,2022-04-29_11h04.04.543,Cluster,2022.1.1,36.63843796696743,
,,,,4,0,4,0,4,0,4,0,,,frequency,,,,,,,,,,,,,,,,,,,,,,,,,,,,,,,,,,,,,,,,,,,,,,,,,,,,,,,,,,,,,,,,,,,,,,,,,,,,,,,,,,,,,,,,,,,,,,,,,,,,,,,,,,,,,,,,,,,,728.8358022000175,None,702.3844424180819,6.0,8.942179594872515e-05,0,"[0.45983731800457006, 0.643800713069135, 0.4177220732757529, 0.4899379425231328]","[1769.8978882424296, 1404.7688848361638, 1114.9658027805604, 884.9489441212148]",Major_3rd,"[6.45369187610424, 7.704585993294453, 12.0, 14.293514526086224]",False,729.8461777000339,732.4125574000063,732.4125574000063,733.6199552000035,None,0,,3.038754120003432,4.057060919993091,None,1,None,1,,,,,,,,lkbxgs,001,fr,0,0,2022-04-29_11h04.04.543,Cluster,2022.1.1,36.63843796696743,
,,,,4,0,4,0,5,0,5,0,,,time,,,,,,,,,,,,,,,,,,,,,,,,,,,,,,,,,,,,,,,,,,,,,,,,,,,,,,,,,,,,,,,,,,,,,,,,,,,,,,,,,,,,,,,,,,,,,,,,,,,,,,,,,,,,,,,,,,,,733.9562243000255,None,125.0,10.0,0.002285440948074376,1,"[0.5798412586216212, 0.5798412586216212, 0.5798412586216212, 0.5798412586216212]","[1985.9723026930076, 7445.80474272264, 1884.4027941085506, 2165.783209128069]",None,"[7.897678780015179, 4.169685870525205, 7.0, 9.132621243599296]",False,734.9771524000098,737.7380462000147,737.7380462000147,738.9391938000335,['space'],1,[0.43972899997606874],3.35023080004612,4.374616000044625,None,1,None,1,,,,,,,,lkbxgs,001,fr,0,0,2022-04-29_11h04.04.543,Cluster,2022.1.1,36.63843796696743,
,,,,4,0,4,0,6,0,6,0,,,frequency,,,,,,,,,,,,,,,,,,,,,,,,,,,,,,,,,,,,,,,,,,,,,,,,,,,,,,,,,,,,,,,,,,,,,,,,,,,,,,,,,,,,,,,,,,,,,,,,,,,,,,,,,,,,,,,,,,,,739.3817923000315,None,1071.7734625362941,4.0,7.457639025921729e-05,0,"[0.7550826853398263, 0.6686687265352685, 0.5187414758016261, 0.6269152299304487]","[425.33358047542845, 535.8867312681473, 675.1749730840958, 850.6671609508566]",Major_3rd,"[13.0, 10.012584718170508, 11.099108102107508, 14.0]",False,740.4181939000264,743.3771823000279,743.3771823000279,744.5908292999957,None,0,,3.6082754000090063,4.613552700029686,None,1,None,1,,,,,,,,lkbxgs,001,fr,0,0,2022-04-29_11h04.04.543,Cluster,2022.1.1,36.63843796696743,
,,,,4,0,4,0,7,0,7,0,,,both,,,,,,,,,,,,,,,,,,,,,,,,,,,,,,,,,,,,,,,,,,,,,,,,,,,,,,,,,,,,,,,,,,,,,,,,,,,,,,,,,,,,,,,,,,,,,,,,,,,,,,,,,,,,,,,,,,,,745.0710822000401,None,6062.8662660415985,-4.0,7.497821437245907e-05,1,"[0.6551026988487985, 0.6551026988487985, 0.6551026988487985, 0.6551026988487985]","[2406.0500721642366, 3031.4331330208, 3819.3664156416708, 4812.100144328472]",Major_3rd,"[11.0, 14.559362849577278, 13.0, 8.0]",False,746.0801674000104,749.0709736000281,749.0709736000281,750.2891374000465,['space'],1,[0.34570310002891347],3.6489657999482006,4.673622399917804,None,1,None,1,,,,,,,,lkbxgs,001,fr,0,0,2022-04-29_11h04.04.543,Cluster,2022.1.1,36.63843796696743,
,,,,4,0,4,0,8,0,8,0,,,time,,,,,,,,,,,,,,,,,,,,,,,,,,,,,,,,,,,,,,,,,,,,,,,,,,,,,,,,,,,,,,,,,,,,,,,,,,,,,,,,,,,,,,,,,,,,,,,,,,,,,,,,,,,,,,,,,,,,750.7896579999942,None,,,,,"[0.6166705548724759, 0.6166705548724759, 0.6166705548724759, 0.6166705548724759]","[392.94922741392446, 125.19228382078455, 1007.9662235082031, 878.2487440299616]",None,"[15.0, 15.550316744423025, 13.794555457361811, 14.293514526086224]",True,751.7982294000103,754.6746787000448,754.6746787000448,755.8816264999914,None,1,,3.4984188200323842,4.5082896199892275,None,1,None,1,0,,,,,,,lkbxgs,001,fr,0,0,2022-04-29_11h04.04.543,Cluster,2022.1.1,36.63843796696743,
,,,,4,0,4,0,9,0,9,0,,,none,,,,,,,,,,,,,,,,,,,,,,,,,,,,,,,,,,,,,,,,,,,,,,,,,,,,,,,,,,,,,,,,,,,,,,,,,,,,,,,,,,,,,,,,,,,,,,,,,,,,,,,,,,,,,,,,,,,,756.3494677999988,None,3249.0095854249403,5.0,0.00012582613892266384,1,"[0.6289596411838247, 0.6168681869611974, 0.40028490330614885, 0.5815066448147196]","[162.57202046601765, 582.0063989324759, 1006.9784773191666, 797.1310018518383]",None,"[14.953542491157226, 10.0, 13.794555457361811, 13.84245098635827]",False,757.3792624000343,760.0476760000456,760.0476760000456,761.2751012000372,['space'],1,[0.3436297999578528],3.269635599979665,4.278870899986941,None,1,None,1,,,,,,,,lkbxgs,001,fr,0,0,2022-04-29_11h04.04.543,Cluster,2022.1.1,36.63843796696743,
,,,,4,0,4,0,10,0,10,0,,,frequency,,,,,,,,,,,,,,,,,,,,,,,,,,,,,,,,,,,,,,,,,,,,,,,,,,,,,,,,,,,,,,,,,,,,,,,,,,,,,,,,,,,,,,,,,,,,,,,,,,,,,,,,,,,,,,,,,,,,761.6894538000342,None,837.4280357165662,8.0,9.904832479449233e-05,1,"[0.45855621049194256, 0.6068438340176237, 0.6702460509848951, 0.4876518316375339]","[166.16676810551752, 248.96884459422336, 373.0317817773356, 558.9161585368998]",Perfect_5th,"[14.953542491157226, 16.838723675150135, 15.133781809767155, 9.943778458132101]",False,762.6823237999924,765.4430289000156,765.4430289000156,766.6590405000024,['space'],1,[0.42982839996693656],3.2577140200301073,4.2891353200539015,None,1,None,1,,,,,,,,lkbxgs,001,fr,0,0,2022-04-29_11h04.04.543,Cluster,2022.1.1,36.63843796696743,
,,,,4,0,4,0,11,0,11,0,,,frequency,,,,,,,,,,,,,,,,,,,,,,,,,,,,,,,,,,,,,,,,,,,,,,,,,,,,,,,,,,,,,,,,,,,,,,,,,,,,,,,,,,,,,,,,,,,,,,,,,,,,,,,,,,,,,,,,,,,,767.0269679000485,None,1866.0659830736151,-3.0,4.868135812041065e-05,0,"[0.5974468273085791, 0.5273811250427878, 0.49895889379691716, 0.47657299831699795]","[370.27438807164106, 554.7847360339225, 831.2378961427878, 1245.449622358823]",Perfect_5th,"[15.133781809767155, 10.0, 14.0, 10.0]",False,769.1328998000245,771.7821402000263,771.7821402000263,772.986741300032,None,0,,3.128944099880755,4.151603799895383,None,1,None,1,,,,,,,,lkbxgs,001,fr,0,0,2022-04-29_11h04.04.543,Cluster,2022.1.1,36.63843796696743,
,,,,4,0,4,0,12,0,12,0,,,frequency,,,,,,,,,,,,,,,,,,,,,,,,,,,,,,,,,,,,,,,,,,,,,,,,,,,,,,,,,,,,,,,,,,,,,,,,,,,,,,,,,,,,,,,,,,,,,,,,,,,,,,,,,,,,,,,,,,,,773.3152693000156,None,2759.468640287869,8.0,0.00017525746796080336,1,"[0.5503222880272299, 0.586513158051557, 0.47651231002343414, 0.7906260526590992]","[6953.425252846941, 5518.937280575738, 4380.3834224662205, 3476.7126264234703]",Major_3rd,"[3.573446947211485, 5.0, 10.0, 14.170865312533543]",False,774.3263666999992,776.9586936000269,776.9586936000269,778.1838028000202,['space'],1,[0.3085898000281304],3.4159652199596167,4.435473819961771,None,1,None,1,,,,,,,,lkbxgs,001,fr,0,0,2022-04-29_11h04.04.543,Cluster,2022.1.1,36.63843796696743,
,,,,4,0,4,0,13,0,13,0,,,none,,,,,,,,,,,,,,,,,,,,,,,,,,,,,,,,,,,,,,,,,,,,,,,,,,,,,,,,,,,,,,,,,,,,,,,,,,,,,,,,,,,,,,,,,,,,,,,,,,,,,,,,,,,,,,,,,,,,778.8142824000097,None,,,,,"[0.680772520445668, 0.4059588151002884, 0.5191678936775915, 0.689818526872758]","[527.0638918910676, 228.24341719080684, 2314.7286824978196, 312.876567060059]",None,"[10.012584718170508, 16.4155217517478, 10.51781505457788, 17.231704830781403]",True,779.8203256000415,782.4459651000216,782.4459651000216,783.6607485000277,None,1,,3.317000119946897,4.3359948199940845,None,1,None,1,0,,,,,,,lkbxgs,001,fr,0,0,2022-04-29_11h04.04.543,Cluster,2022.1.1,36.63843796696743,
,,,,4,0,4,0,14,0,14,0,,,frequency,,,,,,,,,,,,,,,,,,,,,,,,,,,,,,,,,,,,,,,,,,,,,,,,,,,,,,,,,,,,,,,,,,,,,,,,,,,,,,,,,,,,,,,,,,,,,,,,,,,,,,,,,,,,,,,,,,,,784.2065517000156,None,8000.0,-2.0,0.00014420157515633036,0,"[0.4506242110356031, 0.7869007572484181, 0.6618478155943487, 0.6722552012305696]","[1587.4010519681997, 2378.4142300054423, 3563.5948725613575, 5339.359416680138]",Perfect_5th,"[6.410335264009759, 11.0, 14.0, 5.589902104562253]",False,785.2311648000032,788.1466960000107,788.1466960000107,789.3565918999957,None,0,,3.6092965999851003,4.635202699981164,None,1,None,1,,,,,,,,lkbxgs,001,fr,0,0,2022-04-29_11h04.04.543,Cluster,2022.1.1,36.63843796696743,
,,,,4,0,4,0,15,0,15,0,,,none,,,,,,,,,,,,,,,,,,,,,,,,,,,,,,,,,,,,,,,,,,,,,,,,,,,,,,,,,,,,,,,,,,,,,,,,,,,,,,,,,,,,,,,,,,,,,,,,,,,,,,,,,,,,,,,,,,,,789.8965203000116,None,192.7080476656752,9.219649067321496,0.0008440425415120295,1,"[0.755989462578476, 0.570602930669965, 0.5400984738009592, 0.6347544113360277]","[362.0243575397933, 4463.82478256127, 189.28086387878264, 5130.482156637788]",None,"[16.0, 9.0, 15.219649067321496, 6.0]",False,790.9024603000144,793.8077525999979,793.8077525999979,795.0331144999946,['space'],1,[0.41268700000364333],3.535750620008912,4.566460219968576,None,1,None,1,,,,,,,,lkbxgs,001,fr,0,0,2022-04-29_11h04.04.543,Cluster,2022.1.1,36.63843796696743,
,,,,4,0,4,0,16,0,16,0,,,frequency,,,,,,,,,,,,,,,,,,,,,,,,,,,,,,,,,,,,,,,,,,,,,,,,,,,,,,,,,,,,,,,,,,,,,,,,,,,,,,,,,,,,,,,,,,,,,,,,,,,,,,,,,,,,,,,,,,,,795.5249527000124,None,390.1305947846821,9.0,0.0002229807604642876,1,"[0.470577173188895, 0.5741913269067461, 0.48301983504742524, 0.5969687093857902]","[245.76687428861393, 275.8639891205898, 309.64685828309183, 347.5668468010014]",Tone,"[16.838723675150135, 17.17266412098619, 17.231704830781403, 16.13050582112513]",False,796.537078000023,799.1106822000002,799.1106822000002,800.3188049000455,['space'],1,[0.29789280000841245],3.1661928199464455,4.1951756199705414,None,1,None,1,,,,,,,,lkbxgs,001,fr,0,0,2022-04-29_11h04.04.543,Cluster,2022.1.1,36.63843796696743,
,,,,4,0,4,0,17,0,17,0,,,frequency,,,,,,,,,,,,,,,,,,,,,,,,,,,,,,,,,,,,,,,,,,,,,,,,,,,,,,,,,,,,,,,,,,,,,,,,,,,,,,,,,,,,,,,,,,,,,,,,,,,,,,,,,,,,,,,,,,,,800.7865007999935,None,6062.8662660415985,-3.0,8.41269401965078e-05,1,"[0.7046547023457228, 0.48513622078153323, 0.608400928598362, 0.415582847942255]","[3819.3664156416694, 4287.0938501451765, 4812.100144328471, 5401.399784672765]",Tone,"[13.0, 10.440910573743857, 8.0, 5.0]",False,802.898993800045,805.7103914000327,805.7103914000327,806.9367017000332,['space'],1,[0.2555131000117399],3.2533223999198526,4.274633299908601,None,1,None,1,,,,,,,,lkbxgs,001,fr,0,0,2022-04-29_11h04.04.543,Cluster,2022.1.1,36.63843796696743,
,,,,4,0,4,0,18,0,18,0,,,frequency,,,,,,,,,,,,,,,,,,,,,,,,,,,,,,,,,,,,,,,,,,,,,,,,,,,,,,,,,,,,,,,,,,,,,,,,,,,,,,,,,,,,,,,,,,,,,,,,,,,,,,,,,,,,,,,,,,,,807.2103305000346,None,223.21981296896786,10.0,0.0006955435897906957,1,"[0.7247557565371193, 0.7806158616148224, 0.45012338078454606, 0.63996997913595]","[140.61967055659957, 157.84024344555, 177.16968296354213, 198.86624523757973]",Tone,"[15.184035227740313, 15.0, 15.01659648795322, 15.542516398817245]",False,808.221822499996,811.206422200019,811.206422200019,812.419948099996,['space'],1,[0.2949171000509523],3.6287129200063646,4.6488534200470895,None,1,None,1,,,,,,,,lkbxgs,001,fr,0,0,2022-04-29_11h04.04.543,Cluster,2022.1.1,36.63843796696743,
,,,,4,0,4,0,19,0,19,0,,,time,,,,,,,,,,,,,,,,,,,,,,,,,,,,,,,,,,,,,,,,,,,,,,,,,,,,,,,,,,,,,,,,,,,,,,,,,,,,,,,,,,,,,,,,,,,,,,,,,,,,,,,,,,,,,,,,,,,,812.9219531000126,None,463.92392716598386,5.470807719132008,0.00013758581456717518,1,"[0.7977217210538441, 0.7977217210538441, 0.7977217210538441, 0.7977217210538441]","[3619.052387972626, 900.6903497931759, 4452.756568199023, 2159.422707095843]",None,"[14.0, 14.293514526086224, 10.0, 9.132621243599296]",False,813.937407999998,817.3500981000252,817.3500981000252,818.5717119000037,['space'],1,[0.46263760002329946],4.224613619968295,5.230333019979298,None,1,None,1,,,,,,,,lkbxgs,001,fr,0,0,2022-04-29_11h04.04.543,Cluster,2022.1.1,36.63843796696743,
,,,,5,0,5,0,0,0,0,0,,,frequency,,,,,,,,,,,,,,,,,,,,,,,,,,,,,,,,,,,,,,,,,,,,,,,,,,,,,,,,,,,,,,,,,,,,,,,,,,,,,,,,,,,,,,,,,,,,,,,,,,,,,,,,,,,,,,,,,,,,859.5811088000191,None,,,,,"[0.5298826032848872, 0.6256224877902357, 0.5869264262512394, 0.6363941628177466]","[2880.4283638436214, 3629.1123283208267, 4572.395014884403, 5760.856727687241]",Major_3rd,"[14.044510832506466, 14.0, 8.747285531350771, 4.420310465030703]",True,860.5581006000284,863.3356754000415,863.3356754000415,864.538145700004,None,1,,3.406394019955769,4.431075319938827,None,1,None,1,0,,,,,,,lkbxgs,001,fr,0,0,2022-04-29_11h04.04.543,Cluster,2022.1.1,36.63843796696743,
,,,,5,0,5,0,1,0,1,0,,,frequency,,,,,,,,,,,,,,,,,,,,,,,,,,,,,,,,,,,,,,,,,,,,,,,,,,,,,,,,,,,,,,,,,,,,,,,,,,,,,,,,,,,,,,,,,,,,,,,,,,,,,,,,,,,,,,,,,,,,865.0300917000277,None,164.93848884661182,7.0,0.0008801206631839937,0,"[0.4535866082876179, 0.4300587527330226, 0.5737428654905656, 0.4255222198152246]","[831.2378961427879, 554.7847360339226, 370.27438807164117, 247.1285050882241]",Perfect_5th,"[14.0, 10.0, 15.133781809767155, 16.838723675150135]",False,866.0553157000104,868.5310034000431,868.5310034000431,869.7270122000482,None,0,,2.9202717999578454,3.950822299986612,None,1,None,1,,,,,,,,lkbxgs,001,fr,0,0,2022-04-29_11h04.04.543,Cluster,2022.1.1,36.63843796696743,
,,,,5,0,5,0,2,0,2,0,,,none,,,,,,,,,,,,,,,,,,,,,,,,,,,,,,,,,,,,,,,,,,,,,,,,,,,,,,,,,,,,,,,,,,,,,,,,,,,,,,,,,,,,,,,,,,,,,,,,,,,,,,,,,,,,,,,,,,,,870.0367085000034,None,615.5722066724584,7.0,0.00011958216436309148,0,"[0.4448726561484006, 0.6998260208850581, 0.7368674804781723, 0.5540970381461039]","[773.5048922045779, 595.695155748311, 7293.9007091844005, 6623.727988488253]",None,"[13.049623191621642, 10.0, 4.0, 3.389691341329473]",False,871.0619072000263,873.956092700013,873.956092700013,875.1748299000319,None,0,,3.456927299965173,4.462761999981012,None,1,None,1,,,,,,,,lkbxgs,001,fr,0,0,2022-04-29_11h04.04.543,Cluster,2022.1.1,36.63843796696743,
,,,,5,0,5,0,3,0,3,0,,,none,,,,,,,,,,,,,,,,,,,,,,,,,,,,,,,,,,,,,,,,,,,,,,,,,,,,,,,,,,,,,,,,,,,,,,,,,,,,,,,,,,,,,,,,,,,,,,,,,,,,,,,,,,,,,,,,,,,,875.5634172999999,None,150.67815667776176,9.02244988057681,0.0013962007873602902,1,"[0.6858769176845652, 0.6017606200739785, 0.702078563497968, 0.5402709821614939]","[1734.8289322830083, 5174.292092574295, 3331.1113049729283, 4898.529077400084]",None,"[6.45369187610424, 6.0, 14.605639852636942, 7.083412649508013]",False,876.5671772999922,879.5975713999942,879.5975713999942,880.808393400046,['space'],1,[0.524084499978926],3.550471819937229,4.555912719981279,None,1,None,1,,,,,,,,lkbxgs,001,fr,0,0,2022-04-29_11h04.04.543,Cluster,2022.1.1,36.63843796696743,
,,,,5,0,5,0,4,0,4,0,,,none,,,,,,,,,,,,,,,,,,,,,,,,,,,,,,,,,,,,,,,,,,,,,,,,,,,,,,,,,,,,,,,,,,,,,,,,,,,,,,,,,,,,,,,,,,,,,,,,,,,,,,,,,,,,,,,,,,,,881.1724739000201,None,5278.031643091578,-3.0,0.00010087751046562562,1,"[0.6515518749196851, 0.7541349727077161, 0.6133435335375446, 0.4565316287581277]","[2351.12510905856, 1354.1190866236138, 3107.902944747843, 146.9182708765723]",None,"[11.0, 8.893732357148249, 14.559362849577278, 15.184035227740313]",False,883.6939237000188,886.7428213999956,886.7428213999956,887.9614318000386,['space'],1,[0.45816859998740256],3.5078531999024563,4.515953799884301,None,1,None,1,,,,,,,,lkbxgs,001,fr,0,0,2022-04-29_11h04.04.543,Cluster,2022.1.1,36.63843796696743,
,,,,5,0,5,0,5,0,5,0,,,time,,,,,,,,,,,,,,,,,,,,,,,,,,,,,,,,,,,,,,,,,,,,,,,,,,,,,,,,,,,,,,,,,,,,,,,,,,,,,,,,,,,,,,,,,,,,,,,,,,,,,,,,,,,,,,,,,,,,888.2591833000188,None,287.17458874925893,6.0,0.0002555923582352803,0,"[0.5078880320416029, 0.5078880320416029, 0.5078880320416029, 0.5078880320416029]","[2022.9176044209578, 737.0803178702702, 1161.8551354272915, 495.64026158403567]",None,"[8.0, 13.0, 11.653326638641452, 10.54331460666868]",False,889.2844455000013,891.8408063999959,891.8408063999959,893.0600171000115,None,0,,3.0525377999874763,4.0655319999787025,None,1,None,1,,,,,,,,lkbxgs,001,fr,0,0,2022-04-29_11h04.04.543,Cluster,2022.1.1,36.63843796696743,
,,,,5,0,5,0,6,0,6,0,,,both,,,,,,,,,,,,,,,,,,,,,,,,,,,,,,,,,,,,,,,,,,,,,,,,,,,,,,,,,,,,,,,,,,,,,,,,,,,,,,,,,,,,,,,,,,,,,,,,,,,,,,,,,,,,,,,,,,,,893.3906685000402,None,,,,,"[0.6875886620176938, 0.6875886620176938, 0.6875886620176938, 0.6875886620176938]","[850.6305274972792, 567.7277646385238, 378.9128232791834, 252.89396888457057]",Perfect_5th,"[14.0, 9.943778458132101, 15.133781809767155, 16.838723675150135]",True,894.3967063000309,897.476931000012,897.476931000012,898.6827494000318,None,1,,3.7677205199724995,4.786673619993962,None,1,None,1,0,,,,,,,lkbxgs,001,fr,0,0,2022-04-29_11h04.04.543,Cluster,2022.1.1,36.63843796696743,
,,,,5,0,5,0,7,0,7,0,,,none,,,,,,,,,,,,,,,,,,,,,,,,,,,,,,,,,,,,,,,,,,,,,,,,,,,,,,,,,,,,,,,,,,,,,,,,,,,,,,,,,,,,,,,,,,,,,,,,,,,,,,,,,,,,,,,,,,,,899.2290733000264,None,604.175298105359,4.338487158142471,9.095169961559719e-05,0,"[0.49081148448881606, 0.662762625058432, 0.4502226690655423, 0.7262250573735829]","[4443.691530332233, 981.2595321435201, 2531.5151553588935, 137.30447919105106]",None,"[10.0, 14.0, 12.0, 15.380481822894366]",False,900.2207344000344,902.8436768000247,902.8436768000247,904.0521569999983,None,0,,3.366121619939804,4.385874019935727,None,1,None,1,,,,,,,,lkbxgs,001,fr,0,0,2022-04-29_11h04.04.543,Cluster,2022.1.1,36.63843796696743,
,,,,5,0,5,0,8,0,8,0,,,time,,,,,,,,,,,,,,,,,,,,,,,,,,,,,,,,,,,,,,,,,,,,,,,,,,,,,,,,,,,,,,,,,,,,,,,,,,,,,,,,,,,,,,,,,,,,,,,,,,,,,,,,,,,,,,,,,,,,904.6620940000284,None,6265.417861576124,-2.3341314731379343,9.812614528346838e-05,1,"[0.437678105800148, 0.437678105800148, 0.437678105800148, 0.437678105800148]","[221.56672593037757, 149.31377164486594, 2311.460502308459, 978.316793428397]",None,"[16.0, 15.02244988057681, 10.51781505457788, 14.0]",False,905.6712598000304,907.9933009000379,907.9933009000379,909.2005581000121,['space'],1,[0.3840403000358492],2.7787108199554496,3.781870119913947,None,1,None,1,,,,,,,,lkbxgs,001,fr,0,0,2022-04-29_11h04.04.543,Cluster,2022.1.1,36.63843796696743,
,,,,5,0,5,0,9,0,9,0,,,time,,,,,,,,,,,,,,,,,,,,,,,,,,,,,,,,,,,,,,,,,,,,,,,,,,,,,,,,,,,,,,,,,,,,,,,,,,,,,,,,,,,,,,,,,,,,,,,,,,,,,,,,,,,,,,,,,,,,909.502770400024,None,8000.0,-3.0,0.00012851978913844324,0,"[0.44305269950373677, 0.44305269950373677, 0.44305269950373677, 0.44305269950373677]","[3370.6770392060694, 543.5002466389186, 6552.0259342601485, 764.064664716924]",None,"[14.170865312533543, 10.0, 3.389691341329473, 13.049623191621642]",False,911.4711326000397,913.832507300016,913.832507300016,915.0599431000301,None,0,,2.7976658999104984,3.824297299957834,None,1,None,1,,,,,,,,lkbxgs,001,fr,0,0,2022-04-29_11h04.04.543,Cluster,2022.1.1,36.63843796696743,
,,,,5,0,5,0,10,0,10,0,,,frequency,,,,,,,,,,,,,,,,,,,,,,,,,,,,,,,,,,,,,,,,,,,,,,,,,,,,,,,,,,,,,,,,,,,,,,,,,,,,,,,,,,,,,,,,,,,,,,,,,,,,,,,,,,,,,,,,,,,,915.3352644999977,None,165.3468008481948,8.953542491157226,0.001097927029616871,1,"[0.4965410831506441, 0.7654035771686661, 0.4789215063019774, 0.6135424501292369]","[833.2956596856644, 556.1581284276674, 371.1910175229334, 247.74028184976953]",Perfect_5th,"[14.0, 10.0, 15.133781809767155, 16.838723675150135]",False,916.3357189000235,919.1102783000097,919.1102783000097,920.328610800032,['space'],1,[0.42137880000518635],3.3722729199798778,4.3908974200021476,None,1,None,1,,,,,,,,lkbxgs,001,fr,0,0,2022-04-29_11h04.04.543,Cluster,2022.1.1,36.63843796696743,
,,,,5,0,5,0,11,0,11,0,,,frequency,,,,,,,,,,,,,,,,,,,,,,,,,,,,,,,,,,,,,,,,,,,,,,,,,,,,,,,,,,,,,,,,,,,,,,,,,,,,,,,,,,,,,,,,,,,,,,,,,,,,,,,,,,,,,,,,,,,,920.7801880000043,None,4000.0,-1.0,7.481178280472168e-05,0,"[0.5026755472725347, 0.5035050131944343, 0.4173700822593584, 0.7287372037634753]","[793.7005259840998, 1189.2071150027211, 1781.7974362806788, 2669.679708340069]",Perfect_5th,"[13.84245098635827, 11.0, 6.45369187610424, 13.125812735173945]",False,922.921950399992,925.3771913000382,925.3771913000382,926.589163800003,None,0,,3.168638379953336,4.170003879931755,None,1,None,1,,,,,,,,lkbxgs,001,fr,0,0,2022-04-29_11h04.04.543,Cluster,2022.1.1,36.63843796696743,
,,,,5,0,5,0,12,0,12,0,,,both,,,,,,,,,,,,,,,,,,,,,,,,,,,,,,,,,,,,,,,,,,,,,,,,,,,,,,,,,,,,,,,,,,,,,,,,,,,,,,,,,,,,,,,,,,,,,,,,,,,,,,,,,,,,,,,,,,,,927.1436808000435,None,143.00040428976354,9.184035227740313,0.0016191896763116144,1,"[0.4712199556555599, 0.4712199556555599, 0.4712199556555599, 0.4712199556555599]","[226.9989922014485, 202.23311117141932, 180.1692195081502, 160.51252670815643]",Tone,"[16.4155217517478, 15.542516398817245, 15.01659648795322, 15.0]",False,928.1398147,930.5777916000225,930.5777916000225,931.7935543000349,['space'],1,[0.5298453000141308],2.900171219953336,3.9097361199674197,None,1,None,1,,,,,,,,lkbxgs,001,fr,0,0,2022-04-29_11h04.04.543,Cluster,2022.1.1,36.63843796696743,
,,,,5,0,5,0,13,0,13,0,,,frequency,,,,,,,,,,,,,,,,,,,,,,,,,,,,,,,,,,,,,,,,,,,,,,,,,,,,,,,,,,,,,,,,,,,,,,,,,,,,,,,,,,,,,,,,,,,,,,,,,,,,,,,,,,,,,,,,,,,,932.1022878999938,None,,,,,"[0.6610451021623143, 0.5712798409111424, 0.7798004638918127, 0.7687309485413266]","[157.0730570020953, 176.3085452967868, 197.8996508882772, 222.13484749576546]",Tone,"[15.0, 15.01659648795322, 15.542516398817245, 16.0]",True,933.1031824999955,936.1336116000311,936.1336116000311,937.3415799000068,None,1,,3.8022979199304245,4.830969519971404,None,1,None,1,0,,,,,,,lkbxgs,001,fr,0,0,2022-04-29_11h04.04.543,Cluster,2022.1.1,36.63843796696743,
,,,,5,0,5,0,14,0,14,0,,,frequency,,,,,,,,,,,,,,,,,,,,,,,,,,,,,,,,,,,,,,,,,,,,,,,,,,,,,,,,,,,,,,,,,,,,,,,,,,,,,,,,,,,,,,,,,,,,,,,,,,,,,,,,,,,,,,,,,,,,937.9756018000189,None,5441.766413501709,-1.0,0.00012161594500609698,1,"[0.702801773763407, 0.7976884414057691, 0.4496149010963757, 0.7606585887524375]","[3428.098026490866, 3847.9099326202563, 4319.132864678914, 4848.062722207825]",Tone,"[14.170865312533543, 13.0, 10.440910573743857, 7.083412649508013]",False,938.9801679000375,941.9716852999991,941.9716852999991,943.1725462000468,['space'],1,[0.3946987999952398],3.7313283199328,4.758448319975287,None,1,None,1,,,,,,,,lkbxgs,001,fr,0,0,2022-04-29_11h04.04.543,Cluster,2022.1.1,36.63843796696743,
,,,,5,0,5,0,15,0,15,0,,,none,,,,,,,,,,,,,,,,,,,,,,,,,,,,,,,,,,,,,,,,,,,,,,,,,,,,,,,,,,,,,,,,,,,,,,,,,,,,,,,,,,,,,,,,,,,,,,,,,,,,,,,,,,,,,,,,,,,,943.7907400000258,None,933.0329915368076,9.0,0.0001187923537658707,1,"[0.6883894653863701, 0.7124371244855146, 0.48068754784967777, 0.5625169111646466]","[2381.415666631308, 1164.6417962259113, 194.55088820985978, 282.5587420631989]",None,"[11.0, 11.653326638641452, 15.219649067321496, 17.32493363747519]",False,944.812075600028,947.7251165999915,947.7251165999915,948.9288136000396,['space'],1,[0.38800629996694624],3.4638660000055097,4.47517589997733,None,1,None,1,,,,,,,,lkbxgs,001,fr,0,0,2022-04-29_11h04.04.543,Cluster,2022.1.1,36.63843796696743,
,,,,5,0,5,0,16,0,16,0,,,frequency,,,,,,,,,,,,,,,,,,,,,,,,,,,,,,,,,,,,,,,,,,,,,,,,,,,,,,,,,,,,,,,,,,,,,,,,,,,,,,,,,,,,,,,,,,,,,,,,,,,,,,,,,,,,,,,,,,,,949.331768300035,None,535.8867312681471,4.0,0.00010435943901325153,0,"[0.4592211577465858, 0.7807551720971313, 0.40013275725431807, 0.7486454876543951]","[2700.699892336382, 1802.5009252216619, 1203.0250360821176, 802.9228818633771]",Perfect_5th,"[13.125812735173945, 6.45369187610424, 11.0, 13.84245098635827]",False,950.3637827000348,953.0401581000187,953.0401581000187,954.2613469000207,None,0,,3.4123225000221282,4.4172455000225455,None,1,None,1,,,,,,,,lkbxgs,001,fr,0,0,2022-04-29_11h04.04.543,Cluster,2022.1.1,36.63843796696743,
,,,,5,0,5,0,17,0,17,0,,,none,,,,,,,,,,,,,,,,,,,,,,,,,,,,,,,,,,,,,,,,,,,,,,,,,,,,,,,,,,,,,,,,,,,,,,,,,,,,,,,,,,,,,,,,,,,,,,,,,,,,,,,,,,,,,,,,,,,,954.8098949000123,None,1462.2061278556225,1.0,5.524913335327988e-05,0,"[0.6024808859977657, 0.45975861990501865, 0.6877755759910251, 0.4136838109343024]","[1639.13311042095, 392.3187525023816, 2090.97238947287, 4095.7877339867437]",None,"[6.410335264009759, 15.0, 9.0, 11.0]",False,955.8192764000269,958.5880898000323,958.5880898000323,959.8009055000148,None,0,,3.197963919956237,4.2024546199827455,None,1,None,1,,,,,,,,lkbxgs,001,fr,0,0,2022-04-29_11h04.04.543,Cluster,2022.1.1,36.63843796696743,
,,,,5,0,5,0,18,0,18,0,,,time,,,,,,,,,,,,,,,,,,,,,,,,,,,,,,,,,,,,,,,,,,,,,,,,,,,,,,,,,,,,,,,,,,,,,,,,,,,,,,,,,,,,,,,,,,,,,,,,,,,,,,,,,,,,,,,,,,,,960.0778468000353,None,,,,,"[0.45238375203675113, 0.45238375203675113, 0.45238375203675113, 0.45238375203675113]","[1437.6966352556467, 433.68678813262034, 4292.127344790058, 1154.3343631808714]",None,"[7.704585993294453, 12.652266053110589, 10.440910573743857, 11.653326638641452]",True,961.0881442000391,963.4611966999946,963.4611966999946,964.6807392000337,None,1,,2.842021219956223,3.847364019951783,None,1,None,1,0,,,,,,,lkbxgs,001,fr,0,0,2022-04-29_11h04.04.543,Cluster,2022.1.1,36.63843796696743,
,,,,5,0,5,0,19,0,19,0,,,time,,,,,,,,,,,,,,,,,,,,,,,,,,,,,,,,,,,,,,,,,,,,,,,,,,,,,,,,,,,,,,,,,,,,,,,,,,,,,,,,,,,,,,,,,,,,,,,,,,,,,,,,,,,,,,,,,,,,964.9789447000367,None,233.18245190107808,10.4155217517478,0.0006648781302601557,1,"[0.5477719623303554, 0.5477719623303554, 0.5477719623303554, 0.5477719623303554]","[3616.0867799591506, 5926.860354823308, 141.3701119658701, 3962.388297950211]",None,"[14.0, 4.0, 15.184035227740313, 12.0]",False,965.9811442000209,968.6453175999923,968.6453175999923,969.8666706000222,['space'],1,[0.35610299999825656],3.2173942199442536,4.22380311996676,None,1,None,1,,,,,,,,lkbxgs,001,fr,0,0,2022-04-29_11h04.04.543,Cluster,2022.1.1,36.63843796696743,
,,,,6,0,6,0,0,0,0,0,,,both,,,,,,,,,,,,,,,,,,,,,,,,,,,,,,,,,,,,,,,,,,,,,,,,,,,,,,,,,,,,,,,,,,,,,,,,,,,,,,,,,,,,,,,,,,,,,,,,,,,,,,,,,,,,,,,,,,,,989.1112702999962,None,2297.3967099940687,0.0,8.14042568960799e-05,0,"[0.7041452203658156, 0.7041452203658156, 0.7041452203658156, 0.7041452203658156]","[1447.269237440377, 1624.50479271247, 1823.4449771164325, 2046.7477839935486]",Tone,"[7.704585993294453, 6.410335264009759, 6.971029497225497, 8.0]",False,990.096074800007,993.2255303999991,993.2255303999991,994.4330918000196,None,0,,3.837153899949044,4.853228399995714,None,1,None,1,,,,,,,,lkbxgs,001,fr,0,0,2022-04-29_11h04.04.543,Cluster,2022.1.1,36.63843796696743,
,,,,6,0,6,0,1,0,1,0,,,frequency,,,,,,,,,,,,,,,,,,,,,,,,,,,,,,,,,,,,,,,,,,,,,,,,,,,,,,,,,,,,,,,,,,,,,,,,,,,,,,,,,,,,,,,,,,,,,,,,,,,,,,,,,,,,,,,,,,,,994.9866883000359,None,729.4842579054936,6.068159352451232,8.5347253538591e-05,1,"[0.6011635659878141, 0.5415947280226928, 0.42674692703437267, 0.4520209689819476]","[1157.984078393422, 1031.6465310676217, 919.0925721020719, 818.8183943380433]",Tone,"[11.653326638641452, 13.0, 14.286105052735719, 13.84245098635827]",False,995.9992587000015,998.6034929000307,998.6034929000307,999.8284905000473,['space'],1,[0.3742014999734238],3.0361187200178392,4.057367820001673,None,1,None,1,,,,,,,,lkbxgs,001,fr,0,0,2022-04-29_11h04.04.543,Cluster,2022.1.1,36.63843796696743,
