tTrials.thisRepN,tTrials.thisTrialN,tTrials.thisN,tTrials.thisIndex,blocks.thisRepN,blocks.thisTrialN,blocks.thisN,blocks.thisIndex,trials.thisRepN,trials.thisTrialN,trials.thisN,trials.thisIndex,tStart_text.started,tStart_text.stopped,Prediction,practice_Frequency,practice_Level,practice_Psychopy_Level,practice_isCatchTrial,Practice_trial_detection,practice_Cue_Delays,practice_Cue_Frequencies,practice_Interval,practice_Cue_Intensities,tCue_visual_cue.started,tCue_visual_cue.stopped,tProbe_visual_cue.started,tProbe_visual_cue.stopped,tFeedback.keys,tFeedback.corr,tFeedback.rt,tFeedback.started,tFeedback.stopped,tToo_late.keys,tToo_late.corr,tToo_early.keys,tToo_early.corr,more_instructions.started,more_instructions.stopped,readyy.keys,readyy.rt,readyy.started,readyy.stopped,txt_rhythm.started,txt_rhythm.stopped,sound_1.started,sound_1.stopped,sound_2.started,sound_2.stopped,sound_3.started,sound_3.stopped,sound_4.started,sound_4.stopped,cross.started,cross.stopped,sound_5.started,sound_5.stopped,circle.started,circle.stopped,rhythm_ready.keys,rhythm_ready.rt,rhythm_ready.started,rhythm_ready.stopped,rhytm_ready_txt.started,rhytm_ready_txt.stopped,txt_freq.started,txt_freq.stopped,sound_6.started,sound_6.stopped,sound_7.started,sound_7.stopped,sound_8.started,sound_8.stopped,sound_9.started,sound_9.stopped,cross_2.started,cross_2.stopped,sound_10.started,sound_10.stopped,circle_2.started,circle_2.stopped,freq_ready.keys,freq_ready.rt,freq_ready.started,freq_ready.stopped,freq_ready_txt.started,freq_ready_txt.stopped,txt_freq_2.started,txt_freq_2.stopped,sound_11.started,sound_11.stopped,sound_12.started,sound_12.stopped,sound_13.started,sound_13.stopped,sound_14.started,sound_14.stopped,cross_3.started,cross_3.stopped,sound_15.started,sound_15.stopped,circle_3.started,circle_3.stopped,freq_ready_2.keys,freq_ready_2.rt,freq_ready_2.started,freq_ready_2.stopped,freq_ready_txt_2.started,freq_ready_txt_2.stopped,txt_freq_3.started,txt_freq_3.stopped,sound_16.started,sound_16.stopped,sound_17.started,sound_17.stopped,sound_18.started,sound_18.stopped,sound_19.started,sound_19.stopped,cross_4.started,cross_4.stopped,sound_20.started,sound_20.stopped,circle_4.started,circle_4.stopped,freq_ready_txt_3.started,freq_ready_txt_3.stopped,tStart_text_2.started,tStart_text_2.stopped,this_trial_is.started,this_trial_is.stopped,Frequency,Level,Psychopy_Level,Real trial detection,Cue Delays,Cue Frequencies,Interval,Cue Intensities,Catch trial,cue_visual_cue.started,cue_visual_cue.stopped,probe_visual_cue.started,probe_visual_cue.stopped,feedback.keys,feedback.corr,feedback.rt,feedback.started,feedback.stopped,answer_too_late.keys,answer_too_late.corr,answer_too_early.keys,answer_too_early.corr,Catch trial answer,answer_too_early.rt,Audiogram_time,Audiogram_none,Audiogram_both,Audiogram_frequency,participant,session,Language (english or french),Skip training? (1 for yes),Resume previous experiment,date,expName,psychopyVersion,frameRate,
0,0,0,0,,,,,,,,,22.45179060008377,None,none,1000,30,0.0013930605843148849,False,1,"[0.6215979705735899, 0.7536694691012895, 0.7004834942106504, 0.6569200180987889]","[236.05660487104356, 3515.0934446762444, 1189.9715244326796, 135.53185873957594]",None,"[30, 30, 30, 30]",30.050173500087112,33.05183210002724,33.05183210002724,34.29149800003506,['space'],1,[0.5441996000008658],33.05183210002724,34.92218410002533,None,1,None,1,,,,,,,,,,,,,,,,,,,,,,,,,,,,,,,,,,,,,,,,,,,,,,,,,,,,,,,,,,,,,,,,,,,,,,,,,,,,,,,,,,,,,,,,,,,,,,,,,,,,,,,,,,,,,,,,,,,,,,,,,,,rdzaqd,001,fr,0,0,2022-05-06_14h32.44.031,Cluster,2022.1.1,None,
1,0,1,0,,,,,,,,,,,none,2500,30,0.002716251657462167,False,1,"[0.4869556882277747, 0.6886707519628492, 0.705468876433986, 0.40960100635921354]","[1395.9159155816396, 686.4065826454464, 4201.141896314125, 1754.1654140889252]",None,"[30, 30, 30, 30]",41.68678330001421,44.48173920006957,44.48173920006957,45.706975000095554,['space'],1,[0.6331432999577373],44.48173920006957,46.1117659000447,None,1,None,1,,,,,,,,,,,,,,,,,,,,,,,,,,,,,,,,,,,,,,,,,,,,,,,,,,,,,,,,,,,,,,,,,,,,,,,,,,,,,,,,,,,,,,,,,,,,,,,,,,,,,,,,,,,,,,,,,,,,,,,,,,,rdzaqd,001,fr,0,0,2022-05-06_14h32.44.031,Cluster,2022.1.1,None,
2,0,2,0,,,,,,,,,,,none,6000,30,0.003664122665694519,True,1,"[0.46752575572055866, 0.49822439014928066, 0.5237736725081623, 0.47541834905059865]","[433.43673208628945, 5247.277782538577, 180.92086063617305, 3225.5519669714804]",None,"[30, 30, 30, 30]",49.00125180010218,51.42155230010394,51.42155230010394,52.659633000032045,None,1,,51.42155230010394,53.125321900006384,None,1,None,1,,,,,,,,,,,,,,,,,,,,,,,,,,,,,,,,,,,,,,,,,,,,,,,,,,,,,,,,,,,,,,,,,,,,,,,,,,,,,,,,,,,,,,,,,,,,,,,,,,,,,,,,,,,,,,,,,,,,,,,,,,,rdzaqd,001,fr,0,0,2022-05-06_14h32.44.031,Cluster,2022.1.1,None,
3,0,3,0,,,,,,,,,,,none,440,30,0.0023562289915021436,False,1,"[0.4396096696921106, 0.4095382657258344, 0.7762477097333705, 0.6185720297140658]","[2011.1460746708358, 435.65780901704954, 3597.456181345972, 281.267265880799]",None,"[30, 30, 30, 30]",64.47125649999361,67.0193173000589,67.0193173000589,68.23810030007735,['space'],1,[1.0561065999791026],67.0193173000589,68.861322700046,None,1,None,1,,,,,,,,,,,,,,,,,,,,,,,,,,,,,,,,,,,,,,,,,,,,,,,,,,,,,,,,,,,,,,,,,,,,,,,,,,,,,,,,,,,,,,,,,,,,,,,,,,,,,,,,,,,,,,,,,,,,,,,,,,,rdzaqd,001,fr,0,0,2022-05-06_14h32.44.031,Cluster,2022.1.1,None,
4,0,4,0,,,,,,,,,,,time,250,30,0.005296268625886445,True,0,"[0.4024442796629061, 0.4024442796629061, 0.4024442796629061, 0.4024442796629061]","[2597.0149906350925, 560.5024527965255, 131.2220557297578, 125.10753541702395]",None,"[30, 30, 30, 30]",71.54406570002902,73.69136890000664,73.69136890000664,74.91308289999142,['space'],0,[0.8156379000283778],73.69136890000664,75.31806429999415,None,1,None,1,,,,,,,,,,,,,,,,,,,,,,,,,,,,,,,,,,,,,,,,,,,,,,,,,,,,,,,,,,,,,,,,,,,,,,,,,,,,,,,,,,,,,,,,,,,,,,,,,,,,,,,,,,,,,,,,,,,,,,,,,,,rdzaqd,001,fr,0,0,2022-05-06_14h32.44.031,Cluster,2022.1.1,None,
,,,,,,,,,,,,,,,,,,,,,,,,,,,,,,,,,,,,,78.238700899994,None,space,2.0771211999235675,78.238700899994,None,,,,,,,,,,,,,,,,,,,,,,,,,,,,,,,,,,,,,,,,,,,,,,,,,,,,,,,,,,,,,,,,,,,,,,,,,,,,,,,,,,,,,,,,,,,,,,,,,,,,,,,,,,,,,,,,,,,,,rdzaqd,001,fr,0,0,2022-05-06_14h32.44.031,Cluster,2022.1.1,None,
,,,,,,,,,,,,,,,,,,,,,,,,,,,,,,,,,,,,,,,,,,,80.37700750003569,81.40956220007502,81.86328056670415,None,82.36524826666961,82.58873060008045,82.8704776666748,None,83.35923116672008,None,81.7878346000798,83.58664580003824,83.86785586673456,None,83.58664580003824,84.40883170010056,space,0.004401699989102781,84.56665150006302,None,,,,,,,,,,,,,,,,,,,,,,,,,,,,,,,,,,,,,,,,,,,,,,,,,,,,,,,,,,,,,,,,,,,,,,,,,,,,,,,,,,,,,,,,,,,,,,,,,rdzaqd,001,fr,0,0,2022-05-06_14h32.44.031,Cluster,2022.1.1,None,
,,,,,,,,,,,,,,,,,,,,,,,,,,,,,,,,,,,,,,,,,,,,,,,,,,,,,,,,,,,,,,,84.56665150006302,None,84.63109909999184,85.67494940001052,86.12610486668224,86.35579600010533,86.40310166665974,None,87.12073366676147,None,87.52320296672794,None,86.04640650004148,87.81161630002316,88.09983746667082,None,87.81161630002316,88.64446550002322,space,1.3114749999949709,88.84514069999568,None,,,,,,,,,,,,,,,,,,,,,,,,,,,,,,,,,,,,,,,,,,,,,,,,,,,,,,,,,,,,,,,,,,,,,,,,,,,rdzaqd,001,fr,0,0,2022-05-06_14h32.44.031,Cluster,2022.1.1,None,
,,,,,,,,,,,,,,,,,,,,,,,,,,,,,,,,,,,,,,,,,,,,,,,,,,,,,,,,,,,,,,,,,,,,,,,,,,,,,,,,,,,,,88.84514069999568,None,90.21960599999875,91.24737760005519,91.67800586676846,None,92.18283526675465,None,92.68988836667656,None,93.17796136666244,None,91.6042670001043,93.40559139999095,93.68562836671869,None,93.40559139999095,94.23096000007354,space,1.747368699987419,94.40764109999873,None,,,,,,,,,,,,,,,,,,,,,,,,,,,,,,,,,,,,,,,,,,,,,,,,,,,,,rdzaqd,001,fr,0,0,2022-05-06_14h32.44.031,Cluster,2022.1.1,None,
,,,,0,0,0,0,0,0,0,0,,,time,,,,,,,,,,,,,,,,,,,,,,,,,,,,,,,,,,,,,,,,,,,,,,,,,,,,,,,,,,,,,,,,,,,,,,,,,,,,,,,,,,,,,,,,,,,,,94.40764109999873,None,96.20314930006862,97.23774500004947,97.66324636672313,None,97.97133426677125,None,98.660856066683,None,99.07213896670534,None,97.58433010010049,99.38601510005537,99.66902106668955,None,99.38601510005537,100.22271540004294,100.39766280003823,None,101.42258620006032,None,123.16609780001454,None,920.4956480285158,13.0,0.0001866815052994769,1,"[0.4366010853475833, 0.4366010853475833, 0.4366010853475833, 0.4366010853475833]","[321.3881524391878, 2275.5545763437876, 1156.76706050845, 775.662737309924]",None,"[24.315909985835255, 5.260599938988865, 17.572487412297008, 18.0]",False,124.16127340006642,126.49069710006006,126.49069710006006,127.71216110000387,['space'],1,[0.04005199996754527],2.785779666621238,3.814915966708213,None,1,None,1,,,,,,,rdzaqd,001,fr,0,0,2022-05-06_14h32.44.031,Cluster,2022.1.1,None,
,,,,0,0,0,0,1,0,1,0,,,both,,,,,,,,,,,,,,,,,,,,,,,,,,,,,,,,,,,,,,,,,,,,,,,,,,,,,,,,,,,,,,,,,,,,,,,,,,,,,,,,,,,,,,,,,,,,,,,,,,,,,,,,,,,,,,,,,,,128.0116375000216,None,5689.3468118872015,3.6684808694674773,0.0001942403111396815,1,"[0.4298677150956189, 0.4298677150956189, 0.4298677150956189, 0.4298677150956189]","[3584.063904224485, 4022.9757112075044, 4515.637557100832, 5068.631781766134]",Tone,"[5.734165779963748, 6.493070110718627, 8.0, 9.028398643114974]",False,129.01390360004734,131.32846150000114,131.32846150000114,132.549893300049,['space'],1,[0.010998499928973615],2.761528266593814,3.802915766602382,None,1,None,1,,,,,,,rdzaqd,001,fr,0,0,2022-05-06_14h32.44.031,Cluster,2022.1.1,None,
,,,,0,0,0,0,2,0,2,0,,,both,,,,,,,,,,,,,,,,,,,,,,,,,,,,,,,,,,,,,,,,,,,,,,,,,,,,,,,,,,,,,,,,,,,,,,,,,,,,,,,,,,,,,,,,,,,,,,,,,,,,,,,,,,,,,,,,,,,132.84820150001906,None,353.5533905932738,16.0,0.0005591060055563458,1,"[0.775189591953557, 0.775189591953557, 0.775189591953557, 0.775189591953557]","[561.2310241546867, 500.0000000000001, 445.44935907016975, 396.8502629920499]",Tone,"[19.284917039316973, 21.16096705241678, 23.0, 23.69144843127717]",False,134.41538790008053,137.7792785000056,137.7792785000056,139.01739950000774,['space'],1,[0.21962549991440028],4.124994233367033,5.153824333334342,None,1,None,1,,,,,,,rdzaqd,001,fr,0,0,2022-05-06_14h32.44.031,Cluster,2022.1.1,None,
,,,,0,0,0,0,3,0,3,0,,,none,,,,,,,,,,,,,,,,,,,,,,,,,,,,,,,,,,,,,,,,,,,,,,,,,,,,,,,,,,,,,,,,,,,,,,,,,,,,,,,,,,,,,,,,,,,,,,,,,,,,,,,,,,,,,,,,,,,139.60285990010016,None,,,,,"[0.7528151299551018, 0.7227412715311827, 0.7763731773209825, 0.6117579877376111]","[321.02428465769634, 1090.4064510545857, 2389.266851380864, 245.52482924347115]",None,"[24.315909985835255, 18.586177919475155, 5.645867847083637, 23.493321563251698]",True,140.6182051000651,143.89900259999558,143.89900259999558,145.11476810008753,['space'],0,[0.20529870002064854],3.908163266722113,4.9363259667297825,None,1,None,1,0,,,,,,rdzaqd,001,fr,0,0,2022-05-06_14h32.44.031,Cluster,2022.1.1,None,
,,,,0,0,0,0,4,0,4,0,,,none,,,,,,,,,,,,,,,,,,,,,,,,,,,,,,,,,,,,,,,,,,,,,,,,,,,,,,,,,,,,,,,,,,,,,,,,,,,,,,,,,,,,,,,,,,,,,,,,,,,,,,,,,,,,,,,,,,,145.5849313000217,None,439.432229817825,17.0,0.0005276993487103839,1,"[0.6171945261861388, 0.7643703034840312, 0.691969024011001, 0.6168306826884519]","[2939.7074677908377, 314.77276389578, 1325.523888115247, 242.19153964194447]",None,"[5.868312522825567, 24.12229882851687, 13.921523164452413, 23.493321563251698]",False,146.60033290006686,149.70498570008203,149.70498570008203,150.9380778000923,['space'],1,[0.45910650002770126],3.736769166775048,4.779831366729923,None,1,None,1,,,,,,,rdzaqd,001,fr,0,0,2022-05-06_14h32.44.031,Cluster,2022.1.1,None,
,,,,0,0,0,0,5,0,5,0,,,time,,,,,,,,,,,,,,,,,,,,,,,,,,,,,,,,,,,,,,,,,,,,,,,,,,,,,,,,,,,,,,,,,,,,,,,,,,,,,,,,,,,,,,,,,,,,,,,,,,,,,,,,,,,,,,,,,,,151.41618390008807,None,353.5533905932738,16.0,0.0005591060055563458,1,"[0.5303216753364274, 0.5303216753364274, 0.5303216753364274, 0.5303216753364274]","[3600.172938799975, 695.5943270741209, 435.5287063473878, 450.7478183660237]",None,"[5.734165779963748, 17.900269021903046, 23.0, 23.0]",False,152.42774980003014,155.03735770005733,155.03735770005733,156.25092520006,['space'],1,[0.6941443999530748],3.147566833300516,4.181550533394329,None,1,None,1,,,,,,,rdzaqd,001,fr,0,0,2022-05-06_14h32.44.031,Cluster,2022.1.1,None,
,,,,0,0,0,0,6,0,6,0,,,time,,,,,,,,,,,,,,,,,,,,,,,,,,,,,,,,,,,,,,,,,,,,,,,,,,,,,,,,,,,,,,,,,,,,,,,,,,,,,,,,,,,,,,,,,,,,,,,,,,,,,,,,,,,,,,,,,,,156.63986780005507,None,2442.0450551853,-0.3541321529163633,8.123043218965363e-05,1,"[0.48120665580990174, 0.48120665580990174, 0.48120665580990174, 0.48120665580990174]","[143.40371153223165, 3638.4437280392776, 1478.6296658390957, 127.7608445101558]",None,"[25.657864776754597, 5.96600276660487, 10.0, 25.0]",False,157.6413774000248,160.11498080007732,160.11498080007732,161.3401576000033,['space'],1,[0.4600597999524325],2.95116756670177,3.962981366785243,None,1,None,1,,,,,,,rdzaqd,001,fr,0,0,2022-05-06_14h32.44.031,Cluster,2022.1.1,None,
,,,,0,0,0,0,7,0,7,0,,,none,,,,,,,,,,,,,,,,,,,,,,,,,,,,,,,,,,,,,,,,,,,,,,,,,,,,,,,,,,,,,,,,,,,,,,,,,,,,,,,,,,,,,,,,,,,,,,,,,,,,,,,,,,,,,,,,,,,161.64426540001296,None,189.4645708137998,19.0,0.002707727468763026,1,"[0.7203696898144099, 0.5732749433996791, 0.505113658531936, 0.5767560379767056]","[6965.443506155512, 892.9779345466665, 226.45192863153974, 3512.469491814201]",None,"[6.823176576205113, 18.693979025111148, 23.531253110563384, 5.734165779963748]",False,162.6847562000621,165.51013400009833,165.51013400009833,166.75401070003863,['space'],1,[0.5494225999573246],3.388723666779697,4.411771766724996,None,1,None,1,,,,,,,rdzaqd,001,fr,0,0,2022-05-06_14h32.44.031,Cluster,2022.1.1,None,
,,,,0,0,0,0,8,0,8,0,,,frequency,,,,,,,,,,,,,,,,,,,,,,,,,,,,,,,,,,,,,,,,,,,,,,,,,,,,,,,,,,,,,,,,,,,,,,,,,,,,,,,,,,,,,,,,,,,,,,,,,,,,,,,,,,,,,,,,,,,167.14115520007908,None,,,,,"[0.5246771394499149, 0.7781081984821305, 0.4354540626050472, 0.5547656079930245]","[5282.365801234752, 3525.556197896487, 2353.0264605342036, 1570.4567487188542]",Perfect_5th,"[9.5808718829304, 5.734165779963748, 5.260599938988865, 8.0]",True,168.14050710003357,170.90873550006654,170.90873550006654,172.14601720008068,['space'],0,[0.6797626999905333],3.3204975666012615,4.358225466683507,None,1,None,1,0,,,,,,rdzaqd,001,fr,0,0,2022-05-06_14h32.44.031,Cluster,2022.1.1,None,
,,,,0,0,0,0,9,0,9,0,,,time,,,,,,,,,,,,,,,,,,,,,,,,,,,,,,,,,,,,,,,,,,,,,,,,,,,,,,,,,,,,,,,,,,,,,,,,,,,,,,,,,,,,,,,,,,,,,,,,,,,,,,,,,,,,,,,,,,,172.5334135000594,None,176.7766952966369,20.0,0.003500209769801159,1,"[0.6648714428195889, 0.6648714428195889, 0.6648714428195889, 0.6648714428195889]","[182.26570037029174, 5080.335840325863, 4907.343116436396, 5812.848496417388]",None,"[25.0, 9.028398643114974, 9.0, 9.668480869467476]",False,173.53829870000482,176.56385480007157,176.56385480007157,177.7884478000924,['space'],1,[0.3655231000157073],3.6791666666977108,4.7035360666923225,None,1,None,1,,,,,,,rdzaqd,001,fr,0,0,2022-05-06_14h32.44.031,Cluster,2022.1.1,None,
,,,,0,0,0,0,10,0,10,0,,,none,,,,,,,,,,,,,,,,,,,,,,,,,,,,,,,,,,,,,,,,,,,,,,,,,,,,,,,,,,,,,,,,,,,,,,,,,,,,,,,,,,,,,,,,,,,,,,,,,,,,,,,,,,,,,,,,,,,178.28898410010152,None,5637.771551936099,3.6684808694674773,0.0001971417477140245,1,"[0.6397194403543653, 0.7835584122796296, 0.6081517256786281, 0.4830181056367441]","[1704.9925929435622, 3181.2062807121765, 6384.471221225843, 255.84873916202514]",None,"[6.0, 5.743745439073422, 8.207358387276932, 23.493321563251698]",False,179.28659910010174,182.3360058000544,182.3360058000544,183.57227510004304,['space'],1,[0.41271060006693006],3.5291491666575894,4.5550804666709155,None,1,None,1,,,,,,,rdzaqd,001,fr,0,0,2022-05-06_14h32.44.031,Cluster,2022.1.1,None,
,,,,0,0,0,0,11,0,11,0,,,frequency,,,,,,,,,,,,,,,,,,,,,,,,,,,,,,,,,,,,,,,,,,,,,,,,,,,,,,,,,,,,,,,,,,,,,,,,,,,,,,,,,,,,,,,,,,,,,,,,,,,,,,,,,,,,,,,,,,,183.8875775000779,None,4802.7686012329095,3.0,0.00019659045050352819,1,"[0.7002929627188341, 0.6482087207398883, 0.6162905666077028, 0.4114202123381106]","[7623.919929956959, 6792.14049280324, 6051.109258467499, 5390.925481695834]",Tone,"[5.0, 7.0, 9.204042212469089, 9.5808718829304]",False,184.89381860010326,187.88312900008168,187.88312900008168,189.11048380006105,['space'],1,[0.7251144000329077],3.4176709667081013,4.456819966784678,None,1,None,1,,,,,,,rdzaqd,001,fr,0,0,2022-05-06_14h32.44.031,Cluster,2022.1.1,None,
,,,,0,0,0,0,12,0,12,0,,,frequency,,,,,,,,,,,,,,,,,,,,,,,,,,,,,,,,,,,,,,,,,,,,,,,,,,,,,,,,,,,,,,,,,,,,,,,,,,,,,,,,,,,,,,,,,,,,,,,,,,,,,,,,,,,,,,,,,,,189.3854363000719,None,,,,,"[0.7587135287659699, 0.6264206843142662, 0.7006239447431817, 0.7435082460316403]","[2947.9481956754275, 1967.5193698081018, 1313.1616343356823, 876.430242239163]",Perfect_5th,"[5.868312522825567, 4.741683434789566, 14.0, 18.693979025111148]",True,190.37826390005648,193.48827030009124,193.48827030009124,194.71982670004945,['space'],0,[0.3989668999565765],3.8754524666583166,4.909462666721083,None,1,None,1,0,,,,,,rdzaqd,001,fr,0,0,2022-05-06_14h32.44.031,Cluster,2022.1.1,None,
,,,,0,0,0,0,13,0,13,0,,,time,,,,,,,,,,,,,,,,,,,,,,,,,,,,,,,,,,,,,,,,,,,,,,,,,,,,,,,,,,,,,,,,,,,,,,,,,,,,,,,,,,,,,,,,,,,,,,,,,,,,,,,,,,,,,,,,,,,195.32829440000933,None,7854.518229264711,-2.0,0.0001406986678733194,1,"[0.4741265972577257, 0.4741265972577257, 0.4741265972577257, 0.4741265972577257]","[725.7557450121027, 5865.0818680434895, 2091.7427537720923, 142.56059454691967]",None,"[17.900269021903046, 9.204042212469089, 4.886897647501437, 25.657864776754597]",False,196.33432710007764,198.76881780009717,198.76881780009717,199.99114160006866,['space'],1,[0.40381509996950626],2.9223984667332843,3.964079766650684,None,1,None,1,,,,,,,rdzaqd,001,fr,0,0,2022-05-06_14h32.44.031,Cluster,2022.1.1,None,
,,,,0,0,0,0,14,0,14,0,,,none,,,,,,,,,,,,,,,,,,,,,,,,,,,,,,,,,,,,,,,,,,,,,,,,,,,,,,,,,,,,,,,,,,,,,,,,,,,,,,,,,,,,,,,,,,,,,,,,,,,,,,,,,,,,,,,,,,,200.3366027000593,None,329.87697769322364,13.0,0.00042327263585907523,1,"[0.7308106259343984, 0.7253645069862424, 0.734365966734805, 0.6243166859971079]","[6190.362760064764, 3722.5927701874725, 5243.832638918965, 7758.064531153298]",None,"[9.0, 5.96600276660487, 9.5808718829304, 5.0]",False,201.42372680001426,204.6582634000806,204.6582634000806,205.8890998000279,['space'],1,[0.04503929999191314],3.838310399907641,4.854991799918935,None,1,None,1,,,,,,,rdzaqd,001,fr,0,0,2022-05-06_14h32.44.031,Cluster,2022.1.1,None,
,,,,0,0,0,0,15,0,15,0,,,both,,,,,,,,,,,,,,,,,,,,,,,,,,,,,,,,,,,,,,,,,,,,,,,,,,,,,,,,,,,,,,,,,,,,,,,,,,,,,,,,,,,,,,,,,,,,,,,,,,,,,,,,,,,,,,,,,,,206.3143432000652,None,1118.0066178605064,12.0,0.00019502601892845543,1,"[0.5586039753365055, 0.5586039753365055, 0.5586039753365055, 0.5586039753365055]","[704.3000358821126, 790.5500609006011, 887.3624406495883, 996.0306627243413]",Tone,"[17.900269021903046, 18.300670454568305, 18.693979025111148, 19.027493468965773]",False,207.31694240006618,210.01439990010113,210.01439990010113,211.248573900084,['space'],1,[0.2709227999439463],3.25634636671748,4.297200666624121,None,1,None,1,,,,,,,rdzaqd,001,fr,0,0,2022-05-06_14h32.44.031,Cluster,2022.1.1,None,
,,,,0,0,0,0,16,0,16,0,,,both,,,,,,,,,,,,,,,,,,,,,,,,,,,,,,,,,,,,,,,,,,,,,,,,,,,,,,,,,,,,,,,,,,,,,,,,,,,,,,,,,,,,,,,,,,,,,,,,,,,,,,,,,,,,,,,,,,,211.6548727999907,None,,,,,"[0.6425821950579379, 0.6425821950579379, 0.6425821950579379, 0.6425821950579379]","[4063.5500352846702, 2712.0942682560135, 1810.1057587671214, 1208.1006535325218]",Perfect_5th,"[6.493070110718627, 5.898987380816954, 5.031499804641566, 16.0]",True,212.67392910004128,215.61611500009894,215.61611500009894,216.8377838000888,['space'],0,[0.013634599978104234],3.6135384666267782,4.645843166625127,None,1,None,1,0,,,,,,rdzaqd,001,fr,0,0,2022-05-06_14h32.44.031,Cluster,2022.1.1,None,
,,,,0,0,0,0,17,0,17,0,,,none,,,,,,,,,,,,,,,,,,,,,,,,,,,,,,,,,,,,,,,,,,,,,,,,,,,,,,,,,,,,,,,,,,,,,,,,,,,,,,,,,,,,,,,,,,,,,,,,,,,,,,,,,,,,,,,,,,,217.35082430008333,None,394.35129561259964,18.0,0.0006197414617698789,1,"[0.7738973292501624, 0.6886022381522992, 0.42586728750814773, 0.47718147966291447]","[812.757387984905, 748.3289922476229, 474.26414234112883, 745.7317464978526]",None,"[18.300670454568305, 17.99259359280647, 22.0, 17.99259359280647]",False,218.36776920000557,221.27839750004932,221.27839750004932,222.5137601000024,['space'],1,[0.330576500040479],3.410555966780521,4.452610366744921,None,1,None,1,,,,,,,rdzaqd,001,fr,0,0,2022-05-06_14h32.44.031,Cluster,2022.1.1,None,
,,,,0,0,0,0,18,0,18,0,,,frequency,,,,,,,,,,,,,,,,,,,,,,,,,,,,,,,,,,,,,,,,,,,,,,,,,,,,,,,,,,,,,,,,,,,,,,,,,,,,,,,,,,,,,,,,,,,,,,,,,,,,,,,,,,,,,,,,,,,222.86209050007164,None,189.4645708137998,19.0,0.002707727468763026,0,"[0.6270116876267443, 0.6208196675486409, 0.5895236803009276, 0.6168094310335102]","[477.4208019552084, 378.9291416275996, 300.7562590205292, 238.7104009776042]",Major_3rd,"[22.0, 24.14720206948669, 24.0, 23.531253110563384]",False,223.8812120000366,226.75188110000454,226.75188110000454,227.9911623999942,None,0,,3.497556333313696,4.532042033271864,None,1,None,1,,,,,,,rdzaqd,001,fr,0,0,2022-05-06_14h32.44.031,Cluster,2022.1.1,None,
,,,,0,0,0,0,19,0,19,0,,,none,,,,,,,,,,,,,,,,,,,,,,,,,,,,,,,,,,,,,,,,,,,,,,,,,,,,,,,,,,,,,,,,,,,,,,,,,,,,,,,,,,,,,,,,,,,,,,,,,,,,,,,,,,,,,,,,,,,228.45523970003705,None,2462.2888266898335,3.0,0.00012014968851597731,1,"[0.40953081769579264, 0.7321924132705765, 0.506723593647041, 0.6588803007358035]","[5425.806065582485, 4298.458606224567, 2562.723207842802, 544.4208359431161]",None,"[9.5808718829304, 7.279424043043629, 5.898987380816954, 20.0]",False,229.46470370003954,232.1347659000894,232.1347659000894,233.3458783000242,['space'],1,[0.0878834999166429],3.3412815667688847,4.358046966721304,None,1,None,1,,,,,,,rdzaqd,001,fr,0,0,2022-05-06_14h32.44.031,Cluster,2022.1.1,None,
,,,,1,0,1,0,0,0,0,0,,,none,,,,,,,,,,,,,,,,,,,,,,,,,,,,,,,,,,,,,,,,,,,,,,,,,,,,,,,,,,,,,,,,,,,,,,,,,,,,,,,,,,,,,,,,,,,,,,,,,,,,,,,,,,,,,,,,,,,240.85009980003815,None,1305.9461890330867,8.0,0.00013343207062893952,1,"[0.6028405417784262, 0.5918000166714027, 0.6185118268274052, 0.4835832620254644]","[3836.5089746457465, 4948.0060432412165, 423.9138119665708, 2285.5308677852327]",None,"[6.0, 9.028398643114974, 23.003285969918135, 5.260599938988865]",False,241.81804510008078,244.66598060005344,244.66598060005344,245.89824590005446,['space'],1,[0.4777159000514075],3.316734166815877,4.348183766822331,None,1,None,1,,,,,,,rdzaqd,001,fr,0,0,2022-05-06_14h32.44.031,Cluster,2022.1.1,None,
,,,,1,0,1,0,1,0,1,0,,,none,,,,,,,,,,,,,,,,,,,,,,,,,,,,,,,,,,,,,,,,,,,,,,,,,,,,,,,,,,,,,,,,,,,,,,,,,,,,,,,,,,,,,,,,,,,,,,,,,,,,,,,,,,,,,,,,,,,246.21026710001752,None,,,,,"[0.4560096571256705, 0.471774662053223, 0.7023942062783143, 0.43101261636127775]","[4272.567586015265, 5946.209932725439, 5703.14866916589, 3286.391745988547]",None,"[7.279424043043629, 9.204042212469089, 9.668480869467476, 5.743745439073422]",True,247.2080812000204,249.85983410000335,249.85983410000335,251.0931697000051,['space'],0,[0.08920980000402778],3.083234266610816,4.097698066616431,None,1,None,1,0,,,,,,rdzaqd,001,fr,0,0,2022-05-06_14h32.44.031,Cluster,2022.1.1,None,
,,,,1,0,1,0,2,0,2,0,,,time,,,,,,,,,,,,,,,,,,,,,,,,,,,,,,,,,,,,,,,,,,,,,,,,,,,,,,,,,,,,,,,,,,,,,,,,,,,,,,,,,,,,,,,,,,,,,,,,,,,,,,,,,,,,,,,,,,,251.34760600002483,None,4924.577653379667,1.0,0.0001655611795965586,0,"[0.5862507016035556, 0.5862507016035556, 0.5862507016035556, 0.5862507016035556]","[282.79850239962684, 179.06089231655255, 638.8436612846859, 4217.068346644218]",None,"[23.854540953153773, 25.0, 18.091308165430455, 7.0]",False,252.37207830010448,255.1499477000907,255.1499477000907,256.3932110000169,None,0,,3.3675090667093173,4.399921066709794,None,1,None,1,,,,,,,rdzaqd,001,fr,0,0,2022-05-06_14h32.44.031,Cluster,2022.1.1,None,
,,,,1,0,1,0,3,0,3,0,,,frequency,,,,,,,,,,,,,,,,,,,,,,,,,,,,,,,,,,,,,,,,,,,,,,,,,,,,,,,,,,,,,,,,,,,,,,,,,,,,,,,,,,,,,,,,,,,,,,,,,,,,,,,,,,,,,,,,,,,256.82557410001755,None,193.68377401354732,18.56610200717843,0.0024455090995130087,1,"[0.47763036151892374, 0.529306815104609, 0.53967869363109, 0.5205948686003363]","[488.0525278054998, 387.36754802709464, 307.453826618276, 244.0262639027499]",Major_3rd,"[21.16096705241678, 24.0, 24.12229882851687, 23.493321563251698]",False,257.8298830999993,260.41352560010273,260.41352560010273,261.65001640003175,['space'],1,[0.4010618000756949],3.093075866694562,4.1196925666881725,None,1,None,1,,,,,,,rdzaqd,001,fr,0,0,2022-05-06_14h32.44.031,Cluster,2022.1.1,None,
,,,,1,0,1,0,4,0,4,0,,,none,,,,,,,,,,,,,,,,,,,,,,,,,,,,,,,,,,,,,,,,,,,,,,,,,,,,,,,,,,,,,,,,,,,,,,,,,,,,,,,,,,,,,,,,,,,,,,,,,,,,,,,,,,,,,,,,,,,261.99354490009136,None,8000.0,1.0,0.0002036901389020564,1,"[0.7933273554251501, 0.7929400031733838, 0.7198483051722057, 0.5308531345497516]","[534.1076467426387, 6122.688770803636, 913.5273895718557, 421.43206837225887]",None,"[20.179488091888764, 9.0, 19.0, 23.003285969918135]",False,263.03168140002526,266.35513380006887,266.35513380006887,267.5668355000671,['space'],1,[0.5018527000211179],3.8681907332502306,4.892027033260092,None,1,None,1,,,,,,,rdzaqd,001,fr,0,0,2022-05-06_14h32.44.031,Cluster,2022.1.1,None,
,,,,1,0,1,0,5,0,5,0,,,time,,,,,,,,,,,,,,,,,,,,,,,,,,,,,,,,,,,,,,,,,,,,,,,,,,,,,,,,,,,,,,,,,,,,,,,,,,,,,,,,,,,,,,,,,,,,,,,,,,,,,,,,,,,,,,,,,,,267.96542650007177,None,,,,,"[0.6547904435033249, 0.6547904435033249, 0.6547904435033249, 0.6547904435033249]","[1006.9374645546793, 4021.722694127518, 1656.403280377905, 339.8677119170798]",None,"[19.0, 6.493070110718627, 7.0, 24.315909985835255]",True,268.95954360009637,271.97047970001586,271.97047970001586,273.2129452000372,None,1,,3.6524582668207586,4.665231266757473,None,1,None,1,0,,,,,,rdzaqd,001,fr,0,0,2022-05-06_14h32.44.031,Cluster,2022.1.1,None,
,,,,1,0,1,0,6,0,6,0,,,both,,,,,,,,,,,,,,,,,,,,,,,,,,,,,,,,,,,,,,,,,,,,,,,,,,,,,,,,,,,,,,,,,,,,,,,,,,,,,,,,,,,,,,,,,,,,,,,,,,,,,,,,,,,,,,,,,,,273.65916000003926,None,176.7766952966369,20.0,0.003500209769801159,1,"[0.7846204323157876, 0.7846204323157876, 0.7846204323157876, 0.7846204323157876]","[280.61551207734334, 250.00000000000006, 222.72467953508487, 198.42513149602496]",Tone,"[23.854540953153773, 23.493321563251698, 23.744682568266967, 24.112279518464348]",False,274.66045680001844,278.04026810009964,278.04026810009964,279.288050900097,['space'],1,[0.13508200005162507],4.164930166793056,5.178294466808438,None,1,None,1,,,,,,,rdzaqd,001,fr,0,0,2022-05-06_14h32.44.031,Cluster,2022.1.1,None,
,,,,1,0,1,0,7,0,7,0,,,frequency,,,,,,,,,,,,,,,,,,,,,,,,,,,,,,,,,,,,,,,,,,,,,,,,,,,,,,,,,,,,,,,,,,,,,,,,,,,,,,,,,,,,,,,,,,,,,,,,,,,,,,,,,,,,,,,,,,,279.8864804999903,None,329.87697769322364,12.0,0.00037724213379574414,0,"[0.4439906165042944, 0.5436584751120692, 0.5927432373545254, 0.6533787238471405]","[130.9117653525784, 164.93848884661188, 207.80947403569704, 261.82353070515677]",Major_3rd,"[25.39872109292277, 25.423428007499954, 24.0, 23.618090464956765]",False,280.9110683000181,283.5098671000451,283.5098671000451,284.73110299999826,None,0,,3.261028333217837,4.276723133283667,None,1,None,1,,,,,,,rdzaqd,001,fr,0,0,2022-05-06_14h32.44.031,Cluster,2022.1.1,None,
,,,,1,0,1,0,8,0,8,0,,,frequency,,,,,,,,,,,,,,,,,,,,,,,,,,,,,,,,,,,,,,,,,,,,,,,,,,,,,,,,,,,,,,,,,,,,,,,,,,,,,,,,,,,,,,,,,,,,,,,,,,,,,,,,,,,,,,,,,,,285.23530580010265,None,289.64183408569124,17.854540953153773,0.0009802156884378486,1,"[0.5524493214477175, 0.7667759276833552, 0.7619452504700661, 0.43733412646390324]","[182.46292184736038, 204.8077049973012, 229.8888760608125, 258.0415387067592]",Tone,"[25.0, 24.112279518464348, 23.531253110563384, 23.493321563251698]",False,286.22863660007715,289.33779630006757,289.33779630006757,290.56529310008045,['space'],1,[0.37058029999025166],3.5418658667476848,4.580887466785498,None,1,None,1,,,,,,,rdzaqd,001,fr,0,0,2022-05-06_14h32.44.031,Cluster,2022.1.1,None,
,,,,1,0,1,0,9,0,9,0,,,frequency,,,,,,,,,,,,,,,,,,,,,,,,,,,,,,,,,,,,,,,,,,,,,,,,,,,,,,,,,,,,,,,,,,,,,,,,,,,,,,,,,,,,,,,,,,,,,,,,,,,,,,,,,,,,,,,,,,,290.8591486000223,None,,,,,"[0.6813873622865662, 0.4908872822614956, 0.44395185250347535, 0.6503213680503692]","[2807.9081836637215, 2228.638202288954, 1768.8713133850013, 1403.9540918318608]",Major_3rd,"[5.960003624663175, 5.0, 5.890979483582172, 12.0]",True,291.8556724000955,294.5049859000137,294.5049859000137,295.75063530006446,None,1,,3.304626666707918,4.3399495667545125,None,1,None,1,0,,,,,,rdzaqd,001,fr,0,0,2022-05-06_14h32.44.031,Cluster,2022.1.1,None,
,,,,1,0,1,0,10,0,10,0,,,frequency,,,,,,,,,,,,,,,,,,,,,,,,,,,,,,,,,,,,,,,,,,,,,,,,,,,,,,,,,,,,,,,,,,,,,,,,,,,,,,,,,,,,,,,,,,,,,,,,,,,,,,,,,,,,,,,,,,,296.2347338000545,None,2462.2888266898335,3.0,0.00012014968851597731,0,"[0.7242021285325129, 0.45119430663464677, 0.5978810487562582, 0.7173453240628052]","[6204.579047334941, 4924.577653379667, 3908.6398737369855, 3102.2895236674703]",Major_3rd,"[9.0, 9.028398643114974, 6.493070110718627, 5.868312522825567]",False,297.2616730000591,300.0383622000227,300.0383622000227,301.2720044000307,None,0,,3.527370833326131,4.5621104332385585,None,1,None,1,,,,,,,rdzaqd,001,fr,0,0,2022-05-06_14h32.44.031,Cluster,2022.1.1,None,
,,,,1,0,1,0,11,0,11,0,,,none,,,,,,,,,,,,,,,,,,,,,,,,,,,,,,,,,,,,,,,,,,,,,,,,,,,,,,,,,,,,,,,,,,,,,,,,,,,,,,,,,,,,,,,,,,,,,,,,,,,,,,,,,,,,,,,,,,,301.8619972000597,None,516.3696349604205,15.0,0.0003874027242255614,1,"[0.4551600285553059, 0.657802832153197, 0.5507004097901538, 0.5678910313162177]","[275.9383866223878, 815.5257413846884, 4387.684783468005, 271.42473566761305]",None,"[23.618090464956765, 18.300670454568305, 7.279424043043629, 23.618090464956765]",False,302.8778114001034,305.55564420006704,305.55564420006704,306.77874980005436,['space'],1,[0.061598500004038215],3.249946966767311,4.284171466715634,None,1,None,1,,,,,,,rdzaqd,001,fr,0,0,2022-05-06_14h32.44.031,Cluster,2022.1.1,None,
,,,,1,0,1,0,12,0,12,0,,,none,,,,,,,,,,,,,,,,,,,,,,,,,,,,,,,,,,,,,,,,,,,,,,,,,,,,,,,,,,,,,,,,,,,,,,,,,,,,,,,,,,,,,,,,,,,,,,,,,,,,,,,,,,,,,,,,,,,307.2027723999927,None,3732.1319661472303,0.0,7.923801780976663e-05,1,"[0.5533971482425293, 0.4259357654518243, 0.5189352227814245, 0.49203493551860944]","[293.1794705734225, 250.45537091452167, 5566.144869426367, 3798.152435429784]",None,"[24.0, 23.493321563251698, 9.668480869467476, 6.0]",False,309.30296220001765,311.8333241000073,311.8333241000073,313.06728120008484,['space'],1,[0.42983659997116774],3.0124745666980743,4.065037866705097,None,1,None,1,,,,,,,rdzaqd,001,fr,0,0,2022-05-06_14h32.44.031,Cluster,2022.1.1,None,
,,,,1,0,1,0,13,0,13,0,,,none,,,,,,,,,,,,,,,,,,,,,,,,,,,,,,,,,,,,,,,,,,,,,,,,,,,,,,,,,,,,,,,,,,,,,,,,,,,,,,,,,,,,,,,,,,,,,,,,,,,,,,,,,,,,,,,,,,,313.40503860008903,None,7349.9823944773225,-0.7017650832535708,0.00014927442036292334,1,"[0.4247148898040464, 0.5922137836317944, 0.6695814479314901, 0.5689934165330526]","[378.8989990466093, 3624.0397295161683, 2665.330357680176, 524.2739748521064]",None,"[24.14720206948669, 5.96600276660487, 5.898987380816954, 20.179488091888764]",False,314.40666750003584,317.12370390002616,317.12370390002616,318.37575950007886,['space'],1,[0.22645770001690835],3.298157066688873,4.3330961666069925,None,1,None,1,,,,,,,rdzaqd,001,fr,0,0,2022-05-06_14h32.44.031,Cluster,2022.1.1,None,
,,,,1,0,1,0,14,0,14,0,,,time,,,,,,,,,,,,,,,,,,,,,,,,,,,,,,,,,,,,,,,,,,,,,,,,,,,,,,,,,,,,,,,,,,,,,,,,,,,,,,,,,,,,,,,,,,,,,,,,,,,,,,,,,,,,,,,,,,,318.79279269999824,None,153.81234241544968,19.65234502824306,0.004479172759351414,1,"[0.6181109653322052, 0.6181109653322052, 0.6181109653322052, 0.6181109653322052]","[559.2496201226692, 5182.951336064952, 314.01873609876424, 186.6379982848784]",None,"[19.284917039316973, 9.5808718829304, 24.12229882851687, 24.56610200717843]",False,319.793444900075,322.6781300000148,322.6781300000148,323.9083977000555,['space'],1,[0.016897200024686754],3.5145843668142334,4.55180656677112,None,1,None,1,,,,,,,rdzaqd,001,fr,0,0,2022-05-06_14h32.44.031,Cluster,2022.1.1,None,
,,,,1,0,1,0,15,0,15,0,,,none,,,,,,,,,,,,,,,,,,,,,,,,,,,,,,,,,,,,,,,,,,,,,,,,,,,,,,,,,,,,,,,,,,,,,,,,,,,,,,,,,,,,,,,,,,,,,,,,,,,,,,,,,,,,,,,,,,,324.3970270000864,None,125.0,20.0,0.00722719885372964,0,"[0.6085367517874405, 0.6963095942711104, 0.6516814180508519, 0.7426743299617741]","[3682.581437922599, 835.0100326176956, 169.20299023084968, 133.60665615147124]",None,"[5.96600276660487, 18.300670454568305, 25.423428007499954, 25.39872109292277]",False,325.41380470001604,328.42031350010075,328.42031350010075,329.6464114000555,None,0,,3.7242469667689875,4.742349366773851,None,1,None,1,,,,,,,rdzaqd,001,fr,0,0,2022-05-06_14h32.44.031,Cluster,2022.1.1,None,
,,,,1,0,1,0,16,0,16,0,,,time,,,,,,,,,,,,,,,,,,,,,,,,,,,,,,,,,,,,,,,,,,,,,,,,,,,,,,,,,,,,,,,,,,,,,,,,,,,,,,,,,,,,,,,,,,,,,,,,,,,,,,,,,,,,,,,,,,,330.2314736000262,None,1414.213562373095,2.0,6.349055446025293e-05,0,"[0.6564428107312161, 0.6564428107312161, 0.6564428107312161, 0.6564428107312161]","[5099.33855322419, 1694.4357081154658, 729.9502644066328, 7551.242479123104]",None,"[9.028398643114974, 6.0, 17.900269021903046, 5.0]",False,331.2559768999927,334.2524928000057,334.2524928000057,335.49498940003105,None,0,,3.65743926668074,4.688270666752942,None,1,['space'],0,,[0.5267219999805093],,,,,rdzaqd,001,fr,0,0,2022-05-06_14h32.44.031,Cluster,2022.1.1,None,
,,,,1,0,1,0,17,0,17,0,,,both,,,,,,,,,,,,,,,,,,,,,,,,,,,,,,,,,,,,,,,,,,,,,,,,,,,,,,,,,,,,,,,,,,,,,,,,,,,,,,,,,,,,,,,,,,,,,,,,,,,,,,,,,,,,,,,,,,,336.0089383000741,None,159.8751134582214,19.423428007499954,0.0038575745789152295,0,"[0.6429470119321371, 0.6429470119321371, 0.6429470119321371, 0.6429470119321371]","[253.7859232871159, 226.09755373855404, 201.43002080034427, 179.4537473260086]",Tone,"[23.493321563251698, 23.531253110563384, 24.112279518464348, 25.0]",False,337.01153680006973,339.9580853000516,339.9580853000516,341.19409950007685,None,0,,3.6176885667955503,4.6504977667937055,None,1,['space'],0,,[0.5170711999526247],,,,,rdzaqd,001,fr,0,0,2022-05-06_14h32.44.031,Cluster,2022.1.1,None,
,,,,1,0,1,0,18,0,18,0,,,time,,,,,,,,,,,,,,,,,,,,,,,,,,,,,,,,,,,,,,,,,,,,,,,,,,,,,,,,,,,,,,,,,,,,,,,,,,,,,,,,,,,,,,,,,,,,,,,,,,,,,,,,,,,,,,,,,,,341.71292459999677,None,,,,,"[0.5420100445768637, 0.5420100445768637, 0.5420100445768637, 0.5420100445768637]","[1050.9602551274133, 3663.637471304368, 3672.9599112433584, 1456.2444681302043]",None,"[18.586177919475155, 5.96600276660487, 5.96600276660487, 11.0]",True,342.71376290009357,345.3691797000356,345.3691797000356,346.6013033000054,None,1,,3.1917252666316926,4.225020366720855,None,1,None,1,0,,,,,,rdzaqd,001,fr,0,0,2022-05-06_14h32.44.031,Cluster,2022.1.1,None,
,,,,1,0,1,0,19,0,19,0,,,time,,,,,,,,,,,,,,,,,,,,,,,,,,,,,,,,,,,,,,,,,,,,,,,,,,,,,,,,,,,,,,,,,,,,,,,,,,,,,,,,,,,,,,,,,,,,,,,,,,,,,,,,,,,,,,,,,,,346.98258680000436,None,584.868982450291,13.0,0.00025999265438178553,1,"[0.6363592972696593, 0.6363592972696593, 0.6363592972696593, 0.6363592972696593]","[554.4782089263422, 669.1881677542799, 2086.2252934474145, 2370.114663917067]",None,"[20.0, 18.091308165430455, 4.886897647501437, 5.260599938988865]",False,347.9900398000609,350.944850900094,350.944850900094,352.1706145000644,['space'],1,[0.13378590007778257],3.5857002667617053,4.618553166743368,None,1,None,1,,,,,,,rdzaqd,001,fr,0,0,2022-05-06_14h32.44.031,Cluster,2022.1.1,None,
,,,,2,0,2,0,0,0,0,0,,,none,,,,,,,,,,,,,,,,,,,,,,,,,,,,,,,,,,,,,,,,,,,,,,,,,,,,,,,,,,,,,,,,,,,,,,,,,,,,,,,,,,,,,,,,,,,,,,,,,,,,,,,,,,,,,,,,,,,355.8130910000764,None,182.39814112350413,19.0,0.0029370978355659806,1,"[0.4778543786420157, 0.6822267591269906, 0.5618730585587894, 0.43474362942340994]","[3440.9758322303487, 1584.1296607759107, 5272.614840808987, 841.2445563269804]",None,"[5.734165779963748, 8.0, 9.5808718829304, 18.300670454568305]",False,356.8003365000477,359.52874390000943,359.52874390000943,360.74778700002935,['space'],1,[0.4416608000174165],3.186021566740237,4.213762366678566,None,1,None,1,,,,,,,rdzaqd,001,fr,0,0,2022-05-06_14h32.44.031,Cluster,2022.1.1,None,
,,,,2,0,2,0,1,0,1,0,,,time,,,,,,,,,,,,,,,,,,,,,,,,,,,,,,,,,,,,,,,,,,,,,,,,,,,,,,,,,,,,,,,,,,,,,,,,,,,,,,,,,,,,,,,,,,,,,,,,,,,,,,,,,,,,,,,,,,,361.0630012000911,None,3249.0095854249403,0.0,7.075723770535575e-05,1,"[0.448280613423037, 0.448280613423037, 0.448280613423037, 0.448280613423037]","[1062.098024724822, 4568.048161522936, 288.9907071021168, 2513.1579839347037]",None,"[18.586177919475155, 8.190404381033082, 23.854540953153773, 5.645867847083637]",False,362.07250640005805,364.4369407000486,364.4369407000486,365.67209900007583,['space'],1,[0.33076669997535646],2.794293866609223,3.821945166680962,None,1,None,1,,,,,,,rdzaqd,001,fr,0,0,2022-05-06_14h32.44.031,Cluster,2022.1.1,None,
,,,,2,0,2,0,2,0,2,0,,,frequency,,,,,,,,,,,,,,,,,,,,,,,,,,,,,,,,,,,,,,,,,,,,,,,,,,,,,,,,,,,,,,,,,,,,,,,,,,,,,,,,,,,,,,,,,,,,,,,,,,,,,,,,,,,,,,,,,,,365.94773040001746,None,,,,,"[0.5083674566977553, 0.5000516361860674, 0.566322321586922, 0.5977557190338786]","[321.72369178473406, 255.3522633910898, 202.67322576473833, 160.861845892367]",Major_3rd,"[24.315909985835255, 23.493321563251698, 24.112279518464348, 25.423428007499954]",True,366.9378167000832,369.54018400004134,369.54018400004134,370.75468900008127,['space'],0,[0.1442811000160873],3.2027630667435005,4.232276666676626,None,1,None,1,0,,,,,,rdzaqd,001,fr,0,0,2022-05-06_14h32.44.031,Cluster,2022.1.1,None,
,,,,2,0,2,0,3,0,3,0,,,both,,,,,,,,,,,,,,,,,,,,,,,,,,,,,,,,,,,,,,,,,,,,,,,,,,,,,,,,,,,,,,,,,,,,,,,,,,,,,,,,,,,,,,,,,,,,,,,,,,,,,,,,,,,,,,,,,,,371.20902670000214,None,2462.2888266898335,3.0,0.00012014968851597731,0,"[0.6901674268113137, 0.6901674268113137, 0.6901674268113137, 0.6901674268113137]","[3908.639873736986, 3482.202253184498, 3102.289523667471, 2763.8257599355534]",Tone,"[6.493070110718627, 5.734165779963748, 5.868312522825567, 5.960003624663175]",False,372.21168100007344,375.3229901000159,375.3229901000159,376.54706560005434,None,0,,3.777468566666357,4.830369966570288,None,1,None,1,,,,,,,rdzaqd,001,fr,0,0,2022-05-06_14h32.44.031,Cluster,2022.1.1,None,
,,,,2,0,2,0,4,0,4,0,,,both,,,,,,,,,,,,,,,,,,,,,,,,,,,,,,,,,,,,,,,,,,,,,,,,,,,,,,,,,,,,,,,,,,,,,,,,,,,,,,,,,,,,,,,,,,,,,,,,,,,,,,,,,,,,,,,,,,,377.0899915000191,None,824.2778822418358,12.300670454568307,0.00016096987210521154,0,"[0.5155548296968814, 0.5155548296968814, 0.5155548296968814, 0.5155548296968814]","[327.1148943462025, 412.13894112091793, 519.2625273996282, 654.2297886924049]",Major_3rd,"[24.315909985835255, 23.69144843127717, 21.0, 18.091308165430455]",False,378.1099835000932,380.68463989999145,380.68463989999145,381.90022360009607,None,0,,3.0836412666831166,4.114227266632952,None,1,None,1,,,,,,,rdzaqd,001,fr,0,0,2022-05-06_14h32.44.031,Cluster,2022.1.1,None,
,,,,2,0,2,0,5,0,5,0,,,both,,,,,,,,,,,,,,,,,,,,,,,,,,,,,,,,,,,,,,,,,,,,,,,,,,,,,,,,,,,,,,,,,,,,,,,,,,,,,,,,,,,,,,,,,,,,,,,,,,,,,,,,,,,,,,,,,,,382.2645269000204,None,8000.0,3.0,0.0002564306919956826,1,"[0.41085508577658025, 0.41085508577658025, 0.41085508577658025, 0.41085508577658025]","[3174.8021039364003, 4000.0000000000014, 5039.684199579494, 6349.604207872799]",Major_3rd,"[5.743745439073422, 6.493070110718627, 9.028398643114974, 8.207358387276932]",False,384.060563200037,386.3145756000886,386.3145756000886,387.5277270000661,['space'],1,[0.414753400022164],2.666891033295542,3.6988021333236247,None,1,None,1,,,,,,,rdzaqd,001,fr,0,0,2022-05-06_14h32.44.031,Cluster,2022.1.1,None,
,,,,2,0,2,0,6,0,6,0,,,time,,,,,,,,,,,,,,,,,,,,,,,,,,,,,,,,,,,,,,,,,,,,,,,,,,,,,,,,,,,,,,,,,,,,,,,,,,,,,,,,,,,,,,,,,,,,,,,,,,,,,,,,,,,,,,,,,,,387.79869760002475,None,,,,,"[0.7714989304072082, 0.7714989304072082, 0.7714989304072082, 0.7714989304072082]","[916.8057391482781, 145.77257840111716, 2523.579419374292, 676.943112934227]",None,"[19.0, 25.657864776754597, 5.645867847083637, 18.0]",True,388.7944254000904,392.12545550009236,392.12545550009236,393.3364172000438,None,1,,4.087295800098218,5.10413360001985,None,1,None,1,0,,,,,,rdzaqd,001,fr,0,0,2022-05-06_14h32.44.031,Cluster,2022.1.1,None,
,,,,2,0,2,0,7,0,7,0,,,none,,,,,,,,,,,,,,,,,,,,,,,,,,,,,,,,,,,,,,,,,,,,,,,,,,,,,,,,,,,,,,,,,,,,,,,,,,,,,,,,,,,,,,,,,,,,,,,,,,,,,,,,,,,,,,,,,,,393.9615251000505,None,1741.101126592249,0.0,6.312169477569904e-05,1,"[0.4005479364679536, 0.5454010784094, 0.5216404183765244, 0.4633840336324698]","[853.6802787432712, 5487.144099103572, 3374.528145597334, 287.44918938833234]",None,"[18.693979025111148, 9.668480869467476, 5.734165779963748, 23.854540953153773]",False,394.9686207000632,397.4703047000803,397.4703047000803,398.70773980009835,['space'],1,[0.11175789998378605],2.9458183334209025,3.980034033418633,None,1,None,1,,,,,,,rdzaqd,001,fr,0,0,2022-05-06_14h32.44.031,Cluster,2022.1.1,None,
,,,,2,0,2,0,8,0,8,0,,,both,,,,,,,,,,,,,,,,,,,,,,,,,,,,,,,,,,,,,,,,,,,,,,,,,,,,,,,,,,,,,,,,,,,,,,,,,,,,,,,,,,,,,,,,,,,,,,,,,,,,,,,,,,,,,,,,,,,398.988024600083,None,4952.696823282763,3.028398643114974,0.00021185362975608167,0,"[0.42628078621864235, 0.42628078621864235, 0.42628078621864235, 0.42628078621864235]","[3120.003490700711, 3502.085508904314, 3930.958073679309, 4412.351251200344]",Tone,"[5.868312522825567, 5.734165779963748, 6.493070110718627, 8.0]",False,400.00309270003345,402.3001393000595,402.3001393000595,403.5247774000745,None,0,,2.752100066631101,3.7906096667284146,None,1,None,1,,,,,,,rdzaqd,001,fr,0,0,2022-05-06_14h32.44.031,Cluster,2022.1.1,None,
,,,,2,0,2,0,9,0,9,0,,,both,,,,,,,,,,,,,,,,,,,,,,,,,,,,,,,,,,,,,,,,,,,,,,,,,,,,,,,,,,,,,,,,,,,,,,,,,,,,,,,,,,,,,,,,,,,,,,,,,,,,,,,,,,,,,,,,,,,403.8380368000362,None,574.3491774985172,17.0,0.0004236786401426486,0,"[0.6239325385791609, 0.6239325385791609, 0.6239325385791609, 0.6239325385791609]","[1447.2692374403773, 1148.6983549970344, 911.7224885582164, 723.6346187201887]",Major_3rd,"[11.0, 17.572487412297008, 19.0, 17.900269021903046]",False,405.6770700000925,408.5711050000973,408.5711050000973,409.7852748000296,None,0,,3.5131856999360025,4.5440566999604926,None,1,None,1,,,,,,,rdzaqd,001,fr,0,0,2022-05-06_14h32.44.031,Cluster,2022.1.1,None,
,,,,2,0,2,0,10,0,10,0,,,time,,,,,,,,,,,,,,,,,,,,,,,,,,,,,,,,,,,,,,,,,,,,,,,,,,,,,,,,,,,,,,,,,,,,,,,,,,,,,,,,,,,,,,,,,,,,,,,,,,,,,,,,,,,,,,,,,,,410.2634682999924,None,5095.755910806692,3.028398643114974,0.00021146193938594533,0,"[0.6425226930424988, 0.6425226930424988, 0.6425226930424988, 0.6425226930424988]","[7873.18005206384, 135.9237966463945, 3378.835821202175, 921.5564458110795]",None,"[4.0, 25.39872109292277, 5.734165779963748, 19.0]",False,411.2776230000891,414.24494410003535,414.24494410003535,415.47139230009634,None,0,,3.5983795667998493,4.62631986674387,None,1,None,1,,,,,,,rdzaqd,001,fr,0,0,2022-05-06_14h32.44.031,Cluster,2022.1.1,None,
,,,,2,0,2,0,11,0,11,0,,,frequency,,,,,,,,,,,,,,,,,,,,,,,,,,,,,,,,,,,,,,,,,,,,,,,,,,,,,,,,,,,,,,,,,,,,,,,,,,,,,,,,,,,,,,,,,,,,,,,,,,,,,,,,,,,,,,,,,,,415.956580500002,None,,,,,"[0.6535561313876892, 0.6760214149125365, 0.44094584074817494, 0.7759312761013909]","[484.71036783316777, 544.0689923148071, 610.6967955352949, 685.4839760125175]",Tone,"[22.0, 20.0, 18.56335264732024, 18.0]",True,416.95952190004755,419.7469867999898,419.7469867999898,420.9610542000737,['space'],0,[0.006459000054746866],3.5908407667884603,4.620525166741572,None,1,None,1,0,,,,,,rdzaqd,001,fr,0,0,2022-05-06_14h32.44.031,Cluster,2022.1.1,None,
,,,,2,0,2,0,12,0,12,0,,,time,,,,,,,,,,,,,,,,,,,,,,,,,,,,,,,,,,,,,,,,,,,,,,,,,,,,,,,,,,,,,,,,,,,,,,,,,,,,,,,,,,,,,,,,,,,,,,,,,,,,,,,,,,,,,,,,,,,421.62687100004405,None,329.87697769322364,12.0,0.00037724213379574414,0,"[0.7762596938889506, 0.7762596938889506, 0.7762596938889506, 0.7762596938889506]","[6402.260135185081, 961.8995075751786, 354.92317050591447, 2653.4727934536454]",None,"[8.207358387276932, 19.004327458869362, 24.34575158242586, 5.898987380816954]",False,422.7240611000452,426.08574330003466,426.08574330003466,427.31468360009603,None,0,,4.145632199943066,5.1865999000146985,None,1,['space'],0,,[0.6455010999925435],,,,,rdzaqd,001,fr,0,0,2022-05-06_14h32.44.031,Cluster,2022.1.1,None,
,,,,2,0,2,0,13,0,13,0,,,time,,,,,,,,,,,,,,,,,,,,,,,,,,,,,,,,,,,,,,,,,,,,,,,,,,,,,,,,,,,,,,,,,,,,,,,,,,,,,,,,,,,,,,,,,,,,,,,,,,,,,,,,,,,,,,,,,,,427.94287030003034,None,6408.300033193632,2.207358387276932,0.00017185735638211482,1,"[0.4529141332641336, 0.4529141332641336, 0.4529141332641336, 0.4529141332641336]","[1180.3622352374232, 1471.2958938412585, 1149.9379760680883, 1475.959707901024]",None,"[17.0, 10.0, 17.572487412297008, 10.0]",False,428.9679935000604,431.3467359000351,431.3467359000351,432.5647546000546,['space'],1,[0.1745082000270486],2.8536976667819545,3.868862366769463,None,1,None,1,,,,,,,rdzaqd,001,fr,0,0,2022-05-06_14h32.44.031,Cluster,2022.1.1,None,
,,,,2,0,2,0,14,0,14,0,,,none,,,,,,,,,,,,,,,,,,,,,,,,,,,,,,,,,,,,,,,,,,,,,,,,,,,,,,,,,,,,,,,,,,,,,,,,,,,,,,,,,,,,,,,,,,,,,,,,,,,,,,,,,,,,,,,,,,,432.8793764000293,None,2549.0123899453374,-0.3541321529163633,7.953971412193929e-05,0,"[0.6379427092527692, 0.5714276789075732, 0.4428561348697328, 0.7693624194953655]","[257.6758711293857, 255.67403881778392, 334.49476330107717, 5594.530867278474]",None,"[23.493321563251698, 23.493321563251698, 24.315909985835255, 9.668480869467476]",False,433.9058710000245,436.57730710005853,436.57730710005853,437.8025088000577,None,0,,3.447652866714634,4.484709166688845,None,1,None,1,,,,,,,rdzaqd,001,fr,0,0,2022-05-06_14h32.44.031,Cluster,2022.1.1,None,
,,,,2,0,2,0,15,0,15,0,,,frequency,,,,,,,,,,,,,,,,,,,,,,,,,,,,,,,,,,,,,,,,,,,,,,,,,,,,,,,,,,,,,,,,,,,,,,,,,,,,,,,,,,,,,,,,,,,,,,,,,,,,,,,,,,,,,,,,,,,438.4384089000523,None,,,,,"[0.4564769644315833, 0.6938564947402297, 0.7444758410588952, 0.46050346495403577]","[1021.1156534977687, 810.4600312717768, 643.2625531094991, 510.5578267488843]",Major_3rd,"[19.0, 18.300670454568305, 18.091308165430455, 21.0]",True,439.44833070004825,442.374756300007,442.374756300007,443.5884909000015,None,1,,3.390912066679448,4.405498566688038,None,1,None,1,0,,,,,,rdzaqd,001,fr,0,0,2022-05-06_14h32.44.031,Cluster,2022.1.1,None,
,,,,2,0,2,0,16,0,16,0,,,frequency,,,,,,,,,,,,,,,,,,,,,,,,,,,,,,,,,,,,,,,,,,,,,,,,,,,,,,,,,,,,,,,,,,,,,,,,,,,,,,,,,,,,,,,,,,,,,,,,,,,,,,,,,,,,,,,,,,,443.8882171000587,None,377.10023409305825,18.14720206948669,0.0006665161434410199,0,"[0.5587700366729249, 0.6499444879149303, 0.6108762867595334, 0.6760677268697076]","[1900.4660914165136, 1268.408940160757, 846.5614023560764, 565.0119494334824]",Perfect_5th,"[5.0, 15.0, 18.693979025111148, 19.284917039316973]",False,444.9174001000356,447.7672330000205,447.7672330000205,448.9987170000095,None,0,,3.5133144666906446,4.553440566640347,None,1,None,1,,,,,,,rdzaqd,001,fr,0,0,2022-05-06_14h32.44.031,Cluster,2022.1.1,None,
,,,,2,0,2,0,17,0,17,0,,,none,,,,,,,,,,,,,,,,,,,,,,,,,,,,,,,,,,,,,,,,,,,,,,,,,,,,,,,,,,,,,,,,,,,,,,,,,,,,,,,,,,,,,,,,,,,,,,,,,,,,,,,,,,,,,,,,,,,449.5179823000217,None,1231.1444133449168,1.0,6.027544809431535e-05,1,"[0.6978036829912391, 0.6024807790370343, 0.7569396278908324, 0.4071103287551935]","[6142.192197925088, 948.0566135303391, 2439.3147402168365, 185.43951343169593]",None,"[9.0, 19.004327458869362, 5.645867847083637, 24.56610200717843]",False,450.5431618000148,453.63933900010306,453.63933900010306,454.87397610000335,['space'],1,[0.09198379993904382],3.489862233400345,4.507728333352134,None,1,None,1,,,,,,,rdzaqd,001,fr,0,0,2022-05-06_14h32.44.031,Cluster,2022.1.1,None,
,,,,2,0,2,0,18,0,18,0,,,both,,,,,,,,,,,,,,,,,,,,,,,,,,,,,,,,,,,,,,,,,,,,,,,,,,,,,,,,,,,,,,,,,,,,,,,,,,,,,,,,,,,,,,,,,,,,,,,,,,,,,,,,,,,,,,,,,,,455.0923596000066,None,324.8236844364617,18.315909985835255,0.000791383510884316,1,"[0.44181908154541, 0.44181908154541, 0.44181908154541, 0.44181908154541]","[204.62609876295386, 229.68502995502124, 257.81272918931285, 289.3850040860658]",Tone,"[24.112279518464348, 23.531253110563384, 23.493321563251698, 23.854540953153773]",False,456.0940410000039,458.43624529999215,458.43624529999215,459.657445800025,['space'],1,[0.4600345999933779],2.7852667667903006,3.826918566832319,None,1,None,1,,,,,,,rdzaqd,001,fr,0,0,2022-05-06_14h32.44.031,Cluster,2022.1.1,None,
,,,,2,0,2,0,19,0,19,0,,,both,,,,,,,,,,,,,,,,,,,,,,,,,,,,,,,,,,,,,,,,,,,,,,,,,,,,,,,,,,,,,,,,,,,,,,,,,,,,,,,,,,,,,,,,,,,,,,,,,,,,,,,,,,,,,,,,,,,459.96400690008886,None,,,,,"[0.45391345702516517, 0.45391345702516517, 0.45391345702516517, 0.45391345702516517]","[2362.654075814947, 2104.8854875525844, 1875.2397826928004, 1670.6487186067843]",Tone,"[5.260599938988865, 4.886897647501437, 5.0, 7.0]",True,460.96498520008754,463.36278590001166,463.36278590001166,464.5889861000469,['space'],0,[0.11310849990695715],2.8377853666897863,3.8534101666882634,None,1,None,1,0,,,,,,rdzaqd,001,fr,0,0,2022-05-06_14h32.44.031,Cluster,2022.1.1,None,
,,,,3,0,3,0,0,0,0,0,,,none,,,,,,,,,,,,,,,,,,,,,,,,,,,,,,,,,,,,,,,,,,,,,,,,,,,,,,,,,,,,,,,,,,,,,,,,,,,,,,,,,,,,,,,,,,,,,,,,,,,,,,,,,,,,,,,,,,,467.47769770002924,None,3701.2621070288687,-0.033997233395130146,7.838870451921136e-05,1,"[0.6607491246296588, 0.434949694612287, 0.6223677302993653, 0.4161515328787636]","[132.3776126423224, 4047.817498598014, 2245.050798184328, 6602.067799148708]",None,"[25.39872109292277, 6.493070110718627, 5.260599938988865, 8.0]",False,468.46613750001416,471.22240750002675,471.22240750002675,472.4588599000126,['space'],1,[0.17736950004473329],3.174788466654718,4.201423466671258,None,1,None,1,,,,,,,rdzaqd,001,fr,0,0,2022-05-06_14h32.44.031,Cluster,2022.1.1,None,
,,,,3,0,3,0,1,0,1,0,,,frequency,,,,,,,,,,,,,,,,,,,,,,,,,,,,,,,,,,,,,,,,,,,,,,,,,,,,,,,,,,,,,,,,,,,,,,,,,,,,,,,,,,,,,,,,,,,,,,,,,,,,,,,,,,,,,,,,,,,472.7205865000142,None,8000.0,3.0,0.0002564306919956826,1,"[0.6429557675762221, 0.6423117492928334, 0.4760797872475199, 0.4156264387215143]","[3174.8021039364003, 4000.0000000000014, 5039.684199579494, 6349.604207872799]",Major_3rd,"[5.743745439073422, 6.493070110718627, 9.028398643114974, 8.207358387276932]",False,473.73697150009684,476.5299798999913,476.5299798999913,477.74269079999067,['space'],1,[0.08887310000136495],3.180472266743891,4.20427386672236,None,1,None,1,,,,,,,rdzaqd,001,fr,0,0,2022-05-06_14h32.44.031,Cluster,2022.1.1,None,
,,,,3,0,3,0,2,0,2,0,,,time,,,,,,,,,,,,,,,,,,,,,,,,,,,,,,,,,,,,,,,,,,,,,,,,,,,,,,,,,,,,,,,,,,,,,,,,,,,,,,,,,,,,,,,,,,,,,,,,,,,,,,,,,,,,,,,,,,,477.9931673000101,None,217.63764082403114,13.0,0.0010313331469337295,0,"[0.7964076535700103, 0.7964076535700103, 0.7964076535700103, 0.7964076535700103]","[764.5158914016754, 610.083332189834, 903.9804628071436, 5399.280969189268]",None,"[18.0, 18.56335264732024, 19.0, 9.5808718829304]",False,479.03720940009225,482.46543530002236,482.46543530002236,483.7034112000838,None,0,,4.212661133380607,5.229929633438587,None,1,None,1,,,,,,,rdzaqd,001,fr,0,0,2022-05-06_14h32.44.031,Cluster,2022.1.1,None,
,,,,3,0,3,0,3,0,3,0,,,time,,,,,,,,,,,,,,,,,,,,,,,,,,,,,,,,,,,,,,,,,,,,,,,,,,,,,,,,,,,,,,,,,,,,,,,,,,,,,,,,,,,,,,,,,,,,,,,,,,,,,,,,,,,,,,,,,,,484.31675720005296,None,2256.2520097949396,-0.7394000610111349,7.39237086135302e-05,0,"[0.5059692002567653, 0.5059692002567653, 0.5059692002567653, 0.5059692002567653]","[907.6961144973029, 1274.3828466852071, 265.0854717057818, 190.61322730571217]",None,"[19.0, 15.0, 23.618090464956765, 24.56610200717843]",False,485.3246526001021,487.87328990001697,487.87328990001697,489.1091176000191,None,0,,3.062296866788529,4.0878917668014765,None,1,None,1,,,,,,,rdzaqd,001,fr,0,0,2022-05-06_14h32.44.031,Cluster,2022.1.1,None,
,,,,3,0,3,0,4,0,4,0,,,both,,,,,,,,,,,,,,,,,,,,,,,,,,,,,,,,,,,,,,,,,,,,,,,,,,,,,,,,,,,,,,,,,,,,,,,,,,,,,,,,,,,,,,,,,,,,,,,,,,,,,,,,,,,,,,,,,,,489.46233630005736,None,1414.213562373095,3.0,7.123757377826762e-05,1,"[0.5069245161722937, 0.5069245161722937, 0.5069245161722937, 0.5069245161722937]","[561.2310241546867, 707.1067811865478, 890.8987181403395, 1122.4620483093731]",Major_3rd,"[19.284917039316973, 17.900269021903046, 18.693979025111148, 18.0]",False,490.4755568000255,493.03418409998994,493.03418409998994,494.2685091000749,['space'],1,[0.5395555000286549],3.047956566675566,4.073568966705352,None,1,None,1,,,,,,,rdzaqd,001,fr,0,0,2022-05-06_14h32.44.031,Cluster,2022.1.1,None,
,,,,3,0,3,0,5,0,5,0,,,frequency,,,,,,,,,,,,,,,,,,,,,,,,,,,,,,,,,,,,,,,,,,,,,,,,,,,,,,,,,,,,,,,,,,,,,,,,,,,,,,,,,,,,,,,,,,,,,,,,,,,,,,,,,,,,,,,,,,,494.5954959000228,None,,,,,"[0.5011343704720561, 0.4853485747272961, 0.6096279305141974, 0.4714080414530011]","[568.5274464033273, 716.2996971665314, 902.4810664934358, 1137.0548928066544]",Major_3rd,"[19.284917039316973, 17.900269021903046, 19.0, 17.572487412297008]",True,495.59979990008287,498.2187782000983,498.2187782000983,499.45376860001124,['space'],0,[0.2552152000134811],3.0845074667595327,4.123467966681346,None,1,None,1,0,,,,,,rdzaqd,001,fr,0,0,2022-05-06_14h32.44.031,Cluster,2022.1.1,None,
,,,,3,0,3,0,6,0,6,0,,,none,,,,,,,,,,,,,,,,,,,,,,,,,,,,,,,,,,,,,,,,,,,,,,,,,,,,,,,,,,,,,,,,,,,,,,,,,,,,,,,,,,,,,,,,,,,,,,,,,,,,,,,,,,,,,,,,,,,499.76718339999206,None,353.5533905932738,8.0,0.0002225841099115047,1,"[0.5618168650289254, 0.7472905393949394, 0.7482107179649828, 0.7042663915410227]","[1196.4633341148303, 3640.246840293179, 447.71843897073643, 3965.4819408681506]",None,"[17.0, 5.96600276660487, 23.0, 6.493070110718627]",False,500.78659880009945,503.8701109000249,503.8701109000249,505.0972965999972,['space'],1,[0.17378169996663928],3.7732747667469084,4.790284866699949,None,1,None,1,,,,,,,rdzaqd,001,fr,0,0,2022-05-06_14h32.44.031,Cluster,2022.1.1,None,
,,,,3,0,3,0,7,0,7,0,,,time,,,,,,,,,,,,,,,,,,,,,,,,,,,,,,,,,,,,,,,,,,,,,,,,,,,,,,,,,,,,,,,,,,,,,,,,,,,,,,,,,,,,,,,,,,,,,,,,,,,,,,,,,,,,,,,,,,,505.63820420007687,None,125.0,20.0,0.00722719885372964,0,"[0.7878660017434037, 0.7878660017434037, 0.7878660017434037, 0.7878660017434037]","[2319.206308735134, 2222.684450953535, 211.67724288381527, 1554.4605322587138]",None,"[5.260599938988865, 5.0, 24.0, 9.0]",False,506.65740980010014,510.06654070003424,510.06654070003424,511.28180300001986,None,0,,4.16387683339417,5.179841733304784,None,1,['space'],0,,[0.520429200027138],,,,,rdzaqd,001,fr,0,0,2022-05-06_14h32.44.031,Cluster,2022.1.1,None,
,,,,3,0,3,0,8,0,8,0,,,time,,,,,,,,,,,,,,,,,,,,,,,,,,,,,,,,,,,,,,,,,,,,,,,,,,,,,,,,,,,,,,,,,,,,,,,,,,,,,,,,,,,,,,,,,,,,,,,,,,,,,,,,,,,,,,,,,,,511.8789021000266,None,2365.2766495392407,-0.7394000610111349,7.61432688160557e-05,1,"[0.6158055405028204, 0.6158055405028204, 0.6158055405028204, 0.6158055405028204]","[725.1365188708731, 722.6303070492888, 811.8225821612102, 579.5078996227967]",None,"[17.900269021903046, 17.900269021903046, 18.300670454568305, 19.284917039316973]",False,512.8859707000665,515.7653121000621,515.7653121000621,517.0042139000725,['space'],1,[0.16486839996650815],3.4890944665530697,4.508940466563217,None,1,None,1,,,,,,,rdzaqd,001,fr,0,0,2022-05-06_14h32.44.031,Cluster,2022.1.1,None,
,,,,3,0,3,0,9,0,9,0,,,none,,,,,,,,,,,,,,,,,,,,,,,,,,,,,,,,,,,,,,,,,,,,,,,,,,,,,,,,,,,,,,,,,,,,,,,,,,,,,,,,,,,,,,,,,,,,,,,,,,,,,,,,,,,,,,,,,,,517.4426509999903,None,1383.906231126956,6.0,0.00010212704618117734,1,"[0.430572520708359, 0.6521411582106957, 0.6556925749345981, 0.7232521455954384]","[228.24790393103677, 334.8963280481548, 226.89009665356994, 134.89122395633393]",None,"[23.531253110563384, 24.315909985835255, 23.531253110563384, 25.39872109292277]",False,518.4617023000028,521.2332112001022,521.2332112001022,522.4583804000868,['space'],1,[0.24696709995623678],3.477879866724834,4.500255466788076,None,1,None,1,,,,,,,rdzaqd,001,fr,0,0,2022-05-06_14h32.44.031,Cluster,2022.1.1,None,
,,,,3,0,3,0,10,0,10,0,,,frequency,,,,,,,,,,,,,,,,,,,,,,,,,,,,,,,,,,,,,,,,,,,,,,,,,,,,,,,,,,,,,,,,,,,,,,,,,,,,,,,,,,,,,,,,,,,,,,,,,,,,,,,,,,,,,,,,,,,523.0081252000527,None,,,,,"[0.5215845768458786, 0.6715906060760154, 0.4996014018158241, 0.5001875019751589]","[309.75305040804454, 347.6860434310901, 390.26438847824306, 438.0569648734936]",Tone,"[24.12229882851687, 24.34575158242586, 24.0, 23.0]",True,524.0277394000441,526.7391311000101,526.7391311000101,527.9824286000803,None,1,,3.236940566683188,4.256821266724728,None,1,None,1,0,,,,,,rdzaqd,001,fr,0,0,2022-05-06_14h32.44.031,Cluster,2022.1.1,None,
,,,,3,0,3,0,11,0,11,0,,,frequency,,,,,,,,,,,,,,,,,,,,,,,,,,,,,,,,,,,,,,,,,,,,,,,,,,,,,,,,,,,,,,,,,,,,,,,,,,,,,,,,,,,,,,,,,,,,,,,,,,,,,,,,,,,,,,,,,,,528.328393700067,None,1015.8285797304825,13.0,0.00019973236882979761,0,"[0.7566098844346024, 0.7734652939825449, 0.6383442982529859, 0.5519593939824166]","[201.56591951044123, 302.00764365964966, 452.50018976610414, 677.9842366145951]",Perfect_5th,"[24.112279518464348, 24.0, 22.133902068025165, 18.0]",False,529.3256787999999,532.5327266000677,532.5327266000677,533.7451336000813,None,0,,3.76148996676784,4.783368766773492,None,1,None,1,,,,,,,rdzaqd,001,fr,0,0,2022-05-06_14h32.44.031,Cluster,2022.1.1,None,
,,,,3,0,3,0,12,0,12,0,,,time,,,,,,,,,,,,,,,,,,,,,,,,,,,,,,,,,,,,,,,,,,,,,,,,,,,,,,,,,,,,,,,,,,,,,,,,,,,,,,,,,,,,,,,,,,,,,,,,,,,,,,,,,,,,,,,,,,,534.1546397000784,None,1148.6983549970344,8.0,0.00012627772590742052,1,"[0.4904405787287574, 0.4904405787287574, 0.4904405787287574, 0.4904405787287574]","[324.9153496622892, 2591.709470164241, 1729.3123598740513, 7208.378012669881]",None,"[24.315909985835255, 5.898987380816954, 6.0, 6.0]",False,535.166295300005,537.6750171000604,537.6750171000604,538.8975449000718,['space'],1,[0.05748299998231232],2.995225533260964,4.038582033361308,None,1,None,1,,,,,,,rdzaqd,001,fr,0,0,2022-05-06_14h32.44.031,Cluster,2022.1.1,None,
,,,,3,0,3,0,13,0,13,0,,,time,,,,,,,,,,,,,,,,,,,,,,,,,,,,,,,,,,,,,,,,,,,,,,,,,,,,,,,,,,,,,,,,,,,,,,,,,,,,,,,,,,,,,,,,,,,,,,,,,,,,,,,,,,,,,,,,,,,539.2403818001039,None,408.84568606087964,17.69144843127717,0.0005834057456776783,1,"[0.7764277084967963, 0.7764277084967963, 0.7764277084967963, 0.7764277084967963]","[253.70351082625615, 860.1228682747353, 3325.8408536977704, 204.97276647619734]",None,"[23.493321563251698, 18.693979025111148, 5.743745439073422, 24.112279518464348]",False,540.2527539000148,543.6050704000518,543.6050704000518,544.8232155001024,['space'],1,[0.5712155998917297],4.1472082666587085,5.173972266726196,None,1,None,1,,,,,,,rdzaqd,001,fr,0,0,2022-05-06_14h32.44.031,Cluster,2022.1.1,None,
,,,,3,0,3,0,14,0,14,0,,,time,,,,,,,,,,,,,,,,,,,,,,,,,,,,,,,,,,,,,,,,,,,,,,,,,,,,,,,,,,,,,,,,,,,,,,,,,,,,,,,,,,,,,,,,,,,,,,,,,,,,,,,,,,,,,,,,,,,545.4726306000957,None,250.0,17.0,0.0011856868528308277,0,"[0.5870912129164825, 0.5870912129164825, 0.5870912129164825, 0.5870912129164825]","[239.49061087284565, 633.1718046630319, 3734.287816355705, 178.60432436317032]",None,"[23.531253110563384, 18.56335264732024, 5.96600276660487, 25.0]",False,547.4593900000909,550.2399387999903,550.2399387999903,551.4710463000229,None,0,,3.370006100041792,4.393804499995895,None,1,None,1,,,,,,,rdzaqd,001,fr,0,0,2022-05-06_14h32.44.031,Cluster,2022.1.1,None,
,,,,3,0,3,0,15,0,15,0,,,time,,,,,,,,,,,,,,,,,,,,,,,,,,,,,,,,,,,,,,,,,,,,,,,,,,,,,,,,,,,,,,,,,,,,,,,,,,,,,,,,,,,,,,,,,,,,,,,,,,,,,,,,,,,,,,,,,,,551.8942563000601,None,,,,,"[0.4492961116970397, 0.4492961116970397, 0.4492961116970397, 0.4492961116970397]","[864.4150733851354, 479.17881848757116, 4361.48037718028, 4923.027633128953]",None,"[18.693979025111148, 22.0, 7.279424043043629, 9.028398643114974]",True,552.8947788000805,555.2769588000374,555.2769588000374,556.5111197000369,None,1,,2.813004966592416,3.8550176665885374,None,1,['space'],0,0,[-2.8661202000221238],,,,,rdzaqd,001,fr,0,0,2022-05-06_14h32.44.031,Cluster,2022.1.1,None,
,,,,3,0,3,0,16,0,16,0,,,both,,,,,,,,,,,,,,,,,,,,,,,,,,,,,,,,,,,,,,,,,,,,,,,,,,,,,,,,,,,,,,,,,,,,,,,,,,,,,,,,,,,,,,,,,,,,,,,,,,,,,,,,,,,,,,,,,,,556.795044700033,None,640.9862609693062,12.091308165430453,0.0002019667176516298,1,"[0.529187138973236, 0.529187138973236, 0.529187138973236, 0.529187138973236]","[3230.3683315545495, 2156.012196303886, 1438.9655028515474, 960.3942509910348]",Perfect_5th,"[5.743745439073422, 4.886897647501437, 11.0, 19.004327458869362]",False,557.8016513000475,560.4175457000965,560.4175457000965,561.655558800092,['space'],1,[0.35399760003201663],3.1370289666811004,4.154966366710141,None,1,None,1,,,,,,,rdzaqd,001,fr,0,0,2022-05-06_14h32.44.031,Cluster,2022.1.1,None,
,,,,3,0,3,0,17,0,17,0,,,both,,,,,,,,,,,,,,,,,,,,,,,,,,,,,,,,,,,,,,,,,,,,,,,,,,,,,,,,,,,,,,,,,,,,,,,,,,,,,,,,,,,,,,,,,,,,,,,,,,,,,,,,,,,,,,,,,,,562.0003755000653,None,435.2752816480623,13.0,0.00033390456494473015,1,"[0.4202228320708129, 0.4202228320708129, 0.4202228320708129, 0.4202228320708129]","[1096.8249796946266, 870.5505632961247, 690.9564399838885, 548.4124898473133]",Major_3rd,"[18.0, 18.693979025111148, 18.0, 20.0]",False,564.5442219000543,566.8329975000815,566.8329975000815,568.0521472000983,['space'],1,[0.3792884999420494],2.7081741000292823,3.7329760000575334,None,1,None,1,,,,,,,rdzaqd,001,fr,0,0,2022-05-06_14h32.44.031,Cluster,2022.1.1,None,
,,,,3,0,3,0,18,0,18,0,,,time,,,,,,,,,,,,,,,,,,,,,,,,,,,,,,,,,,,,,,,,,,,,,,,,,,,,,,,,,,,,,,,,,,,,,,,,,,,,,,,,,,,,,,,,,,,,,,,,,,,,,,,,,,,,,,,,,,,568.3398588000564,None,7427.999263396023,-0.7017650832535708,0.00015145574510935043,1,"[0.7588069994533297, 0.7588069994533297, 0.7588069994533297, 0.7588069994533297]","[1509.0103600544876, 501.6971828842096, 1625.4583942892991, 256.56701060918476]",None,"[9.339143175506198, 21.16096705241678, 7.361201396019053, 23.493321563251698]",False,569.3321184000233,572.6300334000262,572.6300334000262,573.8690214999951,['space'],1,[0.3808330000611022],4.058372166706249,5.075671866768971,None,1,None,1,,,,,,,rdzaqd,001,fr,0,0,2022-05-06_14h32.44.031,Cluster,2022.1.1,None,
,,,,3,0,3,0,19,0,19,0,,,none,,,,,,,,,,,,,,,,,,,,,,,,,,,,,,,,,,,,,,,,,,,,,,,,,,,,,,,,,,,,,,,,,,,,,,,,,,,,,,,,,,,,,,,,,,,,,,,,,,,,,,,,,,,,,,,,,,,574.4602536000311,None,,,,,"[0.41708394777195396, 0.6221863191906938, 0.6097339282979849, 0.40062141299572873]","[233.51779791849341, 2542.704552592115, 407.8795100191177, 3220.8662868112297]",None,"[23.531253110563384, 5.645867847083637, 23.69144843127717, 5.743745439073422]",True,575.4788322000531,578.1585749000078,578.1585749000078,579.3946270000888,None,1,,3.0881047666771337,4.124930266756564,None,1,None,1,0,,,,,,rdzaqd,001,fr,0,0,2022-05-06_14h32.44.031,Cluster,2022.1.1,None,
,,,,4,0,4,0,0,0,0,0,,,both,,,,,,,,,,,,,,,,,,,,,,,,,,,,,,,,,,,,,,,,,,,,,,,,,,,,,,,,,,,,,,,,,,,,,,,,,,,,,,,,,,,,,,,,,,,,,,,,,,,,,,,,,,,,,,,,,,,581.5638419000898,None,281.2046655814168,17.854540953153773,0.001050036905449179,1,"[0.6150137707704254, 0.6150137707704254, 0.6150137707704254, 0.6150137707704254]","[708.5913549893509, 562.4093311628337, 446.3845819623068, 354.2956774946754]",Major_3rd,"[17.900269021903046, 19.284917039316973, 23.0, 24.34575158242586]",False,582.553199200076,585.4246898000129,585.4246898000129,586.6530292000389,['space'],1,[0.33762599993497133],3.504228266654536,4.535120666725561,None,1,None,1,,,,,,,rdzaqd,001,fr,0,0,2022-05-06_14h32.44.031,Cluster,2022.1.1,None,
,,,,4,0,4,0,1,0,1,0,,,both,,,,,,,,,,,,,,,,,,,,,,,,,,,,,,,,,,,,,,,,,,,,,,,,,,,,,,,,,,,,,,,,,,,,,,,,,,,,,,,,,,,,,,,,,,,,,,,,,,,,,,,,,,,,,,,,,,,587.1422672000481,None,1866.0659830736151,2.0,8.656905679825736e-05,1,"[0.7413014758654144, 0.7413014758654144, 0.7413014758654144, 0.7413014758654144]","[740.5487761432825, 933.0329915368078, 1175.547906283609, 1481.0975522865647]",Major_3rd,"[17.99259359280647, 19.004327458869362, 17.0, 10.0]",False,589.6039401000598,592.8461626000935,592.8461626000935,594.0771814000327,['space'],1,[0.31175100000109524],3.9958745999028906,5.010904699913226,None,1,None,1,,,,,,,rdzaqd,001,fr,0,0,2022-05-06_14h32.44.031,Cluster,2022.1.1,None,
,,,,4,0,4,0,2,0,2,0,,,both,,,,,,,,,,,,,,,,,,,,,,,,,,,,,,,,,,,,,,,,,,,,,,,,,,,,,,,,,,,,,,,,,,,,,,,,,,,,,,,,,,,,,,,,,,,,,,,,,,,,,,,,,,,,,,,,,,,594.6586041999981,None,139.71478870297935,19.657864776754597,0.005688623092881651,1,"[0.7652307734565327, 0.7652307734565327, 0.7652307734565327, 0.7652307734565327]","[352.0592065369962, 279.4295774059587, 221.78340256262413, 176.0296032684981]",Major_3rd,"[24.34575158242586, 23.854540953153773, 23.744682568266967, 25.032957429512688]",False,595.6513303000247,598.9616799000651,598.9616799000651,600.1869368000189,['space'],1,[0.34283310000319034],4.081286966684274,5.121609166730195,None,1,None,1,,,,,,,rdzaqd,001,fr,0,0,2022-05-06_14h32.44.031,Cluster,2022.1.1,None,
,,,,4,0,4,0,3,0,3,0,,,both,,,,,,,,,,,,,,,,,,,,,,,,,,,,,,,,,,,,,,,,,,,,,,,,,,,,,,,,,,,,,,,,,,,,,,,,,,,,,,,,,,,,,,,,,,,,,,,,,,,,,,,,,,,,,,,,,,,600.819929099991,None,,,,,"[0.5939245448956381, 0.5939245448956381, 0.5939245448956381, 0.5939245448956381]","[5023.423575909604, 5638.602316541089, 6329.117105826686, 7104.193750596113]",Tone,"[9.028398643114974, 9.668480869467476, 8.207358387276932, 6.0]",True,601.8372452000622,604.6294079000363,604.6294079000363,605.8561787999934,None,1,,3.3960482666734606,4.431841166689992,None,1,None,1,0,,,,,,rdzaqd,001,fr,0,0,2022-05-06_14h32.44.031,Cluster,2022.1.1,None,
,,,,4,0,4,0,4,0,4,0,,,time,,,,,,,,,,,,,,,,,,,,,,,,,,,,,,,,,,,,,,,,,,,,,,,,,,,,,,,,,,,,,,,,,,,,,,,,,,,,,,,,,,,,,,,,,,,,,,,,,,,,,,,,,,,,,,,,,,,606.3114218000555,None,1741.101126592249,4.0,0.00010004114434661368,1,"[0.7216001356179985, 0.7216001356179985, 0.7216001356179985, 0.7216001356179985]","[929.6769607668791, 599.9219560850833, 177.23122079727486, 158.4598580154738]",None,"[19.0, 19.0, 25.0, 25.65234502824306]",False,607.3522794001037,610.5453836000524,610.5453836000524,611.7754321000539,['space'],1,[0.42124900000635535],3.9077701332280412,4.939453533268534,None,1,None,1,,,,,,,rdzaqd,001,fr,0,0,2022-05-06_14h32.44.031,Cluster,2022.1.1,None,
,,,,4,0,4,0,5,0,5,0,,,time,,,,,,,,,,,,,,,,,,,,,,,,,,,,,,,,,,,,,,,,,,,,,,,,,,,,,,,,,,,,,,,,,,,,,,,,,,,,,,,,,,,,,,,,,,,,,,,,,,,,,,,,,,,,,,,,,,,612.3398489000974,None,2846.8434016015412,-0.039996375336825075,6.404592750741689e-05,0,"[0.7731777709228005, 0.7731777709228005, 0.7731777709228005, 0.7731777709228005]","[5128.8995509393935, 395.45707204136454, 5550.4902171954645, 6980.777287669127]",None,"[9.5808718829304, 24.0, 9.668480869467476, 6.823176576205113]",False,613.3328749000793,616.6942408999894,616.6942408999894,617.931093399995,None,0,,4.118728366680443,5.159052666625939,None,1,None,1,,,,,,,rdzaqd,001,fr,0,0,2022-05-06_14h32.44.031,Cluster,2022.1.1,None,
,,,,4,0,4,0,6,0,6,0,,,none,,,,,,,,,,,,,,,,,,,,,,,,,,,,,,,,,,,,,,,,,,,,,,,,,,,,,,,,,,,,,,,,,,,,,,,,,,,,,,,,,,,,,,,,,,,,,,,,,,,,,,,,,,,,,,,,,,,618.5353715000674,None,707.1067811865476,15.0,0.00024969612569079744,1,"[0.6845825705585079, 0.6184089337609805, 0.7089749943195671, 0.7402709506216661]","[3988.1024185236633, 364.3858889764709, 3346.653712239998, 897.5686188909156]",None,"[6.493070110718627, 24.34575158242586, 5.743745439073422, 18.693979025111148]",False,619.5661559000146,622.5907083000056,622.5907083000056,623.8045493999962,['space'],1,[0.15315679996274412],3.7864982333267108,4.816658233408816,None,1,None,1,,,,,,,rdzaqd,001,fr,0,0,2022-05-06_14h32.44.031,Cluster,2022.1.1,None,
,,,,4,0,4,0,7,0,7,0,,,time,,,,,,,,,,,,,,,,,,,,,,,,,,,,,,,,,,,,,,,,,,,,,,,,,,,,,,,,,,,,,,,,,,,,,,,,,,,,,,,,,,,,,,,,,,,,,,,,,,,,,,,,,,,,,,,,,,,624.4448669000994,None,,,,,"[0.4711919875038134, 0.4711919875038134, 0.4711919875038134, 0.4711919875038134]","[244.20177765868948, 212.73510001054314, 7888.359229144151, 998.6686854786922]",None,"[23.493321563251698, 23.744682568266967, 4.0, 19.027493468965773]",True,625.432810200029,627.8819408999989,627.8819408999989,629.1091121000936,['space'],0,[0.6917999999132007],2.910163566702977,3.914999966742471,None,1,None,1,0,,,,,,rdzaqd,001,fr,0,0,2022-05-06_14h32.44.031,Cluster,2022.1.1,None,
,,,,4,0,4,0,8,0,8,0,,,time,,,,,,,,,,,,,,,,,,,,,,,,,,,,,,,,,,,,,,,,,,,,,,,,,,,,,,,,,,,,,,,,,,,,,,,,,,,,,,,,,,,,,,,,,,,,,,,,,,,,,,,,,,,,,,,,,,,629.3895326000638,None,757.8582832551998,11.0,0.00014293379678602107,1,"[0.7799271856286228, 0.7799271856286228, 0.7799271856286228, 0.7799271856286228]","[3091.09779415795, 433.4552039015791, 473.5650650525656, 236.60541755767773]",None,"[5.868312522825567, 23.003285969918135, 22.0, 23.531253110563384]",False,630.4087385000894,633.7729393000482,633.7729393000482,634.9960287000285,['space'],1,[0.24771160003729165],4.124759866739623,5.129843966686167,None,1,None,1,,,,,,,rdzaqd,001,fr,0,0,2022-05-06_14h32.44.031,Cluster,2022.1.1,None,
,,,,4,0,4,0,9,0,9,0,,,time,,,,,,,,,,,,,,,,,,,,,,,,,,,,,,,,,,,,,,,,,,,,,,,,,,,,,,,,,,,,,,,,,,,,,,,,,,,,,,,,,,,,,,,,,,,,,,,,,,,,,,,,,,,,,,,,,,,635.5956189000281,None,690.2829494223358,12.0,0.00018264470295020237,0,"[0.7594229110502742, 0.7594229110502742, 0.7594229110502742, 0.7594229110502742]","[167.7031294075287, 295.0370493938959, 1767.9769301809354, 525.8869567324273]",None,"[25.423428007499954, 24.0, 5.890979483582172, 20.179488091888764]",False,636.592777300044,639.8756316000363,639.8756316000363,641.1054208000423,None,0,,4.06528746674303,5.085081566707231,None,1,None,1,,,,,,,rdzaqd,001,fr,0,0,2022-05-06_14h32.44.031,Cluster,2022.1.1,None,
,,,,4,0,4,0,10,0,10,0,,,time,,,,,,,,,,,,,,,,,,,,,,,,,,,,,,,,,,,,,,,,,,,,,,,,,,,,,,,,,,,,,,,,,,,,,,,,,,,,,,,,,,,,,,,,,,,,,,,,,,,,,,,,,,,,,,,,,,,641.7349229000974,None,250.0,20.0,0.0016748271957891384,0,"[0.5031894608949274, 0.5031894608949274, 0.5031894608949274, 0.5031894608949274]","[808.8413236038691, 2120.399678887824, 7737.795152740244, 3744.804233343381]",None,"[18.300670454568305, 4.886897647501437, 5.0, 6.0]",False,643.8270780000603,646.3727383000078,646.3727383000078,647.5880002999911,None,0,,3.0391600334551185,4.068691633408889,None,1,None,1,,,,,,,rdzaqd,001,fr,0,0,2022-05-06_14h32.44.031,Cluster,2022.1.1,None,
,,,,4,0,4,0,11,0,11,0,,,frequency,,,,,,,,,,,,,,,,,,,,,,,,,,,,,,,,,,,,,,,,,,,,,,,,,,,,,,,,,,,,,,,,,,,,,,,,,,,,,,,,,,,,,,,,,,,,,,,,,,,,,,,,,,,,,,,,,,,647.9514089000877,None,615.5722066724584,15.0,0.000300376816114198,1,"[0.5485725720886654, 0.5057074451557066, 0.5333597644783907, 0.7379653102350796]","[977.1599684342465, 870.5505632961246, 775.5723809168677, 690.9564399838883]",Tone,"[19.027493468965773, 18.693979025111148, 18.0, 18.0]",False,648.9694883000338,651.5979670000961,651.5979670000961,652.8105649000499,['space'],1,[0.28101589996367693],3.3560653667664155,4.382637566770427,None,1,None,1,,,,,,,rdzaqd,001,fr,0,0,2022-05-06_14h32.44.031,Cluster,2022.1.1,None,
,,,,4,0,4,0,12,0,12,0,,,none,,,,,,,,,,,,,,,,,,,,,,,,,,,,,,,,,,,,,,,,,,,,,,,,,,,,,,,,,,,,,,,,,,,,,,,,,,,,,,,,,,,,,,,,,,,,,,,,,,,,,,,,,,,,,,,,,,,653.4023107000394,None,374.3150054062939,18.14720206948669,0.0006723578627049411,0,"[0.7773484279842253, 0.4746663864473868, 0.5002533465938321, 0.6552465187292339]","[1503.2457712019127, 188.35893798035403, 1437.2652429381892, 7196.438088295159]",None,"[9.339143175506198, 24.56610200717843, 11.0, 6.0]",False,654.4165187000763,657.193236400024,657.193236400024,658.4072702000849,None,0,,3.427553266636096,4.462983766687103,None,1,None,1,,,,,,,rdzaqd,001,fr,0,0,2022-05-06_14h32.44.031,Cluster,2022.1.1,None,
,,,,4,0,4,0,13,0,13,0,,,both,,,,,,,,,,,,,,,,,,,,,,,,,,,,,,,,,,,,,,,,,,,,,,,,,,,,,,,,,,,,,,,,,,,,,,,,,,,,,,,,,,,,,,,,,,,,,,,,,,,,,,,,,,,,,,,,,,,658.931777400081,None,8000.0,-2.0,0.00014420157515633036,1,"[0.5753137739679017, 0.5753137739679017, 0.5753137739679017, 0.5753137739679017]","[5039.684199579492, 5656.8542494923795, 6349.604207872798, 7127.189745122714]",Tone,"[9.028398643114974, 9.668480869467476, 8.207358387276932, 6.0]",False,659.9424264000263,662.714076400036,662.714076400036,663.9310934999958,['space'],1,[0.33247379993554205],3.322792466613464,4.356573466677219,None,1,None,1,,,,,,,rdzaqd,001,fr,0,0,2022-05-06_14h32.44.031,Cluster,2022.1.1,None,
,,,,4,0,4,0,14,0,14,0,,,time,,,,,,,,,,,,,,,,,,,,,,,,,,,,,,,,,,,,,,,,,,,,,,,,,,,,,,,,,,,,,,,,,,,,,,,,,,,,,,,,,,,,,,,,,,,,,,,,,,,,,,,,,,,,,,,,,,,664.3532031000359,None,,,,,"[0.5207191424149843, 0.5207191424149843, 0.5207191424149843, 0.5207191424149843]","[291.3035741123666, 2326.8028559325267, 205.48332637138955, 6651.193889162066]",None,"[23.854540953153773, 5.260599938988865, 24.0, 8.0]",True,665.3651167000644,667.966971600079,667.966971600079,669.200990900048,['space'],0,[0.4196082999696955],3.122577266767621,4.161369666690007,None,1,None,1,0,,,,,,rdzaqd,001,fr,0,0,2022-05-06_14h32.44.031,Cluster,2022.1.1,None,
,,,,4,0,4,0,15,0,15,0,,,none,,,,,,,,,,,,,,,,,,,,,,,,,,,,,,,,,,,,,,,,,,,,,,,,,,,,,,,,,,,,,,,,,,,,,,,,,,,,,,,,,,,,,,,,,,,,,,,,,,,,,,,,,,,,,,,,,,,669.5702718000393,None,176.7766952966369,13.0,0.0015634862732566773,1,"[0.6926104905713764, 0.6767048960004474, 0.766466818173959, 0.6332316189090318]","[575.5932157473231, 219.3906588883818, 3602.647586797236, 5888.061621615905]",None,"[19.284917039316973, 23.744682568266967, 5.734165779963748, 9.204042212469089]",False,670.6408639000729,673.8192521000747,673.8192521000747,675.0553866000846,['space'],1,[0.41980879998300225],3.793068533297628,4.815140033373609,None,1,None,1,,,,,,,rdzaqd,001,fr,0,0,2022-05-06_14h32.44.031,Cluster,2022.1.1,None,
,,,,4,0,4,0,16,0,16,0,,,frequency,,,,,,,,,,,,,,,,,,,,,,,,,,,,,,,,,,,,,,,,,,,,,,,,,,,,,,,,,,,,,,,,,,,,,,,,,,,,,,,,,,,,,,,,,,,,,,,,,,,,,,,,,,,,,,,,,,,675.5086795000825,None,1392.1288159465644,6.0,0.00010171973366536553,1,"[0.6609299308361269, 0.6878284393171823, 0.7010622994188377, 0.5181660150201066]","[2209.8667469088205, 1968.7674520820299, 1753.9723993763023, 1562.611762257883]",Tone,"[5.0, 4.741683434789566, 5.890979483582172, 8.0]",False,676.4976456000004,679.5635890000267,679.5635890000267,680.7808996000094,['space'],1,[0.665179800009355],3.600552966701798,4.633722566650249,None,1,None,1,,,,,,,rdzaqd,001,fr,0,0,2022-05-06_14h32.44.031,Cluster,2022.1.1,None,
,,,,4,0,4,0,17,0,17,0,,,none,,,,,,,,,,,,,,,,,,,,,,,,,,,,,,,,,,,,,,,,,,,,,,,,,,,,,,,,,,,,,,,,,,,,,,,,,,,,,,,,,,,,,,,,,,,,,,,,,,,,,,,,,,,,,,,,,,,681.1787348000798,None,924.2994195992624,13.0,0.00018716441586660374,0,"[0.7636244310526812, 0.7787360977875166, 0.7127460833409864, 0.7253859360530908]","[6664.977110230807, 733.8650543851753, 171.57596636405447, 390.2864349369229]",None,"[8.0, 17.99259359280647, 25.032957429512688, 24.0]",False,682.1889534000074,685.4918326000916,685.4918326000916,686.733621200081,None,0,,4.013607666594908,5.043064966681413,None,1,None,1,,,,,,,rdzaqd,001,fr,0,0,2022-05-06_14h32.44.031,Cluster,2022.1.1,None,
,,,,4,0,4,0,18,0,18,0,,,time,,,,,,,,,,,,,,,,,,,,,,,,,,,,,,,,,,,,,,,,,,,,,,,,,,,,,,,,,,,,,,,,,,,,,,,,,,,,,,,,,,,,,,,,,,,,,,,,,,,,,,,,,,,,,,,,,,,687.277063400019,None,,,,,"[0.4643628054382268, 0.4643628054382268, 0.4643628054382268, 0.4643628054382268]","[212.9717788522709, 2224.4890265641075, 2215.4588839498706, 5879.412083963725]",None,"[23.744682568266967, 5.0, 5.0, 9.204042212469089]",True,688.2925471999915,690.721566400025,690.721566400025,691.9405214000726,None,1,,2.8740790666779503,3.902002066723071,None,1,None,1,0,,,,,,rdzaqd,001,fr,0,0,2022-05-06_14h32.44.031,Cluster,2022.1.1,None,
,,,,4,0,4,0,19,0,19,0,,,both,,,,,,,,,,,,,,,,,,,,,,,,,,,,,,,,,,,,,,,,,,,,,,,,,,,,,,,,,,,,,,,,,,,,,,,,,,,,,,,,,,,,,,,,,,,,,,,,,,,,,,,,,,,,,,,,,,,692.25038089999,None,1345.211272868432,7.0,0.00011673910049108755,0,"[0.7000653795312158, 0.7000653795312158, 0.7000653795312158, 0.7000653795312158]","[3389.719998485627, 2690.422545736864, 2135.3897896708295, 1694.8599992428135]",Major_3rd,"[5.734165779963748, 5.898987380816954, 4.886897647501437, 6.0]",False,693.2456132000079,696.370256400085,696.370256400085,697.6110989000881,None,0,,3.836627666722052,4.860162966768257,None,1,None,1,,,,,,,rdzaqd,001,fr,0,0,2022-05-06_14h32.44.031,Cluster,2022.1.1,None,
,,,,5,0,5,0,0,0,0,0,,,frequency,,,,,,,,,,,,,,,,,,,,,,,,,,,,,,,,,,,,,,,,,,,,,,,,,,,,,,,,,,,,,,,,,,,,,,,,,,,,,,,,,,,,,,,,,,,,,,,,,,,,,,,,,,,,,,,,,,,699.9587261000415,None,3732.1319661472303,1.0,8.890651826486576e-05,1,"[0.5078599702488951, 0.763895220792182, 0.5721459616485394, 0.6841507064037675]","[2351.0958125672173, 2639.0158215457886, 2962.195104573129, 3324.9515845711517]",Tone,"[5.260599938988865, 5.898987380816954, 5.868312522825567, 5.743745439073422]",False,700.9675177000463,703.8446032000938,703.8446032000938,705.091165699996,['space'],1,[0.23696380003821105],3.560400433256291,4.589771133265458,None,1,None,1,,,,,,,rdzaqd,001,fr,0,0,2022-05-06_14h32.44.031,Cluster,2022.1.1,None,
,,,,5,0,5,0,1,0,1,0,,,both,,,,,,,,,,,,,,,,,,,,,,,,,,,,,,,,,,,,,,,,,,,,,,,,,,,,,,,,,,,,,,,,,,,,,,,,,,,,,,,,,,,,,,,,,,,,,,,,,,,,,,,,,,,,,,,,,,,705.6054757999955,None,353.5533905932738,7.0,0.00019837829677229338,0,"[0.6572419158518337, 0.6572419158518337, 0.6572419158518337, 0.6572419158518337]","[140.30775603867167, 176.77669529663694, 222.72467953508487, 280.6155120773433]",Major_3rd,"[25.657864776754597, 25.032957429512688, 23.744682568266967, 23.854540953153773]",False,706.635637300089,709.6412870000349,709.6412870000349,710.8799310000613,None,0,,3.6597740333527327,4.682575433282182,None,1,None,1,,,,,,,rdzaqd,001,fr,0,0,2022-05-06_14h32.44.031,Cluster,2022.1.1,None,
,,,,5,0,5,0,2,0,2,0,,,frequency,,,,,,,,,,,,,,,,,,,,,,,,,,,,,,,,,,,,,,,,,,,,,,,,,,,,,,,,,,,,,,,,,,,,,,,,,,,,,,,,,,,,,,,,,,,,,,,,,,,,,,,,,,,,,,,,,,,711.3588121000212,None,518.7183562085476,15.0,0.0003853422978072621,0,"[0.5313623366209268, 0.470721271031113, 0.44875124323358984, 0.41182779501282746]","[326.77208797700797, 366.78926720100304, 411.7070321603318, 462.1255186220589]",Tone,"[24.315909985835255, 24.14720206948669, 23.69144843127717, 22.133902068025165]",False,712.3740123000462,714.8491546000587,714.8491546000587,716.067855100031,None,0,,2.904179866774939,3.927222066675313,None,1,None,1,,,,,,,rdzaqd,001,fr,0,0,2022-05-06_14h32.44.031,Cluster,2022.1.1,None,
,,,,5,0,5,0,3,0,3,0,,,frequency,,,,,,,,,,,,,,,,,,,,,,,,,,,,,,,,,,,,,,,,,,,,,,,,,,,,,,,,,,,,,,,,,,,,,,,,,,,,,,,,,,,,,,,,,,,,,,,,,,,,,,,,,,,,,,,,,,,716.3510101001011,None,1866.0659830736151,3.0,9.71320792991596e-05,0,"[0.6986394959131543, 0.7509925596015264, 0.69527940772611, 0.40627582725119993]","[740.5487761432825, 933.0329915368078, 1175.547906283609, 1481.0975522865647]",Major_3rd,"[17.99259359280647, 19.004327458869362, 17.0, 10.0]",False,718.3261038000928,721.5074538000626,721.5074538000626,722.7287611000938,None,0,,3.5626329666702077,4.5976641667075455,None,1,None,1,,,,,,,rdzaqd,001,fr,0,0,2022-05-06_14h32.44.031,Cluster,2022.1.1,None,
,,,,5,0,5,0,4,0,4,0,,,time,,,,,,,,,,,,,,,,,,,,,,,,,,,,,,,,,,,,,,,,,,,,,,,,,,,,,,,,,,,,,,,,,,,,,,,,,,,,,,,,,,,,,,,,,,,,,,,,,,,,,,,,,,,,,,,,,,,722.9741879000794,None,6776.590623243908,1.0,0.00016208069911440994,0,"[0.5765216168927799, 0.5765216168927799, 0.5765216168927799, 0.5765216168927799]","[7721.666059769313, 937.3095317895198, 805.6786061303005, 387.2603034230883]",None,"[5.0, 19.004327458869362, 18.300670454568305, 24.0]",False,723.9917385000736,726.7625056999968,726.7625056999968,727.9842251000227,None,0,,3.3316647667670622,4.351293266750872,None,1,None,1,,,,,,,rdzaqd,001,fr,0,0,2022-05-06_14h32.44.031,Cluster,2022.1.1,None,
,,,,5,0,5,0,5,0,5,0,,,none,,,,,,,,,,,,,,,,,,,,,,,,,,,,,,,,,,,,,,,,,,,,,,,,,,,,,,,,,,,,,,,,,,,,,,,,,,,,,,,,,,,,,,,,,,,,,,,,,,,,,,,,,,,,,,,,,,,728.3887225000653,None,233.2582478842019,8.0,0.0005030881344778151,0,"[0.7479929705101732, 0.47444902668909633, 0.4372504387121347, 0.533414353221398]","[5620.402962451101, 375.8071483188348, 1255.2187228666432, 1029.5438541964297]",None,"[9.668480869467476, 24.14720206948669, 15.0, 19.0]",False,729.4152627000585,732.1003847999964,732.1003847999964,733.3194196000695,None,0,,3.20273606677074,4.216156366746873,None,1,None,1,,,,,,,rdzaqd,001,fr,0,0,2022-05-06_14h32.44.031,Cluster,2022.1.1,None,
,,,,5,0,5,0,6,0,6,0,,,frequency,,,,,,,,,,,,,,,,,,,,,,,,,,,,,,,,,,,,,,,,,,,,,,,,,,,,,,,,,,,,,,,,,,,,,,,,,,,,,,,,,,,,,,,,,,,,,,,,,,,,,,,,,,,,,,,,,,,733.6861909000436,None,,,,,"[0.5634532380165966, 0.6258537810464645, 0.7165232162740451, 0.5558947142188425]","[177.6308051094908, 266.1454923668527, 398.7676746920842, 597.4764290208082]",Perfect_5th,"[25.0, 23.618090464956765, 23.69144843127717, 19.0]",True,734.7094507000875,737.6636262000538,737.6636262000538,738.89976629999,['space'],0,[0.40547729993704706],3.487156066810712,4.52070236671716,None,1,None,1,0,,,,,,rdzaqd,001,fr,0,0,2022-05-06_14h32.44.031,Cluster,2022.1.1,None,
,,,,5,0,5,0,7,0,7,0,,,frequency,,,,,,,,,,,,,,,,,,,,,,,,,,,,,,,,,,,,,,,,,,,,,,,,,,,,,,,,,,,,,,,,,,,,,,,,,,,,,,,,,,,,,,,,,,,,,,,,,,,,,,,,,,,,,,,,,,,739.2754817000823,None,189.49708999195215,18.56610200717843,0.002574783505907383,1,"[0.6935704820096684, 0.7550760859524162, 0.6574091525318355, 0.497318895076318]","[955.0054902987347, 637.3896947009725, 425.40658356206444, 283.9248309824793]",Perfect_5th,"[19.004327458869362, 18.56335264732024, 23.003285969918135, 23.854540953153773]",False,740.2865076001035,743.4182298000669,743.4182298000669,744.6624628000427,['space'],1,[0.639582599978894],3.6454052667832,4.670889566768892,None,1,None,1,,,,,,,rdzaqd,001,fr,0,0,2022-05-06_14h32.44.031,Cluster,2022.1.1,None,
,,,,5,0,5,0,8,0,8,0,,,none,,,,,,,,,,,,,,,,,,,,,,,,,,,,,,,,,,,,,,,,,,,,,,,,,,,,,,,,,,,,,,,,,,,,,,,,,,,,,,,,,,,,,,,,,,,,,,,,,,,,,,,,,,,,,,,,,,,745.0063248000806,None,544.8119097802308,14.0,0.00032303533657190473,0,"[0.5068266051542941, 0.7257629772931538, 0.6458754240741003, 0.6754175409403008]","[2959.8977489231625, 866.9781495328385, 376.34220861224816, 617.6131117487206]",None,"[5.868312522825567, 18.693979025111148, 24.14720206948669, 18.56335264732024]",False,746.0221571000293,748.9403632000322,748.9403632000322,750.1714504000265,None,0,,3.584721766761504,4.620251566753723,None,1,None,1,,,,,,,rdzaqd,001,fr,0,0,2022-05-06_14h32.44.031,Cluster,2022.1.1,None,
,,,,5,0,5,0,9,0,9,0,,,time,,,,,,,,,,,,,,,,,,,,,,,,,,,,,,,,,,,,,,,,,,,,,,,,,,,,,,,,,,,,,,,,,,,,,,,,,,,,,,,,,,,,,,,,,,,,,,,,,,,,,,,,,,,,,,,,,,,750.7131836999906,None,4000.0,4.0,0.0001330362529899405,1,"[0.4106826194250908, 0.4106826194250908, 0.4106826194250908, 0.4106826194250908]","[147.19094479221658, 5156.79834051181, 683.9702011497848, 5943.137443635866]",None,"[25.657864776754597, 9.5808718829304, 18.0, 9.204042212469089]",False,751.7432645000517,754.0111331000226,754.0111331000226,755.2264472000534,['space'],1,[0.5736946000251919],2.67181753332261,3.700818633311428,None,1,None,1,,,,,,,rdzaqd,001,fr,0,0,2022-05-06_14h32.44.031,Cluster,2022.1.1,None,
,,,,5,0,5,0,10,0,10,0,,,both,,,,,,,,,,,,,,,,,,,,,,,,,,,,,,,,,,,,,,,,,,,,,,,,,,,,,,,,,,,,,,,,,,,,,,,,,,,,,,,,,,,,,,,,,,,,,,,,,,,,,,,,,,,,,,,,,,,755.4940831999993,None,395.26745846744484,18.0,0.0006178521988590135,1,"[0.5827211124731545, 0.5827211124731545, 0.5827211124731545, 0.5827211124731545]","[156.86199484500466, 197.63372923372245, 249.00289563079065, 313.72398969000926]",Major_3rd,"[25.65234502824306, 24.112279518464348, 23.493321563251698, 24.12229882851687]",False,756.4984532000963,759.285528800101,759.285528800101,760.5156433000229,['space'],1,[0.4749903999036178],3.357668566633947,4.403342966688797,None,1,None,1,,,,,,,rdzaqd,001,fr,0,0,2022-05-06_14h32.44.031,Cluster,2022.1.1,None,
,,,,5,0,5,0,11,0,11,0,,,frequency,,,,,,,,,,,,,,,,,,,,,,,,,,,,,,,,,,,,,,,,,,,,,,,,,,,,,,,,,,,,,,,,,,,,,,,,,,,,,,,,,,,,,,,,,,,,,,,,,,,,,,,,,,,,,,,,,,,760.9557198000839,None,8000.0,-1.0,0.00016179682846481421,1,"[0.5660058218068006, 0.7827751586803476, 0.7020521917115775, 0.5256857953980427]","[1587.4010519681997, 2378.4142300054423, 3563.5948725613575, 5339.359416680138]",Perfect_5th,"[8.0, 5.260599938988865, 5.734165779963748, 9.5808718829304]",False,761.9914286000421,765.0840568999993,765.0840568999993,766.3203193000518,['space'],1,[0.40756570000667125],3.581556766643189,4.622581066680141,None,1,None,1,,,,,,,rdzaqd,001,fr,0,0,2022-05-06_14h32.44.031,Cluster,2022.1.1,None,
,,,,5,0,5,0,12,0,12,0,,,both,,,,,,,,,,,,,,,,,,,,,,,,,,,,,,,,,,,,,,,,,,,,,,,,,,,,,,,,,,,,,,,,,,,,,,,,,,,,,,,,,,,,,,,,,,,,,,,,,,,,,,,,,,,,,,,,,,,766.6729818000458,None,3482.202253184498,6.0,0.00014934683253380802,0,"[0.672967704562022, 0.672967704562022, 0.672967704562022, 0.672967704562022]","[1381.9128799677774, 1741.1011265922498, 2193.6499593892536, 2763.825759935554]",Major_3rd,"[12.0, 5.890979483582172, 5.0, 5.960003624663175]",False,767.6961608000565,770.7610556000145,770.7610556000145,771.9826759001007,None,0,,3.7197469333186746,4.7617112332955,None,1,None,1,,,,,,,rdzaqd,001,fr,0,0,2022-05-06_14h32.44.031,Cluster,2022.1.1,None,
,,,,5,0,5,0,13,0,13,0,,,both,,,,,,,,,,,,,,,,,,,,,,,,,,,,,,,,,,,,,,,,,,,,,,,,,,,,,,,,,,,,,,,,,,,,,,,,,,,,,,,,,,,,,,,,,,,,,,,,,,,,,,,,,,,,,,,,,,,772.5049062999897,None,477.0971192153442,16.0,0.0004581694279526781,0,"[0.5766160383919376, 0.5766160383919376, 0.5766160383919376, 0.5766160383919376]","[1202.2094066872319, 954.1942384306884, 757.3444689334349, 601.1047033436159]",Major_3rd,"[17.0, 19.004327458869362, 17.99259359280647, 19.0]",False,773.5268208000343,776.2807654000353,776.2807654000353,777.4966546000214,None,0,,3.3350542666157708,4.351682766689919,None,1,None,1,,,,,,,rdzaqd,001,fr,0,0,2022-05-06_14h32.44.031,Cluster,2022.1.1,None,
,,,,5,0,5,0,14,0,14,0,,,time,,,,,,,,,,,,,,,,,,,,,,,,,,,,,,,,,,,,,,,,,,,,,,,,,,,,,,,,,,,,,,,,,,,,,,,,,,,,,,,,,,,,,,,,,,,,,,,,,,,,,,,,,,,,,,,,,,,777.9307092000963,None,165.39233963829884,19.423428007499954,0.0036633954636407246,1,"[0.48163397435460675, 0.48163397435460675, 0.48163397435460675, 0.48163397435460675]","[504.1845091756384, 4547.4899694987935, 5283.68348164641, 1229.8258984045476]",None,"[21.0, 8.0, 9.5808718829304, 16.0]",False,778.9540725999977,781.4215127000352,781.4215127000352,782.6392104000552,['space'],1,[0.33299399993848056],2.9487033667974174,3.983283966779709,None,1,None,1,,,,,,,rdzaqd,001,fr,0,0,2022-05-06_14h32.44.031,Cluster,2022.1.1,None,
,,,,5,0,5,0,15,0,15,0,,,none,,,,,,,,,,,,,,,,,,,,,,,,,,,,,,,,,,,,,,,,,,,,,,,,,,,,,,,,,,,,,,,,,,,,,,,,,,,,,,,,,,,,,,,,,,,,,,,,,,,,,,,,,,,,,,,,,,,782.989474400063,None,4924.577653379667,-6.0,7.395346242294152e-05,0,"[0.6015338332584592, 0.6727379108856859, 0.5295085456172519, 0.6491868966074208]","[187.3185679855272, 264.3292314672058, 7987.652747803018, 3794.275479076749]",None,"[24.56610200717843, 23.618090464956765, 3.8946294733858866, 6.0]",False,784.0836673000595,786.911165400059,786.911165400059,788.1402873999905,None,0,,3.468065833323635,4.497102533350699,None,1,None,1,,,,,,,rdzaqd,001,fr,0,0,2022-05-06_14h32.44.031,Cluster,2022.1.1,None,
,,,,5,0,5,0,16,0,16,0,,,frequency,,,,,,,,,,,,,,,,,,,,,,,,,,,,,,,,,,,,,,,,,,,,,,,,,,,,,,,,,,,,,,,,,,,,,,,,,,,,,,,,,,,,,,,,,,,,,,,,,,,,,,,,,,,,,,,,,,,788.6341796000488,None,473.14530002199615,16.0,0.0004594434893505923,1,"[0.41778846115448554, 0.4401367649543917, 0.6703679913094698, 0.4283835339584652]","[751.0713469887262, 669.1285002641941, 596.1257231565382, 531.0876426106427]",Tone,"[17.99259359280647, 18.091308165430455, 19.0, 20.179488091888764]",False,789.632997800014,792.1776753000449,792.1776753000449,793.3955734000774,['space'],1,[0.37536499998532236],2.9955240667331964,4.012173566734418,None,1,None,1,,,,,,,rdzaqd,001,fr,0,0,2022-05-06_14h32.44.031,Cluster,2022.1.1,None,
,,,,5,0,5,0,17,0,17,0,,,both,,,,,,,,,,,,,,,,,,,,,,,,,,,,,,,,,,,,,,,,,,,,,,,,,,,,,,,,,,,,,,,,,,,,,,,,,,,,,,,,,,,,,,,,,,,,,,,,,,,,,,,,,,,,,,,,,,,793.6960348000284,None,,,,,"[0.4041126294363379, 0.4041126294363379, 0.4041126294363379, 0.4041126294363379]","[1289.0864392599212, 860.361977297141, 574.2227281543791, 383.2476913553553]",Perfect_5th,"[15.0, 18.693979025111148, 19.284917039316973, 24.0]",True,794.6992364000762,796.9393983000191,796.9393983000191,798.1679441001033,None,1,,2.6348354666261002,3.6496079666540027,None,1,None,1,0,,,,,,rdzaqd,001,fr,0,0,2022-05-06_14h32.44.031,Cluster,2022.1.1,None,
,,,,5,0,5,0,18,0,18,0,,,none,,,,,,,,,,,,,,,,,,,,,,,,,,,,,,,,,,,,,,,,,,,,,,,,,,,,,,,,,,,,,,,,,,,,,,,,,,,,,,,,,,,,,,,,,,,,,,,,,,,,,,,,,,,,,,,,,,,798.3911620000144,None,2538.4885531726113,-0.3541321529163633,8.016756982665229e-05,0,"[0.702983028081827, 0.44643463618307083, 0.7706393890946135, 0.41212394520206913]","[395.04932222127314, 141.4012760974332, 2034.9974447929144, 4095.5812300393277]",None,"[24.0, 25.657864776754597, 4.741683434789566, 7.0]",False,799.410592900007,802.3612085999921,802.3612085999921,803.5946844000136,None,0,,3.379132066620514,4.4047316666692495,None,1,None,1,,,,,,,rdzaqd,001,fr,0,0,2022-05-06_14h32.44.031,Cluster,2022.1.1,None,
,,,,5,0,5,0,19,0,19,0,,,both,,,,,,,,,,,,,,,,,,,,,,,,,,,,,,,,,,,,,,,,,,,,,,,,,,,,,,,,,,,,,,,,,,,,,,,,,,,,,,,,,,,,,,,,,,,,,,,,,,,,,,,,,,,,,,,,,,,803.8684102999978,None,217.63764082403114,15.0,0.0012983715067005196,0,"[0.5030318973213952, 0.5030318973213952, 0.5030318973213952, 0.5030318973213952]","[548.4124898473133, 435.27528164806233, 345.47821999194423, 274.20624492365664]",Major_3rd,"[20.0, 23.003285969918135, 24.34575158242586, 23.618090464956765]",False,804.8938324000919,807.439213900012,807.439213900012,808.6703902001027,None,0,,3.030475666746497,4.062812566757202,None,1,None,1,,,,,,,rdzaqd,001,fr,0,0,2022-05-06_14h32.44.031,Cluster,2022.1.1,None,
,,,,6,0,6,0,0,0,0,0,,,both,,,,,,,,,,,,,,,,,,,,,,,,,,,,,,,,,,,,,,,,,,,,,,,,,,,,,,,,,,,,,,,,,,,,,,,,,,,,,,,,,,,,,,,,,,,,,,,,,,,,,,,,,,,,,,,,,,,810.8114747999934,None,201.65260482179605,18.112279518464348,0.0021098619625288233,1,"[0.6641216499295615, 0.6641216499295615, 0.6641216499295615, 0.6641216499295615]","[320.10355702624673, 285.1798486268462, 254.06636158111326, 226.34739585519375]",Tone,"[24.315909985835255, 23.854540953153773, 23.493321563251698, 23.531253110563384]",False,811.8151486000279,814.8356700000586,814.8356700000586,816.0510257000569,['space'],1,[0.4164782000007108],3.682794166728854,4.724167466745712,None,1,None,1,,,,,,,rdzaqd,001,fr,0,0,2022-05-06_14h32.44.031,Cluster,2022.1.1,None,
,,,,6,0,6,0,1,0,1,0,,,time,,,,,,,,,,,,,,,,,,,,,,,,,,,,,,,,,,,,,,,,,,,,,,,,,,,,,,,,,,,,,,,,,,,,,,,,,,,,,,,,,,,,,,,,,,,,,,,,,,,,,,,,,,,,,,,,,,,816.5961737000616,None,435.2752816480623,11.0,0.00026522982363892667,1,"[0.5534867643008073, 0.5534867643008073, 0.5534867643008073, 0.5534867643008073]","[1216.7175017319544, 582.8498876671061, 518.6928874397382, 3888.6732725616025]",None,"[16.0, 19.0, 21.0, 6.493070110718627]",False,817.6352212000638,820.3362572999904,820.3362572999904,821.5783961000852,['space'],1,[0.4498083000071347],3.2325396332889795,4.246469033299945,None,1,None,1,,,,,,,rdzaqd,001,fr,0,0,2022-05-06_14h32.44.031,Cluster,2022.1.1,None,
,,,,6,0,6,0,2,0,2,0,,,none,,,,,,,,,,,,,,,,,,,,,,,,,,,,,,,,,,,,,,,,,,,,,,,,,,,,,,,,,,,,,,,,,,,,,,,,,,,,,,,,,,,,,,,,,,,,,,,,,,,,,,,,,,,,,,,,,,,821.9281435000012,None,,,,,"[0.581380173936981, 0.45508075502617906, 0.7529050613043615, 0.4300152301505125]","[907.5651354521983, 473.5383131881094, 1419.9902116875624, 2972.5986663780864]",None,"[19.0, 22.0, 11.615651520037542, 5.868312522825567]",True,822.9363136000466,825.7608278000262,825.7608278000262,826.9979831000092,['space'],0,[0.7721831999951974],3.2469176666345447,4.276171066681854,None,1,None,1,0,,,,,,rdzaqd,001,fr,0,0,2022-05-06_14h32.44.031,Cluster,2022.1.1,None,
,,,,6,0,6,0,3,0,3,0,,,both,,,,,,,,,,,,,,,,,,,,,,,,,,,,,,,,,,,,,,,,,,,,,,,,,,,,,,,,,,,,,,,,,,,,,,,,,,,,,,,,,,,,,,,,,,,,,,,,,,,,,,,,,,,,,,,,,,,827.2623679999961,None,8000.0,-5.0,0.00010208689723347648,1,"[0.7341391759375849, 0.7341391759375849, 0.7341391759375849, 0.7341391759375849]","[5039.684199579492, 5656.8542494923795, 6349.604207872798, 7127.189745122714]",Tone,"[9.028398643114974, 9.668480869467476, 8.207358387276932, 6.0]",False,828.2907822000561,831.5171853000065,831.5171853000065,832.7412605000427,['space'],1,[0.37083150004036725],3.9563717333367094,4.993414833326824,None,1,None,1,,,,,,,rdzaqd,001,fr,0,0,2022-05-06_14h32.44.031,Cluster,2022.1.1,None,
,,,,6,0,6,0,4,0,4,0,,,none,,,,,,,,,,,,,,,,,,,,,,,,,,,,,,,,,,,,,,,,,,,,,,,,,,,,,,,,,,,,,,,,,,,,,,,,,,,,,,,,,,,,,,,,,,,,,,,,,,,,,,,,,,,,,,,,,,,833.3354454000946,None,164.93848884661182,12.0,0.0015651004536898975,0,"[0.6808694738686796, 0.6894938784850896, 0.6285075187926972, 0.42708939687243747]","[2492.1941919754245, 3925.453530396597, 1724.4498457222323, 367.3591672499612]",None,"[5.645867847083637, 6.493070110718627, 6.0, 24.14720206948669]",False,834.3507877000375,837.3758974000812,837.3758974000812,838.6131155000767,None,0,,3.429640066693537,4.462373866699636,None,1,None,1,,,,,,,rdzaqd,001,fr,0,0,2022-05-06_14h32.44.031,Cluster,2022.1.1,None,
,,,,6,0,6,0,5,0,5,0,,,time,,,,,,,,,,,,,,,,,,,,,,,,,,,,,,,,,,,,,,,,,,,,,,,,,,,,,,,,,,,,,,,,,,,,,,,,,,,,,,,,,,,,,,,,,,,,,,,,,,,,,,,,,,,,,,,,,,,838.8773227999918,None,6146.279955143515,3.0,0.00017340810790332465,0,"[0.4019062166421148, 0.4019062166421148, 0.4019062166421148, 0.4019062166421148]","[479.97917258072505, 466.92831025653214, 571.9996699762278, 333.46156902277056]",None,"[22.0, 22.133902068025165, 19.284917039316973, 24.315909985835255]",False,839.8817426000023,842.121418200084,842.121418200084,843.3646626000991,None,0,,2.6455786667065695,3.666112866718322,None,1,None,1,,,,,,,rdzaqd,001,fr,0,0,2022-05-06_14h32.44.031,Cluster,2022.1.1,None,
,,,,6,0,6,0,6,0,6,0,,,time,,,,,,,,,,,,,,,,,,,,,,,,,,,,,,,,,,,,,,,,,,,,,,,,,,,,,,,,,,,,,,,,,,,,,,,,,,,,,,,,,,,,,,,,,,,,,,,,,,,,,,,,,,,,,,,,,,,843.5956413000822,None,,,,,"[0.684235374841544, 0.684235374841544, 0.684235374841544, 0.684235374841544]","[5231.813758804784, 577.3975668159728, 1902.4862066128833, 4829.449615399134]",None,"[9.5808718829304, 19.284917039316973, 5.0, 9.0]",True,844.6213789000176,847.7105541999917,847.7105541999917,848.9399753999896,None,1,,3.781305466662161,4.798994466662407,None,1,None,1,0,,,,,,rdzaqd,001,fr,0,0,2022-05-06_14h32.44.031,Cluster,2022.1.1,None,
,,,,6,0,6,0,7,0,7,0,,,time,,,,,,,,,,,,,,,,,,,,,,,,,,,,,,,,,,,,,,,,,,,,,,,,,,,,,,,,,,,,,,,,,,,,,,,,,,,,,,,,,,,,,,,,,,,,,,,,,,,,,,,,,,,,,,,,,,,849.4615447000833,None,1071.7734625362941,5.0,8.367608612606695e-05,0,"[0.5624386084126856, 0.5624386084126856, 0.5624386084126856, 0.5624386084126856]","[254.5441846586249, 809.4267829373833, 1190.3264077883073, 629.3515199973576]",None,"[23.493321563251698, 18.300670454568305, 17.0, 18.56335264732024]",False,850.47652320005,853.1820026000496,853.1820026000496,854.4155612000031,None,0,,3.2600867667933926,4.282211366808042,None,1,None,1,,,,,,,rdzaqd,001,fr,0,0,2022-05-06_14h32.44.031,Cluster,2022.1.1,None,
,,,,6,0,6,0,8,0,8,0,,,time,,,,,,,,,,,,,,,,,,,,,,,,,,,,,,,,,,,,,,,,,,,,,,,,,,,,,,,,,,,,,,,,,,,,,,,,,,,,,,,,,,,,,,,,,,,,,,,,,,,,,,,,,,,,,,,,,,,854.8212546000723,None,326.656569148688,18.315909985835255,0.0007874638331015865,0,"[0.48211511323233935, 0.48211511323233935, 0.48211511323233935, 0.48211511323233935]","[6702.239319966268, 539.1562672784905, 5918.382783244621, 172.46247331672538]",None,"[8.0, 20.179488091888764, 9.204042212469089, 25.032957429512688]",False,855.8469904999947,858.3229501000606,858.3229501000606,859.5528586000437,None,0,,2.961088166804984,3.9799879668280482,None,1,None,1,,,,,,,rdzaqd,001,fr,0,0,2022-05-06_14h32.44.031,Cluster,2022.1.1,None,
,,,,6,0,6,0,9,0,9,0,,,none,,,,,,,,,,,,,,,,,,,,,,,,,,,,,,,,,,,,,,,,,,,,,,,,,,,,,,,,,,,,,,,,,,,,,,,,,,,,,,,,,,,,,,,,,,,,,,,,,,,,,,,,,,,,,,,,,,,859.882229500101,None,665.3828299640278,12.091308165430453,0.00019335960284409107,1,"[0.5313081713458139, 0.5924770920417383, 0.6018450120493386, 0.753815537975862]","[3585.4636288280035, 7999.654959542402, 511.43733547578444, 172.50702550087914]",None,"[5.734165779963748, 3.8946294733858866, 21.0, 25.032957429512688]",False,860.9094785000198,863.6674024000531,863.6674024000531,864.8992260000668,['space'],1,[0.07308900007046759],3.508312866673805,4.530439166701399,None,1,None,1,,,,,,,rdzaqd,001,fr,0,0,2022-05-06_14h32.44.031,Cluster,2022.1.1,None,
,,,,6,0,6,0,10,0,10,0,,,none,,,,,,,,,,,,,,,,,,,,,,,,,,,,,,,,,,,,,,,,,,,,,,,,,,,,,,,,,,,,,,,,,,,,,,,,,,,,,,,,,,,,,,,,,,,,,,,,,,,,,,,,,,,,,,,,,,,865.488795000012,None,,,,,"[0.5085682169596759, 0.5564024970955767, 0.7007074367867101, 0.6220361356632006]","[4183.714500806498, 596.1027970837733, 4621.071219862854, 4702.2216224244885]",None,"[7.0, 19.0, 8.190404381033082, 8.190404381033082]",True,866.5081582000712,869.2963716000086,869.2963716000086,870.5328576000175,None,1,,3.4244287667097524,4.4417564667528495,None,1,None,1,0,,,,,,rdzaqd,001,fr,0,0,2022-05-06_14h32.44.031,Cluster,2022.1.1,None,
,,,,6,0,6,0,11,0,11,0,,,none,,,,,,,,,,,,,,,,,,,,,,,,,,,,,,,,,,,,,,,,,,,,,,,,,,,,,,,,,,,,,,,,,,,,,,,,,,,,,,,,,,,,,,,,,,,,,,,,,,,,,,,,,,,,,,,,,,,870.9911553000566,None,8000.0,-6.0,9.098504293049921e-05,0,"[0.5369566229971702, 0.7369105239380652, 0.42720116641359884, 0.41096632443463865]","[7931.497777113538, 6790.451276302304, 4600.704235881894, 318.04009789932655]",None,"[4.0, 7.0, 8.190404381033082, 24.12229882851687]",False,872.0323250000365,874.7733068000525,874.7733068000525,875.9967392000835,None,0,,3.1369641333585605,4.1707687333691865,None,1,None,1,,,,,,,rdzaqd,001,fr,0,0,2022-05-06_14h32.44.031,Cluster,2022.1.1,None,
,,,,6,0,6,0,12,0,12,0,,,none,,,,,,,,,,,,,,,,,,,,,,,,,,,,,,,,,,,,,,,,,,,,,,,,,,,,,,,,,,,,,,,,,,,,,,,,,,,,,,,,,,,,,,,,,,,,,,,,,,,,,,,,,,,,,,,,,,,876.2460819000844,None,172.12166286170046,19.032957429512688,0.0032830973437189405,1,"[0.4248459934199721, 0.46113154342657686, 0.6115179205169354, 0.7438584141915441]","[4539.382317480583, 2430.26110350661, 4799.80734772484, 6924.529657369907]",None,"[8.0, 5.645867847083637, 9.0, 7.0]",False,877.266433400102,879.7911932000425,879.7911932000425,881.0083040000172,['space'],1,[0.28010239999275655],3.27994866669178,4.303498766734265,None,1,None,1,,,,,,,rdzaqd,001,fr,0,0,2022-05-06_14h32.44.031,Cluster,2022.1.1,None,
,,,,6,0,6,0,13,0,13,0,,,frequency,,,,,,,,,,,,,,,,,,,,,,,,,,,,,,,,,,,,,,,,,,,,,,,,,,,,,,,,,,,,,,,,,,,,,,,,,,,,,,,,,,,,,,,,,,,,,,,,,,,,,,,,,,,,,,,,,,,881.6276850000722,None,125.0,22.0,0.00909850429304992,1,"[0.6270794676907548, 0.6247852171058128, 0.4057700384543081, 0.7417462254348254]","[198.42513149602502, 176.77669529663694, 157.49013123685918, 140.30775603867164]",Tone,"[24.112279518464348, 25.032957429512688, 25.65234502824306, 25.657864776754597]",False,882.6364240000257,885.3193757000845,885.3193757000845,886.5362972000148,['space'],1,[0.571837899973616],3.429362866678275,4.4818515666993335,None,1,None,1,,,,,,,rdzaqd,001,fr,0,0,2022-05-06_14h32.44.031,Cluster,2022.1.1,None,
,,,,6,0,6,0,14,0,14,0,,,time,,,,,,,,,,,,,,,,,,,,,,,,,,,,,,,,,,,,,,,,,,,,,,,,,,,,,,,,,,,,,,,,,,,,,,,,,,,,,,,,,,,,,,,,,,,,,,,,,,,,,,,,,,,,,,,,,,,887.1783563999925,None,,,,,"[0.537158120354511, 0.537158120354511, 0.537158120354511, 0.537158120354511]","[289.3346732764679, 1266.3670037209026, 2809.780040389578, 1460.9933708259668]",None,"[23.854540953153773, 15.0, 5.960003624663175, 11.0]",True,888.1953995000804,890.8197410000721,890.8197410000721,892.038446700084,None,1,,3.184027466690168,4.204267266672105,None,1,None,1,0,,,,,,rdzaqd,001,fr,0,0,2022-05-06_14h32.44.031,Cluster,2022.1.1,None,
,,,,6,0,6,0,15,0,15,0,,,frequency,,,,,,,,,,,,,,,,,,,,,,,,,,,,,,,,,,,,,,,,,,,,,,,,,,,,,,,,,,,,,,,,,,,,,,,,,,,,,,,,,,,,,,,,,,,,,,,,,,,,,,,,,,,,,,,,,,,892.4434339000145,None,1821.9527382308904,-0.9685001953584343,5.972717188637745e-05,0,"[0.47756518614669036, 0.5843366146881799, 0.5203594127157214, 0.4911989817297004]","[1147.7583034053512, 1288.3151362044614, 1446.0848466520285, 1623.1753590021815]",Tone,"[17.572487412297008, 15.0, 11.0, 7.361201396019053]",False,893.465892200009,896.0772215999896,896.0772215999896,897.3124033000786,None,0,,3.100710566737689,4.112994366791099,None,1,None,1,,,,,,,rdzaqd,001,fr,0,0,2022-05-06_14h32.44.031,Cluster,2022.1.1,None,
,,,,6,0,6,0,16,0,16,0,,,frequency,,,,,,,,,,,,,,,,,,,,,,,,,,,,,,,,,,,,,,,,,,,,,,,,,,,,,,,,,,,,,,,,,,,,,,,,,,,,,,,,,,,,,,,,,,,,,,,,,,,,,,,,,,,,,,,,,,,897.6301035000943,None,5278.031643091578,-4.0,8.990717583908555e-05,0,"[0.533000830274123, 0.7023286723252062, 0.7277435140477267, 0.46762160586899776]","[1047.294122820627, 1569.168195793502, 2351.095812567218, 3522.6634943845947]",Perfect_5th,"[18.586177919475155, 8.0, 5.260599938988865, 5.734165779963748]",False,899.6523209000006,902.6274431000929,902.6274431000929,903.8522891000612,None,0,,3.4409344332525507,4.455219733295962,None,1,None,1,,,,,,,rdzaqd,001,fr,0,0,2022-05-06_14h32.44.031,Cluster,2022.1.1,None,
,,,,6,0,6,0,17,0,17,0,,,time,,,,,,,,,,,,,,,,,,,,,,,,,,,,,,,,,,,,,,,,,,,,,,,,,,,,,,,,,,,,,,,,,,,,,,,,,,,,,,,,,,,,,,,,,,,,,,,,,,,,,,,,,,,,,,,,,,,904.1759380000876,None,189.4645708137998,16.0,0.001916924246771917,0,"[0.7307507816154886, 0.7307507816154886, 0.7307507816154886, 0.7307507816154886]","[4551.264386231653, 6393.129356482417, 700.0836280279075, 4337.981312460238]",None,"[8.0, 8.207358387276932, 17.900269021903046, 7.279424043043629]",False,905.2532327000517,908.4654493000126,908.4654493000126,909.6997472000076,None,0,,3.9590220998506993,5.0046136998571455,None,1,None,1,,,,,,,rdzaqd,001,fr,0,0,2022-05-06_14h32.44.031,Cluster,2022.1.1,None,
