sweeps.thisRepN,sweeps.thisTrialN,sweeps.thisN,sweeps.thisIndex,trials.thisRepN,trials.thisTrialN,trials.thisN,trials.thisIndex,instructions.started,instructions.stopped,blank_text.started,blank_text.stopped,Intervals,text.started,text.stopped,Delay,Prediction,Frequency,Volume,Psychopy_level,isCatchTrial,len(y),finished_audiograms,probe.started,probe.stopped,feedback.keys,feedback.started,feedback.stopped,ISI.started,ISI.stopped,text_2.started,text_2.stopped,feedback.rt,break_txt.started,break_txt.stopped,,Audiogram_none,Audiogram_frequency,participant,session,language (english or french),Resume previous experiment,date,expName,psychopyVersion,frameRate,
0,0,0,0,0,0,0,0,31.744907999993302,None,47.58852820005268,None,"[0.3333333333333333, 0.16666666666666666, 0.5833333333333334, 0.3333333333333333, 0.3333333333333333, 0.16666666666666666, 0.16666666666666666, 0.5833333333333334, 0.16666666666666666, 0.5833333333333334, 0.3333333333333333, 0.3333333333333333, 0.3333333333333333, 0.3333333333333333, 0.16666666666666666]",50.06016360002104,None,2.9428640148463234,none,530.0,15.943668175563367,0.000418533499420381,0,26,[],0.012085566762834787,None,None,51.09651960001793,None,0.2394343668129295,3.182298381659253,51.32685310009401,None,,,,,,,rdzaqd,001,fr,0,2022-05-06_15h06.45.512,Continuous,2022.1.1,34.900396010048766,
0,0,0,0,1,0,1,0,,,,,,,,1.2583309745351559,none,,,,1,26,[],0.011126066674478352,None,['space'],54.255274299997836,54.255274299997836,0.2142594667384401,1.472590441273596,54.477389900013804,54.255274299997836,[-1.5044834000291303],,,,,,rdzaqd,001,fr,0,2022-05-06_15h06.45.512,Continuous,2022.1.1,34.900396010048766,
0,0,0,0,2,0,2,0,,,,,,,,1.6088955505663438,none,210.0,17.690236867815553,0.0018844413448443201,0,27,[],0.013119366834871471,None,None,55.730605000047944,55.730605000047944,0.2219507668633014,1.8308463174296452,55.94474030006677,55.730605000047944,,,,,,,rdzaqd,001,fr,0,2022-05-06_15h06.45.512,Continuous,2022.1.1,34.900396010048766,
0,0,0,0,3,0,3,0,,,,,,,,2.3582011352745416,none,133.0,16.158363384652198,0.0041863046264087374,0,28,[],0.011986166704446077,None,['space'],57.55164040008094,57.55164040008094,0.22960076667368412,2.5878019019482257,57.770239300094545,57.55164040008094,[-1.4417985000181943],,,,,,rdzaqd,001,fr,0,2022-05-06_15h06.45.512,Continuous,2022.1.1,34.900396010048766,
0,0,0,0,4,0,4,0,,,,,,,,1.0271772183486438,none,842.0,13.567135861690383,0.00018863954851270758,0,29,[],0.01188366673886776,None,None,60.11875030002557,60.11875030002557,0.21991566673386842,1.2470928850825123,60.33371919998899,60.11875030002557,,,,,,,rdzaqd,001,fr,0,2022-05-06_15h06.45.512,Continuous,2022.1.1,34.900396010048766,
0,0,0,0,5,0,5,0,,,,,,,,1.9740113562576307,none,187.0,18.134568542807944,0.0025233553486913875,0,30,[],0.011755866813473403,None,['space'],61.35636249999516,61.35636249999516,0.22247416677419096,2.1964855230318214,61.57462440000381,61.35636249999516,[-0.11022379994392395],,,,,,rdzaqd,001,fr,0,2022-05-06_15h06.45.512,Continuous,2022.1.1,34.900396010048766,
0,0,0,0,6,0,6,0,,,,,,,,2.596125389601113,none,668.0,13.513705209315113,0.0002266766421153103,0,31,[],0.011748566757887602,None,None,63.54832860000897,63.54832860000897,0.20268136670347303,2.798806756304586,63.75713780010119,63.54832860000897,,,,,,,rdzaqd,001,fr,0,2022-05-06_15h06.45.512,Continuous,2022.1.1,34.900396010048766,
0,0,0,0,7,0,7,0,,,,,,,,2.7312666019127683,none,1501.0,12.71765866674063,0.00020922416564963066,0,32,[],0.011417166562750936,None,['space'],66.34642110008281,66.34642110008281,0.21761936659459025,2.9488859685073585,66.57054079999216,66.34642110008281,[-1.8364453000249341],,,,,,rdzaqd,001,fr,0,2022-05-06_15h06.45.512,Continuous,2022.1.1,34.900396010048766,
0,0,0,0,8,0,8,0,,,,,,,,1.1765169595968266,none,1061.0,14.584915263592004,0.0002498434729477894,0,33,[],0.0062823668122291565,None,['space'],69.29242820001673,69.29242820001673,0.2096597667550668,1.3861767263518934,69.51077910000458,69.29242820001673,[-1.9979148000711575],,,,,,rdzaqd,001,fr,0,2022-05-06_15h06.45.512,Continuous,2022.1.1,34.900396010048766,
0,0,0,0,9,0,9,0,,,,,,,,2.5135675250259903,none,1337.0,8.706730895239144,0.00014264200063849848,0,34,[],0.009573366725817323,None,['space'],70.69051320001017,70.69051320001017,0.2216332667740062,2.7352007917999965,70.91235190001316,70.69051320001017,[-0.7399994999868795],,,,,,rdzaqd,001,fr,0,2022-05-06_15h06.45.512,Continuous,2022.1.1,34.900396010048766,
0,0,0,0,10,0,10,0,,,,,,,,2.6696292007832536,none,354.0,16.0,0.000558374449541685,0,35,[],0.01157106680329889,None,['space'],73.42614380002487,73.42614380002487,0.22471146681346,2.8943406675967136,73.64904670009855,73.42614380002487,[-0.2440982999978587],,,,,,rdzaqd,001,fr,0,2022-05-06_15h06.45.512,Continuous,2022.1.1,34.900396010048766,
0,0,0,0,11,0,11,0,,,,,,,,2.2598086552578707,none,315.0,16.405662404966872,0.0006520083004387309,0,36,[],0.01014546665828675,None,None,76.31274289998692,76.31274289998692,0.2127438667230308,2.4725525219809015,76.53739910002332,76.31274289998692,,,,,,,rdzaqd,001,fr,0,2022-05-06_15h06.45.512,Continuous,2022.1.1,34.900396010048766,
1,0,1,0,0,0,0,0,,,,,"[0.3333333333333333, 0.16666666666666666, 0.5833333333333334, 0.3333333333333333, 0.16666666666666666, 0.3333333333333333, 0.3333333333333333, 0.16666666666666666, 0.3333333333333333, 0.3333333333333333, 0.16666666666666666, 0.5833333333333334, 0.5833333333333334, 0.16666666666666666, 0.5833333333333334]",81.8858740000287,None,1.3454167059620985,time,157.0,17.42186273462172,0.0032538567366940364,0,26,[],0.012637666775844991,0.21007956680841744,None,82.92551390000153,None,0.21007956680841744,1.555496272770516,83.136230800068,None,,78.79113860009238,None,,,,rdzaqd,001,fr,0,2022-05-06_15h06.45.512,Continuous,2022.1.1,34.900396010048766,
1,0,1,0,1,0,1,0,,,,,,,,1.3454167059620985,time,501.0,15.658014303741735,0.0004324355558084308,0,27,[],0.011067966814152896,None,None,84.4773801000556,84.4773801000556,0.2199897668324411,1.5654064727945396,84.69147530000191,84.4773801000556,,,,,,,rdzaqd,001,fr,0,2022-05-06_15h06.45.512,Continuous,2022.1.1,34.900396010048766,
1,0,1,0,2,0,2,0,,,,,,,,1.3454167059620985,time,1263.0,9.258576840809626,0.00015733297673672456,0,28,[],0.011479666572995484,None,['space'],86.03947230009362,86.03947230009362,0.22897336666937917,1.5743900726314777,86.26000970008317,86.03947230009362,[-0.9368649000534788],,,,,,rdzaqd,001,fr,0,2022-05-06_15h06.45.512,Continuous,2022.1.1,34.900396010048766,
1,0,1,0,3,0,3,0,,,,,,,,1.3454167059620985,time,281.0,17.36749871582119,0.0009943800410288398,0,29,[],0.011375566711649299,None,None,87.60289970005397,87.60289970005397,0.2305670666974038,1.5759837726595023,87.82333230006043,87.60289970005397,,,,,,,rdzaqd,001,fr,0,2022-05-06_15h06.45.512,Continuous,2022.1.1,34.900396010048766,
1,0,1,0,4,0,4,0,,,,,,,,1.3454167059620985,time,354.0,16.0,0.000558374449541685,0,30,[],0.011506066774018109,None,['space'],89.16423260001466,89.16423260001466,0.23054686677642167,1.5759635727385202,89.38701370009221,89.16423260001466,[-0.33286890003364533],,,,,,rdzaqd,001,fr,0,2022-05-06_15h06.45.512,Continuous,2022.1.1,34.900396010048766,
1,0,1,0,5,0,5,0,,,,,,,,1.3454167059620985,time,,,,1,30,[],0.010868466808460653,None,None,90.72782540007029,90.72782540007029,0.2218489667866379,1.5672656727487364,90.94644229998812,90.72782540007029,,,,,,,rdzaqd,001,fr,0,2022-05-06_15h06.45.512,Continuous,2022.1.1,34.900396010048766,
1,0,1,0,6,0,6,0,,,,,,,,1.3454167059620985,time,446.0,16.83095764460733,0.0005151986845323651,0,31,[],0.012514266767539084,None,None,92.2833888999885,92.2833888999885,0.23154926672577858,1.576965972687877,92.50681420008186,92.2833888999885,,,,,,,rdzaqd,001,fr,0,2022-05-06_15h06.45.512,Continuous,2022.1.1,34.900396010048766,
1,0,1,0,7,0,7,0,,,,,,,,1.3454167059620985,time,250.0,16.80294201474877,0.0011590898561059913,0,32,[],0.0022984667448326945,None,['space'],93.85070459998678,93.85070459998678,0.20807486679404974,1.5534915727561482,94.0692246000981,93.85070459998678,[-0.12349090003408492],,,,,,rdzaqd,001,fr,0,2022-05-06_15h06.45.512,Continuous,2022.1.1,34.900396010048766,
1,0,1,0,8,0,8,0,,,,,,,,1.3454167059620985,time,751.0,15.880270946989638,0.0002526372577428503,0,33,[],0.011219666572287679,None,None,95.41584420006257,95.41584420006257,0.21532876661513,1.5607454725772285,95.63155270006973,95.41584420006257,,,,,,,rdzaqd,001,fr,0,2022-05-06_15h06.45.512,Continuous,2022.1.1,34.900396010048766,
1,0,1,0,9,0,9,0,,,,,,,,1.3454167059620985,time,140.0,16.586119055125025,0.003976969067312315,0,34,[],0.011364266742020845,None,['space'],96.97317620005924,96.97317620005924,0.21547666669357568,1.5608933726556742,97.18890900001861,96.97317620005924,[-0.6382279000245035],,,,,,rdzaqd,001,fr,0,2022-05-06_15h06.45.512,Continuous,2022.1.1,34.900396010048766,
1,0,1,0,10,0,10,0,,,,,,,,1.3454167059620985,time,198.0,16.859863829542952,0.001899853077086465,0,35,[],0.011084566707722843,None,None,98.53538790007588,98.53538790007588,0.23327686672564596,1.5786935726877445,98.76435780001339,98.53538790007588,,,,,,,rdzaqd,001,fr,0,2022-05-06_15h06.45.512,Continuous,2022.1.1,34.900396010048766,
1,0,1,0,11,0,11,0,,,,,,,,1.3454167059620985,time,1125.0,15.286683875163256,0.0002864258719800666,0,36,[],0.01096646673977375,None,['space'],100.09848280006554,100.09848280006554,0.21604946674779058,1.561466172709889,100.31360980006866,100.09848280006554,[-0.42031780001707375],,,,,,rdzaqd,001,fr,0,2022-05-06_15h06.45.512,Continuous,2022.1.1,34.900396010048766,
2,0,2,0,0,0,0,0,,,,,"[0.16666666666666666, 0.3333333333333333, 0.3333333333333333, 0.16666666666666666, 0.16666666666666666, 0.16666666666666666, 0.16666666666666666, 0.16666666666666666, 0.16666666666666666, 0.5833333333333334, 0.3333333333333333, 0.5833333333333334, 0.16666666666666666, 0.16666666666666666, 0.3333333333333333]",104.33593830000609,None,2.5184027020881476,time,4388.0,1.409434320362954,0.00013012825523596656,0,37,[],0.01276546681765467,None,None,105.37028540007304,None,0.21463576680980623,2.733038468897954,105.58656890003476,None,,101.65317639999557,None,,,,rdzaqd,001,fr,0,2022-05-06_15h06.45.512,Continuous,2022.1.1,34.900396010048766,
2,0,2,0,1,0,1,0,,,,,,,,2.5184027020881476,time,,,,1,37,[],0.01077096676453948,None,None,108.09503880003467,108.09503880003467,0.21304406668059528,2.731446768768743,108.30253870005254,108.09503880003467,,,,,,,rdzaqd,001,fr,0,2022-05-06_15h06.45.512,Continuous,2022.1.1,34.900396010048766,
2,0,2,0,2,0,2,0,,,,,,,,2.5184027020881476,time,3483.0,1.675743260175635,9.079552061801288e-05,0,38,[],0.012291666585952044,None,None,110.8208706000587,110.8208706000587,0.21516766666900367,2.7335703687571513,111.03369740000926,110.8208706000587,,,,,,,rdzaqd,001,fr,0,2022-05-06_15h06.45.512,Continuous,2022.1.1,34.900396010048766,
2,0,2,0,3,0,3,0,,,,,,,,2.5184027020881476,time,3103.0,0.4646007670073333,6.811925894512081e-05,0,39,[],0.008371266769245267,None,['space'],113.5526389000006,113.5526389000006,0.20763516670558602,2.7260378687937337,113.77183980005793,113.5526389000006,[-1.986455100006424],,,,,,rdzaqd,001,fr,0,2022-05-06_15h06.45.512,Continuous,2022.1.1,34.900396010048766,
2,0,2,0,4,0,4,0,,,,,,,,2.5184027020881476,time,2462.0,0.39810411970287757,8.904205290076881e-05,0,40,[],0.01067736663389951,None,['space'],116.28261810005642,116.28261810005642,0.21444766665808856,2.732850368746236,116.50301230000332,116.28261810005642,[-1.9316282999934629],,,,,,rdzaqd,001,fr,0,2022-05-06_15h06.45.512,Continuous,2022.1.1,34.900396010048766,
2,0,2,0,5,0,5,0,,,,,,,,2.5184027020881476,time,2764.0,0.30962407467259634,7.201142498524841e-05,0,41,[],0.010776566690765321,None,['space'],119.0134116000263,119.0134116000263,0.21455306676216424,2.732955768850312,119.23388890002389,119.0134116000263,[-0.9507645000703633],,,,,,rdzaqd,001,fr,0,2022-05-06_15h06.45.512,Continuous,2022.1.1,34.900396010048766,
2,0,2,0,6,0,6,0,,,,,,,,2.5184027020881476,time,1954.0,0.5380914308997296,7.738316028837392e-05,0,42,[],0.01066596677992493,None,['space'],121.74340200005099,121.74340200005099,0.21461146674118936,2.733014168829337,121.95944100001361,121.74340200005099,[-1.9530455999774858],,,,,,rdzaqd,001,fr,0,2022-05-06_15h06.45.512,Continuous,2022.1.1,34.900396010048766,
2,0,2,0,7,0,7,0,,,,,,,,2.5184027020881476,time,3909.0,0.9484187912943085,9.18430825753752e-05,0,43,[],0.010692066745832562,None,None,124.47422800003551,124.47422800003551,0.21597726678010076,2.7343799688682484,124.68163580005057,124.47422800003551,,,,,,,rdzaqd,001,fr,0,2022-05-06_15h06.45.512,Continuous,2022.1.1,34.900396010048766,
2,0,2,0,8,0,8,0,,,,,,,,2.5184027020881476,time,4925.0,2.0,0.00018579928309536353,0,44,[],0.004458866664208472,0.19864946673624218,['space'],127.20301550009754,127.20301550009754,0.19864946673624218,2.71705216882439,127.42037980002351,127.20301550009754,[-2.2933331000385806],,,,,,rdzaqd,001,fr,0,2022-05-06_15h06.45.512,Continuous,2022.1.1,34.900396010048766,
2,0,2,0,9,0,9,0,,,,,,,,2.5184027020881476,time,1551.0,2.1124919683662595,6.709672759119364e-05,0,45,[],0.010605766787193716,None,['space'],129.93642120005097,129.93642120005097,0.21454286680091172,2.7329455688890594,130.14854060008656,129.93642120005097,[-2.0653342000441626],,,,,,rdzaqd,001,fr,0,2022-05-06_15h06.45.512,Continuous,2022.1.1,34.900396010048766,
2,0,2,0,10,0,10,0,,,,,,,,2.5184027020881476,time,7379.0,1.9861690404205867,0.00020452016978154332,0,46,[],0.010497866664081812,None,['space'],132.66233150009066,132.66233150009066,0.2144912666408345,2.732893968728982,132.881854700041,132.66233150009066,[-1.8638178000692278],,,,,,rdzaqd,001,fr,0,2022-05-06_15h06.45.512,Continuous,2022.1.1,34.900396010048766,
3,0,3,0,0,0,0,0,,,,,"[0.5833333333333334, 0.3333333333333333, 0.5833333333333334, 0.3333333333333333, 0.16666666666666666, 0.16666666666666666, 0.3333333333333333, 0.16666666666666666, 0.16666666666666666, 0.16666666666666666, 0.3333333333333333, 0.5833333333333334, 0.3333333333333333, 0.16666666666666666, 0.5833333333333334]",137.95633419998921,None,1.982962786023386,none,1304.0,4.914270428212918,9.36199912031399e-05,0,37,[],0.012902966816909611,None,None,138.9876337000169,None,0.21988236682955176,2.202845152852938,139.1985774000641,None,,135.39173979999032,None,,,,rdzaqd,001,fr,0,2022-05-06_15h06.45.512,Continuous,2022.1.1,34.900396010048766,
3,0,3,0,1,0,1,0,,,,,,,,2.4590699504105675,none,4925.0,2.0,0.00018579928309536353,0,38,[],0.010105766588822007,None,None,141.1759713999927,141.1759713999927,0.21406086662318558,2.673130817033753,141.39537790010218,141.1759713999927,,,,,,,rdzaqd,001,fr,0,2022-05-06_15h06.45.512,Continuous,2022.1.1,34.900396010048766,
3,0,3,0,2,0,2,0,,,,,,,,1.1170744388060625,none,4388.0,1.8675230289336187,0.00013717533902582292,0,39,[],0.007646266603842378,0.2045581666752696,['space'],143.8503796000732,143.8503796000732,0.2045581666752696,1.321632605481332,144.06626410002355,143.8503796000732,[-2.060235599987209],,,,,,rdzaqd,001,fr,0,2022-05-06_15h06.45.512,Continuous,2022.1.1,34.900396010048766,
3,0,3,0,3,0,3,0,,,,,,,,1.851619361384619,none,2462.0,0.9550380339554996,9.493838944712709e-05,0,40,[],0.010196966701187193,None,None,145.1840183000313,145.1840183000313,0.21283016668166965,2.0644495280662887,145.3993710000068,145.1840183000313,,,,,,,rdzaqd,001,fr,0,2022-05-06_15h06.45.512,Continuous,2022.1.1,34.900396010048766,
3,0,3,0,4,0,4,0,,,,,,,,2.612285213497627,none,,,,1,40,[],0.010029166820459068,None,['space'],147.24600120005198,147.24600120005198,0.21407786686904728,2.8263630803666744,147.46107630000915,147.24600120005198,[-1.263382300036028],,,,,,rdzaqd,001,fr,0,2022-05-06_15h06.45.512,Continuous,2022.1.1,34.900396010048766,
3,0,3,0,5,0,5,0,,,,,,,,1.6739398101367415,none,3103.0,0.5248693330082065,6.859355995716569e-05,0,41,[],0.011423266725614667,None,None,150.06234720000066,150.06234720000066,0.21297036670148373,1.8869101768382253,150.2771748000523,150.06234720000066,,,,,,,rdzaqd,001,fr,0,2022-05-06_15h06.45.512,Continuous,2022.1.1,34.900396010048766,
3,0,3,0,6,0,6,0,,,,,,,,2.8565111255795044,none,3909.0,1.6862955963624335,9.998625266883472e-05,0,42,[],0.009871466550976038,None,['space'],151.94761420006398,151.94761420006398,0.21515146654564887,3.0716625921251532,152.1733296000166,151.94761420006398,[-0.9729954999638721],,,,,,rdzaqd,001,fr,0,2022-05-06_15h06.45.512,Continuous,2022.1.1,34.900396010048766,
3,0,3,0,7,0,7,0,,,,,,,,1.363541950448785,none,1035.0,2.2051175318780487,5.867103033635737e-05,0,43,[],0.009938066708855331,None,['space'],155.0204543999862,155.0204543999862,0.21275256667286158,1.5762945171216465,155.24233460007235,155.0204543999862,[-1.8375078999670222],,,,,,rdzaqd,001,fr,0,2022-05-06_15h06.45.512,Continuous,2022.1.1,34.900396010048766,
3,0,3,0,8,0,8,0,,,,,,,,1.9176780118537966,none,5528.0,2.613381953646109,0.0001800607075234084,0,44,[],0.010126866633072495,None,None,156.59649890009314,156.59649890009314,0.2168868666049093,2.134564878458706,156.81974800000899,156.59649890009314,,,,,,,rdzaqd,001,fr,0,2022-05-06_15h06.45.512,Continuous,2022.1.1,34.900396010048766,
3,0,3,0,9,0,9,0,,,,,,,,1.1719402981540545,none,6965.0,1.714676818239429,0.0001829382923733257,0,45,[],0.009219766710884869,None,['space'],158.73291780008003,158.73291780008003,0.2113410666352138,1.3832813647892683,158.94705190008972,158.73291780008003,[-1.4227759999921545],,,,,,rdzaqd,001,fr,0,2022-05-06_15h06.45.512,Continuous,2022.1.1,34.900396010048766,
3,0,3,0,10,0,10,0,,,,,,,,1.530678484584685,none,1954.0,0.5628169360874833,7.760375526231598e-05,0,46,[],0.009998966590501368,None,['space'],160.11196320003364,160.11196320003364,0.21503096667584032,1.7457094512605253,160.31888120004442,160.11196320003364,[-0.817103200010024],,,,,,rdzaqd,001,fr,0,2022-05-06_15h06.45.512,Continuous,2022.1.1,34.900396010048766,
3,0,3,0,11,0,11,0,,,,,,,,2.95550460577908,none,2764.0,0.23995587586181136,7.143614251619126e-05,0,47,[],0.008195866597816348,0.20668696670327336,None,161.85265130002517,161.85265130002517,0.20668696670327336,3.1621915724823535,162.06334260001313,161.85265130002517,,,,,,,rdzaqd,001,fr,0,2022-05-06_15h06.45.512,Continuous,2022.1.1,34.900396010048766,
4,0,4,0,0,0,0,0,,,,,,166.94809469999745,None,2.175616398869299,both,236.0,17.507679193731605,0.0014629219516320148,0,26,[],0.007854766678065062,0.2049907665932551,None,167.9737185999984,None,0.2049907665932551,2.3806071654625542,168.18438790005166,None,,165.01540180004667,None,0.5833333333333334,,,rdzaqd,001,fr,0,2022-05-06_15h06.45.512,Continuous,2022.1.1,34.900396010048766,
4,0,4,0,1,0,1,0,,,,,,,,2.175616398869299,both,354.0,16.0,0.000558374449541685,0,27,[],0.00967896671500057,None,None,170.35493999999017,170.35493999999017,0.21254096669144928,2.3881573655607484,170.5699405000778,170.35493999999017,,,,,,,rdzaqd,001,fr,0,2022-05-06_15h06.45.512,Continuous,2022.1.1,34.900396010048766,
4,0,4,0,2,0,2,0,,,,,,,,2.175616398869299,both,530.0,14.764752044282535,0.0003654133569653498,0,28,[],0.0074232666520401835,None,None,172.74766830005683,172.74766830005683,0.2160715665668249,2.391687965436124,172.96993560006376,172.74766830005683,,,,,,,rdzaqd,001,fr,0,2022-05-06_15h06.45.512,Continuous,2022.1.1,34.900396010048766,
4,0,4,0,3,0,3,0,,,,,,,,2.175616398869299,both,,,,1,28,[],0.004124166793189943,None,['space'],175.13724439998623,175.13724439998623,0.20931086677592248,2.3849272656452216,175.3587349000154,175.13724439998623,[-1.7949891000753269],,,,,,rdzaqd,001,fr,0,2022-05-06_15h06.45.512,Continuous,2022.1.1,34.900396010048766,
4,0,4,0,4,0,4,0,,,,,,,,2.175616398869299,both,1190.0,15.401311152708907,0.00030624255329195384,0,29,[],0.01096796675119549,None,None,177.5354411000153,177.5354411000153,0.21277876675594598,2.388395165625245,177.7375532001024,177.5354411000153,,,,,,,rdzaqd,001,fr,0,2022-05-06_15h06.45.512,Continuous,2022.1.1,34.900396010048766,
4,0,4,0,5,0,5,0,,,,,,,,2.175616398869299,both,1783.0,10.03080999387467,0.0002063214782516594,0,30,[],0.00955626682844013,None,['space'],179.91761340002995,179.91761340002995,0.21472946682479233,2.3903458656940915,180.13270550000016,179.91761340002995,[-1.8876400999724865],,,,,,rdzaqd,001,fr,0,2022-05-06_15h06.45.512,Continuous,2022.1.1,34.900396010048766,
4,0,4,0,6,0,6,0,,,,,,,,2.175616398869299,both,2671.0,0.968378056531976,8.414626351406283e-05,0,31,[],0.006008266587741673,0.2038135665934533,['space'],182.30848930007778,182.30848930007778,0.2038135665934533,2.3794299654627524,182.52427560009528,182.30848930007778,[-1.8460580999962986],,,,,,rdzaqd,001,fr,0,2022-05-06_15h06.45.512,Continuous,2022.1.1,34.900396010048766,
4,0,4,0,7,0,7,0,,,,,,,,2.175616398869299,both,4002.0,7.789551663595691,0.00020613844121508264,0,32,[],0.00494076672475785,None,None,184.69517730001826,184.69517730001826,0.19924016669392586,2.374856565563225,184.90904110006522,184.69517730001826,,,,,,,rdzaqd,001,fr,0,2022-05-06_15h06.45.512,Continuous,2022.1.1,34.900396010048766,
5,0,5,0,0,0,0,0,,,,,"[0.16666666666666666, 0.5833333333333334, 0.16666666666666666, 0.16666666666666666, 0.5833333333333334, 0.5833333333333334, 0.3333333333333333, 0.3333333333333333, 0.3333333333333333, 0.16666666666666666, 0.16666666666666666, 0.3333333333333333, 0.3333333333333333, 0.3333333333333333, 0.3333333333333333]",189.54786300007254,None,1.5232330902439848,none,6350.0,1.8279140404438317,0.00016233022126058345,0,48,[],0.012911966652609408,None,None,190.56991140008904,None,0.23797246674075723,1.761205556984742,190.7996695000911,None,,187.08548430004157,None,,,,rdzaqd,001,fr,0,2022-05-06_15h06.45.512,Continuous,2022.1.1,34.900396010048766,
5,0,5,0,1,0,1,0,,,,,,,,2.70109555328464,none,1782.0,-0.41803916013766784,6.191562380377692e-05,0,49,[],0.009012966766022146,None,None,192.31488379999064,192.31488379999064,0.2133095667231828,2.9144051200078227,192.52720470004715,192.31488379999064,,,,,,,rdzaqd,001,fr,0,2022-05-06_15h06.45.512,Continuous,2022.1.1,34.900396010048766,
5,0,5,0,2,0,2,0,,,,,,,,1.3003702823816488,none,944.0,2.5475273135944736,5.6933088696403126e-05,0,50,[],0.00924656679853797,None,['space'],195.23001150006894,195.23001150006894,0.21213026682380587,1.5125005492054546,195.44971720001195,195.23001150006894,[-2.159796299994923],,,,,,rdzaqd,001,fr,0,2022-05-06_15h06.45.512,Continuous,2022.1.1,34.900396010048766,
5,0,5,0,3,0,3,0,,,,,,,,2.6142873017934076,none,1415.0,0.9104316341289209,5.598382062386393e-05,0,51,[],0.0061462667072191834,None,None,196.74034390004817,196.74034390004817,0.20498616667464375,2.8192734684680514,196.95671970001422,196.74034390004817,,,,,,,rdzaqd,001,fr,0,2022-05-06_15h06.45.512,Continuous,2022.1.1,34.900396010048766,
5,0,5,0,4,0,4,0,,,,,,,,2.1995807200739064,none,4000.0,-0.44659985427277504,7.973335004499118e-05,0,52,[],0.008016866631805897,None,None,199.5753647000529,199.5753647000529,0.20984926668461412,2.4094299867585205,199.79151970008388,199.5753647000529,,,,,,,rdzaqd,001,fr,0,2022-05-06_15h06.45.512,Continuous,2022.1.1,34.900396010048766,
5,0,5,0,5,0,5,0,,,,,,,,2.1737598736216377,none,,,,1,52,[],0.009417566703632474,None,None,201.9886717000045,201.9886717000045,0.20914336678106338,2.382903240402701,202.1996107000159,201.9886717000045,,,,,,,rdzaqd,001,fr,0,2022-05-06_15h06.45.512,Continuous,2022.1.1,34.900396010048766,
5,0,5,0,6,0,6,0,,,,,,,,2.0347126575136696,none,2670.0,-0.7285757824724535,6.927005863276113e-05,0,53,[],0.010419166646897793,None,None,204.37303480005357,204.37303480005357,0.21395976666826755,2.248672424181937,204.5925120000029,204.37303480005357,,,,,,,rdzaqd,001,fr,0,2022-05-06_15h06.45.512,Continuous,2022.1.1,34.900396010048766,
5,0,5,0,7,0,7,0,,,,,,,,2.650924614143158,none,1588.0,0.819884301575736,6.125423204133304e-05,0,54,[],0.009050266817212105,None,None,206.62462240003515,206.62462240003515,0.2098552668467164,2.8607798809898743,206.83889730006922,206.62462240003515,,,,,,,rdzaqd,001,fr,0,2022-05-06_15h06.45.512,Continuous,2022.1.1,34.900396010048766,
5,0,5,0,8,0,8,0,,,,,,,,1.8536798016240177,none,5040.0,0.7256486907629864,0.0001644516064530899,0,55,[],0.0014546667225658894,0.19731306668836623,None,209.4946382000344,209.4946382000344,0.19731306668836623,2.0509928683123837,209.70746120007243,209.4946382000344,,,,,,,rdzaqd,001,fr,0,2022-05-06_15h06.45.512,Continuous,2022.1.1,34.900396010048766,
5,0,5,0,9,0,9,0,,,,,,,,1.1041036565751932,none,8000.0,-1.0,0.00016179682846481421,0,56,[],0.008685666718520224,None,['space'],211.56253560003825,211.56253560003825,0.21018226665910333,1.3142859232342965,211.77612400008366,211.56253560003825,[-1.5160550000146031],,,,,,rdzaqd,001,fr,0,2022-05-06_15h06.45.512,Continuous,2022.1.1,34.900396010048766,
6,0,6,0,0,0,0,0,,,,,"[0.16666666666666666, 0.16666666666666666, 0.16666666666666666, 0.5833333333333334, 0.5833333333333334, 0.16666666666666666, 0.16666666666666666, 0.3333333333333333, 0.5833333333333334, 0.3333333333333333, 0.16666666666666666, 0.5833333333333334, 0.3333333333333333, 0.5833333333333334, 0.5833333333333334]",215.72700330009684,None,2.458679145489868,none,871.0,16.68661804474155,0.0002757795240189551,0,57,[],0.012786566629074514,None,None,216.76082580001093,None,0.20923136663623154,2.6679105121260998,216.96666640008334,None,,212.88229540002067,None,,,,rdzaqd,001,fr,0,2022-05-06_15h06.45.512,Continuous,2022.1.1,34.900396010048766,
6,0,6,0,1,0,1,0,,,,,,,,1.4190433195836778,none,411.0,18.938893588406636,0.0006725341145251386,0,58,[],0.008633266785182059,None,['space'],219.4284976000199,219.4284976000199,0.2119608666980639,1.6310041862817417,219.637952900026,219.4284976000199,[-1.8783864999422804],,,,,,rdzaqd,001,fr,0,2022-05-06_15h06.45.512,Continuous,2022.1.1,34.900396010048766,
6,0,6,0,2,0,2,0,,,,,,,,1.5809854408652901,none,2463.0,14.930599212153746,0.0004746058573692149,0,59,[],0.008458466734737158,None,['space'],221.05806120007765,221.05806120007765,0.21225506672635674,1.7932405075916469,221.27044160000514,221.05806120007765,[-1.0434232000261545],,,,,,rdzaqd,001,fr,0,2022-05-06_15h06.45.512,Continuous,2022.1.1,34.900396010048766,
6,0,6,0,3,0,3,0,,,,,,,,1.3085297736209272,none,172.0,23.29477389697506,0.005369064779419463,0,60,[],0.006393666611984372,None,['space'],222.85013760009315,222.85013760009315,0.20475666667334735,1.5132864402942745,223.0666223000735,222.85013760009315,[-1.2999926999909803],,,,,,rdzaqd,001,fr,0,2022-05-06_15h06.45.512,Continuous,2022.1.1,34.900396010048766,
6,0,6,0,4,0,4,0,,,,,,,,2.9573040502449772,none,290.0,22.994892167537984,0.001766135418419386,0,61,[],0.008147766813635826,0.2063310667872429,['space'],224.37903499999084,224.37903499999084,0.2063310667872429,3.16363511703222,224.58945700002369,224.37903499999084,[-1.0686094000702724],,,,,,rdzaqd,001,fr,0,2022-05-06_15h06.45.512,Continuous,2022.1.1,34.900396010048766,
6,0,6,0,5,0,5,0,,,,,,,,2.306512309668866,none,616.0,25.0,0.0009486881441401863,0,62,[],0.008767666760832071,None,['space'],227.54863780003507,227.54863780003507,0.21344546682666987,2.5199577764955357,227.75845279998612,227.54863780003507,[-2.7180379999335855],,,,,,rdzaqd,001,fr,0,2022-05-06_15h06.45.512,Continuous,2022.1.1,34.900396010048766,
6,0,6,0,6,0,6,0,,,,,,,,1.3916829711092085,none,1644.0,10.4061527810189,0.00019463522938432034,0,63,[],0.008201766642741859,None,['space'],230.067780100042,230.067780100042,0.2240728666074574,1.6157558377166659,230.29668050003238,230.067780100042,[-2.0045999999856576],,,,,,rdzaqd,001,fr,0,2022-05-06_15h06.45.512,Continuous,2022.1.1,34.900396010048766,
6,0,6,0,7,0,7,0,,,,,,,,2.1503548074742107,none,,,,1,63,[],0.00863916683010757,None,None,231.67685260006692,231.67685260006692,0.2146149668842554,2.364969774358466,231.89197550003882,231.67685260006692,,,,,,,rdzaqd,001,fr,0,2022-05-06_15h06.45.512,Continuous,2022.1.1,34.900396010048766,
6,0,6,0,8,0,8,0,,,,,,,,2.8458108203215264,none,1305.0,16.592825524881697,0.000358999226194289,0,64,[],0.009881766745820642,None,['space'],234.03885670006275,234.03885670006275,0.2142881667241454,3.060098987045672,234.24930080003105,234.03885670006275,[-1.9772959999972954],,,,,,rdzaqd,001,fr,0,2022-05-06_15h06.45.512,Continuous,2022.1.1,34.900396010048766,
6,0,6,0,9,0,9,0,,,,,,,,2.7147434250699165,none,776.0,14.742600442802313,0.00021541688484484034,0,65,[],0.008259566850028932,None,['space'],237.0920361999888,237.0920361999888,0.21401596686337143,2.928759391933288,237.3032513000071,237.0920361999888,[-2.661576100043021],,,,,,rdzaqd,001,fr,0,2022-05-06_15h06.45.512,Continuous,2022.1.1,34.900396010048766,
6,0,6,0,10,0,10,0,,,,,,,,1.8002551153273334,none,326.0,19.26703352279135,0.0008801576647642305,0,66,[],0.004182466771453619,0.1922241667052731,None,240.02011200005654,240.02011200005654,0.1922241667052731,1.9924792820326065,240.22380340006202,240.02011200005654,,,,,,,rdzaqd,001,fr,0,2022-05-06_15h06.45.512,Continuous,2022.1.1,34.900396010048766,
6,0,6,0,11,0,11,0,,,,,,,,1.8197986481725181,none,3690.0,9.51257233147305,0.00023468729613298055,0,67,[],0.002103166771121323,0.196199266705662,None,242.02749680005945,242.02749680005945,0.196199266705662,2.01599791487818,242.24147530004848,242.02749680005945,,,,,,,rdzaqd,001,fr,0,2022-05-06_15h06.45.512,Continuous,2022.1.1,34.900396010048766,
7,0,7,0,0,0,0,0,,,,,"[0.16666666666666666, 0.16666666666666666, 0.3333333333333333, 0.3333333333333333, 0.3333333333333333, 0.16666666666666666, 0.3333333333333333, 0.16666666666666666, 0.16666666666666666, 0.3333333333333333, 0.16666666666666666, 0.16666666666666666, 0.3333333333333333, 0.16666666666666666, 0.3333333333333333]",246.9152383999899,None,2.840861764948336,none,,,,1,67,[],0.013195566716603935,None,None,247.95973980007693,None,0.20812536671292037,3.0489871316612565,248.16863090009429,None,,244.05779550003354,None,,,,rdzaqd,001,fr,0,2022-05-06_15h06.45.512,Continuous,2022.1.1,34.900396010048766,
7,0,7,0,1,0,1,0,,,,,,,,2.770114489416009,none,147.0,13.9260534760667,0.0026181600851794863,0,68,[],0.009233866818249226,None,None,251.0070092000533,251.0070092000533,0.213544366764836,2.983658856180845,251.21717740001623,251.0070092000533,,,,,,,rdzaqd,001,fr,0,2022-05-06_15h06.45.512,Continuous,2022.1.1,34.900396010048766,
7,0,7,0,2,0,2,0,,,,,,,,1.5307866471932032,none,233.0,14.935178243816033,0.00112072412762397,0,69,[],6.226671393960714e-05,None,None,253.9923875000095,253.9923875000095,0.19574426673352718,1.7265309139267304,254.20788680005353,253.9923875000095,,,,,,,rdzaqd,001,fr,0,2022-05-06_15h06.45.512,Continuous,2022.1.1,34.900396010048766,
7,0,7,0,3,0,3,0,,,,,,,,2.5154146649118063,none,131.0,15.55384675437195,0.004011576720607909,0,70,[],0.004796366672962904,None,None,255.73616500000935,255.73616500000935,0.20275846670847386,2.71817313162028,255.95673610002268,255.73616500000935,,,,,,,rdzaqd,001,fr,0,2022-05-06_15h06.45.512,Continuous,2022.1.1,34.900396010048766,
7,0,7,0,4,0,4,0,,,,,,,,2.855699518751967,none,262.0,15.9653800671394,0.0009726470151741024,0,71,[],0.004529166733846068,None,None,258.47202510002535,258.47202510002535,0.20054886676371098,3.056248385515678,258.69108190003317,258.47202510002535,,,,,,,rdzaqd,001,fr,0,2022-05-06_15h06.45.512,Continuous,2022.1.1,34.900396010048766,
7,0,7,0,5,0,5,0,,,,,,,,1.1181662801114658,none,370.0,15.6447060955619,0.0005108371920665558,0,72,[],0.006035966798663139,None,None,261.54072700010147,261.54072700010147,0.20397516677621752,1.3221414468876833,261.7505622000899,261.54072700010147,,,,,,,rdzaqd,001,fr,0,2022-05-06_15h06.45.512,Continuous,2022.1.1,34.900396010048766,
7,0,7,0,6,0,6,0,,,,,,,,1.2836731647143356,none,165.0,13.0,0.0017550709212829732,0,73,[],0.00802966661285609,None,['space'],262.8741759000113,262.8741759000113,0.21164836664684117,1.4953215313611767,263.0880283000879,262.8741759000113,[-0.7958406999241561],,,,,,rdzaqd,001,fr,0,2022-05-06_15h06.45.512,Continuous,2022.1.1,34.900396010048766,
7,0,7,0,7,0,7,0,,,,,,,,1.0382336398472396,none,330.0,13.274044745107544,0.00043669279847274596,0,74,[],0.007858666707761586,None,None,264.36884130002,264.36884130002,0.21261986659374088,1.2508535064409805,264.5857466000598,264.36884130002,,,,,,,rdzaqd,001,fr,0,2022-05-06_15h06.45.512,Continuous,2022.1.1,34.900396010048766,
7,0,7,0,8,0,8,0,,,,,,,,1.4167376794897868,none,466.0,14.4521724092369,0.0003863783827641023,0,75,[],6.91667664796114e-05,0.18874546675942838,None,265.6345043000765,265.6345043000765,0.18874546675942838,1.6054831462492152,265.8373975000577,265.6345043000765,,,,,,,rdzaqd,001,fr,0,2022-05-06_15h06.45.512,Continuous,2022.1.1,34.900396010048766,
8,0,8,0,0,0,0,0,,,,,"[0.5833333333333334, 0.16666666666666666, 0.3333333333333333, 0.3333333333333333, 0.5833333333333334, 0.16666666666666666, 0.5833333333333334, 0.16666666666666666, 0.5833333333333334, 0.5833333333333334, 0.16666666666666666, 0.3333333333333333, 0.5833333333333334, 0.5833333333333334, 0.5833333333333334]",270.27960280003026,None,2.464531012845553,none,4757.0,1.7956703821573285,0.00016726542955749235,0,76,[],0.012914466671645641,None,None,271.31659629999194,None,0.23015906673390418,2.6946900795794573,271.5355060000438,None,,267.24966299999505,None,,,,rdzaqd,001,fr,0,2022-05-06_15h06.45.512,Continuous,2022.1.1,34.900396010048766,
8,0,8,0,1,0,1,0,,,,,,,,1.7744061190895826,none,1499.0,-0.2150069818940219,4.714577923085007e-05,0,77,[],0.006425066851079464,None,None,273.9965382000664,273.9965382000664,0.21148996683768928,1.9858960859272718,274.2098222000059,273.9965382000664,,,,,,,rdzaqd,001,fr,0,2022-05-06_15h06.45.512,Continuous,2022.1.1,34.900396010048766,
8,0,8,0,2,0,2,0,,,,,,,,2.4270330124521493,none,1060.0,1.5243240310115667,5.549431449595011e-05,0,78,[],0.007500166655518115,None,None,275.98911920003593,275.98911920003593,0.20919596671592444,2.6362289791680737,276.202750400058,275.98911920003593,,,,,,,rdzaqd,001,fr,0,2022-05-06_15h06.45.512,Continuous,2022.1.1,34.900396010048766,
8,0,8,0,3,0,3,0,,,,,,,,2.866010609664648,none,5339.0,0.5981284082270522,0.00015024282873573092,0,79,[],0.007568766828626394,None,None,278.6342789999908,278.6342789999908,0.20873286679852754,3.0747434764631754,278.84619250008836,278.6342789999908,,,,,,,rdzaqd,001,fr,0,2022-05-06_15h06.45.512,Continuous,2022.1.1,34.900396010048766,
8,0,8,0,4,0,4,0,,,,,,,,2.98028686599055,none,8000.0,-4.0,0.00011454338263838867,0,80,[],0.0052132668206468225,None,None,281.71289620001335,281.71289620001335,0.20369366684462875,3.1839805328351787,281.93027910008095,281.71289620001335,,,,,,,rdzaqd,001,fr,0,2022-05-06_15h06.45.512,Continuous,2022.1.1,34.900396010048766,
8,0,8,0,5,0,5,0,,,,,,,,1.1346095086574046,none,3175.0,-3.0293883936664523,4.9006452494675076e-05,0,81,[],0.007590266759507358,None,None,284.91512780007906,284.91512780007906,0.2097898666979745,1.3443993753553791,285.1316960999975,284.91512780007906,,,,,,,rdzaqd,001,fr,0,2022-05-06_15h06.45.512,Continuous,2022.1.1,34.900396010048766,
8,0,8,0,6,0,6,0,,,,,,,,2.8686931921216505,none,,,,1,81,[],0.004385366686619818,None,None,286.268112400081,286.268112400081,0.20244536665268242,3.071138558774333,286.48750110005494,286.268112400081,,,,,,,rdzaqd,001,fr,0,2022-05-06_15h06.45.512,Continuous,2022.1.1,34.900396010048766,
8,0,8,0,7,0,7,0,,,,,,,,2.6220239075257274,none,1888.0,-1.2582592920072333,6.034761433166554e-05,0,82,[],0.008624766836874187,None,None,289.3533289000625,289.3533289000625,0.21288096683565527,2.8349048743613827,289.56382999999914,289.3533289000625,,,,,,,rdzaqd,001,fr,0,2022-05-06_15h06.45.512,Continuous,2022.1.1,34.900396010048766,
8,0,8,0,8,0,8,0,,,,,,,,2.149820932138783,none,2829.0,-2.97525640709191,4.6467494864307e-05,0,83,[],0.007292466587387025,None,None,292.1840709000826,292.1840709000826,0.21105246664956212,2.3608733987883452,292.39797060005367,292.1840709000826,,,,,,,rdzaqd,001,fr,0,2022-05-06_15h06.45.512,Continuous,2022.1.1,34.900396010048766,
8,0,8,0,9,0,9,0,,,,,,,,2.7310656800255826,none,1190.0,7.956215088753952,0.00012996030856991277,0,84,[],0.007443766691721976,None,['space'],294.5526055000955,294.5526055000955,0.2225626667495817,2.9536283467751643,294.7694687000476,294.5526055000955,[-0.0906988000497222],,,,,,rdzaqd,001,fr,0,2022-05-06_15h06.45.512,Continuous,2022.1.1,34.900396010048766,
9,0,9,0,0,0,0,0,,,,,"[0.16666666666666666, 0.5833333333333334, 0.16666666666666666, 0.3333333333333333, 0.5833333333333334, 0.3333333333333333, 0.3333333333333333, 0.5833333333333334, 0.5833333333333334, 0.3333333333333333, 0.16666666666666666, 0.5833333333333334, 0.3333333333333333, 0.5833333333333334, 0.5833333333333334]",299.8688747000415,None,2.6985300962519227,time,3563.0,-0.9672585264772886,6.823158424957426e-05,0,47,[],0.01300206664018333,None,None,300.9091085999971,None,0.22596216667443514,2.924492262926358,301.12469850003254,None,,297.4971697999863,None,,,,rdzaqd,001,fr,0,2022-05-06_15h06.45.512,Continuous,2022.1.1,34.900396010048766,
9,0,9,0,1,0,1,0,,,,,,,,2.6985300962519227,time,5339.0,2.882260870053809,0.0001954341142757791,0,48,[],0.003571766661480069,0.2006916666869074,None,303.8196021000622,303.8196021000622,0.2006916666869074,2.89922176293883,304.03939440008253,303.8196021000622,,,,,,,rdzaqd,001,fr,0,2022-05-06_15h06.45.512,Continuous,2022.1.1,34.900396010048766,
9,0,9,0,2,0,2,0,,,,,,,,2.6985300962519227,time,707.0,5.982439757321552,8.843524196049117e-05,0,49,[],0.007266166736371815,None,['space'],306.73638830007985,306.73638830007985,0.21420436666812748,2.9127344629200502,306.95453910005745,306.73638830007985,[-2.5790579000022262],,,,,,rdzaqd,001,fr,0,2022-05-06_15h06.45.512,Continuous,2022.1.1,34.900396010048766,
9,0,9,0,3,0,3,0,,,,,,,,2.6985300962519227,time,1189.0,4.1174344395062,8.346842632895929e-05,0,50,[],0.007085966761223972,None,['space'],309.6562440000707,309.6562440000707,0.21377436676993966,2.9123044630218624,309.8733317999868,309.6562440000707,[-2.6982384000439197],,,,,,rdzaqd,001,fr,0,2022-05-06_15h06.45.512,Continuous,2022.1.1,34.900396010048766,
9,0,9,0,4,0,4,0,,,,,,,,2.6985300962519227,time,8000.0,-1.0,0.00016179682846481421,0,51,[],0.006969466805458069,None,['space'],312.570439800038,312.570439800038,0.21202846674714237,2.910558562999065,312.78210960002616,312.570439800038,[-0.8600155999884009],,,,,,rdzaqd,001,fr,0,2022-05-06_15h06.45.512,Continuous,2022.1.1,34.900396010048766,
9,0,9,0,5,0,5,0,,,,,,,,2.6985300962519227,time,2245.0,-0.925349141304985,7.213373608422098e-05,0,52,[],0.00482386676594615,None,['space'],315.4818897000514,315.4818897000514,0.20412686665076762,2.9026569629026904,315.7021742000943,315.4818897000514,[-2.0591734000481665],,,,,,rdzaqd,001,fr,0,2022-05-06_15h06.45.512,Continuous,2022.1.1,34.900396010048766,
9,0,9,0,6,0,6,0,,,,,,,,2.6985300962519227,time,1498.0,1.9261878838448112,6.0356717110048185e-05,0,53,[],0.0039019667310640216,None,None,318.401555199991,318.401555199991,0.20115576672833413,2.899685862980257,318.6190141000552,318.401555199991,,,,,,,rdzaqd,001,fr,0,2022-05-06_15h06.45.512,Continuous,2022.1.1,34.900396010048766,
9,0,9,0,7,0,7,0,,,,,,,,2.6985300962519227,time,,,,1,53,[],0.0048252667766064405,0.2013239668449387,None,321.3206361000193,321.3206361000193,0.2013239668449387,2.8998540630968614,321.5260500999866,321.3206361000193,,,,,,,rdzaqd,001,fr,0,2022-05-06_15h06.45.512,Continuous,2022.1.1,34.900396010048766,
9,0,9,0,8,0,8,0,,,,,,,,2.6985300962519227,time,2828.0,-0.626817722083245,6.095135248625752e-05,0,54,[],0.004366866662167013,0.19935986667405814,None,324.2259574000491,324.2259574000491,0.19935986667405814,2.897889962925981,324.44406580005307,324.2259574000491,,,,,,,rdzaqd,001,fr,0,2022-05-06_15h06.45.512,Continuous,2022.1.1,34.900396010048766,
10,0,10,0,0,0,0,0,,,,,,328.87360869999975,None,1.8402105791197605,frequency,140.0,18.471148305326306,0.004940872825264545,0,26,[],0.013105566729791462,None,None,329.8903000000864,None,0.21891846670769155,2.059129045827452,330.1048007000936,None,,327.1431307999883,None,0.3333333333333333,,,rdzaqd,001,fr,0,2022-05-06_15h06.45.512,Continuous,2022.1.1,34.900396010048766,
10,0,10,0,1,0,1,0,,,,,,,,1.3471690185049259,frequency,177.0,16.51509004001038,0.0023379666996201512,0,27,[],0.006468566716648638,None,None,331.9469855000498,331.9469855000498,0.20941086672246456,1.5565798852273904,332.15886050008703,331.9469855000498,,,,,,,rdzaqd,001,fr,0,2022-05-06_15h06.45.512,Continuous,2022.1.1,34.900396010048766,
10,0,10,0,2,0,2,0,,,,,,,,2.549394066850957,frequency,223.0,17.01447207198392,0.0015627786133157778,0,28,[],0.006613466772250831,None,['space'],333.51177430001553,333.51177430001553,0.20982226671185344,2.7592163335628106,333.7270704000257,333.51177430001553,[-1.0014333999715745],,,,,,rdzaqd,001,fr,0,2022-05-06_15h06.45.512,Continuous,2022.1.1,34.900396010048766,
10,0,10,0,3,0,3,0,,,,,,,,2.1004085616794788,frequency,281.0,16.861599069844917,0.0009381178862886159,0,29,[],0.010590333375148475,0.20771843334659934,['space'],336.28734110004734,336.28734110004734,0.20771843334659934,2.308126995026078,336.50278480001725,336.28734110004734,[-1.8413897999562323],,,,,,rdzaqd,001,fr,0,2022-05-06_15h06.45.512,Continuous,2022.1.1,34.900396010048766,
10,0,10,0,4,0,4,0,,,,,,,,1.3918737564570045,frequency,354.0,16.0,0.000558374449541685,0,30,[],0.006160266697406769,None,None,338.5993995000608,338.5993995000608,0.2082760666962713,1.6001498231532758,338.82377430005,338.5993995000608,,,,,,,rdzaqd,001,fr,0,2022-05-06_15h06.45.512,Continuous,2022.1.1,34.900396010048766,
10,0,10,0,5,0,5,0,,,,,,,,1.2340232332690033,frequency,446.0,16.259075807780835,0.00048237040394954567,0,31,[],0.00279986672103405,None,None,340.20849059999455,340.20849059999455,0.19878726673778147,1.4328105000067848,340.4283036000561,340.20849059999455,,,,,,,rdzaqd,001,fr,0,2022-05-06_15h06.45.512,Continuous,2022.1.1,34.900396010048766,
10,0,10,0,6,0,6,0,,,,,,,,1.1879364391448668,frequency,562.0,14.491305422156001,0.0003276134164415595,0,32,[],0.00045116664841771126,None,None,341.6667768000625,341.6667768000625,0.20019296661484987,1.3881294057597167,341.8857907000929,341.6667768000625,,,,,,,rdzaqd,001,fr,0,2022-05-06_15h06.45.512,Continuous,2022.1.1,34.900396010048766,
10,0,10,0,7,0,7,0,,,,,,,,1.1068864687861466,frequency,708.0,14.726136492573401,0.0002415192977448861,0,33,[],0.0029422666411846876,None,['space'],343.0779574000044,343.0779574000044,0.20167716674041003,1.3085636355265566,343.2977700000629,343.0779574000044,[-0.8718568999320269],,,,,,rdzaqd,001,fr,0,2022-05-06_15h06.45.512,Continuous,2022.1.1,34.900396010048766,
10,0,10,0,8,0,8,0,,,,,,,,2.0065325981981523,frequency,892.0,14.208118962663013,0.00021038194604207618,0,34,[],0.0064804666908457875,None,None,344.4109060000628,344.4109060000628,0.21098826674278826,2.2175208649409406,344.6208320000442,344.4109060000628,,,,,,,rdzaqd,001,fr,0,2022-05-06_15h06.45.512,Continuous,2022.1.1,34.900396010048766,
10,0,10,0,9,0,9,0,,,,,,,,2.2238608829662088,frequency,1124.0,15.816236095023243,0.00030417330091796543,0,35,[],0.006088666617870331,None,['space'],346.62602030008566,346.62602030008566,0.2245903667062521,2.448451249672461,346.8464661000762,346.62602030008566,[-1.7323534999741241],,,,,,rdzaqd,001,fr,0,2022-05-06_15h06.45.512,Continuous,2022.1.1,34.900396010048766,
10,0,10,0,10,0,10,0,,,,,,,,2.5461067626825926,frequency,,,,1,35,[],0.0033627666998654604,0.20187456661369652,"['space', 'space']",349.0682945000008,349.0682945000008,0.20187456661369652,2.747981329296289,349.2813530000858,349.0682945000008,"[-1.934336599893868, -0.07817479991354048]",,,,,,rdzaqd,001,fr,0,2022-05-06_15h06.45.512,Continuous,2022.1.1,34.900396010048766,
11,0,11,0,0,0,0,0,,,,,,353.95867770002224,None,2.9007848431605483,frequency,1954.0,0.8729473643236889,8.04246646683275e-05,0,36,[],0.012546866782940924,None,None,354.9914189000847,None,0.20649486675392836,3.1072797099144767,355.2051993000787,None,,351.8208448000951,None,0.16666666666666666,,,rdzaqd,001,fr,0,2022-05-06_15h06.45.512,Continuous,2022.1.1,34.900396010048766,
11,0,11,0,1,0,1,0,,,,,,,,1.3138406920409038,frequency,2193.0,1.1222360460921146,8.99981833433724e-05,0,37,[],0.0020535666262730956,0.1955282666021958,None,358.0984898000024,358.0984898000024,0.1955282666021958,1.5093689586430996,358.3129388000816,358.0984898000024,,,,,,,rdzaqd,001,fr,0,2022-05-06_15h06.45.512,Continuous,2022.1.1,34.900396010048766,
11,0,11,0,2,0,2,0,,,,,,,,1.8427963470629274,frequency,2462.0,1.108168239649678,9.662697200259023e-05,0,38,[],0.006079266662709415,None,None,359.6270719000604,359.6270719000604,0.2069039667258039,2.0497003137887315,359.8454653000226,359.6270719000604,,,,,,,rdzaqd,001,fr,0,2022-05-06_15h06.45.512,Continuous,2022.1.1,34.900396010048766,
11,0,11,0,3,0,3,0,,,,,,,,2.129870931405321,frequency,2764.0,0.15137336003737709,7.071130774676448e-05,0,39,[],0.0020248666405677795,0.19714546669274569,['space'],361.68180460005533,361.68180460005533,0.19714546669274569,2.3270163980980665,361.89982680010144,361.68180460005533,[-1.4597883000969887],,,,,,rdzaqd,001,fr,0,2022-05-06_15h06.45.512,Continuous,2022.1.1,34.900396010048766,
11,0,11,0,4,0,4,0,,,,,,,,2.2350039552085885,frequency,,,,1,39,[],0.006192366709001362,None,None,364.03143510001246,364.03143510001246,0.20919956674333662,2.444203521951925,364.2473239999963,364.03143510001246,,,,,,,rdzaqd,001,fr,0,2022-05-06_15h06.45.512,Continuous,2022.1.1,34.900396010048766,
11,0,11,0,5,0,5,0,,,,,,,,2.520925637150036,frequency,3483.0,0.25656281217540533,7.710905856613737e-05,0,40,[],0.007393566658720374,None,None,366.4821644000476,366.4821644000476,0.21074246673379093,2.731668103883827,366.69387800002005,366.4821644000476,,,,,,,rdzaqd,001,fr,0,2022-05-06_15h06.45.512,Continuous,2022.1.1,34.900396010048766,
11,0,11,0,6,0,6,0,,,,,,,,1.747182506253288,frequency,3909.0,0.6902352511001165,8.915326952751023e-05,0,41,[],0.005415866733528674,None,['space'],369.2205283000367,369.2205283000367,0.20587226678617299,1.953054773039461,369.4342240000842,369.2205283000367,[-2.0538216000422835],,,,,,rdzaqd,001,fr,0,2022-05-06_15h06.45.512,Continuous,2022.1.1,34.900396010048766,
11,0,11,0,7,0,7,0,,,,,,,,2.4067643026169674,frequency,4388.0,1.5797193151680091,0.00013270456310551126,0,42,[],0.005888566724024713,None,['space'],371.18829060008284,371.18829060008284,0.20800736674573272,2.6147716693627,371.4009445999982,371.18829060008284,[-1.4624169999733567],,,,,,rdzaqd,001,fr,0,2022-05-06_15h06.45.512,Continuous,2022.1.1,34.900396010048766,
11,0,11,0,8,0,8,0,,,,,,,,1.2347417111900862,frequency,4925.0,3.0,0.00020847022442907278,0,43,[],0.0024160667089745402,None,None,373.81239660002757,373.81239660002757,0.1962691667722538,1.43101087796234,374.0294448999921,373.81239660002757,,,,,,,rdzaqd,001,fr,0,2022-05-06_15h06.45.512,Continuous,2022.1.1,34.900396010048766,
11,0,11,0,9,0,9,0,,,,,,,,2.637895465760853,frequency,5528.0,3.3002170887557174,0.00019487705552172135,0,44,[],0.002378066652454436,0.19966256665065885,['space'],375.2628988000797,375.2628988000797,0.19966256665065885,2.8375580324115117,375.4812623000471,375.2628988000797,[-1.0250213999534026],,,,,,rdzaqd,001,fr,0,2022-05-06_15h06.45.512,Continuous,2022.1.1,34.900396010048766,
11,0,11,0,10,0,10,0,,,,,,,,2.4123117214944814,frequency,6205.0,3.0,0.0001773170626926616,0,45,[],0.0020233667455613613,0.19641596672590822,"['space', 'space']",378.116437699995,378.116437699995,0.19641596672590822,2.6087276882203896,378.3306608001003,378.116437699995,"[-2.470138700096868, -0.5018457000842318]",,,,,,rdzaqd,001,fr,0,2022-05-06_15h06.45.512,Continuous,2022.1.1,34.900396010048766,
11,0,11,0,11,0,11,0,,,,,,,,2.688297634760149,frequency,6965.0,2.3681085225343246,0.00019723146749437716,0,46,[],0.0020864667603746057,0.19631426665000618,None,380.7382381000789,380.7382381000789,0.19631426665000618,2.884611901410155,380.9500777000794,380.7382381000789,,,,,,,rdzaqd,001,fr,0,2022-05-06_15h06.45.512,Continuous,2022.1.1,34.900396010048766,
11,0,11,0,12,0,12,0,,,,,,,,2.355216322177977,frequency,7818.0,1.4835055179745869,0.00020880584723339057,0,47,[],0.004287666641175747,0.20354306662920862,['space'],383.63642500003334,383.63642500003334,0.20354306662920862,2.558759388807186,383.8473375000758,383.63642500003334,[-2.262233900022693],,,,,,rdzaqd,001,fr,0,2022-05-06_15h06.45.512,Continuous,2022.1.1,34.900396010048766,
12,0,12,0,0,0,0,0,,,,,"[0.3333333333333333, 0.3333333333333333, 0.5833333333333334, 0.3333333333333333, 0.3333333333333333, 0.3333333333333333, 0.16666666666666666, 0.16666666666666666, 0.16666666666666666, 0.16666666666666666, 0.5833333333333334, 0.3333333333333333, 0.5833333333333334, 0.16666666666666666, 0.16666666666666666]",389.47633209999185,None,1.0198075866799057,none,,,,1,84,[],0.013114266796037555,None,None,390.50926150009036,None,0.22649676678702235,1.246304353466928,390.73283780005295,None,,386.204845600063,None,,,,rdzaqd,001,fr,0,2022-05-06_15h06.45.512,Continuous,2022.1.1,34.900396010048766,
12,0,12,0,1,0,1,0,,,,,,,,2.3460294691493617,none,2295.0,15.567193947897298,0.0004883411015904418,0,85,['none'],0.0041804666398093104,0.20053116674534976,None,391.7450103000738,391.7450103000738,0.20053116674534976,2.5465606358947115,391.9620969000971,391.7450103000738,,,,,"{'estimation': [[125.0, 19.744589825611772], [128.15737519496722, 19.0], [132.7056527088449, 18.0], [133.9716828170366, 17.742974444113212], [137.66045210130184, 17.0], [142.74367199730472, 16.0], [143.5872943746293, 15.840450288801406], [149.69170520048175, 15.0], [153.89305166811442, 14.429869753412568], [161.52506204587226, 14.0], [164.93848884661162, 13.809992887586139], [172.23397013981025, 14.0], [176.77669529663666, 14.115108751997118], [186.4582613416156, 15.0], [189.46457081379947, 15.265867289054192], [195.13758933910472, 16.0], [203.0630990890585, 16.99622443973806], [203.09123048082697, 17.0], [210.55508628664117, 18.0], [217.6376408240306, 18.9168308311071], [218.38508876000878, 19.0], [227.4584977855291, 20.0], [233.25824788420118, 20.61404260795831], [238.80040004547257, 21.0], [249.99999999999937, 21.749446531037748], [261.24535523093806, 22.0], [267.94336563407256, 22.14293908573613], [275.6049878852677, 22.0], [287.1745887492579, 21.797126681667073], [305.2066553219021, 21.0], [307.78610333622805, 20.892095272040933], [324.39064890097086, 20.0], [329.87697769322244, 19.718921386362055], [344.96699436237935, 19.0], [353.55339059327247, 18.60367714324266], [373.1818180203457, 18.0], [378.929141627598, 17.826236889714018], [406.12619817811606, 17.561908583135576], [435.2752816480607, 17.84236523382119], [441.9939801416033, 18.0], [466.5164957684015, 18.564884205172568], [481.7299635529751, 19.0], [499.9999999999975, 19.511766497236962], [519.4607792621134, 20.0], [535.8867312681438, 20.40223740734782], [574.3491774985151, 20.942707983119686], [615.5722066724546, 20.886968934210266], [659.7539553864432, 20.077628705797032], [661.9679822755942, 20.0], [691.1782814910121, 19.0], [707.1067811865431, 18.4831040533315], [717.6581720708284, 18.0], [739.6317063107897, 17.0], [757.8582832551941, 16.21585175181374], [762.1695513726982, 16.0], [781.8423731810486, 15.0], [801.9367898241277, 14.0], [812.2523963562301, 13.518066775983517], [822.9774032749277, 13.0], [843.2782194122759, 12.0], [864.3432535124473, 11.0], [870.5505632961181, 10.722416900468644], [888.0741689060527, 10.0], [912.1977918622085, 9.0], [933.0329915368008, 8.183079879349528], [939.0572323442278, 8.0], [972.016097681778, 7.0], [999.9999999999926, 6.187857673028391], [1010.1177825740658, 6.0], [1065.7005753609512, 5.0], [1071.773462536285, 4.894980128914621], [1148.698354997026, 4.296710834663162], [1231.1444133449063, 4.223011444179592], [1319.5079107728832, 4.4138461191796345], [1414.2135623730828, 4.607056610919749], [1515.7165665103846, 4.6275994728491625], [1624.5047927124563, 4.438960350342941], [1741.1011265922318, 4.140205564755936], [1817.2640175900904, 4.0], [1866.065983073597, 3.9114659262352807], [1999.9999999999827, 3.931041745290586], [2027.3893223995317, 4.0], [2143.5469250725646, 4.287532261268776], [2297.396709994046, 4.93439406492865], [2310.8433611296105, 5.0], [2462.2888266898062, 5.711520458293032], [2535.1972580185875, 6.0], [2639.01582154576, 6.394295849701228], [2828.427124746159, 6.782981363670956], [3031.4331330207615, 6.788614864365659], [3249.0095854249043, 6.460031050083634], [3465.0873198954496, 6.0], [3482.2022531844555, 5.9650401467484775], [3732.1319661471844, 5.530260910044896], [3999.9999999999504, 5.338306767074572], [4287.093850145118, 5.454610773157843], [4594.793419988081, 5.79322844670782], [4787.535324961154, 6.0], [4924.577653379601, 6.1434524449632715], [5278.031643091513, 6.235334885116162], [5503.611995409081, 6.0], [5656.85424949231, 5.844819266092486], [6011.001759715274, 5.0], [6062.866266041501, 4.879686867147724], [6320.232667491334, 4.0], [6498.019170849792, 3.4130712000269754], [6606.271430036251, 3.0], [6872.615264466119, 2.0], [6964.404506368894, 1.6695054665188], [7159.298364733231, 1.0], [7455.695749158532, 0.0], [7464.2639322943505, -0.02812071731400765], [7857.683799558236, -1.0], [7999.999999999872, -1.356581899798556]], 'plus_line': [[125.0, 14.805003283861904], [128.8490590842602, 14.0], [133.9716828170366, 13.07104003625731], [134.3112306971201, 13.0], [139.02632581410228, 12.0], [143.5872943746293, 11.129856324631344], [144.43721706383405, 11.0], [150.9484763390934, 10.0], [153.89305166811442, 9.570262842112772], [162.62791020709028, 9.0], [164.93848884661162, 8.846252435415975], [171.48838240296865, 9.0], [176.77669529663666, 9.112776648316629], [186.46143591263524, 10.0], [189.46457081379947, 10.267619396255263], [195.21320310785217, 11.0], [202.84538021969158, 12.0], [203.0630990890585, 12.02731774365832], [210.52343627139066, 13.0], [217.6376408240306, 13.964769159953066], [217.95868252663297, 14.0], [227.13451250991506, 15.0], [233.25824788420132, 15.673718758402611], [237.77604005316456, 16.0], [249.99999999999937, 16.857319646746696], [255.10099126087965, 17.0], [267.94336563407256, 17.324541100500372], [287.1745887492579, 17.086780669028748], [289.283101727026, 17.0], [307.78610333622805, 16.26806925478161], [312.8373651939157, 16.0], [329.87697769322244, 15.140873880854517], [332.71806891639466, 15.0], [353.55339059327247, 14.003269062559806], [353.64865284155184, 14.0], [378.929141627598, 13.13696222522532], [389.06770939355124, 13.0], [406.12619817811606, 12.758931116601737], [435.2752816480601, 12.945277838910487], [437.8359505894932, 12.999999999999998], [466.5164957684015, 13.578601891360151], [482.1300951975946, 14.0], [499.9999999999975, 14.46585087627103], [522.1578450356413, 15.0], [535.8867312681438, 15.317839617708502], [574.3491774985143, 15.84932821712631], [615.5722066724546, 15.81839766813592], [659.7539553864432, 15.077410377564243], [662.0419260917186, 15.0], [692.4412490218849, 14.0], [707.1067811865431, 13.56115250526138], [719.2154784637912, 13.0], [741.9042771377727, 12.0], [757.8582832551941, 11.377613542156272], [765.1058376418173, 11.0], [784.2242523846046, 10.0], [806.0175956329142, 9.0], [812.2523963562301, 8.739274075164637], [826.5974562014557, 8.0], [846.6168213168402, 7.0], [870.1200053957248, 6.0], [870.5505632961181, 5.982733586577847], [892.8417343058055, 5.0], [917.5262485017457, 4.0], [933.0329915368008, 3.4426213806825356], [947.1051818124647, 3.0], [980.0611497725515, 2.0], [999.9999999999926, 1.453910624653699], [1024.6389150228867, 1.0], [1071.773462536285, 0.18191920298843778], [1096.029794574682, 0.0], [1148.698354997026, -0.39470380917724185], [1231.1444133449063, -0.427343368323997], [1319.5079107728832, -0.18715874966706944], [1393.7007619825908, 0.0], [1414.2135623730828, 0.046061332299793145], [1515.7165665103846, 0.07182504847167615], [1551.8946682847752, 0.0], [1624.5047927124563, -0.1507942659127097], [1741.1011265922318, -0.5195032424292354], [1866.065983073597, -0.8321981509523606], [1999.9999999999802, -0.9072528634106983], [2143.5469250725646, -0.6326411967509616], [2297.396709994046, -0.002730839355710902], [2297.9320541522247, 0.0], [2462.2888266898062, 0.786551260497555], [2511.6885795174467, 1.0], [2639.01582154576, 1.5120959311078535], [2828.427124746159, 1.9537762451641618], [3031.4331330207615, 1.9857321227283633], [3249.0095854249043, 1.662552829080725], [3482.2022531844596, 1.2012088576984632], [3613.137772901754, 1.0], [3732.1319661471844, 0.814645586561482], [3999.9999999999554, 0.6797573230152718], [4287.093850145118, 0.8508316556389703], [4405.66988507924, 1.0], [4594.793419988076, 1.2143105458620567], [4924.577653379601, 1.5524936664441753], [5278.031643091506, 1.6128281538338065], [5656.854249492303, 1.182934740433598], [5729.160578532348, 1.0], [6062.866266041508, 0.17485817178766716], [6112.156007610944, 0.0], [6399.965043616848, -1.0], [6498.019170849792, -1.3198979042804768], [6670.596666747686, -2.0], [6945.838725862091, -2.9999999999999996], [6964.404506368894, -3.0646037223601628], [7217.334381567127, -4.0], [7464.2639322943505, -4.834300809219181], [7520.105500642569, -5.0], [7850.813853177607, -6.0], [7999.999999999882, -6.435744898910057]], 'minus_line': [[125.0, 24.87610517454039], [128.31272559365817, 24.0], [132.0294658473838, 23.000000000000004], [133.9716828170366, 22.51206487391461], [136.52737919971398, 22.0], [141.3715102167778, 21.0], [143.5872943746293, 20.553519331391783], [147.8706859109997, 20.0], [153.89305166811442, 19.215462502427506], [158.150195565132, 19.0], [164.93848884661162, 18.677938268651836], [176.04821750343248, 19.0], [176.77669529663666, 19.021970998318007], [187.1246281339973, 20.0], [189.46457081379947, 20.21164953761442], [195.25535536893392, 21.0], [203.0630990890585, 21.97444137464809], [203.24497085819388, 21.999999999999996], [210.25644406301998, 23.0], [217.6376408240306, 23.945733637743746], [218.10739231807608, 24.0], [226.75181804037214, 25.0], [233.25824788420132, 25.687012404142802], [237.7631532793668, 26.0], [249.99999999999937, 26.814461278706922], [260.1979140159117, 27.0], [267.94336563407256, 27.14367931143499], [273.61852202305647, 27.0], [287.1745887492579, 26.69328128419378], [300.924113754104, 26.0], [307.78610333622805, 25.673785558791685], [319.59494267393796, 25.0], [329.87697769322244, 24.429981509554565], [338.8516441788232, 24.0], [353.55339059327247, 23.31318693276521], [364.4321759366749, 23.0], [378.929141627598, 22.603819710105746], [406.12619817811606, 22.44366119480479], [435.2752816480601, 22.82704621089735], [441.85284700817147, 23.000000000000004], [466.5164957684015, 23.648950972305876], [477.8291083302389, 24.0], [499.9999999999975, 24.674701782038255], [512.1430443698308, 25.0], [535.8867312681438, 25.62521922602569], [561.4266029126604, 26.0], [574.3491774985143, 26.192135434842587], [615.5722066724546, 26.11699685923293], [621.2077261866466, 26.0], [659.7539553864432, 25.24629086121832], [666.619597939303, 25.0], [694.5092280865905, 24.0], [707.1067811865431, 23.556700554322013], [719.4899035410316, 23.0], [740.6506006904551, 22.0], [757.8582832551941, 21.18202709067814], [761.6902262061514, 21.0], [781.9511977582446, 20.0], [800.6815504470512, 19.0], [812.2523963562301, 18.401252131948905], [821.1282769490756, 18.0], [841.8378500233449, 17.0], [861.2338741665354, 16.0], [870.5505632961181, 15.541598845338282], [884.4769604492186, 15.0], [908.465082210795, 14.0], [931.6690166991623, 13.0], [933.0329915368008, 12.944882260709702], [965.005394960694, 12.0], [997.0930803709001, 10.999999999999998], [999.9999999999926, 10.913725752485947], [1049.474729457585, 10.0], [1071.773462536285, 9.595350642442742], [1142.3681355249723, 9.0], [1148.6983549970246, 8.950335306666009], [1231.1444133449063, 8.842356078761721], [1319.5079107728832, 8.994574260377728], [1322.4213437588587, 9.0], [1414.2135623730828, 9.177854232676163], [1515.7165665103846, 9.207160920188644], [1624.5047927124563, 9.053223885959447], [1650.9328268276738, 9.0], [1741.1011265922318, 8.83507504062955], [1866.065983073597, 8.718940370029895], [1999.9999999999802, 8.855541035747123], [2045.7346460263072, 9.0], [2143.5469250725646, 9.32079168536366], [2293.178114976209, 10.0], [2297.396709994046, 10.019385380863215], [2462.2888266898062, 10.80872081083262], [2513.603752064093, 11.0], [2639.01582154576, 11.463433170206665], [2828.427124746159, 11.80196544854779], [3031.4331330207656, 11.764201437648296], [3249.0095854249043, 11.392856484218953], [3409.1433127778996, 11.0], [3482.2022531844555, 10.836125090931729], [3732.1319661471844, 10.340270211672618], [3999.9999999999504, 10.082243351201143], [4287.093850145118, 10.172915343278055], [4594.793419988081, 10.524470727401546], [4924.577653379601, 10.900345260702318], [5188.170281056514, 11.0], [5278.031643091506, 11.036239098373162], [5314.729118828109, 11.0], [5656.854249492303, 10.693581729996916], [5948.664371650634, 10.0], [6062.866266041501, 9.73902783634783], [6278.766352769913, 9.0], [6498.019170849792, 8.246681866099403], [6563.08093284186, 8.0], [6824.111157446517, 7.0], [6964.404506368894, 6.465472838341091], [7106.0068815883815, 6.0], [7401.549479953812, 5.0], [7464.2639322943505, 4.7925494721109345], [7861.42713496538, 4.0], [7999.999999999882, 3.717411967916732]]}",,rdzaqd,001,fr,0,2022-05-06_15h06.45.512,Continuous,2022.1.1,34.900396010048766,
12,0,12,0,2,0,2,0,,,,,,,,2.0883758429777712,none,321.0,18.59972830936428,0.0008261183831242679,0,86,['none'],0.0012803667923435569,None,['space'],394.31441210000776,394.31441210000776,0.19765646674204618,2.2860323097198174,394.5306983999908,394.31441210000776,[-2.0765771999722347],,,,,,rdzaqd,001,fr,0,2022-05-06_15h06.45.512,Continuous,2022.1.1,34.900396010048766,
12,0,12,0,3,0,3,0,,,,,,,,2.116769199113299,none,1216.0,13.668367058084943,0.000256098700219183,0,87,['none'],0.014003833406604826,None,None,396.62835640006233,396.62835640006233,0.20597393333446234,2.322743132447761,396.84187080000993,396.62835640006233,,,,,,,rdzaqd,001,fr,0,2022-05-06_15h06.45.512,Continuous,2022.1.1,34.900396010048766,
12,0,12,0,4,0,4,0,,,,,,,,1.3543912913655727,none,1822.0,6.828630558686361,0.00014656908224702664,0,88,['none'],0.004627766786143184,None,['space'],398.9660849000793,398.9660849000793,0.21232136676553637,1.566712658131109,399.17652310000267,398.9660849000793,[-1.7839979999698699],,,,,,rdzaqd,001,fr,0,2022-05-06_15h06.45.512,Continuous,2022.1.1,34.900396010048766,
12,0,12,0,5,0,5,0,,,,,,,,2.3502682962161785,none,202.0,19.57614744306374,0.0024906841666272224,0,89,['none'],0.013778433436527848,None,['space'],400.53242040006444,400.53242040006444,0.20902533340267837,2.559293629618857,400.748610700015,400.53242040006444,[-1.0784241000656039],,,,,,rdzaqd,001,fr,0,2022-05-06_15h06.45.512,Continuous,2022.1.1,34.900396010048766,
12,0,12,0,6,0,6,0,,,,,,,,1.164629068497159,none,255.0,20.559932510532583,0.0017298526750484434,0,90,['none'],0.00371996674221009,None,['space'],403.1068610000657,403.1068610000657,0.204438766813837,1.369067835310996,403.3237652000971,403.1068610000657,[-1.4766175999538973],,,,,,rdzaqd,001,fr,0,2022-05-06_15h06.45.512,Continuous,2022.1.1,34.900396010048766,
12,0,12,0,7,0,7,0,,,,,,,,2.486966944471315,none,135.0,19.526463915464507,0.0060006905602050555,0,91,['none'],0.016441033454611897,None,['space'],404.4931996000232,404.4931996000232,0.21161803347058594,2.698584977941901,404.7122306000674,404.4931996000232,[-0.3185293000424281],,,,,,rdzaqd,001,fr,0,2022-05-06_15h06.45.512,Continuous,2022.1.1,34.900396010048766,
12,0,12,0,8,0,8,0,,,,,,,,2.540272694797718,none,2045.0,12.31494249211072,0.0003129461902862249,0,92,['none'],0.014180433354340494,None,None,407.205372299999,407.205372299999,0.21192073333077133,2.752193428128489,407.42132900003344,407.205372299999,,,,,,,rdzaqd,001,fr,0,2022-05-06_15h06.45.512,Continuous,2022.1.1,34.900396010048766,
12,0,12,0,9,0,9,0,,,,,,,,1.8123819117781832,none,455.0,18.765911379013133,0.0006397680748153243,0,93,['none'],0.0010262667201459408,None,['space'],409.96710080001503,409.96710080001503,0.19566856662277132,2.0080504784009543,410.18772530008573,409.96710080001503,[-2.1289560000877827],,,,,,rdzaqd,001,fr,0,2022-05-06_15h06.45.512,Continuous,2022.1.1,34.900396010048766,
12,0,12,0,10,0,10,0,,,,,,,,1.9508344092776275,none,574.0,21.0,0.0006720965764208142,0,94,['none'],0.0002481667324900627,None,None,412.00127460004296,412.00127460004296,0.19564326666295528,2.1464776759405826,412.2204424000811,412.00127460004296,,,,,,,rdzaqd,001,fr,0,2022-05-06_15h06.45.512,Continuous,2022.1.1,34.900396010048766,
12,0,12,0,11,0,11,0,,,,,,,,2.443213171262351,none,405.0,19.037401845851175,0.0006829490548296257,0,95,['none'],0.01621323323342949,None,['space'],414.1770439000102,414.1770439000102,0.24175233324058354,2.6849655045029346,414.41256870003417,414.1770439000102,[-1.6349902999354526],,,,,,rdzaqd,001,fr,0,2022-05-06_15h06.45.512,Continuous,2022.1.1,34.900396010048766,
12,0,12,0,12,0,12,0,,,,,,,,2.3620110489952024,none,511.0,20.269832324904563,0.0007192885487718141,0,96,['none'],0.004136966657824814,None,['space'],416.8538222000934,416.8538222000934,0.20567086664959788,2.5676819156448003,417.0685216001002,416.8538222000934,[-2.1839854000136256],,,,,,rdzaqd,001,fr,0,2022-05-06_15h06.45.512,Continuous,2022.1.1,34.900396010048766,
12,0,12,0,13,0,13,0,,,,,,,,2.707243359926183,none,644.0,18.230718606834486,0.0004073408447712959,0,97,['none'],9.536673314869404e-05,None,['space'],419.42583960003685,419.42583960003685,0.1953328667441383,2.9025762266703214,419.640463000047,419.42583960003685,[-2.036205400014296],,,,,,rdzaqd,001,fr,0,2022-05-06_15h06.45.512,Continuous,2022.1.1,34.900396010048766,
13,0,13,0,0,0,0,0,,,,,,425.0830286000855,None,1.309865263553022,frequency,208.0,9.777861318725266,0.0007698942610747256,0,48,['none'],0.012979366700164974,None,None,426.1220634999918,None,0.21713226661086082,1.5269975301638827,426.341313400073,None,,422.357894100016,None,0.3333333333333333,,,rdzaqd,001,fr,0,2022-05-06_15h06.45.512,Continuous,2022.1.1,34.900396010048766,
13,0,13,0,1,0,1,0,,,,,,,,1.9876264794936946,frequency,262.0,15.278269355795125,0.0008986689214778589,0,49,['none'],0.003737966762855649,None,None,427.6488062000135,427.6488062000135,0.20492796669714153,2.192554446190836,427.8584597000154,427.6488062000135,,,,,,,rdzaqd,001,fr,0,2022-05-06_15h06.45.512,Continuous,2022.1.1,34.900396010048766,
13,0,13,0,2,0,2,0,,,,,,,,2.710921880814113,frequency,330.0,7.79132963088691,0.0002322952205310244,0,50,['none'],0.001635866705328226,0.19820506672840565,None,429.85199940006714,429.85199940006714,0.19820506672840565,2.9091269475425188,430.06315420009196,429.85199940006714,,,,,,,rdzaqd,001,fr,0,2022-05-06_15h06.45.512,Continuous,2022.1.1,34.900396010048766,
13,0,13,0,3,0,3,0,,,,,,,,2.9757476381768857,frequency,416.0,9.525945478755077,0.0002267798006387418,0,51,['none'],0.015566433314234018,None,None,432.7756473000627,432.7756473000627,0.20888873329386115,3.184636371470747,432.99269990005996,432.7756473000627,,,,,,,rdzaqd,001,fr,0,2022-05-06_15h06.45.512,Continuous,2022.1.1,34.900396010048766,
13,0,13,0,4,0,4,0,,,,,,,,1.7296194115870593,frequency,524.0,7.789386913744905,0.0001659825507342484,0,52,['none'],0.002537766587920487,None,None,435.9739745000843,435.9739745000843,0.19900046661496162,1.928619878202021,436.1867182001006,435.9739745000843,,,,,,,rdzaqd,001,fr,0,2022-05-06_15h06.45.512,Continuous,2022.1.1,34.900396010048766,
13,0,13,0,5,0,5,0,,,,,,,,1.967796794761875,frequency,660.0,7.226014719085969,0.00011151817318946522,0,53,['none'],0.003999166656285524,None,None,437.9279523000587,437.9279523000587,0.20967166661284864,2.1774684613747235,438.1440963000059,437.9279523000587,,,,,,,rdzaqd,001,fr,0,2022-05-06_15h06.45.512,Continuous,2022.1.1,34.900396010048766,
13,0,13,0,6,0,6,0,,,,,,,,1.2661004468721482,frequency,832.0,9.781600715144023,0.00012112246094276684,0,54,['none'],0.0005960667040199041,None,None,440.1131387000205,440.1131387000205,0.19771306670736521,1.4638135135795134,440.3326724000508,440.1131387000205,,,,,,,rdzaqd,001,fr,0,2022-05-06_15h06.45.512,Continuous,2022.1.1,34.900396010048766,
13,0,13,0,7,0,7,0,,,,,,,,1.8747608293075522,frequency,1048.0,8.959273501800281,0.00012920787427201345,0,55,['none'],0.01618253334891051,None,None,441.5987492999993,441.5987492999993,0.2416026332648471,2.1163634625723993,441.83114840008784,441.5987492999993,,,,,,,rdzaqd,001,fr,0,2022-05-06_15h06.45.512,Continuous,2022.1.1,34.900396010048766,
13,0,13,0,8,0,8,0,,,,,,,,2.952614780317937,frequency,1320.0,7.0,0.00011814034578168958,0,56,['none'],0.012927333358675241,None,['space'],443.7115655000089,443.7115655000089,0.20595523342490196,3.158570013742839,443.93118800001685,443.7115655000089,[-1.617511099902913],,,,,,rdzaqd,001,fr,0,2022-05-06_15h06.45.512,Continuous,2022.1.1,34.900396010048766,
13,0,13,0,9,0,9,0,,,,,,,,1.7933868187389093,frequency,,,,1,56,['none'],0.0014238667208701372,0.19858046679291874,None,446.88647390005644,446.88647390005644,0.19858046679291874,1.991967285531828,447.1019651000388,446.88647390005644,,,,,,,rdzaqd,001,fr,0,2022-05-06_15h06.45.512,Continuous,2022.1.1,34.900396010048766,
13,0,13,0,10,0,10,0,,,,,,,,1.1113548937942037,frequency,2095.0,5.313193548679433,0.00014180313052086682,0,57,['none'],0.016135733341798186,None,None,448.8986725000432,448.8986725000432,0.21444733336102217,1.3258022271552259,449.1163326000096,448.8986725000432,,,,,,,rdzaqd,001,fr,0,2022-05-06_15h06.45.512,Continuous,2022.1.1,34.900396010048766,
13,0,13,0,11,0,11,0,,,,,,,,1.7006802453585568,frequency,2640.0,3.3807450584214713,0.00011392752328326211,0,58,['none'],0.0035919666988775134,None,['space'],450.2391001000069,450.2391001000069,0.207543266704306,1.9082235120628628,450.4459375999868,450.2391001000069,[-0.8168959999457002],,,,,,rdzaqd,001,fr,0,2022-05-06_15h06.45.512,Continuous,2022.1.1,34.900396010048766,
13,0,13,0,12,0,12,0,,,,,,,,2.827454451721779,frequency,3326.0,2.0581490819978923,9.138929629462531e-05,0,59,['none'],0.002757866750471294,None,None,452.1573817000026,452.1573817000026,0.210312066716142,3.037766518437921,452.37381990009453,452.1573817000026,,,,,,,rdzaqd,001,fr,0,2022-05-06_15h06.45.512,Continuous,2022.1.1,34.900396010048766,
13,0,13,0,13,0,13,0,,,,,,,,1.9923972490321253,frequency,4190.0,2.469933050969672,0.00012892228370194666,0,60,['none'],0.00035556673537939787,None,['space'],455.1992333000526,455.1992333000526,0.20042196672875434,2.1928192157608795,455.4206517999992,455.1992333000526,[-2.0496736000059173],,,,,,rdzaqd,001,fr,0,2022-05-06_15h06.45.512,Continuous,2022.1.1,34.900396010048766,
13,0,13,0,14,0,14,0,,,,,,,,2.2192963808496895,frequency,5279.0,6.62459246014437,0.00030543241712601343,0,61,['none'],0.01662543334532529,None,['space'],457.41801500006113,457.41801500006113,0.21568283333908767,2.434979214188777,457.63756390009075,457.41801500006113,[-1.404230899992399],,,,,,rdzaqd,001,fr,0,2022-05-06_15h06.45.512,Continuous,2022.1.1,34.900396010048766,
14,0,14,0,0,0,0,0,,,,,,461.9472633000696,None,1.2494130417192533,both,177.0,23.0,0.004932689959622453,0,33,['none'],0.014935233513824642,None,None,462.98044150008354,None,0.22154193348251283,1.470954975201766,463.2011535000056,None,,459.8658015000401,None,0.3333333333333333,,,rdzaqd,001,fr,0,2022-05-06_15h06.45.512,Continuous,2022.1.1,34.900396010048766,
14,0,14,0,1,0,1,0,,,,,,,,1.2494130417192533,both,223.0,20.8262652035677,0.002423746058496349,0,34,['none'],0.002992366789840162,None,None,464.45402840001043,464.45402840001043,0.20539916679263115,1.4548122085118844,464.66753159998916,464.45402840001043,,,,,,,rdzaqd,001,fr,0,2022-05-06_15h06.45.512,Continuous,2022.1.1,34.900396010048766,
14,0,14,0,2,0,2,0,,,,,,,,1.2494130417192533,both,281.0,21.48110994760661,0.0015967354236816897,0,35,['none'],0.0012985668145120144,None,None,465.92424690001644,465.92424690001644,0.20145476679317653,1.4508678085124298,466.1395270000212,465.92424690001644,,,,,,,rdzaqd,001,fr,0,2022-05-06_15h06.45.512,Continuous,2022.1.1,34.900396010048766,
14,0,14,0,3,0,3,0,,,,,,,,1.2494130417192533,both,354.0,20.50391300108498,0.0009378236647591642,0,36,['none'],0.0003228667192161083,None,['space'],467.39169389999006,467.39169389999006,0.19930276670493186,1.4487158084241851,467.6114456000505,467.39169389999006,[-1.1537018000381067],,,,,,rdzaqd,001,fr,0,2022-05-06_15h06.45.512,Continuous,2022.1.1,34.900396010048766,
14,0,14,0,4,0,4,0,,,,,,,,1.2494130417192533,both,446.0,19.391889188984653,0.0006918649387733173,0,37,['none'],0.01656173320952803,None,None,468.8628479000181,468.8628479000181,0.2134733332786709,1.4628863749979242,469.07991550001316,468.8628479000181,,,,,,,rdzaqd,001,fr,0,2022-05-06_15h06.45.512,Continuous,2022.1.1,34.900396010048766,
14,0,14,0,5,0,5,0,,,,,,,,1.2494130417192533,both,562.0,13.425948529271846,0.0002897969658008683,0,38,['none'],0.016384533373638988,None,['space'],470.3309164000675,470.3309164000675,0.21001793339382857,1.4594309751130818,470.54948290006723,470.3309164000675,[-1.0681957000633702],,,,,,rdzaqd,001,fr,0,2022-05-06_15h06.45.512,Continuous,2022.1.1,34.900396010048766,
14,0,14,0,6,0,6,0,,,,,,,,1.2494130417192533,both,708.0,13.72437273069535,0.0002152105954647033,0,39,['none'],0.01593623321969062,None,['space'],471.8040860000765,471.8040860000765,0.21280213329009712,1.4622151750093504,472.0257302999962,471.8040860000765,[-0.6695897000608966],,,,,,rdzaqd,001,fr,0,2022-05-06_15h06.45.512,Continuous,2022.1.1,34.900396010048766,
14,0,14,0,7,0,7,0,,,,,,,,1.2494130417192533,both,892.0,13.95055121773239,0.00020423495818708664,0,40,['none'],0.016027833218686283,None,None,473.27010010008235,473.27010010008235,0.21562333323527128,1.4650363749545245,473.4952172000194,473.27010010008235,,,,,,,rdzaqd,001,fr,0,2022-05-06_15h06.45.512,Continuous,2022.1.1,34.900396010048766,
14,0,14,0,8,0,8,0,,,,,,,,1.2494130417192533,both,1124.0,15.253192455681592,0.0002850814170282967,0,41,['none'],0.003111266763880849,None,None,474.74743440002203,474.74743440002203,0.2076363667147234,1.4570494084339767,474.9591859000502,474.74743440002203,,,,,,,rdzaqd,001,fr,0,2022-05-06_15h06.45.512,Continuous,2022.1.1,34.900396010048766,
14,0,14,0,9,0,9,0,,,,,,,,1.2494130417192533,both,1416.0,12.434646396549574,0.00021089162961060692,0,42,['none'],0.013729733414947987,None,['space'],476.2115611000918,476.2115611000918,0.21673233341425657,1.4661453751335098,476.4331231000833,476.2115611000918,[-0.37387820007279515],,,,,,rdzaqd,001,fr,0,2022-05-06_15h06.45.512,Continuous,2022.1.1,34.900396010048766,
14,0,14,0,10,0,10,0,,,,,,,,1.2494130417192533,both,1784.0,4.226753300683601,0.00010583836613618083,0,43,['none'],0.0027923666639253497,None,None,477.684955200064,477.684955200064,0.20767076662741601,1.4570838083466693,477.9008600000525,477.684955200064,,,,,,,rdzaqd,001,fr,0,2022-05-06_15h06.45.512,Continuous,2022.1.1,34.900396010048766,
14,0,14,0,11,0,11,0,,,,,,,,1.2494130417192533,both,2248.0,2.6860586703476113,0.0001094129160791615,0,44,['none'],0.0028710667975246906,None,None,479.15286570007447,479.15286570007447,0.20406216685660183,1.453475208575855,479.3665702000726,479.15286570007447,,,,,,,rdzaqd,001,fr,0,2022-05-06_15h06.45.512,Continuous,2022.1.1,34.900396010048766,
14,0,14,0,12,0,12,0,,,,,,,,1.2494130417192533,both,2832.0,5.092847185590111,0.00011730475806311498,0,45,['none'],0.015673833317123353,None,None,480.6226668000454,480.6226668000454,0.2129307333379984,1.4623437750572517,480.84250960010104,480.6226668000454,,,,,,,rdzaqd,001,fr,0,2022-05-06_15h06.45.512,Continuous,2022.1.1,34.900396010048766,
14,0,14,0,13,0,13,0,,,,,,,,1.2494130417192533,both,3568.0,3.2116792218274424,0.00011051770091854551,0,46,['none'],0.0155456333886832,None,['space'],482.0919108000817,482.0919108000817,0.21079933340661228,1.4602123751258655,482.30750830005854,482.0919108000817,[-0.5899064000695944],,,,,,rdzaqd,001,fr,0,2022-05-06_15h06.45.512,Continuous,2022.1.1,34.900396010048766,
14,0,14,0,14,0,14,0,,,,,,,,1.2494130417192533,both,,,,1,46,['none'],0.01607153343502432,None,['space'],483.562822900014,483.562822900014,0.2115789334056899,1.4609919751249432,483.77870760008227,483.562822900014,[-0.6694279999937862],,,,,,rdzaqd,001,fr,0,2022-05-06_15h06.45.512,Continuous,2022.1.1,34.900396010048766,
15,0,15,0,0,0,0,0,,,,,,487.8748454999877,None,1.9235378574989668,frequency,161.0,22.697889148236523,0.005559043332458646,0,62,['none'],0.012887566583231091,None,None,488.8979627999943,None,0.2085925666615367,2.1321304241605032,489.1023923000321,None,,485.02986880007666,None,0.3333333333333333,,,rdzaqd,001,fr,0,2022-05-06_15h06.45.512,Continuous,2022.1.1,34.900396010048766,
15,0,15,0,1,0,1,0,,,,,,,,2.2856618336302437,frequency,,,,1,62,['none'],7.026665844023228e-05,None,None,491.0325548000401,491.0325548000401,0.19585356663446873,2.4815154002647124,491.24431510001887,491.0325548000401,,,,,,,rdzaqd,001,fr,0,2022-05-06_15h06.45.512,Continuous,2022.1.1,34.900396010048766,
15,0,15,0,2,0,2,0,,,,,,,,2.5365372031255338,frequency,256.0,18.015609855839212,0.0012821736130493486,0,63,['none'],0.0025415668496862054,None,None,493.53562830004375,493.53562830004375,0.20267136686015874,2.7392085699856925,493.7475569000235,493.53562830004375,,,,,,,rdzaqd,001,fr,0,2022-05-06_15h06.45.512,Continuous,2022.1.1,34.900396010048766,
15,0,15,0,3,0,3,0,,,,,,,,2.6983717566086614,frequency,322.0,22.707665362161336,0.0013221356187635889,0,64,['none'],0.0015967667568475008,None,None,496.28775500005577,496.28775500005577,0.20252246677409858,2.90089422338276,496.5041898000054,496.28775500005577,,,,,,,rdzaqd,001,fr,0,2022-05-06_15h06.45.512,Continuous,2022.1.1,34.900396010048766,
15,0,15,0,4,0,4,0,,,,,,,,2.844431244847165,frequency,406.0,23.0,0.0010770286970621468,0,65,['none'],0.015506133320741355,None,None,499.2091277000727,499.2091277000727,0.21196313330437988,3.056394378151545,499.424768100027,499.2091277000727,,,,,,,rdzaqd,001,fr,0,2022-05-06_15h06.45.512,Continuous,2022.1.1,34.900396010048766,
15,0,15,0,5,0,5,0,,,,,,,,2.827933636673856,frequency,512.0,16.912084522833638,0.00048757681184500575,0,66,['none'],0.0026090667815878987,None,['space'],502.277526400052,502.277526400052,0.20482926676049829,3.0327629034343544,502.4888168000616,502.277526400052,[-2.503707000054419],,,,,,rdzaqd,001,fr,0,2022-05-06_15h06.45.512,Continuous,2022.1.1,34.900396010048766,
15,0,15,0,6,0,6,0,,,,,,,,1.2444255680819576,frequency,645.0,19.535104982065285,0.00047251321300142247,0,67,['none'],0.014950833283364773,None,['space'],505.3162611000007,505.3162611000007,0.21080053329933435,1.455226101381292,505.5327292000875,505.3162611000007,[-2.4544358000857756],,,,,,rdzaqd,001,fr,0,2022-05-06_15h06.45.512,Continuous,2022.1.1,34.900396010048766,
15,0,15,0,7,0,7,0,,,,,,,,2.9160202545318747,frequency,813.0,14.643956475587041,0.00020908846220012956,0,68,['none'],0.014040933339856565,None,['space'],506.78684100008104,506.78684100008104,0.2105792333604768,3.1265994878923515,507.00422570004594,506.78684100008104,[-1.012784600025043],,,,,,rdzaqd,001,fr,0,2022-05-06_15h06.45.512,Continuous,2022.1.1,34.900396010048766,
15,0,15,0,8,0,8,0,,,,,,,,1.1333550386719178,frequency,1024.0,16.139314095771223,0.0002888824627119178,0,69,['none'],0.015727533376775682,None,['space'],509.9270690000849,509.9270690000849,0.21183563338126987,1.3451906720531877,510.142333600088,509.9270690000849,[-0.21814969996921718],,,,,,rdzaqd,001,fr,0,2022-05-06_15h06.45.512,Continuous,2022.1.1,34.900396010048766,
15,0,15,0,9,0,9,0,,,,,,,,1.6775018076526635,frequency,1290.0,14.992409226746222,0.0003006805735815456,0,70,['none'],0.001728166826069355,None,None,511.2866199000273,511.2866199000273,0.20438566687516868,1.8818874745278322,511.4959703000495,511.2866199000273,,,,,,,rdzaqd,001,fr,0,2022-05-06_15h06.45.512,Continuous,2022.1.1,34.900396010048766,
15,0,15,0,10,0,10,0,,,,,,,,2.895537587759115,frequency,1625.0,13.48025712799045,0.00027323519522926037,0,71,['none'],0.014913033344782889,None,None,513.1750339000719,513.1750339000719,0.21323613333515823,3.1087737210942734,513.3902352000587,513.1750339000719,,,,,,,rdzaqd,001,fr,0,2022-05-06_15h06.45.512,Continuous,2022.1.1,34.900396010048766,
16,0,16,0,0,0,0,0,,,,,"[0.16666666666666666, 0.16666666666666666, 0.3333333333333333, 0.16666666666666666, 0.5833333333333334, 0.5833333333333334, 0.16666666666666666, 0.5833333333333334, 0.16666666666666666, 0.16666666666666666, 0.5833333333333334, 0.5833333333333334, 0.3333333333333333, 0.3333333333333333, 0.5833333333333334]",523.772338300012,None,1.3035850399035072,time,1954.0,13.515151911984919,0.0003447461986863947,0,55,['none'],0.012799766846001148,None,"['space', 'space']",524.8147049000254,None,0.22603016684297472,1.5296152067464819,525.0298101000953,None,"[-1.984300100011751, -0.8800386999500915]",516.294050800032,None,,,,rdzaqd,001,fr,0,2022-05-06_15h06.45.512,Continuous,2022.1.1,34.900396010048766,
16,0,16,0,1,0,1,0,,,,,,,,1.3035850399035072,time,366.0,18.931979706525155,0.0007550237657148334,0,56,['none'],0.0005108666373416781,None,['space'],526.3375515000662,526.3375515000662,0.19979266670998186,1.503377706613489,526.5533486000495,526.3375515000662,[-0.7231145000550896],,,,,,rdzaqd,001,fr,0,2022-05-06_15h06.45.512,Continuous,2022.1.1,34.900396010048766,
16,0,16,0,2,0,2,0,,,,,,,,1.3035850399035072,time,2462.0,6.74718604939536,0.00018494783880473759,0,57,['none'],0.014969333307817578,None,None,527.8633415000513,527.8633415000513,0.2535755332792178,1.557160573182725,528.1159026999958,527.8633415000513,,,,,,,rdzaqd,001,fr,0,2022-05-06_15h06.45.512,Continuous,2022.1.1,34.900396010048766,
16,0,16,0,3,0,3,0,,,,,,,,1.3035850399035072,time,218.0,18.060863098687953,0.0018412158517743958,0,58,['none'],0.015181333292275667,None,['space'],529.4145834000083,529.4145834000083,0.21779173333197832,1.5213767732354855,529.6371305000503,529.4145834000083,[-1.1127102000173181],,,,,,rdzaqd,001,fr,0,2022-05-06_15h06.45.512,Continuous,2022.1.1,34.900396010048766,
16,0,16,0,4,0,4,0,,,,,,,,1.3035850399035072,time,145.0,19.53178055239908,0.00516080384040099,0,59,['none'],0.00018616660963743925,None,None,530.9410025000107,530.9410025000107,0.19912626664154232,1.5027113065450495,531.156748300069,530.9410025000107,,,,,,,rdzaqd,001,fr,0,2022-05-06_15h06.45.512,Continuous,2022.1.1,34.900396010048766,
16,0,16,0,5,0,5,0,,,,,,,,1.3035850399035072,time,326.0,18.978393960253847,0.0008513899065745672,0,60,['none'],0.015284533379599452,0.21516883338335901,None,532.4608034000266,532.4608034000266,0.21516883338335901,1.5187538732868662,532.679970700061,532.4608034000266,,,,,,,rdzaqd,001,fr,0,2022-05-06_15h06.45.512,Continuous,2022.1.1,34.900396010048766,
16,0,16,0,6,0,6,0,,,,,,,,1.3035850399035072,time,129.0,19.0,0.00612386203357754,0,61,['none'],0.014510733308270574,None,None,533.9828551000683,533.9828551000683,0.23738473327830434,1.5409697731818115,534.213058500085,533.9828551000683,,,,,,,rdzaqd,001,fr,0,2022-05-06_15h06.45.512,Continuous,2022.1.1,34.900396010048766,
16,0,16,0,7,0,7,0,,,,,,,,1.3035850399035072,time,,,,1,61,['none'],0.015481333364732563,None,None,535.517677100026,535.517677100026,0.21482113341335207,1.5184061733168592,535.730018000002,535.517677100026,,,,,,,rdzaqd,001,fr,0,2022-05-06_15h06.45.512,Continuous,2022.1.1,34.900396010048766,
16,0,16,0,8,0,8,0,,,,,,,,1.3035850399035072,time,1551.0,4.485289993001009,8.817414166852167e-05,0,62,['none'],0.015499033266678452,None,None,537.0412434000755,537.0412434000755,0.22473653324414045,1.5283215731476476,537.2679668000201,537.0412434000755,,,,,,,rdzaqd,001,fr,0,2022-05-06_15h06.45.512,Continuous,2022.1.1,34.900396010048766,
16,0,16,0,9,0,9,0,,,,,,,,1.3035850399035072,time,549.0,15.02193531219877,0.0003596847883694661,0,63,['none'],0.014794333255849779,None,None,538.5721698000561,538.5721698000561,0.23775143327657133,1.5413364731800785,538.8002380999969,538.5721698000561,,,,,,,rdzaqd,001,fr,0,2022-05-06_15h06.45.512,Continuous,2022.1.1,34.900396010048766,
16,0,16,0,10,0,10,0,,,,,,,,1.3035850399035072,time,691.0,14.86158720226536,0.0002535658690642747,0,64,['none'],0.015006533358246088,None,None,540.1067542000674,540.1067542000674,0.20723523327615112,1.5108202731796583,540.321757900063,540.1067542000674,,,,,,,rdzaqd,001,fr,0,2022-05-06_15h06.45.512,Continuous,2022.1.1,34.900396010048766,
16,0,16,0,11,0,11,0,,,,,,,,1.3035850399035072,time,616.0,19.0,0.0004754703865366109,0,65,['none'],0.011139333248138428,None,None,541.6325384000083,541.6325384000083,0.23240303329657763,1.5359880732000848,541.8630347000435,541.6325384000083,,,,,,,rdzaqd,001,fr,0,2022-05-06_15h06.45.512,Continuous,2022.1.1,34.900396010048766,
16,0,16,0,12,0,12,0,,,,,,,,1.3035850399035072,time,3689.0,6.707185639093452,0.00016987251530464363,0,66,['none'],0.0015515666455030441,None,['space'],543.1702310000546,543.1702310000546,0.2040574667043984,1.5076425066079056,543.3835134000983,543.1702310000546,[-0.8523772000335157],,,,,,rdzaqd,001,fr,0,2022-05-06_15h06.45.512,Continuous,2022.1.1,34.900396010048766,
17,0,17,0,0,0,0,0,,,,,,547.7919027000898,None,2.8789318259803696,frequency,125.0,26.0,0.014420157515633034,0,72,['none'],0.012889266712591052,None,['space'],548.8082132000709,None,0.22680336667690426,3.105735192657274,549.0287505000597,None,[-0.34638780006207526],544.6901866000844,None,0.5833333333333334,,,rdzaqd,001,fr,0,2022-05-06_15h06.45.512,Continuous,2022.1.1,34.900396010048766,
17,0,17,0,1,0,1,0,,,,,,,,2.21106108852641,frequency,187.0,24.13573569078074,0.005035432414597387,0,73,['none'],0.012940233340486884,None,['space'],551.9069543000078,551.9069543000078,0.2112447334220633,2.4223058219484734,552.1179015000816,551.9069543000078,[-2.068581899977289],,,,,,rdzaqd,001,fr,0,2022-05-06_15h06.45.512,Continuous,2022.1.1,34.900396010048766,
17,0,17,0,2,0,2,0,,,,,,,,2.4730489526799397,frequency,280.0,24.906576253551215,0.0023873170649097277,0,74,['none'],0.014190233312547207,None,None,554.3369803000242,554.3369803000242,0.208033433300443,2.6810823859803827,554.5545288000721,554.3369803000242,,,,,,,rdzaqd,001,fr,0,2022-05-06_15h06.45.512,Continuous,2022.1.1,34.900396010048766,
17,0,17,0,3,0,3,0,,,,,,,,2.781753886953549,frequency,420.0,19.291621425608476,0.0006961688300137044,0,75,['none'],0.016134533332660794,None,['space'],557.0355846000602,557.0355846000602,0.21457173337694257,2.9963256203304915,557.2500902999891,557.0355846000602,[-1.9975641999626532],,,,,,rdzaqd,001,fr,0,2022-05-06_15h06.45.512,Continuous,2022.1.1,34.900396010048766,
17,0,17,0,4,0,4,0,,,,,,,,2.4629383514617285,frequency,629.0,19.17214673476917,0.0004665513870290867,0,76,['none'],0.01421063335146755,None,['space'],560.0397141000722,560.0397141000722,0.21126743336208165,2.67420578482381,560.2563620000146,560.0397141000722,[-2.441498800064437],,,,,,rdzaqd,001,fr,0,2022-05-06_15h06.45.512,Continuous,2022.1.1,34.900396010048766,
17,0,17,0,5,0,5,0,,,,,,,,2.0009092139441296,frequency,942.0,16.203935339184767,0.00027390713984577867,0,77,['none'],0.014260433265008032,None,['space'],562.7290231999941,562.7290231999941,0.20913303329143673,2.2100422472355663,562.9464046000503,562.7290231999941,[-2.1066863000160083],,,,,,rdzaqd,001,fr,0,2022-05-06_15h06.45.512,Continuous,2022.1.1,34.900396010048766,
17,0,17,0,6,0,6,0,,,,,,,,1.9344350986281265,frequency,1411.0,10.357426913293907,0.0001664435466887985,0,78,['none'],0.010200633318163455,0.2042283333139494,['space'],564.9581548999995,564.9581548999995,0.2042283333139494,2.138663431942076,565.1661007000366,564.9581548999995,[-1.2643649000674486],,,,,,rdzaqd,001,fr,0,2022-05-06_15h06.45.512,Continuous,2022.1.1,34.900396010048766,
17,0,17,0,7,0,7,0,,,,,,,,1.365348973592842,frequency,2114.0,8.737668024058289,0.00021148575600337142,0,79,['none'],0.01186803332529962,0.20632333331741393,None,567.1085641999962,567.1085641999962,0.20632333331741393,1.5716723069102558,567.3213326000841,567.1085641999962,,,,,,,rdzaqd,001,fr,0,2022-05-06_15h06.45.512,Continuous,2022.1.1,34.900396010048766,
17,0,17,0,8,0,8,0,,,,,,,,1.3727091035543069,frequency,3167.0,16.96157052761466,0.0004885648864339256,0,80,['none'],0.010561333387158811,0.20615833334159106,['space'],568.6957885000156,568.6957885000156,0.20615833334159106,1.578867436895898,568.9125623999862,568.6957885000156,[-1.0657338999444619],,,,,,rdzaqd,001,fr,0,2022-05-06_15h06.45.512,Continuous,2022.1.1,34.900396010048766,
17,0,17,0,9,0,9,0,,,,,,,,2.2912387078631773,frequency,4745.0,8.41892021176634,0.0003563891794716066,0,81,['none'],0.014593633357435465,None,['space'],570.2868453999981,570.2868453999981,0.23869503336027265,2.52993374122345,570.5189725999953,570.2868453999981,[-1.0251817000098526],,,,,,rdzaqd,001,fr,0,2022-05-06_15h06.45.512,Continuous,2022.1.1,34.900396010048766,
17,0,17,0,10,0,10,0,,,,,,,,2.4371598186676957,frequency,,,,1,81,['none'],0.011904733371920884,None,['space'],572.8145373000298,572.8145373000298,0.20716983336023986,2.6443296520279356,573.0281222000485,572.8145373000298,[-1.8889177000382915],,,,,,rdzaqd,001,fr,0,2022-05-06_15h06.45.512,Continuous,2022.1.1,34.900396010048766,
18,0,18,0,0,0,0,0,,,,,,578.5705002000323,None,2.19997891175047,frequency,315.0,2.3418196570799115,0.0001291400609937016,0,82,['none'],0.013034566771239042,None,['space'],579.6126184000168,None,0.223481266759336,2.423460178509806,579.8290309000295,None,[-0.8131551999831572],575.4715843000449,None,0.5833333333333334,,,rdzaqd,001,fr,0,2022-05-06_15h06.45.512,Continuous,2022.1.1,34.900396010048766,
18,0,18,0,1,0,1,0,,,,,,,,1.302427649026755,frequency,472.0,14.241407231125535,0.00037553580849603854,0,83,['none'],0.013964233337901533,0.2105778333498165,None,582.0287310000276,582.0287310000276,0.2105778333498165,1.5130054823765715,582.2380247000838,582.0287310000276,,,,,,,rdzaqd,001,fr,0,2022-05-06_15h06.45.512,Continuous,2022.1.1,34.900396010048766,
18,0,18,0,2,0,2,0,,,,,,,,2.4670568392340098,frequency,707.0,7.552256322661291,0.00010595371692886699,0,84,['none'],0.012608133372850716,None,None,583.5487585000228,583.5487585000228,0.20774123328737915,2.674798072521389,583.767705300008,583.5487585000228,,,,,,,rdzaqd,001,fr,0,2022-05-06_15h06.45.512,Continuous,2022.1.1,34.900396010048766,
