practice.thisRepN,practice.thisTrialN,practice.thisN,practice.thisIndex,trials.thisRepN,trials.thisTrialN,trials.thisN,trials.thisIndex,blank_txt.started,blank_txt.stopped,practice_frequency,practice_level,psychopy_volume,tProbe.started,tProbe.stopped,tFeedback.keys,tFeedback.corr,tFeedback.rt,tFeedback.started,tFeedback.stopped,tToo_early.keys,tToo_early.corr,tToo_early.started,tToo_early.stopped,tToo_late.keys,tToo_late.corr,tToo_late.started,tToo_late.stopped,you_done_goofed.started,you_done_goofed.stopped,Init_phase,Frequency,Level,Psychopy_Volume,Catch trial,probe.started,probe.stopped,feedback.keys,feedback.corr,feedback.rt,feedback.started,feedback.stopped,too_late.keys,too_late.corr,too_late.started,too_late.stopped,Audiogram,participant,session,Language (english or french),Tone duration (ms),date,expName,psychopyVersion,frameRate,
0,0,0,0,,,,,126.32794530002866,None,567,40,0.006099267302654233,1.0127239667344838,None,['space'],1,[0.5091621000319719],128.32408000004943,129.33373770001344,None,1,127.32487460004631,128.32408000004943,None,1,129.33373770001344,None,130.37107700004708,None,,,,,,,,,,,,,,,,,,rdzaqd,001,fr,200,2022-05-06_14h06.54.932,Bayesian,2022.1.1,None,
1,0,1,0,,,,,,,234,40,0.019882976039061955,1.0100179667351767,None,['space'],1,[0.48515449999831617],132.98831170005724,133.984218699974,None,1,131.98692789999768,133.01756399997976,None,1,133.984218699974,None,135.0165484000463,None,,,,,,,,,,,,,,,,,,rdzaqd,001,fr,200,2022-05-06_14h06.54.932,Bayesian,2022.1.1,None,
2,0,2,0,,,,,,,2345,40,0.008245949202640053,0.9997118667233735,None,['space'],1,[0.4809112000511959],137.36020380002446,138.36743620003108,None,1,136.3765101999743,137.38864310004283,None,1,138.36743620003108,None,139.3871873000171,None,,,,,,,,,,,,,,,,,,rdzaqd,001,fr,200,2022-05-06_14h06.54.932,Bayesian,2022.1.1,None,
,,,,0,0,0,0,143.32733140001073,None,,,,,,,,,,,,,,,,,,,,,"{'x': [], 'y': [], 'is_init_phase': True, 'is_exam_finished': False, 'threshold_uncertainty_db': 6}",1000,60,0.0440524436504007,False,0.013339399942196906,None,['space'],1,[0.4073765999637544],144.4254034999758,145.44215390004683,None,1,145.44215390004683,None,,rdzaqd,001,fr,200,2022-05-06_14h06.54.932,Bayesian,2022.1.1,None,
,,,,1,0,1,0,,,,,,,,,,,,,,,,,,,,,,,"{'x': [[1000, 60]], 'y': [[1]], 'audiogram': {}, 'is_init_phase': True, 'is_exam_finished': False, 'threshold_uncertainty_db': 6}",1000,40,0.004405244365040069,False,0.014813766698352993,None,['space'],1,[0.38928739994298667],147.64302329998463,148.65135770000052,None,1,148.65135770000052,147.64302329998463,,rdzaqd,001,fr,200,2022-05-06_14h06.54.932,Bayesian,2022.1.1,None,
,,,,2,0,2,0,,,,,,,,,,,,,,,,,,,,,,,"{'x': [[1000, 60], [1000, 40]], 'y': [[1], [1]], 'audiogram': {}, 'is_init_phase': True, 'is_exam_finished': False, 'threshold_uncertainty_db': 6}",1000,20,0.0004405244365040069,False,0.0005911000771448016,0.19116730010136962,['space'],1,[0.4874540999298915],151.2745794999646,152.26843739999458,None,1,152.26843739999458,151.2745794999646,,rdzaqd,001,fr,200,2022-05-06_14h06.54.932,Bayesian,2022.1.1,None,
,,,,3,0,3,0,,,,,,,,,,,,,,,,,,,,,,,"{'x': [[1000, 60], [1000, 40], [1000, 20]], 'y': [[1], [1], [1]], 'audiogram': {}, 'is_init_phase': True, 'is_exam_finished': False, 'threshold_uncertainty_db': 6}",1000,0,4.405244365040069e-05,False,0.0058117000153288245,None,None,0,,154.46272199996747,155.4770117000444,None,1,155.4770117000444,154.46272199996747,,rdzaqd,001,fr,200,2022-05-06_14h06.54.932,Bayesian,2022.1.1,None,
,,,,4,0,4,0,,,,,,,,,,,,,,,,,,,,,,,"{'x': [[1000, 60], [1000, 40], [1000, 20], [1000, 0]], 'y': [[1], [1], [1], [-1]], 'audiogram': {}, 'is_init_phase': True, 'is_exam_finished': False, 'threshold_uncertainty_db': 6}",,,,True,0.016470433329232037,None,None,0,,157.17557540000416,158.17463170003612,None,1,158.17463170003612,157.17557540000416,,rdzaqd,001,fr,200,2022-05-06_14h06.54.932,Bayesian,2022.1.1,None,
,,,,5,0,5,0,,,,,,,,,,,,,,,,,,,,,,,"{'x': [[1000, 60], [1000, 40], [1000, 20], [1000, 0]], 'y': [[1], [1], [1], [-1]], 'audiogram': {}, 'is_init_phase': True, 'is_exam_finished': False, 'threshold_uncertainty_db': 6}",1500,10,0.0001527460556607757,False,0.006649299873970449,None,['space'],1,[0.45112730003893375],159.4698464999674,160.48345850000624,None,1,160.48345850000624,159.4698464999674,,rdzaqd,001,fr,200,2022-05-06_14h06.54.932,Bayesian,2022.1.1,None,
,,,,6,0,6,0,,,,,,,,,,,,,,,,,,,,,,,"{'x': [[1000, 60], [1000, 40], [1000, 20], [1000, 0], [1500, 10]], 'y': [[1], [1], [1], [-1], [1]], 'audiogram': {}, 'is_init_phase': True, 'is_exam_finished': False, 'threshold_uncertainty_db': 6}",1500,-10,1.527460556607758e-05,False,0.004884400055743754,None,None,0,,162.83843969996087,163.85297989996616,None,1,163.85297989996616,162.83843969996087,,rdzaqd,001,fr,200,2022-05-06_14h06.54.932,Bayesian,2022.1.1,None,
,,,,7,0,7,0,,,,,,,,,,,,,,,,,,,,,,,"{'x': [[1000, 60], [1000, 40], [1000, 20], [1000, 0], [1500, 10], [1500, -10]], 'y': [[1], [1], [1], [-1], [1], [-1]], 'audiogram': {}, 'is_init_phase': True, 'is_exam_finished': False, 'threshold_uncertainty_db': 6}",2000,10,0.00023657562948074026,False,0.0038330998504534364,None,['space'],1,[0.42479049996472895],165.20790889998898,166.2360517999623,None,1,166.2360517999623,165.20790889998898,,rdzaqd,001,fr,200,2022-05-06_14h06.54.932,Bayesian,2022.1.1,None,
,,,,8,0,8,0,,,,,,,,,,,,,,,,,,,,,,,"{'x': [[1000, 60], [1000, 40], [1000, 20], [1000, 0], [1500, 10], [1500, -10], [2000, 10]], 'y': [[1], [1], [1], [-1], [1], [-1], [1]], 'audiogram': {}, 'is_init_phase': True, 'is_exam_finished': False, 'threshold_uncertainty_db': 6}",2000,-10,2.3657562948074015e-05,False,0.014883400057442486,None,None,0,,168.3087891000323,169.33734820003156,None,1,169.33734820003156,168.3087891000323,,rdzaqd,001,fr,200,2022-05-06_14h06.54.932,Bayesian,2022.1.1,None,
,,,,9,0,9,0,,,,,,,,,,,,,,,,,,,,,,,"{'x': [[1000, 60], [1000, 40], [1000, 20], [1000, 0], [1500, 10], [1500, -10], [2000, 10], [2000, -10]], 'y': [[1], [1], [1], [-1], [1], [-1], [1], [-1]], 'audiogram': {}, 'is_init_phase': True, 'is_exam_finished': False, 'threshold_uncertainty_db': 6}",,,,True,0.014875333290547132,None,None,0,,171.2803975000279,172.2874294000212,None,1,172.2874294000212,171.2803975000279,,rdzaqd,001,fr,200,2022-05-06_14h06.54.932,Bayesian,2022.1.1,None,
,,,,10,0,10,0,,,,,,,,,,,,,,,,,,,,,,,"{'x': [[1000, 60], [1000, 40], [1000, 20], [1000, 0], [1500, 10], [1500, -10], [2000, 10], [2000, -10]], 'y': [[1], [1], [1], [-1], [1], [-1], [1], [-1]], 'audiogram': {}, 'is_init_phase': True, 'is_exam_finished': False, 'threshold_uncertainty_db': 6}",3000,10,0.00017336842522626576,False,0.0019172000465914607,0.19449200003873557,['space'],1,[0.39867319993209094],173.89077359996736,174.9121659999946,None,1,174.9121659999946,173.89077359996736,,rdzaqd,001,fr,200,2022-05-06_14h06.54.932,Bayesian,2022.1.1,None,
,,,,11,0,11,0,,,,,,,,,,,,,,,,,,,,,,,"{'x': [[1000, 60], [1000, 40], [1000, 20], [1000, 0], [1500, 10], [1500, -10], [2000, 10], [2000, -10], [3000, 10]], 'y': [[1], [1], [1], [-1], [1], [-1], [1], [-1], [1]], 'audiogram': {}, 'is_init_phase': True, 'is_exam_finished': False, 'threshold_uncertainty_db': 6}",3000,-10,1.7336842522626584e-05,False,0.0007232000352814794,0.1934309999924153,None,0,,177.84211480000522,178.8561378000304,None,1,178.8561378000304,177.84211480000522,,rdzaqd,001,fr,200,2022-05-06_14h06.54.932,Bayesian,2022.1.1,None,
,,,,12,0,12,0,,,,,,,,,,,,,,,,,,,,,,,"{'x': [[1000, 60], [1000, 40], [1000, 20], [1000, 0], [1500, 10], [1500, -10], [2000, 10], [2000, -10], [3000, 10], [3000, -10]], 'y': [[1], [1], [1], [-1], [1], [-1], [1], [-1], [1], [-1]], 'audiogram': {}, 'is_init_phase': True, 'is_exam_finished': False, 'threshold_uncertainty_db': 6}",4000,10,0.00026544222211549425,False,0.008349200012162328,None,['space'],1,[0.41002049995586276],180.79089199996088,181.8236374000553,None,1,181.8236374000553,180.79089199996088,,rdzaqd,001,fr,200,2022-05-06_14h06.54.932,Bayesian,2022.1.1,None,
,,,,13,0,13,0,,,,,,,,,,,,,,,,,,,,,,,"{'x': [[1000, 60], [1000, 40], [1000, 20], [1000, 0], [1500, 10], [1500, -10], [2000, 10], [2000, -10], [3000, 10], [3000, -10], [4000, 10]], 'y': [[1], [1], [1], [-1], [1], [-1], [1], [-1], [1], [-1], [1]], 'audiogram': {}, 'is_init_phase': True, 'is_exam_finished': False, 'threshold_uncertainty_db': 6}",4000,-10,2.6544222211549425e-05,False,0.007358499919064343,None,None,0,,184.76213150005788,185.77261200000066,None,1,185.77261200000066,184.76213150005788,,rdzaqd,001,fr,200,2022-05-06_14h06.54.932,Bayesian,2022.1.1,None,
,,,,14,0,14,0,,,,,,,,,,,,,,,,,,,,,,,"{'x': [[1000, 60], [1000, 40], [1000, 20], [1000, 0], [1500, 10], [1500, -10], [2000, 10], [2000, -10], [3000, 10], [3000, -10], [4000, 10], [4000, -10]], 'y': [[1], [1], [1], [-1], [1], [-1], [1], [-1], [1], [-1], [1], [-1]], 'audiogram': {}, 'is_init_phase': True, 'is_exam_finished': False, 'threshold_uncertainty_db': 6}",,,,True,0.013013133313506842,None,None,0,,187.66807030001655,188.6975526000606,None,1,188.6975526000606,187.66807030001655,,rdzaqd,001,fr,200,2022-05-06_14h06.54.932,Bayesian,2022.1.1,None,
,,,,15,0,15,0,,,,,,,,,,,,,,,,,,,,,,,"{'x': [[1000, 60], [1000, 40], [1000, 20], [1000, 0], [1500, 10], [1500, -10], [2000, 10], [2000, -10], [3000, 10], [3000, -10], [4000, 10], [4000, -10]], 'y': [[1], [1], [1], [-1], [1], [-1], [1], [-1], [1], [-1], [1], [-1]], 'audiogram': {}, 'is_init_phase': True, 'is_exam_finished': False, 'threshold_uncertainty_db': 6}",6000,10,0.00036641226656945183,False,0.0054694999707862735,None,['space'],1,[0.44917509995866567],191.50433220004197,192.5126418999862,None,1,192.5126418999862,191.50433220004197,,rdzaqd,001,fr,200,2022-05-06_14h06.54.932,Bayesian,2022.1.1,None,
,,,,16,0,16,0,,,,,,,,,,,,,,,,,,,,,,,"{'x': [[1000, 60], [1000, 40], [1000, 20], [1000, 0], [1500, 10], [1500, -10], [2000, 10], [2000, -10], [3000, 10], [3000, -10], [4000, 10], [4000, -10], [6000, 10]], 'y': [[1], [1], [1], [-1], [1], [-1], [1], [-1], [1], [-1], [1], [-1], [1]], 'audiogram': {}, 'is_init_phase': True, 'is_exam_finished': False, 'threshold_uncertainty_db': 6}",6000,-10,3.664122665694518e-05,False,0.005198700004257262,0.19822029990609735,None,0,,195.48615769995376,196.50560829997994,None,1,196.50560829997994,195.48615769995376,,rdzaqd,001,fr,200,2022-05-06_14h06.54.932,Bayesian,2022.1.1,None,
,,,,17,0,17,0,,,,,,,,,,,,,,,,,,,,,,,"{'x': [[1000, 60], [1000, 40], [1000, 20], [1000, 0], [1500, 10], [1500, -10], [2000, 10], [2000, -10], [3000, 10], [3000, -10], [4000, 10], [4000, -10], [6000, 10], [6000, -10]], 'y': [[1], [1], [1], [-1], [1], [-1], [1], [-1], [1], [-1], [1], [-1], [1], [-1]], 'audiogram': {}, 'is_init_phase': True, 'is_exam_finished': False, 'threshold_uncertainty_db': 6}",8000,10,0.0005740768107484417,False,0.006442400044761598,None,['space'],1,[0.40481940004974604],199.24444280005991,200.25461329997052,None,1,200.25461329997052,199.24444280005991,,rdzaqd,001,fr,200,2022-05-06_14h06.54.932,Bayesian,2022.1.1,None,
,,,,18,0,18,0,,,,,,,,,,,,,,,,,,,,,,,"{'x': [[1000, 60], [1000, 40], [1000, 20], [1000, 0], [1500, 10], [1500, -10], [2000, 10], [2000, -10], [3000, 10], [3000, -10], [4000, 10], [4000, -10], [6000, 10], [6000, -10], [8000, 10]], 'y': [[1], [1], [1], [-1], [1], [-1], [1], [-1], [1], [-1], [1], [-1], [1], [-1], [1]], 'audiogram': {}, 'is_init_phase': True, 'is_exam_finished': False, 'threshold_uncertainty_db': 6}",,,,True,0.012723533203825355,None,None,0,,203.1459601999959,204.1719339999836,None,1,204.1719339999836,203.1459601999959,,rdzaqd,001,fr,200,2022-05-06_14h06.54.932,Bayesian,2022.1.1,None,
,,,,19,0,19,0,,,,,,,,,,,,,,,,,,,,,,,"{'x': [[1000, 60], [1000, 40], [1000, 20], [1000, 0], [1500, 10], [1500, -10], [2000, 10], [2000, -10], [3000, 10], [3000, -10], [4000, 10], [4000, -10], [6000, 10], [6000, -10], [8000, 10]], 'y': [[1], [1], [1], [-1], [1], [-1], [1], [-1], [1], [-1], [1], [-1], [1], [-1], [1]], 'audiogram': {}, 'is_init_phase': True, 'is_exam_finished': False, 'threshold_uncertainty_db': 6}",8000,-10,5.740768107484415e-05,False,0.000893399934284389,0.19405579997692257,None,0,,206.1268403000431,207.12274330004584,None,1,207.12274330004584,206.1268403000431,,rdzaqd,001,fr,200,2022-05-06_14h06.54.932,Bayesian,2022.1.1,None,
,,,,20,0,20,0,,,,,,,,,,,,,,,,,,,,,,,"{'x': [[1000, 60], [1000, 40], [1000, 20], [1000, 0], [1500, 10], [1500, -10], [2000, 10], [2000, -10], [3000, 10], [3000, -10], [4000, 10], [4000, -10], [6000, 10], [6000, -10], [8000, 10], [8000, -10]], 'y': [[1], [1], [1], [-1], [1], [-1], [1], [-1], [1], [-1], [1], [-1], [1], [-1], [1], [-1]], 'audiogram': {}, 'is_init_phase': True, 'is_exam_finished': False, 'threshold_uncertainty_db': 6}",750,10,0.00012851978913844324,False,0.012219899916090071,None,None,0,,208.55906889995094,209.5634798000101,None,1,209.5634798000101,208.55906889995094,,rdzaqd,001,fr,200,2022-05-06_14h06.54.932,Bayesian,2022.1.1,None,
,,,,21,0,21,0,,,,,,,,,,,,,,,,,,,,,,,"{'x': [[1000, 60], [1000, 40], [1000, 20], [1000, 0], [1500, 10], [1500, -10], [2000, 10], [2000, -10], [3000, 10], [3000, -10], [4000, 10], [4000, -10], [6000, 10], [6000, -10], [8000, 10], [8000, -10], [750, 10]], 'y': [[1], [1], [1], [-1], [1], [-1], [1], [-1], [1], [-1], [1], [-1], [1], [-1], [1], [-1], [-1]], 'audiogram': {}, 'is_init_phase': True, 'is_exam_finished': False, 'threshold_uncertainty_db': 6}",750,30,0.0012851978913844323,False,0.011703999945893884,None,['space'],1,[0.3471185000380501],212.05443689995445,213.06715929997154,None,1,213.06715929997154,212.05443689995445,,rdzaqd,001,fr,200,2022-05-06_14h06.54.932,Bayesian,2022.1.1,None,
,,,,22,0,22,0,,,,,,,,,,,,,,,,,,,,,,,"{'x': [[1000, 60], [1000, 40], [1000, 20], [1000, 0], [1500, 10], [1500, -10], [2000, 10], [2000, -10], [3000, 10], [3000, -10], [4000, 10], [4000, -10], [6000, 10], [6000, -10], [8000, 10], [8000, -10], [750, 10], [750, 30]], 'y': [[1], [1], [1], [-1], [1], [-1], [1], [-1], [1], [-1], [1], [-1], [1], [-1], [1], [-1], [-1], [1]], 'audiogram': {}, 'is_init_phase': True, 'is_exam_finished': False, 'threshold_uncertainty_db': 6}",,,,True,0.013367733219638467,None,None,0,,215.85684090002906,216.87115280004218,None,1,216.87115280004218,215.85684090002906,,rdzaqd,001,fr,200,2022-05-06_14h06.54.932,Bayesian,2022.1.1,None,
,,,,23,0,23,0,,,,,,,,,,,,,,,,,,,,,,,"{'x': [[1000, 60], [1000, 40], [1000, 20], [1000, 0], [1500, 10], [1500, -10], [2000, 10], [2000, -10], [3000, 10], [3000, -10], [4000, 10], [4000, -10], [6000, 10], [6000, -10], [8000, 10], [8000, -10], [750, 10], [750, 30]], 'y': [[1], [1], [1], [-1], [1], [-1], [1], [-1], [1], [-1], [1], [-1], [1], [-1], [1], [-1], [-1], [1]], 'audiogram': {}, 'is_init_phase': True, 'is_exam_finished': False, 'threshold_uncertainty_db': 6}",500,10,0.0002259279721874612,False,0.008923899964429438,None,None,0,,219.56923240004107,220.57462269999087,None,1,220.57462269999087,219.56923240004107,,rdzaqd,001,fr,200,2022-05-06_14h06.54.932,Bayesian,2022.1.1,None,
,,,,24,0,24,0,,,,,,,,,,,,,,,,,,,,,,,"{'x': [[1000, 60], [1000, 40], [1000, 20], [1000, 0], [1500, 10], [1500, -10], [2000, 10], [2000, -10], [3000, 10], [3000, -10], [4000, 10], [4000, -10], [6000, 10], [6000, -10], [8000, 10], [8000, -10], [750, 10], [750, 30], [500, 10]], 'y': [[1], [1], [1], [-1], [1], [-1], [1], [-1], [1], [-1], [1], [-1], [1], [-1], [1], [-1], [-1], [1], [-1]], 'audiogram': {}, 'is_init_phase': True, 'is_exam_finished': False, 'threshold_uncertainty_db': 6}",500,30,0.002259279721874612,False,7.920002099126577e-05,None,['space'],1,[0.4763313999865204],222.27669049997348,223.2777315999847,None,1,223.2777315999847,222.27669049997348,,rdzaqd,001,fr,200,2022-05-06_14h06.54.932,Bayesian,2022.1.1,None,
,,,,25,0,25,0,,,,,,,,,,,,,,,,,,,,,,,"{'x': [[1000, 60], [1000, 40], [1000, 20], [1000, 0], [1500, 10], [1500, -10], [2000, 10], [2000, -10], [3000, 10], [3000, -10], [4000, 10], [4000, -10], [6000, 10], [6000, -10], [8000, 10], [8000, -10], [750, 10], [750, 30], [500, 10], [500, 30]], 'y': [[1], [1], [1], [-1], [1], [-1], [1], [-1], [1], [-1], [1], [-1], [1], [-1], [1], [-1], [-1], [1], [-1], [1]], 'audiogram': {}, 'is_init_phase': True, 'is_exam_finished': False, 'threshold_uncertainty_db': 6}",250,10,0.0005296268625886444,False,0.007675299886614084,None,None,0,,225.36917750001885,226.37295099999756,None,1,226.37295099999756,225.36917750001885,,rdzaqd,001,fr,200,2022-05-06_14h06.54.932,Bayesian,2022.1.1,None,
,,,,26,0,26,0,,,,,,,,,,,,,,,,,,,,,,,"{'x': [[1000, 60], [1000, 40], [1000, 20], [1000, 0], [1500, 10], [1500, -10], [2000, 10], [2000, -10], [3000, 10], [3000, -10], [4000, 10], [4000, -10], [6000, 10], [6000, -10], [8000, 10], [8000, -10], [750, 10], [750, 30], [500, 10], [500, 30], [250, 10]], 'y': [[1], [1], [1], [-1], [1], [-1], [1], [-1], [1], [-1], [1], [-1], [1], [-1], [1], [-1], [-1], [1], [-1], [1], [-1]], 'audiogram': {}, 'is_init_phase': True, 'is_exam_finished': False, 'threshold_uncertainty_db': 6}",,,,True,0.015799533342942595,None,None,0,,228.86534879996907,229.87526510003954,None,1,229.87526510003954,228.86534879996907,,rdzaqd,001,fr,200,2022-05-06_14h06.54.932,Bayesian,2022.1.1,None,
,,,,27,0,27,0,,,,,,,,,,,,,,,,,,,,,,,"{'x': [[1000, 60], [1000, 40], [1000, 20], [1000, 0], [1500, 10], [1500, -10], [2000, 10], [2000, -10], [3000, 10], [3000, -10], [4000, 10], [4000, -10], [6000, 10], [6000, -10], [8000, 10], [8000, -10], [750, 10], [750, 30], [500, 10], [500, 30], [250, 10]], 'y': [[1], [1], [1], [-1], [1], [-1], [1], [-1], [1], [-1], [1], [-1], [1], [-1], [1], [-1], [-1], [1], [-1], [1], [-1]], 'audiogram': {}, 'is_init_phase': True, 'is_exam_finished': False, 'threshold_uncertainty_db': 6}",250,30,0.005296268625886445,False,0.01315799995791167,None,['space'],1,[0.40985739999450743],231.04658720002044,232.07421420002356,None,1,232.07421420002356,231.04658720002044,,rdzaqd,001,fr,200,2022-05-06_14h06.54.932,Bayesian,2022.1.1,None,
,,,,28,0,28,0,,,,,,,,,,,,,,,,,,,,,,,"{'x': [[1000, 60], [1000, 40], [1000, 20], [1000, 0], [1500, 10], [1500, -10], [2000, 10], [2000, -10], [3000, 10], [3000, -10], [4000, 10], [4000, -10], [6000, 10], [6000, -10], [8000, 10], [8000, -10], [750, 10], [750, 30], [500, 10], [500, 30], [250, 10], [250, 30]], 'y': [[1], [1], [1], [-1], [1], [-1], [1], [-1], [1], [-1], [1], [-1], [1], [-1], [1], [-1], [-1], [1], [-1], [1], [-1], [1]], 'audiogram': {}, 'is_init_phase': True, 'is_exam_finished': False, 'threshold_uncertainty_db': 6}",125,10,0.002285440948074376,False,0.007354099885560572,None,None,0,,234.04495570005383,235.05060700001195,None,1,235.05060700001195,234.04495570005383,,rdzaqd,001,fr,200,2022-05-06_14h06.54.932,Bayesian,2022.1.1,None,
,,,,29,0,29,0,,,,,,,,,,,,,,,,,,,,,,,"{'x': [[1000, 60], [1000, 40], [1000, 20], [1000, 0], [1500, 10], [1500, -10], [2000, 10], [2000, -10], [3000, 10], [3000, -10], [4000, 10], [4000, -10], [6000, 10], [6000, -10], [8000, 10], [8000, -10], [750, 10], [750, 30], [500, 10], [500, 30], [250, 10], [250, 30], [125, 10]], 'y': [[1], [1], [1], [-1], [1], [-1], [1], [-1], [1], [-1], [1], [-1], [1], [-1], [1], [-1], [-1], [1], [-1], [1], [-1], [1], [-1]], 'audiogram': {}, 'is_init_phase': True, 'is_exam_finished': False, 'threshold_uncertainty_db': 6}",125,20,0.00722719885372964,False,0.01149300008546561,None,None,0,,237.32168799999636,238.32521270005964,None,1,238.32521270005964,237.32168799999636,,rdzaqd,001,fr,200,2022-05-06_14h06.54.932,Bayesian,2022.1.1,None,
,,,,30,0,30,0,,,,,,,,,,,,,,,,,,,,,,,"{'x': [[1000, 60], [1000, 40], [1000, 20], [1000, 0], [1500, 10], [1500, -10], [2000, 10], [2000, -10], [3000, 10], [3000, -10], [4000, 10], [4000, -10], [6000, 10], [6000, -10], [8000, 10], [8000, -10], [750, 10], [750, 30], [500, 10], [500, 30], [250, 10], [250, 30], [125, 10], [125, 20]], 'y': [[1], [1], [1], [-1], [1], [-1], [1], [-1], [1], [-1], [1], [-1], [1], [-1], [1], [-1], [-1], [1], [-1], [1], [-1], [1], [-1], [-1]], 'audiogram': {}, 'is_init_phase': True, 'is_exam_finished': False, 'threshold_uncertainty_db': 6}",,,,True,0.0025572332087904215,0.18954353325534612,None,0,,241.21780530002434,242.2308473000303,None,1,242.2308473000303,241.21780530002434,,rdzaqd,001,fr,200,2022-05-06_14h06.54.932,Bayesian,2022.1.1,None,
,,,,31,0,31,0,,,,,,,,,,,,,,,,,,,,,,,"{'x': [[1000, 60], [1000, 40], [1000, 20], [1000, 0], [1500, 10], [1500, -10], [2000, 10], [2000, -10], [3000, 10], [3000, -10], [4000, 10], [4000, -10], [6000, 10], [6000, -10], [8000, 10], [8000, -10], [750, 10], [750, 30], [500, 10], [500, 30], [250, 10], [250, 30], [125, 10], [125, 20]], 'y': [[1], [1], [1], [-1], [1], [-1], [1], [-1], [1], [-1], [1], [-1], [1], [-1], [1], [-1], [-1], [1], [-1], [1], [-1], [1], [-1], [-1]], 'audiogram': {}, 'is_init_phase': True, 'is_exam_finished': False, 'threshold_uncertainty_db': 6}",125,30,0.02285440948074376,False,0.006155300070531666,None,['space'],1,[0.42937839997466654],244.32346360001247,245.34863609995227,None,1,245.34863609995227,244.32346360001247,,rdzaqd,001,fr,200,2022-05-06_14h06.54.932,Bayesian,2022.1.1,None,
,,,,32,0,32,0,,,,,,,,,,,,,,,,,,,,,,,"{'x': [[1000, 60], [1000, 40], [1000, 20], [1000, 0], [1500, 10], [1500, -10], [2000, 10], [2000, -10], [3000, 10], [3000, -10], [4000, 10], [4000, -10], [6000, 10], [6000, -10], [8000, 10], [8000, -10], [750, 10], [750, 30], [500, 10], [500, 30], [250, 10], [250, 30], [125, 10], [125, 20], [125, 30]], 'y': [[1], [1], [1], [-1], [1], [-1], [1], [-1], [1], [-1], [1], [-1], [1], [-1], [1], [-1], [-1], [1], [-1], [1], [-1], [1], [-1], [-1], [1]], 'audiogram': {}, 'is_init_phase': True, 'is_exam_finished': False, 'threshold_uncertainty_db': 6}",353.5533905932738,16.0,0.0005591060055563458,False,0.008973066578619182,0.20648496656212956,None,0,,249.4419861000497,250.43920100003015,None,1,250.43920100003015,249.4419861000497,,rdzaqd,001,fr,200,2022-05-06_14h06.54.932,Bayesian,2022.1.1,None,
,,,,33,0,33,0,,,,,,,,,,,,,,,,,,,,,,,,189.4645708137998,19.0,0.002707727468763026,False,0.016183433472178876,None,['space'],1,[0.500522300018929],254.30029319995083,255.3039200999774,None,1,255.3039200999774,254.30029319995083,,rdzaqd,001,fr,200,2022-05-06_14h06.54.932,Bayesian,2022.1.1,None,
,,,,34,0,34,0,,,,,,,,,,,,,,,,,,,,,,,,,,,True,0.012804433354176581,None,None,0,,257.3693573999917,258.3800151000032,None,1,258.3800151000032,257.3693573999917,,rdzaqd,001,fr,200,2022-05-06_14h06.54.932,Bayesian,2022.1.1,None,
,,,,35,0,35,0,,,,,,,,,,,,,,,,,,,,,,,,535.8867312681471,19.0,0.000586856252308333,False,0.012045533396303654,None,['space'],1,[0.5775641000363976],261.5995475000236,262.6105461999541,None,1,262.6105461999541,261.5995475000236,,rdzaqd,001,fr,200,2022-05-06_14h06.54.932,Bayesian,2022.1.1,None,
,,,,36,0,36,0,,,,,,,,,,,,,,,,,,,,,,,,4924.577653379667,3.0,0.00020842917620072566,False,0.007309500011615455,None,['space'],1,[0.46500660001765937],265.7274381000316,266.7444914999651,None,1,266.7444914999651,265.7274381000316,,rdzaqd,001,fr,200,2022-05-06_14h06.54.932,Bayesian,2022.1.1,None,
,,,,37,0,37,0,,,,,,,,,,,,,,,,,,,,,,,,2462.2888266898335,3.0,0.00012014968851597731,False,0.0018380333203822374,0.19043633330147713,['space'],1,[0.5350860999897122],269.0979887000285,270.1083620999707,None,1,270.1083620999707,269.0979887000285,,rdzaqd,001,fr,200,2022-05-06_14h06.54.932,Bayesian,2022.1.1,None,
,,,,38,0,38,0,,,,,,,,,,,,,,,,,,,,,,,,1231.1444133449168,7.0,0.00012026533010045022,False,0.009867866523563862,0.2089621665654704,None,0,,273.83678959996905,274.8566042999737,None,1,274.8566042999737,273.83678959996905,,rdzaqd,001,fr,200,2022-05-06_14h06.54.932,Bayesian,2022.1.1,None,
,,,,39,0,39,0,,,,,,,,,,,,,,,,,,,,,,,,,,,True,0.015940933488309383,None,None,0,,277.61950499995146,278.6241102999775,None,1,278.6241102999775,277.61950499995146,,rdzaqd,001,fr,200,2022-05-06_14h06.54.932,Bayesian,2022.1.1,None,
,,,,40,0,40,0,,,,,,,,,,,,,,,,,,,,,,,,8000.0,3.0,0.0002564306919956826,False,0.009985533426515758,None,['space'],1,[0.44547689997125417],282.0511006000452,283.0658586999634,None,1,283.0658586999634,282.0511006000452,,rdzaqd,001,fr,200,2022-05-06_14h06.54.932,Bayesian,2022.1.1,None,
,,,,41,0,41,0,,,,,,,,,,,,,,,,,,,,,,,,307.7861033362292,20.0,0.0010626360360927124,False,0.0025310333585366607,0.19000213337130845,['space'],1,[0.5346033000387251],287.5149538000114,288.5323469999712,None,1,288.5323469999712,287.5149538000114,,rdzaqd,001,fr,200,2022-05-06_14h06.54.932,Bayesian,2022.1.1,None,
,,,,42,0,42,0,,,,,,,,,,,,,,,,,,,,,,,,3482.202253184498,0.0,7.485072584861476e-05,False,0.014981199987232685,None,['space'],1,[0.43809730000793934],292.619470500038,293.61772890004795,None,1,293.61772890004795,292.619470500038,,rdzaqd,001,fr,200,2022-05-06_14h06.54.932,Bayesian,2022.1.1,None,
,,,,43,0,43,0,,,,,,,,,,,,,,,,,,,,,,,,164.93848884661182,16.0,0.0024805170545709183,False,0.0009119999594986439,None,None,0,,296.88397269998677,297.90390989999287,None,1,297.90390989999287,296.88397269998677,,rdzaqd,001,fr,200,2022-05-06_14h06.54.932,Bayesian,2022.1.1,None,
,,,,44,0,44,0,,,,,,,,,,,,,,,,,,,,,,,,2000.0,0.0,7.481178280472168e-05,False,0.0033044667216017842,None,['space'],1,[0.6677017000038177],302.068852800061,303.08164330001455,None,1,303.08164330001455,302.068852800061,,rdzaqd,001,fr,200,2022-05-06_14h06.54.932,Bayesian,2022.1.1,None,
,,,,45,0,45,0,,,,,,,,,,,,,,,,,,,,,,,,,,,True,0.006756133399903774,None,None,0,,304.22607360000256,305.22930670005735,None,1,305.22930670005735,304.22607360000256,,rdzaqd,001,fr,200,2022-05-06_14h06.54.932,Bayesian,2022.1.1,None,
,,,,46,0,46,0,,,,,,,,,,,,,,,,,,,,,,,,812.2523963562351,15.0,0.00021771781178373805,False,0.014534299960359931,None,['space'],1,[0.4846945999888703],308.49228929996025,309.5000849000644,None,1,309.5000849000644,308.49228929996025,,rdzaqd,001,fr,200,2022-05-06_14h06.54.932,Bayesian,2022.1.1,None,
,,,,47,0,47,0,,,,,,,,,,,,,,,,,,,,,,,,5656.85424949238,-2.0,0.00010208999268889497,False,0.011169133242219687,None,None,0,,312.67149920004886,313.69061930000316,None,1,313.69061930000316,312.67149920004886,,rdzaqd,001,fr,200,2022-05-06_14h06.54.932,Bayesian,2022.1.1,None,
,,,,48,0,48,0,,,,,,,,,,,,,,,,,,,,,,,,8000.0,0.0,0.0001815390273850507,False,0.008006366668269038,None,['space'],1,[0.4850213999161497],317.94788570003584,318.9434442999773,None,1,318.9434442999773,317.94788570003584,,rdzaqd,001,fr,200,2022-05-06_14h06.54.932,Bayesian,2022.1.1,None,
,,,,49,0,49,0,,,,,,,,,,,,,,,,,,,,,,,,2639.015821545789,-5.0,4.344455436419077e-05,False,0.009309966582804918,None,None,0,,321.5673402999528,322.5727869999828,None,1,322.5727869999828,321.5673402999528,,rdzaqd,001,fr,200,2022-05-06_14h06.54.932,Bayesian,2022.1.1,None,
,,,,50,0,50,0,,,,,,,,,,,,,,,,,,,,,,,,125.0,22.0,0.00909850429304992,False,0.0013618333032354712,None,['space'],1,[0.4526769999647513],325.7404659000458,326.746146599995,None,1,326.746146599995,325.7404659000458,,rdzaqd,001,fr,200,2022-05-06_14h06.54.932,Bayesian,2022.1.1,None,
,,,,51,0,51,0,,,,,,,,,,,,,,,,,,,,,,,,,,,True,0.013876033248379827,None,None,0,,328.7107914000517,329.71565340005327,None,1,329.71565340005327,328.7107914000517,,rdzaqd,001,fr,200,2022-05-06_14h06.54.932,Bayesian,2022.1.1,None,
,,,,52,0,52,0,,,,,,,,,,,,,,,,,,,,,,,,466.5164957684038,16.0,0.0004615806072703714,False,0.007888599997386336,0.2002620999701321,['space'],1,[0.552811799920164],332.4076929000439,333.41751070006285,None,1,333.41751070006285,332.4076929000439,,rdzaqd,001,fr,200,2022-05-06_14h06.54.932,Bayesian,2022.1.1,None,
,,,,53,0,53,0,,,,,,,,,,,,,,,,,,,,,,,,1515.7165665103996,4.0,7.865869131234175e-05,False,0.0033597666770219803,0.19126476673409343,['space'],1,[0.5157376000424847],337.309069299954,338.3180646999972,None,1,338.3180646999972,337.309069299954,,rdzaqd,001,fr,200,2022-05-06_14h06.54.932,Bayesian,2022.1.1,None,
,,,,54,0,54,0,,,,,,,,,,,,,,,,,,,,,,,,233.2582478842019,15.0,0.0011262740412183963,False,0.009276333497837186,None,None,0,,342.2007445000345,343.19977589999326,None,1,343.19977589999326,342.2007445000345,,rdzaqd,001,fr,200,2022-05-06_14h06.54.932,Bayesian,2022.1.1,None,
,,,,55,0,55,0,,,,,,,,,,,,,,,,,,,,,,,,1071.7734625362941,11.0,0.00016695574131143172,False,0.0018190332921221852,None,None,0,,346.2304283999838,347.23164889996406,None,1,347.23164889996406,346.2304283999838,,rdzaqd,001,fr,200,2022-05-06_14h06.54.932,Bayesian,2022.1.1,None,
,,,,56,0,56,0,,,,,,,,,,,,,,,,,,,,,,,,,,,True,0.0105908332625404,0.2049538332503289,None,0,,349.28358819999266,350.29632269998547,None,1,350.29632269998547,349.28358819999266,,rdzaqd,001,fr,200,2022-05-06_14h06.54.932,Bayesian,2022.1.1,None,
,,,,57,0,57,0,,,,,,,,,,,,,,,,,,,,,,,,4000.0,-2.0,6.667607160816621e-05,False,0.01347489992622286,None,None,0,,354.52912239998113,355.54401279997546,None,1,355.54401279997546,354.52912239998113,,rdzaqd,001,fr,200,2022-05-06_14h06.54.932,Bayesian,2022.1.1,None,
,,,,58,0,58,0,,,,,,,,,,,,,,,,,,,,,,,,615.5722066724584,12.0,0.0002126505006947758,False,0.01400720002129674,None,None,0,,359.68410690000746,360.707019799971,None,1,360.707019799971,359.68410690000746,,rdzaqd,001,fr,200,2022-05-06_14h06.54.932,Bayesian,2022.1.1,None,
,,,,59,0,59,0,,,,,,,,,,,,,,,,,,,,,,,,8000.0,-3.0,0.00012851978913844324,False,0.007187333423644304,0.2003302334342152,['space'],1,[0.6114751000422984],364.3657768999692,365.384224700043,None,1,365.384224700043,364.3657768999692,,rdzaqd,001,fr,200,2022-05-06_14h06.54.932,Bayesian,2022.1.1,None,
,,,,60,0,60,0,,,,,,,,,,,,,,,,,,,,,,,,,,,True,0.014045733376406133,None,None,0,,367.3514649999561,368.3672237000428,None,1,368.3672237000428,367.3514649999561,,rdzaqd,001,fr,200,2022-05-06_14h06.54.932,Bayesian,2022.1.1,None,
,,,,61,0,61,0,,,,,,,,,,,,,,,,,,,,,,,,1866.0659830736151,-3.0,4.868135812041065e-05,False,0.015522533329203725,None,None,0,,371.784242899972,372.8076068999944,None,1,372.8076068999944,371.784242899972,,rdzaqd,001,fr,200,2022-05-06_14h06.54.932,Bayesian,2022.1.1,None,
,,,,62,0,62,0,,,,,,,,,,,,,,,,,,,,,,,,267.9433656340732,18.0,0.0011793657968902868,False,0.004283633432351053,None,['space'],1,[0.6017213000450283],376.8390339000616,377.85829190001823,None,1,377.85829190001823,376.8390339000616,,rdzaqd,001,fr,200,2022-05-06_14h06.54.932,Bayesian,2022.1.1,None,
,,,,63,0,63,0,,,,,,,,,,,,,,,,,,,,,,,,6062.8662660415985,-1.0,0.00010590954282987185,False,0.003047899925149977,0.19127609999850392,None,0,,382.55630489997566,383.56979650002904,None,1,383.56979650002904,382.55630489997566,,rdzaqd,001,fr,200,2022-05-06_14h06.54.932,Bayesian,2022.1.1,None,
,,,,64,0,64,0,,,,,,,,,,,,,,,,,,,,,,,,2828.42712474619,-2.0,5.201735198753194e-05,False,0.013306533335708082,None,None,0,,386.6339643000392,387.656143900007,None,1,387.656143900007,386.6339643000392,,rdzaqd,001,fr,200,2022-05-06_14h06.54.932,Bayesian,2022.1.1,None,
,,,,65,0,65,0,,,,,,,,,,,,,,,,,,,,,,,,,,,True,0.014300533337518573,None,None,0,,389.5001063999953,390.5166277999524,None,1,390.5166277999524,389.5001063999953,,rdzaqd,001,fr,200,2022-05-06_14h06.54.932,Bayesian,2022.1.1,None,
,,,,66,0,66,0,,,,,,,,,,,,,,,,,,,,,,,,378.9291416275994,16.0,0.0005175399681730862,False,0.008633266668766737,None,None,0,,394.22509850002825,395.2433272000635,None,1,395.2433272000635,394.22509850002825,,rdzaqd,001,fr,200,2022-05-06_14h06.54.932,Bayesian,2022.1.1,None,
,,,,67,0,67,0,,,,,,,,,,,,,,,,,,,,,,,,164.93848884661182,19.0,0.003503823469658472,False,0.004314033198170364,None,None,0,,399.9393329999875,400.9520807999652,None,1,400.9520807999652,399.9393329999875,,rdzaqd,001,fr,200,2022-05-06_14h06.54.932,Bayesian,2022.1.1,None,
,,,,68,0,68,0,,,,,,,,,,,,,,,,,,,,,,,,933.0329915368076,14.0,0.00021124599677190757,False,0.002489133272320032,0.18943823326844722,['space'],1,[0.6463603000156581],405.6760117999511,406.68529120006133,None,1,406.68529120006133,405.6760117999511,,rdzaqd,001,fr,200,2022-05-06_14h06.54.932,Bayesian,2022.1.1,None,
,,,,69,0,69,0,,,,,,,,,,,,,,,,,,,,,,,,8000.0,-4.0,0.00011454338263838867,False,0.006855566753074527,0.20001616678200662,None,0,,411.42922579997685,412.4303206000477,None,1,412.4303206000477,411.42922579997685,,rdzaqd,001,fr,200,2022-05-06_14h06.54.932,Bayesian,2022.1.1,None,
,,,,70,0,70,0,,,,,,,,,,,,,,,,,,,,,,,,,,,True,0.010723033337853849,None,None,0,,415.31597920006607,416.3376915999688,None,1,416.3376915999688,415.31597920006607,,rdzaqd,001,fr,200,2022-05-06_14h06.54.932,Bayesian,2022.1.1,None,
,,,,71,0,71,0,,,,,,,,,,,,,,,,,,,,,,,,125.0,21.0,0.008109050486794653,False,0.009676999994553626,0.2056923999916762,['space'],1,[0.5783294000430033],420.71853179996833,421.73865189997014,None,1,421.73865189997014,420.71853179996833,,rdzaqd,001,fr,200,2022-05-06_14h06.54.932,Bayesian,2022.1.1,None,
,,,,72,0,72,0,,,,,,,,,,,,,,,,,,,,,,,,4287.0938501451765,1.0,0.0001163465127759661,False,0.014732766663655639,None,None,0,,425.1126904999837,426.11522849998437,None,1,426.11522849998437,425.1126904999837,,rdzaqd,001,fr,200,2022-05-06_14h06.54.932,Bayesian,2022.1.1,None,
,,,,73,0,73,0,,,,,,,,,,,,,,,,,,,,,,,,659.7539553864473,13.0,0.00021688920581558227,False,0.00662386673502624,None,['space'],1,[0.5745029000099748],429.18596330005676,430.19968720001634,None,1,430.19968720001634,429.18596330005676,,rdzaqd,001,fr,200,2022-05-06_14h06.54.932,Bayesian,2022.1.1,None,
,,,,74,0,74,0,,,,,,,,,,,,,,,,,,,,,,,,1414.213562373095,5.0,8.968279190402293e-05,False,0.007447666605003178,None,None,0,,434.37336059997324,435.3833191000158,None,1,435.3833191000158,434.37336059997324,,rdzaqd,001,fr,200,2022-05-06_14h06.54.932,Bayesian,2022.1.1,None,
,,,,75,0,75,0,,,,,,,,,,,,,,,,,,,,,,,,,,,True,0.01171673322096467,None,None,0,,436.68311129999347,437.68786279996857,None,1,437.68786279996857,436.68311129999347,,rdzaqd,001,fr,200,2022-05-06_14h06.54.932,Bayesian,2022.1.1,None,
,,,,76,0,76,0,,,,,,,,,,,,,,,,,,,,,,,,6062.8662660415985,1.0,0.0001333322148200284,False,0.0021147332154214382,0.19449513324070722,None,0,,441.3302322999807,442.3611593999667,None,1,442.3611593999667,441.3302322999807,,rdzaqd,001,fr,200,2022-05-06_14h06.54.932,Bayesian,2022.1.1,None,
,,,,77,0,77,0,,,,,,,,,,,,,,,,,,,,,,,,2462.2888266898335,-1.0,7.580932840616338e-05,False,0.015089600114151835,None,None,0,,446.33204769995064,447.3496894000564,None,1,447.3496894000564,446.33204769995064,,rdzaqd,001,fr,200,2022-05-06_14h06.54.932,Bayesian,2022.1.1,None,
,,,,78,0,78,0,,,,,,,,,,,,,,,,,,,,,,,,3249.0095854249403,1.0,7.939092648083988e-05,False,0.004465866717509925,0.19426286674570292,['space'],1,[0.598410899983719],450.9061282000039,451.90076590003446,None,1,451.90076590003446,450.9061282000039,,rdzaqd,001,fr,200,2022-05-06_14h06.54.932,Bayesian,2022.1.1,None,
,,,,79,0,79,0,,,,,,,,,,,,,,,,,,,,,,,,,,,True,0.014910633210092783,None,None,0,,454.0947269999888,455.1237267999677,None,1,455.1237267999677,454.0947269999888,,rdzaqd,001,fr,200,2022-05-06_14h06.54.932,Bayesian,2022.1.1,None,
,,,,80,0,80,0,,,,,,,,,,,,,,,,,,,,,,,,217.63764082403114,17.0,0.0016345528837347653,False,0.011714933323673904,None,None,0,,458.9713518000208,459.97650650003925,None,1,459.97650650003925,458.9713518000208,,rdzaqd,001,fr,200,2022-05-06_14h06.54.932,Bayesian,2022.1.1,None,
,,,,81,0,81,0,,,,,,,,,,,,,,,,,,,,,,,,466.5164957684038,16.0,0.0004615806072703714,False,0.008343699970282614,None,None,0,,464.37114800000563,465.40070800005924,None,1,465.40070800005924,464.37114800000563,,rdzaqd,001,fr,200,2022-05-06_14h06.54.932,Bayesian,2022.1.1,None,
,,,,82,0,82,0,,,,,,,,,,,,,,,,,,,,,,,,164.93848884661182,21.0,0.004411052404393859,False,0.012995966710150242,None,['space'],1,[0.4417076000245288],469.6389021000359,470.6561504000565,None,1,470.6561504000565,469.6389021000359,,rdzaqd,001,fr,200,2022-05-06_14h06.54.932,Bayesian,2022.1.1,None,
,,,,83,0,83,0,,,,,,,,,,,,,,,,,,,,,,,,1071.7734625362941,12.0,0.00018732742280309106,False,0.009289466659538448,None,None,0,,474.6042475999566,475.6181393000297,None,1,475.6181393000297,474.6042475999566,,rdzaqd,001,fr,200,2022-05-06_14h06.54.932,Bayesian,2022.1.1,None,
,,,,84,0,84,0,,,,,,,,,,,,,,,,,,,,,,,,125.0,19.0,0.006441247758465671,False,0.0049091000109910965,None,['space'],1,[0.5285935999127105],479.8881687000394,480.9012848000275,None,1,480.9012848000275,479.8881687000394,,rdzaqd,001,fr,200,2022-05-06_14h06.54.932,Bayesian,2022.1.1,None,
,,,,85,0,85,0,,,,,,,,,,,,,,,,,,,,,,,,,,,True,0.01307383319362998,None,None,0,,483.8594557000324,484.8719041000586,None,1,484.8719041000586,483.8594557000324,,rdzaqd,001,fr,200,2022-05-06_14h06.54.932,Bayesian,2022.1.1,None,
,,,,86,0,86,0,,,,,,,,,,,,,,,,,,,,,,,,329.87697769322364,18.0,0.0007526970131810962,False,0.01133856677915901,None,None,0,,488.72235060005914,489.7430136000039,None,1,489.7430136000039,488.72235060005914,,rdzaqd,001,fr,200,2022-05-06_14h06.54.932,Bayesian,2022.1.1,None,
,,,,87,0,87,0,,,,,,,,,,,,,,,,,,,,,,,,6062.8662660415985,3.0,0.00016785531344773265,False,0.012172333314083517,None,None,0,,494.15113979997113,495.1765971999848,None,1,495.1765971999848,494.15113979997113,,rdzaqd,001,fr,200,2022-05-06_14h06.54.932,Bayesian,2022.1.1,None,
,,,,88,0,88,0,,,,,,,,,,,,,,,,,,,,,,,,1866.0659830736151,0.0,6.876424606830584e-05,False,0.005529699963517487,0.20196109998505563,['space'],1,[0.609732500044629],500.351031600032,501.3786455000518,None,1,501.3786455000518,500.351031600032,,rdzaqd,001,fr,200,2022-05-06_14h06.54.932,Bayesian,2022.1.1,None,
,,,,89,0,89,0,,,,,,,,,,,,,,,,,,,,,,,,,,,True,0.011330433306284249,None,None,0,,504.08192040002905,505.09124980005436,None,1,505.09124980005436,504.08192040002905,,rdzaqd,001,fr,200,2022-05-06_14h06.54.932,Bayesian,2022.1.1,None,
,,,,90,0,90,0,,,,,,,,,,,,,,,,,,,,,,,,125.0,18.0,0.005740768107484416,False,0.014599766815081239,None,None,0,,508.95298129995354,509.98758960003033,None,1,509.98758960003033,508.95298129995354,,rdzaqd,001,fr,200,2022-05-06_14h06.54.932,Bayesian,2022.1.1,None,
,,,,91,0,91,0,,,,,,,,,,,,,,,,,,,,,,,,1231.1444133449168,11.0,0.00019060770296529212,False,0.002105533261783421,None,"['space', 'space']",0,"[-0.9145942999748513, 0.7978047000942752]",514.5945854999591,515.5972019999754,None,1,515.5972019999754,514.5945854999591,,rdzaqd,001,fr,200,2022-05-06_14h06.54.932,Bayesian,2022.1.1,None,
,,,,92,0,92,0,,,,,,,,,,,,,,,,,,,,,,,,4924.577653379667,4.0,0.00023386138211216973,False,0.009665333316661417,None,['space'],1,[0.5533831999637187],520.0390071000438,521.0608493000036,None,1,521.0608493000036,520.0390071000438,,rdzaqd,001,fr,200,2022-05-06_14h06.54.932,Bayesian,2022.1.1,None,
,,,,93,0,93,0,,,,,,,,,,,,,,,,,,,,,,,,406.12619817811805,19.0,0.0006795016959419141,False,0.0035059666261076927,None,['space'],1,[0.5391981999855489],524.3246295000426,525.3381194999674,None,1,525.3381194999674,524.3246295000426,,rdzaqd,001,fr,200,2022-05-06_14h06.54.932,Bayesian,2022.1.1,None,
,,,,94,0,94,0,,,,,,,,,,,,,,,,,,,,,,,,,,,True,0.004405133426189423,None,None,0,,527.8309784999583,528.8518464999506,None,1,528.8518464999506,527.8309784999583,,rdzaqd,001,fr,200,2022-05-06_14h06.54.932,Bayesian,2022.1.1,None,
,,,,95,0,95,0,,,,,,,,,,,,,,,,,,,,,,,,812.2523963562351,12.0,0.00015413240703763653,False,0.006669400027021766,None,['space'],1,[0.5818734000204131],532.4902728999732,533.5108630000614,None,1,533.5108630000614,532.4902728999732,,rdzaqd,001,fr,200,2022-05-06_14h06.54.932,Bayesian,2022.1.1,None,
,,,,96,0,96,0,,,,,,,,,,,,,,,,,,,,,,,,812.2523963562351,12.0,0.00015413240703763653,False,None,None,None,0,,None,None,None,1,None,None,"{'estimation': [[125.0, 18.856101770462832], [127.28826335887969, 19.0], [133.9716828170366, 19.39872109292277], [143.5872943746293, 19.657864776754597], [153.89305166811442, 19.65234502824306], [164.93848884661162, 19.423428007499954], [176.77669529663666, 19.032957429512688], [177.63415855886456, 19.0], [189.46457081379947, 18.56610200717843], [203.0630990890585, 18.112279518464348], [207.4127186312351, 18.0], [217.6376408240306, 17.744682568266967], [233.25824788420132, 17.531253110563384], [249.99999999999937, 17.493321563251698], [267.94336563407256, 17.618090464956765], [287.1745887492579, 17.854540953153773], [298.16081671509943, 18.0], [307.78610333622805, 18.12229882851687], [329.87697769322244, 18.315909985835255], [353.55339059327247, 18.34575158242586], [378.929141627598, 18.14720206948669], [387.4500536896688, 18.0], [406.12619817811606, 17.69144843127717], [435.2752816480601, 17.003285969918135], [435.38948746424325, 17.0], [466.5164957684015, 16.133902068025165], [471.0317671188822, 16.0], [499.9999999999975, 15.160967052416781], [505.76946098182987, 15.0], [535.8867312681438, 14.179488091888764], [543.4136972861546, 14.0], [574.3491774985143, 13.284917039316971], [590.2800152701415, 13.0], [615.5722066724546, 12.56335264732024], [659.7539553864432, 12.091308165430453], [682.0121341283884, 12.0], [707.1067811865431, 11.900269021903046], [757.8582832551941, 11.992593592806474], [759.1086580186054, 12.000000000000002], [812.2523963562301, 12.300670454568307], [870.5505632961181, 12.693979025111146], [932.1312981034926, 13.0], [933.0329915368008, 13.00432745886936], [999.9999999999926, 13.027493468965774], [1004.2146368562264, 13.0], [1071.773462536285, 12.586177919475155], [1115.4846292943719, 12.0], [1148.698354997026, 11.572487412297008], [1178.0644937427312, 11.0], [1230.0262134354855, 10.0], [1231.1444133449063, 9.979642383027283], [1272.8122667092725, 9.0], [1315.8590439971051, 8.0], [1319.5079107728832, 7.921523164452414], [1357.2929826244292, 7.0], [1397.2574503246103, 6.0], [1414.2135623730828, 5.615651520037542], [1441.9503236004448, 5.0], [1484.7558926338884, 4.0], [1515.7165665103846, 3.3391431755061975], [1534.4770603025947, 3.0], [1587.8547801326174, 2.0], [1624.5047927124563, 1.361201396019053], [1652.7314507640524, 1.0], [1731.9839225668718, 0.0], [1741.1011265922318, -0.10902051641782806], [1866.065983073597, -0.9685001953584343], [1880.1254823095474, -1.0], [1999.9999999999827, -1.2583165652104333], [2143.5469250725646, -1.113102352498563], [2188.9781427661173, -1.0], [2297.396709994046, -0.7394000610111349], [2462.2888266898062, -0.3541321529163633], [2639.01582154576, -0.10101261918304631], [2828.427124746159, -0.039996375336825075], [3031.4331330207615, -0.13168747717443305], [3249.0095854249043, -0.2562545609265779], [3482.202253184451, -0.2658342200362519], [3732.1319661471844, -0.033997233395130146], [3748.5627347854997, 0.0], [3999.9999999999504, 0.4930701107186266], [4182.440870852242, 1.0], [4287.093850145118, 1.279424043043629], [4528.4555363315485, 2.0], [4594.793419988081, 2.190404381033082], [4913.067038940395, 3.0], [4924.577653379601, 3.028398643114974], [5278.031643091506, 3.580871882930399], [5656.854249492303, 3.6684808694674773], [6062.866266041508, 3.204042212469089], [6149.833920831442, 3.0], [6498.019170849792, 2.207358387276932], [6566.562714041114, 2.0], [6901.905479110154, 1.0], [6964.404506368902, 0.8231765762051132], [7229.145692320591, 0.0], [7464.2639322943505, -0.7017650832535708], [7578.886995238166, -1.0], [7958.903385781381, -2.0], [7999.999999999882, -2.1053705266141134]], 'plus_line': [[125.0, 16.12543359845879], [133.9716828170366, 16.677450255103047], [143.5872943746293, 16.890831640631166], [153.89305166811442, 16.839982885128368], [164.93848884661162, 16.599079621735786], [176.77669529663666, 16.230351619911243], [183.10097108822112, 16.0], [189.46457081379958, 15.75718940679316], [203.0630990890585, 15.281902432842031], [213.7746878498342, 15.000000000000002], [217.6376408240306, 14.89024429377224], [233.25824788420132, 14.641623430762714], [249.99999999999937, 14.596324178941511], [267.94336563407256, 14.736635475169312], [285.9024006560664, 15.0], [287.1745887492579, 15.0162128848609], [307.78610333622805, 15.299984973019548], [329.87697769322244, 15.518282395949404], [353.55339059327247, 15.571016168853946], [378.929141627598, 15.389074488815606], [403.384164872781, 15.0], [406.12619817811606, 14.95330605262121], [435.2752816480601, 14.245445374894292], [443.6976748508532, 14.0], [466.5164957684015, 13.342451786601606], [477.6831874637858, 13.0], [499.9999999999975, 12.329599097858075], [511.42107622660785, 12.0], [535.8867312681438, 11.309151967135813], [548.6478000561027, 11.0], [574.3491774985143, 10.385568181441057], [596.1868385749132, 10.0], [615.5722066724546, 9.652875625689278], [659.7539553864432, 9.183263155633195], [705.8384157811081, 9.0], [707.1067811865431, 8.994400853921062], [710.2820028321906, 9.0], [757.8582832551941, 9.070330759998914], [812.2523963562301, 9.362449895364225], [870.5505632961181, 9.781814431370591], [905.9265970999257, 10.0], [933.0329915368008, 10.14395804677109], [999.9999999999926, 10.218797395936786], [1040.2358529885607, 10.0], [1071.773462536285, 9.820838100153846], [1134.8933685274158, 9.0], [1148.698354997026, 8.827738806580237], [1188.7513625353374, 8.0], [1231.1444133449063, 7.2297451322460144], [1240.6420127404958, 7.0], [1279.2874000456409, 6.0], [1319.5079107728832, 5.147955306239465], [1325.4671511444624, 5.0], [1361.599699865603, 4.0], [1404.2821707344183, 3.0], [1414.2135623730828, 2.798540740532416], [1446.4157029979635, 2.0], [1488.9548755136855, 1.0], [1515.7165665103846, 0.4836611468749279], [1540.5973276525453, 0.0], [1592.8417340242872, -1.0], [1624.5047927124563, -1.5113953764453996], [1661.4064819714702, -2.0], [1741.1011265922318, -2.963817466605407], [1746.2194514315063, -3.0], [1866.065983073597, -3.827588518626518], [1950.433545624948, -4.0], [1999.9999999999802, -4.10962313431854], [2097.6547574330752, -4.0], [2143.5469250725646, -3.956499860626267], [2297.396709994046, -3.601635847389857], [2462.2888266898062, -3.2091870056384426], [2595.6492536876867, -3.0], [2639.01582154576, -2.9409344083009668], [2828.427124746159, -2.882911017497382], [3031.4331330207615, -2.973599420517048], [3075.8055946886248, -3.0], [3249.0095854249043, -3.113735981766447], [3482.2022531844596, -3.129858899634611], [3608.84027207377, -3.0], [3732.1319661471844, -2.891525710460573], [3999.9999999999504, -2.363133541155869], [4122.599337397105, -2.0], [4287.093850145118, -1.549489316905792], [4461.203291784465, -1.0], [4594.793419988081, -0.6025664293904388], [4817.693166425648, 0.0], [4924.577653379601, 0.27027590522902734], [5278.031643091506, 0.8310306914711092], [5656.854249492303, 0.9053482944239923], [6062.866266041508, 0.3957210587095422], [6229.20146061974, 0.0], [6498.019170849792, -0.6225425895283195], [6620.824256103256, -1.0], [6964.404506368894, -1.9843601013153367], [6969.349277487215, -2.0], [7277.050653216658, -3.0], [7464.2639322943505, -3.535049372147169], [7626.69539569137, -4.0], [7993.3429795281745, -5.0], [7999.999999999872, -5.017502077422062]], 'minus_line': [[125.0, 21.596692945875567], [132.3259119428929, 22.0], [133.9716828170366, 22.09499647266744], [143.5872943746293, 22.4327146735434], [153.89305166811442, 22.481161309529085], [164.93848884661162, 22.265671489086678], [172.52890983796192, 22.0], [176.77669529663666, 21.868536205972177], [189.46457081379947, 21.429773548131685], [202.51923953115693, 20.999999999999996], [203.06309908905865, 20.983755276947168], [217.6376408240306, 20.666532145820923], [233.25824788420132, 20.475583948366065], [249.99999999999937, 20.43880055647547], [267.94336563407256, 20.54738765451838], [287.1745887492579, 20.74975592366531], [307.78610333622805, 20.970430270855825], [311.7891048101164, 20.999999999999996], [329.87697769322244, 21.145065127315785], [353.55339059327247, 21.15477729917616], [370.490538822039, 21.0], [378.929141627598, 20.934424151195376], [406.12619817811606, 20.49473726968342], [426.49742516240224, 20.0], [435.2752816480601, 19.80270364224711], [464.47315794629236, 18.999999999999996], [466.5164957684015, 18.946149030149062], [499.9999999999975, 18.003497869846075], [500.1277078116656, 18.0], [535.8867312681438, 17.057566769088456], [538.2984366436233, 17.0], [574.3491774985143, 16.187791407432684], [584.512786895183, 16.0], [615.5722066724546, 15.474439353123818], [657.4598075436335, 15.0], [659.7539553864432, 14.976483309368822], [707.1067811865431, 14.798202107827212], [757.8582832551941, 14.89396153889779], [776.5333286654719, 15.0], [812.2523963562301, 15.216864253975034], [870.5505632961181, 15.606791628002956], [933.0329915368008, 15.877530912196404], [999.9999999999926, 15.865326631088493], [1071.773462536285, 15.408394100776206], [1101.7076503737394, 15.0], [1148.698354997026, 14.379905811023928], [1169.205732823597, 14.0], [1219.5668498259147, 13.0], [1231.1444133449063, 12.779644257499237], [1267.5576953235386, 12.0], [1307.889446142111, 11.0], [1319.5079107728832, 10.734107533049098], [1353.2464513937775, 10.0], [1391.7336461601549, 9.0], [1414.2135623730828, 8.44516516746355], [1436.6389364148745, 8.0], [1480.1858134375848, 7.0], [1515.7165665103846, 6.16265064152644], [1525.5078467491192, 6.0], [1581.3778063324608, 5.0], [1624.5047927124563, 4.182643620523161], [1639.3026689404883, 4.0], [1717.7022606069686, 3.0], [1741.1011265922318, 2.708711152389524], [1842.2420064778948, 2.0], [1866.065983073597, 1.8410058388067805], [1999.9999999999827, 1.5767013603026014], [2143.546925072562, 1.7394822331235855], [2248.1387103657007, 2.0], [2297.396709994046, 2.132877873132001], [2462.2888266898062, 2.546794522914459], [2639.0158215457564, 2.7964985082349556], [2828.427124746159, 2.849013423949621], [3031.4331330207615, 2.7520920331158125], [3249.0095854249043, 2.620222468446667], [3482.2022531844596, 2.5982885203493638], [3732.1319661471844, 2.8066685852246], [3833.5960063034167, 3.0], [3999.9999999999504, 3.3271438544554335], [4255.5619334308985, 4.0], [4287.093850145118, 4.08387508333068], [4594.793419988076, 4.975909411360784], [4604.030123972694, 5.0], [4924.577653379601, 5.822340222391103], [5035.524141655894, 6.0], [5278.031643091506, 6.403721778476413], [5656.854249492303, 6.525843345121545], [6062.866266041516, 6.079678866455198], [6096.782836598609, 6.0], [6498.019170849792, 5.092291803399341], [6528.706859386442, 5.0], [6859.753052199298, 4.0], [6964.404506368894, 3.6900694305063566], [7190.858328434784, 3.0], [7464.2639322943505, 2.1270769324429413], [7516.472977986288, 2.0], [7917.208442701946, 1.0], [7999.999999999892, 0.7944392018003724]]}",rdzaqd,001,fr,200,2022-05-06_14h06.54.932,Bayesian,2022.1.1,None,
