sweeps.thisRepN,sweeps.thisTrialN,sweeps.thisN,sweeps.thisIndex,trials.thisRepN,trials.thisTrialN,trials.thisN,trials.thisIndex,instructions.started,instructions.stopped,blank_text.started,blank_text.stopped,Intervals,text.started,text.stopped,Delay,Prediction,Frequency,Volume,Psychopy_level,isCatchTrial,len(y),finished_audiograms,probe.started,probe.stopped,feedback.keys,feedback.started,feedback.stopped,ISI.started,ISI.stopped,text_2.started,text_2.stopped,feedback.rt,break_txt.started,break_txt.stopped,,Audiogram_frequency,Audiogram_none,Audiogram_both,Audiogram_time,participant,session,language (english or french),Resume previous experiment,date,expName,psychopyVersion,frameRate,
0,0,0,0,0,0,0,0,35.79364609999993,None,57.05605219999961,None,"[0.5833333333333334, 0.5833333333333334, 0.16666666666666666, 0.16666666666666666, 0.3333333333333333, 0.3333333333333333, 0.5833333333333334, 0.3333333333333333, 0.3333333333333333, 0.5833333333333334, 0.3333333333333333, 0.3333333333333333, 0.3333333333333333, 0.16666666666666666, 0.3333333333333333]",63.85037219999958,None,2.9306544494585953,none,1932.0,12.572953712953256,0.0003050825456701301,0,58,[],0.0048111666665136,None,None,64.89303049999944,None,0.2104206666663231,3.1410751161249184,65.11664070000006,None,,,,,,,,,ikieoz,001,fr,1,2022-04-25_17h04.55.564,Continuous,2022.1.1,33.435914719753846,
0,0,0,0,1,0,1,0,,,,,,,,1.8203836090746157,none,1533.0,7.005675391487111,0.00011445187902875155,0,59,[],0.011675466666929424,None,None,68.04172229999949,68.04172229999949,0.2267049666670573,2.047088575741673,68.26001349999933,68.04172229999949,,,,,,,,,ikieoz,001,fr,1,2022-04-25_17h04.55.564,Continuous,2022.1.1,33.435914719753846,
0,0,0,0,2,0,2,0,,,,,,,,2.114825235362264,none,1084.0,9.555181263916912,0.00014290748725145485,0,60,[],0.014023833333340008,None,None,70.0804376999995,70.0804376999995,0.21535283333378175,2.330178068696046,70.29739269999936,70.0804376999995,,,,,,,,,ikieoz,001,fr,1,2022-04-25_17h04.55.564,Continuous,2022.1.1,33.435914719753846,
0,0,0,0,3,0,3,0,,,,,,,,2.2594502679233255,none,1217.0,4.4452667057927275,8.863278603611695e-05,0,61,[],0.005165166666301957,None,None,72.41319740000017,72.41319740000017,0.20777396666653658,2.467224234589862,72.63107639999998,72.41319740000017,,,,,,,,,ikieoz,001,fr,1,2022-04-25_17h04.55.564,Continuous,2022.1.1,33.435914719753846,
0,0,0,0,4,0,4,0,,,,,,,,2.8384862779157474,none,,,,1,61,[],0.011906366667062684,None,None,74.89021109999976,74.89021109999976,0.23079426666754443,3.069280544583292,75.11699559999943,74.89021109999976,,,,,,,,,ikieoz,001,fr,1,2022-04-25_17h04.55.564,Continuous,2022.1.1,33.435914719753846,
0,0,0,0,5,0,5,0,,,,,,,,2.959258125905735,none,645.0,8.137741985518554,0.00012721719261021676,0,62,[],0.013070466667159053,None,None,77.94033450000006,77.94033450000006,0.22385546666737355,3.1831135925731084,78.15930260000005,77.94033450000006,,,,,,,,,ikieoz,001,fr,1,2022-04-25_17h04.55.564,Continuous,2022.1.1,33.435914719753846,
0,0,0,0,6,0,6,0,,,,,,,,2.892589372196235,none,6885.0,5.513889898015181,0.0002787370572515147,0,63,[],0.011945766666030977,None,None,81.10651030000008,81.10651030000008,0.21565596666550846,3.1082453388617433,81.32191239999975,81.10651030000008,,,,,,,,,ikieoz,001,fr,1,2022-04-25_17h04.55.564,Continuous,2022.1.1,33.435914719753846,
0,0,0,0,7,0,7,0,,,,,,,,1.2707040884081735,none,4595.0,0.0,0.0001248796844851434,0,64,[],0.011612166666964185,None,['space'],84.21377589999975,84.21377589999975,0.22558146666688117,1.4962855550750547,84.43172229999982,84.21377589999975,[-0.7654292000006535],,,,,,,,ikieoz,001,fr,1,2022-04-25_17h04.55.564,Continuous,2022.1.1,33.435914719753846,
0,0,0,0,8,0,8,0,,,,,,,,1.34248728913556,none,3647.0,7.421160000195348,0.0001826933170884382,0,65,[],0.005642466666358814,None,None,85.69308829999954,85.69308829999954,0.21730156666671974,1.5597888558022797,85.9197979999999,85.69308829999954,,,,,,,,,ikieoz,001,fr,1,2022-04-25_17h04.55.564,Continuous,2022.1.1,33.435914719753846,
0,0,0,0,9,0,9,0,,,,,,,,1.6685749607003708,none,966.0,1.6627487584948604,5.217646260093141e-05,0,66,[],0.011753566665902326,None,None,87.25309920000018,87.25309920000018,0.22746096666651283,1.8960359273668836,87.47619339999983,87.25309920000018,,,,,,,,,ikieoz,001,fr,1,2022-04-25_17h04.55.564,Continuous,2022.1.1,33.435914719753846,
1,0,1,0,0,0,0,0,,,,,,96.47012199999972,None,2.4943961491138236,frequency,5657.0,12.0,0.0005116406129311919,0,62,[],0.013077566666652274,None,None,97.51837849999993,None,0.23031946666651493,2.7247156157803385,97.73412769999959,None,,89.13173009999991,None,0.5833333333333334,,,,,ikieoz,001,fr,1,2022-04-25_17h04.55.564,Continuous,2022.1.1,33.435914719753846,
1,0,1,0,1,0,1,0,,,,,,,,1.5840847061189092,frequency,3776.0,11.847521964887965,0.00031297522227518936,0,63,[],0.010824266666531912,None,None,100.2206228999994,100.2206228999994,0.219114866666132,1.8031995727850412,100.43434519999937,100.2206228999994,,,,,,,,,ikieoz,001,fr,1,2022-04-25_17h04.55.564,Continuous,2022.1.1,33.435914719753846,
1,0,1,0,2,0,2,0,,,,,,,,1.730499065181059,frequency,2520.0,10.06074743997065,0.0002695736649093506,0,64,[],0.0037588666664305492,None,['space'],102.01453570000012,102.01453570000012,0.21206786666607513,1.9425669318471341,102.23331659999985,102.01453570000012,[0.13845279999986815],,,,,,,,ikieoz,001,fr,1,2022-04-25_17h04.55.564,Continuous,2022.1.1,33.435914719753846,
1,0,1,0,3,0,3,0,,,,,,,,1.6323669041644362,frequency,1682.0,12.090445595791516,0.00024318726185939,0,65,[],0.010965866666083457,None,None,103.9586631000002,103.9586631000002,0.2235598666666192,1.8559267708310554,104.1749921999999,103.9586631000002,,,,,,,,,ikieoz,001,fr,1,2022-04-25_17h04.55.564,Continuous,2022.1.1,33.435914719753846,
1,0,1,0,4,0,4,0,,,,,,,,2.0523607836255833,frequency,1123.0,11.640096495089415,0.00018790789752741704,0,66,[],0.0044006666666973615,None,None,105.79854319999959,105.79854319999959,0.20916606666651205,2.2615268502920953,106.01869569999963,105.79854319999959,,,,,,,,,ikieoz,001,fr,1,2022-04-25_17h04.55.564,Continuous,2022.1.1,33.435914719753846,
1,0,1,0,5,0,5,0,,,,,,,,2.4203278663522854,frequency,,,,1,66,[],0.011658066666313971,None,None,108.0686012999995,108.0686012999995,0.22010706666605984,2.640434933018345,108.28320619999977,108.0686012999995,,,,,,,,,ikieoz,001,fr,1,2022-04-25_17h04.55.564,Continuous,2022.1.1,33.435914719753846,
1,0,1,0,6,0,6,0,,,,,,,,1.4867999682018704,frequency,501.0,16.186613072581327,0.000459569643342174,0,67,[],0.01188076666676352,None,None,110.70030859999952,110.70030859999952,0.22345786666755885,1.7102578348694293,110.9154695999996,110.70030859999952,,,,,,,,,ikieoz,001,fr,1,2022-04-25_17h04.55.564,Continuous,2022.1.1,33.435914719753846,
1,0,1,0,7,0,7,0,,,,,,,,2.191883959974743,frequency,334.0,18.499599464270677,0.0007882546934445733,0,68,[],0.01012076666665962,None,None,112.39837159999934,112.39837159999934,0.21901076666654262,2.4108947266412857,112.61461809999946,112.39837159999934,,,,,,,,,ikieoz,001,fr,1,2022-04-25_17h04.55.564,Continuous,2022.1.1,33.435914719753846,
1,0,1,0,8,0,8,0,,,,,,,,1.3436978394796244,frequency,223.0,13.355145225519312,0.0010254892614010088,0,69,[],0.011190066666131315,None,None,114.8013903000001,114.8013903000001,0.22098266666580457,1.564680506145429,115.01477019999948,114.8013903000001,,,,,,,,,ikieoz,001,fr,1,2022-04-25_17h04.55.564,Continuous,2022.1.1,33.435914719753846,
2,0,2,0,0,0,0,0,,,,,"[0.5833333333333334, 0.5833333333333334, 0.16666666666666666, 0.5833333333333334, 0.3333333333333333, 0.5833333333333334, 0.3333333333333333, 0.3333333333333333, 0.16666666666666666, 0.3333333333333333, 0.5833333333333334, 0.16666666666666666, 0.5833333333333334, 0.3333333333333333, 0.3333333333333333]",121.30479949999972,None,1.980987411484799,time,256.0,17.049642560914013,0.0011472246505883441,0,36,[],0.01264646666641056,None,None,122.33139630000005,None,0.23434306666695193,2.215330478151751,122.54848529999981,None,,116.35562489999938,None,,,,,,ikieoz,001,fr,1,2022-04-25_17h04.55.564,Continuous,2022.1.1,33.435914719753846,
2,0,2,0,1,0,1,0,,,,,,,,1.980987411484799,time,431.0,14.674872708018194,0.00040610030114655626,0,37,[],0.009914366666635033,None,None,124.52294369999981,124.52294369999981,0.21975406666661002,2.200741478151409,124.7394734999998,124.52294369999981,,,,,,,,,ikieoz,001,fr,1,2022-04-25_17h04.55.564,Continuous,2022.1.1,33.435914719753846,
2,0,2,0,2,0,2,0,,,,,,,,1.980987411484799,time,144.0,13.86658840682712,0.0027321159537330407,0,38,[],0.009563166666339384,None,None,126.7165387999994,126.7165387999994,0.21615516666679468,2.1971425781515936,126.9357202000001,126.7165387999994,,,,,,,,,ikieoz,001,fr,1,2022-04-25_17h04.55.564,Continuous,2022.1.1,33.435914719753846,
2,0,2,0,3,0,3,0,,,,,,,,1.980987411484799,time,,,,1,38,[],0.011115766666080162,None,None,128.90980989999935,128.90980989999935,0.22812436666663416,2.209111778151433,129.1297470999998,128.90980989999935,,,,,,,,,ikieoz,001,fr,1,2022-04-25_17h04.55.564,Continuous,2022.1.1,33.435914719753846,
2,0,2,0,4,0,4,0,,,,,,,,1.980987411484799,time,181.0,14.0,0.0016771719360533467,0,39,[],0.012025366666421178,None,None,131.10200970000005,131.10200970000005,0.2196212666667634,2.2006086781515624,131.32373449999977,131.10200970000005,,,,,,,,,ikieoz,001,fr,1,2022-04-25_17h04.55.564,Continuous,2022.1.1,33.435914719753846,
2,0,2,0,5,0,5,0,,,,,,,,1.980987411484799,time,203.0,14.0,0.0013009048986491172,0,40,[],0.010650666666151665,None,None,133.29748000000018,133.29748000000018,0.22383596666622907,2.204823378151028,133.51578719999998,133.29748000000018,,,,,,,,,ikieoz,001,fr,1,2022-04-25_17h04.55.564,Continuous,2022.1.1,33.435914719753846,
2,0,2,0,6,0,6,0,,,,,,,,1.980987411484799,time,1026.0,11.664828703531661,0.0001729029877864031,0,41,[],0.010604566666188475,None,None,135.48894349999955,135.48894349999955,0.21897476666617877,2.1999621781509777,135.7020235,135.48894349999955,,,,,,,,,ikieoz,001,fr,1,2022-04-25_17h04.55.564,Continuous,2022.1.1,33.435914719753846,
2,0,2,0,7,0,7,0,,,,,,,,1.980987411484799,time,646.0,15.767224996606824,0.00030567174261028856,0,42,[],0.010743066665781953,None,['space'],137.67889659999946,137.67889659999946,0.22674556666606804,2.207732978150867,137.89860709999994,137.67889659999946,[-0.3902533000000403],,,,,,,,ikieoz,001,fr,1,2022-04-25_17h04.55.564,Continuous,2022.1.1,33.435914719753846,
2,0,2,0,8,0,8,0,,,,,,,,1.980987411484799,time,384.0,22.518425025625454,0.0010785454855519055,0,43,[],0.010208566665824037,None,None,139.8677103,139.8677103,0.2230220666660898,2.2040094781508888,140.0881634999996,139.8677103,,,,,,,,,ikieoz,001,fr,1,2022-04-25_17h04.55.564,Continuous,2022.1.1,33.435914719753846,
3,0,3,0,0,0,0,0,,,,,"[0.3333333333333333, 0.3333333333333333, 0.16666666666666666, 0.16666666666666666, 0.16666666666666666, 0.5833333333333334, 0.5833333333333334, 0.5833333333333334, 0.5833333333333334, 0.3333333333333333, 0.3333333333333333, 0.16666666666666666, 0.3333333333333333, 0.5833333333333334, 0.5833333333333334]",146.25415629999952,None,1.6645299754915457,time,870.0,2.616577781444933,5.4544913862251076e-05,0,44,[],0.01265976666672941,None,None,147.2801902000001,None,0.2075171666674578,1.8720471421590035,147.48576890000004,None,,142.06595729999935,None,,,,,,ikieoz,001,fr,1,2022-04-25_17h04.55.564,Continuous,2022.1.1,33.435914719753846,
3,0,3,0,1,0,1,0,,,,,,,,1.6645299754915457,time,7818.0,7.9293875171815,0.00043856781397288904,0,45,[],0.009235266666109965,None,None,149.15186170000015,149.15186170000015,0.22157476666598086,1.8861047421575265,149.3683431999998,149.15186170000015,,,,,,,,,ikieoz,001,fr,1,2022-04-25_17h04.55.564,Continuous,2022.1.1,33.435914719753846,
3,0,3,0,2,0,2,0,,,,,,,,1.6645299754915457,time,1464.0,4.708496749783683,8.459746147949633e-05,0,46,[],0.0031388666666316567,None,None,151.02943789999972,151.02943789999972,0.2064175666664596,1.8709475421580053,151.24784379999983,151.02943789999972,,,,,,,,,ikieoz,001,fr,1,2022-04-25_17h04.55.564,Continuous,2022.1.1,33.435914719753846,
3,0,3,0,3,0,3,0,,,,,,,,1.6645299754915457,time,775.0,13.634751548115545,0.0001898398781131693,0,47,[],0.008372966666684079,None,None,152.91040239999984,152.91040239999984,0.2203394666667009,1.8848694421582466,153.1262474999994,152.91040239999984,,,,,,,,,ikieoz,001,fr,1,2022-04-25_17h04.55.564,Continuous,2022.1.1,33.435914719753846,
3,0,3,0,4,0,4,0,,,,,,,,1.6645299754915457,time,,,,1,47,[],0.008723166665731696,None,None,154.79415169999993,154.79415169999993,0.2214907666657382,1.8860207421572839,155.01122119999945,154.79415169999993,,,,,,,,,ikieoz,001,fr,1,2022-04-25_17h04.55.564,Continuous,2022.1.1,33.435914719753846,
3,0,3,0,5,0,5,0,,,,,,,,1.6645299754915457,time,6205.0,3.677935290555215,0.00019171111496969366,0,48,[],0.007238066666104714,None,None,156.6677450999996,156.6677450999996,0.21207986666649958,1.8766098421580453,156.88778619999994,156.6677450999996,,,,,,,,,ikieoz,001,fr,1,2022-04-25_17h04.55.564,Continuous,2022.1.1,33.435914719753846,
3,0,3,0,6,0,6,0,,,,,,,,1.6645299754915457,time,977.0,10.955698130800062,0.00015320115491922927,0,49,[],0.009960966665857995,None,None,158.55224550000003,158.55224550000003,0.227703966666013,1.8922339421575587,158.7705329999999,158.55224550000003,,,,,,,,,ikieoz,001,fr,1,2022-04-25_17h04.55.564,Continuous,2022.1.1,33.435914719753846,
3,0,3,0,7,0,7,0,,,,,,,,1.6645299754915457,time,3287.0,3.888049872308925,0.00011174997237942624,0,50,[],0.010002966666434077,None,None,160.4281745999997,160.4281745999997,0.22023416666615958,1.8847641421577053,160.6523460999997,160.4281745999997,,,,,,,,,ikieoz,001,fr,1,2022-04-25_17h04.55.564,Continuous,2022.1.1,33.435914719753846,
3,0,3,0,8,0,8,0,,,,,,,,1.6645299754915457,time,548.0,19.325976233268293,0.000591813303631094,0,51,[],0.0055682666670691106,None,['space'],162.30523899999935,162.30523899999935,0.20905266666704847,1.8735826421585942,162.52691129999948,162.30523899999935,[-1.6249022000001787],,,,,,,,ikieoz,001,fr,1,2022-04-25_17h04.55.564,Continuous,2022.1.1,33.435914719753846,
3,0,3,0,9,0,9,0,,,,,,,,1.6645299754915457,time,4925.0,2.0,0.00018579928309536353,0,52,[],0.008822966666230059,None,None,164.18930459999956,164.18930459999956,0.21968586666571355,1.8842158421572592,164.41079319999972,164.18930459999956,,,,,,,,,ikieoz,001,fr,1,2022-04-25_17h04.55.564,Continuous,2022.1.1,33.435914719753846,
3,0,3,0,10,0,10,0,,,,,,,,1.6645299754915457,time,690.0,9.328348868985543,0.00013435670457299074,0,53,[],0.008657366666739108,None,None,166.07486960000006,166.07486960000006,0.2298297666666258,1.8943597421581715,166.29542760000004,166.07486960000006,,,,,,,,,ikieoz,001,fr,1,2022-04-25_17h04.55.564,Continuous,2022.1.1,33.435914719753846,
4,0,4,0,0,0,0,0,,,,,,175.67531770000005,None,2.1195370517470966,both,1411.0,9.901250632218686,0.00015792764068395915,0,56,[],0.01265166666598816,None,None,176.7112446000001,None,0.22776546666591457,2.347302518413011,176.93140529999982,None,,167.95326789999945,None,0.5833333333333334,,,,,ikieoz,001,fr,1,2022-04-25_17h04.55.564,Continuous,2022.1.1,33.435914719753846,
4,0,4,0,1,0,1,0,,,,,,,,2.1195370517470966,both,942.0,10.794416851881913,0.00014693573463250525,0,57,[],0.009701266666525044,None,['space'],179.04353720000017,179.04353720000017,0.21837966666680586,2.3379167184139025,179.25570189999962,179.04353720000017,[-1.25854580000032],,,,,,,,ikieoz,001,fr,1,2022-04-25_17h04.55.564,Continuous,2022.1.1,33.435914719753846,
4,0,4,0,2,0,2,0,,,,,,,,2.1195370517470966,both,629.0,11.275997116054787,0.00018797149865138808,0,58,[],0.00941676666661806,None,None,181.37301899999966,181.37301899999966,0.21429956666634098,2.3338366184134376,181.59043829999973,181.37301899999966,,,,,,,,,ikieoz,001,fr,1,2022-04-25_17h04.55.564,Continuous,2022.1.1,33.435914719753846,
4,0,4,0,3,0,3,0,,,,,,,,2.1195370517470966,both,420.0,10.10266560229338,0.00024169450866754201,0,59,[],0.009736066666846455,None,None,183.7030175,183.7030175,0.2241545666665843,2.343691618413681,183.92126469999948,183.7030175,,,,,,,,,ikieoz,001,fr,1,2022-04-25_17h04.55.564,Continuous,2022.1.1,33.435914719753846,
4,0,4,0,4,0,4,0,,,,,,,,2.1195370517470966,both,280.0,11.669333401283884,0.0005200534237053973,0,60,[],0.0009423666660950403,None,None,186.03529509999953,186.03529509999953,0.20316196666590258,2.322699018412999,186.2564113999997,186.03529509999953,,,,,,,,,ikieoz,001,fr,1,2022-04-25_17h04.55.564,Continuous,2022.1.1,33.435914719753846,
4,0,4,0,5,0,5,0,,,,,,,,2.1195370517470966,both,187.0,7.085041238455329,0.0007071345363470506,0,61,[],0.009201966666296357,None,None,188.36994210000012,188.36994210000012,0.22108336666678952,2.340620418413886,188.5848721000002,188.36994210000012,,,,,,,,,ikieoz,001,fr,1,2022-04-25_17h04.55.564,Continuous,2022.1.1,33.435914719753846,
4,0,4,0,6,0,6,0,,,,,,,,2.1195370517470966,both,125.0,7.0,0.0016179682846481417,0,62,[],0.007978866666235263,None,None,190.70038059999933,190.70038059999933,0.21141966666618828,2.330956718413285,190.9210876999996,190.70038059999933,,,,,,,,,ikieoz,001,fr,1,2022-04-25_17h04.55.564,Continuous,2022.1.1,33.435914719753846,
4,0,4,0,7,0,7,0,,,,,,,,2.1195370517470966,both,,,,1,62,[],0.009697966666863067,None,None,193.04274769999938,193.04274769999938,0.22416286666702945,2.343699918414126,193.26240020000023,193.04274769999938,,,,,,,,,ikieoz,001,fr,1,2022-04-25_17h04.55.564,Continuous,2022.1.1,33.435914719753846,
5,0,5,0,0,0,0,0,,,,,,203.74209749999955,None,2.9429437837307644,both,8000.0,15.0,0.001020868972334765,0,63,[],0.013030566666202503,None,None,204.78035959999943,None,0.22785976666636998,3.1708035503971344,205.0033601999994,None,,195.372343,None,0.3333333333333333,,,,,ikieoz,001,fr,1,2022-04-25_17h04.55.564,Continuous,2022.1.1,33.435914719753846,
5,0,5,0,1,0,1,0,,,,,,,,2.9429437837307644,both,6350.0,13.527135622824671,0.0006242527435552442,0,64,[],0.007033166665678436,None,['space'],207.9367553000002,207.9367553000002,0.2150527666663038,3.157996550397068,208.1544432999999,207.9367553000002,[-2.0402944000006755],,,,,,,,ikieoz,001,fr,1,2022-04-25_17h04.55.564,Continuous,2022.1.1,33.435914719753846,
5,0,5,0,2,0,2,0,,,,,,,,2.9429437837307644,both,5040.0,11.209815632581618,0.0005498528334429138,0,65,[],0.009133866666161339,None,['space'],211.09773080000014,211.09773080000014,0.22399916666654462,3.166942950397309,211.3195821999998,211.09773080000014,[-2.160660700000335],,,,,,,,ikieoz,001,fr,1,2022-04-25_17h04.55.564,Continuous,2022.1.1,33.435914719753846,
5,0,5,0,3,0,3,0,,,,,,,,2.9429437837307644,both,4000.0,12.371073418231575,0.0003487575958835186,0,66,[],0.009538166666061443,None,None,214.25720050000018,214.25720050000018,0.22901246666606312,3.1719562503968275,214.48136439999962,214.25720050000018,,,,,,,,,ikieoz,001,fr,1,2022-04-25_17h04.55.564,Continuous,2022.1.1,33.435914719753846,
5,0,5,0,4,0,4,0,,,,,,,,2.9429437837307644,both,,,,1,66,[],0.009358966666695778,None,['space'],217.4214677,217.4214677,0.22404316666688828,3.1669869503976527,217.64085949999935,217.4214677,[-2.467980900000839],,,,,,,,ikieoz,001,fr,1,2022-04-25_17h04.55.564,Continuous,2022.1.1,33.435914719753846,
5,0,5,0,5,0,5,0,,,,,,,,2.9429437837307644,both,2520.0,12.452237465329675,0.00035501930074800434,0,67,[],0.010646566666764556,None,None,220.57441139999992,220.57441139999992,0.22238876666688157,3.165332550397646,220.793052,220.57441139999992,,,,,,,,,ikieoz,001,fr,1,2022-04-25_17h04.55.564,Continuous,2022.1.1,33.435914719753846,
5,0,5,0,6,0,6,0,,,,,,,,2.9429437837307644,both,2000.0,14.52340302131881,0.00039823566832904254,0,68,[],0.009417466666491237,None,['space'],223.73558069999945,223.73558069999945,0.22748696666621981,3.170430750396984,223.95481199999995,223.73558069999945,[-2.319326299999375],,,,,,,,ikieoz,001,fr,1,2022-04-25_17h04.55.564,Continuous,2022.1.1,33.435914719753846,
5,0,5,0,7,0,7,0,,,,,,,,2.9429437837307644,both,1587.0,14.643854092750706,0.00030038333279548387,0,69,[],0.0027368666660549934,None,['space'],226.8937608999995,226.8937608999995,0.21056436666640366,3.153508150397168,227.1135420999999,226.8937608999995,[-2.3730815999997503],,,,,,,,ikieoz,001,fr,1,2022-04-25_17h04.55.564,Continuous,2022.1.1,33.435914719753846,
5,0,5,0,8,0,8,0,,,,,,,,2.9429437837307644,both,1260.0,14.899597129551182,0.00030162498183340924,0,70,[],0.00919406666616851,None,['space'],230.05223169999954,230.05223169999954,0.23137426666562533,3.1743180503963897,230.28179009999985,230.05223169999954,[-2.4755519000000277],,,,,,,,ikieoz,001,fr,1,2022-04-25_17h04.55.564,Continuous,2022.1.1,33.435914719753846,
6,0,6,0,0,0,0,0,,,,,,238.04274879999957,None,1.1692506472438244,frequency,8000.0,11.0,0.000644124775846567,0,70,[],0.012903166666546895,None,None,239.07646380000006,None,0.23830586666645104,1.4075565139102755,239.30429370000002,None,,233.21950370000013,None,0.3333333333333333,,,,,ikieoz,001,fr,1,2022-04-25_17h04.55.564,Continuous,2022.1.1,33.435914719753846,
6,0,6,0,1,0,1,0,,,,,,,,1.3575452294600077,frequency,6350.0,11.0,0.00046666333305588693,0,71,['frequency'],0.008374766666747746,None,None,240.46654619999936,240.46654619999936,0.21982086666685063,1.5773660961268583,240.68364380000003,240.46654619999936,,,,,"{'estimation': [[125.0, 15.04717572881935], [128.9261782514276, 16.0], [133.5160400564377, 17.0], [133.9716828170366, 17.092736268357037], [138.7358886228136, 18.0], [143.5872943746293, 18.86409789115524], [144.66751727462736, 19.0], [152.8902844317182, 20.0], [153.89305166811442, 20.117588029148727], [164.93848884661162, 20.678439677549292], [176.77669529663666, 20.50448619864455], [184.60735162081252, 20.0], [189.46457081379947, 19.70634956134263], [197.40112651173493, 19.0], [203.0630990890585, 18.5273415083241], [208.97121572897944, 18.0], [217.6376408240306, 17.268592134666946], [221.43647839189026, 17.0], [233.25824788420132, 16.201318811168647], [237.8643057489296, 16.0], [249.99999999999937, 15.488818910587817], [267.94336563407256, 15.153634901312023], [287.1745887492579, 15.096710621715612], [307.78610333622805, 15.165684375859986], [329.87697769322244, 15.229716974667271], [353.55339059327247, 15.234555271352821], [378.929141627598, 15.212099634134896], [406.12619817811606, 15.247609738460524], [435.2752816480601, 15.426533595252637], [466.5164957684015, 15.791876523126117], [478.9390912134725, 16.0], [499.9999999999975, 16.33420868480912], [535.2473014556743, 17.0], [535.8867312681438, 17.011609386282053], [574.3491774985143, 17.796089738526334], [583.4310792323864, 18.0], [615.5722066724546, 18.701718997363038], [627.5550659165873, 19.0], [659.7539553864432, 19.782169920579236], [667.5039681528664, 20.0], [703.5843905060799, 21.0], [707.1067811865431, 21.09588677218134], [736.609662338871, 22.0], [757.8582832551941, 22.64617137159061], [769.3175997661948, 22.999999999999996], [801.3527926748249, 24.0], [812.2523963562301, 24.33969219049988], [835.994968889991, 25.0], [870.5505632961181, 25.971870437314955], [871.9089790915715, 26.0], [919.9197440579023, 27.0], [933.0329915368008, 27.273724582746762], [999.9999999999926, 27.980899862006485], [1071.773462536285, 27.924311616305395], [1148.698354997026, 27.079174091027156], [1152.7958424344572, 27.0], [1206.5080833952713, 26.0], [1231.1444133449063, 25.566558325806163], [1255.481999725482, 25.0], [1300.5217147273954, 24.0], [1319.5079107728832, 23.601544472287866], [1344.2175372803424, 23.0], [1387.090534454596, 22.0], [1414.2135623730828, 21.405969553934206], [1431.4514376961895, 21.0], [1475.1320679452042, 20.0], [1515.7165665103828, 19.128379615024762], [1521.5135048649124, 19.0], [1567.183235417723, 18.0], [1614.890010686843, 17.0], [1624.5047927124563, 16.80653723747324], [1662.8381904341097, 16.0], [1710.8656244455526, 15.0], [1741.1011265922318, 14.3916575935464], [1760.1354361797394, 14.0], [1808.2247779791164, 13.0], [1856.920064978864, 12.0], [1866.065983073597, 11.816088345047008], [1906.3236091487097, 11.0], [1955.0876276352867, 10.0], [1999.9999999999802, 9.09465807114924], [2005.0458104821448, 9.0], [2057.8096269929647, 8.0], [2110.590385655062, 7.0], [2143.5469250725646, 6.388802608367659], [2168.581041867494, 6.0], [2233.054404613994, 5.0], [2297.396709994046, 4.027128450419294], [2300.1348643644137, 4.0], [2402.7040267138873, 3.0], [2462.2888266898062, 2.43898511217997], [2639.01582154576, 2.043607369436201], [2809.758607546663, 3.0], [2828.427124746159, 3.1000364900147184], [2899.818462702346, 4.0], [2980.792300340534, 5.0], [3031.4331330207615, 5.601401709361227], [3054.9594052523094, 6.0], [3113.5375510698595, 7.0], [3172.672248124555, 8.0], [3234.2540908923806, 9.0], [3249.0095854249043, 9.23027311545314], [3291.496816217514, 10.0], [3345.8664178060426, 11.0], [3400.8520552332006, 12.0], [3458.267319893645, 13.0], [3482.2022531844555, 13.397431166450048], [3519.5720088587086, 14.000000000000002], [3580.7034905527025, 14.999999999999998], [3642.424183108373, 16.0], [3706.79471368402, 17.0], [3732.1319661471844, 17.376330658059018], [3785.352059723287, 18.0], [3870.3818059708738, 19.0], [3957.5206966088795, 20.0], [3999.9999999999504, 20.4703999916319], [4087.998375097429, 21.0], [4255.957241359202, 22.0], [4287.093850145118, 22.182589742504007], [4594.793419988076, 22.329264069789915], [4680.4383080246025, 22.0], [4924.577653379601, 21.066991726952324], [4935.130889016084, 21.0], [5092.6218479442505, 20.0], [5251.347203068437, 18.999999999999996], [5278.031643091506, 18.83468546328429], [5397.773695326586, 18.0], [5541.7428441334, 17.0], [5656.854249492303, 16.219633040263886], [5693.033738536598, 16.0], [5858.597440387845, 15.0], [6028.063736120938, 14.0], [6062.866266041508, 13.79970143430634], [6253.505665477151, 13.0], [6498.019170849792, 12.009620405264092], [6502.520122009997, 12.0], [6964.404506368894, 11.051679474529013], [7117.569082142477, 11.0], [7464.263932294341, 10.886404850561982], [7616.832366447939, 11.0], [7999.999999999872, 11.28602111200218]], 'plus_line': [[125.00000000000007, 7.051232449068568], [128.09140778644016, 8.0], [131.40176664762527, 9.0], [133.9716828170366, 9.731948128782731], [135.21998607935362, 10.0], [139.95162354965248, 11.0], [143.5872943746293, 11.74822341731398], [145.52410872713082, 12.0], [153.41584837907328, 13.0], [153.89305166811442, 13.058249372958105], [164.93848884661162, 13.655385921276231], [176.77669529663666, 13.591857327431418], [188.8099846999875, 13.0], [189.46457081379947, 12.968696366654775], [202.42525416626728, 12.0], [203.0630990890585, 11.954811714821984], [215.0029575933252, 11.0], [217.6376408240306, 10.800811746695894], [229.63865174437038, 10.0], [233.25824788420147, 9.76710303702793], [249.99999999999937, 9.03857045201694], [251.7937442816494, 9.0], [267.94336563407256, 8.646743273686647], [287.17458874925757, 8.5262928205618], [307.78610333622805, 8.509430317094443], [329.87697769322244, 8.457404048924017], [353.55339059327247, 8.337215896901077], [378.929141627598, 8.231204709894813], [406.12619817811606, 8.271414585257777], [435.2752816480601, 8.553782748697937], [461.0795514815881, 9.0], [466.5164957684015, 9.085814903096761], [499.9999999999975, 9.76380657646139], [510.84891728685244, 10.0], [535.8867312681438, 10.509381932085592], [559.3472269355246, 11.0], [574.3491774985143, 11.29775312439772], [607.2475318821411, 12.0], [615.5722066724546, 12.170881720046449], [651.2435583561902, 13.0], [659.7539553864432, 13.192851531343939], [691.4758830324222, 14.0], [707.1067811865431, 14.395308033267469], [729.9767059188704, 15.0], [757.8582832551941, 15.750568274572014], [767.7190119740073, 16.0], [806.2992059412284, 17.0], [812.2523963562301, 17.156001963332162], [850.6621700017661, 18.0], [870.5505632961181, 18.44954331359677], [905.1331355666854, 19.0], [933.0329915368008, 19.446399429008437], [999.9999999999926, 19.950351537622584], [1071.773462536285, 19.80938160883656], [1148.698354997026, 19.018030442597816], [1149.7362432213117, 19.0], [1209.5122796362016, 18.0], [1231.1444133449063, 17.663680985334917], [1263.2771437330932, 17.0], [1316.818193490633, 16.0], [1319.5079107728832, 15.952165618496611], [1363.5915466380193, 15.0], [1414.2135623730828, 14.038527092671675], [1415.971828430646, 14.0], [1462.6678066524337, 13.0], [1515.7165665103846, 12.005136970547042], [1515.9524649877394, 12.0], [1562.2030993854366, 11.0], [1613.8194875006334, 10.0], [1624.5047927124563, 9.804573403794477], [1660.4007450013053, 9.0], [1707.6410295973405, 8.0], [1741.1011265922318, 7.3478527433833625], [1756.156371869904, 7.0], [1799.3089053381268, 6.0], [1845.5519967898615, 5.0], [1866.065983073597, 4.580756748560367], [1890.9839190939751, 4.0], [1934.0639051401238, 3.0], [1980.0544978319492, 2.0], [1999.9999999999827, 1.5879100311587009], [2027.241019702999, 1.0], [2073.9249727099555, 0.0], [2123.749104363338, -1.0], [2143.5469250725646, -1.3795514031140828], [2179.36660584313, -2.0], [2238.535045782461, -3.0], [2297.396709994046, -3.923866586578509], [2304.6414433108985, -4.0], [2400.708132350637, -5.0], [2462.2888266898062, -5.604876594658917], [2639.01582154576, -5.988600071228877], [2803.0445855406974, -5.0], [2828.427124746159, -4.852656585501478], [2894.9452828422413, -4.0], [2970.7272835977747, -3.0], [3031.4331330207615, -2.2015442985115934], [3043.57491499812, -2.0], [3102.6914974876563, -1.0], [3158.594782200038, 0.0], [3213.471068356107, 1.0], [3249.0095854249043, 1.629113095237712], [3270.4551866607208, 2.0], [3326.019651343655, 3.0], [3378.1141921309104, 4.0], [3428.9423581255433, 5.0], [3480.954407020004, 6.0], [3482.2022531844555, 6.022642217287895], [3545.500407183275, 7.0], [3605.5775375303615, 8.0], [3663.53301041515, 9.0], [3722.2688638687596, 10.0], [3732.1319661471844, 10.158956061884462], [3807.242253085748, 11.0], [3892.090049772021, 12.0], [3975.5055046640455, 13.0], [3999.9999999999554, 13.283380105944575], [4129.078025771391, 14.0], [4287.093850145118, 14.886828712499462], [4594.793419988081, 14.829208142147852], [4776.805524951578, 14.0], [4924.577653379601, 13.347627614512659], [4973.844725433664, 13.0], [5116.061667905756, 12.0], [5268.100537230998, 11.0], [5278.031643091506, 10.936096337521226], [5400.532947789571, 10.0], [5537.0456575054095, 9.0], [5656.854249492303, 8.182841875451606], [5685.217870243384, 8.0], [5840.477697824562, 7.0], [6006.588108390897, 6.0], [6062.866266041501, 5.675738931892821], [6218.581748341376, 5.0], [6462.962312244609, 4.0], [6498.019170849792, 3.8610579215138423], [6922.415645832761, 3.0], [6964.404506368894, 2.9172493158651385], [7464.2639322943505, 2.700148139394385], [7999.999999999882, 2.796826642551767]], 'minus_line': [[125.0, 23.20920943319072], [129.47761128007562, 24.0], [133.9716828170366, 24.696953798409687], [135.68360090142602, 25.0], [141.66170384876153, 26.0], [143.5872943746293, 26.301390023224776], [149.19640912730668, 27.0], [153.8930516681143, 27.55729636404022], [163.08409871874386, 28.0], [164.93848884661162, 28.089089930726423], [168.14398096784635, 28.0], [176.77669529663666, 27.78357953301056], [186.3334057319039, 27.0], [189.46457081379947, 26.760219923063953], [196.5745933219529, 26.0], [203.0630990890585, 25.336768464319533], [206.32833866458796, 25.0], [216.3589862451585, 24.0], [217.6376408240306, 23.87889144733206], [229.22631570211124, 23.0], [233.25824788420132, 22.70766042398032], [249.01595964766847, 22.0], [249.99999999999937, 21.958357548626893], [267.94336563407256, 21.64581783558765], [287.1745887492579, 21.6332461151558], [307.78610333622805, 21.771954221473223], [329.87697769322244, 21.93338375034505], [343.9763923719416, 22.0], [353.55339059327247, 22.04715814294789], [378.929141627598, 22.09716307917971], [406.12619817811606, 22.123424839911962], [435.2752816480601, 22.209636802207115], [466.5164957684015, 22.44394772715333], [499.9999999999975, 22.87625913788509], [506.7363976426577, 23.000000000000004], [535.8867312681438, 23.528380624172954], [557.9604484612255, 24.0], [574.3491774985143, 24.34553932432853], [602.0902099454911, 25.0], [615.5722066724546, 25.31150855405289], [641.4824342186121, 26.0], [659.7539553864432, 26.469376861621804], [676.842919105181, 27.0], [707.1067811865431, 27.89875924108479], [709.9629227404548, 28.0], [738.0938708460859, 29.0], [757.8582832551941, 29.664988274709444], [766.8143180621606, 30.0], [793.6112674976897, 31.0], [812.2523963562301, 31.66308397234718], [822.0342575295117, 32.0], [851.0846454230775, 33.0], [870.550563296117, 33.643007736201746], [884.2535348875566, 34.0], [923.1117711517505, 35.0], [933.0329915368008, 35.25038414815772], [988.5824899443613, 36.0], [999.9999999999939, 36.1532492438845], [1071.773462536285, 36.1499397910536], [1083.6148811591017, 36.0], [1148.698354997026, 35.217698277140556], [1158.8692610364121, 35.0], [1206.7032754466377, 34.0], [1231.1444133449063, 33.50432129918313], [1250.820886305608, 33.0], [1289.960642840877, 32.0], [1319.5079107728832, 31.26146382932044], [1329.4068637591179, 31.0], [1367.3355885913481, 30.0], [1405.1520951324078, 29.0], [1414.2135623730828, 28.77057769839324], [1445.5598015244607, 28.0], [1485.3978955332018, 27.000000000000004], [1515.7165665103846, 26.252103564569644], [1527.1382194165035, 26.0], [1571.9747199015317, 25.0], [1615.763155997263, 24.0], [1624.5047927124563, 23.807177011191335], [1665.2056072485634, 23.0], [1713.3931806186235, 22.0], [1741.1011265922318, 21.425679272021902], [1764.0541119676357, 21.0], [1816.0361703454066, 20.0], [1865.8368859349098, 19.0], [1866.0659830735992, 18.995511703693875], [1921.1915284642998, 18.0], [1973.0732027225292, 17.0], [1999.9999999999802, 16.478343198652524], [2028.070368558067, 16.0], [2084.7106821066814, 15.0], [2139.327965173156, 14.0], [2143.5469250725646, 13.924497448522978], [2206.918881725019, 13.0], [2273.1122999321124, 12.0], [2297.396709994046, 11.638356930570067], [2362.7107669367097, 11.0], [2462.2888266898062, 10.033064927090244], [2474.3146609832143, 10.0], [2639.01582154576, 9.581850435105105], [2717.423519563128, 10.0], [2828.427124746159, 10.567068461251699], [2862.3585404595015, 11.0], [2942.7941300954667, 12.0], [3031.4331330207615, 12.997994124758643], [3031.5482116058115, 13.0], [3087.5140418859187, 14.0], [3145.576277593973, 15.0], [3208.961325880058, 16.0], [3249.0095854249043, 16.579598793769385], [3271.07841535289, 17.0], [3322.6319793368525, 18.0], [3376.4220872395094, 19.0], [3435.3657213636966, 20.0], [3482.2022531844555, 20.71752911835344], [3498.7148218556567, 21.0], [3555.846870857155, 22.0], [3615.2106910520292, 23.0], [3679.914596640428, 24.0], [3732.13196614718, 24.731963948605532], [3753.2620485067355, 25.0], [3831.2118696565, 26.0], [3913.5590020696955, 27.0], [3999.999999999946, 27.955859540897556], [4006.4168717308385, 28.0], [4150.584681408835, 29.0], [4287.093850145118, 29.891482958379946], [4374.504394271832, 30.0], [4594.793419988076, 30.28380746078036], [4681.2468909047975, 30.0], [4924.577653379601, 29.208734769122742], [4959.739538467557, 29.0], [5127.211785235013, 28.0], [5278.031643091506, 27.073318425702293], [5288.997028989394, 27.0], [5438.500970194587, 26.0], [5582.440242200057, 25.0], [5656.854249492303, 24.486800211584107], [5738.792860764502, 24.0], [5904.643439140912, 23.0], [6062.866266041508, 22.03351088309679], [6070.614566584223, 22.0], [6305.961521884238, 21.0], [6498.019170849792, 20.184557789166345], [6579.156604741032, 20.0], [6964.404506368902, 19.161767343369426], [7464.2639322943505, 19.033203943368022], [7999.999999999882, 19.769642514136496]]}",,,,ikieoz,001,fr,1,2022-04-25_17h04.55.564,Continuous,2022.1.1,33.435914719753846,
6,0,6,0,2,0,2,0,,,,,,,,1.1517104159480505,frequency,5040.0,10.714276667031674,0.000519361220904393,0,72,['frequency'],0.014403333334485069,None,['space'],242.04374819999975,242.04374819999975,0.22344453333425918,1.3751549492823096,242.26231670000016,242.04374819999975,[-0.8993119999995542],,,,,,,,ikieoz,001,fr,1,2022-04-25_17h04.55.564,Continuous,2022.1.1,33.435914719753846,
6,0,6,0,3,0,3,0,,,,,,,,1.7526217028906723,frequency,,,,1,72,['frequency'],0.003111266666564916,None,None,243.4075511000001,243.4075511000001,0.21272496666642837,1.9653466695571007,243.6322769999997,243.4075511000001,,,,,,,,,ikieoz,001,fr,1,2022-04-25_17h04.55.564,Continuous,2022.1.1,33.435914719753846,
6,0,6,0,4,0,4,0,,,,,,,,1.7145038815607232,frequency,3175.0,10.132304780846324,0.00022301697689036876,0,73,['frequency'],0.009241666666639503,None,None,245.3831068999998,245.3831068999998,0.2253650666671092,1.9398689482278324,245.60475009999936,245.3831068999998,,,,,,,,,ikieoz,001,fr,1,2022-04-25_17h04.55.564,Continuous,2022.1.1,33.435914719753846,
6,0,6,0,5,0,5,0,,,,,,,,1.966416995527016,frequency,2520.0,10.888413990239611,0.00029652464218218915,0,74,['frequency'],0.005702166666196717,None,None,247.31155500000023,247.31155500000023,0.21428466666566237,2.1807016621926785,247.52980769999976,247.31155500000023,,,,,,,,,ikieoz,001,fr,1,2022-04-25_17h04.55.564,Continuous,2022.1.1,33.435914719753846,
6,0,6,0,6,0,6,0,,,,,,,,1.2386387010869637,frequency,2000.0,11.012960712612458,0.00026583859928882013,0,75,['frequency'],0.0046172666661732364,None,['space'],249.49651389999963,249.49651389999963,0.21081366666567192,1.4494523677526356,249.7158290999996,249.49651389999963,[-1.5199843000000328],,,,,,,,ikieoz,001,fr,1,2022-04-25_17h04.55.564,Continuous,2022.1.1,33.435914719753846,
6,0,6,0,7,0,7,0,,,,,,,,1.7103292776025671,frequency,1587.0,11.031527413940447,0.00019817985102156007,0,76,['frequency'],0.007556866666163842,0.19984326666599372,['space'],250.95813709999948,250.95813709999948,0.19984326666599372,1.9101725442685609,251.1692035999995,250.95813709999948,[-0.8532408999999461],,,,,,,,ikieoz,001,fr,1,2022-04-25_17h04.55.564,Continuous,2022.1.1,33.435914719753846,
6,0,6,0,8,0,8,0,,,,,,,,2.3359483371730185,frequency,1260.0,10.833319407226247,0.00018886584351535492,0,77,['frequency'],0.006843866665803944,None,['space'],252.88185220000014,252.88185220000014,0.21130596666625934,2.547254303839278,253.10228839999945,252.88185220000014,[-1.257640700000593],,,,,,,,ikieoz,001,fr,1,2022-04-25_17h04.55.564,Continuous,2022.1.1,33.435914719753846,
7,0,7,0,0,0,0,0,,,,,"[0.5833333333333334, 0.3333333333333333, 0.3333333333333333, 0.3333333333333333, 0.3333333333333333, 0.16666666666666666, 0.16666666666666666, 0.16666666666666666, 0.3333333333333333, 0.3333333333333333, 0.16666666666666666, 0.5833333333333334, 0.3333333333333333, 0.3333333333333333, 0.3333333333333333]",262.04898539999976,None,1.7192060307454278,time,,,,1,53,['frequency'],0.01274086666671792,None,None,263.09748450000006,None,0.20966036666686705,1.9288663974122948,263.3058175999995,None,,255.4362368000002,None,,,,,,ikieoz,001,fr,1,2022-04-25_17h04.55.564,Continuous,2022.1.1,33.435914719753846,
7,0,7,0,1,0,1,0,,,,,,,,1.7192060307454278,time,5040.0,8.8936647627629,0.00042115205471314417,0,54,['frequency'],0.008349866666321759,None,None,265.03029909999987,265.03029909999987,0.22449966666681576,1.9437056974122435,265.2447499,265.03029909999987,,,,,,,,,ikieoz,001,fr,1,2022-04-25_17h04.55.564,Continuous,2022.1.1,33.435914719753846,
7,0,7,0,2,0,2,0,,,,,,,,1.7192060307454278,time,4490.0,6.351129237271202,0.00024443709146659164,0,55,['frequency'],0.007788566666022234,None,None,266.9625178999995,266.9625178999995,0.226976066665884,1.9461820974113118,267.18266009999934,266.9625178999995,,,,,,,,,ikieoz,001,fr,1,2022-04-25_17h04.55.564,Continuous,2022.1.1,33.435914719753846,
7,0,7,0,3,0,3,0,,,,,,,,1.7192060307454278,time,1782.0,7.567050693987646,0.0001552582710372302,0,56,['frequency'],0.005272266666906944,None,None,268.90076749999935,268.90076749999935,0.21615826666675275,1.9353642974121805,269.11536089999936,268.90076749999935,,,,,,,,,ikieoz,001,fr,1,2022-04-25_17h04.55.564,Continuous,2022.1.1,33.435914719753846,
7,0,7,0,4,0,4,0,,,,,,,,1.7192060307454278,time,5657.0,6.158205325798738,0.00026114112866695025,0,57,['frequency'],0.003950166666072619,0.19050566666555824,None,270.83452380000017,270.83452380000017,0.19050566666555824,1.909711697410986,271.04314350000004,270.83452380000017,,,,,,,,,ikieoz,001,fr,1,2022-04-25_17h04.55.564,Continuous,2022.1.1,33.435914719753846,
7,0,7,0,5,0,5,0,,,,,,,,1.7192060307454278,time,6350.0,5.428650823610832,0.00024571757453231214,0,58,['frequency'],0.007099066666341969,None,None,272.76515130000007,272.76515130000007,0.223115766666524,1.9423217974119518,272.98168160000023,272.76515130000007,,,,,,,,,ikieoz,001,fr,1,2022-04-25_17h04.55.564,Continuous,2022.1.1,33.435914719753846,
7,0,7,0,6,0,6,0,,,,,,,,1.7192060307454278,time,2829.0,8.554481032823642,0.00017524116496375788,0,59,['frequency'],0.00713866666683316,0.20001216666696564,None,274.70418400000017,274.70418400000017,0.20001216666696564,1.9192181974123934,274.9093991,274.70418400000017,,,,,,,,,ikieoz,001,fr,1,2022-04-25_17h04.55.564,Continuous,2022.1.1,33.435914719753846,
7,0,7,0,7,0,7,0,,,,,,,,1.7192060307454278,time,2245.0,5.984064086466291,0.00015981189009912835,0,60,['frequency'],0.003361166665854398,0.19693696666581673,['space'],276.6264652,276.6264652,0.19693696666581673,1.9161429974112445,276.8454206999995,276.6264652,[-1.0499423999999635],,,,,,,,ikieoz,001,fr,1,2022-04-25_17h04.55.564,Continuous,2022.1.1,33.435914719753846,
7,0,7,0,8,0,8,0,,,,,,,,1.7192060307454278,time,8000.0,5.0,0.00032282711451732784,0,61,['frequency'],0.007471966666344088,None,None,278.55937540000014,278.55937540000014,0.22775916666614648,1.9469651974115743,278.78046189999986,278.55937540000014,,,,,,,,,ikieoz,001,fr,1,2022-04-25_17h04.55.564,Continuous,2022.1.1,33.435914719753846,
8,0,8,0,0,0,0,0,,,,,"[0.5833333333333334, 0.3333333333333333, 0.5833333333333334, 0.3333333333333333, 0.3333333333333333, 0.3333333333333333, 0.3333333333333333, 0.3333333333333333, 0.16666666666666666, 0.5833333333333334, 0.3333333333333333, 0.5833333333333334, 0.3333333333333333, 0.5833333333333334, 0.3333333333333333]",286.83421759999965,None,2.2859684619937735,none,530.0,18.42400998623136,0.0005568616567913054,0,67,['frequency'],0.012585466666678258,None,None,287.85921549999966,None,0.20914166666625533,2.495110128660029,288.06425239999953,None,,280.4942449,None,,,,,,ikieoz,001,fr,1,2022-04-25_17h04.55.564,Continuous,2022.1.1,33.435914719753846,
8,0,8,0,1,0,1,0,,,,,,,,1.7803958189126166,none,198.0,7.441380645798315,0.000642385689290955,0,68,['frequency'],0.006614166666622623,None,None,290.35420879999947,290.35420879999947,0.21274626666581753,1.993142085578434,290.56967089999944,290.35420879999947,,,,,,,,,ikieoz,001,fr,1,2022-04-25_17h04.55.564,Continuous,2022.1.1,33.435914719753846,
8,0,8,0,2,0,2,0,,,,,,,,1.5947778906319658,none,1001.0,10.18864086841349,0.0001424997846773787,0,69,['frequency'],0.00010156666576222051,0.18538556666590011,None,292.3501854999995,292.3501854999995,0.18538556666590011,1.780163457297866,292.55670049999935,292.3501854999995,,,,,,,,,ikieoz,001,fr,1,2022-04-25_17h04.55.564,Continuous,2022.1.1,33.435914719753846,
8,0,8,0,3,0,3,0,,,,,,,,1.1453526765842754,none,354.0,4.0,0.0001402573203505389,0,70,['frequency'],0.0009429666661162628,None,['space'],294.1477165999995,294.1477165999995,0.20570186666645895,1.3510545432507344,294.36808629999996,294.1477165999995,[-1.0031114000003072],,,,,,,,ikieoz,001,fr,1,2022-04-25_17h04.55.564,Continuous,2022.1.1,33.435914719753846,
8,0,8,0,4,0,4,0,,,,,,,,2.360897486669402,none,1261.0,9.076857270601343,0.00015421675549205432,0,71,"['frequency', 'none']",0.00207346666684316,None,None,295.51206959999945,295.51206959999945,0.20701756666676374,2.567915053336166,295.7354018999995,295.51206959999945,,,,,,"{'estimation': [[125.0, 20.300303928350502], [133.9716828170366, 20.84436342212445], [143.5872943746293, 20.36238940456933], [146.43613581132334, 20.0], [153.89305166811442, 19.08815381993615], [154.46250984119018, 19.0], [161.0186360939432, 18.0], [164.93848884661162, 17.417116962477785], [167.91170946372912, 17.0], [175.15432780469044, 16.0], [176.77669529663666, 15.77967953861859], [184.42578294076316, 15.0], [189.46457081379947, 14.49658772307669], [197.5750844015093, 14.0], [203.0630990890585, 13.671818843234027], [217.6376408240306, 13.172774596322329], [223.3153718076414, 13.0], [233.25824788420132, 12.70789397915173], [249.54684018184327, 12.0], [249.99999999999937, 11.980933648196444], [265.3975120470853, 11.0], [267.94336563407256, 10.841973397813359], [278.9697265827298, 10.0], [287.1745887492579, 9.384307241010816], [292.54964120105507, 9.0], [306.6752314617386, 8.0], [307.78610333622805, 7.921977853277244], [326.9805766746958, 7.0], [329.87697769322244, 6.8624111966156], [353.55339059327247, 6.5275541471250325], [378.9291416275976, 6.99857299064604], [378.9637801420313, 6.999999999999999], [404.64240160231213, 8.0], [406.12619817811606, 8.05449828153519], [428.76671952193294, 9.0], [435.2752816480601, 9.253116846618584], [462.3238251435075, 10.0], [466.5164957684015, 10.107774388267075], [499.9999999999975, 10.298654398966846], [522.7629646376781, 10.0], [535.8867312681438, 9.83353328123885], [574.3491774985143, 9.075410497194223], [581.0453983546148, 9.0], [615.5722066724546, 8.623546063474622], [650.8123372844435, 9.0], [659.7539553864432, 9.090999435871746], [683.7141782133737, 10.0], [707.1067811865431, 10.844857926837179], [709.6615807312623, 11.0], [726.2747692642662, 12.0], [743.2416699182545, 13.0], [757.8582832551941, 13.834188586128692], [760.2625886100872, 14.0], [774.7213868136567, 15.0], [789.2096828163315, 16.0], [803.9322494002942, 17.0], [812.2523963562301, 17.552935720547794], [819.4547987594553, 18.0], [835.4474107498729, 19.0], [851.4501662446452, 20.0], [867.680661272605, 21.0], [870.550563296117, 21.17469155913118], [890.0349558025423, 22.0], [913.6907017806861, 23.0], [933.0329915368008, 23.80794515950332], [946.015960951057, 24.0], [999.9999999999926, 24.78378237645655], [1061.1293176861575, 24.0], [1071.773462536285, 23.868546156988828], [1097.3584517913448, 23.0], [1127.7096512464211, 22.0], [1148.698354997026, 21.33338933940025], [1156.2931536311887, 21.0], [1179.3231390470119, 20.0], [1202.911742518989, 19.0], [1227.40394686368, 18.0], [1231.1444133449063, 17.851439537822614], [1251.536408489936, 17.0], [1275.8314535744162, 16.0], [1300.8294926542937, 15.0], [1319.5079107728832, 14.279040849601326], [1328.350768775376, 14.0], [1360.4013764526137, 13.0], [1393.336041302799, 11.999999999999998], [1414.2135623730828, 11.38594797619876], [1436.140389641451, 11.0], [1494.4969941035886, 10.0], [1515.7165665103864, 9.647388638129124], [1624.5047927124563, 9.14895552326892], [1741.1011265922318, 9.62587688960416], [1787.4261862778385, 10.0], [1866.065983073597, 10.612103148000473], [1916.679035877657, 11.0], [1999.9999999999827, 11.621677925575533], [2078.89163499942, 12.0], [2143.5469250725646, 12.305735589858708], [2297.396709994046, 12.526307584867764], [2462.2888266898062, 12.337977089148936], [2595.428079031578, 12.0], [2639.015821545763, 11.892660150223886], [2828.427124746159, 11.323923342831959], [2924.6805341443905, 11.0], [3031.4331330207656, 10.657404090482403], [3195.7436473820107, 10.0], [3249.0095854249043, 9.795633098739785], [3399.3914660533965, 9.0], [3482.2022531844555, 8.576670961905442], [3565.9269353426084, 8.0], [3714.8385043604335, 7.0], [3732.1319661471844, 6.886234036827552], [3842.53221371965, 6.0], [3969.8277288682257, 5.0], [3999.9999999999504, 4.767319739877343], [4094.7469360418067, 4.0], [4220.104771060212, 3.0], [4287.093850145118, 2.4763132139624324], [4358.343404186559, 2.0], [4509.794664566415, 1.0], [4594.793419988081, 0.4497271268754518], [4710.915037759394, 0.0], [4924.577653379601, -0.8104036757126932], [5278.031643091513, -0.8958647248825837], [5544.077953914684, 0.0], [5656.854249492303, 0.3667919233186052], [5757.495328077824, 1.0], [5920.307471269656, 2.0], [6062.866266041516, 2.8444877459470197], [6082.702754023602, 3.0], [6211.645322522435, 4.0], [6343.8568132168875, 5.0], [6481.159937513909, 6.0], [6498.019170849792, 6.119657091045669], [6612.324189104771, 7.0], [6744.290555984908, 8.0], [6880.269786062001, 9.0], [6964.404506368894, 9.598532682492554], [7028.855757246346, 10.0], [7189.846353874788, 11.0], [7353.131757282895, 12.0], [7464.26393229436, 12.666069694138994], [7549.019513120902, 13.0], [7797.636839164172, 14.0], [7999.999999999882, 14.830604143848767]], 'plus_line': [[125.0, 7.590197205620345], [127.18837026191527, 8.0], [133.00133236956185, 9.0], [133.9716828170366, 9.153282672646123], [143.5872943746293, 9.028545529774679], [143.80614633953354, 9.0], [151.62393220705195, 8.0], [153.89305166811442, 7.720344758551331], [158.02906265052465, 7.0], [164.00320303372044, 6.0], [164.93848884661162, 5.845998036532998], [170.08226007573143, 5.0], [176.43546680484596, 4.0], [176.77669529663677, 3.9467935863400663], [184.53650082218306, 3.0], [189.46457081379947, 2.4197066692552136], [195.2792692676854, 2.0], [203.0630990890585, 1.4490703821845612], [215.46389037768515, 1.0], [217.6376408240306, 0.9220316698290428], [233.25824788420132, 0.4796456903987324], [243.90140321295428, 0.0], [249.99999999999937, -0.269556941092402], [259.9226428865762, -1.0], [267.94336563407256, -1.5720097805233637], [272.4831912646619, -2.0], [283.30269689073884, -2.9999999999999996], [287.1745887492579, -3.3502386769141808], [294.19578267808873, -4.0], [305.27086023053704, -5.0], [307.78610333622805, -5.224515922746252], [319.57741183264125, -6.0], [329.87697769322244, -6.663009816158679], [344.86836405610563, -7.0], [353.55339059327247, -7.195688138407599], [362.16711673245896, -7.0], [378.929141627598, -6.6419199843672585], [390.7637714228789, -6.0], [406.12619817811606, -5.204954072333137], [409.3522062452677, -5.0], [425.7973221815263, -4.0], [435.2752816480607, -3.4518815009084993], [445.08276214539205, -3.0], [466.5164957684015, -2.0726827367742775], [471.20258790049206, -2.0], [499.9999999999975, -1.5907855937665905], [534.3649630953141, -2.0], [535.8867312681438, -2.0179454514504305], [574.3491774985143, -2.869274403603254], [585.6597506355353, -3.0], [615.5722066724546, -3.3433250877672727], [639.2458647728423, -3.0], [659.7539553864432, -2.721804981961435], [676.3555150054613, -2.0], [699.7239293169235, -1.0], [707.1067811865431, -0.693689715085386], [718.1410893347207, 0.0], [733.8846347222667, 1.0], [749.5204263067369, 2.0], [757.8582832551941, 2.5238061211592453], [764.9662943833288, 3.0], [779.6613262976202, 4.0], [793.9707540233495, 5.0], [808.1494060216615, 6.0], [812.2523963562301, 6.283643217136147], [824.7078791739928, 7.0], [841.6272768812347, 8.0], [858.1251426140988, 9.0], [870.5505632961181, 9.754468731933812], [876.950308082776, 10.0], [902.9611247148177, 11.0], [928.4620264828967, 12.0], [933.0329915368008, 12.1770870681377], [997.6963848179569, 13.0], [999.9999999999926, 13.028325930436344], [1002.2058018218052, 13.0], [1071.773462536285, 12.134949379735051], [1075.8455668054094, 12.0], [1106.532724766722, 11.0], [1139.556015436848, 10.0], [1148.698354997026, 9.73378359598987], [1165.5869605210912, 9.0], [1189.4504186166475, 8.0], [1214.9586020103684, 7.0], [1231.1444133449063, 6.4005444417150645], [1240.5705066107719, 6.0], [1264.4345270267158, 5.0], [1289.6432023722996, 4.0], [1316.7770765513956, 3.0], [1319.5079107728832, 2.9018005990143223], [1347.1285380095806, 2.0], [1379.2249424663423, 1.0], [1413.6435746386792, 0.0], [1414.2135623730828, -0.016291890588187485], [1468.0194431182715, -1.0], [1515.7165665103846, -1.820058442986477], [1553.5739176240586, -2.0], [1624.5047927124563, -2.334324590355813], [1695.0151505016686, -2.0], [1741.1011265922318, -1.794914443414972], [1834.7394592260202, -1.0], [1866.065983073597, -0.7448534554278132], [1968.706763940691, 0.0], [1999.9999999999802, 0.21909398893996712], [2143.5469250725646, 0.6954918645855985], [2297.3967099940432, 0.6272674289899649], [2462.2888266898062, 0.2177292497932255], [2538.558338256917, 0.0], [2639.01582154576, -0.2847578430471503], [2828.427124746159, -0.7582541107653576], [2920.2490980434786, -1.0], [3031.433133020758, -1.2858815321990054], [3228.7716261106343, -2.0], [3249.0095854249043, -2.0711701250168977], [3419.236599656133, -3.0], [3482.2022531844555, -3.329557445991111], [3571.6937439676353, -4.0], [3711.8205515047885, -5.0], [3732.1319661471844, -5.14158565225034], [3828.3977323670297, -6.0], [3946.096655711917, -7.0], [3999.9999999999504, -7.4417384279672945], [4061.3489832581286, -8.0], [4174.202688610054, -9.0], [4287.093850145118, -9.944275942582129], [4294.413556119157, -10.0], [4426.180363197035, -11.0], [4565.458540248666, -12.0], [4594.793419988081, -12.20610917381451], [4770.846209914675, -13.0], [4924.577653379601, -13.66693594992281], [5278.031643091506, -13.84642440161825], [5518.057778737225, -13.0], [5656.854249492303, -12.524788578348838], [5735.234398469319, -12.0], [5885.071544854291, -11.0], [6035.159425677389, -10.0], [6062.866266041501, -9.819859544201622], [6163.081745575541, -9.0], [6283.634266234751, -8.0], [6403.423029336892, -7.0], [6498.019170849792, -6.220048074197421], [6525.830630393718, -6.000000000000001], [6652.098483780105, -5.0], [6775.775542786046, -4.0], [6898.810705553625, -3.0], [6964.404506368902, -2.476266182573654], [7045.693814110472, -2.0], [7214.113336163773, -1.0], [7378.84868658919, 0.0], [7464.2639322943505, 0.5163426846603627], [7653.1609841657555, 1.0], [7999.999999999882, 1.9254864612913838]], 'minus_line': [[125.0, 33.344439846044224], [130.69641337579483, 33.0], [133.9716828170366, 32.82804265880226], [142.1739732260863, 32.0], [143.5872943746293, 31.86856586577622], [149.80969015760834, 31.0], [153.89305166811442, 30.45016292962236], [156.84552772554935, 30.0], [163.49708299987853, 29.0], [164.93848884661162, 28.788328025649367], [170.97029934531952, 28.0], [176.77669529663666, 27.24799268103403], [179.45350057708478, 27.0], [189.46457081379947, 26.091960748212173], [191.13551129163122, 26.0], [203.0630990890585, 25.369773303687936], [214.2806677413233, 25.000000000000004], [217.6376408240306, 24.895167477620813], [233.25824788420132, 24.40715828399004], [242.22241090366276, 24.0], [249.99999999999937, 23.663452890611936], [260.9376767399603, 23.0], [267.94336563407256, 22.58765621055143], [276.6143250726464, 22.0], [287.1745887492579, 21.29466262472952], [292.07291517231874, 21.0], [307.78610333622805, 20.066295083838178], [309.52130029055945, 20.0], [329.87697769322244, 19.243929481905138], [353.55339059327247, 19.041408819219683], [378.929141627598, 19.465546868787705], [396.8935383363349, 20.0], [406.12619817811606, 20.26295372858513], [432.69604196065677, 21.0], [435.2752816480601, 21.06786349311239], [466.5164957684015, 21.556359188330113], [499.9999999999975, 21.545042931542735], [535.8867312681438, 21.062093513511545], [539.1805775246685, 21.0], [574.3491774985143, 20.36615795266458], [606.4069076955807, 20.0], [615.5722066724546, 19.90133868861959], [627.9467176201327, 20.0], [659.7539553864432, 20.249429720743713], [680.9199232259965, 21.0], [707.1067811865431, 21.867408572517668], [709.2204758172029, 22.0], [725.1953658859369, 23.0], [742.0204455025889, 24.0], [757.8582832551941, 24.88237161351488], [759.3879497085796, 25.0], [772.2171331440426, 26.0], [785.3811439255871, 27.0], [799.165898327699, 28.0], [812.2523963562301, 28.895852923439016], [813.6847456853958, 29.0], [827.2000212303863, 30.0], [840.9705858756595, 31.0], [855.2644580207722, 32.0], [870.352995328118, 33.0], [870.5505632961181, 33.012990994233895], [889.6117865182334, 34.0], [909.441047276699, 35.0], [930.1426510215697, 36.0], [933.0329915368008, 36.13828837828743], [978.9742581524741, 37.0], [999.9999999999926, 37.386714265950346], [1028.2556159799665, 37.0], [1071.773462536285, 36.428210889710236], [1083.2856295133533, 36.0], [1110.3154432364647, 35.0], [1137.3330607415166, 34.0], [1148.698354997026, 33.588380635170665], [1161.3018247841649, 33.0], [1182.5257441558213, 32.0], [1203.4956717999562, 30.999999999999996], [1224.5429321446031, 29.999999999999996], [1231.1444133449063, 29.694758309289533], [1247.0291707115189, 29.0], [1269.5519076356306, 28.0], [1291.7899773235408, 27.0], [1314.1305311084823, 26.0], [1319.5079107728832, 25.766190776644358], [1343.0315528217038, 25.0], [1373.4156595386519, 24.0], [1403.735481302439, 22.999999999999996], [1414.2135623730828, 22.66249114489164], [1450.6598538689254, 22.0], [1506.327753982656, 21.0], [1515.7165665103846, 20.835934272696985], [1624.5047927124563, 20.3058089262093], [1741.1011265922318, 20.757783020743666], [1770.5887478334143, 21.0], [1866.065983073597, 21.761222272857097], [1893.5540444821636, 22.0], [1999.9999999999802, 22.90170906110601], [2014.719194087514, 23.0], [2143.5469250725646, 23.85492906640009], [2185.532335105535, 24.0], [2297.396709994046, 24.39189396849413], [2462.2888266898062, 24.41823320711108], [2637.5612905176245, 24.0], [2639.0158215457564, 23.9967235542842], [2828.427124746159, 23.304367769523374], [2899.4081675005477, 23.0], [3031.4331330207615, 22.465749025856603], [3133.006402427064, 22.0], [3249.0095854249043, 21.492516773473756], [3340.292719790679, 21.0], [3482.2022531844555, 20.25521833509643], [3520.533688866771, 20.0], [3672.5513697195584, 19.0], [3732.1319661471844, 18.613390089710528], [3812.928688915966, 18.0], [3943.98346737848, 17.0], [3999.999999999946, 16.57608700905745], [4076.362855729768, 16.0], [4207.871501398218, 15.0], [4287.093850145118, 14.397934987973539], [4352.3251936149445, 14.0], [4516.095446326061, 13.0], [4594.793419988081, 12.5209822741007], [4750.026002002817, 12.0], [4924.577653379601, 11.424804756815274], [5278.031643091506, 11.467507901394253], [5429.450144134757, 12.0], [5656.854249492303, 12.7688460123163], [5693.757694323172, 12.999999999999998], [5856.680501434161, 14.0], [6031.451467503208, 15.0], [6062.866266041508, 15.174436083017289], [6170.057072528554, 16.0], [6306.19773754304, 17.0], [6452.565131780837, 18.0], [6498.019170849792, 18.29865294270723], [6588.111602988809, 19.0], [6721.247868332563, 20.0], [6863.450702287131, 21.0], [6964.4045063688845, 21.668823721585856], [7012.662889681583, 22.0], [7159.574246731005, 23.0], [7313.709186739289, 24.0], [7464.26393229436, 24.91972349188889], [7478.710601209026, 25.0], [7655.505582456015, 26.0], [7834.969935684179, 27.0], [7999.999999999872, 27.89449856720484]]}",,,ikieoz,001,fr,1,2022-04-25_17h04.55.564,Continuous,2022.1.1,33.435914719753846,
8,0,8,0,5,0,5,0,,,,,,,,2.8615437485604946,none,250.0,6.402942243787592,0.00035003954973499826,0,72,"['frequency', 'none']",0.01140913333347271,0.20757453333317244,['space'],298.1027310999998,298.1027310999998,0.20757453333317244,3.069118281893667,298.31682159999946,298.1027310999998,[-2.0463331000000835],,,,,,,,ikieoz,001,fr,1,2022-04-25_17h04.55.564,Continuous,2022.1.1,33.435914719753846,
8,0,8,0,6,0,6,0,,,,,,,,2.315033253842339,none,157.0,7.82579581186094,0.0010779412248644088,0,73,"['frequency', 'none']",0.0053040666671222425,None,None,301.18233989999953,301.18233989999953,0.22301246666665975,2.5380457205089986,301.4027196999996,301.18233989999953,,,,,,,,,ikieoz,001,fr,1,2022-04-25_17h04.55.564,Continuous,2022.1.1,33.435914719753846,
8,0,8,0,7,0,7,0,,,,,,,,2.6371054126576583,none,,,,1,73,"['frequency', 'none']",0.005639266665639298,None,None,303.7114925999995,303.7114925999995,0.2156188666658636,2.852724279323522,303.9293502999999,303.7114925999995,,,,,,,,,ikieoz,001,fr,1,2022-04-25_17h04.55.564,Continuous,2022.1.1,33.435914719753846,
8,0,8,0,8,0,8,0,,,,,,,,2.3588340607370157,none,668.0,14.682609428059168,0.00025932953511756694,0,74,"['frequency', 'none']",0.0035683666665136116,None,None,306.55964289999974,306.55964289999974,0.2052978666670242,2.56413192740404,306.7744754999994,306.55964289999974,,,,,,,,,ikieoz,001,fr,1,2022-04-25_17h04.55.564,Continuous,2022.1.1,33.435914719753846,
8,0,8,0,9,0,9,0,,,,,,,,2.5505312855845776,none,2380.0,5.650418025998257,0.0001595249780509915,0,75,"['frequency', 'none']",0.013910633332670841,None,None,309.13679520000005,309.13679520000005,0.21689053333284392,2.7674218189174216,309.35977379999986,309.13679520000005,,,,,,,,,ikieoz,001,fr,1,2022-04-25_17h04.55.564,Continuous,2022.1.1,33.435914719753846,
8,0,8,0,10,0,10,0,,,,,,,,1.158120897137128,none,125.0,5.208638865315033,0.0013164426606542352,0,76,"['frequency', 'none']",0.002102366665894806,None,None,311.91446039999937,311.91446039999937,0.21150406666583876,1.3696249638029667,312.13178329999937,311.91446039999937,,,,,,,,,ikieoz,001,fr,1,2022-04-25_17h04.55.564,Continuous,2022.1.1,33.435914719753846,
8,0,8,0,11,0,11,0,,,,,,,,1.577041883594785,none,1889.0,10.256664852147871,0.0002273460154815609,0,77,"['frequency', 'none']",0.002099166666084784,None,None,313.28347679999933,313.28347679999933,0.20786936666627298,1.784911250261058,313.5035484,313.28347679999933,,,,,,,,,ikieoz,001,fr,1,2022-04-25_17h04.55.564,Continuous,2022.1.1,33.435914719753846,
9,0,9,0,0,0,0,0,,,,,,323.9982393,None,2.312480308562241,both,792.0,15.06398168698311,0.000219415378896924,0,71,"['frequency', 'none', 'both']",0.012483366666856455,None,['space'],325.0282669999997,None,0.21001336666722636,2.5224936752294673,325.23939169999994,None,[-1.1633952000001955],315.08306919999995,None,0.3333333333333333,,,"{'estimation': [[124.99999999999991, 16.351680630454126], [130.36030238863222, 17.0], [133.9716828170366, 17.40490697751424], [137.90039648509855, 18.0], [143.5872943746293, 18.835497064714655], [144.58662100196918, 19.0], [150.74590171609367, 20.0], [153.89305166811442, 20.5001845865524], [157.24287040460365, 21.0], [164.14349757179102, 22.0], [164.93848884661162, 22.112531416109938], [173.43346901060957, 23.0], [176.77669529663666, 23.334557953700205], [189.46457081379958, 23.897660721260102], [203.0630990890585, 23.710312107937327], [215.76665610400752, 23.000000000000004], [217.6376408240306, 22.90004333267279], [230.0352803898075, 22.0], [233.25824788420132, 21.775704219805707], [245.36725609586233, 21.0], [249.99999999999937, 20.71378045489581], [267.94336563407256, 20.019005469798525], [269.6834997045317, 20.0], [287.1745887492579, 19.812983002955985], [307.7443900058695, 20.0], [307.78610333622805, 20.000372390478134], [329.87697769322244, 20.32282158296767], [353.55339059327247, 20.480425858996046], [378.929141627598, 20.26460385663112], [390.2381193992159, 20.0], [406.12619817811606, 19.64408355832827], [427.3450031371001, 19.0], [435.2752816480601, 18.769887983137735], [462.59166027973083, 18.0], [466.5164957684015, 17.89409987168527], [499.9999999999975, 17.243544129695973], [525.468203672691, 17.0], [535.8867312681438, 16.90403884417643], [574.3491774985143, 16.768424435556888], [615.5722066724546, 16.572072864525637], [659.7539553864432, 16.00171626605559], [659.8204440362231, 16.0], [699.990207299767, 15.000000000000002], [707.1067811865431, 14.830297323894824], [729.9662259617357, 14.0], [757.8582832551941, 13.024385344330774], [758.4330455263048, 13.0], [782.1963057279604, 12.0], [806.5453222525033, 11.0], [812.2523963562301, 10.769764448433932], [831.1267022911865, 10.0], [855.9178326327667, 9.0], [870.5505632961181, 8.41902836409529], [883.2057062211629, 8.0], [913.5974688213731, 7.0], [933.0329915368008, 6.368996899347214], [950.0053496142052, 6.0], [996.7116356732658, 5.0], [999.9999999999926, 4.930431899668101], [1071.773462536285, 4.232798356207141], [1148.698354997026, 4.206687051539191], [1231.1444133449063, 4.633829704831763], [1282.276504325566, 5.0], [1319.5079107728832, 5.25055827766046], [1414.213562373081, 5.845370726599027], [1446.0722249697433, 6.000000000000001], [1515.7165665103846, 6.323384041855089], [1624.5047927124563, 6.7066109433864955], [1714.2698134296352, 7.0], [1741.1011265922318, 7.084796325752343], [1866.065983073597, 7.544635127857388], [1969.3157519738165, 8.0], [1999.9999999999802, 8.130263453748984], [2143.5469250725646, 8.831302799841211], [2175.159645234112, 9.0], [2297.396709994046, 9.627264162858978], [2364.002498507643, 10.0], [2462.2888266898062, 10.529353353482822], [2538.701394335428, 11.0], [2639.01582154576, 11.595757438275381], [2696.660594582854, 12.0], [2828.427124746159, 12.894535324477992], [2842.063319641331, 13.0], [2974.0846351587234, 14.0], [3031.4331330207615, 14.42233814535441], [3108.285708725277, 15.0], [3245.225579322203, 16.0], [3249.0095854249043, 16.027075829298234], [3414.51209993468, 17.0], [3482.2022531844555, 17.384636015881455], [3706.3059633526536, 18.0], [3732.1319661471844, 18.068497580178562], [3780.7534393152105, 18.0], [3999.9999999999504, 17.702097528278493], [4126.734503226099, 17.0], [4287.093850145118, 16.136045710026725], [4303.106674367958, 16.0], [4421.667048812701, 15.0], [4542.336434450825, 14.0], [4594.793419988076, 13.573360771907744], [4656.658539894233, 13.0], [4765.505151286483, 12.0], [4876.521854791107, 11.0], [4924.577653379601, 10.575564620739081], [4999.519337195301, 10.0], [5131.886629976123, 9.0], [5268.27619879928, 8.0], [5278.031643091506, 7.929745512412495], [5507.137796160072, 7.0], [5656.854249492303, 6.416817987474497], [6062.866266041508, 6.566502962020024], [6158.374686097692, 7.0], [6384.668056070506, 8.0], [6498.019170849792, 8.48505432277165], [6568.3633831829375, 9.0], [6706.088273419555, 10.0], [6846.418697050766, 11.0], [6964.404506368902, 11.819100342848099], [6986.566376728173, 12.0], [7108.774607902366, 13.000000000000002], [7231.228179388061, 14.0], [7355.16931873416, 15.0], [7464.2639322943505, 15.862532883186823], [7483.621810709908, 16.0], [7622.703730779482, 17.0], [7759.752419801563, 18.0], [7896.08047007872, 19.0], [7999.999999999882, 19.760084580019033]], 'plus_line': [[125.0, 2.0998070773187356], [130.10253888664772, 3.0], [133.9716828170366, 3.6530346942248935], [136.4152423038807, 4.0], [143.54446099216196, 5.0], [143.5872943746293, 5.005885635574608], [150.3851321239804, 6.0], [153.89305166811442, 6.510311703694119], [157.17160306053106, 7.0], [163.9720865786544, 8.0], [164.93848884661162, 8.13877065017125], [172.17310775080168, 9.0], [176.77669529663666, 9.52851821801483], [184.23903716284633, 10.0], [189.46457081379947, 10.310250646029465], [203.0630990890585, 10.304961999301641], [209.39707290252193, 10.0], [217.6376408240306, 9.614681376870415], [226.43798952185892, 9.0], [233.25824788420132, 8.541097203300781], [241.36521005725632, 8.0], [249.99999999999937, 7.441406648522004], [259.42595346234, 7.0], [267.94336563407256, 6.606482646756977], [287.1745887492579, 6.186449940752805], [307.78610333622805, 6.149769138611656], [329.87697769322244, 6.308996842389897], [353.55339059327247, 6.404936439309438], [378.929141627598, 6.222330907666245], [390.1473352869415, 6.0], [406.12619817811606, 5.689508044358631], [432.207974860098, 5.0], [435.2752816480601, 4.921187452237222], [466.5164957684015, 4.132387275602686], [473.9318470642648, 4.0], [499.9999999999975, 3.5440621029150936], [535.8867312681438, 3.263217251525968], [574.3491774985143, 3.203568007603475], [615.5722066724546, 3.1154485964760514], [626.6162247696248, 3.0], [659.7539553864432, 2.6605237237600443], [687.6606445042814, 2.0], [707.1067811865431, 1.5584865736723512], [721.7852380141284, 1.0], [749.2356306144776, 0.0], [757.8582832551941, -0.3037359647404009], [772.5159877192235, -1.0], [794.2722812206478, -2.0], [812.2523963562301, -2.7888067288991145], [816.6097465109028, -3.0], [837.2968263322274, -4.0], [858.8624183115577, -5.0], [870.5505632961181, -5.526533000482491], [882.1141240532227, -6.0], [906.8856434599875, -7.0], [932.7772300984467, -8.0], [933.0329915367996, -8.009837868936177], [969.3477049494019, -9.0], [999.9999999999926, -9.80236769389892], [1016.6720399743839, -10.0], [1071.773462536285, -10.642286338158033], [1148.698354997026, -10.555583721086276], [1209.883267256775, -10.0], [1231.1444133449063, -9.81937951648952], [1305.0712669436955, -9.0], [1319.5079107728832, -8.849406050333554], [1414.2135623730828, -8.007227077570388], [1415.4860068863197, -8.0], [1515.7165665103846, -7.46414778877795], [1624.5047927124563, -7.1264819477615164], [1669.2050459441332, -7.0], [1741.101126592234, -6.808777787441943], [1866.065983073597, -6.349501537393825], [1936.5974135330935, -6.0], [1999.9999999999802, -5.703427924916808], [2126.3465500657185, -5.0], [2143.5469250725646, -4.909252717408576], [2297.396709994046, -4.0096003732599215], [2298.8901944884983, -4.0], [2461.9795263965843, -3.0], [2462.2888266898062, -2.998190134025146], [2612.8329633808726, -2.0], [2639.01582154576, -1.8332642195702957], [2753.0349055280444, -1.0], [2828.427124746159, -0.4655373756369806], [2887.365813369496, 0.0], [3016.709471340238, 1.0], [3031.4331330207615, 1.1106036107657573], [3147.0878063974305, 2.0], [3249.0095854249084, 2.768767015645255], [3285.0309377500234, 3.0], [3445.787548048597, 4.0], [3482.202253184451, 4.21900553207546], [3731.0542380035085, 5.0], [3732.1319661471844, 5.003197812593527], [3734.54611355016, 5.0], [3999.9999999999504, 4.652686023507397], [4108.651092736605, 4.0], [4283.443768101096, 3.0], [4287.093850145124, 2.979477961092997], [4391.145680891997, 2.0], [4501.967851037356, 1.0], [4594.793419988081, 0.2005442437071514], [4614.441579945289, 0.0], [4712.673909055037, -1.0], [4815.042931468035, -2.0], [4923.149677166889, -3.0], [4924.577653379601, -3.0130762725751206], [5044.35935428717, -4.0], [5171.619758346847, -5.0], [5278.031643091506, -5.796022325296788], [5326.869001104463, -6.0], [5573.417052728052, -7.0], [5656.85424949231, -7.325471190895465], [6062.866266041508, -7.080554501722056], [6079.1923559209, -6.999999999999999], [6286.284326388699, -6.0], [6495.3488745193645, -5.0], [6498.019170849792, -4.9875916887058], [6630.526114078461, -4.0], [6762.557269873252, -3.0], [6893.932374903129, -2.0], [6964.404506368894, -1.4713326052220326], [7024.274505507293, -1.0], [7149.789754326465, 0.0], [7272.462184340987, 1.0], [7393.833912492783, 2.0], [7464.2639322943505, 2.574730853628071], [7535.356934626366, 3.0], [7699.253907390005, 4.0], [7857.290347247186, 5.0], [7999.999999999892, 5.92356699245274]], 'minus_line': [[125.0, 30.867584471379683], [127.84274812132581, 31.0], [133.9716828170366, 31.268276841363615], [138.66570480471268, 32.0], [143.58729437462938, 32.72746176545348], [145.0494178839606, 33.0], [150.52795293551117, 34.0], [153.89305166811442, 34.58889252401511], [156.47605797177965, 35.0], [162.98366582108676, 36.0], [164.93848884661162, 36.29084615654507], [171.99755152535386, 37.0], [176.77669529663666, 37.4608263029058], [189.46457081379947, 37.885542447079345], [203.0630990890585, 37.53288654215781], [210.7239254360473, 37.0], [217.6376408240306, 36.54262477828911], [224.07540866544798, 36.0], [233.25824788420132, 35.255091090680885], [236.85828351956093, 35.0], [249.99999999999937, 34.104676226658036], [252.76221179598193, 34.0], [267.94336563407256, 33.453115938849834], [287.1745887492579, 33.408662389260996], [307.78610333622805, 33.80752007781426], [316.36501181661794, 34.0], [329.87697769322244, 34.30258828625949], [353.55339059327247, 34.522361106022004], [378.929141627598, 34.24033065166752], [386.98944184434276, 34.0], [406.12619817811606, 33.46143292444414], [418.3291709420861, 33.0], [435.2752816480601, 32.39024549323032], [446.5121324306346, 32.0], [466.5164957684015, 31.338419212584498], [480.77779112783855, 31.0], [499.9999999999975, 30.568306433721936], [535.8867312681438, 30.159884834414136], [568.2342229622639, 30.0], [574.3491774985143, 29.97182236564941], [615.5722066724546, 29.70104760316977], [659.7539553864432, 29.002762105536124], [659.849875847329, 29.0], [695.8380802793783, 28.000000000000004], [707.1067811865431, 27.697955187911283], [725.6685757342706, 27.0], [752.5601086626197, 26.0], [757.8582832551941, 25.807806385657212], [777.7114276763914, 25.0], [802.1869025644119, 24.0], [812.2523963562301, 23.593987123086144], [828.229265447257, 23.0], [854.9634715027702, 22.0], [870.5505632961181, 21.417882265936424], [885.0681040738498, 21.0], [919.7755444744354, 20.0], [933.0329915368008, 19.61966040458642], [966.8514609719309, 19.0], [999.9999999999926, 18.40110731056146], [1045.6415145495773, 18.0], [1071.773462536285, 17.780276818844165], [1148.6983549970273, 17.63497337020934], [1231.1444133449063, 17.778142366761784], [1298.798718568782, 18.0], [1319.5079107728832, 18.065711198492338], [1414.2135623730828, 18.43116830787099], [1515.7165665103828, 18.833912743089105], [1557.531718599229, 19.0], [1624.5047927124563, 19.263539688581957], [1741.1011265922318, 19.71465259925136], [1811.1214903179646, 20.0], [1866.065983073597, 20.221695486831543], [1999.9999999999802, 20.828261133953408], [2033.5951915343182, 21.0], [2143.5469250725646, 21.551680474879042], [2226.9230943735392, 22.0], [2297.396709994046, 22.371147110551973], [2408.424338037502, 23.0], [2462.2888266898062, 23.297742988352574], [2572.628646031398, 24.0], [2639.01582154576, 24.410047031127597], [2717.4280927643376, 25.0], [2828.427124746159, 25.805274838770917], [2851.3051004986355, 26.0], [2970.7127069416274, 27.0], [3031.4331330207615, 27.49094721823507], [3092.3975579891853, 28.0], [3215.911454745011, 29.0], [3249.0095854249043, 29.261859862045757], [3363.2236887971867, 30.0], [3482.2022531844555, 30.74043350841452], [3568.4663204713484, 31.0], [3732.1319661471844, 31.485787255501332], [3999.9999999999504, 31.14803395431345], [4027.148975348947, 31.0], [4214.0388315573055, 30.0], [4287.093850145118, 29.615489149822217], [4361.651162014105, 29.0], [4482.239503206277, 28.0], [4594.793419988081, 27.062142754092616], [4601.532916593044, 27.0], [4710.9290317082305, 26.0], [4818.682492059181, 25.0], [4924.577653379601, 24.014383414825865], [4926.396413484736, 24.0], [5054.613826772567, 23.0], [5181.960096262978, 22.0], [5278.031643091506, 21.252639141359623], [5334.368962631677, 21.0], [5563.3177340284265, 20.0], [5656.854249492303, 19.603139231238238], [6062.866266041516, 19.6704264240477], [6134.075559709626, 20.0], [6356.237261874441, 21.0], [6498.019170849792, 21.607826454071414], [6547.790979036827, 22.0], [6675.850748990613, 23.0], [6809.435791616025, 24.0], [6950.708302801385, 25.0], [6964.404506368894, 25.09546521379103], [7060.321833574428, 26.0], [7168.0683220563915, 27.0], [7279.35857068007, 28.0], [7395.777437394052, 29.0], [7464.2639322943505, 29.568775113399578], [7510.740280287169, 30.0], [7617.169779603516, 31.0], [7724.634708284672, 32.0], [7834.490216660312, 33.0], [7948.068322835731, 34.0], [7999.999999999882, 34.448735393989004]]}",,ikieoz,001,fr,1,2022-04-25_17h04.55.564,Continuous,2022.1.1,33.435914719753846,
9,0,9,0,1,0,1,0,,,,,,,,2.312480308562241,both,629.0,17.0,0.00036332237809205253,0,72,"['frequency', 'none', 'both']",0.0031534666668449063,None,None,327.55964219999987,327.55964219999987,0.20938936666698282,2.521869675229224,327.7759744999994,327.55964219999987,,,,,,,,,ikieoz,001,fr,1,2022-04-25_17h04.55.564,Continuous,2022.1.1,33.435914719753846,
9,0,9,0,2,0,2,0,,,,,,,,2.312480308562241,both,499.0,18.810839928100062,0.0006234799531779586,0,73,"['frequency', 'none', 'both']",0.013971733334074088,None,None,330.09120689999963,330.09120689999963,0.2178103333335457,2.5302906418957867,330.31947539999965,330.09120689999963,,,,,,,,,ikieoz,001,fr,1,2022-04-25_17h04.55.564,Continuous,2022.1.1,33.435914719753846,
9,0,9,0,3,0,3,0,,,,,,,,2.312480308562241,both,396.0,23.833617725357172,0.001206430646267681,0,74,"['frequency', 'none', 'both']",0.004581566666274739,None,['space'],332.63402419999966,332.63402419999966,0.21795636666593055,2.5304366752281715,332.8468981999995,332.63402419999966,[-1.7775658999998996],,,,,,,,ikieoz,001,fr,1,2022-04-25_17h04.55.564,Continuous,2022.1.1,33.435914719753846,
9,0,9,0,4,0,4,0,,,,,,,,2.312480308562241,both,314.0,23.71041232965529,0.0015280269839292083,0,75,"['frequency', 'none', 'both']",0.0004095666663488373,0.1943971666660218,['space'],335.1565974999994,335.1565974999994,0.1943971666660218,2.5068774752282628,335.3740839000002,335.1565974999994,[-1.932469299999866],,,,,,,,ikieoz,001,fr,1,2022-04-25_17h04.55.564,Continuous,2022.1.1,33.435914719753846,
9,0,9,0,5,0,5,0,,,,,,,,2.312480308562241,both,249.0,17.298370705937636,0.0012414789854455004,0,76,"['frequency', 'none', 'both']",0.015906633334452636,None,['space'],337.69248809999954,337.69248809999954,0.22277963333453954,2.5352599418967805,337.9101247999997,337.69248809999954,[-1.7323694000006071],,,,,,,,ikieoz,001,fr,1,2022-04-25_17h04.55.564,Continuous,2022.1.1,33.435914719753846,
9,0,9,0,6,0,6,0,,,,,,,,2.312480308562241,both,198.0,15.13216680768095,0.0015571669070355524,0,77,"['frequency', 'none', 'both']",0.016391433333410532,None,['space'],340.22865959999945,340.22865959999945,0.2223808333328634,2.5348611418951044,340.45198249999976,340.22865959999945,[-1.883896399999685],,,,,,,,ikieoz,001,fr,1,2022-04-25_17h04.55.564,Continuous,2022.1.1,33.435914719753846,
9,0,9,0,7,0,7,0,,,,,,,,2.312480308562241,both,157.0,15.630074964339954,0.0026473358389649516,0,78,"['frequency', 'none', 'both']",0.01596043333211128,None,['space'],342.76496169999973,342.76496169999973,0.21971333333203802,2.532193641894279,342.9851447000001,342.76496169999973,[-1.7483204999998634],,,,,,,,ikieoz,001,fr,1,2022-04-25_17h04.55.564,Continuous,2022.1.1,33.435914719753846,
9,0,9,0,8,0,8,0,,,,,,,,2.312480308562241,both,125.0,17.0,0.005116464961403773,0,79,"['frequency', 'none', 'both']",0.014707133334013633,None,['space'],345.3062640999997,345.3062640999997,0.21729673333356914,2.52977704189581,345.5293922000001,345.3062640999997,[-1.778283999999985],,,,,,,,ikieoz,001,fr,1,2022-04-25_17h04.55.564,Continuous,2022.1.1,33.435914719753846,
9,0,9,0,9,0,9,0,,,,,,,,2.312480308562241,both,,,,1,79,"['frequency', 'none', 'both']",0.0035660666653711814,0.189876666665441,['space'],347.8505218999999,347.8505218999999,0.189876666665441,2.502356975227682,348.0524390999999,347.8505218999999,[-1.7613361000003351],,,,,,,,ikieoz,001,fr,1,2022-04-25_17h04.55.564,Continuous,2022.1.1,33.435914719753846,
10,0,10,0,0,0,0,0,,,,,"[0.3333333333333333, 0.16666666666666666, 0.16666666666666666, 0.3333333333333333, 0.5833333333333334, 0.16666666666666666, 0.5833333333333334, 0.5833333333333334, 0.3333333333333333, 0.5833333333333334, 0.16666666666666666, 0.16666666666666666, 0.5833333333333334, 0.16666666666666666, 0.16666666666666666]",358.1045379999996,None,2.324186993647133,time,499.0,22.738345810056067,0.0009799361704454072,0,62,"['frequency', 'none', 'both']",0.012543166667455807,None,None,359.1481755999994,None,0.22192086666746036,2.5461078603145935,359.3677054,None,,350.37231059999976,None,,,,,,ikieoz,001,fr,1,2022-04-25_17h04.55.564,Continuous,2022.1.1,33.435914719753846,
10,0,10,0,1,0,1,0,,,,,,,,2.324186993647133,time,297.0,25.936663640570863,0.0023311734234009148,0,63,"['frequency', 'none', 'both']",0.013372233333029726,None,['space'],361.6923716000001,361.6923716000001,0.21438343333284138,2.5385704269799745,361.90489230000003,361.6923716000001,[-1.6993290000000343],,,,,,,,ikieoz,001,fr,1,2022-04-25_17h04.55.564,Continuous,2022.1.1,33.435914719753846,
10,0,10,0,2,0,2,0,,,,,,,,2.324186993647133,time,177.0,28.0,0.008771700991302332,0,64,"['frequency', 'none', 'both']",0.00017956666579266312,None,['space'],364.2382263999998,364.2382263999998,0.20622166666544217,2.5304086603125753,364.45490489999975,364.2382263999998,[-1.8295077000002493],,,,,,,,ikieoz,001,fr,1,2022-04-25_17h04.55.564,Continuous,2022.1.1,33.435914719753846,
10,0,10,0,3,0,3,0,,,,,,,,2.324186993647133,time,560.0,27.647894338033737,0.0014975424202718864,0,65,"['frequency', 'none', 'both']",0.0006057666669221362,None,['space'],366.7873800999996,366.7873800999996,0.2123917666667694,2.5365787603139025,367.01307110000016,366.7873800999996,[-1.883278899999823],,,,,,,,ikieoz,001,fr,1,2022-04-25_17h04.55.564,Continuous,2022.1.1,33.435914719753846,
10,0,10,0,4,0,4,0,,,,,,,,2.324186993647133,time,629.0,18.163541758673084,0.0004154026245254714,0,66,"['frequency', 'none', 'both']",0.002071366666314134,None,['space'],369.34014819999993,369.34014819999993,0.21546146666696586,2.539648460314099,369.55471639999996,369.34014819999993,[-1.9077839000001404],,,,,,,,ikieoz,001,fr,1,2022-04-25_17h04.55.564,Continuous,2022.1.1,33.435914719753846,
10,0,10,0,5,0,5,0,,,,,,,,2.324186993647133,time,333.0,27.712129047962172,0.0022829415942486777,0,67,"['frequency', 'none', 'both']",0.0037137666668058955,None,None,371.88934530000006,371.88934530000006,0.19509216666665452,2.5192791603137876,372.09855659999994,371.88934530000006,,,,,,,,,ikieoz,001,fr,1,2022-04-25_17h04.55.564,Continuous,2022.1.1,33.435914719753846,
10,0,10,0,6,0,6,0,,,,,,,,2.324186993647133,time,,,,1,67,"['frequency', 'none', 'both']",0.0017024666667566635,None,['space'],374.4285874999996,374.4285874999996,0.21236526666689315,2.5365522603140263,374.6510819999994,374.4285874999996,[-1.8443254000003435],,,,,,,,ikieoz,001,fr,1,2022-04-25_17h04.55.564,Continuous,2022.1.1,33.435914719753846,
10,0,10,0,7,0,7,0,,,,,,,,2.324186993647133,time,140.0,15.88507589899671,0.0036685974112901855,0,68,"['frequency', 'none', 'both']",0.003883666667206853,None,None,376.98301959999935,376.98301959999935,0.21896076666689623,2.5431477603140293,377.19674489999943,376.98301959999935,,,,,,,,,ikieoz,001,fr,1,2022-04-25_17h04.55.564,Continuous,2022.1.1,33.435914719753846,
11,0,11,0,0,0,0,0,,,,,"[0.5833333333333334, 0.16666666666666666, 0.16666666666666666, 0.5833333333333334, 0.3333333333333333, 0.5833333333333334, 0.3333333333333333, 0.5833333333333334, 0.5833333333333334, 0.16666666666666666, 0.3333333333333333, 0.3333333333333333, 0.16666666666666666, 0.3333333333333333, 0.16666666666666666]",386.5063180999996,None,1.9839150380727126,time,249.0,17.77106808544766,0.0013109141208727019,0,69,"['frequency', 'none', 'both']",0.010306666666110686,None,None,387.5299838000001,None,0.22314616666608345,2.207061204738796,387.74342869999964,None,,379.5269174999994,None,,,,,,ikieoz,001,fr,1,2022-04-25_17h04.55.564,Continuous,2022.1.1,33.435914719753846,
11,0,11,0,1,0,1,0,,,,,,,,1.9839150380727126,time,140.0,14.883856787072855,0.00326918200474301,0,70,"['frequency', 'none', 'both']",0.0011842666663142154,None,['space'],389.7279853,389.7279853,0.21051246666684165,2.1944275047395543,389.94238459999997,389.7279853,[-0.7919225000005099],,,,,,,,ikieoz,001,fr,1,2022-04-25_17h04.55.564,Continuous,2022.1.1,33.435914719753846,
11,0,11,0,2,0,2,0,,,,,,,,1.9839150380727126,time,352.0,21.01082954642125,0.0010000175506993554,0,71,"['frequency', 'none', 'both', 'time']",0.015604533333316795,None,None,391.93390679999993,391.93390679999993,0.21819203333325277,2.2021070714059654,392.1535008999999,391.93390679999993,,,,,,,,"{'estimation': [[125.0, 13.704303689050725], [125.72875576238164, 14.000000000000002], [128.28173679789907, 15.0], [131.0406394697906, 16.0], [133.97168281703668, 16.960471554264846], [134.09090360320522, 17.0], [137.1397411401656, 18.0], [140.32760670058047, 19.0], [143.5872943746293, 19.953404646671768], [143.7847770544257, 20.0], [148.0391047705494, 21.0], [152.43546074669624, 22.0], [153.89305166811442, 22.321268522102102], [158.78742632773967, 23.0], [164.93848884661162, 23.83467636294605], [168.02219715399795, 24.0], [176.77669529663666, 24.461603069471188], [189.46457081379947, 24.363122711015425], [199.24055322603965, 24.0], [203.0630990890585, 23.86380025881185], [217.6376408240306, 23.371309220032646], [233.25824788420132, 23.26558151946031], [249.99999999999937, 23.801062889540166], [252.8012980011108, 24.0], [267.54473078032487, 25.0], [267.94336563407256, 25.025978146609106], [278.61457941138246, 26.0], [287.1745887492579, 26.750983699895166], [289.9283052179033, 27.0], [301.1004102975183, 28.0], [307.78610333622805, 28.582798450270136], [314.14154180100667, 29.0], [329.62154390621146, 30.0], [329.87697769322244, 30.016318668843606], [353.55339059327247, 30.576177697094955], [376.40649726764536, 30.0], [378.929141627598, 29.938239598940086], [392.23112008834283, 29.0], [406.12619817811606, 28.048222685318375], [406.5952873720826, 28.0], [416.3908684855012, 27.0], [426.34221388451186, 26.0], [435.2752816480601, 25.135384140261554], [436.4593322259725, 25.0], [445.21854864451427, 24.0], [454.0807224464272, 23.0], [463.28226336922035, 22.0], [466.5164957684015, 21.662156070104356], [472.71521091580536, 21.0], [482.1293293439118, 20.0], [491.83550731487406, 19.0], [499.9999999999975, 18.200748320858832], [502.35672832379186, 18.0], [514.206693143694, 17.0], [526.4804854701289, 16.0], [535.8867312681438, 15.273765260794072], [540.7665991538234, 15.0], [559.1297703747341, 14.0], [574.3491774985143, 13.2209543485602], [582.2702320091421, 13.0], [615.5722066724546, 12.124246852618397], [633.0124103980662, 12.0], [659.7539553864432, 11.818329297562915], [707.1067811865431, 11.978987208087704], [711.0292588110827, 12.000000000000002], [757.8582832551941, 12.245441685118685], [812.2523963562301, 12.341331768628097], [870.5505632961181, 12.14972339579803], [891.6954165991356, 12.0], [933.0329915368008, 11.717396295057087], [999.9999999999926, 11.200828559667169], [1033.5731367001774, 11.0], [1071.773462536285, 10.773911770686112], [1148.698354997026, 10.550587542493453], [1231.1444133449063, 10.531464597110567], [1319.5079107728816, 10.612599748714327], [1414.2135623730828, 10.635014796308395], [1515.7165665103846, 10.456659369510204], [1624.5047927124563, 10.01343452414976], [1626.7757609060418, 10.0], [1741.1011265922318, 9.35347291461995], [1799.4013138688003, 9.0], [1866.065983073597, 8.610070413568348], [1991.413803996925, 8.0], [1999.9999999999802, 7.959544492075465], [2143.5469250725646, 7.551723553811723], [2297.396709994046, 7.458599725873071], [2462.2888266898062, 7.662600633595904], [2604.118694853248, 8.0], [2639.01582154576, 8.080536261151522], [2828.427124746159, 8.610073737683777], [2965.94396369058, 9.0], [3031.4331330207615, 9.181708004114395], [3249.0095854249043, 9.782361632920242], [3324.198445918463, 10.0], [3482.2022531844555, 10.450683310229223], [3656.755974744771, 11.0], [3732.1319661471844, 11.233067073569718], [3957.464877214116, 12.0], [3999.9999999999504, 12.140984141773796], [4252.084872095976, 13.0], [4287.093850145118, 13.115069417710885], [4587.1431043159255, 14.0], [4594.793419988081, 14.02165060647195], [4924.577653379601, 14.688167291433555], [5278.031643091506, 14.947750852692192], [5656.854249492303, 14.707710588670931], [6044.595818006832, 14.0], [6062.866266041508, 13.967896566479926], [6435.060292702049, 13.0], [6498.019170849792, 12.841422786323038], [6791.04990450381, 12.0], [6964.404506368894, 11.515178026538772], [7160.402964370501, 11.0], [7464.2639322943505, 10.209381716342817], [7570.265006723027, 10.0], [7999.999999999882, 9.130217058325307]], 'plus_line': [[125.0, 4.44636833923892], [126.18308404546539, 5.0], [128.29072787906895, 6.0], [130.3873182662915, 7.0], [132.55153680324264, 8.0], [133.9716828170366, 8.614807479330615], [135.09585374942432, 9.0], [137.96904770953398, 10.0], [140.78718815855203, 11.0], [143.5872943746293, 11.970452574805204], [143.71891284883915, 12.000000000000002], [148.17751519394153, 13.0], [152.49056356118874, 14.0], [153.89305166811442, 14.31903533266534], [159.44514850989336, 15.0], [164.93848884661162, 15.677776814986329], [172.86221914613512, 16.0], [176.77669529663666, 16.152859655978986], [186.8876648107579, 16.0], [189.46457081379947, 15.959873830555777], [203.0630990890585, 15.432475789114841], [217.6376408240306, 15.002610324850929], [233.25824788420132, 15.023840923767622], [249.99999999999937, 15.716482070084453], [253.61539095497656, 16.0], [266.79867347800433, 17.0], [267.94336563407256, 17.083101900408266], [277.84063680715497, 18.0], [287.1745887492579, 18.86187410411179], [288.75455728060297, 19.0], [300.30597417440987, 20.0], [307.78610333622805, 20.646305390499087], [313.6352691564522, 21.0], [329.87697769322244, 21.97322519373268], [331.28808751061706, 22.0], [353.55339059327247, 22.399132135482454], [367.4907244671597, 22.0], [378.929141627598, 21.674523689561227], [388.14880809951893, 21.0], [402.5339514981597, 20.0], [406.12619817811606, 19.75939453252894], [413.3317699222946, 19.0], [423.174274954226, 18.0], [433.90036330600583, 17.0], [435.2752816480601, 16.87610169889009], [442.6852188817502, 16.0], [451.46423215224496, 15.0], [460.9894053408292, 14.0], [466.5164957684015, 13.459079080972405], [470.719440859594, 13.0], [479.98976537509236, 12.0], [489.9623659303994, 11.0], [499.9999999999975, 10.088921006879163], [501.05310663282205, 10.0], [512.9240370156749, 9.0], [525.8298959743877, 8.0], [535.8867312681438, 7.2873992548768065], [541.3983675636206, 7.0], [561.5311395300024, 6.0], [574.3491774985143, 5.419134901129922], [593.2998815158016, 5.0], [615.5722066724546, 4.5346616574071295], [659.7539553864432, 4.396148310551264], [707.1067811865431, 4.616595642119141], [757.8582832551941, 4.850492818467006], [812.2523963562301, 4.881586916276054], [870.5505632961181, 4.638945991071417], [933.0329915368008, 4.160412541567538], [949.8759189978849, 4.0], [999.9999999999926, 3.5182540119535757], [1058.5612830942507, 3.0], [1071.773462536285, 2.880595205036181], [1148.698354997026, 2.4149417622934903], [1231.1444133449063, 2.259583571050393], [1319.5079107728832, 2.372547696089665], [1414.2135623730828, 2.56659238814435], [1515.7165665103846, 2.5913222425698734], [1624.5047927124563, 2.280898164595931], [1675.5373425908876, 2.0], [1741.1011265922298, 1.6435048579040563], [1843.7425160994796, 1.0], [1866.065983073597, 0.8612363449529777], [1999.9999999999802, 0.1545596471485826], [2049.3070363545294, 0.0], [2143.5469250725646, -0.2985257728694293], [2297.396709994046, -0.4140783056210303], [2462.2888266898062, -0.21048120474928445], [2546.569784516284, 0.0], [2639.01582154576, 0.2140200959987919], [2828.427124746159, 0.7345792484873116], [2928.4491701280376, 1.0], [3031.4331330207615, 1.2565325418474154], [3249.0095854249043, 1.7585078776367578], [3347.9392217413615, 2.0], [3482.202253184451, 2.3108171291301747], [3724.407056558505, 3.0], [3732.1319661471844, 3.0210042299353934], [3999.999999999946, 3.9255941247766635], [4019.3898079237892, 4.0], [4287.093850145118, 4.978799617661622], [4293.047825065289, 5.0], [4589.959928383055, 6.0], [4594.793419988081, 6.01540016281483], [4924.577653379601, 6.814395153989489], [5096.660177793332, 7.0], [5278.031643091506, 7.179412893879319], [5624.865664607607, 7.0], [5656.854249492303, 6.9833239627316495], [6062.866266041508, 6.221197875128514], [6142.3971041846, 6.0], [6498.019170849792, 5.040353384904112], [6510.926281435366, 5.0], [6833.601963517558, 4.0], [6964.404506368894, 3.61053202432905], [7160.942617337256, 3.0], [7464.2639322943505, 2.0849391891795106], [7492.9703207404855, 2.0], [7822.21285977245, 1.0], [7999.999999999882, 0.46099264118843086]], 'minus_line': [[125.0, 23.534045748575224], [126.49284159446586, 24.0], [129.9815265705209, 25.0], [133.97168281703654, 25.978070621998807], [134.04150274689505, 25.999999999999996], [137.2568786023455, 27.0], [140.80707900632416, 28.0], [143.5872943746293, 28.711541606491743], [144.73615420268098, 29.0], [148.79894551738167, 30.0], [153.2474845172797, 31.0], [153.89305166811442, 31.140622848423977], [159.40470320606346, 32.0], [164.93848884661162, 32.809568752486925], [168.01825384681894, 33.0], [176.77669529663666, 33.53625447306867], [189.46457081379947, 33.43411145772136], [199.09963656618265, 33.0], [203.0630990890584, 32.83469699875307], [217.6376408240306, 32.17723960985814], [226.49062577486634, 32.0], [233.25824788420147, 31.878073028823867], [238.57299736605165, 32.0], [249.99999999999937, 32.25902435111384], [261.15453062590365, 33.0], [267.94336563407256, 33.42991028003539], [273.7683672021324, 34.0], [284.4937677862957, 35.0], [287.1745887492579, 35.241749692074336], [294.5437065188011, 36.0], [304.7348244158712, 37.0], [307.78610333622805, 37.29110210987638], [316.79760566821204, 38.0], [329.87697769322244, 38.985069000722696], [330.33881380664565, 39.00000000000001], [353.55339059327247, 39.75518530511002], [378.929141627598, 39.174306932251106], [381.2503854557848, 39.0], [394.7738790748566, 38.0], [406.12619817811606, 37.15908125518294], [407.60099502310845, 37.0], [416.90776526969, 36.0], [425.9559908703974, 35.0], [434.9846563596347, 34.0], [435.2752816480601, 33.969051727025374], [443.50078320044696, 33.0], [451.6365051766423, 32.0], [459.6278352293559, 31.0], [466.5164957684015, 30.152594045345417], [467.9047051827287, 30.0], [476.954086235579, 29.0], [485.6286292855762, 28.0], [494.21149920334125, 27.0], [499.9999999999975, 26.345885667725824], [503.9120059074931, 26.0], [515.0893228972939, 25.0], [525.9875999929806, 24.0], [535.8867312681438, 23.106087263479402], [537.6396236304255, 23.0], [554.3726320857908, 22.0], [570.9811584567411, 21.0], [574.3491774985143, 20.805314571692076], [600.4125641203863, 20.0], [615.5722066724546, 19.548543529148315], [659.7539553864432, 19.20027490498846], [707.1067811865431, 19.451968753443737], [757.8582832551941, 19.865704168530065], [792.7280617591871, 20.0], [812.2523963562301, 20.078386968551346], [839.280105152995, 20.0], [870.550563296117, 19.917325900057524], [933.0329915368008, 19.48026119788195], [999.9999999999926, 19.007422844124406], [1002.0724145122585, 19.0], [1071.773462536285, 18.766893432995083], [1148.6983549970273, 18.799398346055682], [1231.1444133449063, 18.986108378400687], [1239.3005807726406, 19.0], [1319.5079107728832, 19.14134033570165], [1414.2135623730828, 19.09004801886191], [1441.299775019393, 19.0], [1515.7165665103846, 18.774829885244763], [1624.5047927124563, 18.211567804292798], [1656.8440789182805, 18.0], [1741.1011265922318, 17.483744658302626], [1816.5709498683677, 17.0], [1866.065983073597, 16.701006969806627], [1999.9999999999802, 16.011786737223684], [2003.6294752409378, 16.0], [2143.5469250725646, 15.582205680736815], [2297.396709994046, 15.474678945464476], [2462.2888266898062, 15.683716981678812], [2588.736391630692, 16.0], [2639.0158215457564, 16.12704369040585], [2828.427124746162, 16.72238843470019], [2910.390729390066, 17.0], [3031.4331330207615, 17.411807932252007], [3197.88161749112, 18.0], [3249.0095854249043, 18.181807883668654], [3470.5265545387488, 19.0], [3482.2022531844555, 19.043238426001555], [3732.1319661471844, 19.997757228212883], [3732.7114612406626, 20.0], [3995.3039281575866, 21.0], [3999.9999999999504, 21.017578898379895], [4278.25504979185, 22.0], [4287.093850145118, 22.030460610696053], [4594.793419988076, 22.91746869936816], [4638.713539265958, 23.0], [4924.577653379601, 23.53146702305643], [5278.031643091506, 23.722558677739634], [5656.854249492303, 23.42401698659445], [5869.474314742515, 23.0], [6062.866266041508, 22.63640372030887], [6295.607897238551, 22.0], [6498.019170849792, 21.464949883327257], [6656.72314170375, 21.0], [6964.404506368894, 20.1153457258078], [7012.397058278683, 20.0], [7435.787935464365, 19.0], [7464.2639322943505, 18.934052057674805], [7999.999999999882, 18.33897493183705]]}",ikieoz,001,fr,1,2022-04-25_17h04.55.564,Continuous,2022.1.1,33.435914719753846,
11,0,11,0,3,0,3,0,,,,,,,,1.9839150380727126,time,,,,1,71,"['frequency', 'none', 'both', 'time']",0.00015686666665715165,None,None,394.14907889999995,394.14907889999995,0.210198066666635,2.1941131047393476,394.3711956999996,394.14907889999995,,,,,,,,,ikieoz,001,fr,1,2022-04-25_17h04.55.564,Continuous,2022.1.1,33.435914719753846,
11,0,11,0,4,0,4,0,,,,,,,,1.9839150380727126,time,176.0,14.570487876970278,0.0018884875518166311,0,72,"['frequency', 'none', 'both', 'time']",0.016042033334088046,None,None,396.3525561999995,396.3525561999995,0.22157773333401565,2.2054927714067283,396.57528809999985,396.3525561999995,,,,,,,,,ikieoz,001,fr,1,2022-04-25_17h04.55.564,Continuous,2022.1.1,33.435914719753846,
11,0,11,0,5,0,5,0,,,,,,,,1.9839150380727126,time,222.0,15.98541362610032,0.0014005169287090522,0,73,"['frequency', 'none', 'both', 'time']",0.0028911666668136604,None,None,398.56972140000016,398.56972140000016,0.20572676666688494,2.1896418047395976,398.7891794999996,398.56972140000016,,,,,,,,,ikieoz,001,fr,1,2022-04-25_17h04.55.564,Continuous,2022.1.1,33.435914719753846,
11,0,11,0,6,0,6,0,,,,,,,,1.9839150380727126,time,125.0,15.0,0.004064152580820497,0,74,"['frequency', 'none', 'both', 'time']",0.014649133333477948,None,['space'],400.7742634999995,400.7742634999995,0.21601073333386012,2.1999257714065727,400.9938659999998,400.7742634999995,[-1.4700756000002002],,,,,,,,ikieoz,001,fr,1,2022-04-25_17h04.55.564,Continuous,2022.1.1,33.435914719753846,
,,,,,,,,,,,,,,,1.9839150380727126,time,314.0,17.03665475752718,0.0007086685261993638,0,75,"['frequency', 'none', 'both', 'time']",,,,,,,,,,,,,,,,,,,,,,,,,,
