sweeps.thisRepN,sweeps.thisTrialN,sweeps.thisN,sweeps.thisIndex,trials.thisRepN,trials.thisTrialN,trials.thisN,trials.thisIndex,instructions.started,instructions.stopped,blank_text.started,blank_text.stopped,,text.started,text.stopped,Delay,Prediction,Frequency,Volume,Psychopy_level,isCatchTrial,len(y),finished_audiograms,probe.started,probe.stopped,feedback.keys,feedback.started,feedback.stopped,ISI.started,ISI.stopped,text_2.started,text_2.stopped,feedback.rt,break_txt.started,break_txt.stopped,Intervals,participant,session,language (english or french),date,expName,psychopyVersion,frameRate,
0,0,0,0,0,0,0,0,14.280441899999914,None,36.52183890000015,None,0.3333333333333333,39.16940629999999,None,1.4241464707631435,both,707.1067811865478,15.959823242103552,0.0002788707508183657,0,26,[],0.022434810000049765,None,None,40.18676069999992,None,0.22511471000007077,1.6492611807632143,40.392568499999925,None,,,,,ikieoz,001,fr,2022-04-25_16h03.39.711,Continuous,2022.1.1,37.5083362276789,
0,0,0,0,1,0,1,0,,,,,,,,1.4241464707631435,both,561.2310241546867,19.0,0.0005516186936588643,0,27,[],0.015195609999864246,None,['space'],41.81878599999982,41.81878599999982,0.2051542099998187,1.6293006807629622,42.03087030000006,41.81878599999982,[0.03992149999976391],,,,ikieoz,001,fr,2022-04-25_16h03.39.711,Continuous,2022.1.1,37.5083362276789,
0,0,0,0,2,0,2,0,,,,,,,,1.4241464707631435,both,,,,1,27,[],0.022480210000139778,None,None,43.45493149999993,43.45493149999993,0.22372431000030701,1.6478707807634505,43.67080619999979,43.45493149999993,,,,,ikieoz,001,fr,2022-04-25_16h03.39.711,Continuous,2022.1.1,37.5083362276789,
0,0,0,0,3,0,3,0,,,,,,,,1.4241464707631435,both,353.55339059327383,21.31654155811392,0.001031148549271461,0,28,[],0.02363301000013962,None,None,45.09429890000001,45.09429890000001,0.22380061000012574,1.6479470807632692,45.31315730000006,45.09429890000001,,,,,ikieoz,001,fr,2022-04-25_16h03.39.711,Continuous,2022.1.1,37.5083362276789,
0,0,0,0,4,0,4,0,,,,,,,,1.4241464707631435,both,280.6155120773433,21.379958013496015,0.001583023100912163,0,29,[],0.022469509999609727,None,['space'],46.726040099999864,46.726040099999864,0.22093990999974267,1.6450863807628862,46.931201299999884,46.726040099999864,[-0.786833900000147],,,,ikieoz,001,fr,2022-04-25_16h03.39.711,Continuous,2022.1.1,37.5083362276789,
0,0,0,0,5,0,5,0,,,,,,,,1.4241464707631435,both,222.72467953508485,17.03457969763959,0.001570234527836984,0,30,[],0.02086821000011696,0.21635771000001114,['space'],48.35491150000007,48.35491150000007,0.21635771000001114,1.6405041807631546,48.562072400000034,48.35491150000007,[-0.4650031000001036],,,,ikieoz,001,fr,2022-04-25_16h03.39.711,Continuous,2022.1.1,37.5083362276789,
0,0,0,0,6,0,6,0,,,,,,,,1.4241464707631435,both,176.7766952966369,19.0,0.003119565241000184,0,31,[],0.022369610000168905,0.22061561000009533,None,49.98939509999991,49.98939509999991,0.22061561000009533,1.6447620807632388,50.19358289999991,49.98939509999991,,,,,ikieoz,001,fr,2022-04-25_16h03.39.711,Continuous,2022.1.1,37.5083362276789,
0,0,0,0,7,0,7,0,,,,,,,,1.4241464707631435,both,140.3077560386716,18.278641296173287,0.0048100986510920575,0,32,[],0.022250310000345053,None,['space'],51.618215800000144,51.618215800000144,0.2239410100000896,1.648087480763233,51.83092339999985,51.618215800000144,[-0.9431349000001319],,,,ikieoz,001,fr,2022-04-25_16h03.39.711,Continuous,2022.1.1,37.5083362276789,
1,0,1,0,0,0,0,0,,,,,,57.632173800000146,None,1.470436707579091,none,140.3077560386716,18.398456158824715,0.004876909837759246,0,26,[],0.019272010000349837,0.2150126100000307,None,58.63614409999991,None,0.2150126100000307,1.6854493175791216,58.84796490000008,None,,53.257324900000185,None,"[0.16666666666666666, 0.5833333333333334, 0.5833333333333334, 0.16666666666666666, 0.5833333333333334, 0.3333333333333333, 0.5833333333333334, 0.5833333333333334, 0.3333333333333333, 0.3333333333333333, 0.5833333333333334, 0.3333333333333333, 0.16666666666666666, 0.16666666666666666, 0.5833333333333334]",ikieoz,001,fr,2022-04-25_16h03.39.711,Continuous,2022.1.1,37.5083362276789,
1,0,1,0,1,0,1,0,,,,,,,,1.702103375960701,none,222.72467953508485,18.58335359897208,0.001876736142884085,0,27,[],0.02163241000016569,None,['space'],60.31566609999982,60.31566609999982,0.2220736100002796,1.9241769859609805,60.52561349999996,60.31566609999982,[-1.0167560000004414],,,,ikieoz,001,fr,2022-04-25_16h03.39.711,Continuous,2022.1.1,37.5083362276789,
1,0,1,0,2,0,2,0,,,,,,,,1.9688813758478196,none,333.7099635425086,22.34330012592502,0.0012280060149853882,0,28,[],0.02186561000007714,None,['space'],62.228792800000065,62.228792800000065,0.22290690999989238,2.191788285847712,62.442039099999874,62.228792800000065,[-1.3941482999998698],,,,ikieoz,001,fr,2022-04-25_16h03.39.711,Continuous,2022.1.1,37.5083362276789,
1,0,1,0,3,0,3,0,,,,,,,,2.5550810174443037,none,,,,1,28,[],0.022096410000358446,None,['space'],64.4119297000002,64.4119297000002,0.22427211000012903,2.7793531274444327,64.63331220000009,64.4119297000002,[-1.7372113000001264],,,,ikieoz,001,fr,2022-04-25_16h03.39.711,Continuous,2022.1.1,37.5083362276789,
1,0,1,0,4,0,4,0,,,,,,,,1.4847805174060493,none,529.7315471796477,19.0041883575945,0.0005957013213149886,0,29,[],0.02277421000007962,None,['space'],67.17724520000002,67.17724520000002,0.22874391000004834,1.7135244274060977,67.40194049999991,67.17724520000002,[-2.422736000000441],,,,ikieoz,001,fr,2022-04-25_16h03.39.711,Continuous,2022.1.1,37.5083362276789,
1,0,1,0,5,0,5,0,,,,,,,,1.452862320562119,none,176.7766952966369,19.0,0.003119565241000184,0,30,[],0.02165640999965035,0.2186716099995465,['space'],68.87591169999996,68.87591169999996,0.2186716099995465,1.6715339305616654,69.08033729999988,68.87591169999996,[-1.144944199999827],,,,ikieoz,001,fr,2022-04-25_16h03.39.711,Continuous,2022.1.1,37.5083362276789,
1,0,1,0,6,0,6,0,,,,,,,,2.7370548360722426,none,793.7005259840998,16.834826808369712,0.00026849825117078853,0,31,[],0.021786510000310955,None,['space'],70.53398509999988,70.53398509999988,0.22377740999991147,2.960832246072154,70.74810160000015,70.53398509999988,[-1.2193700000002536],,,,ikieoz,001,fr,2022-04-25_16h03.39.711,Continuous,2022.1.1,37.5083362276789,
1,0,1,0,7,0,7,0,,,,,,,,2.080410956199032,none,420.4482076268573,20.076062060454806,0.0007617367438954976,0,32,[],0.021733710000262363,None,"['space', 'space']",73.47863460000008,73.47863460000008,0.22244460999991134,2.3028555661989434,73.6903225000001,73.47863460000008,"[-2.467382400000133, -0.33954640000001746]",,,,ikieoz,001,fr,2022-04-25_16h03.39.711,Continuous,2022.1.1,37.5083362276789,
1,0,1,0,8,0,8,0,,,,,,,,1.9216572456291523,none,471.9371563408468,19.309953528563838,0.0006731282312100123,0,33,[],0.021663510000053066,None,None,75.7711392000001,75.7711392000001,0.2244698099998459,2.146127055628998,75.98716990000003,75.7711392000001,,,,,ikieoz,001,fr,2022-04-25_16h03.39.711,Continuous,2022.1.1,37.5083362276789,
2,0,2,0,0,0,0,0,,,,,0.3333333333333333,81.70017210000015,None,1.1102427009374767,both,4287.093850145177,34.70294812433198,0.005635088966270037,0,33,[],0.022965409999869735,None,None,82.72419910000008,None,0.2268288099999154,1.337071510937392,82.93628820000004,None,,77.9020703000001,None,,ikieoz,001,fr,2022-04-25_16h03.39.711,Continuous,2022.1.1,37.5083362276789,
2,0,2,0,1,0,1,0,,,,,,,,1.1102427009374767,both,3402.6686438034267,20.16315088079977,0.0007484735394772355,0,34,[],0.0210681100002148,None,['space'],84.04240739999977,84.04240739999977,0.21807641000032163,1.3283191109377983,84.24998079999978,84.04240739999977,[-0.6795894000001681],,,,ikieoz,001,fr,2022-04-25_16h03.39.711,Continuous,2022.1.1,37.5083362276789,
2,0,2,0,2,0,2,0,,,,,,,,1.1102427009374767,both,2700.699892336383,20.924541932750437,0.0008166973141841514,0,35,[],0.013959810000415018,0.20392711000022246,['space'],85.36611929999981,85.36611929999981,0.20392711000022246,1.3141698109376991,85.5784122,85.36611929999981,[-0.8354631000001973],,,,ikieoz,001,fr,2022-04-25_16h03.39.711,Continuous,2022.1.1,37.5083362276789,
2,0,2,0,3,0,3,0,,,,,,,,1.1102427009374767,both,2143.5469250725887,25.863813230902682,0.0015319722220456502,0,36,[],0.02136800999960542,None,['space'],86.6828658999998,86.6828658999998,0.2223746099998607,1.3326173109373374,86.89686699999993,86.6828658999998,[-0.9044222000002264],,,,ikieoz,001,fr,2022-04-25_16h03.39.711,Continuous,2022.1.1,37.5083362276789,
2,0,2,0,4,0,4,0,,,,,,,,1.1102427009374767,both,1701.334321901713,24.858504874223613,0.0010729280293535078,0,37,[],0.021257710000099905,None,['space'],88.01167840000016,88.01167840000016,0.22053201000016998,1.3307747109376467,88.21957449999991,88.01167840000016,[-0.905777400000261],,,,ikieoz,001,fr,2022-04-25_16h03.39.711,Continuous,2022.1.1,37.5083362276789,
2,0,2,0,5,0,5,0,,,,,,,,1.1102427009374767,both,1350.3499461681913,26.18350183012893,0.0010600530725612975,0,38,[],0.019534609999936947,None,['space'],89.33084749999989,89.33084749999989,0.21366400999977486,1.3239067109372515,89.53818820000015,89.33084749999989,[-0.9759966000001441],,,,ikieoz,001,fr,2022-04-25_16h03.39.711,Continuous,2022.1.1,37.5083362276789,
2,0,2,0,6,0,6,0,,,,,,,,1.1102427009374767,both,1071.7734625362941,36.0,0.002968939571619038,0,39,[],0.019184709999990446,0.21347830999957296,['space'],90.64927510000007,90.64927510000007,0.21347830999957296,1.3237210109370496,90.85785570000007,90.64927510000007,[-0.9826464000002488],,,,ikieoz,001,fr,2022-04-25_16h03.39.711,Continuous,2022.1.1,37.5083362276789,
2,0,2,0,7,0,7,0,,,,,,,,1.1102427009374767,both,850.6671609508564,19.571558435375447,0.00037892188109880156,0,40,[],0.013747109999712848,None,['space'],91.97383549999995,91.97383549999995,0.20701390999965952,1.3172566109371362,92.18860489999997,91.97383549999995,[-0.9158489000001282],,,,ikieoz,001,fr,2022-04-25_16h03.39.711,Continuous,2022.1.1,37.5083362276789,
2,0,2,0,8,0,8,0,,,,,,,,1.1102427009374767,both,675.1749730840955,28.844610143212147,0.001306776585358096,0,41,[],0.020977509999738686,None,['space'],93.30171000000018,93.30171000000018,0.22023790999992343,1.3304806109374,93.50812619999988,93.30171000000018,[-0.9151762000001327],,,,ikieoz,001,fr,2022-04-25_16h03.39.711,Continuous,2022.1.1,37.5083362276789,
2,0,2,0,9,0,9,0,,,,,,,,1.1102427009374767,both,535.8867312681471,34.900712263055816,0.003660727055638108,0,42,[],0.019808110000212764,0.21487510999986625,['space'],94.61995530000013,94.61995530000013,0.21487510999986625,1.325117810937343,94.82623180000019,94.61995530000013,[-0.9215264999997999],,,,ikieoz,001,fr,2022-04-25_16h03.39.711,Continuous,2022.1.1,37.5083362276789,
2,0,2,0,10,0,10,0,,,,,,,,1.1102427009374767,both,425.3335804754282,25.32756591371654,0.0013897669737475908,0,43,[],0.015202409999801603,0.20630901000004087,['space'],95.94046329999992,95.94046329999992,0.20630901000004087,1.3165517109375175,96.14595770000005,95.94046329999992,[-0.9464950999999928],,,,ikieoz,001,fr,2022-04-25_16h03.39.711,Continuous,2022.1.1,37.5083362276789,
2,0,2,0,11,0,11,0,,,,,,,,1.1102427009374767,both,337.58748654204777,35.63035546301508,0.005608742582703297,0,44,[],0.016790409999885014,0.20702630999994653,['space'],97.25781700000016,97.25781700000016,0.20702630999994653,1.3172690109374232,97.46326989999989,97.25781700000016,[-0.9194641999997657],,,,ikieoz,001,fr,2022-04-25_16h03.39.711,Continuous,2022.1.1,37.5083362276789,
2,0,2,0,12,0,12,0,,,,,,,,1.1102427009374767,both,,,,1,44,[],0.02107471000044825,None,['space'],98.57906820000017,98.57906820000017,0.224304110000503,1.3345468109379797,98.79986749999989,98.57906820000017,[-0.944571100000303],,,,ikieoz,001,fr,2022-04-25_16h03.39.711,Continuous,2022.1.1,37.5083362276789,
2,0,2,0,13,0,13,0,,,,,,,,1.1102427009374767,both,212.6667902377141,30.825670118361653,0.008368069652345217,0,45,[],0.02198670999996466,None,None,99.89685629999985,99.89685629999985,0.2248334099999738,1.3350761109374505,100.11215020000009,99.89685629999985,,,,,ikieoz,001,fr,2022-04-25_16h03.39.711,Continuous,2022.1.1,37.5083362276789,
2,0,2,0,14,0,14,0,,,,,,,,1.1102427009374767,both,168.79374327102389,30.84219937975713,0.013208627487252472,0,46,[],0.020546910000120988,None,['space'],101.2218997,101.2218997,0.22526301000016247,1.3355057109376391,101.43355729999985,101.2218997,[-0.8516472000001158],,,,ikieoz,001,fr,2022-04-25_16h03.39.711,Continuous,2022.1.1,37.5083362276789,
3,0,3,0,0,0,0,0,,,,,0.3333333333333333,105.54707009999993,None,2.6015994872116095,frequency,707.1067811865478,18.587082421863457,0.000377368742751227,0,26,[],0.023149210000156017,None,None,106.5686641000002,None,0.23970710999992662,2.841306597211536,106.78645199999983,None,,102.53906159999997,None,,ikieoz,001,fr,2022-04-25_16h03.39.711,Continuous,2022.1.1,37.5083362276789,
3,0,3,0,1,0,1,0,,,,,,,,2.3205565452549357,frequency,561.2310241546867,19.0,0.0005516186936588643,0,27,[],0.020079610000266257,0.21720011000024897,['space'],109.3847479000001,109.3847479000001,0.21720011000024897,2.5377566552551847,109.58941199999981,109.3847479000001,[-2.3412787000002027],,,,ikieoz,001,fr,2022-04-25_16h03.39.711,Continuous,2022.1.1,37.5083362276789,
3,0,3,0,2,0,2,0,,,,,,,,2.116048142717183,frequency,445.44935907016975,21.001529765953165,0.0008330440985717894,0,28,[],0.020689110000148503,None,['space'],111.91126579999991,111.91126579999991,0.21985090999987733,2.3358990527170604,112.12491790000013,111.91126579999991,[-2.117260100000294],,,,ikieoz,001,fr,2022-04-25_16h03.39.711,Continuous,2022.1.1,37.5083362276789,
3,0,3,0,3,0,3,0,,,,,,,,2.6629397311975342,frequency,353.55339059327383,22.85410008903763,0.001230833085017268,0,29,[],0.013640810000197234,0.20350341000039407,['space'],114.24653369999987,114.24653369999987,0.20350341000039407,2.8664431411979283,114.45158720000018,114.24653369999987,[-1.9718730000004143],,,,ikieoz,001,fr,2022-04-25_16h03.39.711,Continuous,2022.1.1,37.5083362276789,
3,0,3,0,4,0,4,0,,,,,,,,2.501943099744131,frequency,280.6155120773433,20.022514075952465,0.0013539887492087655,0,30,[],0.018654410000635835,0.21257641000056537,['space'],117.10999099999981,117.10999099999981,0.21257641000056537,2.7145195097446964,117.31524189999982,117.10999099999981,[-2.4673321000000215],,,,ikieoz,001,fr,2022-04-25_16h03.39.711,Continuous,2022.1.1,37.5083362276789,
3,0,3,0,5,0,5,0,,,,,,,,2.2677278559277987,frequency,222.72467953508485,18.544022530692846,0.001868257199258077,0,31,[],0.020570610000049783,None,['space'],119.81968259999985,119.81968259999985,0.21885231000032945,2.486580165928128,120.03459299999986,119.81968259999985,[-2.360956000000442],,,,ikieoz,001,fr,2022-04-25_16h03.39.711,Continuous,2022.1.1,37.5083362276789,
3,0,3,0,6,0,6,0,,,,,,,,1.368865460138683,frequency,176.7766952966369,19.0,0.003119565241000184,0,32,[],0.020577110000431276,None,None,122.30495530000007,122.30495530000007,0.22129501000017626,1.5901604701388592,122.52414910000016,122.30495530000007,,,,,ikieoz,001,fr,2022-04-25_16h03.39.711,Continuous,2022.1.1,37.5083362276789,
3,0,3,0,7,0,7,0,,,,,,,,1.0773328332936083,frequency,140.3077560386716,17.467606296746222,0.004381292352479103,0,33,[],0.017619610000110697,None,['space'],123.88438929999984,123.88438929999984,0.20839461000014126,1.2857274432937496,124.09425009999995,123.88438929999984,[-1.2255631000002722],,,,ikieoz,001,fr,2022-04-25_16h03.39.711,Continuous,2022.1.1,37.5083362276789,
3,0,3,0,8,0,8,0,,,,,,,,1.5964965344534814,frequency,,,,1,33,[],0.020579609999913373,None,['space'],125.1748619,125.1748619,0.22133610999981101,1.8178326444532924,125.39511949999996,125.1748619,[-0.8036794000004193],,,,ikieoz,001,fr,2022-04-25_16h03.39.711,Continuous,2022.1.1,37.5083362276789,
4,0,4,0,0,0,0,0,,,,,,133.03390549999995,None,2.7965309658160393,none,150.37812951026467,27.977750536707916,0.012446702572931085,0,34,[],0.023000609999598964,None,None,134.05790960000013,None,0.23412110999970537,3.0306520758157447,134.2728563999999,None,,126.98772650000001,None,"[0.3333333333333333, 0.16666666666666666, 0.3333333333333333, 0.5833333333333334, 0.3333333333333333, 0.5833333333333334, 0.16666666666666666, 0.3333333333333333, 0.3333333333333333, 0.3333333333333333, 0.5833333333333334, 0.3333333333333333, 0.3333333333333333, 0.5833333333333334, 0.5833333333333334]",ikieoz,001,fr,2022-04-25_16h03.39.711,Continuous,2022.1.1,37.5083362276789,
4,0,4,0,1,0,1,0,,,,,,,,1.0163687507569872,none,318.64015682981574,28.53187951890828,0.002608449138640041,0,35,[],0.017424810000193247,None,['space'],137.06470369999988,137.06470369999988,0.21019231000036598,1.2265610607573532,137.2745046,137.06470369999988,[-2.4374158000000534],,,,ikieoz,001,fr,2022-04-25_16h03.39.711,Continuous,2022.1.1,37.5083362276789,
4,0,4,0,2,0,2,0,,,,,,,,1.4196417949843787,none,1350.3499461681913,16.877663458399557,0.00036310789397373927,0,36,[],0.02011041000014302,None,['space'],138.29436350000014,138.29436350000014,0.21845191000011255,1.6380937049844913,138.50789480000003,138.29436350000014,[-0.7707673000004434],,,,ikieoz,001,fr,2022-04-25_16h03.39.711,Continuous,2022.1.1,37.5083362276789,
4,0,4,0,3,0,3,0,,,,,,,,1.678257785071394,none,212.66679023771405,30.556953178330524,0.008113148765489716,0,37,[],0.01973861000033139,None,['space'],139.9319945000002,139.9319945000002,0.21872581000025093,1.896983595071645,140.14289670000016,139.9319945000002,[-1.1773880999999164],,,,ikieoz,001,fr,2022-04-25_16h03.39.711,Continuous,2022.1.1,37.5083362276789,
4,0,4,0,4,0,4,0,,,,,,,,1.9866381749972504,none,4812.100144328471,11.622053150866595,0.0005329224559906742,0,38,[],0.02001500999995187,None,['space'],141.81933339999978,141.81933339999978,0.2200394100000267,2.2066775849972773,142.02411100000018,141.81933339999978,[-1.5446201000004294],,,,ikieoz,001,fr,2022-04-25_16h03.39.711,Continuous,2022.1.1,37.5083362276789,
4,0,4,0,5,0,5,0,,,,,,,,2.4977188466133295,none,168.79374327102386,19.889437787634268,0.0037429981518205986,0,39,[],0.01957371000025887,None,None,144.01380370000015,144.01380370000015,0.21956151000040336,2.717280356613733,144.22592129999975,144.01380370000015,,,,,ikieoz,001,fr,2022-04-25_16h03.39.711,Continuous,2022.1.1,37.5083362276789,
4,0,4,0,6,0,6,0,,,,,,,,1.7586824608101295,none,675.1749730840955,22.683542888341186,0.0006429067440424137,0,40,[],0.019392210000205523,None,['space'],146.72525829999995,146.72525829999995,0.21855201000016677,1.9772344708102962,146.93426779999982,146.72525829999995,[-2.289901600000121],,,,ikieoz,001,fr,2022-04-25_16h03.39.711,Continuous,2022.1.1,37.5083362276789,
4,0,4,0,7,0,7,0,,,,,,,,2.110428136569197,none,1071.7734625362941,31.0,0.0016695574131143172,0,41,[],0.016842909999922995,0.2083981099999619,['space'],148.69407950000004,148.69407950000004,0.2083981099999619,2.318826246569159,148.90193210000007,148.69407950000004,[-1.5236461000004056],,,,ikieoz,001,fr,2022-04-25_16h03.39.711,Continuous,2022.1.1,37.5083362276789,
4,0,4,0,8,0,8,0,,,,,,,,2.452294684482161,none,850.6671609508564,30.78544751857037,0.001377983885298303,0,42,[],0.01524050999978499,0.21050951000006535,['space'],151.01452389999986,151.01452389999986,0.21050951000006535,2.6628041944822263,151.23036139999977,151.01452389999986,[-1.908028899999863],,,,ikieoz,001,fr,2022-04-25_16h03.39.711,Continuous,2022.1.1,37.5083362276789,
4,0,4,0,9,0,9,0,,,,,,,,2.308262552629129,none,3211.691527453509,15.246826088004,0.0004055763838512132,0,43,[],0.019727509999938775,None,['space'],153.6792588999997,153.6792588999997,0.21884391000003234,2.5271064626291615,153.88923270000032,153.6792588999997,[-2.3009243000001334],,,,ikieoz,001,fr,2022-04-25_16h03.39.711,Continuous,2022.1.1,37.5083362276789,
4,0,4,0,10,0,10,0,,,,,,,,1.1497531640052416,none,2023.238880603847,14.852297810683124,0.0004164521724412474,0,44,[],0.019722510000065085,None,['space'],156.19613769999978,156.19613769999978,0.2179653100001815,1.3677184740054231,156.40671649999967,156.19613769999978,[-2.0329836000005344],,,,ikieoz,001,fr,2022-04-25_16h03.39.711,Continuous,2022.1.1,37.5083362276789,
4,0,4,0,11,0,11,0,,,,,,,,1.3486933638017136,none,7210.003700886649,29.515162459158937,0.00471295481870452,0,45,[],0.014913910000359465,0.20959521000077075,['space'],157.55552739999985,157.55552739999985,0.20959521000077075,1.5582885738024843,157.77015839999967,157.55552739999985,[-0.944656500000292],,,,ikieoz,001,fr,2022-04-25_16h03.39.711,Continuous,2022.1.1,37.5083362276789,
4,0,4,0,12,0,12,0,,,,,,,,1.2264886300942113,none,601.5125180410588,19.394116858142688,0.0005186192622122242,0,46,[],0.01955820999955904,None,['space'],159.11502089999976,159.11502089999976,0.2209936099989136,1.4474822400931249,159.32834720000028,159.11502089999976,[-1.016135200000008],,,,ikieoz,001,fr,2022-04-25_16h03.39.711,Continuous,2022.1.1,37.5083362276789,
4,0,4,0,13,0,13,0,,,,,,,,2.1056293651647082,none,,,,1,46,[],0.01970221000010497,None,['space'],160.55533469999955,160.55533469999955,0.21841801000027772,2.324047375164986,160.76361400000042,160.55533469999955,[-0.9684221000002253],,,,ikieoz,001,fr,2022-04-25_16h03.39.711,Continuous,2022.1.1,37.5083362276789,
4,0,4,0,14,0,14,0,,,,,,,,2.2917256270457806,none,2549.121254638527,11.065614339791704,0.00029616646800970277,0,47,[],0.020522710000477673,None,None,162.8732116000001,162.8732116000001,0.22120261000054597,2.5129282370463266,163.08307979999972,162.8732116000001,,,,,ikieoz,001,fr,2022-04-25_16h03.39.711,Continuous,2022.1.1,37.5083362276789,
5,0,5,0,0,0,0,0,,,,,,171.86618660000022,None,1.777702306695576,none,831.237896142788,10.618339873052069,0.00013329752252492808,0,48,[],0.022386110000297776,None,None,172.8861178999996,None,0.22787251000045217,2.0055748166960283,173.10008259999995,None,,165.37766329999977,None,"[0.16666666666666666, 0.5833333333333334, 0.5833333333333334, 0.16666666666666666, 0.16666666666666666, 0.3333333333333333, 0.5833333333333334, 0.16666666666666666, 0.16666666666666666, 0.5833333333333334, 0.5833333333333334, 0.16666666666666666, 0.5833333333333334, 0.3333333333333333, 0.3333333333333333]",ikieoz,001,fr,2022-04-25_16h03.39.711,Continuous,2022.1.1,37.5083362276789,
5,0,5,0,1,0,1,0,,,,,,,,2.0226386897976503,none,740.5487761432823,10.201379075317792,0.00013421666272118684,0,49,[],0.018003109998971922,None,['space'],174.8721886000003,174.8721886000003,0.21228870999857463,2.234927399796225,175.08192539999982,174.8721886000003,[-1.31735290000006],,,,ikieoz,001,fr,2022-04-25_16h03.39.711,Continuous,2022.1.1,37.5083362276789,
5,0,5,0,2,0,2,0,,,,,,,,1.194078887683996,none,138.69618400848066,13.825703257846936,0.0029512394364577944,0,50,[],0.01721761000044353,0.21075101000042196,['space'],177.10769880000043,177.10769880000043,0.21075101000042196,1.404829897684418,177.3130670999999,177.10769880000043,[-1.4579123999997137],,,,ikieoz,001,fr,2022-04-25_16h03.39.711,Continuous,2022.1.1,37.5083362276789,
5,0,5,0,3,0,3,0,,,,,,,,1.0987911000073876,none,494.2570101764482,13.257161924354836,0.0003300716658959804,0,51,[],0.017583509999894886,None,['space'],178.50827599999957,178.50827599999957,0.21413601000040217,1.3129271100077897,178.7242186000003,178.50827599999957,[-0.8735386000003018],,,,ikieoz,001,fr,2022-04-25_16h03.39.711,Continuous,2022.1.1,37.5083362276789,
5,0,5,0,4,0,4,0,,,,,,,,1.7735183785897362,none,,,,1,51,[],0.018395410000266565,None,['space'],179.82666260000042,179.82666260000042,0.21995681000043987,1.993475188590176,180.04331790000015,179.82666260000042,[-0.800300000000334],,,,ikieoz,001,fr,2022-04-25_16h03.39.711,Continuous,2022.1.1,37.5083362276789,
5,0,5,0,5,0,5,0,,,,,,,,2.900637146352966,none,1245.4496223588233,10.116788249682868,0.00017409662110635325,0,52,[],0.020290710001063417,None,['space'],181.8208864999997,181.8208864999997,0.21935161000055814,3.119988756353524,182.03269100000034,181.8208864999997,[-1.000804299999345],,,,ikieoz,001,fr,2022-04-25_16h03.39.711,Continuous,2022.1.1,37.5083362276789,
5,0,5,0,6,0,6,0,,,,,,,,1.7006805065530242,none,174.74624177237746,12.477309754002768,0.0015032779499000312,0,53,[],0.013665609999407025,0.20469610999953147,['space'],184.93699860000015,184.93699860000015,0.20469610999953147,1.9053766165525556,185.1475000999999,184.93699860000015,[-2.550357200000235],,,,ikieoz,001,fr,2022-04-25_16h03.39.711,Continuous,2022.1.1,37.5083362276789,
5,0,5,0,7,0,7,0,,,,,,,,1.0633950429724612,none,329.87697769322364,10.0,0.0002996540782015946,0,54,[],0.019349510000211012,None,['space'],186.8476443999998,186.8476443999998,0.2199392100001205,1.2833342529725817,187.05596090000017,186.8476443999998,[-1.5003867999998874],,,,ikieoz,001,fr,2022-04-25_16h03.39.711,Continuous,2022.1.1,37.5083362276789,
5,0,5,0,8,0,8,0,,,,,,,,2.2171071480348536,none,261.8235307051567,16.084786026218428,0.0009873016045914267,0,55,[],0.017905709999467945,None,None,188.1181690000003,188.1181690000003,0.21288130999982968,2.4299884580346833,188.32972119999977,188.1181690000003,,,,,ikieoz,001,fr,2022-04-25_16h03.39.711,Continuous,2022.1.1,37.5083362276789,
5,0,5,0,9,0,9,0,,,,,,,,2.2065511435337113,none,1569.168195793502,11.19414564657909,0.000196459315292507,0,56,[],0.01897231000020838,None,['space'],190.55284570000003,190.55284570000003,0.22224411000024702,2.4287952535339583,190.7694266999997,190.55284570000003,[-1.9904404000003524],,,,ikieoz,001,fr,2022-04-25_16h03.39.711,Continuous,2022.1.1,37.5083362276789,
5,0,5,0,10,0,10,0,,,,,,,,2.0496101404515676,none,1977.028040705793,11.24991007817805,0.0002694026979420743,0,57,[],0.018960510000397335,None,['space'],192.97319640000023,192.97319640000023,0.2171363100005692,2.266746450452137,193.1787016999997,192.97319640000023,[-1.9459573000008277],,,,ikieoz,001,fr,2022-04-25_16h03.39.711,Continuous,2022.1.1,37.5083362276789,
6,0,6,0,0,0,0,0,,,,,0.3333333333333333,198.5827988000001,None,2.5162173914591097,frequency,4287.093850145177,19.45326166320385,0.0009736804586321638,0,34,[],0.022504610000396497,None,None,199.60489719999987,None,0.22321461000046838,2.739432001459578,199.8195036999996,None,,195.2314551999998,None,,ikieoz,001,fr,2022-04-25_16h03.39.711,Continuous,2022.1.1,37.5083362276789,
6,0,6,0,1,0,1,0,,,,,,,,2.195447835749937,frequency,3402.6686438034267,26.625347711966725,0.0015750207982441222,0,35,[],0.012234910000188393,None,['space'],202.34061699999984,202.34061699999984,0.2099966100004167,2.4054444457503537,202.5586658000002,202.34061699999984,[-2.2902817000008326],,,,ikieoz,001,fr,2022-04-25_16h03.39.711,Continuous,2022.1.1,37.5083362276789,
6,0,6,0,2,0,2,0,,,,,,,,1.9792304116778558,frequency,2700.699892336383,12.552857832972823,0.00031151353588529455,0,36,[],0.014178809999066289,0.20554020999952627,['space'],204.75660590000007,204.75660590000007,0.20554020999952627,2.184770621677382,204.96345219999967,204.75660590000007,[-2.0818828999995276],,,,ikieoz,001,fr,2022-04-25_16h03.39.711,Continuous,2022.1.1,37.5083362276789,
6,0,6,0,3,0,3,0,,,,,,,,2.0705494668574693,frequency,2143.5469250725887,25.01332775326135,0.0013890779479035764,0,37,[],0.014538209999045648,0.20687520999945264,['space'],206.94111760000033,206.94111760000033,0.20687520999945264,2.277424676856922,207.15488559999994,206.94111760000033,[-1.7867998000006082],,,,ikieoz,001,fr,2022-04-25_16h03.39.711,Continuous,2022.1.1,37.5083362276789,
6,0,6,0,4,0,4,0,,,,,,,,2.852991997373387,frequency,1701.334321901713,16.007998272007946,0.0003872980058931733,0,38,[],0.017321309999715595,None,['space'],209.22405419999996,209.22405419999996,0.21678170999985014,3.069773707373237,209.43976089999978,209.22405419999996,[-1.9575757999996313],,,,ikieoz,001,fr,2022-04-25_16h03.39.711,Continuous,2022.1.1,37.5083362276789,
6,0,6,0,5,0,5,0,,,,,,,,2.497423101766024,frequency,1350.3499461681913,28.09238069544535,0.001320600789094077,0,39,[],0.014213610001206689,0.20559581000088656,['space'],212.29616410000017,212.29616410000017,0.20559581000088656,2.7030189117669106,212.4966602000004,212.29616410000017,[-2.693717700000434],,,,ikieoz,001,fr,2022-04-25_16h03.39.711,Continuous,2022.1.1,37.5083362276789,
6,0,6,0,6,0,6,0,,,,,,,,1.8862987965972176,frequency,1071.7734625362941,35.0,0.002646070178467869,0,40,[],0.014445310000155587,0.20522391000031348,['space'],214.99903710000035,214.99903710000035,0.20522391000031348,2.091522706597531,215.21032430000014,214.99903710000035,[-2.340530099999796],,,,ikieoz,001,fr,2022-04-25_16h03.39.711,Continuous,2022.1.1,37.5083362276789,
6,0,6,0,7,0,7,0,,,,,,,,2.805100985765848,frequency,850.6671609508564,22.449834278078313,0.0005277928186657126,0,41,[],0.016262010000900773,0.20888501000081305,['space'],217.1004850999998,217.1004850999998,0.20888501000081305,3.013985995766661,217.3122728999997,217.1004850999998,[-1.7701183000003766],,,,ikieoz,001,fr,2022-04-25_16h03.39.711,Continuous,2022.1.1,37.5083362276789,
6,0,6,0,8,0,8,0,,,,,,,,1.694523834955042,frequency,675.1749730840955,22.21607426274236,0.0006092205582075805,0,42,[],0.01818170999922586,None,['space'],220.1164643000002,220.1164643000002,0.21775920999971277,1.9122830449547548,220.32587909999984,220.1164643000002,[-2.6893202999995083],,,,ikieoz,001,fr,2022-04-25_16h03.39.711,Continuous,2022.1.1,37.5083362276789,
6,0,6,0,9,0,9,0,,,,,,,,1.5825591441483982,frequency,535.8867312681471,23.90712708552509,0.0010324953160706892,0,43,[],0.014299409999694035,0.20305900999937876,['space'],222.02241969999977,222.02241969999977,0.20305900999937876,1.785618154147777,222.22621679999975,222.02241969999977,[-1.5076163999997334],,,,ikieoz,001,fr,2022-04-25_16h03.39.711,Continuous,2022.1.1,37.5083362276789,
6,0,6,0,10,0,10,0,,,,,,,,1.5037744013646992,frequency,425.3335804754282,31.402020680803847,0.0027968213440333458,0,44,[],0.011488410000310978,0.20027171000037924,['space'],223.81397639999977,223.81397639999977,0.20027171000037924,1.7040461113650784,224.02203809999992,223.81397639999977,[-1.3946098999999776],,,,ikieoz,001,fr,2022-04-25_16h03.39.711,Continuous,2022.1.1,37.5083362276789,
6,0,6,0,11,0,11,0,,,,,,,,1.0632106117283364,frequency,337.58748654204777,31.637858490881264,0.003541935592512755,0,45,[],0.014299009998467227,0.204826909998701,['space'],225.5262101999997,225.5262101999997,0.204826909998701,1.2680375217270374,225.73666539999977,225.5262101999997,[-1.3964432999996461],,,,ikieoz,001,fr,2022-04-25_16h03.39.711,Continuous,2022.1.1,37.5083362276789,
6,0,6,0,12,0,12,0,,,,,,,,1.6156431378750247,frequency,267.94336563407353,26.561511271126836,0.0031602692986245264,0,46,[],0.018253309999636258,None,['space'],226.80773640000007,226.80773640000007,0.2179670099994837,1.8336101478745084,227.01777159999983,226.80773640000007,[-0.9494047000002865],,,,ikieoz,001,fr,2022-04-25_16h03.39.711,Continuous,2022.1.1,37.5083362276789,
6,0,6,0,13,0,13,0,,,,,,,,2.669610716921429,frequency,212.6667902377141,22.68235543246648,0.0032768725634254496,0,47,[],0.01817190999918239,None,['space'],228.63877440000033,228.63877440000033,0.21705550999922707,2.886666226920656,228.85564140000042,228.63877440000033,[-1.4209185000004254],,,,ikieoz,001,fr,2022-04-25_16h03.39.711,Continuous,2022.1.1,37.5083362276789,
6,0,6,0,14,0,14,0,,,,,,,,2.979060798194167,frequency,,,,1,47,[],0.011976910000157659,0.2004548100003376,['space'],231.5217743000003,231.5217743000003,0.2004548100003376,3.1795156081945044,231.73021270000027,231.5217743000003,[-2.4793726000002607],,,,ikieoz,001,fr,2022-04-25_16h03.39.711,Continuous,2022.1.1,37.5083362276789,
7,0,7,0,0,0,0,0,,,,,0.16666666666666666,238.22903299999962,None,1.3459845654092535,frequency,707.1067811865479,6.297809510250174,9.168584235098367e-05,0,48,[],0.02314630999990186,None,None,239.2365450999996,None,0.22699711000041134,1.5729816754096648,239.44687390000036,None,,234.70968830000038,None,,ikieoz,001,fr,2022-04-25_16h03.39.711,Continuous,2022.1.1,37.5083362276789,
7,0,7,0,1,0,1,0,,,,,,,,2.6465214638972876,frequency,629.9605249474369,14.733403977802723,0.00027905671102002174,0,49,[],0.012592409999342635,None,None,240.79615990000002,240.79615990000002,0.20336270999905537,2.849884173896343,241.0078451999998,240.79615990000002,,,,,ikieoz,001,fr,2022-04-25_16h03.39.711,Continuous,2022.1.1,37.5083362276789,
7,0,7,0,2,0,2,0,,,,,,,,1.5179687714448324,frequency,561.2310241546867,14.66288965515077,0.0003347984650377518,0,50,[],0.01790281000012328,0.2155182100004822,None,243.6597195000004,243.6597195000004,0.2155182100004822,1.7334869814453147,243.87293469999986,243.6597195000004,,,,,ikieoz,001,fr,2022-04-25_16h03.39.711,Continuous,2022.1.1,37.5083362276789,
7,0,7,0,3,0,3,0,,,,,,,,2.7735941260272794,frequency,,,,1,50,[],0.01804811000056361,None,['space'],245.38851570000043,245.38851570000043,0.2201287100006084,2.993722836027888,245.59858220000024,245.38851570000043,[-1.2901736000007986],,,,ikieoz,001,fr,2022-04-25_16h03.39.711,Continuous,2022.1.1,37.5083362276789,
7,0,7,0,4,0,4,0,,,,,,,,2.137977727542314,frequency,445.44935907016975,10.835510224133904,0.00025844433379953785,0,51,[],0.01885041000059573,None,None,248.37408270000014,248.37408270000014,0.21793021000030421,2.3559079375426184,248.58596419999958,248.37408270000014,,,,,ikieoz,001,fr,2022-04-25_16h03.39.711,Continuous,2022.1.1,37.5083362276789,
7,0,7,0,5,0,5,0,,,,,,,,2.0680513377973497,frequency,396.8502629920499,6.535419408120394,0.00016419321395745907,0,52,[],0.01804150999942067,None,['space'],250.72873710000022,250.72873710000022,0.21721350999996503,2.2852648477973148,250.94478830000025,250.72873710000022,[-1.8617471000002297],,,,ikieoz,001,fr,2022-04-25_16h03.39.711,Continuous,2022.1.1,37.5083362276789,
7,0,7,0,6,0,6,0,,,,,,,,1.7625067815320328,frequency,353.5533905932738,5.0,0.00015757748228274537,0,53,[],0.013677710000592924,0.20258941000065533,None,253.00504329999967,253.00504329999967,0.20258941000065533,1.965096191532688,253.21683539999958,253.00504329999967,,,,,ikieoz,001,fr,2022-04-25_16h03.39.711,Continuous,2022.1.1,37.5083362276789,
7,0,7,0,7,0,7,0,,,,,,,,1.7704620885553817,frequency,314.9802624737183,12.79344755598334,0.00043026344830598257,0,54,[],0.017354510000586743,None,None,254.98346219999985,254.98346219999985,0.2160121100014294,1.986474198556811,255.1943553000001,254.98346219999985,,,,,ikieoz,001,fr,2022-04-25_16h03.39.711,Continuous,2022.1.1,37.5083362276789,
7,0,7,0,8,0,8,0,,,,,,,,1.5207302414938206,frequency,280.6155120773433,12.483861882665792,0.0005684371403778632,0,55,[],0.017903009998917696,None,None,256.97097419999955,256.97097419999955,0.21465720999913174,1.7353874514929524,257.1802279000003,256.97097419999955,,,,,ikieoz,001,fr,2022-04-25_16h03.39.711,Continuous,2022.1.1,37.5083362276789,
7,0,7,0,9,0,9,0,,,,,,,,1.6236937165268666,frequency,250.00000000000003,11.752335413688378,0.0006480175606938463,0,56,[],0.017848610000328335,None,['space'],258.70420170000034,258.70420170000034,0.21691951000047993,1.8406132265273465,258.92465429999993,258.70420170000034,[-1.2302159999994728],,,,ikieoz,001,fr,2022-04-25_16h03.39.711,Continuous,2022.1.1,37.5083362276789,
7,0,7,0,10,0,10,0,,,,,,,,2.980703921838945,frequency,222.72467953508485,6.176775574415576,0.0004498568279973293,0,57,[],0.017674210000222956,None,None,260.5438248999999,260.5438248999999,0.21575061000021378,3.1964545318391586,260.7580936000004,260.5438248999999,,,,,ikieoz,001,fr,2022-04-25_16h03.39.711,Continuous,2022.1.1,37.5083362276789,
7,0,7,0,11,0,11,0,,,,,,,,1.4133083882985382,frequency,198.42513149602493,12.966630885206932,0.0012066623718412813,0,58,[],0.017554009999912523,None,None,263.74219079999966,263.74219079999966,0.21593411000048945,1.6292424982990277,263.96592599999985,263.74219079999966,,,,,ikieoz,001,fr,2022-04-25_16h03.39.711,Continuous,2022.1.1,37.5083362276789,
7,0,7,0,12,0,12,0,,,,,,,,2.2905286466400487,frequency,176.77669529663686,10.580334899899535,0.001183343467543614,0,59,[],0.013790910001262091,0.20473231000050873,None,265.37003970000023,265.37003970000023,0.20473231000050873,2.4952609566405575,265.5806799000002,265.37003970000023,,,,,ikieoz,001,fr,2022-04-25_16h03.39.711,Continuous,2022.1.1,37.5083362276789,
7,0,7,0,13,0,13,0,,,,,,,,1.8367474286264538,frequency,157.49013123685913,7.212014218057927,0.0009943882279631632,0,60,[],0.015589509999699658,None,None,267.8690625999998,267.8690625999998,0.20988230999955704,2.046629738626011,268.0805915000001,267.8690625999998,,,,,ikieoz,001,fr,2022-04-25_16h03.39.711,Continuous,2022.1.1,37.5083362276789,
7,0,7,0,14,0,14,0,,,,,,,,2.5134742616469463,frequency,140.3077560386716,6.8731569372909185,0.001293837592817511,0,61,[],0.014784809999582649,0.20772960999966017,None,269.92187319999994,269.92187319999994,0.20772960999966017,2.7212038716466065,270.1345674000004,269.92187319999994,,,,,ikieoz,001,fr,2022-04-25_16h03.39.711,Continuous,2022.1.1,37.5083362276789,
8,0,8,0,0,0,0,0,,,,,0.3333333333333333,278.31766210000023,None,1.8735526808088132,both,6649.903169142304,12.4686784130853,0.0005908315068934004,0,47,[],0.022761910000554053,None,None,279.35536090000005,None,0.22764931000074284,2.101201990809556,279.57220489999963,None,,272.6574934,None,,ikieoz,001,fr,2022-04-25_16h03.39.711,Continuous,2022.1.1,37.5083362276789,
8,0,8,0,1,0,1,0,,,,,,,,1.8735526808088132,both,5278.031643091578,20.0,0.00142493270940771,0,48,[],0.011071209999499843,0.19953420999900118,['space'],281.4419661000002,281.4419661000002,0.19953420999900118,2.073086890807814,281.64874510000027,281.4419661000002,[-1.375601700000061],,,,ikieoz,001,fr,2022-04-25_16h03.39.711,Continuous,2022.1.1,37.5083362276789,
8,0,8,0,2,0,2,0,,,,,,,,1.8735526808088132,both,4189.176491282507,11.38918730703432,0.0003597799621543599,0,49,[],0.012968609999916225,0.2030273099999249,['space'],283.52094639999996,283.52094639999996,0.2030273099999249,2.076579990808738,283.72374200000013,283.52094639999996,[-1.662448100000347],,,,ikieoz,001,fr,2022-04-25_16h03.39.711,Continuous,2022.1.1,37.5083362276789,
8,0,8,0,3,0,3,0,,,,,,,,1.8735526808088132,both,,,,1,49,[],0.01759570999911375,None,None,285.60459249999985,285.60459249999985,0.2166518099993482,2.090204490808161,285.8164426000003,285.60459249999985,,,,,ikieoz,001,fr,2022-04-25_16h03.39.711,Continuous,2022.1.1,37.5083362276789,
8,0,8,0,4,0,4,0,,,,,,,,1.8735526808088132,both,2639.015821545789,19.922713165314633,0.000765721788471875,0,50,[],0.015051909999783675,None,None,287.69085879999966,287.69085879999966,0.21241950999956316,2.085972190808376,287.9062592999999,287.69085879999966,,,,,ikieoz,001,fr,2022-04-25_16h03.39.711,Continuous,2022.1.1,37.5083362276789,
8,0,8,0,5,0,5,0,,,,,,,,1.8735526808088132,both,2094.5882456412537,14.006529126764002,0.0003857456690732594,0,51,[],0.006577909998668474,None,['space'],289.7868355999999,289.7868355999999,0.2007317099987631,2.074284390807576,290.0011034999998,289.7868355999999,[-1.7685318999997435],,,,ikieoz,001,fr,2022-04-25_16h03.39.711,Continuous,2022.1.1,37.5083362276789,
8,0,8,0,6,0,6,0,,,,,,,,1.8735526808088132,both,1662.4757922855758,18.399458427902257,0.0004954634011064312,0,52,[],0.01424600999962422,0.20639260999996623,['space'],291.8784493000003,291.8784493000003,0.20639260999996623,2.079945290808779,292.0880900000002,291.8784493000003,[-1.652710500000012],,,,ikieoz,001,fr,2022-04-25_16h03.39.711,Continuous,2022.1.1,37.5083362276789,
8,0,8,0,7,0,7,0,,,,,,,,1.8735526808088132,both,1319.5079107728945,14.218112156533289,0.00027127162956126766,0,53,[],0.017184410000481876,None,['space'],293.9632443999999,293.9632443999999,0.2156690100009655,2.0892216908097785,294.16977959999986,293.9632443999999,[-1.689520899999934],,,,ikieoz,001,fr,2022-04-25_16h03.39.711,Continuous,2022.1.1,37.5083362276789,
8,0,8,0,8,0,8,0,,,,,,,,1.8735526808088132,both,1047.2941228206269,11.255248158662624,0.00016819351233435609,0,54,[],0.015617709998878126,0.21013780999965093,['space'],296.04890570000043,296.04890570000043,0.21013780999965093,2.083690490808464,296.25692999999956,296.04890570000043,[-1.6465622000000621],,,,ikieoz,001,fr,2022-04-25_16h03.39.711,Continuous,2022.1.1,37.5083362276789,
8,0,8,0,9,0,9,0,,,,,,,,1.8735526808088132,both,831.2378961427879,13.177583391968847,0.00017897165477735865,0,55,[],0.016783609999947657,None,['space'],298.12931039999967,298.12931039999967,0.21522451000055298,2.088777190809366,298.3414856999998,298.12931039999967,[-1.6791878000008182],,,,ikieoz,001,fr,2022-04-25_16h03.39.711,Continuous,2022.1.1,37.5083362276789,
,,,,,,,,,,,,,,,,,,,,,,,,,,,,,,,,,300.21982750000006,None,"[0.3333333333333333, 0.3333333333333333, 0.5833333333333334, 0.5833333333333334, 0.16666666666666666, 0.5833333333333334, 0.16666666666666666, 0.5833333333333334, 0.16666666666666666, 0.16666666666666666, 0.3333333333333333, 0.3333333333333333, 0.5833333333333334, 0.3333333333333333, 0.5833333333333334]",,,,,,,,
