tTrials.thisRepN,tTrials.thisTrialN,tTrials.thisN,tTrials.thisIndex,blocks.thisRepN,blocks.thisTrialN,blocks.thisN,blocks.thisIndex,trials.thisRepN,trials.thisTrialN,trials.thisN,trials.thisIndex,tStart_text.started,tStart_text.stopped,Prediction,practice_Frequency,practice_Level,practice_Psychopy_Level,practice_isCatchTrial,Practice_trial_detection,practice_Cue_Delays,practice_Cue_Frequencies,practice_Interval,practice_Cue_Intensities,tCue_visual_cue.started,tCue_visual_cue.stopped,tProbe_visual_cue.started,tProbe_visual_cue.stopped,tFeedback.keys,tFeedback.corr,tFeedback.rt,tFeedback.started,tFeedback.stopped,tToo_late.keys,tToo_late.corr,tToo_early.keys,tToo_early.corr,tToo_early.rt,more_instructions.started,more_instructions.stopped,readyy.keys,readyy.rt,readyy.started,readyy.stopped,txt_rhythm.started,txt_rhythm.stopped,sound_1.started,sound_1.stopped,sound_2.started,sound_2.stopped,sound_3.started,sound_3.stopped,sound_4.started,sound_4.stopped,cross.started,cross.stopped,sound_5.started,sound_5.stopped,circle.started,circle.stopped,rhythm_ready.keys,rhythm_ready.rt,rhythm_ready.started,rhythm_ready.stopped,rhytm_ready_txt.started,rhytm_ready_txt.stopped,txt_freq.started,txt_freq.stopped,sound_6.started,sound_6.stopped,sound_7.started,sound_7.stopped,sound_8.started,sound_8.stopped,sound_9.started,sound_9.stopped,cross_2.started,cross_2.stopped,sound_10.started,sound_10.stopped,circle_2.started,circle_2.stopped,freq_ready.keys,freq_ready.rt,freq_ready.started,freq_ready.stopped,freq_ready_txt.started,freq_ready_txt.stopped,txt_freq_2.started,txt_freq_2.stopped,sound_11.started,sound_11.stopped,sound_12.started,sound_12.stopped,sound_13.started,sound_13.stopped,sound_14.started,sound_14.stopped,cross_3.started,cross_3.stopped,sound_15.started,sound_15.stopped,circle_3.started,circle_3.stopped,freq_ready_2.keys,freq_ready_2.rt,freq_ready_2.started,freq_ready_2.stopped,freq_ready_txt_2.started,freq_ready_txt_2.stopped,txt_freq_3.started,txt_freq_3.stopped,sound_16.started,sound_16.stopped,sound_17.started,sound_17.stopped,sound_18.started,sound_18.stopped,sound_19.started,sound_19.stopped,cross_4.started,cross_4.stopped,sound_20.started,sound_20.stopped,circle_4.started,circle_4.stopped,freq_ready_txt_3.started,freq_ready_txt_3.stopped,tStart_text_2.started,tStart_text_2.stopped,this_trial_is.started,this_trial_is.stopped,Frequency,Level,Psychopy_Level,Real trial detection,Cue Delays,Cue Frequencies,Interval,Cue Intensities,Catch trial,cue_visual_cue.started,cue_visual_cue.stopped,probe_visual_cue.started,probe_visual_cue.stopped,feedback.keys,feedback.corr,feedback.started,feedback.stopped,answer_too_late.keys,answer_too_late.corr,answer_too_early.keys,answer_too_early.corr,answer_too_early.rt,feedback.rt,Catch trial answer,answer_too_late.rt,Audiogram_time,Audiogram_frequency,Audiogram_none,Audiogram_both,participant,session,Language (english or french),Skip training? (1 for yes),Resume previous experiment,date,expName,psychopyVersion,frameRate,
0,0,0,0,,,,,,,,,29.512112499999603,None,time,1000,30,0.0013930605843148849,False,1,"[0.7419566410556165, 0.7419566410556165, 0.7419566410556165, 0.7419566410556165]","[1200.0965479481138, 722.1766718832937, 240.95062548904787, 923.9110743679131]",None,"[30, 30, 30, 30]",50.49047849999988,53.65168569999969,53.65168569999969,54.88960580000003,['space'],1,[0.6312173999995139],53.65168569999969,55.632090699999935,None,1,['space'],0,[1.1990746000001309],,,,,,,,,,,,,,,,,,,,,,,,,,,,,,,,,,,,,,,,,,,,,,,,,,,,,,,,,,,,,,,,,,,,,,,,,,,,,,,,,,,,,,,,,,,,,,,,,,,,,,,,,,,,,,,,,,,,,,,,,,,,ikieoz,001,fr,0,0,2022-04-25_16h11.31.989,Cluster,2022.1.1,None,
1,0,1,0,,,,,,,,,,,frequency,2500,30,0.002716251657462167,False,1,"[0.5501728339624933, 0.6427526161250454, 0.5464488449980455, 0.6049404005440461]","[1574.901312368591, 1767.7669529663685, 1984.2513149602491, 2227.246795350848]",Tone,"[30, 30, 30, 30]",61.618598799999745,64.28032629999962,64.28032629999962,65.5071753000002,['space'],1,[0.40186419999918144],64.28032629999962,66.10654819999945,None,1,None,1,,,,,,,,,,,,,,,,,,,,,,,,,,,,,,,,,,,,,,,,,,,,,,,,,,,,,,,,,,,,,,,,,,,,,,,,,,,,,,,,,,,,,,,,,,,,,,,,,,,,,,,,,,,,,,,,,,,,,,,,,,,,,ikieoz,001,fr,0,0,2022-04-25_16h11.31.989,Cluster,2022.1.1,None,
2,0,2,0,,,,,,,,,,,time,6000,30,0.003664122665694519,True,0,"[0.6303459350203807, 0.6303459350203807, 0.6303459350203807, 0.6303459350203807]","[4383.912183451926, 835.8242175972225, 5375.305187375974, 4013.8985238084488]",None,"[30, 30, 30, 30]",71.10560139999961,73.92499080000016,73.92499080000016,75.16687110000021,['space'],0,[0.4213042999999743],73.92499080000016,75.79379499999959,None,1,None,1,,,,,,,,,,,,,,,,,,,,,,,,,,,,,,,,,,,,,,,,,,,,,,,,,,,,,,,,,,,,,,,,,,,,,,,,,,,,,,,,,,,,,,,,,,,,,,,,,,,,,,,,,,,,,,,,,,,,,,,,,,,,,ikieoz,001,fr,0,0,2022-04-25_16h11.31.989,Cluster,2022.1.1,None,
3,0,3,0,,,,,,,,,,,time,440,30,0.0023562289915021436,False,1,"[0.672056746538099, 0.672056746538099, 0.672056746538099, 0.672056746538099]","[312.206255741346, 452.61811391828707, 317.09753441503574, 6795.599321367641]",None,"[30, 30, 30, 30]",81.27081939999971,84.23675989999992,84.23675989999992,85.46143119999942,['space'],1,[0.47823239999979705],84.23675989999992,86.13443349999943,None,1,None,1,,,,,,,,,,,,,,,,,,,,,,,,,,,,,,,,,,,,,,,,,,,,,,,,,,,,,,,,,,,,,,,,,,,,,,,,,,,,,,,,,,,,,,,,,,,,,,,,,,,,,,,,,,,,,,,,,,,,,,,,,,,,,ikieoz,001,fr,0,0,2022-04-25_16h11.31.989,Cluster,2022.1.1,None,
4,0,4,0,,,,,,,,,,,time,250,30,0.005296268625886445,True,1,"[0.5898296837018524, 0.5898296837018524, 0.5898296837018524, 0.5898296837018524]","[5907.400491731914, 1729.650222320919, 614.6003921360344, 4670.931611756974]",None,"[30, 30, 30, 30]",90.21488299999965,92.91116479999982,92.91116479999982,94.14834700000029,None,1,,92.91116479999982,94.7474916000001,None,1,None,1,,,,,,,,,,,,,,,,,,,,,,,,,,,,,,,,,,,,,,,,,,,,,,,,,,,,,,,,,,,,,,,,,,,,,,,,,,,,,,,,,,,,,,,,,,,,,,,,,,,,,,,,,,,,,,,,,,,,,,,,,,,,,ikieoz,001,fr,0,0,2022-04-25_16h11.31.989,Cluster,2022.1.1,None,
,,,,,,,,,,,,,,,,,,,,,,,,,,,,,,,,,,,,,,98.82048510000004,None,space,25.31798879999951,98.82048510000004,None,,,,,,,,,,,,,,,,,,,,,,,,,,,,,,,,,,,,,,,,,,,,,,,,,,,,,,,,,,,,,,,,,,,,,,,,,,,,,,,,,,,,,,,,,,,,,,,,,,,,,,,,,,,,,,,,,,,,,,ikieoz,001,fr,0,0,2022-04-25_16h11.31.989,Cluster,2022.1.1,None,
,,,,,,,,,,,,,,,,,,,,,,,,,,,,,,,,,,,,,,,,,,,,124.1818475,125.20700099999976,125.67601326666615,None,126.17804716666639,None,126.6769303666663,None,127.1769746666662,None,125.57388480000009,127.40888619999987,127.68182596666635,None,127.40888619999987,128.2275066000002,space,2.1100790000000416,128.3961422000002,None,,,,,,,,,,,,,,,,,,,,,,,,,,,,,,,,,,,,,,,,,,,,,,,,,,,,,,,,,,,,,,,,,,,,,,,,,,,,,,,,,,,,,,,,,,,,,,,,,,ikieoz,001,fr,0,0,2022-04-25_16h11.31.989,Cluster,2022.1.1,None,
,,,,,,,,,,,,,,,,,,,,,,,,,,,,,,,,,,,,,,,,,,,,,,,,,,,,,,,,,,,,,,,,128.3961422000002,None,130.56526639999993,131.5925255000002,132.06107986666692,132.2824595000002,132.35317026666624,None,133.0486159666664,None,133.45406496666627,None,131.9585030999997,133.77953290000005,134.0504041666666,None,133.77953290000005,134.60544519999985,space,2.277485099999467,134.7728992000002,None,,,,,,,,,,,,,,,,,,,,,,,,,,,,,,,,,,,,,,,,,,,,,,,,,,,,,,,,,,,,,,,,,,,,,,,,,,,,ikieoz,001,fr,0,0,2022-04-25_16h11.31.989,Cluster,2022.1.1,None,
,,,,,,,,,,,,,,,,,,,,,,,,,,,,,,,,,,,,,,,,,,,,,,,,,,,,,,,,,,,,,,,,,,,,,,,,,,,,,,,,,,,,,,134.7728992000002,None,137.09263680000004,138.11773429999994,138.55571186666683,None,139.06264466666678,139.2874026999998,139.56447566666637,None,140.05685886666677,None,138.48354000000018,140.28854440000032,140.56522066666665,None,140.28854440000032,141.10998349999954,space,2.0065623999998934,141.28356939999958,None,,,,,,,,,,,,,,,,,,,,,,,,,,,,,,,,,,,,,,,,,,,,,,,,,,,,,,ikieoz,001,fr,0,0,2022-04-25_16h11.31.989,Cluster,2022.1.1,None,
,,,,0,0,0,0,0,0,0,0,,,both,,,,,,,,,,,,,,,,,,,,,,,,,,,,,,,,,,,,,,,,,,,,,,,,,,,,,,,,,,,,,,,,,,,,,,,,,,,,,,,,,,,,,,,,,,,,,,141.28356939999958,None,143.3469557999997,144.37857729999996,144.81352446666668,None,145.11536426666615,145.3329907999996,145.83074066666657,None,146.2233077666663,146.45112169999993,144.72308369999973,146.5345312999998,146.83138656666623,147.05694659999972,146.5345312999998,147.3479709000003,147.51959739999984,None,148.55257729999994,None,183.47684519999984,None,1679.8272930165888,12.346371216546501,0.00025005281603425987,0,"[0.6412895676470007, 0.6412895676470007, 0.6412895676470007, 0.6412895676470007]","[2666.5596120594264, 2375.6345402285433, 2116.4497666595234, 1885.5423841253896]",Tone,"[15.727744022958504, 17.0, 17.75146695127146, 18.58621091439418]",False,184.45260229999985,187.39254970000002,187.39254970000002,188.62509090000003,None,0,3.5864637666654744,4.603204366665523,None,1,['space'],0,[0.4410256999990452],,,,,,,,ikieoz,001,fr,0,0,2022-04-25_16h11.31.989,Cluster,2022.1.1,None,
,,,,0,0,0,0,1,0,1,0,,,time,,,,,,,,,,,,,,,,,,,,,,,,,,,,,,,,,,,,,,,,,,,,,,,,,,,,,,,,,,,,,,,,,,,,,,,,,,,,,,,,,,,,,,,,,,,,,,,,,,,,,,,,,,,,,,,,,,,,189.09010250000028,None,549.2655732182533,19.988071448995573,0.0006367174810910394,1,"[0.46694703799411563, 0.46694703799411563, 0.46694703799411563, 0.46694703799411563]","[361.5822195046852, 1314.8212803154559, 563.7055845648782, 513.0915653242201]",None,"[31.367258929177495, 16.910019972301612, 25.0, 27.0]",False,190.08503360000032,192.50705990000006,192.50705990000006,193.7300680999997,['space'],1,2.896906066665906,3.933501966665972,None,1,None,1,,[0.2597067999995488],,,,,,,ikieoz,001,fr,0,0,2022-04-25_16h11.31.989,Cluster,2022.1.1,None,
,,,,0,0,0,0,2,0,2,0,,,both,,,,,,,,,,,,,,,,,,,,,,,,,,,,,,,,,,,,,,,,,,,,,,,,,,,,,,,,,,,,,,,,,,,,,,,,,,,,,,,,,,,,,,,,,,,,,,,,,,,,,,,,,,,,,,,,,,,,194.05226539999967,None,176.7766952966369,19.0,0.003119565241000184,1,"[0.46050233518640216, 0.46050233518640216, 0.46050233518640216, 0.46050233518640216]","[890.8987181403394, 594.6035575013606, 396.8502629920499, 264.86577358982385]",Perfect_5th,"[18.0, 24.0, 30.520988351585586, 27.612229534922236]",False,195.07322740000018,197.49798490000012,197.49798490000012,198.72872449999977,['space'],1,2.849753666666402,3.873767166665857,None,1,None,1,,[0.18605500000012398],,,,,,,ikieoz,001,fr,0,0,2022-04-25_16h11.31.989,Cluster,2022.1.1,None,
,,,,0,0,0,0,3,0,3,0,,,frequency,,,,,,,,,,,,,,,,,,,,,,,,,,,,,,,,,,,,,,,,,,,,,,,,,,,,,,,,,,,,,,,,,,,,,,,,,,,,,,,,,,,,,,,,,,,,,,,,,,,,,,,,,,,,,,,,,,,,198.99130409999998,None,,,,,"[0.5290054590759676, 0.7449410266622561, 0.6373880311667456, 0.7639523744637853]","[1448.3680146361446, 1290.3492076348093, 1149.570455035254, 1024.1508448029144]",Tone,"[17.39714282839313, 16.910019972301612, 16.41519521995837, 16.907295475076943]",True,199.9953134999996,202.93931629999952,202.93931629999952,204.1736447000003,None,1,3.7093064666669306,4.750242366666498,None,1,None,1,,,0,,,,,,ikieoz,001,fr,0,0,2022-04-25_16h11.31.989,Cluster,2022.1.1,None,
,,,,0,0,0,0,4,0,4,0,,,time,,,,,,,,,,,,,,,,,,,,,,,,,,,,,,,,,,,,,,,,,,,,,,,,,,,,,,,,,,,,,,,,,,,,,,,,,,,,,,,,,,,,,,,,,,,,,,,,,,,,,,,,,,,,,,,,,,,,204.77923790000023,None,176.7766952966369,19.0,0.003119565241000184,1,"[0.7163223097195509, 0.7163223097195509, 0.7163223097195509, 0.7163223097195509]","[3499.2496615525592, 3014.7967588146307, 6200.107759955689, 1261.5611705905985]",None,"[16.02710471033498, 15.338393759349065, 16.53660351984219, 16.557281121282692]",False,205.78145140000015,208.96719769999982,208.96719769999982,210.19401670000025,['space'],1,3.8763634666665894,4.915245966666589,None,1,None,1,,[0.3536634000001868],,,,,,,ikieoz,001,fr,0,0,2022-04-25_16h11.31.989,Cluster,2022.1.1,None,
,,,,0,0,0,0,5,0,5,0,,,both,,,,,,,,,,,,,,,,,,,,,,,,,,,,,,,,,,,,,,,,,,,,,,,,,,,,,,,,,,,,,,,,,,,,,,,,,,,,,,,,,,,,,,,,,,,,,,,,,,,,,,,,,,,,,,,,,,,,210.7509143999996,None,1315.5579782513068,10.910019972301614,0.00018569742083191336,1,"[0.5406168885821955, 0.5406168885821955, 0.5406168885821955, 0.5406168885821955]","[522.0795296503205, 657.7789891256534, 828.7495945779816, 1044.159059300641]",Major_3rd,"[26.0, 22.575394634166223, 19.0, 16.52712978726722]",False,211.7651592000002,214.42051889999948,214.42051889999948,215.6475191999998,['space'],1,3.1824091666658205,4.223210766665943,None,1,None,1,,[0.3087063000002672],,,,,,,ikieoz,001,fr,0,0,2022-04-25_16h11.31.989,Cluster,2022.1.1,None,
,,,,0,0,0,0,6,0,6,0,,,frequency,,,,,,,,,,,,,,,,,,,,,,,,,,,,,,,,,,,,,,,,,,,,,,,,,,,,,,,,,,,,,,,,,,,,,,,,,,,,,,,,,,,,,,,,,,,,,,,,,,,,,,,,,,,,,,,,,,,,216.03324220000013,None,854.5638036800499,12.368777138069806,0.000165812469824251,1,"[0.5242443957904371, 0.7462441211212469, 0.5460992356846827, 0.5274923246178261]","[1356.5354809356572, 1208.5357210774657, 1076.6829247347248, 959.2154374897577]",Tone,"[17.0, 16.557281121282692, 16.52712978726722, 17.536976808502533]",False,217.04575120000027,219.89239869999983,219.89239869999983,221.1045151999997,['space'],1,3.3792765666657942,4.402331766666066,None,1,None,1,,[0.3203407999990304],,,,,,,ikieoz,001,fr,0,0,2022-04-25_16h11.31.989,Cluster,2022.1.1,None,
,,,,0,0,0,0,7,0,7,0,,,time,,,,,,,,,,,,,,,,,,,,,,,,,,,,,,,,,,,,,,,,,,,,,,,,,,,,,,,,,,,,,,,,,,,,,,,,,,,,,,,,,,,,,,,,,,,,,,,,,,,,,,,,,,,,,,,,,,,,221.48220949999995,None,1773.112260617576,12.593949728891563,0.00027523822353891066,1,"[0.4055683680725589, 0.4055683680725589, 0.4055683680725589, 0.4055683680725589]","[1190.2021024135365, 750.9539660818589, 127.69355310794424, 3898.5453386823588]",None,"[16.557281121282692, 20.393573098672633, 20.54640194650904, 16.867300937553054]",False,222.49680480000006,224.72868769999968,224.72868769999968,225.96479180000006,['space'],1,2.6483452666661833,3.6709800666667434,None,1,None,1,,[0.2567905999994764],,,,,,,ikieoz,001,fr,0,0,2022-04-25_16h11.31.989,Cluster,2022.1.1,None,
,,,,0,0,0,0,8,0,8,0,,,none,,,,,,,,,,,,,,,,,,,,,,,,,,,,,,,,,,,,,,,,,,,,,,,,,,,,,,,,,,,,,,,,,,,,,,,,,,,,,,,,,,,,,,,,,,,,,,,,,,,,,,,,,,,,,,,,,,,,226.20887010000024,None,1833.2878657035508,12.586210914394181,0.0002865653774068963,1,"[0.7643568285218759, 0.7685938100123301, 0.5956987968965853, 0.6470980574008064]","[2603.3514902968827, 3618.988287220905, 3121.272340116853, 702.2059089996222]",None,"[15.727744022958504, 16.506253786942413, 15.338393759349065, 21.479916871836636]",False,227.21804900000006,230.38951319999978,230.38951319999978,231.60895379999965,['space'],1,3.812689766667063,4.848031866667043,None,1,None,1,,[0.09855429999970511],,,,,,,ikieoz,001,fr,0,0,2022-04-25_16h11.31.989,Cluster,2022.1.1,None,
,,,,0,0,0,0,9,0,9,0,,,frequency,,,,,,,,,,,,,,,,,,,,,,,,,,,,,,,,,,,,,,,,,,,,,,,,,,,,,,,,,,,,,,,,,,,,,,,,,,,,,,,,,,,,,,,,,,,,,,,,,,,,,,,,,,,,,,,,,,,,232.1024596999996,None,,,,,"[0.6789700922019493, 0.5728264235877757, 0.5954151270288113, 0.4207765560580816]","[158.359862283548, 199.52092394949534, 251.3806119784433, 316.719724567096]",Major_3rd,"[19.310635395283462, 21.0, 26.0, 30.319445914765076]",True,233.11918349999996,235.99995229999968,235.99995229999968,237.2172803000003,['space'],0,3.2915050666661045,4.327693166665995,None,1,None,1,,[0.1430265999997573],0,,,,,,ikieoz,001,fr,0,0,2022-04-25_16h11.31.989,Cluster,2022.1.1,None,
,,,,0,0,0,0,10,0,10,0,,,time,,,,,,,,,,,,,,,,,,,,,,,,,,,,,,,,,,,,,,,,,,,,,,,,,,,,,,,,,,,,,,,,,,,,,,,,,,,,,,,,,,,,,,,,,,,,,,,,,,,,,,,,,,,,,,,,,,,,237.48280840000007,None,353.5533905932738,20.0,0.000886123302070378,1,"[0.4731812171061716, 0.4731812171061716, 0.4731812171061716, 0.4731812171061716]","[5447.728832715337, 484.71975056217235, 1265.121005103031, 597.3473271189065]",None,"[16.36011602406733, 28.0, 16.557281121282692, 24.0]",False,238.49894659999973,240.95796210000026,240.95796210000026,242.1856455999996,['space'],1,2.931216433334157,3.9441244333338545,None,1,None,1,,[0.40213519999997516],,,,,,,ikieoz,001,fr,0,0,2022-04-25_16h11.31.989,Cluster,2022.1.1,None,
,,,,0,0,0,0,11,0,11,0,,,time,,,,,,,,,,,,,,,,,,,,,,,,,,,,,,,,,,,,,,,,,,,,,,,,,,,,,,,,,,,,,,,,,,,,,,,,,,,,,,,,,,,,,,,,,,,,,,,,,,,,,,,,,,,,,,,,,,,,242.47946739999952,None,594.7963699137609,18.0,0.0004500380122549764,1,"[0.7781410945600344, 0.7781410945600344, 0.7781410945600344, 0.7781410945600344]","[6233.636461590761, 946.7666311390456, 697.7984010885405, 1022.4689657376383]",None,"[17.0, 17.536976808502533, 21.479916871836636, 16.907295475076943]",False,243.49634520000018,246.8493599000003,246.8493599000003,248.05902080000033,['space'],1,4.14721496666607,5.180328966665911,None,1,None,1,,[0.25261200000022654],,,,,,,ikieoz,001,fr,0,0,2022-04-25_16h11.31.989,Cluster,2022.1.1,None,
,,,,0,0,0,0,12,0,12,0,,,time,,,,,,,,,,,,,,,,,,,,,,,,,,,,,,,,,,,,,,,,,,,,,,,,,,,,,,,,,,,,,,,,,,,,,,,,,,,,,,,,,,,,,,,,,,,,,,,,,,,,,,,,,,,,,,,,,,,,248.71529959999953,None,1071.7734625362941,34.0,0.002358312528927215,1,"[0.6057730932508452, 0.6057730932508452, 0.6057730932508452, 0.6057730932508452]","[171.52558133073347, 1497.2179278782887, 2860.8737326509854, 165.3573945590387]",None,"[19.6209483717776, 17.90976647246743, 15.379151084288148, 19.30427764440696]",False,251.50468159999946,254.34845330000007,254.34845330000007,255.59021889999985,['space'],1,3.450013133333414,4.476541733333761,None,1,None,1,,[0.31068689999938215],,,,,,,ikieoz,001,fr,0,0,2022-04-25_16h11.31.989,Cluster,2022.1.1,None,
,,,,0,0,0,0,13,0,13,0,,,frequency,,,,,,,,,,,,,,,,,,,,,,,,,,,,,,,,,,,,,,,,,,,,,,,,,,,,,,,,,,,,,,,,,,,,,,,,,,,,,,,,,,,,,,,,,,,,,,,,,,,,,,,,,,,,,,,,,,,,256.0291965999995,None,,,,,"[0.6137839765966272, 0.5004832043364209, 0.7682578054695819, 0.5871343808040892]","[648.7536355578446, 577.9737823073687, 514.9161017763582, 458.73809502237805]",Tone,"[23.0, 24.811445844059197, 27.0, 28.42596580616531]",True,257.0444066,259.9629729999997,259.9629729999997,261.1807719999997,None,1,3.5119378666668126,4.54184236666697,None,1,None,1,,,0,,,,,,ikieoz,001,fr,0,0,2022-04-25_16h11.31.989,Cluster,2022.1.1,None,
,,,,0,0,0,0,14,0,14,0,,,time,,,,,,,,,,,,,,,,,,,,,,,,,,,,,,,,,,,,,,,,,,,,,,,,,,,,,,,,,,,,,,,,,,,,,,,,,,,,,,,,,,,,,,,,,,,,,,,,,,,,,,,,,,,,,,,,,,,,261.6167481000002,None,5995.803943649803,10.536603519842188,0.0003902831129771662,1,"[0.43457075648048726, 0.43457075648048726, 0.43457075648048726, 0.43457075648048726]","[254.28163161244396, 5678.058944497152, 673.1281483703945, 2581.056401302809]",None,"[26.0, 16.27400671602057, 22.0, 16.0]",False,262.6078113000003,264.9364052000001,264.9364052000001,266.1731818999997,['space'],1,2.7661765666662177,3.798731866666458,None,1,None,1,,[0.36434169999938604],,,,,,,ikieoz,001,fr,0,0,2022-04-25_16h11.31.989,Cluster,2022.1.1,None,
,,,,0,0,0,0,15,0,15,0,,,none,,,,,,,,,,,,,,,,,,,,,,,,,,,,,,,,,,,,,,,,,,,,,,,,,,,,,,,,,,,,,,,,,,,,,,,,,,,,,,,,,,,,,,,,,,,,,,,,,,,,,,,,,,,,,,,,,,,,266.44874230000005,None,176.7766952966369,18.0,0.0027803154476108384,1,"[0.6719086279546234, 0.7807030791011909, 0.7191570119276964, 0.68849877193699]","[1937.780310873988, 417.27574841862497, 2384.5216940949886, 738.5451947117541]",None,"[18.297056651816593, 30.0, 17.0, 21.0]",False,267.5127394000001,270.6999203999994,270.6999203999994,271.93971899999997,['space'],1,3.8781228333327817,4.916231333332689,None,1,None,1,,[0.3074724999996761],,,,,,,ikieoz,001,fr,0,0,2022-04-25_16h11.31.989,Cluster,2022.1.1,None,
,,,,0,0,0,0,16,0,16,0,,,none,,,,,,,,,,,,,,,,,,,,,,,,,,,,,,,,,,,,,,,,,,,,,,,,,,,,,,,,,,,,,,,,,,,,,,,,,,,,,,,,,,,,,,,,,,,,,,,,,,,,,,,,,,,,,,,,,,,,272.4647795000001,None,128.86052125265655,14.54640194650904,0.00367391962251132,0,"[0.6802300341643818, 0.6276229493150388, 0.7911893341441696, 0.5138567189350555]","[1587.66082711717, 951.9710668725762, 5767.151426976896, 5234.557337728363]",None,"[18.3463712165465, 17.536976808502533, 16.27400671602057, 16.36011602406733]",False,273.4775002999995,276.60230239999964,276.60230239999964,277.8225738000001,None,0,3.6324833666667473,4.6638940666662165,None,1,None,1,,,,,,,,,ikieoz,001,fr,0,0,2022-04-25_16h11.31.989,Cluster,2022.1.1,None,
,,,,0,0,0,0,17,0,17,0,,,none,,,,,,,,,,,,,,,,,,,,,,,,,,,,,,,,,,,,,,,,,,,,,,,,,,,,,,,,,,,,,,,,,,,,,,,,,,,,,,,,,,,,,,,,,,,,,,,,,,,,,,,,,,,,,,,,,,,,278.18132799999967,None,,,,,"[0.5399474272395126, 0.4750562793485986, 0.5601072309332689, 0.44486680337166007]","[323.0739660832576, 3339.189902184961, 5647.72165030929, 1033.2966458512255]",None,"[31.0, 15.585569304371509, 16.27400671602057, 16.907295475076943]",True,279.1986866999996,281.81785899999977,281.81785899999977,283.0365974999995,None,1,3.0392266666667638,4.076909266666917,None,1,None,1,,,0,,,,,,ikieoz,001,fr,0,0,2022-04-25_16h11.31.989,Cluster,2022.1.1,None,
,,,,0,0,0,0,18,0,18,0,,,none,,,,,,,,,,,,,,,,,,,,,,,,,,,,,,,,,,,,,,,,,,,,,,,,,,,,,,,,,,,,,,,,,,,,,,,,,,,,,,,,,,,,,,,,,,,,,,,,,,,,,,,,,,,,,,,,,,,,283.3064994999995,None,353.5533905932738,20.0,0.000886123302070378,1,"[0.7291988070557008, 0.5698495294373873, 0.591521626854144, 0.7572125567545261]","[140.6540404952981, 4008.751340939053, 6060.254140033199, 3437.7119344911334]",None,"[19.577230263869932, 16.867300937553054, 16.53660351984219, 16.0]",False,284.3228121000002,287.23660670000027,287.23660670000027,288.45692150000013,['space'],1,3.6643966333331264,4.691799233333768,None,1,None,1,,[0.5636859999995067],,,,,,,ikieoz,001,fr,0,0,2022-04-25_16h11.31.989,Cluster,2022.1.1,None,
,,,,0,0,0,0,19,0,19,0,,,frequency,,,,,,,,,,,,,,,,,,,,,,,,,,,,,,,,,,,,,,,,,,,,,,,,,,,,,,,,,,,,,,,,,,,,,,,,,,,,,,,,,,,,,,,,,,,,,,,,,,,,,,,,,,,,,,,,,,,,289.0535345999997,None,176.7766952966369,18.0,0.0027803154476108384,1,"[0.5904456328575607, 0.7782166001088813, 0.7177568181788151, 0.496499572115334]","[445.44935907016975, 353.55339059327383, 280.6155120773433, 222.72467953508485]",Major_3rd,"[29.0, 31.367258929177495, 29.0, 23.0]",False,290.07815870000013,293.1803073000001,293.1803073000001,294.3930522999999,['space'],1,3.6129034333325762,4.636722433332579,None,1,None,1,,[0.3510714000003645],,,,,,,ikieoz,001,fr,0,0,2022-04-25_16h11.31.989,Cluster,2022.1.1,None,
,,,,1,0,1,0,0,0,0,0,,,frequency,,,,,,,,,,,,,,,,,,,,,,,,,,,,,,,,,,,,,,,,,,,,,,,,,,,,,,,,,,,,,,,,,,,,,,,,,,,,,,,,,,,,,,,,,,,,,,,,,,,,,,,,,,,,,,,,,,,,303.1429591999995,None,593.5413130118794,18.0,0.00045159322228785346,1,"[0.4304925508899662, 0.4697193346609832, 0.5687392783874894, 0.6337442233338829]","[373.90759712295426, 419.6970873450671, 471.09405233082185, 528.7851949256172]",Tone,"[31.1577337793156, 30.0, 28.42596580616531, 26.0]",False,304.1123404,306.61508439999943,306.61508439999943,307.84413829999994,['space'],1,3.123521766666272,4.140001466666035,None,1,None,1,,[0.4542641999996704],,,,,,,ikieoz,001,fr,0,0,2022-04-25_16h11.31.989,Cluster,2022.1.1,None,
,,,,1,0,1,0,1,0,1,0,,,both,,,,,,,,,,,,,,,,,,,,,,,,,,,,,,,,,,,,,,,,,,,,,,,,,,,,,,,,,,,,,,,,,,,,,,,,,,,,,,,,,,,,,,,,,,,,,,,,,,,,,,,,,,,,,,,,,,,,308.30273380000017,None,353.5533905932738,20.0,0.000886123302070378,1,"[0.5396013773583891, 0.5396013773583891, 0.5396013773583891, 0.5396013773583891]","[222.72467953508485, 250.00000000000003, 280.6155120773433, 314.9802624737183]",Tone,"[23.0, 25.93472087272818, 29.0, 30.319445914765076]",False,309.3319531999996,311.9892294000001,311.9892294000001,313.2059760000002,['space'],1,3.1859642666659056,4.218705466666506,None,1,None,1,,[0.40493489999971644],,,,,,,ikieoz,001,fr,0,0,2022-04-25_16h11.31.989,Cluster,2022.1.1,None,
,,,,1,0,1,0,2,0,2,0,,,none,,,,,,,,,,,,,,,,,,,,,,,,,,,,,,,,,,,,,,,,,,,,,,,,,,,,,,,,,,,,,,,,,,,,,,,,,,,,,,,,,,,,,,,,,,,,,,,,,,,,,,,,,,,,,,,,,,,,313.59991809999974,None,,,,,"[0.47749757890555744, 0.6558457047158242, 0.4849997252829391, 0.6537176734925791]","[1419.8375844383186, 3101.687658806052, 3537.963012358038, 1283.0789092720913]",None,"[17.39714282839313, 15.338393759349065, 16.02710471033498, 16.910019972301612]",True,314.61020629999985,317.25517279999985,317.25517279999985,318.5070945999996,None,1,3.3064730666665128,4.323761266666224,None,1,None,1,,,0,,,,,,ikieoz,001,fr,0,0,2022-04-25_16h11.31.989,Cluster,2022.1.1,None,
,,,,1,0,1,0,3,0,3,0,,,both,,,,,,,,,,,,,,,,,,,,,,,,,,,,,,,,,,,,,,,,,,,,,,,,,,,,,,,,,,,,,,,,,,,,,,,,,,,,,,,,,,,,,,,,,,,,,,,,,,,,,,,,,,,,,,,,,,,,318.9788725999997,None,5553.884406153284,10.274006716020569,0.00043184567019611457,1,"[0.6169034627949258, 0.6169034627949258, 0.6169034627949258, 0.6169034627949258]","[1102.0302436046877, 1651.1797129250367, 2473.97424907079, 3706.7731253934385]",Perfect_5th,"[16.52712978726722, 18.3463712165465, 16.330229238830245, 16.506253786942413]",False,319.99063639999986,322.86237749999964,322.86237749999964,324.09596429999965,['space'],1,3.48841956666638,4.505845866666277,None,1,None,1,,[0.4032448999996632],,,,,,,ikieoz,001,fr,0,0,2022-04-25_16h11.31.989,Cluster,2022.1.1,None,
,,,,1,0,1,0,4,0,4,0,,,both,,,,,,,,,,,,,,,,,,,,,,,,,,,,,,,,,,,,,,,,,,,,,,,,,,,,,,,,,,,,,,,,,,,,,,,,,,,,,,,,,,,,,,,,,,,,,,,,,,,,,,,,,,,,,,,,,,,,324.536572,None,1071.7734625362941,19.0,0.00041937386126280897,1,"[0.6455824646169486, 0.6455824646169486, 0.6455824646169486, 0.6455824646169486]","[1701.334321901713, 1515.7165665103996, 1350.3499461681913, 1203.0250360821178]",Tone,"[18.593949728891563, 17.90976647246743, 17.0, 16.557281121282692]",False,328.6339988,331.59402919999957,331.59402919999957,332.8227555000003,['space'],1,3.6062575000014476,4.620200500001374,None,1,None,1,,[0.3759812999996939],,,,,,,ikieoz,001,fr,0,0,2022-04-25_16h11.31.989,Cluster,2022.1.1,None,
,,,,1,0,1,0,5,0,5,0,,,none,,,,,,,,,,,,,,,,,,,,,,,,,,,,,,,,,,,,,,,,,,,,,,,,,,,,,,,,,,,,,,,,,,,,,,,,,,,,,,,,,,,,,,,,,,,,,,,,,,,,,,,,,,,,,,,,,,,,333.2928519999996,None,3112.059272134118,9.338393759349065,0.00019172901431683176,1,"[0.7328257837847226, 0.4823717244643488, 0.4495350994702147, 0.5929643786264105]","[1003.6242348496589, 295.80687924227163, 565.5676626589294, 224.07349301345786]",None,"[16.907295475076943, 30.0, 25.0, 23.0]",False,334.30658829999993,337.0101007000003,337.0101007000003,338.25978140000007,['space'],1,3.2785145666657627,4.323480566666149,None,1,None,1,,[0.3938962999991418],,,,,,,ikieoz,001,fr,0,0,2022-04-25_16h11.31.989,Cluster,2022.1.1,None,
,,,,1,0,1,0,6,0,6,0,,,frequency,,,,,,,,,,,,,,,,,,,,,,,,,,,,,,,,,,,,,,,,,,,,,,,,,,,,,,,,,,,,,,,,,,,,,,,,,,,,,,,,,,,,,,,,,,,,,,,,,,,,,,,,,,,,,,,,,,,,338.6729513,None,,,,,"[0.7718205384752435, 0.5640371122890702, 0.4330456430817274, 0.6621506047181795]","[2234.7739597697782, 1990.9572560923054, 1773.741267324842, 1580.2238213723226]",Tone,"[17.053352851256424, 18.297056651816593, 18.593949728891563, 18.0]",True,339.6797461999995,342.4865541999998,342.4865541999998,343.7203049999998,None,1,3.4602216666671666,4.468246066667234,None,1,None,1,,,0,,,,,,ikieoz,001,fr,0,0,2022-04-25_16h11.31.989,Cluster,2022.1.1,None,
,,,,1,0,1,0,7,0,7,0,,,none,,,,,,,,,,,,,,,,,,,,,,,,,,,,,,,,,,,,,,,,,,,,,,,,,,,,,,,,,,,,,,,,,,,,,,,,,,,,,,,,,,,,,,,,,,,,,,,,,,,,,,,,,,,,,,,,,,,,344.1797223000003,None,1071.7734625362941,22.0,0.0005923813242671316,1,"[0.6259528818414951, 0.5886997389151158, 0.7851311281470347, 0.7282887044318017]","[1561.861346746016, 2597.6518349330418, 3247.9600658335844, 7082.421655691541]",None,"[18.0, 16.0, 15.585569304371509, 19.0]",False,345.2047087000001,348.23438459999943,348.23438459999943,349.4463874000003,['space'],1,3.755276633332869,4.777884333332622,None,1,None,1,,[0.3304089000002932],,,,,,,ikieoz,001,fr,0,0,2022-04-25_16h11.31.989,Cluster,2022.1.1,None,
,,,,1,0,1,0,8,0,8,0,,,both,,,,,,,,,,,,,,,,,,,,,,,,,,,,,,,,,,,,,,,,,,,,,,,,,,,,,,,,,,,,,,,,,,,,,,,,,,,,,,,,,,,,,,,,,,,,,,,,,,,,,,,,,,,,,,,,,,,,350.0230554,None,231.34497650804622,18.0,0.0016206794627311328,1,"[0.5985280256074494, 0.5985280256074494, 0.5985280256074494, 0.5985280256074494]","[582.9528113798449, 462.68995301609255, 367.23725907643103, 291.4764056899224]",Major_3rd,"[24.811445844059197, 28.42596580616531, 31.1577337793156, 29.123019354804306]",False,351.0335834999996,353.8723173999997,353.8723173999997,355.10590709999997,['space'],1,3.418573566666055,4.449771466666789,None,1,None,1,,[0.7591615000001184],,,,,,,ikieoz,001,fr,0,0,2022-04-25_16h11.31.989,Cluster,2022.1.1,None,
,,,,1,0,1,0,9,0,9,0,,,both,,,,,,,,,,,,,,,,,,,,,,,,,,,,,,,,,,,,,,,,,,,,,,,,,,,,,,,,,,,,,,,,,,,,,,,,,,,,,,,,,,,,,,,,,,,,,,,,,,,,,,,,,,,,,,,,,,,,355.5243711000003,None,353.5533905932738,11.0,0.00031440841208643823,0,"[0.5131456880743814, 0.5131456880743814, 0.5131456880743814, 0.5131456880743814]","[140.30775603867167, 176.77669529663694, 222.72467953508487, 280.6155120773433]",Major_3rd,"[19.577230263869932, 19.6209483717776, 23.0, 29.0]",False,358.35161289999996,360.92917380000017,360.92917380000017,362.1618036,None,0,3.0909260333337443,4.111950033334324,None,1,None,1,,,,,,,,,ikieoz,001,fr,0,0,2022-04-25_16h11.31.989,Cluster,2022.1.1,None,
,,,,1,0,1,0,10,0,10,0,,,both,,,,,,,,,,,,,,,,,,,,,,,,,,,,,,,,,,,,,,,,,,,,,,,,,,,,,,,,,,,,,,,,,,,,,,,,,,,,,,,,,,,,,,,,,,,,,,,,,,,,,,,,,,,,,,,,,,,,362.5029746,None,,,,,"[0.4446452899315023, 0.4446452899315023, 0.4446452899315023, 0.4446452899315023]","[7759.634542480005, 6158.8260178107685, 4888.263449780965, 3879.8172712400014]",Major_3rd,"[21.0, 16.53660351984219, 16.63148241128642, 16.867300937553054]",True,363.5145881999997,365.88080889999947,365.88080889999947,367.1084363,None,1,2.815523266666787,3.829248966666455,None,1,None,1,,,0,,,,,,ikieoz,001,fr,0,0,2022-04-25_16h11.31.989,Cluster,2022.1.1,None,
,,,,1,0,1,0,11,0,11,0,,,time,,,,,,,,,,,,,,,,,,,,,,,,,,,,,,,,,,,,,,,,,,,,,,,,,,,,,,,,,,,,,,,,,,,,,,,,,,,,,,,,,,,,,,,,,,,,,,,,,,,,,,,,,,,,,,,,,,,,367.3801728999997,None,176.7766952966369,11.0,0.0012419212914516222,1,"[0.6853744874769991, 0.6853744874769991, 0.6853744874769991, 0.6853744874769991]","[3040.682614569645, 388.20285053936806, 686.4177138085956, 2626.2092230257085]",None,"[15.338393759349065, 31.0, 22.0, 15.727744022958504]",False,368.4046693,371.4883641999995,371.4883641999995,372.7167830999997,['space'],1,3.7659768333332977,4.7918225333332884,None,1,None,1,,[0.7137506999988545],,,,,,,ikieoz,001,fr,0,0,2022-04-25_16h11.31.989,Cluster,2022.1.1,None,
,,,,1,0,1,0,12,0,12,0,,,time,,,,,,,,,,,,,,,,,,,,,,,,,,,,,,,,,,,,,,,,,,,,,,,,,,,,,,,,,,,,,,,,,,,,,,,,,,,,,,,,,,,,,,,,,,,,,,,,,,,,,,,,,,,,,,,,,,,,373.23444459999973,None,1357.556885670567,11.0,0.0001839314987024572,1,"[0.7637923187651293, 0.7637923187651293, 0.7637923187651293, 0.7637923187651293]","[237.78844436721442, 4340.537891889794, 7884.91201947565, 2203.703903897116]",None,"[25.0, 17.0, 21.0, 17.75146695127146]",False,374.2495294999999,377.5762440999997,377.5762440999997,378.7953637999999,['space'],1,4.0712863666667545,5.100145166667062,None,1,None,1,,[0.6173251999989589],,,,,,,ikieoz,001,fr,0,0,2022-04-25_16h11.31.989,Cluster,2022.1.1,None,
,,,,1,0,1,0,13,0,13,0,,,time,,,,,,,,,,,,,,,,,,,,,,,,,,,,,,,,,,,,,,,,,,,,,,,,,,,,,,,,,,,,,,,,,,,,,,,,,,,,,,,,,,,,,,,,,,,,,,,,,,,,,,,,,,,,,,,,,,,,379.3901429999996,None,353.5533905932738,11.0,0.00031440841208643823,0,"[0.5030177062995023, 0.5030177062995023, 0.5030177062995023, 0.5030177062995023]","[685.593822427869, 348.10210788700954, 2111.7086296204775, 6297.8098840301745]",None,"[22.0, 31.367258929177495, 17.75146695127146, 17.0]",False,384.5474529000003,387.07192059999943,387.07192059999943,388.3054252000002,None,0,3.0421193666661566,4.069373666666252,None,1,None,1,,,,,,,,,ikieoz,001,fr,0,0,2022-04-25_16h11.31.989,Cluster,2022.1.1,None,
,,,,1,0,1,0,14,0,14,0,,,frequency,,,,,,,,,,,,,,,,,,,,,,,,,,,,,,,,,,,,,,,,,,,,,,,,,,,,,,,,,,,,,,,,,,,,,,,,,,,,,,,,,,,,,,,,,,,,,,,,,,,,,,,,,,,,,,,,,,,,388.6519668000001,None,,,,,"[0.4613209027463938, 0.48335881118373575, 0.747452950883319, 0.7209173098287363]","[372.42018022694947, 557.9997916057275, 836.055036658575, 1252.6671780839363]",Perfect_5th,"[31.1577337793156, 25.0, 19.0, 16.557281121282692]",True,389.65851380000004,392.3784986999999,392.3784986999999,393.5909208000003,None,1,3.446081966665588,4.47566466666558,None,1,None,1,,,0,,,,,,ikieoz,001,fr,0,0,2022-04-25_16h11.31.989,Cluster,2022.1.1,None,
,,,,1,0,1,0,15,0,15,0,,,frequency,,,,,,,,,,,,,,,,,,,,,,,,,,,,,,,,,,,,,,,,,,,,,,,,,,,,,,,,,,,,,,,,,,,,,,,,,,,,,,,,,,,,,,,,,,,,,,,,,,,,,,,,,,,,,,,,,,,,394.16541830000006,None,353.5533905932738,20.0,0.000886123302070378,1,"[0.5977225518712811, 0.5140452753563319, 0.4996582504479808, 0.523102999234415]","[890.8987181403395, 707.1067811865477, 561.2310241546866, 445.4493590701697]",Major_3rd,"[18.0, 21.479916871836636, 25.0, 29.0]",False,395.1938517999997,397.8285029999997,397.8285029999997,399.0492869999998,['space'],1,3.142613066666854,4.155551866666428,None,1,None,1,,[0.30105689999891183],,,,,,,ikieoz,001,fr,0,0,2022-04-25_16h11.31.989,Cluster,2022.1.1,None,
,,,,1,0,1,0,16,0,16,0,,,time,,,,,,,,,,,,,,,,,,,,,,,,,,,,,,,,,,,,,,,,,,,,,,,,,,,,,,,,,,,,,,,,,,,,,,,,,,,,,,,,,,,,,,,,,,,,,,,,,,,,,,,,,,,,,,,,,,,,399.39677800000027,None,3722.544405615262,10.506253786942413,0.0002650469875769037,1,"[0.5096211449153795, 0.5096211449153795, 0.5096211449153795, 0.5096211449153795]","[920.9531461456749, 283.6725288367656, 1016.9136745086504, 530.0372006274163]",None,"[17.536976808502533, 29.0, 16.907295475076943, 26.0]",False,400.3955310000001,402.9426975999995,402.9426975999995,404.17612779999945,['space'],1,3.069214066666973,4.104853366667157,None,1,None,1,,[0.46792679999998654],,,,,,,ikieoz,001,fr,0,0,2022-04-25_16h11.31.989,Cluster,2022.1.1,None,
,,,,1,0,1,0,17,0,17,0,,,frequency,,,,,,,,,,,,,,,,,,,,,,,,,,,,,,,,,,,,,,,,,,,,,,,,,,,,,,,,,,,,,,,,,,,,,,,,,,,,,,,,,,,,,,,,,,,,,,,,,,,,,,,,,,,,,,,,,,,,404.53756410000005,None,1312.7517263419938,10.910019972301614,0.00018594207186023158,1,"[0.7592374717908253, 0.551147939554614, 0.530625272909242, 0.5764780670839399]","[520.9658678420878, 656.375863170997, 826.9817666520561, 1041.9317356841755]",Major_3rd,"[26.0, 22.575394634166223, 19.0, 16.52712978726722]",False,405.5364214000001,408.41394630000013,408.41394630000013,409.63150099999984,['space'],1,3.4360606666677995,4.455998466667552,None,1,None,1,,[0.444399599999997],,,,,,,ikieoz,001,fr,0,0,2022-04-25_16h11.31.989,Cluster,2022.1.1,None,
,,,,1,0,1,0,18,0,18,0,,,frequency,,,,,,,,,,,,,,,,,,,,,,,,,,,,,,,,,,,,,,,,,,,,,,,,,,,,,,,,,,,,,,,,,,,,,,,,,,,,,,,,,,,,,,,,,,,,,,,,,,,,,,,,,,,,,,,,,,,,410.04296669999985,None,4594.793419988137,10.0,0.0003948592881126174,1,"[0.5148331960719724, 0.5374331555767955, 0.6609365010724837, 0.47091512001892444]","[7293.779908465733, 6498.019170849882, 5789.07694976151, 5157.481233758314]",Tone,"[19.0, 17.240842932260975, 16.27400671602057, 16.36011602406733]",False,413.6054054999995,416.3483679000001,416.3483679000001,417.56177579999985,['space'],1,3.2031089666670596,4.2430532666667204,None,1,None,1,,[0.4099236000001838],,,,,,,ikieoz,001,fr,0,0,2022-04-25_16h11.31.989,Cluster,2022.1.1,None,
,,,,1,0,1,0,19,0,19,0,,,none,,,,,,,,,,,,,,,,,,,,,,,,,,,,,,,,,,,,,,,,,,,,,,,,,,,,,,,,,,,,,,,,,,,,,,,,,,,,,,,,,,,,,,,,,,,,,,,,,,,,,,,,,,,,,,,,,,,,417.89199819999976,None,3234.3128552506123,9.585569304371509,0.00021255090611454002,1,"[0.5325928475147174, 0.6997562369467708, 0.4292443477362746, 0.6508957610834485]","[2001.5191663239557, 3727.130160796436, 140.89158258052151, 711.504332081316]",None,"[18.297056651816593, 16.506253786942413, 19.577230263869932, 21.479916871836636]",False,418.89299010000013,421.5734081999999,421.5734081999999,422.80875169999945,['space'],1,3.3438479666665444,4.363398066666377,None,1,None,1,,[0.39557129999957397],,,,,,,ikieoz,001,fr,0,0,2022-04-25_16h11.31.989,Cluster,2022.1.1,None,
,,,,2,0,2,0,0,0,0,0,,,frequency,,,,,,,,,,,,,,,,,,,,,,,,,,,,,,,,,,,,,,,,,,,,,,,,,,,,,,,,,,,,,,,,,,,,,,,,,,,,,,,,,,,,,,,,,,,,,,,,,,,,,,,,,,,,,,,,,,,,433.1163101000002,None,,,,,"[0.7135559066198089, 0.46133708387206285, 0.662539171537408, 0.6065835458767681]","[6889.772145275872, 5468.415775616059, 4340.284477406215, 3444.886072637936]",Major_3rd,"[18.357397470519942, 16.27400671602057, 17.0, 16.0]",True,434.0916943000002,436.9554951,436.9554951,438.1934001999998,None,1,3.471964166666112,4.505670466666743,None,1,None,1,,,0,,,,,,ikieoz,001,fr,0,0,2022-04-25_16h11.31.989,Cluster,2022.1.1,None,
,,,,2,0,2,0,1,0,1,0,,,both,,,,,,,,,,,,,,,,,,,,,,,,,,,,,,,,,,,,,,,,,,,,,,,,,,,,,,,,,,,,,,,,,,,,,,,,,,,,,,,,,,,,,,,,,,,,,,,,,,,,,,,,,,,,,,,,,,,,438.63263389999975,None,680.5768606955438,16.0,0.0002948427594126635,1,"[0.6214626347612454, 0.6214626347612454, 0.6214626347612454, 0.6214626347612454]","[135.04355307666515, 202.33671126133913, 303.16252639481814, 454.2305587411698]",Perfect_5th,"[20.0, 21.32939044129742, 30.0, 29.0]",False,439.6391598,442.5170873999996,442.5170873999996,443.75204119999944,['space'],1,3.511702566666827,4.537799166666446,None,1,None,1,,[0.6837211000001844],,,,,,,ikieoz,001,fr,0,0,2022-04-25_16h11.31.989,Cluster,2022.1.1,None,
,,,,2,0,2,0,2,0,2,0,,,time,,,,,,,,,,,,,,,,,,,,,,,,,,,,,,,,,,,,,,,,,,,,,,,,,,,,,,,,,,,,,,,,,,,,,,,,,,,,,,,,,,,,,,,,,,,,,,,,,,,,,,,,,,,,,,,,,,,,444.21953179999946,None,125.0,14.0,0.0036221798003749518,1,"[0.512273118609739, 0.512273118609739, 0.512273118609739, 0.512273118609739]","[321.3611954108016, 692.0600239486533, 4972.03821813101, 302.80975161097194]",None,"[31.0, 22.0, 16.63148241128642, 30.0]",False,445.2404389000003,447.8020826000002,447.8020826000002,449.02788710000004,['space'],1,3.071830033333754,4.109466833333499,None,1,None,1,,[0.6364014999999199],,,,,,,ikieoz,001,fr,0,0,2022-04-25_16h11.31.989,Cluster,2022.1.1,None,
,,,,2,0,2,0,3,0,3,0,,,both,,,,,,,,,,,,,,,,,,,,,,,,,,,,,,,,,,,,,,,,,,,,,,,,,,,,,,,,,,,,,,,,,,,,,,,,,,,,,,,,,,,,,,,,,,,,,,,,,,,,,,,,,,,,,,,,,,,,449.39778060000026,None,125.0,15.0,0.004064152580820497,1,"[0.5475647248815094, 0.5475647248815094, 0.5475647248815094, 0.5475647248815094]","[314.9802624737183, 250.00000000000003, 198.42513149602496, 157.49013123685916]",Major_3rd,"[30.319445914765076, 25.93472087272818, 21.0, 19.310635395283462]",False,450.4192928000002,453.0976324000003,453.0976324000003,454.3170682,['space'],1,3.2162829666667676,4.2281885666661765,None,1,None,1,,[0.5370649999995294],,,,,,,ikieoz,001,fr,0,0,2022-04-25_16h11.31.989,Cluster,2022.1.1,None,
,,,,2,0,2,0,4,0,4,0,,,none,,,,,,,,,,,,,,,,,,,,,,,,,,,,,,,,,,,,,,,,,,,,,,,,,,,,,,,,,,,,,,,,,,,,,,,,,,,,,,,,,,,,,,,,,,,,,,,,,,,,,,,,,,,,,,,,,,,,454.6993653999998,None,4594.793419988137,9.0,0.0003519187109611931,1,"[0.5205927938509732, 0.6551253365181571, 0.6947521549790299, 0.635371635508221]","[385.6789643982164, 5430.152768939248, 1307.566713823102, 4165.990937901624]",None,"[31.0, 16.36011602406733, 16.910019972301612, 17.0]",False,455.72626070000024,458.62347469999986,458.62347469999986,459.86049170000024,['space'],1,3.5269664333345645,4.529458833334502,None,1,None,1,,[0.5916175000002113],,,,,,,ikieoz,001,fr,0,0,2022-04-25_16h11.31.989,Cluster,2022.1.1,None,
,,,,2,0,2,0,5,0,5,0,,,time,,,,,,,,,,,,,,,,,,,,,,,,,,,,,,,,,,,,,,,,,,,,,,,,,,,,,,,,,,,,,,,,,,,,,,,,,,,,,,,,,,,,,,,,,,,,,,,,,,,,,,,,,,,,,,,,,,,,460.29528310000023,None,,,,,"[0.7872140934108656, 0.7872140934108656, 0.7872140934108656, 0.7872140934108656]","[3066.8811282277643, 742.5415049280633, 3025.648486175096, 185.86106501852603]",None,"[15.338393759349065, 21.0, 15.338393759349065, 20.0]",True,461.3000788999998,464.69106699999975,464.69106699999975,465.90815810000004,['space'],0,4.175070866666829,5.208450566666215,None,1,None,1,,[0.5177342999995744],0,,,,,,ikieoz,001,fr,0,0,2022-04-25_16h11.31.989,Cluster,2022.1.1,None,
,,,,2,0,2,0,6,0,6,0,,,time,,,,,,,,,,,,,,,,,,,,,,,,,,,,,,,,,,,,,,,,,,,,,,,,,,,,,,,,,,,,,,,,,,,,,,,,,,,,,,,,,,,,,,,,,,,,,,,,,,,,,,,,,,,,,,,,,,,,466.5427235999996,None,636.2415201662764,17.0,0.000358343139701607,1,"[0.4766494317706169, 0.4766494317706169, 0.4766494317706169, 0.4766494317706169]","[143.1143256941652, 4631.139134642031, 1193.1444012482248, 6045.516245287873]",None,"[19.577230263869932, 16.900627338425906, 16.557281121282692, 16.53660351984219]",False,467.5377658999996,469.9890760999997,469.9890760999997,471.2184900000002,['space'],1,2.953896266666561,3.9689802666662217,None,1,None,1,,[0.6553075999991052],,,,,,,ikieoz,001,fr,0,0,2022-04-25_16h11.31.989,Cluster,2022.1.1,None,
,,,,2,0,2,0,7,0,7,0,,,frequency,,,,,,,,,,,,,,,,,,,,,,,,,,,,,,,,,,,,,,,,,,,,,,,,,,,,,,,,,,,,,,,,,,,,,,,,,,,,,,,,,,,,,,,,,,,,,,,,,,,,,,,,,,,,,,,,,,,,471.5504941999998,None,921.1798806551083,11.536976808502533,0.00015781641546662472,1,"[0.6847056169473298, 0.5140041254102555, 0.5824504061722395, 0.6593073268724594]","[2321.227844754036, 1842.3597613102168, 1462.2819116038595, 1160.613922377018]",Major_3rd,"[17.0, 18.58621091439418, 17.39714282839313, 16.41519521995837]",False,472.55843970000024,475.3557960999997,475.3557960999997,476.5767436999995,['space'],1,3.4702685666661637,4.503536966665706,None,1,None,1,,[0.427750300000298],,,,,,,ikieoz,001,fr,0,0,2022-04-25_16h11.31.989,Cluster,2022.1.1,None,
,,,,2,0,2,0,8,0,8,0,,,both,,,,,,,,,,,,,,,,,,,,,,,,,,,,,,,,,,,,,,,,,,,,,,,,,,,,,,,,,,,,,,,,,,,,,,,,,,,,,,,,,,,,,,,,,,,,,,,,,,,,,,,,,,,,,,,,,,,,477.10531939999964,None,938.4570577460715,11.536976808502533,0.00015966983572563085,1,"[0.7149687048176937, 0.7149687048176937, 0.7149687048176937, 0.7149687048176937]","[1489.7077206930958, 1327.1786987692456, 1182.3818014766844, 1053.382431288043]",Tone,"[17.90976647246743, 16.910019972301612, 16.41519521995837, 16.52712978726722]",False,478.1091642000001,481.2821389999999,481.2821389999999,482.5210047999999,['space'],1,3.898657066666601,4.929014766666114,None,1,None,1,,[0.38799070000004576],,,,,,,ikieoz,001,fr,0,0,2022-04-25_16h11.31.989,Cluster,2022.1.1,None,
,,,,2,0,2,0,9,0,9,0,,,time,,,,,,,,,,,,,,,,,,,,,,,,,,,,,,,,,,,,,,,,,,,,,,,,,,,,,,,,,,,,,,,,,,,,,,,,,,,,,,,,,,,,,,,,,,,,,,,,,,,,,,,,,,,,,,,,,,,,483.0792111999999,None,,,,,"[0.6036227977708291, 0.6036227977708291, 0.6036227977708291, 0.6036227977708291]","[219.82751908945974, 125.63174598284434, 1527.2576104207678, 560.3588358646454]",None,"[23.0, 20.54640194650904, 18.0, 25.0]",True,484.0816711999996,486.9022857,486.9022857,488.13127350000013,None,1,3.441910366666889,4.480520766666814,None,1,None,1,,,0,,,,,,ikieoz,001,fr,0,0,2022-04-25_16h11.31.989,Cluster,2022.1.1,None,
,,,,2,0,2,0,10,0,10,0,,,none,,,,,,,,,,,,,,,,,,,,,,,,,,,,,,,,,,,,,,,,,,,,,,,,,,,,,,,,,,,,,,,,,,,,,,,,,,,,,,,,,,,,,,,,,,,,,,,,,,,,,,,,,,,,,,,,,,,,488.6013989000003,None,399.15151046522357,24.520988351585586,0.0012920141048896226,0,"[0.6988311743320583, 0.6480470384450461, 0.6191581046675467, 0.42054172099353154]","[2560.7817176215817, 777.3583243695231, 1590.3794332185864, 3203.29973174418]",None,"[16.0, 20.0, 18.3463712165465, 15.585569304371509]",False,489.596552,492.5751997999996,492.5751997999996,493.80438460000005,None,0,3.4320325666667486,4.4672555666666085,None,1,None,1,,,,,,,,,ikieoz,001,fr,0,0,2022-04-25_16h11.31.989,Cluster,2022.1.1,None,
,,,,2,0,2,0,11,0,11,0,,,none,,,,,,,,,,,,,,,,,,,,,,,,,,,,,,,,,,,,,,,,,,,,,,,,,,,,,,,,,,,,,,,,,,,,,,,,,,,,,,,,,,,,,,,,,,,,,,,,,,,,,,,,,,,,,,,,,,,,494.10412519999954,None,189.4645708137998,9.0,0.0008562586084293591,0,"[0.5121076145360763, 0.6590295827184334, 0.5000216103507321, 0.7571632033056348]","[4566.549740528693, 818.4591531528854, 363.451448076219, 3086.4467531259543]",None,"[16.900627338425906, 19.340815922505353, 31.367258929177495, 15.338393759349065]",False,498.89165820000017,501.60370049999983,501.60370049999983,502.83970409999984,None,0,3.4399949000007837,4.458712500000729,None,1,None,1,,,,,,,,,ikieoz,001,fr,0,0,2022-04-25_16h11.31.989,Cluster,2022.1.1,None,
,,,,2,0,2,0,12,0,12,0,,,frequency,,,,,,,,,,,,,,,,,,,,,,,,,,,,,,,,,,,,,,,,,,,,,,,,,,,,,,,,,,,,,,,,,,,,,,,,,,,,,,,,,,,,,,,,,,,,,,,,,,,,,,,,,,,,,,,,,,,,503.39522560000023,None,125.0,15.0,0.004064152580820497,1,"[0.5812079597827399, 0.6684226418941681, 0.7873857950598939, 0.4083790002610215]","[629.9605249474366, 420.4482076268573, 280.6155120773433, 187.2883846095852]",Perfect_5th,"[23.0, 30.0, 29.0, 20.30014022602802]",False,504.4144858999998,507.4788017000001,507.4788017000001,508.7156834999996,['space'],1,3.473453566666649,4.489844166666444,None,1,None,1,,[0.4109512999993967],,,,,,,ikieoz,001,fr,0,0,2022-04-25_16h11.31.989,Cluster,2022.1.1,None,
,,,,2,0,2,0,13,0,13,0,,,frequency,,,,,,,,,,,,,,,,,,,,,,,,,,,,,,,,,,,,,,,,,,,,,,,,,,,,,,,,,,,,,,,,,,,,,,,,,,,,,,,,,,,,,,,,,,,,,,,,,,,,,,,,,,,,,,,,,,,,508.9560492999999,None,,,,,"[0.684873252432853, 0.7557442474410595, 0.5425186742865091, 0.516798765370637]","[5535.555039442692, 4931.61888883479, 4393.572946419598, 3914.2285060212935]",Tone,"[16.27400671602057, 16.63148241128642, 17.0, 16.867300937553054]",True,509.95326099999966,512.9743644999999,512.9743644999999,514.2040975999998,None,1,3.5231274666657555,4.535843166666382,None,1,None,1,,,0,,,,,,ikieoz,001,fr,0,0,2022-04-25_16h11.31.989,Cluster,2022.1.1,None,
,,,,2,0,2,0,14,0,14,0,,,both,,,,,,,,,,,,,,,,,,,,,,,,,,,,,,,,,,,,,,,,,,,,,,,,,,,,,,,,,,,,,,,,,,,,,,,,,,,,,,,,,,,,,,,,,,,,,,,,,,,,,,,,,,,,,,,,,,,,514.5291822999998,None,2828.42712474619,10.0,0.00020708480819441676,1,"[0.666631529189039, 0.666631529189039, 0.666631529189039, 0.666631529189039]","[1122.4620483093734, 1414.2135623730956, 1781.797436280679, 2244.9240966187463]",Major_3rd,"[16.41519521995837, 17.39714282839313, 18.593949728891563, 17.053352851256424]",False,515.5896899999998,518.6199080999995,518.6199080999995,519.8305879,['space'],1,3.696951633332901,4.721458733332838,None,1,None,1,,[0.45950919999995676],,,,,,,ikieoz,001,fr,0,0,2022-04-25_16h11.31.989,Cluster,2022.1.1,None,
,,,,2,0,2,0,15,0,15,0,,,none,,,,,,,,,,,,,,,,,,,,,,,,,,,,,,,,,,,,,,,,,,,,,,,,,,,,,,,,,,,,,,,,,,,,,,,,,,,,,,,,,,,,,,,,,,,,,,,,,,,,,,,,,,,,,,,,,,,,520.3577616000002,None,162.31139844417112,13.304277644406959,0.001862940702722756,1,"[0.7942227823458887, 0.7779704222133381, 0.47371180717051353, 0.5316923880644012]","[343.34136378006184, 6406.215063764056, 633.7535008232238, 420.785777889984]",None,"[31.367258929177495, 17.0, 23.0, 30.0]",False,521.3631554000003,524.4462537999998,524.4462537999998,525.6890094,['space'],1,3.6192056666659482,4.641364466666346,None,1,None,1,,[0.19638149999991583],,,,,,,ikieoz,001,fr,0,0,2022-04-25_16h11.31.989,Cluster,2022.1.1,None,
,,,,2,0,2,0,16,0,16,0,,,none,,,,,,,,,,,,,,,,,,,,,,,,,,,,,,,,,,,,,,,,,,,,,,,,,,,,,,,,,,,,,,,,,,,,,,,,,,,,,,,,,,,,,,,,,,,,,,,,,,,,,,,,,,,,,,,,,,,,526.0431120000003,None,329.87697769322364,20.0,0.0009475893972752513,1,"[0.6203346400455402, 0.6162971244188641, 0.4894730159455898, 0.6714567047998673]","[199.2594906564044, 376.27086440786474, 247.67456482161106, 431.5168517769353]",None,"[21.0, 31.1577337793156, 25.93472087272818, 29.568218909581837]",False,531.0216732999997,533.7764993999999,533.7764993999999,534.9938351000001,['space'],1,3.413105733334305,4.429736433334256,None,1,None,1,,[0.1658956000001126],,,,,,,ikieoz,001,fr,0,0,2022-04-25_16h11.31.989,Cluster,2022.1.1,None,
,,,,2,0,2,0,17,0,17,0,,,time,,,,,,,,,,,,,,,,,,,,,,,,,,,,,,,,,,,,,,,,,,,,,,,,,,,,,,,,,,,,,,,,,,,,,,,,,,,,,,,,,,,,,,,,,,,,,,,,,,,,,,,,,,,,,,,,,,,,535.4883300000001,None,,,,,"[0.5873571118029429, 0.5873571118029429, 0.5873571118029429, 0.5873571118029429]","[5004.872145161596, 4315.014500363212, 288.2048115426608, 554.6233131291393]",None,"[16.63148241128642, 17.0, 29.123019354804306, 25.0]",True,536.5078238999995,539.3013203999999,539.3013203999999,540.5250334000002,None,1,3.377868966666938,4.392379166666615,None,1,None,1,,,0,,,,,,ikieoz,001,fr,0,0,2022-04-25_16h11.31.989,Cluster,2022.1.1,None,
,,,,2,0,2,0,18,0,18,0,,,none,,,,,,,,,,,,,,,,,,,,,,,,,,,,,,,,,,,,,,,,,,,,,,,,,,,,,,,,,,,,,,,,,,,,,,,,,,,,,,,,,,,,,,,,,,,,,,,,,,,,,,,,,,,,,,,,,,,,540.9371013,None,796.2551427377892,13.340815922505353,0.00017903333715286654,0,"[0.47227798314272823, 0.40183680190649224, 0.5764430295522056, 0.4698626519015694]","[637.8797053975019, 132.8052662957659, 693.56065114045, 2366.0532979894106]",None,"[23.0, 20.022505355605915, 22.0, 17.0]",False,541.9368833999997,544.4165818000001,544.4165818000001,545.6300673999995,None,0,2.9542057666676556,3.9866640666677995,None,1,None,1,,,,,,,,,ikieoz,001,fr,0,0,2022-04-25_16h11.31.989,Cluster,2022.1.1,None,
,,,,2,0,2,0,19,0,19,0,,,none,,,,,,,,,,,,,,,,,,,,,,,,,,,,,,,,,,,,,,,,,,,,,,,,,,,,,,,,,,,,,,,,,,,,,,,,,,,,,,,,,,,,,,,,,,,,,,,,,,,,,,,,,,,,,,,,,,,,545.9650722999995,None,1148.6983549970344,20.0,0.0005027206816493323,1,"[0.741854658617106, 0.48215992506877847, 0.46174228580233545, 0.5915225007138698]","[832.8735590184157, 2856.5674307438608, 1671.5941379931803, 7873.1907119992375]",None,"[19.0, 15.379151084288148, 18.3463712165465, 21.0]",False,551.1322874999996,553.8582332999995,553.8582332999995,555.0889949000002,['space'],1,3.3127337666674066,4.327958166667486,None,1,None,1,,[0.28138769999986835],,,,,,,ikieoz,001,fr,0,0,2022-04-25_16h11.31.989,Cluster,2022.1.1,None,
,,,,3,0,3,0,0,0,0,0,,,none,,,,,,,,,,,,,,,,,,,,,,,,,,,,,,,,,,,,,,,,,,,,,,,,,,,,,,,,,,,,,,,,,,,,,,,,,,,,,,,,,,,,,,,,,,,,,,,,,,,,,,,,,,,,,,,,,,,,562.9062438000001,None,825.1762217348252,13.0,0.00017458015868768314,1,"[0.5887931783824013, 0.7680472846228767, 0.7508019310802986, 0.7346139376069959]","[4977.216541306294, 2082.7340782177257, 7429.507328999036, 5468.185163595773]",None,"[16.63148241128642, 18.0, 19.76339531111048, 16.27400671602057]",False,563.8720207999995,567.0119370000002,567.0119370000002,568.2268287999996,['space'],1,3.8805386666663253,4.9197272666660865,None,1,None,1,,[0.44947619999948074],,,,,,,ikieoz,001,fr,0,0,2022-04-25_16h11.31.989,Cluster,2022.1.1,None,
,,,,3,0,3,0,1,0,1,0,,,time,,,,,,,,,,,,,,,,,,,,,,,,,,,,,,,,,,,,,,,,,,,,,,,,,,,,,,,,,,,,,,,,,,,,,,,,,,,,,,,,,,,,,,,,,,,,,,,,,,,,,,,,,,,,,,,,,,,,568.8355715999996,None,1000.0,27.0,0.0009862113680574266,0,"[0.5496813793564054, 0.5496813793564054, 0.5496813793564054, 0.5496813793564054]","[3278.8613573053594, 2202.4762556195333, 3755.214060629142, 863.3533647737507]",None,"[15.585569304371509, 17.75146695127146, 16.506253786942413, 18.368777138069806]",False,569.8723750999998,572.5398083,572.5398083,573.7498649999998,None,0,3.2193588333338994,4.256919233333974,None,1,None,1,,,,,,,,,ikieoz,001,fr,0,0,2022-04-25_16h11.31.989,Cluster,2022.1.1,None,
,,,,3,0,3,0,2,0,2,0,,,none,,,,,,,,,,,,,,,,,,,,,,,,,,,,,,,,,,,,,,,,,,,,,,,,,,,,,,,,,,,,,,,,,,,,,,,,,,,,,,,,,,,,,,,,,,,,,,,,,,,,,,,,,,,,,,,,,,,,574.1710058999997,None,,,,,"[0.6454766718973245, 0.45647458241490974, 0.6531880670754107, 0.4840425894195431]","[395.9929180662052, 133.163240159049, 453.20517960866607, 2634.724246172402]",None,"[30.520988351585586, 20.022505355605915, 29.0, 15.727744022958504]",True,575.1877649999997,577.9800494000001,577.9800494000001,579.2144932000001,None,1,3.2687578666664194,4.29526846666613,None,1,None,1,,,0,,,,,,ikieoz,001,fr,0,0,2022-04-25_16h11.31.989,Cluster,2022.1.1,None,
,,,,3,0,3,0,3,0,3,0,,,frequency,,,,,,,,,,,,,,,,,,,,,,,,,,,,,,,,,,,,,,,,,,,,,,,,,,,,,,,,,,,,,,,,,,,,,,,,,,,,,,,,,,,,,,,,,,,,,,,,,,,,,,,,,,,,,,,,,,,,579.5276573000001,None,866.6898600675395,12.368777138069806,0.00016724403366738373,1,"[0.41545667173325684, 0.5653775393985279, 0.4000098185730253, 0.7617433111195155]","[343.94609890034604, 433.34493003376986, 545.9803992147677, 687.892197800692]",Major_3rd,"[31.367258929177495, 29.568218909581837, 25.988071448995573, 22.0]",False,580.5374691999996,582.9353309999997,582.9353309999997,584.1669104000002,['space'],1,3.180888366666295,4.21906456666602,None,1,None,1,,[0.48284640000019863],,,,,,,ikieoz,001,fr,0,0,2022-04-25_16h11.31.989,Cluster,2022.1.1,None,
,,,,3,0,3,0,4,0,4,0,,,none,,,,,,,,,,,,,,,,,,,,,,,,,,,,,,,,,,,,,,,,,,,,,,,,,,,,,,,,,,,,,,,,,,,,,,,,,,,,,,,,,,,,,,,,,,,,,,,,,,,,,,,,,,,,,,,,,,,,584.8029111999995,None,4287.0938501451765,5.0,0.00018439679606521868,1,"[0.6160634731459523, 0.7158523153683765, 0.5756664628668469, 0.5927165134270755]","[322.9110129350897, 142.85672573423318, 1204.3440797231035, 467.34208030318007]",None,"[31.0, 19.577230263869932, 16.557281121282692, 28.42596580616531]",False,585.8390422000002,588.7837405999999,588.7837405999999,590.0244217,['space'],1,3.51547756666605,4.549090466666712,None,1,None,1,,[0.5117705000002388],,,,,,,ikieoz,001,fr,0,0,2022-04-25_16h11.31.989,Cluster,2022.1.1,None,
,,,,3,0,3,0,5,0,5,0,,,none,,,,,,,,,,,,,,,,,,,,,,,,,,,,,,,,,,,,,,,,,,,,,,,,,,,,,,,,,,,,,,,,,,,,,,,,,,,,,,,,,,,,,,,,,,,,,,,,,,,,,,,,,,,,,,,,,,,,590.4391697000001,None,168.2932256814888,13.304277644406959,0.0017621582287499157,1,"[0.4867244760818003, 0.5772529286762559, 0.7553327949956097, 0.6264419233785093]","[4095.5643248836486, 1974.2262852959668, 747.3862095791385, 221.49508701438214]",None,"[16.867300937553054, 18.297056651816593, 20.393573098672633, 23.0]",False,591.4361871000001,594.2855307999998,594.2855307999998,595.5160402000001,['space'],1,3.4677538666664987,4.49045546666639,None,1,None,1,,[0.2574914999995599],,,,,,,ikieoz,001,fr,0,0,2022-04-25_16h11.31.989,Cluster,2022.1.1,None,
,,,,3,0,3,0,6,0,6,0,,,both,,,,,,,,,,,,,,,,,,,,,,,,,,,,,,,,,,,,,,,,,,,,,,,,,,,,,,,,,,,,,,,,,,,,,,,,,,,,,,,,,,,,,,,,,,,,,,,,,,,,,,,,,,,,,,,,,,,,595.9728052,None,826.0538668107894,13.0,0.00017469158075220182,1,"[0.5912020724950244, 0.5912020724950244, 0.5912020724950244, 0.5912020724950244]","[163.90984714473075, 245.58728394672522, 367.96516552830144, 551.3248115551536]",Perfect_5th,"[19.30427764440696, 25.93472087272818, 31.1577337793156, 25.988071448995573]",False,596.9840150999999,599.7696998000001,599.7696998000001,600.9836593,['space'],1,3.403546766667205,4.426551666667365,None,1,None,1,,[0.5806689000000915],,,,,,,ikieoz,001,fr,0,0,2022-04-25_16h11.31.989,Cluster,2022.1.1,None,
,,,,3,0,3,0,7,0,7,0,,,time,,,,,,,,,,,,,,,,,,,,,,,,,,,,,,,,,,,,,,,,,,,,,,,,,,,,,,,,,,,,,,,,,,,,,,,,,,,,,,,,,,,,,,,,,,,,,,,,,,,,,,,,,,,,,,,,,,,,601.4599609999996,None,473.0047740927012,22.0,0.0009168006762722184,1,"[0.7058759672773742, 0.7058759672773742, 0.7058759672773742, 0.7058759672773742]","[2471.629232668399, 570.7050313713323, 4936.565760825779, 2259.1005068533564]",None,"[16.330229238830245, 25.0, 16.63148241128642, 17.053352851256424]",False,602.4652373999998,605.6041130000003,605.6041130000003,606.8447522999995,['space'],1,3.8480252666668093,4.870077966666031,None,1,None,1,,[0.4802087999996729],,,,,,,ikieoz,001,fr,0,0,2022-04-25_16h11.31.989,Cluster,2022.1.1,None,
,,,,3,0,3,0,8,0,8,0,,,none,,,,,,,,,,,,,,,,,,,,,,,,,,,,,,,,,,,,,,,,,,,,,,,,,,,,,,,,,,,,,,,,,,,,,,,,,,,,,,,,,,,,,,,,,,,,,,,,,,,,,,,,,,,,,,,,,,,,607.3820679,None,1148.6983549970344,11.0,0.0001783720288938129,0,"[0.4484744615736467, 0.6740181457440988, 0.7040174318477451, 0.6329050538551502]","[158.81358723255897, 5382.237210426918, 394.4401874961406, 240.44698148584587]",None,"[19.310635395283462, 16.36011602406733, 31.0, 25.0]",False,608.3979381999998,611.2623531999998,611.2623531999998,612.5039146999998,None,0,3.478552733333345,4.499247233333335,None,1,None,1,,,,,,,,,ikieoz,001,fr,0,0,2022-04-25_16h11.31.989,Cluster,2022.1.1,None,
,,,,3,0,3,0,9,0,9,0,,,none,,,,,,,,,,,,,,,,,,,,,,,,,,,,,,,,,,,,,,,,,,,,,,,,,,,,,,,,,,,,,,,,,,,,,,,,,,,,,,,,,,,,,,,,,,,,,,,,,,,,,,,,,,,,,,,,,,,,612.9447032999997,None,470.80088313790895,22.42596580616531,0.0009643712816387292,1,"[0.5429580732052667, 0.5038325726006488, 0.7025510350426606, 0.4471017393692237]","[875.4845711600077, 705.6421990561689, 347.7128076644418, 156.36903237833044]",None,"[18.368777138069806, 21.479916871836636, 31.367258929177495, 19.310635395283462]",False,613.9597520999996,616.7427944000001,616.7427944000001,617.9794660999996,['space'],1,3.228233366665336,4.245792066665672,None,1,None,1,,[0.3257210000001578],,,,,,,ikieoz,001,fr,0,0,2022-04-25_16h11.31.989,Cluster,2022.1.1,None,
,,,,3,0,3,0,10,0,10,0,,,both,,,,,,,,,,,,,,,,,,,,,,,,,,,,,,,,,,,,,,,,,,,,,,,,,,,,,,,,,,,,,,,,,,,,,,,,,,,,,,,,,,,,,,,,,,,,,,,,,,,,,,,,,,,,,,,,,,,,618.2532517999998,None,,,,,"[0.7287810934659382, 0.7287810934659382, 0.7287810934659382, 0.7287810934659382]","[5957.436821246145, 4728.420738540109, 3752.9500272534096, 2978.7184106230725]",Major_3rd,"[16.53660351984219, 16.900627338425906, 16.506253786942413, 15.338393759349065]",True,619.2524621000002,622.4766282999999,622.4766282999999,623.7006272999997,None,1,3.932278966666672,4.969216366666842,None,1,None,1,,,0,,,,,,ikieoz,001,fr,0,0,2022-04-25_16h11.31.989,Cluster,2022.1.1,None,
,,,,3,0,3,0,11,0,11,0,,,frequency,,,,,,,,,,,,,,,,,,,,,,,,,,,,,,,,,,,,,,,,,,,,,,,,,,,,,,,,,,,,,,,,,,,,,,,,,,,,,,,,,,,,,,,,,,,,,,,,,,,,,,,,,,,,,,,,,,,,624.2580492999996,None,329.87697769322364,14.0,0.0004749197086349175,0,"[0.7717170614830373, 0.6217976272817982, 0.4236140012845246, 0.4641160234189881]","[207.80947403569695, 233.25824788420186, 261.8235307051567, 293.8869765709022]",Tone,"[22.0, 24.24342220532535, 27.0, 29.123019354804306]",False,625.2840175000001,628.1354615999999,628.1354615999999,629.3576782999999,None,0,3.319157233333499,4.334295433333864,None,1,None,1,,,,,,,,,ikieoz,001,fr,0,0,2022-04-25_16h11.31.989,Cluster,2022.1.1,None,
,,,,3,0,3,0,12,0,12,0,,,none,,,,,,,,,,,,,,,,,,,,,,,,,,,,,,,,,,,,,,,,,,,,,,,,,,,,,,,,,,,,,,,,,,,,,,,,,,,,,,,,,,,,,,,,,,,,,,,,,,,,,,,,,,,,,,,,,,,,629.6560738999997,None,2462.2888266898335,3.0,0.00012014968851597731,0,"[0.5633192882397919, 0.6214377191382656, 0.6662613543274223, 0.5803143227605265]","[3912.749952341696, 4565.517125813462, 136.3745727502895, 1603.454584161367]",None,"[16.867300937553054, 16.900627338425906, 20.0, 18.3463712165465]",False,630.6844239000002,633.5614403999998,633.5614403999998,634.7859454,None,0,3.4571980333321335,4.502811733332237,None,1,None,1,,,,,,,,,ikieoz,001,fr,0,0,2022-04-25_16h11.31.989,Cluster,2022.1.1,None,
,,,,3,0,3,0,13,0,13,0,,,time,,,,,,,,,,,,,,,,,,,,,,,,,,,,,,,,,,,,,,,,,,,,,,,,,,,,,,,,,,,,,,,,,,,,,,,,,,,,,,,,,,,,,,,,,,,,,,,,,,,,,,,,,,,,,,,,,,,,635.2302038999997,None,176.7766952966369,3.0,0.0004944177713899504,0,"[0.632224744068118, 0.632224744068118, 0.632224744068118, 0.632224744068118]","[3710.9312318937477, 3541.4261500368493, 995.6979685702569, 3947.0268182500704]",None,"[16.506253786942413, 16.02710471033498, 16.907295475076943, 16.867300937553054]",False,636.3164390000002,639.2544995999997,639.2544995999997,640.4589503999996,None,0,3.5634550333325024,4.599027033332277,None,1,None,1,,,,,,,,,ikieoz,001,fr,0,0,2022-04-25_16h11.31.989,Cluster,2022.1.1,None,
,,,,3,0,3,0,14,0,14,0,,,none,,,,,,,,,,,,,,,,,,,,,,,,,,,,,,,,,,,,,,,,,,,,,,,,,,,,,,,,,,,,,,,,,,,,,,,,,,,,,,,,,,,,,,,,,,,,,,,,,,,,,,,,,,,,,,,,,,,,640.9630523999995,None,,,,,"[0.429068274945978, 0.5976796609626196, 0.7861912575923132, 0.7816903394995135]","[428.543358057537, 2287.876667352175, 321.20670717039474, 5482.663267572701]",None,"[30.0, 17.053352851256424, 31.0, 16.27400671602057]",True,641.9615795,644.7881699,644.7881699,646.0294386999994,None,1,3.6376914666661833,4.66668376666621,None,1,None,1,,,0,,,,,,ikieoz,001,fr,0,0,2022-04-25_16h11.31.989,Cluster,2022.1.1,None,
,,,,3,0,3,0,15,0,15,0,,,frequency,,,,,,,,,,,,,,,,,,,,,,,,,,,,,,,,,,,,,,,,,,,,,,,,,,,,,,,,,,,,,,,,,,,,,,,,,,,,,,,,,,,,,,,,,,,,,,,,,,,,,,,,,,,,,,,,,,,,646.6662008000003,None,372.23826682423703,25.1577337793156,0.0015168110713983096,1,"[0.43666070171433147, 0.712821960734939, 0.6501765584748247, 0.6843118187947013]","[1875.9633117929625, 1252.0552967710264, 835.646654877328, 557.7272294670648]",Perfect_5th,"[18.58621091439418, 16.557281121282692, 19.0, 25.0]",False,647.6779066999998,650.4981722000002,650.4981722000002,651.7370860000001,['space'],1,3.518909266666924,4.546957466666754,None,1,None,1,,[0.5251639999996769],,,,,,,ikieoz,001,fr,0,0,2022-04-25_16h11.31.989,Cluster,2022.1.1,None,
,,,,3,0,3,0,16,0,16,0,,,time,,,,,,,,,,,,,,,,,,,,,,,,,,,,,,,,,,,,,,,,,,,,,,,,,,,,,,,,,,,,,,,,,,,,,,,,,,,,,,,,,,,,,,,,,,,,,,,,,,,,,,,,,,,,,,,,,,,,652.2698878000001,None,749.5941584852426,14.393573098672634,0.00021331863683444016,1,"[0.674772567787538, 0.674772567787538, 0.674772567787538, 0.674772567787538]","[5202.107856142074, 2626.0912119611917, 735.7871963537169, 6615.078011270115]",None,"[16.36011602406733, 15.727744022958504, 21.0, 17.240842932260975]",False,653.2624323999999,656.3033913999998,656.3033913999998,657.5341685000003,['space'],1,3.7312467666661178,4.7541635666657385,None,1,None,1,,[0.6164421999992555],,,,,,,ikieoz,001,fr,0,0,2022-04-25_16h11.31.989,Cluster,2022.1.1,None,
,,,,3,0,3,0,17,0,17,0,,,time,,,,,,,,,,,,,,,,,,,,,,,,,,,,,,,,,,,,,,,,,,,,,,,,,,,,,,,,,,,,,,,,,,,,,,,,,,,,,,,,,,,,,,,,,,,,,,,,,,,,,,,,,,,,,,,,,,,,658.0550886999999,None,2462.2888266898335,9.0,0.0002397301456511786,0,"[0.5179799167817566, 0.5179799167817566, 0.5179799167817566, 0.5179799167817566]","[1423.0517203803606, 198.85382231619676, 127.95791222987381, 534.2146259546718]",None,"[17.39714282839313, 21.0, 20.54640194650904, 26.0]",False,661.8800167999998,664.4502720999999,664.4502720999999,665.6847316000003,None,0,3.0818657333338706,4.109095333333244,None,1,None,1,,,,,,,,,ikieoz,001,fr,0,0,2022-04-25_16h11.31.989,Cluster,2022.1.1,None,
,,,,3,0,3,0,18,0,18,0,,,none,,,,,,,,,,,,,,,,,,,,,,,,,,,,,,,,,,,,,,,,,,,,,,,,,,,,,,,,,,,,,,,,,,,,,,,,,,,,,,,,,,,,,,,,,,,,,,,,,,,,,,,,,,,,,,,,,,,,666.0317802999998,None,,,,,"[0.5766923873442706, 0.4477384748487903, 0.53469416349346, 0.4307226846926778]","[227.7759049185151, 4955.506400492829, 910.1140397975403, 1503.7292269374832]",None,"[24.0, 16.63148241128642, 18.0, 17.90976647246743]",True,667.0298247000001,669.6085490999994,669.6085490999994,670.8213340000002,None,1,3.0300870666660558,4.061836966666306,None,1,None,1,,,0,,,,,,ikieoz,001,fr,0,0,2022-04-25_16h11.31.989,Cluster,2022.1.1,None,
,,,,3,0,3,0,19,0,19,0,,,none,,,,,,,,,,,,,,,,,,,,,,,,,,,,,,,,,,,,,,,,,,,,,,,,,,,,,,,,,,,,,,,,,,,,,,,,,,,,,,,,,,,,,,,,,,,,,,,,,,,,,,,,,,,,,,,,,,,,671.1260823000002,None,273.37153602256416,22.0,0.0017967723987931603,1,"[0.7849140033130684, 0.6184998402825701, 0.7804370118534657, 0.7117547646071734]","[1580.5158256459326, 264.4320730159866, 2868.5814574690394, 7976.7867609581435]",None,"[18.0, 27.0, 15.379151084288148, 21.276796234049005]",False,672.1521792000003,675.3495893999998,675.3495893999998,676.5879933999995,['space'],1,3.922259366666367,4.94676036666624,None,1,None,1,,[0.41591929999958666],,,,,,,ikieoz,001,fr,0,0,2022-04-25_16h11.31.989,Cluster,2022.1.1,None,
,,,,4,0,4,0,0,0,0,0,,,none,,,,,,,,,,,,,,,,,,,,,,,,,,,,,,,,,,,,,,,,,,,,,,,,,,,,,,,,,,,,,,,,,,,,,,,,,,,,,,,,,,,,,,,,,,,,,,,,,,,,,,,,,,,,,,,,,,,,683.5344483999997,None,6062.8662660415985,3.0,0.00016785531344773265,1,"[0.4700966538495907, 0.6556689406684445, 0.43182154268966916, 0.7904740484551033]","[7666.225070449005, 142.23524184839832, 7112.884721472538, 2084.3116812066587]",None,"[20.0, 19.577230263869932, 19.0, 18.0]",False,684.5241080999995,687.1061939000001,687.1061939000001,688.3348840999997,['space'],1,3.370511966666527,4.399241466667263,None,1,None,1,,[0.37326349999966624],,,,,,,ikieoz,001,fr,0,0,2022-04-25_16h11.31.989,Cluster,2022.1.1,None,
,,,,4,0,4,0,1,0,1,0,,,both,,,,,,,,,,,,,,,,,,,,,,,,,,,,,,,,,,,,,,,,,,,,,,,,,,,,,,,,,,,,,,,,,,,,,,,,,,,,,,,,,,,,,,,,,,,,,,,,,,,,,,,,,,,,,,,,,,,,688.9791490999996,None,176.7766952966369,12.0,0.0013934586077992473,1,"[0.5442865749976056, 0.5442865749976056, 0.5442865749976056, 0.5442865749976056]","[280.61551207734334, 250.00000000000006, 222.72467953508487, 198.42513149602496]",Tone,"[29.0, 25.93472087272818, 23.0, 21.0]",False,689.9865079000001,692.6362841,692.6362841,693.8794633999996,['space'],1,3.1892184666667163,4.1947006666659945,None,1,None,1,,[0.40372869999919203],,,,,,,ikieoz,001,fr,0,0,2022-04-25_16h11.31.989,Cluster,2022.1.1,None,
,,,,4,0,4,0,2,0,2,0,,,none,,,,,,,,,,,,,,,,,,,,,,,,,,,,,,,,,,,,,,,,,,,,,,,,,,,,,,,,,,,,,,,,,,,,,,,,,,,,,,,,,,,,,,,,,,,,,,,,,,,,,,,,,,,,,,,,,,,,694.2341295999995,None,4070.432784863083,10.867300937553054,0.0003102497495303539,1,"[0.5594394469125973, 0.41676028480888166, 0.4310953721372765, 0.7243640976813409]","[541.4781205917287, 7058.986339344718, 3550.6159322997773, 149.7436261177416]",None,"[25.988071448995573, 18.357397470519942, 16.02710471033498, 19.310635395283462]",False,695.2401054000002,697.6627926000001,697.6627926000001,698.8750677999997,['space'],1,3.1482610666662367,4.175047166666445,None,1,None,1,,[0.40428179999980784],,,,,,,ikieoz,001,fr,0,0,2022-04-25_16h11.31.989,Cluster,2022.1.1,None,
,,,,4,0,4,0,3,0,3,0,,,both,,,,,,,,,,,,,,,,,,,,,,,,,,,,,,,,,,,,,,,,,,,,,,,,,,,,,,,,,,,,,,,,,,,,,,,,,,,,,,,,,,,,,,,,,,,,,,,,,,,,,,,,,,,,,,,,,,,,699.4652498999994,None,1172.779895361051,10.41519521995837,0.00017009913337262384,1,"[0.7892838689490578, 0.7892838689490578, 0.7892838689490578, 0.7892838689490578]","[465.418009905822, 586.3899476805257, 738.8050385294475, 930.8360198116437]",Major_3rd,"[28.42596580616531, 24.811445844059197, 21.0, 17.536976808502533]",False,700.4884892,703.8937089000001,703.8937089000001,705.1064661,['space'],1,4.188275666666414,5.238315566665733,None,1,None,1,,[0.2599629999995159],,,,,,,ikieoz,001,fr,0,0,2022-04-25_16h11.31.989,Cluster,2022.1.1,None,
,,,,4,0,4,0,4,0,4,0,,,time,,,,,,,,,,,,,,,,,,,,,,,,,,,,,,,,,,,,,,,,,,,,,,,,,,,,,,,,,,,,,,,,,,,,,,,,,,,,,,,,,,,,,,,,,,,,,,,,,,,,,,,,,,,,,,,,,,,,705.7756214999999,None,4242.472578515905,11.0,0.00035702648071436456,1,"[0.6152876021711307, 0.6152876021711307, 0.6152876021711307, 0.6152876021711307]","[160.4574779536918, 924.6224041973483, 2145.5846577858233, 488.4166299162116]",None,"[19.30427764440696, 17.536976808502533, 17.75146695127146, 28.0]",False,706.7763526999997,709.6392262999998,709.6392262999998,710.8579936999995,['space'],1,3.496336766665081,4.5132079666655045,None,1,None,1,,[0.6644117999994705],,,,,,,ikieoz,001,fr,0,0,2022-04-25_16h11.31.989,Cluster,2022.1.1,None,
,,,,4,0,4,0,5,0,5,0,,,frequency,,,,,,,,,,,,,,,,,,,,,,,,,,,,,,,,,,,,,,,,,,,,,,,,,,,,,,,,,,,,,,,,,,,,,,,,,,,,,,,,,,,,,,,,,,,,,,,,,,,,,,,,,,,,,,,,,,,,711.3361525999999,None,,,,,"[0.5632988732330267, 0.7639101158777615, 0.5091654547408069, 0.7661964458214339]","[998.2180848803739, 1257.6759775265302, 1584.5724380327867, 1996.4361697607474]",Major_3rd,"[16.907295475076943, 16.557281121282692, 18.3463712165465, 18.297056651816593]",True,712.3479593000002,715.214379,715.214379,716.4489666999998,None,1,3.6183189666662656,4.63665676666642,None,1,None,1,,,0,,,,,,ikieoz,001,fr,0,0,2022-04-25_16h11.31.989,Cluster,2022.1.1,None,
,,,,4,0,4,0,6,0,6,0,,,none,,,,,,,,,,,,,,,,,,,,,,,,,,,,,,,,,,,,,,,,,,,,,,,,,,,,,,,,,,,,,,,,,,,,,,,,,,,,,,,,,,,,,,,,,,,,,,,,,,,,,,,,,,,,,,,,,,,,717.0236967999999,None,8000.0,10.0,0.0005740768107484417,0,"[0.5376865811945587, 0.7577664681464922, 0.4577526861332236, 0.6460154629021634]","[156.20402902146844, 178.53175896479812, 6356.352498422685, 5036.989784013783]",None,"[19.310635395283462, 19.6209483717776, 17.0, 16.63148241128642]",False,718.0411275999995,720.8190721999999,720.8190721999999,722.0411208999994,None,0,3.4333334333323364,4.450129033331905,None,1,None,1,,,,,,,,,ikieoz,001,fr,0,0,2022-04-25_16h11.31.989,Cluster,2022.1.1,None,
,,,,4,0,4,0,7,0,7,0,,,none,,,,,,,,,,,,,,,,,,,,,,,,,,,,,,,,,,,,,,,,,,,,,,,,,,,,,,,,,,,,,,,,,,,,,,,,,,,,,,,,,,,,,,,,,,,,,,,,,,,,,,,,,,,,,,,,,,,,722.5329283000001,None,1470.082895637816,11.909766472467432,0.00019323491889842472,1,"[0.5149108989628517, 0.6316653619204209, 0.44721840175158634, 0.6265397054941035]","[325.9856536821585, 5757.3615460583105, 1995.4638434681265, 2251.699823298903]",None,"[31.0, 16.27400671602057, 18.297056651816593, 17.053352851256424]",False,723.5412397999999,726.1694095000003,726.1694095000003,727.3882905,['space'],1,3.2389872666662995,4.2705163666660155,None,1,None,1,,[0.6043269000001601],,,,,,,ikieoz,001,fr,0,0,2022-04-25_16h11.31.989,Cluster,2022.1.1,None,
,,,,4,0,4,0,8,0,8,0,,,frequency,,,,,,,,,,,,,,,,,,,,,,,,,,,,,,,,,,,,,,,,,,,,,,,,,,,,,,,,,,,,,,,,,,,,,,,,,,,,,,,,,,,,,,,,,,,,,,,,,,,,,,,,,,,,,,,,,,,,727.8605047000001,None,217.63764082403114,14.0,0.001157174823392963,1,"[0.6313179295375166, 0.704338473156779, 0.4431850437064963, 0.7515478143635068]","[1096.8249796946266, 732.0428479728131, 488.57998421712324, 326.08801744139123]",Perfect_5th,"[16.52712978726722, 21.0, 28.0, 31.0]",False,728.8997339999996,731.7093638999995,731.7093638999995,732.9298054000001,['space'],1,3.560576533332096,4.594495633332372,None,1,None,1,,[0.5217287999994369],,,,,,,ikieoz,001,fr,0,0,2022-04-25_16h11.31.989,Cluster,2022.1.1,None,
,,,,4,0,4,0,9,0,9,0,,,both,,,,,,,,,,,,,,,,,,,,,,,,,,,,,,,,,,,,,,,,,,,,,,,,,,,,,,,,,,,,,,,,,,,,,,,,,,,,,,,,,,,,,,,,,,,,,,,,,,,,,,,,,,,,,,,,,,,,733.5377993000002,None,466.5164957684038,15.0,0.0004113841492540625,1,"[0.731213328389985, 0.731213328389985, 0.731213328389985, 0.731213328389985]","[740.5487761432823, 659.7539553864473, 587.7739531418044, 523.6470614103134]",Tone,"[21.0, 22.575394634166223, 24.811445844059197, 26.0]",False,734.5565248000003,737.7632062000002,737.7632062000002,738.9979292999997,['space'],1,3.954858333332595,4.979525033331811,None,1,None,1,,[0.5363019999995231],,,,,,,ikieoz,001,fr,0,0,2022-04-25_16h11.31.989,Cluster,2022.1.1,None,
,,,,4,0,4,0,10,0,10,0,,,none,,,,,,,,,,,,,,,,,,,,,,,,,,,,,,,,,,,,,,,,,,,,,,,,,,,,,,,,,,,,,,,,,,,,,,,,,,,,,,,,,,,,,,,,,,,,,,,,,,,,,,,,,,,,,,,,,,,,739.5728425999996,None,378.9291416275994,14.0,0.0004110966093181885,1,"[0.7718340664458918, 0.6703899971154378, 0.4271988222045815, 0.6325991073664422]","[2572.860792881429, 314.94020008702074, 772.8430045668581, 5174.346130313514]",None,"[16.0, 30.319445914765076, 20.0, 16.36011602406733]",False,740.5942081000003,743.4960753999994,743.4960753999994,744.7149761999999,['space'],1,3.5394509333336828,4.573740633333728,None,1,None,1,,[0.5788634999989881],,,,,,,ikieoz,001,fr,0,0,2022-04-25_16h11.31.989,Cluster,2022.1.1,None,
,,,,4,0,4,0,11,0,11,0,,,time,,,,,,,,,,,,,,,,,,,,,,,,,,,,,,,,,,,,,,,,,,,,,,,,,,,,,,,,,,,,,,,,,,,,,,,,,,,,,,,,,,,,,,,,,,,,,,,,,,,,,,,,,,,,,,,,,,,,745.2077706,None,250.0,16.0,0.0010567445199183233,1,"[0.6983692328897382, 0.6983692328897382, 0.6983692328897382, 0.6983692328897382]","[321.72579026709883, 204.70089661779517, 1712.4868745144204, 233.78879109369754]",None,"[31.0, 21.32939044129742, 18.593949728891563, 24.24342220532535]",False,746.2306153,749.3577267999999,749.3577267999999,750.5907520999999,['space'],1,3.821355133333782,4.844976833333931,None,1,None,1,,[0.5823285999995278],,,,,,,ikieoz,001,fr,0,0,2022-04-25_16h11.31.989,Cluster,2022.1.1,None,
,,,,4,0,4,0,12,0,12,0,,,frequency,,,,,,,,,,,,,,,,,,,,,,,,,,,,,,,,,,,,,,,,,,,,,,,,,,,,,,,,,,,,,,,,,,,,,,,,,,,,,,,,,,,,,,,,,,,,,,,,,,,,,,,,,,,,,,,,,,,,751.1124444999996,None,,,,,"[0.4042399466667058, 0.5619571362196378, 0.5964532691014296, 0.6787919727124656]","[455.7072611602213, 405.989014814886, 361.6950928776411, 322.2336946023414]",Tone,"[29.0, 30.520988351585586, 31.367258929177495, 31.0]",True,752.1154700999996,754.6972901999998,754.6972901999998,755.9351508,None,1,3.27903516666629,4.306989166666426,None,1,None,1,,,0,,,,,,ikieoz,001,fr,0,0,2022-04-25_16h11.31.989,Cluster,2022.1.1,None,
,,,,4,0,4,0,13,0,13,0,,,none,,,,,,,,,,,,,,,,,,,,,,,,,,,,,,,,,,,,,,,,,,,,,,,,,,,,,,,,,,,,,,,,,,,,,,,,,,,,,,,,,,,,,,,,,,,,,,,,,,,,,,,,,,,,,,,,,,,,756.4571405999995,None,813.4927273663421,13.340815922505353,0.0001800238380890297,1,"[0.7901376682707902, 0.5148676101400889, 0.7159089325227401, 0.5207336268723788]","[975.7482535860568, 2695.7337827404135, 852.7549161568976, 1602.2161499007752]",None,"[17.0, 15.727744022958504, 18.368777138069806, 18.3463712165465]",False,757.4656531,760.5028427999996,760.5028427999996,761.7492439999996,['space'],1,3.563066066666579,4.600000166666177,None,1,None,1,,[0.42172519999985525],,,,,,,ikieoz,001,fr,0,0,2022-04-25_16h11.31.989,Cluster,2022.1.1,None,
,,,,4,0,4,0,14,0,14,0,,,both,,,,,,,,,,,,,,,,,,,,,,,,,,,,,,,,,,,,,,,,,,,,,,,,,,,,,,,,,,,,,,,,,,,,,,,,,,,,,,,,,,,,,,,,,,,,,,,,,,,,,,,,,,,,,,,,,,,,762.1685591999994,None,2010.8468275689725,12.297056651816593,0.00030918357772104823,0,"[0.5791740932791356, 0.5791740932791356, 0.5791740932791356, 0.5791740932791356]","[3192.0203694299034, 2843.7668554029533, 2533.5082461684747, 2257.0992489094733]",Tone,"[15.585569304371509, 15.379151084288148, 16.0, 17.053352851256424]",False,763.1152585,765.8667304999999,765.8667304999999,767.0969067999995,None,0,3.334730666667383,4.356313366667564,None,1,None,1,,,,,,,,,ikieoz,001,fr,0,0,2022-04-25_16h11.31.989,Cluster,2022.1.1,None,
,,,,4,0,4,0,15,0,15,0,,,both,,,,,,,,,,,,,,,,,,,,,,,,,,,,,,,,,,,,,,,,,,,,,,,,,,,,,,,,,,,,,,,,,,,,,,,,,,,,,,,,,,,,,,,,,,,,,,,,,,,,,,,,,,,,,,,,,,,,767.5178900000001,None,4000.0,9.0,0.00023657562948074026,1,"[0.5566932945183417, 0.5566932945183417, 0.5566932945183417, 0.5566932945183417]","[6349.6042078728005, 5656.854249492382, 5039.684199579494, 4489.8481932374925]",Tone,"[17.0, 16.27400671602057, 16.63148241128642, 16.900627338425906]",False,769.8114254000002,772.5102765000001,772.5102765000001,773.7288578999996,['space'],1,3.24255813333275,4.277781833333393,None,1,['space'],0,[-4.691901800000778],[0.31916569999975763],,,,,,,ikieoz,001,fr,0,0,2022-04-25_16h11.31.989,Cluster,2022.1.1,None,
,,,,4,0,4,0,16,0,16,0,,,both,,,,,,,,,,,,,,,,,,,,,,,,,,,,,,,,,,,,,,,,,,,,,,,,,,,,,,,,,,,,,,,,,,,,,,,,,,,,,,,,,,,,,,,,,,,,,,,,,,,,,,,,,,,,,,,,,,,,774.1379084,None,,,,,"[0.5793697102891198, 0.5793697102891198, 0.5793697102891198, 0.5793697102891198]","[454.7915620630723, 405.1732196630337, 360.9683020225908, 321.586197561221]",Tone,"[29.0, 30.520988351585586, 31.367258929177495, 31.0]",True,775.1474821000002,777.9241163999995,777.9241163999995,779.1482381999995,None,1,3.333728466665889,4.347465366666256,None,1,None,1,,,0,,,,,,ikieoz,001,fr,0,0,2022-04-25_16h11.31.989,Cluster,2022.1.1,None,
,,,,4,0,4,0,17,0,17,0,,,none,,,,,,,,,,,,,,,,,,,,,,,,,,,,,,,,,,,,,,,,,,,,,,,,,,,,,,,,,,,,,,,,,,,,,,,,,,,,,,,,,,,,,,,,,,,,,,,,,,,,,,,,,,,,,,,,,,,,779.5338738,None,4594.793419988137,-5.0,7.021701419132942e-05,0,"[0.5802519908066505, 0.4579092419801893, 0.6226382137161658, 0.5362605388860072]","[186.89196163419666, 858.6762080600721, 731.1795608535078, 2000.2668958214701]",None,"[20.30014022602802, 18.368777138069806, 21.0, 18.297056651816593]",False,780.5528058999998,783.2463373,783.2463373,784.4674058,None,0,3.205099566665922,4.242225666665945,None,1,None,1,,,,,,,,,ikieoz,001,fr,0,0,2022-04-25_16h11.31.989,Cluster,2022.1.1,None,
,,,,4,0,4,0,18,0,18,0,,,time,,,,,,,,,,,,,,,,,,,,,,,,,,,,,,,,,,,,,,,,,,,,,,,,,,,,,,,,,,,,,,,,,,,,,,,,,,,,,,,,,,,,,,,,,,,,,,,,,,,,,,,,,,,,,,,,,,,,784.8488784000001,None,381.4533744487062,25.1577337793156,0.0014734892387972627,1,"[0.5414864953024234, 0.5414864953024234, 0.5414864953024234, 0.5414864953024234]","[5166.109357506514, 873.1858192390206, 559.3444337517351, 7632.73213520696]",None,"[16.36011602406733, 18.368777138069806, 25.0, 20.0]",False,785.8535859000003,788.5079905000002,788.5079905000002,789.7265976999997,['space'],1,3.1864961666660747,4.224253066665369,None,1,None,1,,[0.37617820000014035],,,,,,,ikieoz,001,fr,0,0,2022-04-25_16h11.31.989,Cluster,2022.1.1,None,
,,,,4,0,4,0,19,0,19,0,,,frequency,,,,,,,,,,,,,,,,,,,,,,,,,,,,,,,,,,,,,,,,,,,,,,,,,,,,,,,,,,,,,,,,,,,,,,,,,,,,,,,,,,,,,,,,,,,,,,,,,,,,,,,,,,,,,,,,,,,,790.1274934000003,None,2811.404181667011,9.379151084288148,0.0001959139244727179,1,"[0.6855586653674492, 0.44255312968800514, 0.44579635483123403, 0.5455454412035179]","[1115.7064888715024, 1405.7020908335057, 1771.073654122369, 2231.4129777430044]",Major_3rd,"[16.41519521995837, 17.39714282839313, 18.593949728891563, 17.053352851256424]",False,791.1311416999997,793.7414440000002,793.7414440000002,794.9795503999994,['space'],1,3.1409432666659995,4.1651022666665085,None,1,None,1,,[0.6671641999992062],,,,,,,ikieoz,001,fr,0,0,2022-04-25_16h11.31.989,Cluster,2022.1.1,None,
,,,,5,0,5,0,0,0,0,0,,,frequency,,,,,,,,,,,,,,,,,,,,,,,,,,,,,,,,,,,,,,,,,,,,,,,,,,,,,,,,,,,,,,,,,,,,,,,,,,,,,,,,,,,,,,,,,,,,,,,,,,,,,,,,,,,,,,,,,,,,804.1668867999997,None,164.93848884661182,11.0,0.0013948972476246718,1,"[0.6362335156814245, 0.7887643688098112, 0.6546753075744713, 0.6088875518864887]","[831.2378961427879, 554.7847360339226, 370.27438807164117, 247.1285050882241]",Perfect_5th,"[19.0, 25.0, 31.1577337793156, 25.93472087272818]",False,805.1635472999997,808.2647052000002,808.2647052000002,809.4951786000001,['space'],1,3.702690566666206,4.720068366666055,None,1,None,1,,[0.570025899999564],,,,,,,ikieoz,001,fr,0,0,2022-04-25_16h11.31.989,Cluster,2022.1.1,None,
,,,,5,0,5,0,1,0,1,0,,,both,,,,,,,,,,,,,,,,,,,,,,,,,,,,,,,,,,,,,,,,,,,,,,,,,,,,,,,,,,,,,,,,,,,,,,,,,,,,,,,,,,,,,,,,,,,,,,,,,,,,,,,,,,,,,,,,,,,,809.9385200999996,None,,,,,"[0.534445506454758, 0.534445506454758, 0.534445506454758, 0.534445506454758]","[458.92340766610243, 687.6081894504836, 1030.2482163720215, 1543.6281935297784]",Perfect_5th,"[28.42596580616531, 22.0, 16.907295475076943, 18.0]",True,810.9470290999998,813.5754117999995,813.5754117999995,814.8015094000002,None,1,3.157473366666636,4.1701468666669825,None,1,None,1,,,0,,,,,,ikieoz,001,fr,0,0,2022-04-25_16h11.31.989,Cluster,2022.1.1,None,
,,,,5,0,5,0,2,0,2,0,,,both,,,,,,,,,,,,,,,,,,,,,,,,,,,,,,,,,,,,,,,,,,,,,,,,,,,,,,,,,,,,,,,,,,,,,,,,,,,,,,,,,,,,,,,,,,,,,,,,,,,,,,,,,,,,,,,,,,,,815.1610469999996,None,326.66621913827737,25.0,0.0016999014160051363,1,"[0.6717851310638807, 0.6717851310638807, 0.6717851310638807, 0.6717851310638807]","[518.550299902576, 461.97579747449345, 411.5736457818872, 366.67043344742933]",Tone,"[27.0, 28.42596580616531, 30.520988351585586, 31.1577337793156]",False,816.1682335999994,819.2119584000002,819.2119584000002,820.4547815999995,['space'],1,3.7184483666660526,4.749024266665401,None,1,None,1,,[0.5220976000000519],,,,,,,ikieoz,001,fr,0,0,2022-04-25_16h11.31.989,Cluster,2022.1.1,None,
,,,,5,0,5,0,3,0,3,0,,,time,,,,,,,,,,,,,,,,,,,,,,,,,,,,,,,,,,,,,,,,,,,,,,,,,,,,,,,,,,,,,,,,,,,,,,,,,,,,,,,,,,,,,,,,,,,,,,,,,,,,,,,,,,,,,,,,,,,,820.9689004000002,None,4924.577653379667,1.0,0.0001655611795965586,0,"[0.43297799535205134, 0.43297799535205134, 0.43297799535205134, 0.43297799535205134]","[4325.273859932819, 190.48119791118467, 5694.368292553186, 412.4656429135618]",None,"[17.0, 20.30014022602802, 16.27400671602057, 30.520988351585586]",False,821.9873435999998,824.299505,824.299505,825.5158384999995,None,0,2.738547266666501,3.7734362666669767,None,1,None,1,,,,,,,,,ikieoz,001,fr,0,0,2022-04-25_16h11.31.989,Cluster,2022.1.1,None,
,,,,5,0,5,0,4,0,4,0,,,frequency,,,,,,,,,,,,,,,,,,,,,,,,,,,,,,,,,,,,,,,,,,,,,,,,,,,,,,,,,,,,,,,,,,,,,,,,,,,,,,,,,,,,,,,,,,,,,,,,,,,,,,,,,,,,,,,,,,,,825.8133482000003,None,337.8088867301166,25.087801539139534,0.0016652084876726209,0,"[0.7072412189414721, 0.703015292994633, 0.48601791787917425, 0.4708593493884642]","[212.8062636164134, 238.86695455194376, 268.1190910797967, 300.95350416427596]",Tone,"[22.0, 25.0, 27.612229534922236, 30.0]",False,826.8215555999996,829.7627287999994,829.7627287999994,830.9891238999999,None,0,3.4091169666653514,4.425279066665098,['space'],0,None,1,,,,[-0.034239500000694534],,,,,ikieoz,001,fr,0,0,2022-04-25_16h11.31.989,Cluster,2022.1.1,None,
,,,,5,0,5,0,5,0,5,0,,,frequency,,,,,,,,,,,,,,,,,,,,,,,,,,,,,,,,,,,,,,,,,,,,,,,,,,,,,,,,,,,,,,,,,,,,,,,,,,,,,,,,,,,,,,,,,,,,,,,,,,,,,,,,,,,,,,,,,,,,831.2957165999997,None,176.7766952966369,4.0,0.0005547458636343738,0,"[0.6897400141608383, 0.7518370324575211, 0.6176078628051423, 0.6055995332110317]","[445.44935907016975, 353.55339059327383, 280.6155120773433, 222.72467953508485]",Major_3rd,"[29.0, 31.367258929177495, 29.0, 23.0]",False,834.3590365,837.4326184000001,837.4326184000001,838.6591724,None,0,3.6741285000007338,4.69094910000058,None,1,None,1,,,,,,,,,ikieoz,001,fr,0,0,2022-04-25_16h11.31.989,Cluster,2022.1.1,None,
,,,,5,0,5,0,6,0,6,0,,,none,,,,,,,,,,,,,,,,,,,,,,,,,,,,,,,,,,,,,,,,,,,,,,,,,,,,,,,,,,,,,,,,,,,,,,,,,,,,,,,,,,,,,,,,,,,,,,,,,,,,,,,,,,,,,,,,,,,,839.1012906999995,None,859.0308572422066,12.368777138069806,0.00016633983603141447,1,"[0.4528863549869821, 0.42498967097993645, 0.4580080416790176, 0.660230489562004]","[410.94362305322335, 212.66811870440512, 356.5581332105802, 4815.741277618663]",None,"[30.520988351585586, 22.0, 31.367258929177495, 16.63148241128642]",False,840.1058532999996,842.4524197999999,842.4524197999999,843.6665875999997,['space'],1,3.018692666665629,4.036812666666265,None,1,None,1,,[0.2444986999998946],,,,,,,ikieoz,001,fr,0,0,2022-04-25_16h11.31.989,Cluster,2022.1.1,None,
,,,,5,0,5,0,7,0,7,0,,,frequency,,,,,,,,,,,,,,,,,,,,,,,,,,,,,,,,,,,,,,,,,,,,,,,,,,,,,,,,,,,,,,,,,,,,,,,,,,,,,,,,,,,,,,,,,,,,,,,,,,,,,,,,,,,,,,,,,,,,844.1930344000002,None,2159.121640730495,11.751466951271459,0.0003030761700981998,1,"[0.5080153182946829, 0.6077867458367144, 0.428852141270483, 0.45405190022207664]","[1360.161402219953, 1526.7295535671574, 1713.695981911446, 1923.5587020358641]",Tone,"[17.0, 18.0, 18.593949728891563, 18.58621091439418]",False,845.1975272999998,847.7625376999995,847.7625376999995,848.9783416999999,['space'],1,3.03331846666606,4.07579746666579,None,1,None,1,,[0.25950189999912254],,,,,,,ikieoz,001,fr,0,0,2022-04-25_16h11.31.989,Cluster,2022.1.1,None,
,,,,5,0,5,0,8,0,8,0,,,frequency,,,,,,,,,,,,,,,,,,,,,,,,,,,,,,,,,,,,,,,,,,,,,,,,,,,,,,,,,,,,,,,,,,,,,,,,,,,,,,,,,,,,,,,,,,,,,,,,,,,,,,,,,,,,,,,,,,,,849.3189548,None,,,,,"[0.7427810062478462, 0.6046462720723036, 0.7693963155586687, 0.5947286375879122]","[744.5549676386098, 590.9536694388389, 469.0402382658403, 372.2774838193049]",Major_3rd,"[20.393573098672633, 24.0, 28.42596580616531, 31.1577337793156]",True,850.3309854999998,853.4617320999996,853.4617320999996,854.6811711,None,1,3.7262994666652958,4.757773866665957,None,1,None,1,,,0,,,,,,ikieoz,001,fr,0,0,2022-04-25_16h11.31.989,Cluster,2022.1.1,None,
,,,,5,0,5,0,9,0,9,0,,,none,,,,,,,,,,,,,,,,,,,,,,,,,,,,,,,,,,,,,,,,,,,,,,,,,,,,,,,,,,,,,,,,,,,,,,,,,,,,,,,,,,,,,,,,,,,,,,,,,,,,,,,,,,,,,,,,,,,,855.1367615999998,None,125.0,19.0,0.006441247758465671,0,"[0.7142341201797676, 0.5019918826700681, 0.442833438711685, 0.522581106959225]","[5873.107277269122, 170.97221244942875, 174.8035406000389, 6703.875943004767]",None,"[16.53660351984219, 19.6209483717776, 19.6209483717776, 18.0]",False,856.1538547,858.8429176999998,858.8429176999998,860.0615257999998,None,0,3.2005215666667937,4.219140366667489,None,1,None,1,,,,,,,,,ikieoz,001,fr,0,0,2022-04-25_16h11.31.989,Cluster,2022.1.1,None,
,,,,5,0,5,0,10,0,10,0,,,both,,,,,,,,,,,,,,,,,,,,,,,,,,,,,,,,,,,,,,,,,,,,,,,,,,,,,,,,,,,,,,,,,,,,,,,,,,,,,,,,,,,,,,,,,,,,,,,,,,,,,,,,,,,,,,,,,,,,860.4262798999998,None,8000.0,12.0,0.000722719885372964,0,"[0.6871740579088284, 0.6871740579088284, 0.6871740579088284, 0.6871740579088284]","[3174.8021039364003, 4000.0000000000014, 5039.684199579494, 6349.604207872799]",Major_3rd,"[15.585569304371509, 16.867300937553054, 16.63148241128642, 17.0]",False,861.4616307999995,864.5410472000003,864.5410472000003,865.7799679,None,0,3.7865951333333214,4.807853133333083,None,1,None,1,,,,,,,,,ikieoz,001,fr,0,0,2022-04-25_16h11.31.989,Cluster,2022.1.1,None,
,,,,5,0,5,0,11,0,11,0,,,both,,,,,,,,,,,,,,,,,,,,,,,,,,,,,,,,,,,,,,,,,,,,,,,,,,,,,,,,,,,,,,,,,,,,,,,,,,,,,,,,,,,,,,,,,,,,,,,,,,,,,,,,,,,,,,,,,,,,866.3171106,None,6783.72128608045,12.0,0.0005759445200204999,1,"[0.7543998669986014, 0.7543998669986014, 0.7543998669986014, 0.7543998669986014]","[2692.1215764457943, 3391.860643040226, 4273.476622476341, 5384.243152891588]",Major_3rd,"[15.727744022958504, 16.0, 17.0, 16.36011602406733]",False,867.3396575999996,870.6426222,870.6426222,871.8735803,['space'],1,4.040717166667491,5.066577566667547,None,1,None,1,,[0.5345713999995496],,,,,,,ikieoz,001,fr,0,0,2022-04-25_16h11.31.989,Cluster,2022.1.1,None,
,,,,5,0,5,0,12,0,12,0,,,time,,,,,,,,,,,,,,,,,,,,,,,,,,,,,,,,,,,,,,,,,,,,,,,,,,,,,,,,,,,,,,,,,,,,,,,,,,,,,,,,,,,,,,,,,,,,,,,,,,,,,,,,,,,,,,,,,,,,872.4587430000001,None,198.62299151849365,15.0,0.0015208929181433778,1,"[0.5444266069895627, 0.5444266069895627, 0.5444266069895627, 0.5444266069895627]","[1208.9912876850244, 2281.0542772949248, 4491.322977968989, 296.279598279282]",None,"[16.557281121282692, 17.053352851256424, 16.900627338425906, 30.0]",False,873.4685244000002,876.1503672999997,876.1503672999997,877.3873191000002,['space'],1,3.210200666666424,4.239836866666337,None,1,None,1,,[0.27379219999966153],,,,,,,ikieoz,001,fr,0,0,2022-04-25_16h11.31.989,Cluster,2022.1.1,None,
,,,,5,0,5,0,13,0,13,0,,,time,,,,,,,,,,,,,,,,,,,,,,,,,,,,,,,,,,,,,,,,,,,,,,,,,,,,,,,,,,,,,,,,,,,,,,,,,,,,,,,,,,,,,,,,,,,,,,,,,,,,,,,,,,,,,,,,,,,,877.7587351000002,None,8000.0,11.0,0.000644124775846567,0,"[0.7489964889207612, 0.7489964889207612, 0.7489964889207612, 0.7489964889207612]","[230.54091989928148, 7429.014161264686, 203.27875014193813, 576.1701620505852]",None,"[24.0, 19.76339531111048, 21.32939044129742, 24.811445844059197]",False,880.5137748999996,883.7855253999996,883.7855253999996,885.0036766000003,None,0,4.001618133333977,5.023890533334452,None,1,None,1,,,,,,,,,ikieoz,001,fr,0,0,2022-04-25_16h11.31.989,Cluster,2022.1.1,None,
,,,,5,0,5,0,14,0,14,0,,,time,,,,,,,,,,,,,,,,,,,,,,,,,,,,,,,,,,,,,,,,,,,,,,,,,,,,,,,,,,,,,,,,,,,,,,,,,,,,,,,,,,,,,,,,,,,,,,,,,,,,,,,,,,,,,,,,,,,,885.5985279999995,None,,,,,"[0.726072663503832, 0.726072663503832, 0.726072663503832, 0.726072663503832]","[4030.2674158605696, 214.7747280237817, 348.34385718609497, 343.10373293401074]",None,"[16.867300937553054, 22.667073298204066, 31.367258929177495, 31.367258929177495]",True,886.6131583999995,889.8172165999995,889.8172165999995,891.0525658999995,None,1,3.945391066667071,4.963163066667221,None,1,None,1,,,0,,,,,,ikieoz,001,fr,0,0,2022-04-25_16h11.31.989,Cluster,2022.1.1,None,
,,,,5,0,5,0,15,0,15,0,,,frequency,,,,,,,,,,,,,,,,,,,,,,,,,,,,,,,,,,,,,,,,,,,,,,,,,,,,,,,,,,,,,,,,,,,,,,,,,,,,,,,,,,,,,,,,,,,,,,,,,,,,,,,,,,,,,,,,,,,,891.6177133000001,None,3732.1319661472303,7.0,0.00017739182544897908,0,"[0.4105384873547184, 0.641914419038396, 0.7600204963111734, 0.7445911966889736]","[1481.097552286565, 1866.0659830736156, 2351.095812567218, 2962.1951045731294]",Major_3rd,"[17.90976647246743, 18.58621091439418, 17.0, 15.338393759349065]",False,892.7104340999995,895.5616596,895.5616596,896.8013768999999,None,0,3.5813998000003266,4.607024700000693,None,1,None,1,,,,,,,,,ikieoz,001,fr,0,0,2022-04-25_16h11.31.989,Cluster,2022.1.1,None,
,,,,5,0,5,0,16,0,16,0,,,both,,,,,,,,,,,,,,,,,,,,,,,,,,,,,,,,,,,,,,,,,,,,,,,,,,,,,,,,,,,,,,,,,,,,,,,,,,,,,,,,,,,,,,,,,,,,,,,,,,,,,,,,,,,,,,,,,,,,897.3636819000003,None,176.7766952966369,8.0,0.0008792129428200801,1,"[0.6055664085289244, 0.6055664085289244, 0.6055664085289244, 0.6055664085289244]","[445.44935907016975, 353.55339059327383, 280.6155120773433, 222.72467953508485]",Major_3rd,"[29.0, 31.367258929177495, 29.0, 23.0]",False,898.3967597999999,901.2373853999998,901.2373853999998,902.4603369999995,['space'],1,3.448377733333473,4.471106833333579,None,1,None,1,,[0.4180133999989266],,,,,,,ikieoz,001,fr,0,0,2022-04-25_16h11.31.989,Cluster,2022.1.1,None,
,,,,5,0,5,0,17,0,17,0,,,time,,,,,,,,,,,,,,,,,,,,,,,,,,,,,,,,,,,,,,,,,,,,,,,,,,,,,,,,,,,,,,,,,,,,,,,,,,,,,,,,,,,,,,,,,,,,,,,,,,,,,,,,,,,,,,,,,,,,902.9178104000002,None,707.2153384737467,15.479916871836636,0.0002638241379558666,0,"[0.7871196252067851, 0.7871196252067851, 0.7871196252067851, 0.7871196252067851]","[6508.540595340864, 674.5714540872415, 3996.4916772500433, 4411.543688573658]",None,"[17.240842932260975, 22.0, 16.867300937553054, 17.0]",False,903.9309100999999,907.3174397000003,907.3174397000003,908.5428884000003,None,0,4.18660326666668,5.227297866666959,None,1,None,1,,,,,,,,,ikieoz,001,fr,0,0,2022-04-25_16h11.31.989,Cluster,2022.1.1,None,
,,,,5,0,5,0,18,0,18,0,,,frequency,,,,,,,,,,,,,,,,,,,,,,,,,,,,,,,,,,,,,,,,,,,,,,,,,,,,,,,,,,,,,,,,,,,,,,,,,,,,,,,,,,,,,,,,,,,,,,,,,,,,,,,,,,,,,,,,,,,,909.2127884000001,None,,,,,"[0.5723892434877252, 0.5418447793383272, 0.5398538418449923, 0.4227907904426656]","[1756.5863709572277, 1172.3807476228078, 782.4702730942923, 522.236252614786]",Perfect_5th,"[18.593949728891563, 16.41519521995837, 20.0, 26.0]",True,910.2322649999996,912.9006184,912.9006184,914.1215424000002,None,1,3.110424066667292,4.123141566667982,None,1,None,1,,,0,,,,,,ikieoz,001,fr,0,0,2022-04-25_16h11.31.989,Cluster,2022.1.1,None,
,,,,5,0,5,0,19,0,19,0,,,frequency,,,,,,,,,,,,,,,,,,,,,,,,,,,,,,,,,,,,,,,,,,,,,,,,,,,,,,,,,,,,,,,,,,,,,,,,,,,,,,,,,,,,,,,,,,,,,,,,,,,,,,,,,,,,,,,,,,,,914.3930039999996,None,2148.5515040421838,11.751466951271459,0.000302169673407584,1,"[0.49525275444271416, 0.7814394229503248, 0.4120273287920791, 0.5547692586969606]","[426.3266147155524, 638.7681838891906, 957.0708904048397, 1433.9860881662382]",Perfect_5th,"[30.0, 23.0, 17.536976808502533, 17.39714282839313]",False,915.3991402000001,918.1224738999999,918.1224738999999,919.342799,['space'],1,3.270081666666556,4.2914219666663485,None,1,None,1,,[0.7806340999995882],,,,,,,ikieoz,001,fr,0,0,2022-04-25_16h11.31.989,Cluster,2022.1.1,None,
,,,,6,0,6,0,0,0,0,0,,,none,,,,,,,,,,,,,,,,,,,,,,,,,,,,,,,,,,,,,,,,,,,,,,,,,,,,,,,,,,,,,,,,,,,,,,,,,,,,,,,,,,,,,,,,,,,,,,,,,,,,,,,,,,,,,,,,,,,,929.0182023999996,None,227.39063457979555,18.0,0.00168221851254647,0,"[0.4861256338056998, 0.7697951029593062, 0.7124539673823953, 0.5859736490073235]","[5049.982927410713, 628.7073652859885, 2849.193610095286, 4437.151631559665]",None,"[16.63148241128642, 23.6801627476447, 15.379151084288148, 17.0]",False,929.9998507,933.0209217000001,933.0209217000001,934.2426257999996,None,0,3.5768546666668044,4.614439866666544,None,1,None,1,,,,,,,,,ikieoz,001,fr,0,0,2022-04-25_16h11.31.989,Cluster,2022.1.1,None,
,,,,6,0,6,0,1,0,1,0,,,both,,,,,,,,,,,,,,,,,,,,,,,,,,,,,,,,,,,,,,,,,,,,,,,,,,,,,,,,,,,,,,,,,,,,,,,,,,,,,,,,,,,,,,,,,,,,,,,,,,,,,,,,,,,,,,,,,,,,934.6723520999994,None,1650.5288723508475,12.346371216546501,0.0002445719347922578,1,"[0.6495596939025169, 0.6495596939025169, 0.6495596939025169, 0.6495596939025169]","[655.0128170684055, 825.264436175424, 1039.7680348670406, 1310.0256341368108]",Major_3rd,"[22.575394634166223, 19.0, 16.52712978726722, 16.910019972301612]",False,935.6667724999998,938.6470226000001,938.6470226000001,939.8716619999996,['space'],1,3.617308966665405,4.657729166665376,None,1,None,1,,[0.3557033999995838],,,,,,,ikieoz,001,fr,0,0,2022-04-25_16h11.31.989,Cluster,2022.1.1,None,
,,,,6,0,6,0,2,0,2,0,,,frequency,,,,,,,,,,,,,,,,,,,,,,,,,,,,,,,,,,,,,,,,,,,,,,,,,,,,,,,,,,,,,,,,,,,,,,,,,,,,,,,,,,,,,,,,,,,,,,,,,,,,,,,,,,,,,,,,,,,,940.3743134999995,None,8000.0,12.0,0.000722719885372964,0,"[0.6674589055628108, 0.5610411308399781, 0.664782390675373, 0.5740009268585466]","[3174.8021039364003, 4000.0000000000014, 5039.684199579494, 6349.604207872799]",Major_3rd,"[15.585569304371509, 16.867300937553054, 16.63148241128642, 17.0]",False,941.3962838999996,944.3288659999998,944.3288659999998,945.5658848000003,None,0,3.479250633333322,4.495197733333953,None,1,None,1,,,,,,,,,ikieoz,001,fr,0,0,2022-04-25_16h11.31.989,Cluster,2022.1.1,None,
,,,,6,0,6,0,3,0,3,0,,,time,,,,,,,,,,,,,,,,,,,,,,,,,,,,,,,,,,,,,,,,,,,,,,,,,,,,,,,,,,,,,,,,,,,,,,,,,,,,,,,,,,,,,,,,,,,,,,,,,,,,,,,,,,,,,,,,,,,,945.9422703,None,,,,,"[0.47917922554455433, 0.47917922554455433, 0.47917922554455433, 0.47917922554455433]","[2020.5371812879819, 1642.6043566215228, 854.8997049562515, 544.2497195138056]",None,"[18.297056651816593, 18.3463712165465, 18.368777138069806, 25.988071448995573]",True,946.9453365999998,949.3982934999995,949.3982934999995,950.6207273,['space'],0,2.934240666666483,3.9511931666665987,None,1,None,1,,[0.37059820000013133],0,,,,,,ikieoz,001,fr,0,0,2022-04-25_16h11.31.989,Cluster,2022.1.1,None,
,,,,6,0,6,0,4,0,4,0,,,time,,,,,,,,,,,,,,,,,,,,,,,,,,,,,,,,,,,,,,,,,,,,,,,,,,,,,,,,,,,,,,,,,,,,,,,,,,,,,,,,,,,,,,,,,,,,,,,,,,,,,,,,,,,,,,,,,,,,950.9474031,None,1231.1444133449168,24.0,0.000851413334521805,1,"[0.5804110375789019, 0.5804110375789019, 0.5804110375789019, 0.5804110375789019]","[3119.930552362958, 178.6081339885787, 201.30077316075602, 7094.652274365666]",None,"[15.338393759349065, 19.6209483717776, 21.32939044129742, 19.0]",False,951.9676258999998,954.7379077999994,954.7379077999994,955.9537853000002,['space'],1,3.357786833334103,4.385210833333986,None,1,None,1,,[0.44133719999990717],,,,,,,ikieoz,001,fr,0,0,2022-04-25_16h11.31.989,Cluster,2022.1.1,None,
,,,,6,0,6,0,5,0,5,0,,,frequency,,,,,,,,,,,,,,,,,,,,,,,,,,,,,,,,,,,,,,,,,,,,,,,,,,,,,,,,,,,,,,,,,,,,,,,,,,,,,,,,,,,,,,,,,,,,,,,,,,,,,,,,,,,,,,,,,,,,956.4046071000002,None,2159.3234987703986,11.751466951271459,0.00030309348147746976,1,"[0.6984199939110373, 0.4381496452314817, 0.6547449965728552, 0.5361211867930894]","[856.9280983719462, 1079.6617493851995, 1360.288564816736, 1713.856196743892]",Major_3rd,"[18.368777138069806, 16.52712978726722, 17.0, 18.593949728891563]",False,957.4146401999997,960.2193734000002,960.2193734000002,961.4301693999996,['space'],1,3.3582815666668466,4.385112866666532,None,1,None,1,,[0.4514134999999442],,,,,,,ikieoz,001,fr,0,0,2022-04-25_16h11.31.989,Cluster,2022.1.1,None,
,,,,6,0,6,0,6,0,6,0,,,none,,,,,,,,,,,,,,,,,,,,,,,,,,,,,,,,,,,,,,,,,,,,,,,,,,,,,,,,,,,,,,,,,,,,,,,,,,,,,,,,,,,,,,,,,,,,,,,,,,,,,,,,,,,,,,,,,,,,961.8489005000001,None,615.5722066724584,11.0,0.00018952495823882962,1,"[0.49187390004492454, 0.558400638518308, 0.7325377294883729, 0.6559737698064905]","[6377.352283927699, 464.9886779258688, 999.4125846220727, 2958.6038347448916]",None,"[17.0, 28.42596580616531, 16.907295475076943, 15.338393759349065]",False,962.8686791,965.6823966000002,965.6823966000002,966.9179733999999,['space'],1,3.4633420666668826,4.496542066666734,None,1,None,1,,[0.23858209999980318],,,,,,,ikieoz,001,fr,0,0,2022-04-25_16h11.31.989,Cluster,2022.1.1,None,
,,,,6,0,6,0,7,0,7,0,,,time,,,,,,,,,,,,,,,,,,,,,,,,,,,,,,,,,,,,,,,,,,,,,,,,,,,,,,,,,,,,,,,,,,,,,,,,,,,,,,,,,,,,,,,,,,,,,,,,,,,,,,,,,,,,,,,,,,,,967.4208928999997,None,739.7142737589396,15.0,0.00023361631846253108,1,"[0.4809301971522222, 0.4809301971522222, 0.4809301971522222, 0.4809301971522222]","[1682.8713417269423, 1339.4950057222673, 1896.141919077739, 160.18165563410366]",None,"[18.593949728891563, 17.0, 18.58621091439418, 19.30427764440696]",False,968.4209595000002,970.9010486999996,970.9010486999996,972.1133359999994,['space'],1,2.9447995666660063,3.9546451666665234,None,1,None,1,,[0.4842840999990585],,,,,,,ikieoz,001,fr,0,0,2022-04-25_16h11.31.989,Cluster,2022.1.1,None,
,,,,6,0,6,0,8,0,8,0,,,time,,,,,,,,,,,,,,,,,,,,,,,,,,,,,,,,,,,,,,,,,,,,,,,,,,,,,,,,,,,,,,,,,,,,,,,,,,,,,,,,,,,,,,,,,,,,,,,,,,,,,,,,,,,,,,,,,,,,972.4197661999997,None,125.0,10.0,0.002285440948074376,0,"[0.5569438870006003, 0.5569438870006003, 0.5569438870006003, 0.5569438870006003]","[5857.660774818653, 1131.4615987122743, 1123.654676547254, 554.0603881176553]",None,"[16.27400671602057, 16.41519521995837, 16.41519521995837, 25.0]",False,977.1531849000003,979.8443840999998,979.8443840999998,981.0792996999999,None,0,3.2680872333330626,4.298233333333883,None,1,None,1,,,,,,,,,ikieoz,001,fr,0,0,2022-04-25_16h11.31.989,Cluster,2022.1.1,None,
,,,,6,0,6,0,9,0,9,0,,,time,,,,,,,,,,,,,,,,,,,,,,,,,,,,,,,,,,,,,,,,,,,,,,,,,,,,,,,,,,,,,,,,,,,,,,,,,,,,,,,,,,,,,,,,,,,,,,,,,,,,,,,,,,,,,,,,,,,,981.4924388999998,None,,,,,"[0.4777831746787645, 0.4777831746787645, 0.4777831746787645, 0.4777831746787645]","[259.00707544067114, 6349.375396547628, 483.4647678628831, 261.3330730120691]",None,"[27.0, 17.0, 28.0, 27.0]",True,982.4994465,984.9468699999998,984.9468699999998,986.1563854999995,None,1,2.9450197666656095,3.9727623666658474,None,1,None,1,,,0,,,,,,ikieoz,001,fr,0,0,2022-04-25_16h11.31.989,Cluster,2022.1.1,None,
,,,,6,0,6,0,10,0,10,0,,,none,,,,,,,,,,,,,,,,,,,,,,,,,,,,,,,,,,,,,,,,,,,,,,,,,,,,,,,,,,,,,,,,,,,,,,,,,,,,,,,,,,,,,,,,,,,,,,,,,,,,,,,,,,,,,,,,,,,,986.5141788000001,None,146.603536193531,13.577230263869932,0.0025319484356243122,0,"[0.7763396359725028, 0.7282135978422427, 0.514222967900674, 0.7425592990376791]","[1604.888930332562, 3062.6851588763993, 217.23426318060254, 5409.472902094628]",None,"[18.3463712165465, 15.338393759349065, 22.667073298204066, 16.36011602406733]",False,987.5142528999995,990.5759429,990.5759429,991.7877625000001,None,0,3.788095966666333,4.818788266666161,None,1,None,1,,,,,,,,,ikieoz,001,fr,0,0,2022-04-25_16h11.31.989,Cluster,2022.1.1,None,
,,,,6,0,6,0,11,0,11,0,,,none,,,,,,,,,,,,,,,,,,,,,,,,,,,,,,,,,,,,,,,,,,,,,,,,,,,,,,,,,,,,,,,,,,,,,,,,,,,,,,,,,,,,,,,,,,,,,,,,,,,,,,,,,,,,,,,,,,,,992.3787518999998,None,2297.3967099940687,11.0,0.0002888332028733877,0,"[0.5786087047048845, 0.7742783073021835, 0.7408929484472584, 0.5490392896327017]","[569.7913902111685, 471.92425034749033, 528.5910368847984, 1223.3952073780192]",None,"[25.0, 28.42596580616531, 26.0, 16.557281121282692]",False,998.4326443999998,1001.5447008000001,1001.5447008000001,1002.7590848,None,0,3.6592688666669346,4.687738866666223,None,1,None,1,,,,,,,,,ikieoz,001,fr,0,0,2022-04-25_16h11.31.989,Cluster,2022.1.1,None,
,,,,6,0,6,0,12,0,12,0,,,both,,,,,,,,,,,,,,,,,,,,,,,,,,,,,,,,,,,,,,,,,,,,,,,,,,,,,,,,,,,,,,,,,,,,,,,,,,,,,,,,,,,,,,,,,,,,,,,,,,,,,,,,,,,,,,,,,,,,1003.1661349999995,None,4287.0938501451765,6.0,0.000206896608099331,1,"[0.4627623541459874, 0.4627623541459874, 0.4627623541459874, 0.4627623541459874]","[1701.3343219017138, 2143.546925072589, 2700.699892336383, 3402.668643803426]",Major_3rd,"[18.593949728891563, 17.75146695127146, 15.727744022958504, 16.0]",False,1004.1800140999994,1006.6004856,1006.6004856,1007.8320434999996,['space'],1,2.8708434666668836,3.8962967666666373,None,1,None,1,,[0.4154380999989371],,,,,,,ikieoz,001,fr,0,0,2022-04-25_16h11.31.989,Cluster,2022.1.1,None,
,,,,6,0,6,0,13,0,13,0,,,none,,,,,,,,,,,,,,,,,,,,,,,,,,,,,,,,,,,,,,,,,,,,,,,,,,,,,,,,,,,,,,,,,,,,,,,,,,,,,,,,,,,,,,,,,,,,,,,,,,,,,,,,,,,,,,,,,,,,1008.1326392999999,None,,,,,"[0.47771009677276327, 0.6021341995718904, 0.5345936054424522, 0.6457477994525067]","[868.8301040082539, 179.11245001876907, 133.6185506280367, 4176.535057312262]",None,"[18.368777138069806, 19.6209483717776, 20.022505355605915, 17.0]",True,1009.1383295999995,1011.7645604999998,1011.7645604999998,1012.9802754000002,None,1,3.300953466666215,4.327421466666237,None,1,None,1,,,0,,,,,,ikieoz,001,fr,0,0,2022-04-25_16h11.31.989,Cluster,2022.1.1,None,
,,,,6,0,6,0,14,0,14,0,,,none,,,,,,,,,,,,,,,,,,,,,,,,,,,,,,,,,,,,,,,,,,,,,,,,,,,,,,,,,,,,,,,,,,,,,,,,,,,,,,,,,,,,,,,,,,,,,,,,,,,,,,,,,,,,,,,,,,,,1013.5053234999996,None,3935.1667480042465,10.867300937553054,0.00028933865451726427,1,"[0.7608906634303967, 0.676900489869966, 0.7738007350174384, 0.6973412016575375]","[7087.445365093707, 1448.3976599794546, 5571.746452731703, 425.2804069841904]",None,"[19.0, 17.39714282839313, 16.27400671602057, 30.0]",False,1014.5082235,1017.7365070999995,1017.7365070999995,1018.9647917000002,['space'],1,3.949046566666766,5.000070966666499,None,1,None,1,,[0.5922558999991452],,,,,,,ikieoz,001,fr,0,0,2022-04-25_16h11.31.989,Cluster,2022.1.1,None,
,,,,6,0,6,0,15,0,15,0,,,frequency,,,,,,,,,,,,,,,,,,,,,,,,,,,,,,,,,,,,,,,,,,,,,,,,,,,,,,,,,,,,,,,,,,,,,,,,,,,,,,,,,,,,,,,,,,,,,,,,,,,,,,,,,,,,,,,,,,,,1019.5619178999996,None,1071.7734625362941,5.0,8.367608612606695e-05,1,"[0.6699243824668092, 0.7618456916266456, 0.5579304143076169, 0.5476099328665874]","[425.33358047542845, 535.8867312681473, 675.1749730840958, 850.6671609508566]",Major_3rd,"[30.0, 25.988071448995573, 22.0, 19.0]",False,1020.6380297999995,1023.6601848,1023.6601848,1024.8720119999998,['space'],1,3.5655252333326644,4.594004633332588,None,1,None,1,,[0.7248456999996051],,,,,,,ikieoz,001,fr,0,0,2022-04-25_16h11.31.989,Cluster,2022.1.1,None,
,,,,6,0,6,0,16,0,16,0,,,none,,,,,,,,,,,,,,,,,,,,,,,,,,,,,,,,,,,,,,,,,,,,,,,,,,,,,,,,,,,,,,,,,,,,,,,,,,,,,,,,,,,,,,,,,,,,,,,,,,,,,,,,,,,,,,,,,,,,1025.2902697999998,None,329.87697769322364,10.0,0.0002996540782015946,0,"[0.41406736602718097, 0.6904558273245507, 0.5824035508308865, 0.7532912514198383]","[1709.1479511053344, 4002.3886676577868, 2370.186128762925, 1244.5919754593199]",None,"[18.593949728891563, 16.867300937553054, 17.0, 16.557281121282692]",False,1026.3128637,1029.0125379,1029.0125379,1030.2486916999997,None,0,3.4652841333336255,4.479926833333593,None,1,None,1,,,,,,,,,ikieoz,001,fr,0,0,2022-04-25_16h11.31.989,Cluster,2022.1.1,None,
,,,,6,0,6,0,17,0,17,0,,,frequency,,,,,,,,,,,,,,,,,,,,,,,,,,,,,,,,,,,,,,,,,,,,,,,,,,,,,,,,,,,,,,,,,,,,,,,,,,,,,,,,,,,,,,,,,,,,,,,,,,,,,,,,,,,,,,,,,,,,1030.8477741999995,None,4635.241832143727,10.900627338425904,0.0004477620482074109,0,"[0.6830161150063752, 0.764009125376927, 0.5931618448579972, 0.420287554580054]","[1839.4969401179897, 2317.620916071864, 2920.0193778355806, 3678.993880235979]",Major_3rd,"[18.58621091439418, 17.0, 15.379151084288148, 16.506253786942413]",False,1031.8487986,1034.9093427999996,1034.9093427999996,1036.1459225999997,None,0,3.497156966665898,4.52859346666537,None,1,None,1,,,,,,,,,ikieoz,001,fr,0,0,2022-04-25_16h11.31.989,Cluster,2022.1.1,None,
