frequencies,training_trials.thisRepN,training_trials.thisTrialN,training_trials.thisN,training_trials.thisIndex,frequencies.thisRepN,frequencies.thisTrialN,frequencies.thisN,frequencies.thisIndex,trials.thisRepN,trials.thisTrialN,trials.thisN,trials.thisIndex,tFrequency,tLevel,tCorrect,Tprobe.started,Tprobe.stopped,tTriangle_cue.started,tTriangle_cue.stopped,Tfeedback.keys,Tfeedback.corr,Tfeedback.rt,Tfeedback.started,Tfeedback.stopped,reversals_nTrials.routineEndVal,track_dir.routineEndVal,step_up.routineEndVal,Correct,Frequency,Level,Psychopy_Level,Direction,Reversals,Track_dir,Step,probe.started,probe.stopped,cross_cue.started,cross_cue.stopped,circle_cue.started,circle_cue.stopped,triangle_cue.started,triangle_cue.stopped,feedback.keys,feedback.corr,feedback.rt,feedback.started,feedback.stopped,memo.started,memo.stopped,key_resp.keys,key_resp.rt,key_resp.started,key_resp.stopped,text.started,text.stopped,participant,session,skip_training,language (english or french),date,expName,psychopyVersion,frameRate,
5000,0,0,0,4,,,,,,,,,5000,30,right,None,None,None,None,left,0,1.4173077000305057,96.39345850003883,None,,,,,,,,,,,,,,,,,,,,,,,,,,,,,,,,,klxufm,001,0,fr,2022-05-09_17h40.48.032,3-AFC_adaptive_staircase_mess,2022.1.1,None,
450,0,1,1,1,,,,,,,,,450,30,right,105.79482626665073,None,105.74922950007021,106.0918493999634,right,1,2.9689247000496835,103.32217850000598,None,,,,,,,,,,,,,,,,,,,,,,,,,,,,,,,,,klxufm,001,0,fr,2022-05-09_17h40.48.032,3-AFC_adaptive_staircase_mess,2022.1.1,None,
850,0,2,2,2,,,,,,,,,850,30,right,112.26566546672645,None,112.2191289998591,112.5633534998633,right,1,2.897940000053495,109.79333700006828,None,,,,,,,,,,,,,,,,,,,,,,,,,,,,,,,,,klxufm,001,0,fr,2022-05-09_17h40.48.032,3-AFC_adaptive_staircase_mess,2022.1.1,None,
1300,0,3,3,3,,,,,,,,,1300,30,left,115.49683466653029,None,None,None,left,1,1.1650574000086635,115.03016399987973,None,,,,,,,,,,,,,,,,,,,,,,,,,,,,,,,,,klxufm,001,0,fr,2022-05-09_17h40.48.032,3-AFC_adaptive_staircase_mess,2022.1.1,None,
200,0,4,4,0,,,,,,,,,200,30,up,119.63584046654093,None,None,None,up,1,2.347239200025797,118.1518051000312,None,,,,,,,,,,,,,,,,,,,,,,,,,,,,,,,,,klxufm,001,0,fr,2022-05-09_17h40.48.032,3-AFC_adaptive_staircase_mess,2022.1.1,None,
,,,,,0,0,0,0,0,0,0,0,,,,,,,,,,,,,[],[],10,right,1000,30,0.0013930605843148849,0,0,-1,10,161.229609966573,None,159.1658592999447,159.49823260004632,160.1734953999985,160.50897899991833,161.1821719999425,161.51539000007324,right,1,2.537706400034949,159.22584409988485,None,161.72457409999333,None,,,,,,,klxufm,001,0,fr,2022-05-09_17h40.48.032,3-AFC_adaptive_staircase_mess,2022.1.1,None,
,,,,,0,0,0,0,1,0,1,0,,,,,,,,,,,,,,,,up,1000,30,0.0013930605843148849,0,0,-1,10,164.36491956661146,None,163.30687429988757,163.63455619988963,164.31540219997987,164.65411589993164,None,None,up,1,1.4700356000103056,163.36546420003287,None,None,None,,,,,,,klxufm,001,0,fr,2022-05-09_17h40.48.032,3-AFC_adaptive_staircase_mess,2022.1.1,None,
,,,,,0,0,0,0,2,0,2,0,,,,,,,,,,,,,,,,right,1000,10,0.00013930605843148847,-1,0,-1,-10,168.3894376666906,None,166.3470727999229,166.6824542998802,167.33886969997548,167.6639101000037,168.3419224000536,168.65985469985753,right,1,2.380673699779436,166.40704989992082,None,None,None,,,,,,,klxufm,001,0,fr,2022-05-09_17h40.48.032,3-AFC_adaptive_staircase_mess,2022.1.1,None,
,,,,,0,0,0,0,3,0,3,0,,,,,,,,,,,,,,,,up,1000,10,0.00013930605843148847,-1,0,-1,-10,171.3522837665553,None,170.30943849985488,170.64853699994273,171.33561709988862,171.6516575999558,None,None,up,1,1.5206078998744488,170.37116630002856,None,None,None,,,,,,,klxufm,001,0,fr,2022-05-09_17h40.48.032,3-AFC_adaptive_staircase_mess,2022.1.1,None,
,,,,,0,0,0,0,4,0,4,0,,,,,,,,,,,,,,,,up,1000,0,4.405244365040069e-05,-1,0,-1,-10,174.44367306662414,None,173.38112049992196,173.7141356000211,174.39501559990458,174.71417589997873,None,None,up,1,1.5716128000058234,173.43996219988912,None,None,None,,,,,,,klxufm,001,0,fr,2022-05-09_17h40.48.032,3-AFC_adaptive_staircase_mess,2022.1.1,None,
,,,,,0,0,0,0,5,0,5,0,,,,,,,,,,,,,,,,right,1000,0,4.405244365040069e-05,-1,0,-1,-10,178.55802486656856,None,176.5164677000139,176.85584229999222,177.50866689998657,177.85125679988414,178.51227850001305,178.8541145999916,right,1,2.3682248999830335,176.5474689998664,None,None,None,,,,,,,klxufm,001,0,fr,2022-05-09_17h40.48.032,3-AFC_adaptive_staircase_mess,2022.1.1,None,
,,,,,0,0,0,0,6,0,6,0,,,,,,,,,,,,,,,,right,1000,-10,1.3930605843148848e-05,-1,0,-1,-10,182.45022506668855,None,180.41874350002035,180.76081130001694,181.41122150002047,181.72531659994274,182.43355840002187,182.77818739996292,up,0,3.9510490000247955,180.4844491998665,None,182.96082539996132,None,,,,,,,klxufm,001,0,fr,2022-05-09_17h40.48.032,3-AFC_adaptive_staircase_mess,2022.1.1,None,
,,,,,0,0,0,0,7,0,7,0,,,,,,,,,,,,,,,,up,1000,-5,2.4772509540239506e-05,1,1,1,5,187.00462916662607,None,185.9730116999708,186.31835029996,186.9572745000478,187.3040869999677,None,None,up,1,1.695636099902913,186.00358919985592,None,None,None,,,,,,,klxufm,001,0,fr,2022-05-09_17h40.48.032,3-AFC_adaptive_staircase_mess,2022.1.1,None,
,,,,,0,0,0,0,8,0,8,0,,,,,,,,,,,,,,,,up,1000,-5,2.4772509540239506e-05,1,1,1,5,190.26947166660491,None,189.2257453999482,189.54755629994906,190.2243077000603,190.55736069986597,None,None,up,1,1.7439749999903142,189.28338639996946,None,None,None,,,,,,,klxufm,001,0,fr,2022-05-09_17h40.48.032,3-AFC_adaptive_staircase_mess,2022.1.1,None,
,,,,,0,0,0,0,9,0,9,0,,,,,,,,,,,,,,,,left,1000,-15,7.833755350540743e-06,-1,2,-1,-5.0,192.59252106660668,None,192.54670049995184,192.8798787998967,193.55617709993385,193.8857901999727,194.5621485998854,194.89372829999775,left,1,4.631012700032443,192.60429909988306,None,195.1011324999854,None,,,,,,,klxufm,001,0,fr,2022-05-09_17h40.48.032,3-AFC_adaptive_staircase_mess,2022.1.1,None,
,,,,,0,0,0,0,10,0,10,0,,,,,,,,,,,,,,,,left,1000,-15,7.833755350540743e-06,-1,2,-1,-5.0,198.76633376657654,None,198.72012219997123,199.05353110004216,199.72518309997395,200.05271189985797,200.72450260003097,201.046259699855,up,0,3.0657899000216275,198.77794529986568,None,201.2810386000201,None,,,,,,,klxufm,001,0,fr,2022-05-09_17h40.48.032,3-AFC_adaptive_staircase_mess,2022.1.1,None,
,,,,,0,0,0,0,11,0,11,0,,,,,,,,,,,,,,,,left,1000,-12.5,1.0446480654270193e-05,1,3,1,2.5,203.39743456669774,None,203.35285450005904,203.6854383999016,204.36939979996532,204.69237299985252,None,None,right,0,1.88159259990789,203.40186830004677,None,None,None,,,,,,,klxufm,001,0,fr,2022-05-09_17h40.48.032,3-AFC_adaptive_staircase_mess,2022.1.1,None,
,,,,,0,0,0,0,12,0,12,0,,,,,,,,,,,,,,,,right,1000,-10.0,1.3930605843148848e-05,1,3,1,2.5,208.85153596668195,None,206.80192019999959,207.1360088000074,207.8008419999387,208.13401759997942,208.80393070005812,209.13827520003542,up,0,3.014598899986595,206.8606713998597,None,209.369367999956,None,,,,,,,klxufm,001,0,fr,2022-05-09_17h40.48.032,3-AFC_adaptive_staircase_mess,2022.1.1,None,
,,,,,0,0,0,0,13,0,13,0,,,,,,,,,,,,,,,,up,1000,-7.5,1.8576761454858622e-05,1,3,1,2.5,212.44344196661066,None,211.40050109988078,211.72473550005816,212.39834919990972,212.72938450006768,None,None,up,1,1.7290599001571536,211.45826809993014,None,None,None,,,,,,,klxufm,001,0,fr,2022-05-09_17h40.48.032,3-AFC_adaptive_staircase_mess,2022.1.1,None,
,,,,,0,0,0,0,14,0,14,0,,,,,,,,,,,,,,,,right,1000,-7.5,1.8576761454858622e-05,1,3,1,2.5,216.71403816651244,None,214.6813947998453,215.0062863000203,215.68113929987885,216.00423489999957,216.66921129985712,216.9968163999729,right,1,2.465317999944091,214.73754319990985,None,217.23172609996982,None,,,,,,,klxufm,001,0,fr,2022-05-09_17h40.48.032,3-AFC_adaptive_staircase_mess,2022.1.1,None,
,,,,,0,0,0,0,15,0,15,0,,,,,,,,,,,,,,,,up,1000,-12.5,1.0446480654270193e-05,-1,4,-1,-5.0,219.77067676658433,None,218.7427475999575,219.06833689985797,219.75401009991765,220.07858069986105,220.74564830004238,221.0721237999387,up,1,2.674135100096464,218.80099490005523,None,221.2789274000097,None,,,,,,,klxufm,001,0,fr,2022-05-09_17h40.48.032,3-AFC_adaptive_staircase_mess,2022.1.1,None,
,,,,,0,0,0,0,16,0,16,0,,,,,,,,,,,,,,,,left,1000,-12.5,1.0446480654270193e-05,-1,4,-1,-5.0,223.03256956657086,223.2557417000644,222.98776139994152,223.30973719991744,223.98038329998963,224.30632880004123,224.97866629995406,225.30244109989144,left,1,4.0647255999501795,223.04357169987634,None,225.53687459998764,None,,,,,,,klxufm,001,0,fr,2022-05-09_17h40.48.032,3-AFC_adaptive_staircase_mess,2022.1.1,None,
,,,,,0,0,0,0,17,0,17,0,,,,,,,,,,,,,,,,right,1000,-17.5,5.874487774697645e-06,-1,4,-1,-5.0,230.63580986654077,None,228.59511330001988,228.92220219993033,229.59503849991597,229.91991659998894,230.58962389989756,230.91800999990664,up,0,4.742425299948081,228.65383589989506,None,231.15168889984488,None,,,,,,,klxufm,001,0,fr,2022-05-09_17h40.48.032,3-AFC_adaptive_staircase_mess,2022.1.1,None,
,,,,,0,0,0,0,18,0,18,0,,,,,,,,,,,,,,,,right,1000,-15.0,7.833755350540743e-06,1,5,1,2.5,None,None,234.90094269998372,235.22254800004885,235.9209714999888,None,None,None,left,0,1.1690128999762237,234.96175309992395,None,None,None,,,,,,,klxufm,001,0,fr,2022-05-09_17h40.48.032,3-AFC_adaptive_staircase_mess,2022.1.1,None,
,,,,,0,0,0,0,19,0,19,0,,,,,,,,,,,,,,,,up,1000,-12.5,1.0446480654270193e-05,1,5,1,2.5,238.66984766658086,None,237.63027269998565,237.95344519987702,238.6249736000318,238.95832669991069,None,None,up,1,1.8032641001045704,237.68827519984916,None,None,None,,,,,,,klxufm,001,0,fr,2022-05-09_17h40.48.032,3-AFC_adaptive_staircase_mess,2022.1.1,None,
,,,,,0,0,0,0,20,0,20,0,,,,,,,,,,,,,,,,left,1000,-12.5,1.0446480654270193e-05,1,5,1,2.5,241.06825086666893,None,241.02231319993734,241.35604789992794,242.03098280006088,242.36258519999683,243.00817080005072,243.33184539992362,left,1,3.7482310999184847,241.07133639999665,None,243.5645975000225,None,,,,,,,klxufm,001,0,fr,2022-05-09_17h40.48.032,3-AFC_adaptive_staircase_mess,2022.1.1,None,
,,,,,0,0,0,0,21,0,21,0,,,,,,,,,,,,,,,,right,1000,-17.5,5.874487774697645e-06,-1,6,-1,-5.0,248.37157066661555,None,246.3337592999451,246.6597023999784,247.3293679000344,247.6545324998442,248.31214769999497,248.63439189991914,right,1,3.820428399834782,246.39134959992953,None,248.874262599973,None,,,,,,,klxufm,001,0,fr,2022-05-09_17h40.48.032,3-AFC_adaptive_staircase_mess,2022.1.1,None,
,,,,,1,0,1,0,0,0,0,0,,,,,,,,,,,,,[],[],10,left,1500,30,0.001527460556607757,0,0,-1,10,253.57778976654325,None,253.51858390006237,253.83717589988373,None,None,None,None,left,1,0.8465831999201328,253.58871060004458,None,None,None,num_multiply,1.7495955000631511,251.30923309992068,None,251.30923309992068,None,klxufm,001,0,fr,2022-05-09_17h40.48.032,3-AFC_adaptive_staircase_mess,2022.1.1,None,
,,,,,1,0,1,0,1,0,1,0,,,,,,,,,,,,,,,,left,1500,30,0.001527460556607757,0,0,-1,10,256.01355706673735,None,255.95503859990276,256.2909559998661,None,None,None,None,left,1,0.5557685999665409,256.0242166998796,None,None,None,,,,,,,klxufm,001,0,fr,2022-05-09_17h40.48.032,3-AFC_adaptive_staircase_mess,2022.1.1,None,
,,,,,1,0,1,0,2,0,2,0,,,,,,,,,,,,,,,,up,1500,10,0.0001527460556607757,-1,0,-1,-10,259.12066716660433,259.34636429999955,258.07833829987794,258.3909495999105,259.072121999925,259.40631220000796,None,None,up,1,1.5155933999922127,258.1362884999253,None,None,None,,,,,,,klxufm,001,0,fr,2022-05-09_17h40.48.032,3-AFC_adaptive_staircase_mess,2022.1.1,None,
,,,,,1,0,1,0,3,0,3,0,,,,,,,,,,,,,,,,right,1500,10,0.0001527460556607757,-1,0,-1,-10,263.2287212666745,None,261.1849857000634,261.51670809998177,262.18792079994455,262.5116444998421,263.18325129989535,263.5161001998931,right,1,2.376635800115764,261.24189309985377,None,None,None,,,,,,,klxufm,001,0,fr,2022-05-09_17h40.48.032,3-AFC_adaptive_staircase_mess,2022.1.1,None,
,,,,,1,0,1,0,4,0,4,0,,,,,,,,,,,,,,,,left,1500,0,4.830254394949071e-05,-1,0,-1,-10,265.1833496667134,None,265.1391650000587,265.4810094998684,None,None,None,None,left,1,0.7568053000140935,265.19829829991795,None,None,None,,,,,,,klxufm,001,0,fr,2022-05-09_17h40.48.032,3-AFC_adaptive_staircase_mess,2022.1.1,None,
,,,,,1,0,1,0,5,0,5,0,,,,,,,,,,,,,,,,up,1500,0,4.830254394949071e-05,-1,0,-1,-10,268.49932136672237,None,267.4631711000111,267.78486580005847,268.4546038999688,268.78529529995285,269.46097639994696,269.7821665999945,up,1,2.6415629000402987,267.5218533000443,None,270.0153866999317,None,,,,,,,klxufm,001,0,fr,2022-05-09_17h40.48.032,3-AFC_adaptive_staircase_mess,2022.1.1,None,
,,,,,1,0,1,0,6,0,6,0,,,,,,,,,,,,,,,,right,1500,-10,1.527460556607758e-05,-1,0,-1,-10,273.71009646664993,None,271.6734374000225,271.9937710000668,272.66353380004875,272.99863919988275,273.66398920002393,273.9963070000522,right,1,3.5033261999487877,271.7323076999746,None,274.23049420001917,None,,,,,,,klxufm,001,0,fr,2022-05-09_17h40.48.032,3-AFC_adaptive_staircase_mess,2022.1.1,None,
,,,,,1,0,1,0,7,0,7,0,,,,,,,,,,,,,,,,up,1500,-10,1.527460556607758e-05,-1,0,-1,-10,277.79826206673556,None,276.75714150001295,277.0905080998782,277.7537837000564,278.0777815999463,278.7471537999809,279.0687438000459,up,1,2.304063499905169,276.81976279988885,None,None,None,,,,,,,klxufm,001,0,fr,2022-05-09_17h40.48.032,3-AFC_adaptive_staircase_mess,2022.1.1,None,
,,,,,1,0,1,0,8,0,8,0,,,,,,,,,,,,,,,,up,1500,-20,4.8302543949490704e-06,-1,0,-1,-10,281.67657016666294,281.9109217999503,280.63496469985694,280.964505800046,281.628163699992,281.94119549985044,282.62312346656495,None,up,1,1.8992848000489175,280.69550150004216,None,None,None,,,,,,,klxufm,001,0,fr,2022-05-09_17h40.48.032,3-AFC_adaptive_staircase_mess,2022.1.1,None,
,,,,,1,0,1,0,9,0,9,0,,,,,,,,,,,,,,,,left,1500,-20,4.8302543949490704e-06,-1,0,-1,-10,284.15614496666626,None,284.1098611999769,284.4361063998658,285.10523779992945,None,None,None,left,1,0.9881581000518054,284.1676975998562,None,None,None,,,,,,,klxufm,001,0,fr,2022-05-09_17h40.48.032,3-AFC_adaptive_staircase_mess,2022.1.1,None,
,,,,,1,0,1,0,10,0,10,0,,,,,,,,,,,,,,,,right,1500,-30,1.5274605566077578e-06,-1,0,-1,-10,288.7031143666866,None,286.6707770000212,286.9960196998436,287.6651312999893,287.9865983999334,288.6864477000199,289.0193034000695,up,0,3.111021300079301,286.73243550001644,None,289.2293787000235,None,,,,,,,klxufm,001,0,fr,2022-05-09_17h40.48.032,3-AFC_adaptive_staircase_mess,2022.1.1,None,
,,,,,1,0,1,0,11,0,11,0,,,,,,,,,,,,,,,,right,1500,-25,2.7162516574621683e-06,1,1,1,5,293.4175676666821,None,291.3818210999016,291.7088786000386,292.37789430003613,292.70315800001845,293.40090100001544,293.72439089999534,up,0,2.339855199912563,291.43901029997505,None,None,None,,,,,,,klxufm,001,0,fr,2022-05-09_17h40.48.032,3-AFC_adaptive_staircase_mess,2022.1.1,None,
,,,,,1,0,1,0,12,0,12,0,,,,,,,,,,,,,,,,left,1500,-20,4.8302543949490704e-06,1,1,1,5,295.31370926654586,None,295.2691297000274,295.5975744999014,296.26524239988066,296.5883790999651,297.25966429989785,297.5905301999301,left,1,2.8695143000222743,295.3267731999513,None,297.82667359989136,None,,,,,,,klxufm,001,0,fr,2022-05-09_17h40.48.032,3-AFC_adaptive_staircase_mess,2022.1.1,None,
,,,,,1,0,1,0,13,0,13,0,,,,,,,,,,,,,,,,up,1500,-20,4.8302543949490704e-06,1,1,1,5,300.7602656665879,None,299.71448059985414,300.0444145000074,300.713328700047,301.0553651000373,301.72035079984926,302.04430649988353,right,0,2.4356956998817623,299.77595270005986,None,None,None,,,,,,,klxufm,001,0,fr,2022-05-09_17h40.48.032,3-AFC_adaptive_staircase_mess,2022.1.1,None,
,,,,,1,0,1,0,14,0,14,0,,,,,,,,,,,,,,,,up,1500,-15,8.589541935787946e-06,1,1,1,5,304.77544346667514,None,303.7276115999557,304.04992090002634,304.7295025999192,305.06263799988665,305.73360799998045,306.05506839999,left,0,2.6034973999485373,303.7847611999605,None,306.28952959994785,None,,,,,,,klxufm,001,0,fr,2022-05-09_17h40.48.032,3-AFC_adaptive_staircase_mess,2022.1.1,None,
,,,,,1,0,1,0,15,0,15,0,,,,,,,,,,,,,,,,left,1500,-10,1.527460556607758e-05,1,1,1,5,307.92653986654864,None,307.909873199882,308.23973360005766,308.8875531000085,309.21079819998704,309.8834704000037,310.2112368000671,up,0,2.511226300150156,307.9393579000607,None,310.45927969994955,None,,,,,,,klxufm,001,0,fr,2022-05-09_17h40.48.032,3-AFC_adaptive_staircase_mess,2022.1.1,None,
,,,,,1,0,1,0,16,0,16,0,,,,,,,,,,,,,,,,up,1500,-5,2.716251657462168e-05,1,1,1,5,313.0103031665242,None,311.96732839988545,312.29332119994797,312.96093689999543,313.3023731999565,313.97542549995705,None,left,0,2.056045399978757,312.0273595000617,None,None,None,,,,,,,klxufm,001,0,fr,2022-05-09_17h40.48.032,3-AFC_adaptive_staircase_mess,2022.1.1,None,
,,,,,1,0,1,0,17,0,17,0,,,,,,,,,,,,,,,,right,1500,0,4.830254394949071e-05,1,1,1,5,317.6260433665632,None,315.5922741999384,315.9136256999336,316.6096008999739,316.94268779992126,317.60937669989653,317.93323970003985,right,1,2.5282760001719,315.6516205999069,None,318.1385129999835,None,,,,,,,klxufm,001,0,fr,2022-05-09_17h40.48.032,3-AFC_adaptive_staircase_mess,2022.1.1,None,
,,,,,1,0,1,0,18,0,18,0,,,,,,,,,,,,,,,,up,1500,0,4.830254394949071e-05,1,1,1,5,320.75359746657,None,319.7086370999459,320.0362166999839,320.70811329991557,321.03856269991957,None,None,up,1,1.739508300088346,319.7682628000621,None,None,None,,,,,,,klxufm,001,0,fr,2022-05-09_17h40.48.032,3-AFC_adaptive_staircase_mess,2022.1.1,None,
,,,,,1,0,1,0,19,0,19,0,,,,,,,,,,,,,,,,right,1500,-10,1.527460556607758e-05,-1,2,-1,-5.0,325.07709086669297,None,323.02439889987,323.3592884000391,324.0274588998873,324.3523456000257,325.0289876998868,325.36174679989927,right,1,2.9052531998604536,323.0826669000089,None,325.5707310999278,None,,,,,,,klxufm,001,0,fr,2022-05-09_17h40.48.032,3-AFC_adaptive_staircase_mess,2022.1.1,None,
,,,,,1,0,1,0,20,0,20,0,,,,,,,,,,,,,,,,up,1500,-10,1.527460556607758e-05,-1,2,-1,-5.0,328.56042376655773,None,327.51778450002894,327.8405611999333,328.51441839989275,328.8463612999767,329.5234372999985,329.8563926999923,left,0,2.795430700061843,327.5760484000202,None,330.0608226999175,None,,,,,,,klxufm,001,0,fr,2022-05-09_17h40.48.032,3-AFC_adaptive_staircase_mess,2022.1.1,None,
,,,,,1,0,1,0,21,0,21,0,,,,,,,,,,,,,,,,right,1500,-7.5,2.036901389020565e-05,1,3,1,2.5,333.93363496667394,None,331.901219899999,332.22175289993174,332.8937876999844,333.2161181999836,333.8844409000594,334.2174497998785,left,0,2.71406070003286,331.9295775999781,None,334.4515189998783,None,,,,,,,klxufm,001,0,fr,2022-05-09_17h40.48.032,3-AFC_adaptive_staircase_mess,2022.1.1,None,
,,,,,1,0,1,0,22,0,22,0,,,,,,,,,,,,,,,,left,1500,-5.0,2.716251657462168e-05,1,3,1,2.5,336.2117731667279,None,336.16584859997965,336.4953679998871,337.1591007665886,None,None,None,left,1,0.9166105999611318,336.2231395000126,None,None,None,,,,,,,klxufm,001,0,fr,2022-05-09_17h40.48.032,3-AFC_adaptive_staircase_mess,2022.1.1,None,
,,,,,1,0,1,0,23,0,23,0,,,,,,,,,,,,,,,,up,1500,-5.0,2.716251657462168e-05,1,3,1,2.5,339.6761211667365,None,338.6368917999789,338.9554377000313,339.6300882999785,339.9530762999784,340.62872170004994,340.9579352000728,right,0,2.590127700008452,338.69269949989393,None,341.18654719996266,None,,,,,,,klxufm,001,0,fr,2022-05-09_17h40.48.032,3-AFC_adaptive_staircase_mess,2022.1.1,None,
,,,,,1,0,1,0,24,0,24,0,,,,,,,,,,,,,,,,left,1500,-2.5,3.622179800374953e-05,1,3,1,2.5,342.8461425665921,343.0730919998605,342.79612299986184,343.13535919995047,None,None,None,None,left,1,0.7722943001426756,342.8632028999273,None,None,None,,,,,,,klxufm,001,0,fr,2022-05-09_17h40.48.032,3-AFC_adaptive_staircase_mess,2022.1.1,None,
,,,,,1,0,1,0,25,0,25,0,,,,,,,,,,,,,,,,left,1500,-2.5,3.622179800374953e-05,1,3,1,2.5,345.20468716655546,None,345.1589849998709,345.49981849989854,346.17121169995517,346.5037721998524,None,None,left,1,1.313853699946776,345.2173103999812,None,None,None,,,,,,,klxufm,001,0,fr,2022-05-09_17h40.48.032,3-AFC_adaptive_staircase_mess,2022.1.1,None,
,,,,,1,0,1,0,26,0,26,0,,,,,,,,,,,,,,,,right,1500,-7.5,2.036901389020565e-05,-1,4,-1,-5.0,350.082899166566,None,348.0400314000435,348.38235179986805,349.03859460004605,349.38062660000287,350.0325453998521,350.35118100000545,up,0,2.938592799939215,348.1042335999664,None,350.60603749984875,None,,,,,,,klxufm,001,0,fr,2022-05-09_17h40.48.032,3-AFC_adaptive_staircase_mess,2022.1.1,None,
,,,,,1,0,1,0,27,0,27,0,,,,,,,,,,,,,,,,left,1500,-5.0,2.716251657462168e-05,1,5,1,2.5,352.62595186668136,352.8494788999669,352.5747986000497,352.9129961999133,353.57544439984486,353.91122799995355,354.5758307999931,354.9104795998428,right,0,2.3832718001212925,352.64332649996504,None,None,None,,,,,,,klxufm,001,0,fr,2022-05-09_17h40.48.032,3-AFC_adaptive_staircase_mess,2022.1.1,None,
,,,,,1,0,1,0,28,0,28,0,,,,,,,,,,,,,,,,right,1500,-2.5,3.622179800374953e-05,1,5,1,2.5,358.6010899665455,None,356.54560269997455,356.87342419987544,357.54732889984734,357.88485779985785,358.54936169995926,358.8825673998799,right,1,2.461602499941364,356.61334250005893,None,359.0848560000304,None,,,,,,,klxufm,001,0,fr,2022-05-09_17h40.48.032,3-AFC_adaptive_staircase_mess,2022.1.1,None,
,,,,,1,0,1,0,29,0,29,0,,,,,,,,,,,,,,,,up,1500,-2.5,3.622179800374953e-05,1,5,1,2.5,361.6386989665373,None,360.581608499866,360.92135980003513,361.58627349999733,361.9003421999514,362.58621470001526,362.9160171998665,left,0,2.630140000022948,360.65270989993587,None,363.15381140005775,None,,,,,,,klxufm,001,0,fr,2022-05-09_17h40.48.032,3-AFC_adaptive_staircase_mess,2022.1.1,None,
,,,,,1,0,1,0,30,0,30,0,,,,,,,,,,,,,,,,up,1500,0.0,4.830254394949071e-05,1,5,1,2.5,365.8392930667071,None,364.7817979999818,365.1219951999374,365.78825849993154,366.12123429984786,None,None,up,1,1.7297917001415044,364.8492779999506,None,None,None,,,,,,,klxufm,001,0,fr,2022-05-09_17h40.48.032,3-AFC_adaptive_staircase_mess,2022.1.1,None,
,,,,,1,0,1,0,31,0,31,0,,,,,,,,,,,,,,,,up,1500,0.0,4.830254394949071e-05,1,5,1,2.5,369.14238176664026,None,368.08435749984346,368.42459709988907,369.0918475999497,369.4249402999412,None,None,up,1,1.818881600163877,368.15378569997847,None,None,None,,,,,,,klxufm,001,0,fr,2022-05-09_17h40.48.032,3-AFC_adaptive_staircase_mess,2022.1.1,None,
,,,,,1,0,1,0,32,0,32,0,,,,,,,,,,,,,,,,right,1500,-5.0,2.716251657462168e-05,-1,6,-1,-5.0,373.54610116669596,None,371.48964749998413,371.8270904000383,372.49448230001144,372.83196770003997,373.4963909999933,373.8331075999886,right,1,2.3502892998512834,371.5563618000597,None,None,None,,,,,,,klxufm,001,0,fr,2022-05-09_17h40.48.032,3-AFC_adaptive_staircase_mess,2022.1.1,None,
,,,,,2,0,2,0,0,0,0,0,,,,,,,,,,,,,[],[],10,up,2000,30,0.0023657562948074026,0,0,-1,10,377.6189298665306,None,376.56486569996923,376.90005229995586,377.5667169999797,377.9073240000289,None,None,up,1,1.4482907999772578,376.63456779997796,None,None,None,ù,1.0846979999914765,374.998832100071,None,374.998832100071,None,klxufm,001,0,fr,2022-05-09_17h40.48.032,3-AFC_adaptive_staircase_mess,2022.1.1,None,
,,,,,2,0,2,0,1,0,1,0,,,,,,,,,,,,,,,,right,2000,30,0.0023657562948074026,0,0,-1,10,381.6566151665213,None,379.59242570004426,379.93615740002133,380.60733169992454,380.93818539986387,381.6057775998488,381.9213121999055,right,1,2.3189012999646366,379.65285199997015,None,None,None,,,,,,,klxufm,001,0,fr,2022-05-09_17h40.48.032,3-AFC_adaptive_staircase_mess,2022.1.1,None,
,,,,,2,0,2,0,2,0,2,0,,,,,,,,,,,,,,,,up,2000,10,0.00023657562948074026,-1,0,-1,-10,384.52413066669055,384.7481356000062,383.47360039991327,383.8073779998813,384.47435440006666,384.81177799985744,385.47575689991936,385.81306279986165,up,1,2.4770655001048,383.541767799994,None,386.0442476000171,None,,,,,,,klxufm,001,0,fr,2022-05-09_17h40.48.032,3-AFC_adaptive_staircase_mess,2022.1.1,None,
,,,,,2,0,2,0,3,0,3,0,,,,,,,,,,,,,,,,left,2000,10,0.00023657562948074026,-1,0,-1,-10,387.59698926663646,None,387.54664639988914,387.8808118000161,None,None,None,None,left,1,0.7758738999255002,387.6106877999846,None,None,None,,,,,,,klxufm,001,0,fr,2022-05-09_17h40.48.032,3-AFC_adaptive_staircase_mess,2022.1.1,None,
,,,,,2,0,2,0,4,0,4,0,,,,,,,,,,,,,,,,right,2000,0,7.481178280472168e-05,-1,0,-1,-10,None,None,389.88250029995106,390.2166213998571,390.91377079999074,391.2476164000109,None,None,left,0,1.3177288000006229,389.95032699988224,None,None,None,,,,,,,klxufm,001,0,fr,2022-05-09_17h40.48.032,3-AFC_adaptive_staircase_mess,2022.1.1,None,
,,,,,2,0,2,0,5,0,5,0,,,,,,,,,,,,,,,,left,2000,5,0.0001330362529899405,1,1,1,5,392.8269915665189,None,392.775328299962,393.1236630999483,393.7839972998481,394.1153931999579,394.7785044000484,395.1243284998927,right,0,3.702708499971777,392.84390949993394,None,395.35428019985557,None,,,,,,,klxufm,001,0,fr,2022-05-09_17h40.48.032,3-AFC_adaptive_staircase_mess,2022.1.1,None,
,,,,,2,0,2,0,6,0,6,0,,,,,,,,,,,,,,,,left,2000,10,0.00023657562948074026,1,1,1,5,398.0989976665626,None,398.04892239999026,398.392685999861,None,None,None,None,left,1,0.5587926001753658,398.1171891000122,None,None,None,,,,,,,klxufm,001,0,fr,2022-05-09_17h40.48.032,3-AFC_adaptive_staircase_mess,2022.1.1,None,
,,,,,2,0,2,0,7,0,7,0,,,,,,,,,,,,,,,,up,2000,10,0.00023657562948074026,1,1,1,5,401.2427167667231,None,400.1922495998442,400.5240907999687,401.19096879987046,401.50396199990064,None,None,left,0,1.4265339998528361,400.25696270004846,None,None,None,,,,,,,klxufm,001,0,fr,2022-05-09_17h40.48.032,3-AFC_adaptive_staircase_mess,2022.1.1,None,
,,,,,2,0,2,0,8,0,8,0,,,,,,,,,,,,,,,,up,2000,15,0.0004206975708225976,1,1,1,5,None,None,403.1959488999564,None,None,None,None,None,up,1,-1.120323000010103,403.26740280003287,None,None,None,,,,,,,klxufm,001,0,fr,2022-05-09_17h40.48.032,3-AFC_adaptive_staircase_mess,2022.1.1,None,
,,,,,2,0,2,0,9,0,9,0,,,,,,,,,,,,,,,,up,2000,15,0.0004206975708225976,1,1,1,5,405.8113099665536,406.03660320001654,404.75821390002966,405.0930508999154,405.7629794999957,406.1003530998714,None,None,up,1,1.5122928000055254,404.8271257998422,None,None,None,,,,,,,klxufm,001,0,fr,2022-05-09_17h40.48.032,3-AFC_adaptive_staircase_mess,2022.1.1,None,
,,,,,2,0,2,0,10,0,10,0,,,,,,,,,,,,,,,,right,2000,5,0.0001330362529899405,-1,2,-1,-5.0,409.9171440667162,410.14207810000516,407.8625971998554,408.20080200000666,408.8663900999818,409.19964389991947,409.8671816000715,410.2053358000703,right,1,2.871278499951586,407.9310554000549,None,410.4313139000442,None,,,,,,,klxufm,001,0,fr,2022-05-09_17h40.48.032,3-AFC_adaptive_staircase_mess,2022.1.1,None,
,,,,,2,0,2,0,11,0,11,0,,,,,,,,,,,,,,,,up,2000,5,0.0001330362529899405,-1,2,-1,-5.0,413.3627294665823,None,412.30512539995834,412.63833099999465,413.3069209000096,413.6372853999492,414.308072200045,414.6412815998774,right,0,2.6103763000573963,412.3845844999887,None,414.8806167000439,None,,,,,,,klxufm,001,0,fr,2022-05-09_17h40.48.032,3-AFC_adaptive_staircase_mess,2022.1.1,None,
,,,,,2,0,2,0,12,0,12,0,,,,,,,,,,,,,,,,left,2000,7.5,0.00017740669461678777,1,3,1,2.5,416.54975446669073,None,416.500049599912,416.8438438999001,None,None,None,None,left,1,0.651870499830693,416.5671089000534,None,None,None,,,,,,,klxufm,001,0,fr,2022-05-09_17h40.48.032,3-AFC_adaptive_staircase_mess,2022.1.1,None,
,,,,,2,0,2,0,13,0,13,0,,,,,,,,,,,,,,,,left,2000,7.5,0.00017740669461678777,1,3,1,2.5,418.78645736660496,None,418.73547289986163,419.07943479996175,419.73824410000816,420.0727172999177,420.7409814998973,421.08250609994866,left,1,2.894231599988416,418.80429799994454,None,421.30986569984816,None,,,,,,,klxufm,001,0,fr,2022-05-09_17h40.48.032,3-AFC_adaptive_staircase_mess,2022.1.1,None,
,,,,,2,0,2,0,14,0,14,0,,,,,,,,,,,,,,,,right,2000,2.5,9.976311574844399e-05,-1,4,-1,-5.0,425.23471056652875,None,423.2112064999528,423.54870070004836,424.2188341000583,424.5537590000313,425.2180438998621,425.5552932000719,up,0,3.329755999846384,423.28104160004295,None,425.75774249993265,None,,,,,,,klxufm,001,0,fr,2022-05-09_17h40.48.032,3-AFC_adaptive_staircase_mess,2022.1.1,None,
,,,,,2,0,2,0,15,0,15,0,,,,,,,,,,,,,,,,right,2000,5.0,0.0001330362529899405,1,5,1,2.5,430.1659600665482,430.3951495999936,428.11184719996527,428.454694399843,429.1224569999613,429.4517005998641,430.1153186999727,430.45338149997406,right,1,3.0064721000380814,428.1807142999023,None,430.68520239996724,None,,,,,,,klxufm,001,0,fr,2022-05-09_17h40.48.032,3-AFC_adaptive_staircase_mess,2022.1.1,None,
,,,,,2,0,2,0,16,0,16,0,,,,,,,,,,,,,,,,up,2000,5.0,0.0001330362529899405,1,5,1,2.5,433.7063889667081,None,432.6761423998978,433.02445769985206,433.68972230004147,434.0197353998665,None,None,up,1,1.479560700012371,432.73161039990373,None,None,None,,,,,,,klxufm,001,0,fr,2022-05-09_17h40.48.032,3-AFC_adaptive_staircase_mess,2022.1.1,None,
,,,,,2,0,2,0,17,0,17,0,,,,,,,,,,,,,,,,up,2000,0.0,7.481178280472168e-05,-1,6,-1,-5.0,436.7543920665669,None,435.7303557000123,436.0594748998992,436.7377253999002,437.07637689984404,437.7408183000516,438.0684154999908,right,0,2.540924700209871,435.7664950999897,None,438.26084410003386,None,,,,,,,klxufm,001,0,fr,2022-05-09_17h40.48.032,3-AFC_adaptive_staircase_mess,2022.1.1,None,
,,,,,3,0,3,0,0,0,0,0,,,,,,,,,,,,,[],[],10,left,3000,30,0.001733684252262658,0,0,-1,10,440.8501492667167,None,440.80400429992005,441.1375247000251,None,None,None,None,left,1,0.5755865001119673,440.867314199917,None,None,None,num_multiply,0.9281594001222402,439.3954040000681,None,439.3954040000681,None,klxufm,001,0,fr,2022-05-09_17h40.48.032,3-AFC_adaptive_staircase_mess,2022.1.1,None,
,,,,,3,0,3,0,1,0,1,0,,,,,,,,,,,,,,,,right,3000,30,0.001733684252262658,0,0,-1,10,445.01167536672824,None,442.9721259998623,443.292410899885,443.9681555000134,444.3052827999927,444.9636708998587,445.30191330006346,right,1,2.343818600056693,443.0350404998753,None,None,None,,,,,,,klxufm,001,0,fr,2022-05-09_17h40.48.032,3-AFC_adaptive_staircase_mess,2022.1.1,None,
,,,,,3,0,3,0,2,0,2,0,,,,,,,,,,,,,,,,right,3000,10,0.00017336842522626576,-1,0,-1,-10,448.94955146668167,None,446.93251469987445,447.26873350003734,447.93064459995367,448.26958129997365,448.9013300000224,449.24538649991155,right,1,2.2677994000259787,446.9669178999029,None,None,None,,,,,,,klxufm,001,0,fr,2022-05-09_17h40.48.032,3-AFC_adaptive_staircase_mess,2022.1.1,None,
,,,,,3,0,3,0,3,0,3,0,,,,,,,,,,,,,,,,up,3000,10,0.00017336842522626576,-1,0,-1,-10,451.78812436672547,None,450.7349457000382,451.0798571999185,451.7407176999841,452.07963950000703,None,None,up,1,1.605681600049138,450.79723350005224,None,None,None,,,,,,,klxufm,001,0,fr,2022-05-09_17h40.48.032,3-AFC_adaptive_staircase_mess,2022.1.1,None,
,,,,,3,0,3,0,4,0,4,0,,,,,,,,,,,,,,,,right,3000,0,5.482390980715923e-05,-1,0,-1,-10,455.9563577667034,None,453.9076880000066,454.2402275998611,454.90646179998294,455.23826300003566,455.90627390006557,456.24849719996564,right,1,2.4810692998580635,453.9702703000512,None,456.4733200999908,None,,,,,,,klxufm,001,0,fr,2022-05-09_17h40.48.032,3-AFC_adaptive_staircase_mess,2022.1.1,None,
,,,,,3,0,3,0,5,0,5,0,,,,,,,,,,,,,,,,up,3000,0,5.482390980715923e-05,-1,0,-1,-10,459.00652126671434,None,457.97782550007105,458.3223653999157,458.9898546000477,459.31884249998257,459.98396599991247,460.3118849999737,right,0,2.2664932999759912,458.04081959999166,None,None,None,,,,,,,klxufm,001,0,fr,2022-05-09_17h40.48.032,3-AFC_adaptive_staircase_mess,2022.1.1,None,
,,,,,3,0,3,0,6,0,6,0,,,,,,,,,,,,,,,,left,3000,5,9.749222998790222e-05,1,1,1,5,461.8499624666913,None,461.83329580002464,462.1768483999185,None,None,None,None,left,1,0.6678090998902917,461.86358070001006,None,None,None,,,,,,,klxufm,001,0,fr,2022-05-09_17h40.48.032,3-AFC_adaptive_staircase_mess,2022.1.1,None,
,,,,,3,0,3,0,7,0,7,0,,,,,,,,,,,,,,,,up,3000,5,9.749222998790222e-05,1,1,1,5,465.0750190665169,None,464.0577378999442,464.3882605000399,465.05835239985026,465.38023569993675,None,None,up,1,1.435528100002557,464.08821489987895,None,None,None,,,,,,,klxufm,001,0,fr,2022-05-09_17h40.48.032,3-AFC_adaptive_staircase_mess,2022.1.1,None,
,,,,,3,0,3,0,8,0,8,0,,,,,,,,,,,,,,,,right,3000,-5,3.082975009307411e-05,-1,2,-1,-5.0,469.08418966673,None,467.05562680005096,467.3902433998883,468.0503533000592,468.4006083998829,469.0496376999654,469.3822850000579,up,0,3.5416274999734014,467.0857325999532,None,469.6032743998803,None,,,,,,,klxufm,001,0,fr,2022-05-09_17h40.48.032,3-AFC_adaptive_staircase_mess,2022.1.1,None,
,,,,,3,0,3,0,9,0,9,0,,,,,,,,,,,,,,,,up,3000,-2.5,4.1112132497353565e-05,1,3,1,2.5,473.16792426660345,None,472.146943599917,472.46346669993363,473.1512575999368,473.49337329994887,474.1270965000149,474.467545399908,left,0,3.3772412999533117,472.17806489998475,None,474.6845201998949,None,,,,,,,klxufm,001,0,fr,2022-05-09_17h40.48.032,3-AFC_adaptive_staircase_mess,2022.1.1,None,
,,,,,3,0,3,0,10,0,10,0,,,,,,,,,,,,,,,,right,3000,0.0,5.482390980715923e-05,1,3,1,2.5,None,None,477.0885666999966,477.43263819999993,None,None,None,None,left,0,0.6408469001762569,477.12215599999763,None,None,None,,,,,,,klxufm,001,0,fr,2022-05-09_17h40.48.032,3-AFC_adaptive_staircase_mess,2022.1.1,None,
,,,,,3,0,3,0,11,0,11,0,,,,,,,,,,,,,,,,up,3000,2.5,7.310885872283589e-05,1,3,1,2.5,480.30324696662524,480.52715660003014,479.27521299989894,479.60464329994284,480.2865802999586,480.61645129998215,None,None,up,1,1.603420800063759,479.3438058998436,None,None,None,,,,,,,klxufm,001,0,fr,2022-05-09_17h40.48.032,3-AFC_adaptive_staircase_mess,2022.1.1,None,
,,,,,3,0,3,0,12,0,12,0,,,,,,,,,,,,,,,,right,3000,2.5,7.310885872283589e-05,1,3,1,2.5,484.48629266658486,None,482.4361696999986,482.76922679995187,483.4597545999568,483.775053499965,484.4374319999479,484.74849099991843,right,1,2.450350300176069,482.49606769997627,None,484.98109496670463,None,,,,,,,klxufm,001,0,fr,2022-05-09_17h40.48.032,3-AFC_adaptive_staircase_mess,2022.1.1,None,
,,,,,3,0,3,0,13,0,13,0,,,,,,,,,,,,,,,,left,3000,-2.5,4.1112132497353565e-05,-1,4,-1,-5.0,486.5002735665223,486.7244525998831,486.48360689985566,486.8130077999085,487.4902834999375,487.8059393998701,488.46875900006853,488.78149019996636,right,0,2.3083199001848698,486.5265567000024,None,None,None,,,,,,,klxufm,001,0,fr,2022-05-09_17h40.48.032,3-AFC_adaptive_staircase_mess,2022.1.1,None,
,,,,,3,0,3,0,14,0,14,0,,,,,,,,,,,,,,,,left,3000,0.0,5.482390980715923e-05,1,5,1,2.5,490.3938017665098,490.62371239997447,490.37713509984314,490.70751810004003,491.3599906999152,491.70212929998524,492.3764452000614,492.69304509996437,up,0,2.5627190000377595,490.41554199997336,None,492.90526459994726,None,,,,,,,klxufm,001,0,fr,2022-05-09_17h40.48.032,3-AFC_adaptive_staircase_mess,2022.1.1,None,
,,,,,3,0,3,0,15,0,15,0,,,,,,,,,,,,,,,,right,3000,2.5,7.310885872283589e-05,1,5,1,2.5,496.5395263666908,None,494.5080977999605,494.8265279000625,495.5107319999952,495.84019439993426,496.4914503998589,496.7950327000581,right,1,2.370216299779713,494.56085749994963,None,None,None,,,,,,,klxufm,001,0,fr,2022-05-09_17h40.48.032,3-AFC_adaptive_staircase_mess,2022.1.1,None,
,,,,,3,0,3,0,16,0,16,0,,,,,,,,,,,,,,,,right,3000,2.5,7.310885872283589e-05,1,5,1,2.5,500.4983254667061,None,498.47228019987233,498.8098061999772,499.47875629994087,499.797096000053,500.44800810003653,500.7802309000399,right,1,2.4304012001957744,498.5008237999864,None,None,None,,,,,,,klxufm,001,0,fr,2022-05-09_17h40.48.032,3-AFC_adaptive_staircase_mess,2022.1.1,None,
,,,,,3,0,3,0,17,0,17,0,,,,,,,,,,,,,,,,right,3000,-2.5,4.1112132497353565e-05,-1,6,-1,-5.0,504.47574206657396,None,502.4388649999164,502.7796724999789,503.45776510005817,503.7691263000015,504.4590753999073,504.78418560000136,right,1,3.1031342002097517,502.4993402999826,None,505.02199209993705,None,,,,,,,klxufm,001,0,fr,2022-05-09_17h40.48.032,3-AFC_adaptive_staircase_mess,2022.1.1,None,
,,,,,4,0,4,0,0,0,0,0,,,,,,,,,,,,,[],[],10,up,4000,30,0.0026544222211549416,0,0,-1,10,510.6044270666937,510.83040430000983,509.5559910000302,509.8901193998754,510.556946199853,510.8952933999244,None,None,up,1,1.389429199974984,509.62253779987805,None,None,None,p,2.371701499912888,506.6867503998801,None,506.6867503998801,None,klxufm,001,0,fr,2022-05-09_17h40.48.032,3-AFC_adaptive_staircase_mess,2022.1.1,None,
,,,,,4,0,4,0,1,0,1,0,,,,,,,,,,,,,,,,right,4000,30,0.0026544222211549416,0,0,-1,10,514.6124500665503,None,512.5584944998845,512.8982885000296,513.5620913999155,513.8983531000558,514.5607791000511,514.8656333999243,right,1,2.2400392999406904,512.6270260999445,None,None,None,,,,,,,klxufm,001,0,fr,2022-05-09_17h40.48.032,3-AFC_adaptive_staircase_mess,2022.1.1,None,
,,,,,4,0,4,0,2,0,2,0,,,,,,,,,,,,,,,,right,4000,10,0.00026544222211549425,-1,0,-1,-10,518.4280356665297,None,516.4080121999141,516.733468899969,517.4037225998472,517.7347101999912,518.411368999863,None,right,1,2.282102699857205,516.4401962000411,None,None,None,,,,,,,klxufm,001,0,fr,2022-05-09_17h40.48.032,3-AFC_adaptive_staircase_mess,2022.1.1,None,
,,,,,4,0,4,0,3,0,3,0,,,,,,,,,,,,,,,,right,4000,10,0.00026544222211549425,-1,0,-1,-10,522.2859828666008,522.506196900038,520.2329982998781,520.5679897998925,521.2351778999437,521.565746099921,522.2353572000284,522.5686757999938,right,1,2.311152100097388,520.3001814999152,None,None,None,,,,,,,klxufm,001,0,fr,2022-05-09_17h40.48.032,3-AFC_adaptive_staircase_mess,2022.1.1,None,
,,,,,4,0,4,0,4,0,4,0,,,,,,,,,,,,,,,,right,4000,0,8.394020090612804e-05,-1,0,-1,-10,526.1924464665974,None,524.1349198999815,524.4710343000479,525.1398163000122,525.4732812999282,526.1410884999204,526.4550844000187,right,1,2.294503399869427,524.2044353999663,None,None,None,,,,,,,klxufm,001,0,fr,2022-05-09_17h40.48.032,3-AFC_adaptive_staircase_mess,2022.1.1,None,
,,,,,4,0,4,0,5,0,5,0,,,,,,,,,,,,,,,,right,4000,0,8.394020090612804e-05,-1,0,-1,-10,530.0326626666977,None,528.0101566000376,528.3505203998648,529.01293109986,529.3474761999678,530.015996000031,None,right,1,2.228350899880752,528.0783671999816,None,None,None,,,,,,,klxufm,001,0,fr,2022-05-09_17h40.48.032,3-AFC_adaptive_staircase_mess,2022.1.1,None,
,,,,,4,0,4,0,6,0,6,0,,,,,,,,,,,,,,,,left,4000,-10,2.6544222211549425e-05,-1,0,-1,-10,531.8526689666944,None,531.808386299992,532.1488186998758,532.8146627999377,533.1442251999397,533.815359500004,534.1511124998797,up,0,3.3370938000734895,531.8665326999035,None,534.3856231998652,None,,,,,,,klxufm,001,0,fr,2022-05-09_17h40.48.032,3-AFC_adaptive_staircase_mess,2022.1.1,None,
,,,,,4,0,4,0,7,0,7,0,,,,,,,,,,,,,,,,right,4000,-5,4.720304381429618e-05,1,1,1,5,None,None,536.7176103000529,537.0534691999201,537.7210832999554,538.0510887999553,None,None,left,0,1.5685795999597758,536.7862324998714,None,None,None,,,,,,,klxufm,001,0,fr,2022-05-09_17h40.48.032,3-AFC_adaptive_staircase_mess,2022.1.1,None,
,,,,,4,0,4,0,8,0,8,0,,,,,,,,,,,,,,,,up,4000,0,8.394020090612804e-05,1,1,1,5,540.904740266564,None,539.857480000006,540.1930221999064,540.8601833998691,541.1962967000436,None,None,up,1,1.5851247999817133,539.9212631999981,None,None,None,,,,,,,klxufm,001,0,fr,2022-05-09_17h40.48.032,3-AFC_adaptive_staircase_mess,2022.1.1,None,
,,,,,4,0,4,0,9,0,9,0,,,,,,,,,,,,,,,,left,4000,0,8.394020090612804e-05,1,1,1,5,543.078675166533,None,543.025110400049,543.3589765999932,None,None,None,None,left,1,0.6661561999935657,543.09637439996,None,None,None,,,,,,,klxufm,001,0,fr,2022-05-09_17h40.48.032,3-AFC_adaptive_staircase_mess,2022.1.1,None,
,,,,,4,0,4,0,10,0,10,0,,,,,,,,,,,,,,,,up,4000,-10,2.6544222211549425e-05,-1,2,-1,-5.0,546.3461431665967,None,545.283430499956,545.6268162999768,546.2956723999232,546.6381460998673,547.2969641999807,547.6302002000157,up,1,2.7274368999060243,545.3416899000295,None,547.8653502999805,None,,,,,,,klxufm,001,0,fr,2022-05-09_17h40.48.032,3-AFC_adaptive_staircase_mess,2022.1.1,None,
,,,,,4,0,4,0,11,0,11,0,,,,,,,,,,,,,,,,up,4000,-10,2.6544222211549425e-05,-1,2,-1,-5.0,550.6494271667364,None,549.6018347998615,549.9350612999406,550.596696899971,550.911324699875,551.6035004998557,551.938946899958,right,0,2.8967697999905795,549.6661904999055,None,552.1724900000263,None,,,,,,,klxufm,001,0,fr,2022-05-09_17h40.48.032,3-AFC_adaptive_staircase_mess,2022.1.1,None,
,,,,,4,0,4,0,12,0,12,0,,,,,,,,,,,,,,,,left,4000,-7.5,3.53972892192069e-05,1,3,1,2.5,554.1197118666644,554.3485814998858,554.0697751999833,554.4107379999477,555.0543046998791,555.3741287998855,556.0719119999558,556.4088741999585,up,0,3.736669800011441,554.1380930999294,None,556.6398233000655,None,,,,,,,klxufm,001,0,fr,2022-05-09_17h40.48.032,3-AFC_adaptive_staircase_mess,2022.1.1,None,
,,,,,4,0,4,0,13,0,13,0,,,,,,,,,,,,,,,,right,4000,-5.0,4.720304381429618e-05,1,3,1,2.5,561.4003813665515,None,559.3882752000354,559.7102067999076,560.3775978998747,560.7057797000743,561.3837146998849,561.7114518999588,right,1,2.4747815001755953,559.4158307998441,None,561.9133595666538,None,,,,,,,klxufm,001,0,fr,2022-05-09_17h40.48.032,3-AFC_adaptive_staircase_mess,2022.1.1,None,
,,,,,4,0,4,0,14,0,14,0,,,,,,,,,,,,,,,,left,4000,-5.0,4.720304381429618e-05,1,3,1,2.5,563.4374947667277,None,563.420828100061,563.7438814998604,None,None,None,None,left,1,0.6614886000752449,563.4531169999391,None,None,None,,,,,,,klxufm,001,0,fr,2022-05-09_17h40.48.032,3-AFC_adaptive_staircase_mess,2022.1.1,None,
,,,,,4,0,4,0,15,0,15,0,,,,,,,,,,,,,,,,left,4000,-10.0,2.6544222211549425e-05,-1,4,-1,-5.0,565.6723679665631,None,565.6557012998965,565.9868147999514,566.6496170000173,566.9834743998945,567.649479100015,567.9864264000207,up,0,2.508364000124857,565.6870035999455,None,568.1860688999295,None,,,,,,,klxufm,001,0,fr,2022-05-09_17h40.48.032,3-AFC_adaptive_staircase_mess,2022.1.1,None,
,,,,,4,0,4,0,16,0,16,0,,,,,,,,,,,,,,,,left,4000,-7.5,3.53972892192069e-05,1,5,1,2.5,569.7693761666926,None,569.7184081999585,570.0591646998655,None,None,None,None,left,1,0.6322095999494195,569.7861564999912,None,None,None,,,,,,,klxufm,001,0,fr,2022-05-09_17h40.48.032,3-AFC_adaptive_staircase_mess,2022.1.1,None,
,,,,,4,0,4,0,17,0,17,0,,,,,,,,,,,,,,,,left,4000,-7.5,3.53972892192069e-05,1,5,1,2.5,571.9620923665973,None,571.9181402998511,572.2586280000396,None,None,None,None,left,1,0.6032327001448721,571.9759263999294,None,None,None,,,,,,,klxufm,001,0,fr,2022-05-09_17h40.48.032,3-AFC_adaptive_staircase_mess,2022.1.1,None,
,,,,,4,0,4,0,18,0,18,0,,,,,,,,,,,,,,,,up,4000,-12.5,1.9905358527674868e-05,-1,6,-1,-5.0,575.144222066567,None,574.093084000051,574.4339486998506,575.0935355999973,575.4103613998741,576.0939674000256,576.4382128999569,up,1,3.5505551998503506,574.1640498999041,None,576.6614868999459,None,,,,,,,klxufm,001,0,fr,2022-05-09_17h40.48.032,3-AFC_adaptive_staircase_mess,2022.1.1,None,
,,,,,5,0,5,0,0,0,0,0,,,,,,,,,,,,,[],[],10,up,6000,30,0.003664122665694519,0,0,-1,10,581.4816451667032,None,580.4296665000729,580.7632915999275,581.4314415999688,581.7740130999591,None,None,up,1,1.3953410000540316,580.496244699927,None,None,None,num_multiply,1.1548145001288503,578.7843818999827,None,578.7843818999827,None,klxufm,001,0,fr,2022-05-09_17h40.48.032,3-AFC_adaptive_staircase_mess,2022.1.1,None,
,,,,,5,0,5,0,1,0,1,0,,,,,,,,,,,,,,,,left,6000,30,0.003664122665694519,0,0,-1,10,583.4498514666377,None,583.3997811998706,583.741753899958,None,None,None,None,left,1,0.5826670001260936,583.467327099992,None,None,None,,,,,,,klxufm,001,0,fr,2022-05-09_17h40.48.032,3-AFC_adaptive_staircase_mess,2022.1.1,None,
,,,,,5,0,5,0,2,0,2,0,,,,,,,,,,,,,,,,left,6000,10,0.00036641226656945183,-1,0,-1,-10,585.6180540666139,None,585.5673356999177,585.9107094998471,None,None,None,None,left,1,0.3878204000648111,585.6311397999525,None,None,None,,,,,,,klxufm,001,0,fr,2022-05-09_17h40.48.032,3-AFC_adaptive_staircase_mess,2022.1.1,None,
,,,,,5,0,5,0,3,0,3,0,,,,,,,,,,,,,,,,right,6000,10,0.00036641226656945183,-1,0,-1,-10,589.5903602666842,None,587.5512894999702,587.8738456999417,588.5408882999327,588.8748498999048,589.5440592998639,589.8825623998418,right,1,5.412845599930733,587.5819315998815,None,590.0969690999482,None,,,,,,,klxufm,001,0,fr,2022-05-09_17h40.48.032,3-AFC_adaptive_staircase_mess,2022.1.1,None,
,,,,,5,0,5,0,4,0,4,0,,,,,,,,,,,,,,,,right,6000,0,0.00011586973249842387,-1,0,-1,-10,596.5638467665451,None,594.5076051000506,594.8448307998478,595.5132756000385,595.8495302000083,596.5135863998439,596.8523317000363,right,1,2.492266499903053,594.5660294999834,None,597.0808049999177,None,,,,,,,klxufm,001,0,fr,2022-05-09_17h40.48.032,3-AFC_adaptive_staircase_mess,2022.1.1,None,
,,,,,5,0,5,0,5,0,5,0,,,,,,,,,,,,,,,,right,6000,0,0.00011586973249842387,-1,0,-1,-10,600.6390577667082,600.8656373000704,598.583390600048,598.9177373000421,599.5850259000435,599.9195427999366,600.5868040998466,600.9244178999215,right,1,2.45486000017263,598.6521103999112,None,601.1304933000356,None,,,,,,,klxufm,001,0,fr,2022-05-09_17h40.48.032,3-AFC_adaptive_staircase_mess,2022.1.1,None,
,,,,,5,0,5,0,6,0,6,0,,,,,,,,,,,,,,,,right,6000,-10,3.664122665694518e-05,-1,0,-1,-10,604.6749372666857,None,602.6205771998502,602.9544706998859,603.6349688000046,603.9542719998863,604.624016399961,604.9592988998629,left,0,2.594333899905905,602.6885472000577,None,605.1907271998934,None,,,,,,,klxufm,001,0,fr,2022-05-09_17h40.48.032,3-AFC_adaptive_staircase_mess,2022.1.1,None,
,,,,,5,0,5,0,7,0,7,0,,,,,,,,,,,,,,,,left,6000,-5,6.515833892261494e-05,1,1,1,5,606.8406879667348,607.0709110999014,606.7909339999314,607.1315433999989,607.7919015998486,608.1300379000604,608.7938308999874,609.1286344998516,left,1,2.8248554000165313,606.8579301999416,None,609.3639299999923,None,,,,,,,klxufm,001,0,fr,2022-05-09_17h40.48.032,3-AFC_adaptive_staircase_mess,2022.1.1,None,
,,,,,5,0,5,0,8,0,8,0,,,,,,,,,,,,,,,,up,6000,-5,6.515833892261494e-05,1,1,1,5,612.2511143666381,None,611.2002206998877,611.5340704000555,612.2008573999628,612.5412615998648,None,None,up,1,1.6183325999882072,611.2641654999461,None,None,None,,,,,,,klxufm,001,0,fr,2022-05-09_17h40.48.032,3-AFC_adaptive_staircase_mess,2022.1.1,None,
,,,,,5,0,5,0,9,0,9,0,,,,,,,,,,,,,,,,right,6000,-15,2.0604875954866497e-05,-1,2,-1,-5.0,616.431913666722,None,614.4031966999173,614.735168099869,615.4006346999668,615.7315837000497,616.3867522999644,616.7034469000064,right,1,2.6900050998665392,614.4324543999974,None,616.9388244999573,None,,,,,,,klxufm,001,0,fr,2022-05-09_17h40.48.032,3-AFC_adaptive_staircase_mess,2022.1.1,None,
,,,,,5,0,5,0,10,0,10,0,,,,,,,,,,,,,,,,up,6000,-15,2.0604875954866497e-05,-1,2,-1,-5.0,619.6889263666856,None,618.6355270999484,618.973852199968,619.6383223000448,619.9526452999562,620.6439689998515,620.9744531998876,up,1,2.8035813998430967,618.7027618000284,None,621.2088527998421,None,,,,,,,klxufm,001,0,fr,2022-05-09_17h40.48.032,3-AFC_adaptive_staircase_mess,2022.1.1,None,
,,,,,5,0,5,0,11,0,11,0,,,,,,,,,,,,,,,,right,6000,-20.0,1.1586973249842387e-05,-1,2,-1,-5.0,625.0669473666387,None,623.0122362000402,623.3487026998773,624.011763599934,624.3528104999568,625.0142246000469,625.3512816999573,up,0,2.4773181001655757,623.0774492998607,None,625.5816899000201,None,,,,,,,klxufm,001,0,fr,2022-05-09_17h40.48.032,3-AFC_adaptive_staircase_mess,2022.1.1,None,
,,,,,5,0,5,0,12,0,12,0,,,,,,,,,,,,,,,,right,6000,-17.5,1.5451477162567947e-05,1,3,1,2.5,629.1339585665303,None,627.0803620999213,627.4147127000615,628.0822330999654,628.4122645999305,629.0828259999398,629.4167353999801,up,0,2.343968099914491,627.1468014998827,None,None,None,,,,,,,klxufm,001,0,fr,2022-05-09_17h40.48.032,3-AFC_adaptive_staircase_mess,2022.1.1,None,
,,,,,5,0,5,0,13,0,13,0,,,,,,,,,,,,,,,,right,6000,-15.0,2.0604875954866497e-05,1,3,1,2.5,633.0686286665189,633.2964593998622,631.0171415000223,631.3544447999448,632.0184295999352,632.358395599993,633.0184096000157,633.3593971000519,right,1,2.4552436999510974,631.0833225999959,None,633.5666479666872,None,,,,,,,klxufm,001,0,fr,2022-05-09_17h40.48.032,3-AFC_adaptive_staircase_mess,2022.1.1,None,
,,,,,5,0,5,0,14,0,14,0,,,,,,,,,,,,,,,,up,6000,-15.0,2.0604875954866497e-05,1,3,1,2.5,636.1066701666607,None,635.050915800035,635.3908762000501,636.0601043000352,636.4125993000343,637.0597744998522,637.3999989998993,left,0,2.5174528998322785,635.1172549999319,None,637.627969800029,None,,,,,,,klxufm,001,0,fr,2022-05-09_17h40.48.032,3-AFC_adaptive_staircase_mess,2022.1.1,None,
,,,,,5,0,5,0,15,0,15,0,,,,,,,,,,,,,,,,left,6000,-12.5,2.7477043692881217e-05,1,3,1,2.5,639.2102390665716,None,639.1584664999973,639.4977688998915,640.1601772999857,640.4909395000432,641.1610302999616,641.4926256998442,right,0,2.4841799999121577,639.2300400000531,None,641.7154624999966,None,,,,,,,klxufm,001,0,fr,2022-05-09_17h40.48.032,3-AFC_adaptive_staircase_mess,2022.1.1,None,
,,,,,5,0,5,0,16,0,16,0,,,,,,,,,,,,,,,,left,6000,-10.0,3.664122665694518e-05,1,3,1,2.5,643.2774636666911,None,643.2264598000329,643.567856800044,644.2304733998608,644.5658766999841,645.2317244000733,645.5636886998545,right,0,2.4505561999976635,643.2955481000245,None,645.7810550665638,None,,,,,,,klxufm,001,0,fr,2022-05-09_17h40.48.032,3-AFC_adaptive_staircase_mess,2022.1.1,None,
,,,,,5,0,5,0,17,0,17,0,,,,,,,,,,,,,,,,up,6000,-7.5,4.886186104779051e-05,1,3,1,2.5,648.3197159665326,None,647.2667505999561,647.5997514000628,648.2680061999708,648.6062103998847,649.2706190999597,649.6012519998476,left,0,2.55702400021255,647.3332887999713,None,649.8428752999753,None,,,,,,,klxufm,001,0,fr,2022-05-09_17h40.48.032,3-AFC_adaptive_staircase_mess,2022.1.1,None,
,,,,,5,0,5,0,18,0,18,0,,,,,,,,,,,,,,,,left,6000,-5.0,6.515833892261494e-05,1,3,1,2.5,651.4339179667334,None,651.4172513000667,651.740514599951,652.4185738000087,None,None,None,left,1,0.9863698999397457,651.4481651000679,None,None,None,,,,,,,klxufm,001,0,fr,2022-05-09_17h40.48.032,3-AFC_adaptive_staircase_mess,2022.1.1,None,
,,,,,5,0,5,0,19,0,19,0,,,,,,,,,,,,,,,,left,6000,-5.0,6.515833892261494e-05,1,3,1,2.5,653.992708666545,None,653.9420584999025,654.2755416000728,None,None,None,None,left,1,0.6819239999167621,654.0089155000169,None,None,None,,,,,,,klxufm,001,0,fr,2022-05-09_17h40.48.032,3-AFC_adaptive_staircase_mess,2022.1.1,None,
,,,,,5,0,5,0,20,0,20,0,,,,,,,,,,,,,,,,left,6000,-10.0,3.664122665694518e-05,-1,4,-1,-5.0,656.2613590665317,None,656.2104839000385,656.5439255000092,657.2121861998457,657.5445801999886,658.2120939998422,658.5504360999912,up,0,2.892705600010231,656.2783307998907,None,658.7802563000005,None,,,,,,,klxufm,001,0,fr,2022-05-09_17h40.48.032,3-AFC_adaptive_staircase_mess,2022.1.1,None,
,,,,,5,0,5,0,21,0,21,0,,,,,,,,,,,,,,,,right,6000,-7.5,4.886186104779051e-05,1,5,1,2.5,662.6996461665879,None,660.678931399947,661.0170269999653,661.6840365999378,662.0172780998982,662.6829794999212,663.0218909999821,right,1,2.343810700112954,660.747156499885,None,None,None,,,,,,,klxufm,001,0,fr,2022-05-09_17h40.48.032,3-AFC_adaptive_staircase_mess,2022.1.1,None,
,,,,,5,0,5,0,22,0,22,0,,,,,,,,,,,,,,,,left,6000,-7.5,4.886186104779051e-05,1,5,1,2.5,664.6725346665519,None,664.6208527998533,664.9578553000465,665.6217078999616,665.9551999999676,666.634815499885,666.9564620999154,up,0,2.5451873999554664,664.689440399874,None,667.1924294999335,None,,,,,,,klxufm,001,0,fr,2022-05-09_17h40.48.032,3-AFC_adaptive_staircase_mess,2022.1.1,None,
,,,,,5,0,5,0,23,0,23,0,,,,,,,,,,,,,,,,right,6000,-5.0,6.515833892261494e-05,1,5,1,2.5,None,None,668.7579111999366,669.0937173999846,669.76065750001,None,None,None,left,0,0.9007741999812424,668.8301458999049,None,None,None,,,,,,,klxufm,001,0,fr,2022-05-09_17h40.48.032,3-AFC_adaptive_staircase_mess,2022.1.1,None,
,,,,,5,0,5,0,24,0,24,0,,,,,,,,,,,,,,,,left,6000,-2.5,8.689004143746872e-05,1,5,1,2.5,671.3099295665199,671.5317861998919,671.2596297999844,671.5943217000458,None,None,None,None,left,1,0.7723574000410736,671.327064699959,None,None,None,,,,,,,klxufm,001,0,fr,2022-05-09_17h40.48.032,3-AFC_adaptive_staircase_mess,2022.1.1,None,
,,,,,5,0,5,0,25,0,25,0,,,,,,,,,,,,,,,,left,6000,-2.5,8.689004143746872e-05,1,5,1,2.5,673.6711827666188,None,673.620635899948,673.9468624000438,674.6199092665377,None,None,None,left,1,0.9058487000875175,673.6887723000254,None,None,None,,,,,,,klxufm,001,0,fr,2022-05-09_17h40.48.032,3-AFC_adaptive_staircase_mess,2022.1.1,None,
,,,,,5,0,5,0,26,0,26,0,,,,,,,,,,,,,,,,up,6000,-7.5,4.886186104779051e-05,-1,6,-1,-5.0,677.1213689665931,None,676.1010159000289,676.4321892000735,677.1047022999264,677.43060959992,678.1047618999146,678.4360487000085,right,0,3.131650700001046,676.1672255999874,None,678.6382933000568,None,,,,,,,klxufm,001,0,fr,2022-05-09_17h40.48.032,3-AFC_adaptive_staircase_mess,2022.1.1,None,
,,,,,6,0,6,0,0,0,0,0,,,,,,,,,,,,,[],[],10,right,8000,30,0.005740768107484416,0,0,-1,10,683.8229927665709,None,681.7666313999798,682.1024845000356,682.7669875998981,683.1054173999,683.7723437999375,684.1107490998693,right,1,2.328774099936709,681.8341598999687,None,None,None,num_multiply,0.8868988999165595,680.3960700000171,None,680.3960700000171,None,klxufm,001,0,fr,2022-05-09_17h40.48.032,3-AFC_adaptive_staircase_mess,2022.1.1,None,
,,,,,6,0,6,0,1,0,1,0,,,,,,,,,,,,,,,,left,8000,30,0.005740768107484416,0,0,-1,10,685.7197026666875,None,685.6689355999697,686.0073887000326,None,None,None,None,left,1,0.474354499951005,685.7362605999224,None,None,None,,,,,,,klxufm,001,0,fr,2022-05-09_17h40.48.032,3-AFC_adaptive_staircase_mess,2022.1.1,None,
,,,,,6,0,6,0,2,0,2,0,,,,,,,,,,,,,,,,right,8000,10,0.0005740768107484417,-1,0,-1,-10,689.7966645665622,690.0228494000621,687.7413065999281,688.0758171000052,688.7418110999279,689.0809464000631,689.7481507000048,690.0846601999365,right,1,2.289745199959725,687.809058399871,None,None,None,,,,,,,klxufm,001,0,fr,2022-05-09_17h40.48.032,3-AFC_adaptive_staircase_mess,2022.1.1,None,
,,,,,6,0,6,0,3,0,3,0,,,,,,,,,,,,,,,,up,8000,10,0.0005740768107484417,-1,0,-1,-10,692.6656822665284,None,691.6175162999425,691.9513793999795,692.6177399000153,692.9595452998765,None,None,left,0,1.4234279999509454,691.6832961000036,None,None,None,,,,,,,klxufm,001,0,fr,2022-05-09_17h40.48.032,3-AFC_adaptive_staircase_mess,2022.1.1,None,
,,,,,6,0,6,0,4,0,4,0,,,,,,,,,,,,,,,,up,8000,15,0.001020868972334765,1,1,1,5,None,None,694.6174190000165,None,None,None,None,None,up,1,-1.1932939998805523,694.6850496998522,None,None,None,,,,,,,klxufm,001,0,fr,2022-05-09_17h40.48.032,3-AFC_adaptive_staircase_mess,2022.1.1,None,
,,,,,6,0,6,0,5,0,5,0,,,,,,,,,,,,,,,,up,8000,15,0.001020868972334765,1,1,1,5,697.2369927666771,None,696.186371400021,696.5169513998553,697.1866289000027,697.5204155000392,None,None,up,1,1.5258419001474977,696.2522785000037,None,None,None,,,,,,,klxufm,001,0,fr,2022-05-09_17h40.48.032,3-AFC_adaptive_staircase_mess,2022.1.1,None,
,,,,,6,0,6,0,6,0,6,0,,,,,,,,,,,,,,,,left,8000,5,0.00032282711451732784,-1,2,-1,-5.0,699.3366359666145,699.562815999845,699.2860667998902,699.624880899908,None,None,None,None,left,1,0.5058279000222683,699.3542514999863,None,None,None,,,,,,,klxufm,001,0,fr,2022-05-09_17h40.48.032,3-AFC_adaptive_staircase_mess,2022.1.1,None,
,,,,,6,0,6,0,7,0,7,0,,,,,,,,,,,,,,,,up,8000,5,0.00032282711451732784,-1,2,-1,-5.0,702.4391703666809,None,701.3886136999354,701.727036499884,702.3893156000413,702.7289166999981,None,None,up,1,1.3615158000029624,701.457369599957,None,None,None,,,,,,,klxufm,001,0,fr,2022-05-09_17h40.48.032,3-AFC_adaptive_staircase_mess,2022.1.1,None,
,,,,,6,0,6,0,8,0,8,0,,,,,,,,,,,,,,,,up,8000,0.0,0.0001815390273850507,-1,2,-1,-5.0,705.3795280666711,None,704.3320931999478,704.6610109000467,705.3288326000329,705.6749911999796,None,None,up,1,1.300438900012523,704.3979130999651,None,None,None,,,,,,,klxufm,001,0,fr,2022-05-09_17h40.48.032,3-AFC_adaptive_staircase_mess,2022.1.1,None,
,,,,,6,0,6,0,9,0,9,0,,,,,,,,,,,,,,,,up,8000,0.0,0.0001815390273850507,-1,2,-1,-5.0,708.2487559666081,708.4708704999648,707.2027447998989,707.5236589999404,708.1980824000202,708.5335156999063,None,None,up,1,1.4750606000889093,707.2639243998565,None,None,None,,,,,,,klxufm,001,0,fr,2022-05-09_17h40.48.032,3-AFC_adaptive_staircase_mess,2022.1.1,None,
,,,,,6,0,6,0,10,0,10,0,,,,,,,,,,,,,,,,left,8000,-5.0,0.00010208689723347648,-1,2,-1,-5.0,710.3163635666172,710.5406756999437,710.2667117000092,710.6041947000194,711.2730274999049,711.5994098999072,712.2632432999089,712.6043489000294,left,1,2.5186016999650747,710.332413499942,None,712.8063956999686,None,,,,,,,klxufm,001,0,fr,2022-05-09_17h40.48.032,3-AFC_adaptive_staircase_mess,2022.1.1,None,
,,,,,6,0,6,0,11,0,11,0,,,,,,,,,,,,,,,,up,8000,-5.0,0.00010208689723347648,-1,2,-1,-5.0,715.4213121666728,None,714.3656714998651,714.7023147998843,715.3708857998718,715.7094147000462,None,None,up,1,1.5863236000295728,714.4322178000584,None,None,None,,,,,,,klxufm,001,0,fr,2022-05-09_17h40.48.032,3-AFC_adaptive_staircase_mess,2022.1.1,None,
,,,,,6,0,6,0,12,0,12,0,,,,,,,,,,,,,,,,right,8000,-10.0,5.740768107484415e-05,-1,2,-1,-5.0,719.5982196666921,None,717.5459906999022,717.8731323999818,718.548582999967,718.8801684000064,719.545321200043,719.84809149988,left,0,2.694936500163749,717.6120680000167,None,720.1061606998555,None,,,,,,,klxufm,001,0,fr,2022-05-09_17h40.48.032,3-AFC_adaptive_staircase_mess,2022.1.1,None,
,,,,,6,0,6,0,13,0,13,0,,,,,,,,,,,,,,,,right,8000,-7.5,7.655437308410152e-05,1,3,1,2.5,723.8612723665467,None,721.8131581998896,722.1458769999444,722.8078542000148,723.135406000074,723.8122954000719,724.1484864000231,right,1,2.3450705998111516,721.8810636000708,None,None,None,,,,,,,klxufm,001,0,fr,2022-05-09_17h40.48.032,3-AFC_adaptive_staircase_mess,2022.1.1,None,
,,,,,6,0,6,0,14,0,14,0,,,,,,,,,,,,,,,,up,8000,-7.5,7.655437308410152e-05,1,3,1,2.5,726.7915709666597,None,725.7648107998539,726.1100709000602,726.7749042999931,727.0871875998564,None,None,up,1,1.7278856001794338,725.7947893999517,None,None,None,,,,,,,klxufm,001,0,fr,2022-05-09_17h40.48.032,3-AFC_adaptive_staircase_mess,2022.1.1,None,
,,,,,6,0,6,0,15,0,15,0,,,,,,,,,,,,,,,,right,8000,-12.5,4.304968760923004e-05,-1,4,-1,-5.0,731.065569266739,None,729.0281402000692,729.3504333999008,730.0448004000355,730.3859321998898,731.017936399905,731.3584827000741,up,0,2.530477999942377,729.0875826999545,None,731.588541300036,None,,,,,,,klxufm,001,0,fr,2022-05-09_17h40.48.032,3-AFC_adaptive_staircase_mess,2022.1.1,None,
,,,,,6,0,6,0,16,0,16,0,,,,,,,,,,,,,,,,right,8000,-10.0,5.740768107484415e-05,1,5,1,2.5,735.1710333666454,None,733.126268299995,733.4598882999271,734.1203765999526,734.4529198000673,735.1239107998554,735.460628699977,right,1,2.5395547000225633,733.1594922000077,None,735.6708412000444,None,,,,,,,klxufm,001,0,fr,2022-05-09_17h40.48.032,3-AFC_adaptive_staircase_mess,2022.1.1,None,
,,,,,6,0,6,0,17,0,17,0,,,,,,,,,,,,,,,,left,8000,-10.0,5.740768107484415e-05,1,5,1,2.5,737.2454668665926,None,737.1992557998747,737.5310990998987,738.2040381999686,738.5204590999056,739.2221941000316,739.5456494998652,right,0,2.339540099957958,737.2631377999205,None,None,None,,,,,,,klxufm,001,0,fr,2022-05-09_17h40.48.032,3-AFC_adaptive_staircase_mess,2022.1.1,None,
,,,,,6,0,6,0,18,0,18,0,,,,,,,,,,,,,,,,up,8000,-7.5,7.655437308410152e-05,1,5,1,2.5,742.1187136665142,None,741.0872601999436,741.427087899996,742.1020469998475,742.4267646998633,743.0913038998842,743.4280298000667,up,1,2.419818500056863,741.1513837999664,None,None,None,,,,,,,klxufm,001,0,fr,2022-05-09_17h40.48.032,3-AFC_adaptive_staircase_mess,2022.1.1,None,
,,,,,6,0,6,0,19,0,19,0,,,,,,,,,,,,,,,,right,8000,-7.5,7.655437308410152e-05,1,5,1,2.5,747.1169091666272,747.3460679999553,745.0805819998495,745.4067646998446,746.0989355000202,746.4346322999336,747.1002424999606,747.4409705998842,right,1,2.66923650004901,745.1412559999153,None,747.6426096998621,None,,,,,,,klxufm,001,0,fr,2022-05-09_17h40.48.032,3-AFC_adaptive_staircase_mess,2022.1.1,None,
,,,,,6,0,6,0,20,0,20,0,,,,,,,,,,,,,,,,left,8000,-12.5,4.304968760923004e-05,-1,6,-1,-5.0,749.3548115667111,None,749.3381449000444,749.6774452999234,750.331348199863,750.6688671999145,751.3323716998566,751.6806352999993,right,0,5.031446499982849,749.3711907998659,None,751.8690951999743,None,,,,,,,klxufm,001,0,fr,2022-05-09_17h40.48.032,3-AFC_adaptive_staircase_mess,2022.1.1,None,
,,,,,7,0,7,0,0,0,0,0,,,,,,,,,,,,,[],[],10,right,750,30,0.0012851978913844323,0,0,-1,10,759.1199343666124,None,757.0733338000719,757.4211653000675,758.0846605000552,758.410715200007,759.071677000029,759.4175781998783,right,1,2.2591586001217365,757.1356333000585,None,None,None,num_multiply,1.1232099998742342,755.4713461999781,None,755.4713461999781,None,klxufm,001,0,fr,2022-05-09_17h40.48.032,3-AFC_adaptive_staircase_mess,2022.1.1,None,
,,,,,7,0,7,0,1,0,1,0,,,,,,,,,,,,,,,,right,750,30,0.0012851978913844323,0,0,-1,10,762.9527062667223,None,760.929250099929,761.2542612999678,761.9258721999358,762.2671841999982,762.9360396000557,None,right,1,2.210165500175208,760.9923506998457,None,None,None,,,,,,,klxufm,001,0,fr,2022-05-09_17h40.48.032,3-AFC_adaptive_staircase_mess,2022.1.1,None,
,,,,,7,0,7,0,2,0,2,0,,,,,,,,,,,,,,,,right,750,10,0.00012851978913844324,-1,0,-1,-10,766.7351631667154,None,764.7192840999924,765.0614904998802,765.7240543998778,766.056660000002,766.7184965000488,767.0571719000582,right,1,2.340838799951598,764.7496682000346,None,None,None,,,,,,,klxufm,001,0,fr,2022-05-09_17h40.48.032,3-AFC_adaptive_staircase_mess,2022.1.1,None,
,,,,,7,0,7,0,3,0,3,0,,,,,,,,,,,,,,,,right,750,10,0.00012851978913844324,-1,0,-1,-10,770.6839127666938,None,768.6183303999715,768.9571105998475,769.6214580999222,769.9537748999428,770.636838800041,770.9532174000051,right,1,2.3477777999360114,768.6786090999376,None,None,None,,,,,,,klxufm,001,0,fr,2022-05-09_17h40.48.032,3-AFC_adaptive_staircase_mess,2022.1.1,None,
,,,,,7,0,7,0,4,0,4,0,,,,,,,,,,,,,,,,left,750,0,4.064152580820497e-05,-1,0,-1,-10,772.6090093665446,None,772.5623881998472,772.8767369000707,773.5637525999919,773.8801345999818,774.5756141999736,774.9091874000151,left,1,3.8101431999821216,772.6244272000622,None,775.1189317998942,None,,,,,,,klxufm,001,0,fr,2022-05-09_17h40.48.032,3-AFC_adaptive_staircase_mess,2022.1.1,None,
,,,,,7,0,7,0,5,0,5,0,,,,,,,,,,,,,,,,right,750,0,4.064152580820497e-05,-1,0,-1,-10,779.9766459665882,None,777.9183847999666,778.2547879999038,778.9225595998578,779.2425527998712,779.9263349999674,780.2397086999845,right,1,2.47119849990122,777.9794626999646,None,780.4713490666511,None,,,,,,,klxufm,001,0,fr,2022-05-09_17h40.48.032,3-AFC_adaptive_staircase_mess,2022.1.1,None,
,,,,,7,0,7,0,6,0,6,0,,,,,,,,,,,,,,,,up,750,-10,1.2851978913844322e-05,-1,0,-1,-10,782.9904199666964,None,781.9398012000602,782.2807752999943,782.9737533000298,783.2927568999585,783.9752448999789,784.2908176998608,left,0,2.498204200062901,782.00073469989,None,784.5084819998592,None,,,,,,,klxufm,001,0,fr,2022-05-09_17h40.48.032,3-AFC_adaptive_staircase_mess,2022.1.1,None,
,,,,,7,0,7,0,7,0,7,0,,,,,,,,,,,,,,,,left,750,-5,2.285440948074376e-05,1,1,1,5,786.0472069667342,None,786.0001097999047,786.3149770000018,787.0219844998792,787.3595592000056,None,None,up,0,1.6853308000136167,786.0610839999281,None,None,None,,,,,,,klxufm,001,0,fr,2022-05-09_17h40.48.032,3-AFC_adaptive_staircase_mess,2022.1.1,None,
,,,,,7,0,7,0,8,0,8,0,,,,,,,,,,,,,,,,up,750,0,4.064152580820497e-05,1,1,1,5,790.313281466548,None,789.2463630000129,789.5534131999593,790.2534018999431,790.5708862000611,None,None,up,1,1.6389369999524206,789.3072331999429,None,None,None,,,,,,,klxufm,001,0,fr,2022-05-09_17h40.48.032,3-AFC_adaptive_staircase_mess,2022.1.1,None,
,,,,,7,0,7,0,9,0,9,0,,,,,,,,,,,,,,,,right,750,0,4.064152580820497e-05,1,1,1,5,794.5249293666022,None,792.4850047000218,792.8067186998669,793.4578384000342,793.7723125999328,794.4745854998473,794.7935723999981,right,1,2.6236959998495877,792.51578529994,None,795.0408828000072,None,,,,,,,klxufm,001,0,fr,2022-05-09_17h40.48.032,3-AFC_adaptive_staircase_mess,2022.1.1,None,
,,,,,7,0,7,0,10,0,10,0,,,,,,,,,,,,,,,,up,750,-10,1.2851978913844322e-05,-1,2,-1,-5.0,797.7148721665765,None,796.6820328000467,797.0093791999388,797.6785219998565,798.0146778998896,798.6783767000306,798.9993258998729,right,0,2.4907670998945832,796.7115084000397,None,799.231501566541,None,,,,,,,klxufm,001,0,fr,2022-05-09_17h40.48.032,3-AFC_adaptive_staircase_mess,2022.1.1,None,
,,,,,7,0,7,0,11,0,11,0,,,,,,,,,,,,,,,,left,750,-7.5,1.7138389327322525e-05,1,3,1,2.5,800.7485346666692,None,800.7029198999517,801.0454080000054,801.7158530000597,802.0542146998923,802.716291599907,803.0466350999195,up,0,3.301006000023335,800.7650146998931,None,803.2494447999634,None,,,,,,,klxufm,001,0,fr,2022-05-09_17h40.48.032,3-AFC_adaptive_staircase_mess,2022.1.1,None,
,,,,,7,0,7,0,12,0,12,0,,,,,,,,,,,,,,,,up,750,-5.0,2.285440948074376e-05,1,3,1,2.5,806.6335960666804,None,805.5850058000069,805.9225011998788,806.5834188999142,806.8978500000667,807.5870266000275,807.9225303998683,right,0,2.717550099827349,805.6523911999539,None,808.1545444999356,None,,,,,,,klxufm,001,0,fr,2022-05-09_17h40.48.032,3-AFC_adaptive_staircase_mess,2022.1.1,None,
,,,,,7,0,7,0,13,0,13,0,,,,,,,,,,,,,,,,up,750,-2.5,3.0476844862008466e-05,1,3,1,2.5,810.9447545665937,811.1769946999848,809.8919215998612,810.223204900045,810.8946640999056,811.2348639999982,None,None,up,1,1.7595798999536783,809.9553308999166,None,None,None,,,,,,,klxufm,001,0,fr,2022-05-09_17h40.48.032,3-AFC_adaptive_staircase_mess,2022.1.1,None,
,,,,,7,0,7,0,14,0,14,0,,,,,,,,,,,,,,,,right,750,-2.5,3.0476844862008466e-05,1,3,1,2.5,815.2673717665641,None,813.2280021000188,813.5606595000718,814.2277230999898,814.5621954000089,815.2187526999041,815.5342307998799,left,0,3.4615849000401795,813.2938973000273,None,815.7772241998464,None,,,,,,,klxufm,001,0,fr,2022-05-09_17h40.48.032,3-AFC_adaptive_staircase_mess,2022.1.1,None,
,,,,,7,0,7,0,15,0,15,0,,,,,,,,,,,,,,,,right,750,0.0,4.064152580820497e-05,1,3,1,2.5,820.3180997665661,820.5481103998609,818.2653757999651,818.5992757000495,819.2671453999355,819.5972786999773,820.2677168999799,820.6098050000146,right,1,4.774067499907687,818.3326999000274,None,820.823143400019,None,,,,,,,klxufm,001,0,fr,2022-05-09_17h40.48.032,3-AFC_adaptive_staircase_mess,2022.1.1,None,
,,,,,7,0,7,0,16,0,16,0,,,,,,,,,,,,,,,,right,750,0.0,4.064152580820497e-05,1,3,1,2.5,826.659576866605,826.8892687000334,824.6072924998589,824.9410852999426,825.642415399896,825.9716690999921,826.6120551000349,826.9515476999804,right,1,2.386463199974969,824.6724681998603,None,None,None,,,,,,,klxufm,001,0,fr,2022-05-09_17h40.48.032,3-AFC_adaptive_staircase_mess,2022.1.1,None,
,,,,,7,0,7,0,17,0,17,0,,,,,,,,,,,,,,,,right,750,-5.0,2.285440948074376e-05,-1,4,-1,-5.0,830.6294439666128,None,828.610152799869,828.9440216999501,829.5979911999311,829.9423801999073,830.5794633999467,830.911271299934,right,1,2.5266614998690784,828.6442791000009,None,831.1444993999321,None,,,,,,,klxufm,001,0,fr,2022-05-09_17h40.48.032,3-AFC_adaptive_staircase_mess,2022.1.1,None,
,,,,,7,0,7,0,18,0,18,0,,,,,,,,,,,,,,,,up,750,-5.0,2.285440948074376e-05,-1,4,-1,-5.0,833.7314559666595,None,832.6797722000629,833.0163075998425,833.6818037999328,834.0239529998507,None,None,up,1,1.6871005999855697,832.7470805000048,None,None,None,,,,,,,klxufm,001,0,fr,2022-05-09_17h40.48.032,3-AFC_adaptive_staircase_mess,2022.1.1,None,
,,,,,7,0,7,0,19,0,19,0,,,,,,,,,,,,,,,,up,750,-10.0,1.2851978913844322e-05,-1,4,-1,-5.0,837.0011040666761,None,835.9490153000224,836.2848272998817,836.9513854000252,837.2629229999147,837.9563658998813,838.2871071998961,left,0,3.1381328999996185,836.0167181999423,None,838.5260999000166,None,,,,,,,klxufm,001,0,fr,2022-05-09_17h40.48.032,3-AFC_adaptive_staircase_mess,2022.1.1,None,
,,,,,7,0,7,0,20,0,20,0,,,,,,,,,,,,,,,,left,750,-7.5,1.7138389327322525e-05,1,5,1,2.5,840.7097129666402,None,840.6577087000478,840.9900404999498,841.6529560000636,841.9907871000469,842.6579485998955,842.9927413999103,left,1,2.815296299988404,840.7230692999437,None,843.2243886999786,None,,,,,,,klxufm,001,0,fr,2022-05-09_17h40.48.032,3-AFC_adaptive_staircase_mess,2022.1.1,None,
,,,,,7,0,7,0,21,0,21,0,,,,,,,,,,,,,,,,right,750,-7.5,1.7138389327322525e-05,1,5,1,2.5,847.1120413665815,847.3432050999254,845.059490500018,845.3941076998599,846.060098499991,846.3949511998799,847.0617907999549,847.4038533000275,right,1,2.796487099956721,845.1260844999924,None,847.6153837998863,None,,,,,,,klxufm,001,0,fr,2022-05-09_17h40.48.032,3-AFC_adaptive_staircase_mess,2022.1.1,None,
,,,,,7,0,7,0,22,0,22,0,,,,,,,,,,,,,,,,left,750,-12.5,9.637624565954684e-06,-1,6,-1,-5.0,849.4816578666835,None,849.42995349993,849.7728742999025,850.4322746999096,850.7650267998688,851.4346342000645,851.7720581998583,up,0,2.4391573001630604,849.4986556000076,None,851.9691004999913,None,,,,,,,klxufm,001,0,fr,2022-05-09_17h40.48.032,3-AFC_adaptive_staircase_mess,2022.1.1,None,
,,,,,8,0,8,0,0,0,0,0,,,,,,,,,,,,,[],[],10,left,500,30,0.002259279721874612,0,0,-1,10,854.8571741665403,None,854.8052787999623,855.1440337998793,855.80203599995,None,None,None,left,1,0.9191098001319915,854.8750610998832,None,None,None,num_multiply,1.2988525000400841,853.0393242000137,None,853.0393242000137,None,klxufm,001,0,fr,2022-05-09_17h40.48.032,3-AFC_adaptive_staircase_mess,2022.1.1,None,
,,,,,8,0,8,0,1,0,1,0,,,,,,,,,,,,,,,,up,500,30,0.002259279721874612,0,0,-1,10,858.3597433665457,None,857.302885199897,857.6414731999394,858.3074866000097,858.6493621000554,None,None,up,1,1.3686800999566913,857.3695260998793,None,None,None,,,,,,,klxufm,001,0,fr,2022-05-09_17h40.48.032,3-AFC_adaptive_staircase_mess,2022.1.1,None,
,,,,,8,0,8,0,2,0,2,0,,,,,,,,,,,,,,,,up,500,10,0.0002259279721874612,-1,0,-1,-10,861.2933739666516,861.5231583998539,860.241406199988,860.5765015999787,861.2428834999446,861.5844062999822,None,None,up,1,1.453593400074169,860.3084805000108,None,None,None,,,,,,,klxufm,001,0,fr,2022-05-09_17h40.48.032,3-AFC_adaptive_staircase_mess,2022.1.1,None,
,,,,,8,0,8,0,3,0,3,0,,,,,,,,,,,,,,,,up,500,10,0.0002259279721874612,-1,0,-1,-10,864.3288676667182,None,863.2772766000126,863.6138305000495,864.2787893000059,864.591193899978,None,None,up,1,1.3138846000656486,863.3444282999262,None,None,None,,,,,,,klxufm,001,0,fr,2022-05-09_17h40.48.032,3-AFC_adaptive_staircase_mess,2022.1.1,None,
,,,,,8,0,8,0,4,0,4,0,,,,,,,,,,,,,,,,up,500,0,7.144469792555515e-05,-1,0,-1,-10,867.2364035666144,None,866.1850208998658,866.5173327999655,867.1850675998721,867.5187739999965,None,None,up,1,1.3523570999968797,866.2508084999863,None,None,None,,,,,,,klxufm,001,0,fr,2022-05-09_17h40.48.032,3-AFC_adaptive_staircase_mess,2022.1.1,None,
,,,,,8,0,8,0,5,0,5,0,,,,,,,,,,,,,,,,up,500,0,7.144469792555515e-05,-1,0,-1,-10,870.1720287665414,870.4000091999769,869.1196033000015,869.4403530000709,870.1214212998748,870.4601322000381,None,None,up,1,1.4072522998321801,869.1888404998463,None,None,None,,,,,,,klxufm,001,0,fr,2022-05-09_17h40.48.032,3-AFC_adaptive_staircase_mess,2022.1.1,None,
,,,,,8,0,8,0,6,0,6,0,,,,,,,,,,,,,,,,left,500,-10,2.259279721874613e-05,-1,0,-1,-10,872.1505548665921,None,872.1338881999254,872.4545092000626,873.123100799974,873.4577641999349,874.1224950999022,874.4586604000069,up,0,2.6540682001505047,872.163928899914,None,874.6929852999747,None,,,,,,,klxufm,001,0,fr,2022-05-09_17h40.48.032,3-AFC_adaptive_staircase_mess,2022.1.1,None,
,,,,,8,0,8,0,7,0,7,0,,,,,,,,,,,,,,,,up,500,-5,4.017630610928089e-05,1,1,1,5,877.3766930667373,None,876.3258654000238,876.6613926000427,877.3262477000244,877.6692941999063,None,None,up,1,1.6582469998393208,876.3922190999147,None,None,None,,,,,,,klxufm,001,0,fr,2022-05-09_17h40.48.032,3-AFC_adaptive_staircase_mess,2022.1.1,None,
,,,,,8,0,8,0,8,0,8,0,,,,,,,,,,,,,,,,right,500,-5,4.017630610928089e-05,1,1,1,5,881.6168578665859,None,879.564559499966,879.8984375,880.5640249999706,880.8959873998538,881.5653093999717,881.9103568999562,right,1,2.527872300008312,879.6344242000487,None,882.1385285998695,None,,,,,,,klxufm,001,0,fr,2022-05-09_17h40.48.032,3-AFC_adaptive_staircase_mess,2022.1.1,None,
,,,,,8,0,8,0,9,0,9,0,,,,,,,,,,,,,,,,right,500,-15,1.2704863527746532e-05,-1,2,-1,-5.0,885.718687966528,None,883.6701453998685,883.9979274000507,884.6681590999942,885.0036901999265,885.6684379000217,886.0098172998987,right,1,2.5875180000439286,883.7351510999724,None,886.236737200059,None,,,,,,,klxufm,001,0,fr,2022-05-09_17h40.48.032,3-AFC_adaptive_staircase_mess,2022.1.1,None,
,,,,,8,0,8,0,10,0,10,0,,,,,,,,,,,,,,,,right,500,-15,1.2704863527746532e-05,-1,2,-1,-5.0,889.8918348665504,None,887.8668648998719,888.2059964998625,888.8389168998692,889.1720720999874,889.8398138999473,890.1739842998795,right,1,2.7003072001971304,887.8943375998642,None,890.4104398998898,None,,,,,,,klxufm,001,0,fr,2022-05-09_17h40.48.032,3-AFC_adaptive_staircase_mess,2022.1.1,None,
,,,,,8,0,8,0,11,0,11,0,,,,,,,,,,,,,,,,up,500,-20.0,7.1444697925555186e-06,-1,2,-1,-5.0,893.1596395667332,None,892.1082534999587,892.4445720999502,893.1098435998429,893.4508658000268,None,None,left,0,1.4769882999826223,892.1751468000002,None,None,None,,,,,,,klxufm,001,0,fr,2022-05-09_17h40.48.032,3-AFC_adaptive_staircase_mess,2022.1.1,None,
,,,,,8,0,8,0,12,0,12,0,,,,,,,,,,,,,,,,up,500,-17.5,9.52730358981624e-06,1,3,1,2.5,896.2329280665765,None,895.1835435000248,895.5137277999893,896.1816598998848,896.5178600999061,897.1885829998646,897.5168939998839,up,1,2.976381099782884,895.2179769000504,None,897.7202615998685,None,,,,,,,klxufm,001,0,fr,2022-05-09_17h40.48.032,3-AFC_adaptive_staircase_mess,2022.1.1,None,
,,,,,8,0,8,0,13,0,13,0,,,,,,,,,,,,,,,,right,500,-17.5,9.52730358981624e-06,1,3,1,2.5,901.769430466524,None,899.7155799998436,900.0516143999994,900.7175457000267,901.0497198998928,901.71925799991,902.0499309999868,right,1,2.4905644999817014,899.783242699923,None,902.2620959000196,None,,,,,,,klxufm,001,0,fr,2022-05-09_17h40.48.032,3-AFC_adaptive_staircase_mess,2022.1.1,None,
,,,,,8,0,8,0,14,0,14,0,,,,,,,,,,,,,,,,up,500,-22.5,5.357596526188035e-06,-1,4,-1,-5.0,904.8391071665721,None,903.7857582999859,904.1232815999538,904.7888279999606,905.1288687998895,905.7870286998805,906.1226168998983,right,0,2.4044512999244034,903.8539927999955,None,None,None,,,,,,,klxufm,001,0,fr,2022-05-09_17h40.48.032,3-AFC_adaptive_staircase_mess,2022.1.1,None,
,,,,,8,0,8,0,15,0,15,0,,,,,,,,,,,,,,,,right,500,-20.0,7.1444697925555186e-06,1,5,1,2.5,909.8454897665108,None,907.7908725999296,908.1277073000092,908.7934607998468,909.1282136999071,909.7938534999266,910.1070762998424,up,0,2.399752299999818,907.858581099892,None,None,None,,,,,,,klxufm,001,0,fr,2022-05-09_17h40.48.032,3-AFC_adaptive_staircase_mess,2022.1.1,None,
,,,,,8,0,8,0,16,0,16,0,,,,,,,,,,,,,,,,up,500,-17.5,9.52730358981624e-06,1,5,1,2.5,912.8164082666083,913.0456916000694,911.7655137998518,912.0995747998822,912.7685304998886,913.1056729999837,913.7655469998717,914.1030927998945,right,0,2.392568900017068,911.8342686998658,None,None,None,,,,,,,klxufm,001,0,fr,2022-05-09_17h40.48.032,3-AFC_adaptive_staircase_mess,2022.1.1,None,
,,,,,8,0,8,0,17,0,17,0,,,,,,,,,,,,,,,,up,500,-15.0,1.2704863527746532e-05,1,5,1,2.5,916.7754990666328,None,915.7374166999944,916.0697610999923,916.7301922999322,917.0700924000703,917.7322547000367,918.0683214999735,left,0,2.55414230003953,915.8004834998865,None,918.3067280000541,None,,,,,,,klxufm,001,0,fr,2022-05-09_17h40.48.032,3-AFC_adaptive_staircase_mess,2022.1.1,None,
,,,,,8,0,8,0,18,0,18,0,,,,,,,,,,,,,,,,up,500,-12.5,1.6942207806960138e-05,1,5,1,2.5,920.92336526659,None,919.8612583999056,920.2066687999759,920.8732236998621,921.2134505999275,921.8726263998542,922.2090521999635,up,1,2.7854328001849353,919.9209960999433,None,922.4431646000594,None,,,,,,,klxufm,001,0,fr,2022-05-09_17h40.48.032,3-AFC_adaptive_staircase_mess,2022.1.1,None,
,,,,,8,0,8,0,19,0,19,0,,,,,,,,,,,,,,,,right,500,-12.5,1.6942207806960138e-05,1,5,1,2.5,926.2660740665781,None,924.2109051998705,924.5449735999573,925.2094498998486,925.54475250002,926.213924099924,926.5546927999239,up,0,2.4801920000463724,924.2739788999315,None,926.7864119000733,None,,,,,,,klxufm,001,0,fr,2022-05-09_17h40.48.032,3-AFC_adaptive_staircase_mess,2022.1.1,None,
,,,,,8,0,8,0,20,0,20,0,,,,,,,,,,,,,,,,left,500,-10.0,2.259279721874613e-05,1,5,1,2.5,928.334123566576,None,928.2813299000263,928.6151498998515,929.283094599843,929.6149820999708,930.28621749999,930.6127502999734,right,0,2.576963600004092,928.3530486000236,None,930.8282369000372,None,,,,,,,klxufm,001,0,fr,2022-05-09_17h40.48.032,3-AFC_adaptive_staircase_mess,2022.1.1,None,
,,,,,8,0,8,0,21,0,21,0,,,,,,,,,,,,,,,,left,500,-7.5,3.0127979303717903e-05,1,5,1,2.5,932.5015080667256,None,932.4512668999378,932.792406699853,933.4673524000682,933.786592700053,934.4556889999658,934.7867910000496,up,0,2.394804800162092,932.519339799881,None,None,None,,,,,,,klxufm,001,0,fr,2022-05-09_17h40.48.032,3-AFC_adaptive_staircase_mess,2022.1.1,None,
,,,,,8,0,8,0,22,0,22,0,,,,,,,,,,,,,,,,up,500,-5.0,4.017630610928089e-05,1,5,1,2.5,937.4713069666798,None,936.4210922999773,936.7590606999584,937.4204440000467,937.7625177998561,None,None,up,1,1.84968340001069,936.4881873999257,None,None,None,,,,,,,klxufm,001,0,fr,2022-05-09_17h40.48.032,3-AFC_adaptive_staircase_mess,2022.1.1,None,
,,,,,8,0,8,0,23,0,23,0,,,,,,,,,,,,,,,,up,500,-5.0,4.017630610928089e-05,1,5,1,2.5,940.9106052665195,None,939.8723395999987,940.19392780005,940.8594730000477,941.173723799875,941.8650768999942,942.1958522999194,right,0,2.5962158998008817,939.9024833999574,None,942.435445100069,None,,,,,,,klxufm,001,0,fr,2022-05-09_17h40.48.032,3-AFC_adaptive_staircase_mess,2022.1.1,None,
,,,,,8,0,8,0,24,0,24,0,,,,,,,,,,,,,,,,right,500,-2.5,5.357596526188033e-05,1,5,1,2.5,946.0347160667336,None,944.0002983999439,944.3337777999695,945.0025410000235,945.3353617000394,945.9897966000717,946.3353011999279,right,1,2.4654534000437707,944.0649200999178,None,946.5388217000291,None,,,,,,,klxufm,001,0,fr,2022-05-09_17h40.48.032,3-AFC_adaptive_staircase_mess,2022.1.1,None,
,,,,,8,0,8,0,25,0,25,0,,,,,,,,,,,,,,,,up,500,-2.5,5.357596526188033e-05,1,5,1,2.5,949.0868153665836,949.3118167000357,948.0298313999083,948.3686842999887,949.0366545999423,949.3742455998436,None,None,up,1,1.597081599989906,948.1022047998849,None,None,None,,,,,,,klxufm,001,0,fr,2022-05-09_17h40.48.032,3-AFC_adaptive_staircase_mess,2022.1.1,None,
,,,,,8,0,8,0,26,0,26,0,,,,,,,,,,,,,,,,left,500,-7.5,3.0127979303717903e-05,-1,6,-1,-5.0,951.2885154665603,None,951.2386608999223,951.5745796000119,952.2385755998548,952.5704906999599,953.2388202999718,953.5749248999637,up,0,3.0650281000416726,951.3047247999348,None,953.80895039998,None,,,,,,,klxufm,001,0,fr,2022-05-09_17h40.48.032,3-AFC_adaptive_staircase_mess,2022.1.1,None,
,,,,,9,0,9,0,0,0,0,0,,,,,,,,,,,,,[],[],10,right,250,30,0.005296268625886445,0,0,-1,10,964.0347190665236,964.2599539998919,961.982421600027,962.3164848999586,962.9808642000426,963.3233348999638,963.9843118998688,964.3245013998821,right,1,2.4165590000338852,962.0496890000068,None,None,None,ù,6.064069899963215,955.4423865000717,None,955.4423865000717,None,klxufm,001,0,fr,2022-05-09_17h40.48.032,3-AFC_adaptive_staircase_mess,2022.1.1,None,
,,,,,9,0,9,0,1,0,1,0,,,,,,,,,,,,,,,,left,250,30,0.005296268625886445,0,0,-1,10,966.0365278665597,None,965.9861432998441,966.3290164999198,None,None,None,None,left,1,0.6209032000042498,966.053101999918,None,None,None,,,,,,,klxufm,001,0,fr,2022-05-09_17h40.48.032,3-AFC_adaptive_staircase_mess,2022.1.1,None,
,,,,,9,0,9,0,2,0,2,0,,,,,,,,,,,,,,,,up,250,10,0.0005296268625886444,-1,0,-1,-10,969.2401207665137,None,968.1845742000733,968.5233098999597,969.1894489999395,969.5286830998957,None,None,up,1,1.5756407000590116,968.2509838000406,None,None,None,,,,,,,klxufm,001,0,fr,2022-05-09_17h40.48.032,3-AFC_adaptive_staircase_mess,2022.1.1,None,
,,,,,9,0,9,0,3,0,3,0,,,,,,,,,,,,,,,,left,250,10,0.0005296268625886444,-1,0,-1,-10,971.4125930665216,971.6474890999962,971.360817699926,971.6731767000165,None,None,None,None,left,1,0.5715091999154538,971.4307570999954,None,None,None,,,,,,,klxufm,001,0,fr,2022-05-09_17h40.48.032,3-AFC_adaptive_staircase_mess,2022.1.1,None,
,,,,,9,0,9,0,4,0,4,0,,,,,,,,,,,,,,,,up,250,0,0.0001674827195789138,-1,0,-1,-10,974.5842718666574,None,973.5307320998982,973.8627205998637,974.5313593999017,974.861047500046,None,None,up,1,1.4891974001657218,973.601270099869,None,None,None,,,,,,,klxufm,001,0,fr,2022-05-09_17h40.48.032,3-AFC_adaptive_staircase_mess,2022.1.1,None,
,,,,,9,0,9,0,5,0,5,0,,,,,,,,,,,,,,,,up,250,0,0.0001674827195789138,-1,0,-1,-10,977.6436227665438,None,976.5969936999027,976.9315190999769,977.5946646998636,977.938078999985,None,None,up,1,1.4175046000164002,976.6648444999009,None,None,None,,,,,,,klxufm,001,0,fr,2022-05-09_17h40.48.032,3-AFC_adaptive_staircase_mess,2022.1.1,None,
,,,,,9,0,9,0,6,0,6,0,,,,,,,,,,,,,,,,right,250,-10,5.296268625886443e-05,-1,0,-1,-10,None,None,979.5993577998597,979.9327241999563,980.5847244666113,None,None,None,left,0,0.8938563999254256,979.668175800005,None,None,None,,,,,,,klxufm,001,0,fr,2022-05-09_17h40.48.032,3-AFC_adaptive_staircase_mess,2022.1.1,None,
,,,,,9,0,9,0,7,0,7,0,,,,,,,,,,,,,,,,up,250,-5,9.418245447449e-05,1,1,1,5,983.123084166615,983.3446545000188,982.0703213999514,982.407051499933,983.0726927998476,983.4085192000493,None,None,up,1,1.5923049000557512,982.1383050999139,None,None,None,,,,,,,klxufm,001,0,fr,2022-05-09_17h40.48.032,3-AFC_adaptive_staircase_mess,2022.1.1,None,
,,,,,9,0,9,0,8,0,8,0,,,,,,,,,,,,,,,,left,250,-5,9.418245447449e-05,1,1,1,5,985.2861211666061,None,985.2694544999395,985.6078296999913,986.2449054999743,986.5807650999632,987.2438647998497,987.579992499901,left,1,2.4281333999242634,985.3026771000586,None,None,None,,,,,,,klxufm,001,0,fr,2022-05-09_17h40.48.032,3-AFC_adaptive_staircase_mess,2022.1.1,None,
,,,,,9,0,9,0,9,0,9,0,,,,,,,,,,,,,,,,left,250,-15,2.9783107176450517e-05,-1,2,-1,-5.0,989.2986414665977,None,989.2472591998521,989.5862014999148,990.2483520999085,990.5711637998465,991.2499255998991,991.5794426000211,left,1,2.557059000013396,989.3166563999839,None,991.8149009998888,None,,,,,,,klxufm,001,0,fr,2022-05-09_17h40.48.032,3-AFC_adaptive_staircase_mess,2022.1.1,None,
,,,,,9,0,9,0,10,0,10,0,,,,,,,,,,,,,,,,right,250,-15,2.9783107176450517e-05,-1,2,-1,-5.0,995.4363052666342,995.6581462998874,993.3753545000218,993.7138701998629,994.3886869000271,994.7178104000632,995.3848057999276,995.7219223000575,left,0,2.4354245997965336,993.4403545998503,None,None,None,,,,,,,klxufm,001,0,fr,2022-05-09_17h40.48.032,3-AFC_adaptive_staircase_mess,2022.1.1,None,
,,,,,9,0,9,0,11,0,11,0,,,,,,,,,,,,,,,,up,250,-12.5,3.971641173621407e-05,1,3,1,2.5,998.4383439666747,None,997.4123468999751,997.753101099981,998.3878796999343,998.7250934999902,999.3884280999191,999.7231739999261,right,0,2.588616699911654,997.4459426000249,None,999.9572558999062,None,,,,,,,klxufm,001,0,fr,2022-05-09_17h40.48.032,3-AFC_adaptive_staircase_mess,2022.1.1,None,
,,,,,9,0,9,0,12,0,12,0,,,,,,,,,,,,,,,,right,250,-10.0,5.296268625886443e-05,1,3,1,2.5,1003.5827222667324,None,1001.5543003999628,1001.8953170999885,1002.5600089998916,1002.9056237998884,1003.5660556000657,1003.8982700000051,right,1,2.3646473998669535,1001.6216370000038,None,None,None,,,,,,,klxufm,001,0,fr,2022-05-09_17h40.48.032,3-AFC_adaptive_staircase_mess,2022.1.1,None,
,,,,,9,0,9,0,13,0,13,0,,,,,,,,,,,,,,,,left,250,-10.0,5.296268625886443e-05,1,3,1,2.5,1005.5483247666309,None,1005.4961685000453,1005.8373583999928,1006.4941453000065,None,None,None,left,1,1.1566508000250906,1005.5654227000196,None,None,None,,,,,,,klxufm,001,0,fr,2022-05-09_17h40.48.032,3-AFC_adaptive_staircase_mess,2022.1.1,None,
,,,,,9,0,9,0,14,0,14,0,,,,,,,,,,,,,,,,up,250,-15.0,2.9783107176450517e-05,-1,4,-1,-5.0,1009.2656238666425,None,1008.2308751000091,1008.5680788999889,1009.2207484999672,1009.5640356000513,1010.2367707998492,1010.5707694999874,up,1,2.487591299926862,1008.2982633998618,None,1010.8047374999151,None,,,,,,,klxufm,001,0,fr,2022-05-09_17h40.48.032,3-AFC_adaptive_staircase_mess,2022.1.1,None,
,,,,,9,0,9,0,15,0,15,0,,,,,,,,,,,,,,,,right,250,-15.0,2.9783107176450517e-05,-1,4,-1,-5.0,1014.3244058667372,None,1012.3016844000667,1012.6347447000444,1013.2970495000482,1013.6370113999583,1014.3077392000705,1014.6313129998744,up,0,11.152393399970606,1012.3699568000156,None,1014.8645132000092,None,,,,,,,klxufm,001,0,fr,2022-05-09_17h40.48.032,3-AFC_adaptive_staircase_mess,2022.1.1,None,
,,,,,9,0,9,0,16,0,16,0,,,,,,,,,,,,,,,,left,250,-12.5,3.971641173621407e-05,1,5,1,2.5,1025.0875316665663,None,1025.0388129998464,1025.3836095000152,1026.0374706999864,1026.3543183999136,1027.0322558998596,1027.3740914999507,left,1,2.375211500097066,1025.0999654000625,None,None,None,,,,,,,klxufm,001,0,fr,2022-05-09_17h40.48.032,3-AFC_adaptive_staircase_mess,2022.1.1,None,
,,,,,9,0,9,0,17,0,17,0,,,,,,,,,,,,,,,,up,250,-12.5,3.971641173621407e-05,1,5,1,2.5,1030.0638010665464,None,1029.0115568998735,1029.3479138999246,1030.0138495999854,1030.338536299998,1031.0171805999707,1031.34969679988,right,0,2.412412300007418,1029.0784074000549,None,1031.5329991665824,None,,,,,,,klxufm,001,0,fr,2022-05-09_17h40.48.032,3-AFC_adaptive_staircase_mess,2022.1.1,None,
,,,,,9,0,9,0,18,0,18,0,,,,,,,,,,,,,,,,right,250,-10.0,5.296268625886443e-05,1,5,1,2.5,1035.0691561666938,1035.3003499999177,1033.0137769998983,1033.3322830998804,1034.0189415998757,1034.3522226999048,1035.0212250999175,1035.3660015000496,left,0,2.454462199937552,1033.0848586000502,None,1035.5604278000537,None,,,,,,,klxufm,001,0,fr,2022-05-09_17h40.48.032,3-AFC_adaptive_staircase_mess,2022.1.1,None,
,,,,,9,0,9,0,19,0,19,0,,,,,,,,,,,,,,,,up,250,-7.5,7.06268772311377e-05,1,5,1,2.5,1038.07987516659,1038.3029429998714,1037.038304900052,1037.3865495999344,1038.0632084999233,1038.4033857998438,None,None,up,1,1.3664241000078619,1037.1002010998782,None,None,None,,,,,,,klxufm,001,0,fr,2022-05-09_17h40.48.032,3-AFC_adaptive_staircase_mess,2022.1.1,None,
,,,,,9,0,9,0,20,0,20,0,,,,,,,,,,,,,,,,right,250,-7.5,7.06268772311377e-05,1,5,1,2.5,1042.0208826666387,None,1039.9785802999977,1040.2991833998822,1041.0023995998781,1041.3305666998494,1042.004215999972,1042.316474699881,right,1,2.3963879998773336,1040.037963599898,None,None,None,,,,,,,klxufm,001,0,fr,2022-05-09_17h40.48.032,3-AFC_adaptive_staircase_mess,2022.1.1,None,
,,,,,9,0,9,0,21,0,21,0,,,,,,,,,,,,,,,,right,250,-12.5,3.971641173621407e-05,-1,6,-1,-5.0,1045.9754690665907,None,1043.9371849999297,1044.2805790998973,1044.9268263999838,1045.2637700999621,1045.927811899921,1046.268384499941,left,0,2.336222300073132,1043.970090799965,None,None,None,,,,,,,klxufm,001,0,fr,2022-05-09_17h40.48.032,3-AFC_adaptive_staircase_mess,2022.1.1,None,
,,,,,10,0,10,0,0,0,0,0,,,,,,,,,,,,,[],[],10,right,125,30,0.02285440948074376,0,0,-1,10,1051.0510589667285,None,1049.0146210999228,1049.333262,1049.9934376999736,1050.3067675000057,1051.0041276998818,1051.3327951000538,right,1,2.5252787999343127,1049.0451527000405,None,1051.5409423999954,None,$,1.1123266001231968,1047.4017958999611,None,1047.4017958999611,None,klxufm,001,0,fr,2022-05-09_17h40.48.032,3-AFC_adaptive_staircase_mess,2022.1.1,None,
,,,,,10,0,10,0,1,0,1,0,,,,,,,,,,,,,,,,up,125,30,0.02285440948074376,0,0,-1,10,1054.1077056665129,None,1053.0749166999012,1053.4107546000741,1054.0910389998462,1054.4098435998894,None,None,up,1,1.7147629999089986,1053.1357034998946,None,None,None,,,,,,,klxufm,001,0,fr,2022-05-09_17h40.48.032,3-AFC_adaptive_staircase_mess,2022.1.1,None,
,,,,,10,0,10,0,2,0,2,0,,,,,,,,,,,,,,,,left,125,10,0.002285440948074376,-1,0,-1,-10,1056.4212771666391,None,1056.3741067000665,1056.7175725998823,None,None,None,None,left,1,0.5443206999916583,1056.4335433000233,None,None,None,,,,,,,klxufm,001,0,fr,2022-05-09_17h40.48.032,3-AFC_adaptive_staircase_mess,2022.1.1,None,
,,,,,10,0,10,0,3,0,3,0,,,,,,,,,,,,,,,,right,125,10,0.002285440948074376,-1,0,-1,-10,1060.5560156666363,None,1058.5201608999632,1058.8371766000055,1059.5039003998972,1059.8387865000404,1060.5076758000068,1060.8517847999465,right,1,2.375029999995604,1058.5544310999103,None,None,None,,,,,,,klxufm,001,0,fr,2022-05-09_17h40.48.032,3-AFC_adaptive_staircase_mess,2022.1.1,None,
,,,,,10,0,10,0,4,0,4,0,,,,,,,,,,,,,,,,up,125,0,0.000722719885372964,-1,0,-1,-10,1063.4998084665897,None,1062.457600499969,1062.7763368000742,1063.4522857998963,1063.7595502999611,None,None,up,1,1.6752523998729885,1062.5189572998788,None,None,None,,,,,,,klxufm,001,0,fr,2022-05-09_17h40.48.032,3-AFC_adaptive_staircase_mess,2022.1.1,None,
,,,,,10,0,10,0,5,0,5,0,,,,,,,,,,,,,,,,right,125,0,0.000722719885372964,-1,0,-1,-10,1067.7601193665216,None,1065.7256688000634,1066.0673688000534,1066.7359014998656,1067.0729815999512,1067.7130255000666,1068.0491436000448,right,1,2.686542899813503,1065.795094500063,None,1068.2911689998582,None,,,,,,,klxufm,001,0,fr,2022-05-09_17h40.48.032,3-AFC_adaptive_staircase_mess,2022.1.1,None,
,,,,,10,0,10,0,6,0,6,0,,,,,,,,,,,,,,,,right,125,-10,0.0002285440948074376,-1,0,-1,-10,1072.0127460666156,None,1069.9700607999694,1070.305385200074,1070.9827934999485,1071.295678399969,1071.996079399949,1072.3065812999848,left,0,2.582487399922684,1070.0278425000142,None,1072.550780300051,None,,,,,,,klxufm,001,0,fr,2022-05-09_17h40.48.032,3-AFC_adaptive_staircase_mess,2022.1.1,None,
,,,,,10,0,10,0,7,0,7,0,,,,,,,,,,,,,,,,right,125,-5,0.00040641525808204974,1,1,1,5,1076.176109866534,None,1074.1154433998745,1074.4486175000202,1075.1415869998746,1075.4796706000343,1076.126886999933,1076.443485100055,right,1,2.3707591998390853,1074.1759494999424,None,None,None,,,,,,,klxufm,001,0,fr,2022-05-09_17h40.48.032,3-AFC_adaptive_staircase_mess,2022.1.1,None,
,,,,,10,0,10,0,8,0,8,0,,,,,,,,,,,,,,,,left,125,-5,0.00040641525808204974,1,1,1,5,1078.1306156665707,None,1078.0829048000742,1078.4031380999368,None,None,None,None,left,1,0.7358533998485655,1078.146122700069,None,None,None,,,,,,,klxufm,001,0,fr,2022-05-09_17h40.48.032,3-AFC_adaptive_staircase_mess,2022.1.1,None,
,,,,,10,0,10,0,9,0,9,0,,,,,,,,,,,,,,,,left,125,-15,0.00012851978913844324,-1,2,-1,-5.0,1080.4148712666395,None,1080.3982045999728,1080.710791700054,1081.40893470007,1081.7576295998879,1082.3946388999466,1082.7330763000064,right,0,2.484001599950716,1080.430540899979,None,1082.93337276654,None,,,,,,,klxufm,001,0,fr,2022-05-09_17h40.48.032,3-AFC_adaptive_staircase_mess,2022.1.1,None,
,,,,,10,0,10,0,10,0,10,0,,,,,,,,,,,,,,,,right,125,-12.5,0.00017138389327322524,1,3,1,2.5,1086.4829307667135,None,1084.4302566999104,1084.7489328000229,1085.4467443998437,1085.7644996999297,1086.4312149998732,1086.745846600039,left,0,2.416236200137064,1084.4978809000459,None,None,None,,,,,,,klxufm,001,0,fr,2022-05-09_17h40.48.032,3-AFC_adaptive_staircase_mess,2022.1.1,None,
,,,,,10,0,10,0,11,0,11,0,,,,,,,,,,,,,,,,up,125,-10.0,0.0002285440948074376,1,3,1,2.5,1089.4785811666554,None,1088.432552699931,1088.7660556999035,1089.4619144999888,1089.8001261998434,1090.4358528999146,1090.7540213998873,up,1,2.44491000007838,1088.5004265999887,None,1090.975389600033,None,,,,,,,klxufm,001,0,fr,2022-05-09_17h40.48.032,3-AFC_adaptive_staircase_mess,2022.1.1,None,
,,,,,10,0,10,0,12,0,12,0,,,,,,,,,,,,,,,,up,125,-10.0,0.0002285440948074376,1,3,1,2.5,1093.5237667665972,1093.7527987000067,1092.4743716998491,1092.8086361999158,1093.4710105999839,1093.8150104999077,1094.4802000999916,1094.8159653998446,right,0,2.3268843998666853,1092.5395567000378,None,None,None,,,,,,,klxufm,001,0,fr,2022-05-09_17h40.48.032,3-AFC_adaptive_staircase_mess,2022.1.1,None,
,,,,,10,0,10,0,13,0,13,0,,,,,,,,,,,,,,,,left,125,-7.5,0.0003047684486200847,1,3,1,2.5,1096.4066894667378,None,1096.3900228000712,1096.7384319999255,1097.375742000062,None,None,None,left,1,0.9267726999241859,1096.4199884999543,None,None,None,,,,,,,klxufm,001,0,fr,2022-05-09_17h40.48.032,3-AFC_adaptive_staircase_mess,2022.1.1,None,
,,,,,10,0,10,0,14,0,14,0,,,,,,,,,,,,,,,,right,125,-7.5,0.0003047684486200847,1,3,1,2.5,1100.9324096665407,None,1098.8777751999442,1099.2072278999258,1099.877316399943,1100.2141277999617,1100.880280500045,1101.210743600037,right,1,2.5126014999113977,1098.9294552998617,None,1101.4478684999049,None,,,,,,,klxufm,001,0,fr,2022-05-09_17h40.48.032,3-AFC_adaptive_staircase_mess,2022.1.1,None,
,,,,,10,0,10,0,15,0,15,0,,,,,,,,,,,,,,,,left,125,-12.5,0.00017138389327322524,-1,4,-1,-5.0,1102.9957972665472,None,1102.9346872000024,1103.2597053998616,1103.9497606998775,1104.2830492998473,1104.9519390000496,None,up,0,2.205379599938169,1103.0130012999289,None,None,None,,,,,,,klxufm,001,0,fr,2022-05-09_17h40.48.032,3-AFC_adaptive_staircase_mess,2022.1.1,None,
,,,,,10,0,10,0,16,0,16,0,,,,,,,,,,,,,,,,left,125,-10.0,0.0002285440948074376,1,5,1,2.5,1106.7548336666698,None,1106.708332600072,1107.0539422999136,1107.719975499902,1108.0547191998921,1108.7222943999805,None,left,1,2.196957200067118,1106.765343300067,None,None,None,,,,,,,klxufm,001,0,fr,2022-05-09_17h40.48.032,3-AFC_adaptive_staircase_mess,2022.1.1,None,
,,,,,10,0,10,0,17,0,17,0,,,,,,,,,,,,,,,,left,125,-10.0,0.0002285440948074376,1,5,1,2.5,1110.543094366618,None,1110.491356200073,1110.8271232999396,1111.4888770999387,1111.829781099921,1112.4963320000097,1112.8235037999693,right,0,3.3303022000472993,1110.5595187,None,1113.0608955000062,None,,,,,,,klxufm,001,0,fr,2022-05-09_17h40.48.032,3-AFC_adaptive_staircase_mess,2022.1.1,None,
,,,,,10,0,10,0,18,0,18,0,,,,,,,,,,,,,,,,up,125,-7.5,0.0003047684486200847,1,5,1,2.5,1116.4477764666701,None,1115.3964521999005,1115.7241960000247,1116.4003564000595,1116.7420051998924,None,None,up,1,1.8186201001517475,1115.4630162999965,None,None,None,,,,,,,klxufm,001,0,fr,2022-05-09_17h40.48.032,3-AFC_adaptive_staircase_mess,2022.1.1,None,
,,,,,10,0,10,0,19,0,19,0,,,,,,,,,,,,,,,,left,125,-7.5,0.0003047684486200847,1,5,1,2.5,1118.8483766667234,None,1118.7979136998765,1119.1117713998538,1119.8004062999971,1120.1171087999828,1120.8001963999122,1121.1351385999005,up,0,4.767874900018796,1118.8660428998992,None,1121.368519899901,None,,,,,,,klxufm,001,0,fr,2022-05-09_17h40.48.032,3-AFC_adaptive_staircase_mess,2022.1.1,None,
,,,,,10,0,10,0,20,0,20,0,,,,,,,,,,,,,,,,up,125,-5.0,0.00040641525808204974,1,5,1,2.5,1126.1896732666685,None,1125.1237604999915,1125.4384538999293,1126.1265990000684,1126.4477705999743,None,None,left,0,1.7577692000195384,1125.1886406999547,None,None,None,,,,,,,klxufm,001,0,fr,2022-05-09_17h40.48.032,3-AFC_adaptive_staircase_mess,2022.1.1,None,
,,,,,10,0,10,0,21,0,21,0,,,,,,,,,,,,,,,,left,125,-2.5,0.000541963457010602,1,5,1,2.5,1128.522396466524,None,1128.4735081999097,1128.8142597998958,1129.4765888999682,1129.8140298998915,1130.4789954998996,1130.8128086999059,up,0,2.552374000195414,1128.5386512998957,None,1131.0478014999535,None,,,,,,,klxufm,001,0,fr,2022-05-09_17h40.48.032,3-AFC_adaptive_staircase_mess,2022.1.1,None,
,,,,,10,0,10,0,22,0,22,0,,,,,,,,,,,,,,,,left,125,0.0,0.000722719885372964,1,5,1,2.5,1132.6619067665345,1132.8946215999313,1132.6102678000461,1132.9253950000275,1133.6140072999988,1133.9473818000406,1134.6152468998916,1134.948398299981,right,0,2.5058706998825073,1132.680102699902,None,1135.1849696000572,None,,,,,,,klxufm,001,0,fr,2022-05-09_17h40.48.032,3-AFC_adaptive_staircase_mess,2022.1.1,None,
,,,,,10,0,10,0,23,0,23,0,,,,,,,,,,,,,,,,left,125,2.5,0.0009637624565954683,1,5,1,2.5,1136.7669462667002,None,1136.7168612000532,1137.0303015999962,1137.7189807998948,1138.0527137999889,1138.7188921000343,None,up,0,1.954647900070995,1136.7837722999975,None,None,None,,,,,,,klxufm,001,0,fr,2022-05-09_17h40.48.032,3-AFC_adaptive_staircase_mess,2022.1.1,None,
,,,,,10,0,10,0,24,0,24,0,,,,,,,,,,,,,,,,up,125,5.0,0.0012851978913844323,1,5,1,2.5,1141.3104315666171,1141.5412614999805,1140.2439685999416,1140.588517999975,1141.25809379993,1141.5577789000235,None,None,up,1,1.8125260998494923,1140.301890200004,None,None,None,,,,,,,klxufm,001,0,fr,2022-05-09_17h40.48.032,3-AFC_adaptive_staircase_mess,2022.1.1,None,
,,,,,10,0,10,0,25,0,25,0,,,,,,,,,,,,,,,,right,125,5.0,0.0012851978913844323,1,5,1,2.5,1145.6812347665584,None,1143.625627500005,1143.9611654998735,1144.6291757998988,1144.9566160000395,1145.6312209998723,1145.9690560000017,right,1,2.3589735000859946,1143.6914464000147,None,None,None,,,,,,,klxufm,001,0,fr,2022-05-09_17h40.48.032,3-AFC_adaptive_staircase_mess,2022.1.1,None,
,,,,,10,0,10,0,26,0,26,0,,,,,,,,,,,,,,,,up,125,0.0,0.000722719885372964,-1,6,-1,-5.0,1148.608814466574,None,1147.5617843000218,1147.898662299849,1148.5596859999932,1148.8793247998692,None,None,up,1,1.7817746000364423,1147.628656399902,None,None,None,,,,,,,klxufm,001,0,fr,2022-05-09_17h40.48.032,3-AFC_adaptive_staircase_mess,2022.1.1,None,
,,,,,,,,,,,,,,,,,,,,,,,,,,,,,,,,,,,,,,,,,,,,,,,,,,,ù,1.0405864999629557,1150.4978173999116,None,1150.4978173999116,None,,,,,,,,,
