tTrials.thisRepN,tTrials.thisTrialN,tTrials.thisN,tTrials.thisIndex,blocks.thisRepN,blocks.thisTrialN,blocks.thisN,blocks.thisIndex,trials.thisRepN,trials.thisTrialN,trials.thisN,trials.thisIndex,tStart_text.started,tStart_text.stopped,Prediction,practice_Frequency,practice_Level,practice_Psychopy_Level,practice_isCatchTrial,Practice_trial_detection,practice_Cue_Delays,practice_Cue_Frequencies,practice_Interval,practice_Cue_Intensities,tCue_visual_cue.started,tCue_visual_cue.stopped,tProbe_visual_cue.started,tProbe_visual_cue.stopped,tFeedback.keys,tFeedback.corr,tFeedback.rt,tFeedback.started,tFeedback.stopped,tToo_late.keys,tToo_late.corr,tToo_early.keys,tToo_early.corr,more_instructions.started,more_instructions.stopped,readyy.keys,readyy.rt,readyy.started,readyy.stopped,txt_rhythm.started,txt_rhythm.stopped,sound_1.started,sound_1.stopped,sound_2.started,sound_2.stopped,sound_3.started,sound_3.stopped,sound_4.started,sound_4.stopped,cross.started,cross.stopped,sound_5.started,sound_5.stopped,circle.started,circle.stopped,rhythm_ready.keys,rhythm_ready.rt,rhythm_ready.started,rhythm_ready.stopped,rhytm_ready_txt.started,rhytm_ready_txt.stopped,txt_freq.started,txt_freq.stopped,sound_6.started,sound_6.stopped,sound_7.started,sound_7.stopped,sound_8.started,sound_8.stopped,sound_9.started,sound_9.stopped,cross_2.started,cross_2.stopped,sound_10.started,sound_10.stopped,circle_2.started,circle_2.stopped,freq_ready.keys,freq_ready.rt,freq_ready.started,freq_ready.stopped,freq_ready_txt.started,freq_ready_txt.stopped,txt_freq_2.started,txt_freq_2.stopped,sound_11.started,sound_11.stopped,sound_12.started,sound_12.stopped,sound_13.started,sound_13.stopped,sound_14.started,sound_14.stopped,cross_3.started,cross_3.stopped,sound_15.started,sound_15.stopped,circle_3.started,circle_3.stopped,freq_ready_2.keys,freq_ready_2.rt,freq_ready_2.started,freq_ready_2.stopped,freq_ready_txt_2.started,freq_ready_txt_2.stopped,txt_freq_3.started,txt_freq_3.stopped,sound_16.started,sound_16.stopped,sound_17.started,sound_17.stopped,sound_18.started,sound_18.stopped,sound_19.started,sound_19.stopped,cross_4.started,cross_4.stopped,sound_20.started,sound_20.stopped,circle_4.started,circle_4.stopped,freq_ready_txt_3.started,freq_ready_txt_3.stopped,tStart_text_2.started,tStart_text_2.stopped,this_trial_is.started,this_trial_is.stopped,Frequency,Level,Psychopy_Level,Real trial detection,Cue Delays,Cue Frequencies,Interval,Cue Intensities,Catch trial,cue_visual_cue.started,cue_visual_cue.stopped,probe_visual_cue.started,probe_visual_cue.stopped,feedback.keys,feedback.corr,feedback.started,feedback.stopped,answer_too_late.keys,answer_too_late.corr,answer_too_early.keys,answer_too_early.corr,feedback.rt,Catch trial answer,answer_too_early.rt,Audiogram_both,Audiogram_none,Audiogram_time,Audiogram_frequency,goodbye_text.started,goodbye_text.stopped,key_resp.keys,key_resp.rt,key_resp.started,key_resp.stopped,participant,session,Language (english or french),Skip training? (1 for yes),Resume previous experiment,date,expName,psychopyVersion,frameRate,
0,0,0,0,,,,,,,,,18.942911899997853,None,both,1000,30,0.0013930605843148849,False,1,"[0.6437437606660956, 0.6437437606660956, 0.6437437606660956, 0.6437437606660956]","[396.85026299205003, 500.00000000000017, 629.9605249474367, 793.7005259840998]",Major_3rd,"[30, 30, 30, 30]",32.86700910003856,35.7176287000766,35.7176287000766,36.91836260003038,['space'],1,[0.5612838998204097],35.7176287000766,37.585647300002165,None,1,None,1,,,,,,,,,,,,,,,,,,,,,,,,,,,,,,,,,,,,,,,,,,,,,,,,,,,,,,,,,,,,,,,,,,,,,,,,,,,,,,,,,,,,,,,,,,,,,,,,,,,,,,,,,,,,,,,,,,,,,,,,,,,,,,,,,ddmfvc,001,fr,0,0,2022-05-05_10h34.05.823,Cluster,2022.1.1,36.51984835093601,
1,0,1,0,,,,,,,,,,,both,2500,30,0.002716251657462167,False,1,"[0.6684596386316628, 0.6684596386316628, 0.6684596386316628, 0.6684596386316628]","[3968.502629920499, 3535.533905932738, 3149.802624737183, 2806.1551207734324]",Tone,"[30, 30, 30, 30]",44.4083827000577,47.3557130000554,47.3557130000554,48.57087720010895,['space'],1,[0.6194716998143122],47.3557130000554,49.23834030004218,None,1,None,1,,,,,,,,,,,,,,,,,,,,,,,,,,,,,,,,,,,,,,,,,,,,,,,,,,,,,,,,,,,,,,,,,,,,,,,,,,,,,,,,,,,,,,,,,,,,,,,,,,,,,,,,,,,,,,,,,,,,,,,,,,,,,,,,,ddmfvc,001,fr,0,0,2022-05-05_10h34.05.823,Cluster,2022.1.1,36.51984835093601,
2,0,2,0,,,,,,,,,,,frequency,6000,30,0.003664122665694519,True,1,"[0.798042884041613, 0.7500143129525805, 0.6259386622149036, 0.6971433945804678]","[1190.5507889761495, 1783.8106725040816, 2672.696154421018, 4004.5195625101032]",Perfect_5th,"[30, 30, 30, 30]",53.28561800008174,56.390826000017114,56.390826000017114,57.60471590002999,None,1,,56.390826000017114,58.300569700077176,None,1,None,1,,,,,,,,,,,,,,,,,,,,,,,,,,,,,,,,,,,,,,,,,,,,,,,,,,,,,,,,,,,,,,,,,,,,,,,,,,,,,,,,,,,,,,,,,,,,,,,,,,,,,,,,,,,,,,,,,,,,,,,,,,,,,,,,,ddmfvc,001,fr,0,0,2022-05-05_10h34.05.823,Cluster,2022.1.1,36.51984835093601,
3,0,3,0,,,,,,,,,,,frequency,440,30,0.0023562289915021436,False,1,"[0.7884261210057082, 0.7997026414218071, 0.553363110980414, 0.6233412294258263]","[2217.4610478149766, 1479.9776908465376, 987.7666025122483, 659.2551138257398]",Perfect_5th,"[30, 30, 30, 30]",62.70926440006588,65.77834600000642,65.77834600000642,66.9908825000748,['space'],1,[1.204539599828422],65.77834600000642,67.60900160006713,None,1,None,1,,,,,,,,,,,,,,,,,,,,,,,,,,,,,,,,,,,,,,,,,,,,,,,,,,,,,,,,,,,,,,,,,,,,,,,,,,,,,,,,,,,,,,,,,,,,,,,,,,,,,,,,,,,,,,,,,,,,,,,,,,,,,,,,,ddmfvc,001,fr,0,0,2022-05-05_10h34.05.823,Cluster,2022.1.1,36.51984835093601,
4,0,4,0,,,,,,,,,,,frequency,250,30,0.005296268625886445,True,1,"[0.5359845398677161, 0.5393669801464115, 0.5511126756066554, 0.7041620204564834]","[157.49013123685913, 176.77669529663686, 198.42513149602493, 222.72467953508482]",Tone,"[30, 30, 30, 30]",72.71811880008318,75.28603940003086,75.28603940003086,76.51959020004142,None,1,,75.28603940003086,77.19413860002533,None,1,None,1,,,,,,,,,,,,,,,,,,,,,,,,,,,,,,,,,,,,,,,,,,,,,,,,,,,,,,,,,,,,,,,,,,,,,,,,,,,,,,,,,,,,,,,,,,,,,,,,,,,,,,,,,,,,,,,,,,,,,,,,,,,,,,,,,ddmfvc,001,fr,0,0,2022-05-05_10h34.05.823,Cluster,2022.1.1,36.51984835093601,
,,,,,,,,,,,,,,,,,,,,,,,,,,,,,,,,,,,,,81.31686820008326,None,space,28.146182599826716,81.31686820008326,None,,,,,,,,,,,,,,,,,,,,,,,,,,,,,,,,,,,,,,,,,,,,,,,,,,,,,,,,,,,,,,,,,,,,,,,,,,,,,,,,,,,,,,,,,,,,,,,,,,,,,,,,,,,,,,,,,,,,,,,,,,,ddmfvc,001,fr,0,0,2022-05-05_10h34.05.823,Cluster,2022.1.1,36.51984835093601,
,,,,,,,,,,,,,,,,,,,,,,,,,,,,,,,,,,,,,,,,,,,109.53254580008797,110.53343380009755,111.00905550009338,111.21990150003694,111.48629050009185,None,112.00051199999871,112.2181353000924,112.50966080004582,None,110.89090500003658,112.6913853000151,112.98966410005232,None,112.6913853000151,113.50360400008503,space,1.7127596999052912,113.68671130004805,None,,,,,,,,,,,,,,,,,,,,,,,,,,,,,,,,,,,,,,,,,,,,,,,,,,,,,,,,,,,,,,,,,,,,,,,,,,,,,,,,,,,,,,,,,,,,,,,,,,,,,,,ddmfvc,001,fr,0,0,2022-05-05_10h34.05.823,Cluster,2022.1.1,36.51984835093601,
,,,,,,,,,,,,,,,,,,,,,,,,,,,,,,,,,,,,,,,,,,,,,,,,,,,,,,,,,,,,,,,113.68671130004805,None,115.44768700003624,116.46452900010627,116.92698160005966,None,117.20919040002627,117.42076070001349,117.91615630005253,None,118.32499900000403,118.54424000007566,116.81069130008109,118.60450780007523,118.89779370004544,None,118.60450780007523,119.41500280005857,space,1.3765112998662516,119.62264770001639,None,,,,,,,,,,,,,,,,,,,,,,,,,,,,,,,,,,,,,,,,,,,,,,,,,,,,,,,,,,,,,,,,,,,,,,,,,,,,,,,,,ddmfvc,001,fr,0,0,2022-05-05_10h34.05.823,Cluster,2022.1.1,36.51984835093601,
,,,,,,,,,,,,,,,,,,,,,,,,,,,,,,,,,,,,,,,,,,,,,,,,,,,,,,,,,,,,,,,,,,,,,,,,,,,,,,,,,,,,,119.62264770001639,None,121.03961470001377,122.05456620000768,122.4941016000812,122.71575890004169,123.01276640006108,123.22758610011078,123.49920830008341,123.72687430004589,123.9920276000048,124.21642290009186,122.40225150005426,124.21642290009186,124.48796700005187,124.70716460002586,124.21642290009186,125.03334400011227,space,2.1436349998693913,125.20813400007319,None,,,,,,,,,,,,,,,,,,,,,,,,,,,,,,,,,,,,,,,,,,,,,,,,,,,,,,,,,,,ddmfvc,001,fr,0,0,2022-05-05_10h34.05.823,Cluster,2022.1.1,36.51984835093601,
,,,,0,0,0,0,0,0,0,0,,,none,,,,,,,,,,,,,,,,,,,,,,,,,,,,,,,,,,,,,,,,,,,,,,,,,,,,,,,,,,,,,,,,,,,,,,,,,,,,,,,,,,,,,,,,,,,,,125.20813400007319,None,127.39332600007765,128.4119319000747,128.85815730009926,129.08808100002352,129.14865480008302,None,129.8445635000826,None,130.27236980007729,130.49156100000255,128.7707421000814,130.5483389000874,130.85313720005797,None,130.5483389000874,131.36824350000825,131.5736097000772,None,132.6151151000522,None,150.43603340000845,None,221.71636726306784,2.0,0.00028060910048479797,0,"[0.5150529985201127, 0.6052567573855323, 0.5528107790320261, 0.5005697098495986]","[168.43604516690456, 242.39683186103053, 159.05150562233032, 675.6177524698558]",None,"[7.6093112597021735, 9.0, 8.0, 5.0]",False,151.42178950004745,154.13406930002384,154.13406930002384,155.35503190010786,None,0,3.2118516999762505,4.238666799967177,None,1,None,1,,,,,,,,,,,,,,ddmfvc,001,fr,0,0,2022-05-05_10h34.05.823,Cluster,2022.1.1,36.51984835093601,
,,,,0,0,0,0,1,0,1,0,,,time,,,,,,,,,,,,,,,,,,,,,,,,,,,,,,,,,,,,,,,,,,,,,,,,,,,,,,,,,,,,,,,,,,,,,,,,,,,,,,,,,,,,,,,,,,,,,,,,,,,,,,,,,,,,,,,,,,,155.69535950000864,None,902.8467409426411,-0.37594524155333126,3.9542116663626075e-05,1,"[0.40939056066770213, 0.40939056066770213, 0.40939056066770213, 0.40939056066770213]","[264.83070530130317, 2326.9504607002045, 405.1943178996548, 3070.435485348396]",None,"[10.6749502582452, 6.0, 9.171666375670391, 9.0]",False,156.6960843000561,158.94145660009235,158.94145660009235,160.1753976000473,['space'],1,2.6886089999461547,3.70187399990391,None,1,None,1,[0.44048829982057214],,,,,,,,,,,,,ddmfvc,001,fr,0,0,2022-05-05_10h34.05.823,Cluster,2022.1.1,36.51984835093601,
,,,,0,0,0,0,2,0,2,0,,,none,,,,,,,,,,,,,,,,,,,,,,,,,,,,,,,,,,,,,,,,,,,,,,,,,,,,,,,,,,,,,,,,,,,,,,,,,,,,,,,,,,,,,,,,,,,,,,,,,,,,,,,,,,,,,,,,,,,160.42070050002076,None,378.9291416275994,1.0,9.203306692743987e-05,0,"[0.5922691035390244, 0.47070946618214315, 0.40061051106774603, 0.486190885502394]","[204.45019665152302, 130.31092189521368, 513.1936643643314, 5484.727658789557]",None,"[6.847316394817064, 12.0, 6.0, -1.4891035780236894]",False,161.43760990002193,163.93917800008785,163.93917800008785,165.16036800004076,None,0,2.9899679000955075,3.9926768000004813,None,1,None,1,,,,,,,,,,,,,,ddmfvc,001,fr,0,0,2022-05-05_10h34.05.823,Cluster,2022.1.1,36.51984835093601,
,,,,0,0,0,0,3,0,3,0,,,both,,,,,,,,,,,,,,,,,,,,,,,,,,,,,,,,,,,,,,,,,,,,,,,,,,,,,,,,,,,,,,,,,,,,,,,,,,,,,,,,,,,,,,,,,,,,,,,,,,,,,,,,,,,,,,,,,,,165.47166630008724,None,,,,,"[0.6855488277636, 0.6855488277636, 0.6855488277636, 0.6855488277636]","[1940.2705330209897, 1294.9752176740762, 864.2922653569362, 576.8458807246707]",Perfect_5th,"[2.0, 2.5476544384013846, 5.745764438707836, 5.016899083795806]",True,166.4708048000466,169.5552122000372,169.5552122000372,170.78667690011207,None,1,3.7811924999114126,4.788685599924065,None,1,None,1,,0,,,,,,,,,,,,ddmfvc,001,fr,0,0,2022-05-05_10h34.05.823,Cluster,2022.1.1,36.51984835093601,
,,,,0,0,0,0,4,0,4,0,,,time,,,,,,,,,,,,,,,,,,,,,,,,,,,,,,,,,,,,,,,,,,,,,,,,,,,,,,,,,,,,,,,,,,,,,,,,,,,,,,,,,,,,,,,,,,,,,,,,,,,,,,,,,,,,,,,,,,,171.2810596000636,None,378.9291416275994,1.0,9.203306692743987e-05,1,"[0.6746621195135916, 0.6746621195135916, 0.6746621195135916, 0.6746621195135916]","[699.2612468892864, 1911.85958035601, 4220.064091927482, 7541.371275039019]",None,"[5.23313629654465, 2.0, 2.0, 3.0]",False,172.28906880004797,175.34229320008308,175.34229320008308,176.56651920010336,['space'],1,3.727218799991533,4.756983700091951,None,1,None,1,[0.6095445998944342],,,,,,,,,,,,,ddmfvc,001,fr,0,0,2022-05-05_10h34.05.823,Cluster,2022.1.1,36.51984835093601,
,,,,0,0,0,0,5,0,5,0,,,time,,,,,,,,,,,,,,,,,,,,,,,,,,,,,,,,,,,,,,,,,,,,,,,,,,,,,,,,,,,,,,,,,,,,,,,,,,,,,,,,,,,,,,,,,,,,,,,,,,,,,,,,,,,,,,,,,,,177.08300160011277,None,209.52323005503354,1.0,0.0002768966561287485,0,"[0.7792957948543979, 0.7792957948543979, 0.7792957948543979, 0.7792957948543979]","[2198.1917137895666, 423.26960502801774, 1295.5567164393444, 1457.159392321914]",None,"[5.0, 8.06241833369221, 2.5476544384013846, 1.8109081932435442]",False,178.0847870000871,181.4644588000374,181.4644588000374,182.6897926001111,None,0,4.1579262998420745,5.1805516998283565,None,1,None,1,,,,,,,,,,,,,,ddmfvc,001,fr,0,0,2022-05-05_10h34.05.823,Cluster,2022.1.1,36.51984835093601,
,,,,0,0,0,0,6,0,6,0,,,time,,,,,,,,,,,,,,,,,,,,,,,,,,,,,,,,,,,,,,,,,,,,,,,,,,,,,,,,,,,,,,,,,,,,,,,,,,,,,,,,,,,,,,,,,,,,,,,,,,,,,,,,,,,,,,,,,,,183.29022740002256,None,4594.793419988137,0.0,0.00012486547057085194,1,"[0.4928566417688492, 0.4928566417688492, 0.4928566417688492, 0.4928566417688492]","[4216.861507231956, 1956.6987548059885, 1504.5275749074976, 5087.152864466922]",None,"[2.0, 2.85462562250569, 1.2666537820771984, -1.1517555255134466]",False,185.016837400035,187.52682420006022,187.52682420006022,188.73293900000863,['space'],1,2.990533899865113,4.011740999878384,None,1,None,1,[0.48060779995284975],,,,,,,,,,,,,ddmfvc,001,fr,0,0,2022-05-05_10h34.05.823,Cluster,2022.1.1,36.51984835093601,
,,,,0,0,0,0,7,0,7,0,,,both,,,,,,,,,,,,,,,,,,,,,,,,,,,,,,,,,,,,,,,,,,,,,,,,,,,,,,,,,,,,,,,,,,,,,,,,,,,,,,,,,,,,,,,,,,,,,,,,,,,,,,,,,,,,,,,,,,,189.06330680008978,None,,,,,"[0.7470601456605362, 0.7470601456605362, 0.7470601456605362, 0.7470601456605362]","[1179.4860068566534, 1767.2322311503417, 2647.8565584171242, 3967.3022200307114]",Perfect_5th,"[4.0, 1.1898294073388112, 8.439616362994943, 3.4589661902529443]",True,190.0555928000249,193.3345018000109,193.3345018000109,194.55399430007674,None,1,4.03327730007004,5.036691100103781,None,1,None,1,,0,,,,,,,,,,,,ddmfvc,001,fr,0,0,2022-05-05_10h34.05.823,Cluster,2022.1.1,36.51984835093601,
,,,,0,0,0,0,8,0,8,0,,,none,,,,,,,,,,,,,,,,,,,,,,,,,,,,,,,,,,,,,,,,,,,,,,,,,,,,,,,,,,,,,,,,,,,,,,,,,,,,,,,,,,,,,,,,,,,,,,,,,,,,,,,,,,,,,,,,,,,195.1165720000863,None,179.73029534263827,0.8003800261654269,0.0003720118896236141,0,"[0.6830576178143155, 0.7313300642382724, 0.5678686637427931, 0.7278330123081717]","[5146.57385547221, 423.30688692181246, 145.17667701758944, 2249.4784507552376]",None,"[-1.6284079652419363, 8.06241833369221, 10.0, 5.0]",False,196.1108234000858,199.12385319999885,199.12385319999885,200.35014670004603,None,0,3.7504084000829607,4.78165010001976,None,1,None,1,,,,,,,,,,,,,,ddmfvc,001,fr,0,0,2022-05-05_10h34.05.823,Cluster,2022.1.1,36.51984835093601,
,,,,0,0,0,0,9,0,9,0,,,time,,,,,,,,,,,,,,,,,,,,,,,,,,,,,,,,,,,,,,,,,,,,,,,,,,,,,,,,,,,,,,,,,,,,,,,,,,,,,,,,,,,,,,,,,,,,,,,,,,,,,,,,,,,,,,,,,,,200.92514880001545,None,567.9084325387411,-0.9831009162041934,5.4339090914640544e-05,1,"[0.7682627519843256, 0.7682627519843256, 0.7682627519843256, 0.7682627519843256]","[4165.033827881271, 425.80768963138746, 1255.6867812238177, 858.3647250059415]",None,"[2.0, 8.06241833369221, 3.0, 5.745764438707836]",False,201.9405320000369,205.28825990005862,205.28825990005862,206.49071270006243,['space'],1,4.101207800093107,5.125438000075519,None,1,None,1,[0.6942887998884544],,,,,,,,,,,,,ddmfvc,001,fr,0,0,2022-05-05_10h34.05.823,Cluster,2022.1.1,36.51984835093601,
,,,,0,0,0,0,10,0,10,0,,,frequency,,,,,,,,,,,,,,,,,,,,,,,,,,,,,,,,,,,,,,,,,,,,,,,,,,,,,,,,,,,,,,,,,,,,,,,,,,,,,,,,,,,,,,,,,,,,,,,,,,,,,,,,,,,,,,,,,,,207.10208660003264,None,835.0898279692988,-0.31262197611845793,3.797374969164008e-05,1,"[0.45704648626748506, 0.6154758349078104, 0.6758308309426567, 0.531048077219909]","[1325.6224714064076, 1180.9953605139972, 1052.147252811608, 937.356638824741]",Tone,"[2.5476544384013846, 4.0, 5.0, 5.624054758446669]",False,208.11223180009983,210.88973700010683,210.88973700010683,212.10886470007244,['space'],1,3.324208499980159,4.327539199963212,None,1,None,1,[0.5314336998853832],,,,,,,,,,,,,ddmfvc,001,fr,0,0,2022-05-05_10h34.05.823,Cluster,2022.1.1,36.51984835093601,
,,,,0,0,0,0,11,0,11,0,,,frequency,,,,,,,,,,,,,,,,,,,,,,,,,,,,,,,,,,,,,,,,,,,,,,,,,,,,,,,,,,,,,,,,,,,,,,,,,,,,,,,,,,,,,,,,,,,,,,,,,,,,,,,,,,,,,,,,,,,212.46211950003635,None,,,,,"[0.4592095004937273, 0.49016367505923275, 0.6405295217995028, 0.7585373369582386]","[3009.77041402611, 3378.353063868697, 3792.0730999823036, 4256.45813914501]",Tone,"[9.136888866253425, 8.0, 5.0, 1.5438401106294783]",True,213.47746680001728,216.09628250007518,216.09628250007518,217.31953550002072,None,1,3.3742846000241116,4.382418900029734,None,1,None,1,,0,,,,,,,,,,,,ddmfvc,001,fr,0,0,2022-05-05_10h34.05.823,Cluster,2022.1.1,36.51984835093601,
,,,,0,0,0,0,12,0,12,0,,,both,,,,,,,,,,,,,,,,,,,,,,,,,,,,,,,,,,,,,,,,,,,,,,,,,,,,,,,,,,,,,,,,,,,,,,,,,,,,,,,,,,,,,,,,,,,,,,,,,,,,,,,,,,,,,,,,,,,217.88704850000795,None,3550.51671608533,1.0,8.532941927235144e-05,1,"[0.4900537698481797, 0.4900537698481797, 0.4900537698481797, 0.4900537698481797]","[1409.0234925361326, 1775.2583580426651, 2236.685374299763, 2818.0469850722648]",Major_3rd,"[1.8109081932435442, 1.1898294073388112, 5.0, 9.112124997758599]",False,218.8863188000396,221.37099560000934,221.37099560000934,222.59014770004433,['space'],1,3.002771099912934,4.006484899902716,None,1,None,1,[0.5273942998610437],,,,,,,,,,,,,ddmfvc,001,fr,0,0,2022-05-05_10h34.05.823,Cluster,2022.1.1,36.51984835093601,
,,,,0,0,0,0,13,0,13,0,,,none,,,,,,,,,,,,,,,,,,,,,,,,,,,,,,,,,,,,,,,,,,,,,,,,,,,,,,,,,,,,,,,,,,,,,,,,,,,,,,,,,,,,,,,,,,,,,,,,,,,,,,,,,,,,,,,,,,,222.9155572000891,None,2462.2888266898335,1.0,9.543828998156852e-05,0,"[0.7799359602298677, 0.5360583696035524, 0.5073951135695293, 0.5321122650288487]","[1291.098972652449, 132.9283210892113, 163.3312834375907, 2105.864077560231]",None,"[3.0, 12.0, 7.6093112597021735, 4.0]",False,223.92291520000435,226.77287159999833,226.77287159999833,227.99346260004677,None,0,3.3851464999606833,4.387201299890876,None,1,None,1,,,,,,,,,,,,,,ddmfvc,001,fr,0,0,2022-05-05_10h34.05.823,Cluster,2022.1.1,36.51984835093601,
,,,,0,0,0,0,14,0,14,0,,,both,,,,,,,,,,,,,,,,,,,,,,,,,,,,,,,,,,,,,,,,,,,,,,,,,,,,,,,,,,,,,,,,,,,,,,,,,,,,,,,,,,,,,,,,,,,,,,,,,,,,,,,,,,,,,,,,,,,228.3548261000542,None,378.9291416275994,1.0,9.203306692743987e-05,1,"[0.71732088264275, 0.71732088264275, 0.71732088264275, 0.71732088264275]","[150.37812951026456, 189.46457081379972, 238.71040097760408, 300.75625902052906]",Major_3rd,"[9.0, 6.547681486333655, 9.0, 11.634060966657366]",False,229.4271719000535,232.61619560001418,232.61619560001418,233.82771290000528,['space'],1,3.9066420999588445,4.924980099895038,None,1,None,1,[0.6458714999025688],,,,,,,,,,,,,ddmfvc,001,fr,0,0,2022-05-05_10h34.05.823,Cluster,2022.1.1,36.51984835093601,
,,,,0,0,0,0,15,0,15,0,,,frequency,,,,,,,,,,,,,,,,,,,,,,,,,,,,,,,,,,,,,,,,,,,,,,,,,,,,,,,,,,,,,,,,,,,,,,,,,,,,,,,,,,,,,,,,,,,,,,,,,,,,,,,,,,,,,,,,,,,234.37934500002302,None,378.9291416275994,1.0,9.203306692743987e-05,1,"[0.7556845712668278, 0.4509889356137475, 0.759064390309959, 0.5816777911683915]","[150.37812951026456, 189.46457081379972, 238.71040097760408, 300.75625902052906]",Major_3rd,"[9.0, 6.547681486333655, 9.0, 11.634060966657366]",False,235.39536760002375,238.38210590009112,238.38210590009112,239.58884580002632,['space'],1,3.5685796999605373,4.596898299874738,None,1,None,1,[0.735749299870804],,,,,,,,,,,,,ddmfvc,001,fr,0,0,2022-05-05_10h34.05.823,Cluster,2022.1.1,36.51984835093601,
,,,,0,0,0,0,16,0,16,0,,,both,,,,,,,,,,,,,,,,,,,,,,,,,,,,,,,,,,,,,,,,,,,,,,,,,,,,,,,,,,,,,,,,,,,,,,,,,,,,,,,,,,,,,,,,,,,,,,,,,,,,,,,,,,,,,,,,,,,240.0334404000314,None,,,,,"[0.6818609787826077, 0.6818609787826077, 0.6818609787826077, 0.6818609787826077]","[4758.481643825885, 3776.8093835902887, 2997.6555942972955, 2379.2408219129425]",Major_3rd,"[-1.0000000000000009, 5.0, 9.136888866253425, 7.0]",True,241.0235301000066,244.10602020006627,244.10602020006627,245.30663380003534,None,1,3.775165700004436,4.804355900036171,None,1,None,1,,0,,,,,,,,,,,,ddmfvc,001,fr,0,0,2022-05-05_10h34.05.823,Cluster,2022.1.1,36.51984835093601,
,,,,0,0,0,0,17,0,17,0,,,none,,,,,,,,,,,,,,,,,,,,,,,,,,,,,,,,,,,,,,,,,,,,,,,,,,,,,,,,,,,,,,,,,,,,,,,,,,,,,,,,,,,,,,,,,,,,,,,,,,,,,,,,,,,,,,,,,,,245.8547410001047,None,193.737800358316,0.547681486333655,0.000307009562558573,0,"[0.4211199876103091, 0.5873491832199057, 0.5927259556976454, 0.422460524202736]","[361.2112334450854, 536.7169793019741, 348.90889227135744, 1337.6194530911746]",None,"[11.0, 5.407565608342791, 11.008027259455613, 2.5476544384013846]",False,246.87110820005182,249.51218150008935,249.51218150008935,250.7118671000935,None,0,3.064736499800347,4.0668551998678595,None,1,None,1,,,,,,,,,,,,,,ddmfvc,001,fr,0,0,2022-05-05_10h34.05.823,Cluster,2022.1.1,36.51984835093601,
,,,,0,0,0,0,18,0,18,0,,,none,,,,,,,,,,,,,,,,,,,,,,,,,,,,,,,,,,,,,,,,,,,,,,,,,,,,,,,,,,,,,,,,,,,,,,,,,,,,,,,,,,,,,,,,,,,,,,,,,,,,,,,,,,,,,,,,,,,250.97050950000994,None,4594.793419988137,1.0,0.0001401013622855946,1,"[0.4725853286659756, 0.7252770649433398, 0.7544292805184434, 0.6858086598198317]","[688.0657710251844, 7846.353127746618, 209.69476666524676, 3464.6527669764205]",None,"[5.23313629654465, 3.903422065845511, 7.0, 7.179895465996863]",False,253.1606484000804,256.1366944001056,256.1366944001056,257.36177490011323,['space'],1,3.6559130999958143,4.699462500051595,None,1,None,1,[0.5205802998971194],,,,,,,,,,,,,ddmfvc,001,fr,0,0,2022-05-05_10h34.05.823,Cluster,2022.1.1,36.51984835093601,
,,,,0,0,0,0,19,0,19,0,,,none,,,,,,,,,,,,,,,,,,,,,,,,,,,,,,,,,,,,,,,,,,,,,,,,,,,,,,,,,,,,,,,,,,,,,,,,,,,,,,,,,,,,,,,,,,,,,,,,,,,,,,,,,,,,,,,,,,,257.89013920002617,None,1133.8371468259038,-1.8711079991886872,4.002837262558002e-05,1,"[0.7915645438129673, 0.43255655053700465, 0.4065551887576836, 0.6660767479136023]","[324.3222398269058, 232.17805824234142, 1786.9927237190054, 1601.3390602696684]",None,"[11.513616445785994, 8.626180643476042, 1.1898294073388112, 1.0254998596726566]",False,258.88106929999776,261.54563690000214,261.54563690000214,262.76556510000955,['space'],1,3.324843299924396,4.327300100005232,None,1,None,1,[0.6096787998685613],,,,,,,,,,,,,ddmfvc,001,fr,0,0,2022-05-05_10h34.05.823,Cluster,2022.1.1,36.51984835093601,
,,,,1,0,1,0,0,0,0,0,,,none,,,,,,,,,,,,,,,,,,,,,,,,,,,,,,,,,,,,,,,,,,,,,,,,,,,,,,,,,,,,,,,,,,,,,,,,,,,,,,,,,,,,,,,,,,,,,,,,,,,,,,,,,,,,,,,,,,,286.9023878000444,None,659.7539553864473,0.0,4.855544497866433e-05,1,"[0.5599305057830537, 0.7319971581973106, 0.7636550281889322, 0.5683063526528648]","[148.4243617715565, 347.83995389284, 142.57131027627386, 422.24504173764444]",None,"[10.0, 11.008027259455613, 10.369950949930363, 9.0]",False,287.93061030004174,291.00761320011225,291.00761320011225,292.221066600061,['space'],1,3.667279400047846,4.693029599962756,None,1,None,1,[0.4700415999395773],,,,,,,,,,,,,ddmfvc,001,fr,0,0,2022-05-05_10h34.05.823,Cluster,2022.1.1,36.51984835093601,
,,,,1,0,1,0,1,0,1,0,,,both,,,,,,,,,,,,,,,,,,,,,,,,,,,,,,,,,,,,,,,,,,,,,,,,,,,,,,,,,,,,,,,,,,,,,,,,,,,,,,,,,,,,,,,,,,,,,,,,,,,,,,,,,,,,,,,,,,,292.6608515001135,None,,,,,"[0.7950048055290772, 0.7950048055290772, 0.7950048055290772, 0.7950048055290772]","[373.4102865177283, 296.37594081699433, 235.2337401154808, 186.70514325886413]",Major_3rd,"[10.194900943411337, 11.347902014810314, 8.626180643476042, 6.547681486333655]",True,293.6628683001036,297.0881895000348,297.0881895000348,298.29691270005424,None,1,4.227913800044917,5.253863799967803,None,1,None,1,,0,,,,,,,,,,,,ddmfvc,001,fr,0,0,2022-05-05_10h34.05.823,Cluster,2022.1.1,36.51984835093601,
,,,,1,0,1,0,2,0,2,0,,,none,,,,,,,,,,,,,,,,,,,,,,,,,,,,,,,,,,,,,,,,,,,,,,,,,,,,,,,,,,,,,,,,,,,,,,,,,,,,,,,,,,,,,,,,,,,,,,,,,,,,,,,,,,,,,,,,,,,298.9481253999984,None,150.00782775983222,3.0,0.0007063814871319894,1,"[0.5013573090960319, 0.4042646081247689, 0.613156585940993, 0.46212264832806005]","[765.5638694752034, 256.1325113056305, 659.2854932001089, 5551.808090010548]",None,"[5.4928901646508494, 10.0, 4.99930533297728, -1.4891035780236894]",False,299.9475174000254,302.4972726000706,302.4972726000706,303.70183750009164,['space'],1,3.004911899799481,3.99804459977895,None,1,None,1,[0.5836149998940527],,,,,,,,,,,,,ddmfvc,001,fr,0,0,2022-05-05_10h34.05.823,Cluster,2022.1.1,36.51984835093601,
,,,,1,0,1,0,3,0,3,0,,,none,,,,,,,,,,,,,,,,,,,,,,,,,,,,,,,,,,,,,,,,,,,,,,,,,,,,,,,,,,,,,,,,,,,,,,,,,,,,,,,,,,,,,,,,,,,,,,,,,,,,,,,,,,,,,,,,,,,303.9754373000469,None,125.0,7.0,0.0016179682846481417,0,"[0.7121639085672931, 0.5189124420709577, 0.7942984814393945, 0.5167816155179632]","[5327.051343084356, 5964.703272102314, 945.5243906786186, 286.23984718673375]",None,"[-1.6284079652419363, -1.0, 5.624054758446669, 11.347902014810314]",False,306.289763100096,309.34694980003405,309.34694980003405,310.56055380008183,None,0,3.5989414998330176,4.630986899835989,None,1,None,1,,,,,,,,,,,,,,ddmfvc,001,fr,0,0,2022-05-05_10h34.05.823,Cluster,2022.1.1,36.51984835093601,
,,,,1,0,1,0,4,0,4,0,,,both,,,,,,,,,,,,,,,,,,,,,,,,,,,,,,,,,,,,,,,,,,,,,,,,,,,,,,,,,,,,,,,,,,,,,,,,,,,,,,,,,,,,,,,,,,,,,,,,,,,,,,,,,,,,,,,,,,,310.94522540003527,None,206.14362651021932,1.0,0.0002843258608085013,0,"[0.5267769136959842, 0.5267769136959842, 0.5267769136959842, 0.5267769136959842]","[519.4493886837843, 412.28725302043864, 327.23260957886174, 259.72469434189213]",Major_3rd,"[6.0, 9.0, 11.513616445785994, 10.0]",False,311.93813580006827,314.5460639001103,314.5460639001103,315.7445425000042,None,0,3.148708099848591,4.157461299793795,None,1,None,1,,,,,,,,,,,,,,ddmfvc,001,fr,0,0,2022-05-05_10h34.05.823,Cluster,2022.1.1,36.51984835093601,
,,,,1,0,1,0,5,0,5,0,,,time,,,,,,,,,,,,,,,,,,,,,,,,,,,,,,,,,,,,,,,,,,,,,,,,,,,,,,,,,,,,,,,,,,,,,,,,,,,,,,,,,,,,,,,,,,,,,,,,,,,,,,,,,,,,,,,,,,,316.1255438000662,None,,,,,"[0.5759459849635583, 0.5759459849635583, 0.5759459849635583, 0.5759459849635583]","[1462.2181070914019, 1657.2525087222762, 164.3718831464467, 5373.217866300155]",None,"[1.8109081932435442, 1.0254998596726566, 7.6093112597021735, -1.6284079652419363]",True,317.14581310003996,319.8975581000559,319.8975581000559,321.1309958000202,None,1,3.348702499875799,4.374130999902263,None,1,None,1,,0,,,,,,,,,,,,ddmfvc,001,fr,0,0,2022-05-05_10h34.05.823,Cluster,2022.1.1,36.51984835093601,
,,,,1,0,1,0,6,0,6,0,,,frequency,,,,,,,,,,,,,,,,,,,,,,,,,,,,,,,,,,,,,,,,,,,,,,,,,,,,,,,,,,,,,,,,,,,,,,,,,,,,,,,,,,,,,,,,,,,,,,,,,,,,,,,,,,,,,,,,,,,321.5467379000038,None,266.6238451328487,4.674950258245201,0.00025672366108809327,1,"[0.5726469915674325, 0.5108076153154075, 0.6428191759180005, 0.6741710766561033]","[167.96249744339337, 188.53152891946917, 211.61948612184517, 237.53484185450327]",Tone,"[7.6093112597021735, 6.547681486333655, 7.0, 9.0]",False,322.56064410007093,325.30590260005556,325.30590260005556,326.51307620003354,['space'],1,3.439034399809316,4.4599035998107865,None,1,None,1,[0.6579406998353079],,,,,,,,,,,,,ddmfvc,001,fr,0,0,2022-05-05_10h34.05.823,Cluster,2022.1.1,36.51984835093601,
,,,,1,0,1,0,7,0,7,0,,,none,,,,,,,,,,,,,,,,,,,,,,,,,,,,,,,,,,,,,,,,,,,,,,,,,,,,,,,,,,,,,,,,,,,,,,,,,,,,,,,,,,,,,,,,,,,,,,,,,,,,,,,,,,,,,,,,,,,327.0531934000319,None,1594.0498352312527,-4.9745001403273434,3.172349897977664e-05,0,"[0.5764528457728011, 0.5575074305755939, 0.7430793149678135, 0.597679269846509]","[6089.176908607905, 2132.2032519944923, 2381.9571666512406, 157.14948816109435]",None,"[-0.8146955877309914, 4.240942278016717, 7.0, 8.863572288142883]",False,328.0633737000171,330.9511597000528,330.9511597000528,332.16414030001033,None,0,3.51951380004175,4.549523200024851,None,1,None,1,,,,,,,,,,,,,,ddmfvc,001,fr,0,0,2022-05-05_10h34.05.823,Cluster,2022.1.1,36.51984835093601,
,,,,1,0,1,0,8,0,8,0,,,both,,,,,,,,,,,,,,,,,,,,,,,,,,,,,,,,,,,,,,,,,,,,,,,,,,,,,,,,,,,,,,,,,,,,,,,,,,,,,,,,,,,,,,,,,,,,,,,,,,,,,,,,,,,,,,,,,,,332.6456769000506,None,2143.5469250725882,0.0,7.799382669637754e-05,1,"[0.6916942962848625, 0.6916942962848625, 0.6916942962848625, 0.6916942962848625]","[3402.668643803426, 3031.4331330207992, 2700.6998923363826, 2406.0500721642356]",Tone,"[8.0, 9.136888866253425, 8.439616362994943, 7.0]",False,333.681348000071,336.77923280000687,336.77923280000687,337.98193720006384,['space'],1,3.7978173998417333,4.822604099870659,None,1,None,1,[0.694378599873744],,,,,,,,,,,,,ddmfvc,001,fr,0,0,2022-05-05_10h34.05.823,Cluster,2022.1.1,36.51984835093601,
,,,,1,0,1,0,9,0,9,0,,,both,,,,,,,,,,,,,,,,,,,,,,,,,,,,,,,,,,,,,,,,,,,,,,,,,,,,,,,,,,,,,,,,,,,,,,,,,,,,,,,,,,,,,,,,,,,,,,,,,,,,,,,,,,,,,,,,,,,338.5478528001113,None,,,,,"[0.5173410809354717, 0.5173410809354717, 0.5173410809354717, 0.5173410809354717]","[668.8108803261736, 595.8427559608999, 530.8355474987727, 472.9207088099818]",Tone,"[5.0, 5.0, 5.407565608342791, 6.993791445176741]",True,339.5672935000621,342.1322633000091,342.1322633000091,343.340280000004,None,1,3.1078584998613223,4.129327299888246,None,1,None,1,,0,,,,,,,,,,,,ddmfvc,001,fr,0,0,2022-05-05_10h34.05.823,Cluster,2022.1.1,36.51984835093601,
,,,,1,0,1,0,10,0,10,0,,,time,,,,,,,,,,,,,,,,,,,,,,,,,,,,,,,,,,,,,,,,,,,,,,,,,,,,,,,,,,,,,,,,,,,,,,,,,,,,,,,,,,,,,,,,,,,,,,,,,,,,,,,,,,,,,,,,,,,343.72760450001806,None,2462.2888266898335,0.0,8.505946547995337e-05,0,"[0.4541342447626314, 0.4541342447626314, 0.4541342447626314, 0.4541342447626314]","[2303.2730339493073, 734.6522012939172, 254.26944328268274, 5439.215921528443]",None,"[5.779199664881749, 5.4928901646508494, 10.0, -1.6284079652419363]",False,344.7599651000928,347.1522002000129,347.1522002000129,348.3709973000223,None,0,2.823779599973932,3.8342078999849036,None,1,None,1,,,,,,,,,,,,,,ddmfvc,001,fr,0,0,2022-05-05_10h34.05.823,Cluster,2022.1.1,36.51984835093601,
,,,,1,0,1,0,11,0,11,0,,,time,,,,,,,,,,,,,,,,,,,,,,,,,,,,,,,,,,,,,,,,,,,,,,,,,,,,,,,,,,,,,,,,,,,,,,,,,,,,,,,,,,,,,,,,,,,,,,,,,,,,,,,,,,,,,,,,,,,348.63723890006077,None,589.7974614766096,-1.0,5.1190121110592844e-05,1,"[0.6042693839180624, 0.6042693839180624, 0.6042693839180624, 0.6042693839180624]","[5124.444778789271, 841.333043324703, 1855.1905618041799, 496.1202539603]",None,"[-1.6284079652419363, 5.687378023881542, 1.803590307524745, 6.081850458640543]",False,349.6280256001046,352.45905470009893,352.45905470009893,353.6619894000469,['space'],1,3.4557691001100466,4.482169400085695,None,1,None,1,[0.46842079993803054],,,,,,,,,,,,,ddmfvc,001,fr,0,0,2022-05-05_10h34.05.823,Cluster,2022.1.1,36.51984835093601,
,,,,1,0,1,0,12,0,12,0,,,none,,,,,,,,,,,,,,,,,,,,,,,,,,,,,,,,,,,,,,,,,,,,,,,,,,,,,,,,,,,,,,,,,,,,,,,,,,,,,,,,,,,,,,,,,,,,,,,,,,,,,,,,,,,,,,,,,,,354.14668630005326,None,435.2752816480623,4.0,0.00011847381036860221,1,"[0.7797290325149238, 0.48021405121348765, 0.7284341126101845, 0.6466796546767974]","[4175.952772606904, 496.6547921460563, 568.0079672262992, 1363.4146233701558]",None,"[2.0, 6.081850458640543, 5.016899083795806, 2.0]",False,355.1614152000984,358.1727091000648,358.1727091000648,359.3882761000423,['space'],1,3.6679086999502033,4.686136099859141,None,1,None,1,[0.5159290998708457],,,,,,,,,,,,,ddmfvc,001,fr,0,0,2022-05-05_10h34.05.823,Cluster,2022.1.1,36.51984835093601,
,,,,1,0,1,0,13,0,13,0,,,none,,,,,,,,,,,,,,,,,,,,,,,,,,,,,,,,,,,,,,,,,,,,,,,,,,,,,,,,,,,,,,,,,,,,,,,,,,,,,,,,,,,,,,,,,,,,,,,,,,,,,,,,,,,,,,,,,,,359.88639960007276,None,,,,,"[0.5588637985342766, 0.5508537591023474, 0.5652166942303363, 0.6546945492300504]","[1684.4293504825926, 127.30613791029272, 231.667859951585, 1621.9036597343659]",None,"[1.1898294073388112, 13.0, 8.626180643476042, 1.0254998596726566]",True,360.8775492000859,363.57782890007365,363.57782890007365,364.79968030005693,None,1,3.3777539998991415,4.398405299871229,None,1,None,1,,0,,,,,,,,,,,,ddmfvc,001,fr,0,0,2022-05-05_10h34.05.823,Cluster,2022.1.1,36.51984835093601,
,,,,1,0,1,0,14,0,14,0,,,time,,,,,,,,,,,,,,,,,,,,,,,,,,,,,,,,,,,,,,,,,,,,,,,,,,,,,,,,,,,,,,,,,,,,,,,,,,,,,,,,,,,,,,,,,,,,,,,,,,,,,,,,,,,,,,,,,,,365.30141920002643,None,1414.213562373095,-1.0,4.494787037834757e-05,1,"[0.7296096613176334, 0.7296096613176334, 0.7296096613176334, 0.7296096613176334]","[484.0135080113294, 1786.3311889736801, 1224.0817171516578, 3134.0506037514974]",None,"[6.081850458640543, 1.1898294073388112, 3.3545531425588218, 9.0]",False,366.39134720002767,369.59260810003616,369.59260810003616,370.8133197000716,['space'],1,3.9351664999267086,4.941622899961658,None,1,None,1,[0.616146499873139],,,,,,,,,,,,,ddmfvc,001,fr,0,0,2022-05-05_10h34.05.823,Cluster,2022.1.1,36.51984835093601,
,,,,1,0,1,0,15,0,15,0,,,both,,,,,,,,,,,,,,,,,,,,,,,,,,,,,,,,,,,,,,,,,,,,,,,,,,,,,,,,,,,,,,,,,,,,,,,,,,,,,,,,,,,,,,,,,,,,,,,,,,,,,,,,,,,,,,,,,,,371.37635920010507,None,312.6178620844903,5.634060966657366,0.00019348468160502774,1,"[0.4684688757126927, 0.4684688757126927, 0.4684688757126927, 0.4684688757126927]","[196.93691250669082, 221.05421019998394, 248.12496156848468, 278.51085259884576]",Tone,"[6.847316394817064, 8.0, 9.716698867869631, 11.0]",False,372.39171780005563,374.8185319000622,374.8185319000622,376.03682080004364,['space'],1,2.906113200006075,3.9169514999957755,None,1,None,1,[0.4623325999127701],,,,,,,,,,,,,ddmfvc,001,fr,0,0,2022-05-05_10h34.05.823,Cluster,2022.1.1,36.51984835093601,
,,,,1,0,1,0,16,0,16,0,,,frequency,,,,,,,,,,,,,,,,,,,,,,,,,,,,,,,,,,,,,,,,,,,,,,,,,,,,,,,,,,,,,,,,,,,,,,,,,,,,,,,,,,,,,,,,,,,,,,,,,,,,,,,,,,,,,,,,,,,376.341586100054,None,2462.2888266898335,0.0,8.505946547995337e-05,0,"[0.7424969047064391, 0.7897895482145656, 0.7279028904958134, 0.7095988152567017]","[3908.639873736986, 3482.202253184498, 3102.289523667471, 2763.8257599355534]",Tone,"[4.0, 7.179895465996863, 9.0, 9.0]",False,377.3582540000789,380.63650830008555,380.63650830008555,381.8556031000335,None,0,3.991448399843648,5.014953399891965,None,1,None,1,,,,,,,,,,,,,,ddmfvc,001,fr,0,0,2022-05-05_10h34.05.823,Cluster,2022.1.1,36.51984835093601,
,,,,1,0,1,0,17,0,17,0,,,time,,,,,,,,,,,,,,,,,,,,,,,,,,,,,,,,,,,,,,,,,,,,,,,,,,,,,,,,,,,,,,,,,,,,,,,,,,,,,,,,,,,,,,,,,,,,,,,,,,,,,,,,,,,,,,,,,,,382.42114760004915,None,,,,,"[0.5802382782841687, 0.5802382782841687, 0.5802382782841687, 0.5802382782841687]","[1219.9640696501583, 921.6675010175808, 4518.588047400733, 216.5077316319347]",None,"[3.3545531425588218, 5.624054758446669, 0.0, 7.60008055091731]",True,383.4337531001074,386.20990040001925,386.20990040001925,387.4327720000874,None,1,3.3580411000875756,4.370040700072423,None,1,None,1,,0,,,,,,,,,,,,ddmfvc,001,fr,0,0,2022-05-05_10h34.05.823,Cluster,2022.1.1,36.51984835093601,
,,,,1,0,1,0,18,0,18,0,,,none,,,,,,,,,,,,,,,,,,,,,,,,,,,,,,,,,,,,,,,,,,,,,,,,,,,,,,,,,,,,,,,,,,,,,,,,,,,,,,,,,,,,,,,,,,,,,,,,,,,,,,,,,,,,,,,,,,,387.8252858000342,None,263.10488722503237,4.674950258245201,0.0002631096068996383,1,"[0.447490433378503, 0.6692167661170582, 0.7547324093741428, 0.47679806379638223]","[2871.7898168379543, 3413.8717920024346, 1554.5542929807832, 3026.640680452593]",None,"[9.112124997758599, 7.179895465996863, 1.2666537820771984, 9.136888866253425]",False,388.8431459000567,391.74750550009776,391.74750550009776,392.980732700089,['space'],1,3.3756702998653054,4.413615399971604,None,1,None,1,[0.4877536998828873],,,,,,,,,,,,,ddmfvc,001,fr,0,0,2022-05-05_10h34.05.823,Cluster,2022.1.1,36.51984835093601,
,,,,1,0,1,0,19,0,19,0,,,none,,,,,,,,,,,,,,,,,,,,,,,,,,,,,,,,,,,,,,,,,,,,,,,,,,,,,,,,,,,,,,,,,,,,,,,,,,,,,,,,,,,,,,,,,,,,,,,,,,,,,,,,,,,,,,,,,,,393.2995151000796,None,3482.202253184498,0.0,7.485072584861476e-05,1,"[0.45464729539163096, 0.4182959356862749, 0.4786789791737647, 0.7168613146434271]","[4479.114214125391, 3514.015208511788, 768.1445979872829, 2204.5344091571314]",None,"[1.0, 7.0, 5.4928901646508494, 5.0]",False,395.5694204000756,397.948130600038,397.948130600038,399.18686940008774,['space'],1,3.071760499966331,4.074767299927771,None,1,None,1,[0.6656785998493433],,,,,,,,,,,,,ddmfvc,001,fr,0,0,2022-05-05_10h34.05.823,Cluster,2022.1.1,36.51984835093601,
,,,,2,0,2,0,0,0,0,0,,,both,,,,,,,,,,,,,,,,,,,,,,,,,,,,,,,,,,,,,,,,,,,,,,,,,,,,,,,,,,,,,,,,,,,,,,,,,,,,,,,,,,,,,,,,,,,,,,,,,,,,,,,,,,,,,,,,,,,420.21527100005187,None,5278.031643091578,-2.0,0.00011318642836647141,1,"[0.7926401075292235, 0.7926401075292235, 0.7926401075292235, 0.7926401075292235]","[2094.5882456412546, 2639.01582154579, 3324.9515845711526, 4189.176491282508]",Major_3rd,"[4.0, 8.439616362994943, 8.0, 2.0]",False,421.2137048000004,424.6159847000381,424.6159847000381,425.8482441001106,['space'],1,4.19790880009532,5.228666500071995,None,1,None,1,[0.398658899939619],,,,,,,,,,,,,ddmfvc,001,fr,0,0,2022-05-05_10h34.05.823,Cluster,2022.1.1,36.51984835093601,
,,,,2,0,2,0,1,0,1,0,,,none,,,,,,,,,,,,,,,,,,,,,,,,,,,,,,,,,,,,,,,,,,,,,,,,,,,,,,,,,,,,,,,,,,,,,,,,,,,,,,,,,,,,,,,,,,,,,,,,,,,,,,,,,,,,,,,,,,,426.49560490006115,None,,,,,"[0.5823361932960007, 0.6414323698083455, 0.6351491763807584, 0.7336710983464398]","[929.9583398448474, 2699.2286916085377, 6291.350733980337, 1536.756742477305]",None,"[5.624054758446669, 8.439616362994943, 0.0, 1.2666537820771984]",True,427.5051497000968,430.38916150003206,430.38916150003206,431.61969130008947,None,1,3.6257205000147223,4.628214900032617,None,1,None,1,,0,,,,,,,,,,,,ddmfvc,001,fr,0,0,2022-05-05_10h34.05.823,Cluster,2022.1.1,36.51984835093601,
,,,,2,0,2,0,2,0,2,0,,,time,,,,,,,,,,,,,,,,,,,,,,,,,,,,,,,,,,,,,,,,,,,,,,,,,,,,,,,,,,,,,,,,,,,,,,,,,,,,,,,,,,,,,,,,,,,,,,,,,,,,,,,,,,,,,,,,,,,432.1672368000727,None,1394.2533619468718,-4.0,3.213332396714707e-05,1,"[0.4172428716462317, 0.4172428716462317, 0.4172428716462317, 0.4172428716462317]","[364.27871648684663, 2294.389272477601, 1009.3706810302006, 131.66012925630335]",None,"[11.0, 5.779199664881749, 5.306476951059075, 12.0]",False,433.1752783000702,435.45993020001333,435.45993020001333,436.6939625000814,['space'],1,2.6955558001063764,3.729529800126329,None,1,None,1,[0.5950086998054758],,,,,,,,,,,,,ddmfvc,001,fr,0,0,2022-05-05_10h34.05.823,Cluster,2022.1.1,36.51984835093601,
,,,,2,0,2,0,3,0,3,0,,,time,,,,,,,,,,,,,,,,,,,,,,,,,,,,,,,,,,,,,,,,,,,,,,,,,,,,,,,,,,,,,,,,,,,,,,,,,,,,,,,,,,,,,,,,,,,,,,,,,,,,,,,,,,,,,,,,,,,436.9443795001134,None,164.93848884661182,11.0,0.0013948972476246718,1,"[0.5404609802040352, 0.5404609802040352, 0.5404609802040352, 0.5404609802040352]","[4718.519577700751, 5013.045362763764, 7592.145360833575, 3244.661536798549]",None,"[-0.05668281329649982, -1.1517555255134466, 3.0, 8.469750195397058]",False,438.7170789000811,441.3596808000002,441.3596808000002,442.598132800078,['space'],1,3.1715171999530867,4.2071816000388935,None,1,None,1,[0.5411749997874722],,,,,,,,,,,,,ddmfvc,001,fr,0,0,2022-05-05_10h34.05.823,Cluster,2022.1.1,36.51984835093601,
,,,,2,0,2,0,4,0,4,0,,,frequency,,,,,,,,,,,,,,,,,,,,,,,,,,,,,,,,,,,,,,,,,,,,,,,,,,,,,,,,,,,,,,,,,,,,,,,,,,,,,,,,,,,,,,,,,,,,,,,,,,,,,,,,,,,,,,,,,,,442.9748303000815,None,176.75391517240956,0.8003800261654269,0.00038389813443102293,1,"[0.5347253732098496, 0.5396447624417346, 0.684395839031949, 0.6310192076462274]","[890.7839135082065, 594.5269346021535, 396.79912334224804, 264.8316419684819]",Perfect_5th,"[5.745764438707836, 5.0, 9.171666375670391, 10.6749502582452]",False,443.98868890001904,446.77299500000663,446.77299500000663,448.0015570000978,['space'],1,3.4273456999799237,4.461177499964833,None,1,None,1,[0.7138092998648062],,,,,,,,,,,,,ddmfvc,001,fr,0,0,2022-05-05_10h34.05.823,Cluster,2022.1.1,36.51984835093601,
,,,,2,0,2,0,5,0,5,0,,,time,,,,,,,,,,,,,,,,,,,,,,,,,,,,,,,,,,,,,,,,,,,,,,,,,,,,,,,,,,,,,,,,,,,,,,,,,,,,,,,,,,,,,,,,,,,,,,,,,,,,,,,,,,,,,,,,,,,448.49331550009083,None,,,,,"[0.7311439310438181, 0.7311439310438181, 0.7311439310438181, 0.7311439310438181]","[1688.6678201304535, 562.2540867015431, 2615.149978462146, 1096.2643084534125]",None,"[1.1898294073388112, 5.016899083795806, 8.439616362994943, 4.793322612308798]",True,449.49022960010916,452.7076426000567,452.7076426000567,453.9464739001123,None,1,3.9612958000507206,4.998639600002207,None,1,None,1,,0,,,,,,,,,,,,ddmfvc,001,fr,0,0,2022-05-05_10h34.05.823,Cluster,2022.1.1,36.51984835093601,
,,,,2,0,2,0,6,0,6,0,,,none,,,,,,,,,,,,,,,,,,,,,,,,,,,,,,,,,,,,,,,,,,,,,,,,,,,,,,,,,,,,,,,,,,,,,,,,,,,,,,,,,,,,,,,,,,,,,,,,,,,,,,,,,,,,,,,,,,,454.5174553000834,None,397.73428320468975,3.17166637567039,0.00011114180402804043,1,"[0.7050054360553365, 0.40547490956007887, 0.7211913878705203, 0.6426242850588652]","[4590.138691245811, 489.1699674805002, 2218.9652378342103, 142.5665179507516]",None,"[-0.05668281329649982, 6.081850458640543, 5.0, 10.369950949930363]",False,455.5274897000054,458.38061480002943,458.38061480002943,459.5810737001011,['space'],1,3.520175499957986,4.548487200052477,None,1,None,1,[0.7756326998351142],,,,,,,,,,,,,ddmfvc,001,fr,0,0,2022-05-05_10h34.05.823,Cluster,2022.1.1,36.51984835093601,
,,,,2,0,2,0,7,0,7,0,,,both,,,,,,,,,,,,,,,,,,,,,,,,,,,,,,,,,,,,,,,,,,,,,,,,,,,,,,,,,,,,,,,,,,,,,,,,,,,,,,,,,,,,,,,,,,,,,,,,,,,,,,,,,,,,,,,,,,,460.1117776000174,None,712.8166421487475,-0.7668637034553498,4.019235400430807e-05,1,"[0.623945929495934, 0.623945929495934, 0.623945929495934, 0.623945929495934]","[282.8814719018404, 356.4083210743738, 449.0463460792941, 565.7629438036807]",Major_3rd,"[11.347902014810314, 11.0, 8.0, 5.016899083795806]",False,461.1021646000445,464.01670970011037,464.01670970011037,465.2353261000244,['space'],1,3.551209600176662,4.554845000151545,None,1,None,1,[0.6099161999300122],,,,,,,,,,,,,ddmfvc,001,fr,0,0,2022-05-05_10h34.05.823,Cluster,2022.1.1,36.51984835093601,
,,,,2,0,2,0,8,0,8,0,,,none,,,,,,,,,,,,,,,,,,,,,,,,,,,,,,,,,,,,,,,,,,,,,,,,,,,,,,,,,,,,,,,,,,,,,,,,,,,,,,,,,,,,,,,,,,,,,,,,,,,,,,,,,,,,,,,,,,,465.69432380003855,None,5656.85424949238,-4.0,8.109296367558474e-05,1,"[0.49428284436395764, 0.7990895640347633, 0.503407126176625, 0.41758252323985984]","[291.36597069183557, 3114.8929980206426, 1624.4438246191073, 569.1357965453699]",None,"[11.347902014810314, 9.0, 1.0254998596726566, 5.016899083795806]",False,466.71253140002955,469.55237570009194,469.55237570009194,470.7849330001045,['space'],1,3.2373458000365645,4.253532900009304,None,1,None,1,[0.5504462999524549],,,,,,,,,,,,,ddmfvc,001,fr,0,0,2022-05-05_10h34.05.823,Cluster,2022.1.1,36.51984835093601,
,,,,2,0,2,0,9,0,9,0,,,both,,,,,,,,,,,,,,,,,,,,,,,,,,,,,,,,,,,,,,,,,,,,,,,,,,,,,,,,,,,,,,,,,,,,,,,,,,,,,,,,,,,,,,,,,,,,,,,,,,,,,,,,,,,,,,,,,,,471.00535290001426,None,,,,,"[0.4061366222912717, 0.4061366222912717, 0.4061366222912717, 0.4061366222912717]","[3005.102071542948, 2677.241583418491, 2385.1510948195455, 2124.92805294576]",Tone,"[9.136888866253425, 8.439616362994943, 7.0, 4.0]",True,472.00399670004845,474.260013799998,474.260013799998,475.48260129999835,None,1,2.6676795000676066,3.69465260009747,None,1,None,1,,0,,,,,,,,,,,,ddmfvc,001,fr,0,0,2022-05-05_10h34.05.823,Cluster,2022.1.1,36.51984835093601,
,,,,2,0,2,0,10,0,10,0,,,none,,,,,,,,,,,,,,,,,,,,,,,,,,,,,,,,,,,,,,,,,,,,,,,,,,,,,,,,,,,,,,,,,,,,,,,,,,,,,,,,,,,,,,,,,,,,,,,,,,,,,,,,,,,,,,,,,,,475.73252499999944,None,3681.6781311580694,0.0,7.835234598614383e-05,1,"[0.48779652695742015, 0.7717185791743688, 0.43258332882614065, 0.5060638684318328]","[1302.410784725519, 6452.223579227207, 194.24520001252148, 3962.6078766490973]",None,"[2.5476544384013846, 0.23521728604462666, 6.547681486333655, 3.4589661902529443]",False,476.7436299000401,479.45131300005596,479.45131300005596,480.6636913000839,['space'],1,3.2307394000235945,4.262739500030875,None,1,None,1,[0.6338662998750806],,,,,,,,,,,,,ddmfvc,001,fr,0,0,2022-05-05_10h34.05.823,Cluster,2022.1.1,36.51984835093601,
,,,,2,0,2,0,11,0,11,0,,,frequency,,,,,,,,,,,,,,,,,,,,,,,,,,,,,,,,,,,,,,,,,,,,,,,,,,,,,,,,,,,,,,,,,,,,,,,,,,,,,,,,,,,,,,,,,,,,,,,,,,,,,,,,,,,,,,,,,,,481.0431876000948,None,153.8930516681146,5.0,0.0008277719269625906,1,"[0.40691297457098496, 0.5428388166293261, 0.7110403219622606, 0.5131071731643636]","[387.7861904584338, 307.7861033362292, 244.2899921085616, 193.8930952292169]",Major_3rd,"[10.0, 11.634060966657366, 9.0, 6.547681486333655]",False,482.05866780004,484.7364229001105,484.7364229001105,485.94799930008594,['space'],1,3.1918897998984903,4.208673399873078,None,1,None,1,[0.672700599883683],,,,,,,,,,,,,ddmfvc,001,fr,0,0,2022-05-05_10h34.05.823,Cluster,2022.1.1,36.51984835093601,
,,,,2,0,2,0,12,0,12,0,,,frequency,,,,,,,,,,,,,,,,,,,,,,,,,,,,,,,,,,,,,,,,,,,,,,,,,,,,,,,,,,,,,,,,,,,,,,,,,,,,,,,,,,,,,,,,,,,,,,,,,,,,,,,,,,,,,,,,,,,486.311359000043,None,131.3072339182462,6.0,0.001329977496501036,1,"[0.47317675090913114, 0.567355662493731, 0.7922744241331576, 0.5801283260676533]","[208.4372412528585, 185.6964710448803, 165.43674801706848, 147.38738674171262]",Tone,"[7.0, 6.547681486333655, 7.6093112597021735, 10.0]",False,487.3201788000297,490.1930081000319,490.1930081000319,491.4195459000766,['space'],1,3.455165799940005,4.483322599902749,None,1,None,1,[0.6491524998564273],,,,,,,,,,,,,ddmfvc,001,fr,0,0,2022-05-05_10h34.05.823,Cluster,2022.1.1,36.51984835093601,
,,,,2,0,2,0,13,0,13,0,,,both,,,,,,,,,,,,,,,,,,,,,,,,,,,,,,,,,,,,,,,,,,,,,,,,,,,,,,,,,,,,,,,,,,,,,,,,,,,,,,,,,,,,,,,,,,,,,,,,,,,,,,,,,,,,,,,,,,,491.840390700032,None,153.8930516681146,11.0,0.0016516221312576293,1,"[0.611337181504189, 0.611337181504189, 0.611337181504189, 0.611337181504189]","[775.5723809168677, 517.632461920689, 345.4782199919442, 230.5790483964849]",Perfect_5th,"[5.4928901646508494, 6.0, 11.008027259455613, 8.626180643476042]",False,492.8771291000303,495.7248520000139,495.7248520000139,496.94977180007845,['space'],1,3.4711856998037547,4.477021499769762,None,1,None,1,[0.5155596998520195],,,,,,,,,,,,,ddmfvc,001,fr,0,0,2022-05-05_10h34.05.823,Cluster,2022.1.1,36.51984835093601,
,,,,2,0,2,0,14,0,14,0,,,time,,,,,,,,,,,,,,,,,,,,,,,,,,,,,,,,,,,,,,,,,,,,,,,,,,,,,,,,,,,,,,,,,,,,,,,,,,,,,,,,,,,,,,,,,,,,,,,,,,,,,,,,,,,,,,,,,,,497.3983674000483,None,4990.318424013544,-7.151755525513447,6.675504003747063e-05,1,"[0.7569859310085418, 0.7569859310085418, 0.7569859310085418, 0.7569859310085418]","[1136.7437801926912, 1059.2134109871345, 549.4630292256865, 5599.8887692360395]",None,"[4.128892000811312, 4.793322612308798, 5.407565608342791, -1.4891035780236894]",False,498.3944342000177,501.68602850008756,501.68602850008756,502.906090100063,['space'],1,4.0541856999043375,5.082509099855088,None,1,None,1,[0.5924356998875737],,,,,,,,,,,,,ddmfvc,001,fr,0,0,2022-05-05_10h34.05.823,Cluster,2022.1.1,36.51984835093601,
,,,,2,0,2,0,15,0,15,0,,,time,,,,,,,,,,,,,,,,,,,,,,,,,,,,,,,,,,,,,,,,,,,,,,,,,,,,,,,,,,,,,,,,,,,,,,,,,,,,,,,,,,,,,,,,,,,,,,,,,,,,,,,,,,,,,,,,,,,503.5097326000687,None,,,,,"[0.705378749239293, 0.705378749239293, 0.705378749239293, 0.705378749239293]","[144.4641625156977, 289.3096060669228, 4860.073259443006, 216.81667093373687]",None,"[10.369950949930363, 11.347902014810314, -1.0000000000000009, 7.60008055091731]",True,504.50448330002837,507.6584274000488,507.6584274000488,508.8740629000822,None,1,3.8543229999486357,4.8567981999367476,None,1,None,1,,0,,,,,,,,,,,,ddmfvc,001,fr,0,0,2022-05-05_10h34.05.823,Cluster,2022.1.1,36.51984835093601,
,,,,2,0,2,0,16,0,16,0,,,none,,,,,,,,,,,,,,,,,,,,,,,,,,,,,,,,,,,,,,,,,,,,,,,,,,,,,,,,,,,,,,,,,,,,,,,,,,,,,,,,,,,,,,,,,,,,,,,,,,,,,,,,,,,,,,,,,,,509.38705580006354,None,1624.5047927124701,1.0,6.491663098207682e-05,1,"[0.4508233654070477, 0.6629082628064562, 0.5328079029109697, 0.5028715933715868]","[6322.371454336379, 1245.0124111523437, 257.12559317227135, 1517.8339174624614]",None,"[0.0, 3.3545531425588218, 10.0, 1.2666537820771984]",False,510.4772733000573,513.1568603001069,513.1568603001069,514.3725706000114,['space'],1,3.175326499971561,4.1781119998777285,None,1,None,1,[0.5186642998596653],,,,,,,,,,,,,ddmfvc,001,fr,0,0,2022-05-05_10h34.05.823,Cluster,2022.1.1,36.51984835093601,
,,,,2,0,2,0,17,0,17,0,,,frequency,,,,,,,,,,,,,,,,,,,,,,,,,,,,,,,,,,,,,,,,,,,,,,,,,,,,,,,,,,,,,,,,,,,,,,,,,,,,,,,,,,,,,,,,,,,,,,,,,,,,,,,,,,,,,,,,,,,514.7078731000656,None,4924.577653379667,-1.0,0.0001315099195278041,1,"[0.7735095154377957, 0.43151041186473005, 0.6538878310419545, 0.7145073965326181]","[7817.279747473972, 6964.404506368996, 6204.579047334942, 5527.651519871107]",Tone,"[3.903422065845511, 1.480832168998898, -0.8146955877309914, -1.4891035780236894]",False,515.7149252000963,518.6136269000126,518.6136269000126,519.8276417000452,['space'],1,3.6032792000332847,4.608499499969184,None,1,None,1,[0.4914103999035433],,,,,,,,,,,,,ddmfvc,001,fr,0,0,2022-05-05_10h34.05.823,Cluster,2022.1.1,36.51984835093601,
,,,,2,0,2,0,18,0,18,0,,,both,,,,,,,,,,,,,,,,,,,,,,,,,,,,,,,,,,,,,,,,,,,,,,,,,,,,,,,,,,,,,,,,,,,,,,,,,,,,,,,,,,,,,,,,,,,,,,,,,,,,,,,,,,,,,,,,,,,520.3661891000811,None,259.54952987919324,4.0,0.00024940808341953463,1,"[0.7928243867470365, 0.7928243867470365, 0.7928243867470365, 0.7928243867470365]","[163.5059580925569, 183.52923263135793, 206.00459838404146, 231.23234346330094]",Tone,"[7.6093112597021735, 6.547681486333655, 7.0, 8.626180643476042]",False,521.3621333000483,524.7791509000817,524.7791509000817,525.986712800106,['space'],1,4.221718100016005,5.22522130003199,None,1,None,1,[0.49742319993674755],,,,,,,,,,,,,ddmfvc,001,fr,0,0,2022-05-05_10h34.05.823,Cluster,2022.1.1,36.51984835093601,
,,,,2,0,2,0,19,0,19,0,,,none,,,,,,,,,,,,,,,,,,,,,,,,,,,,,,,,,,,,,,,,,,,,,,,,,,,,,,,,,,,,,,,,,,,,,,,,,,,,,,,,,,,,,,,,,,,,,,,,,,,,,,,,,,,,,,,,,,,526.6184279000154,None,291.1029414091807,5.347902014810314,0.00022940306503928484,1,"[0.7826224918372282, 0.5024340232255968, 0.7192644103675433, 0.4720830945019823]","[3148.08992039024, 6008.224398565235, 423.90973058769816, 909.3586553960937]",None,"[9.0, -0.8146955877309914, 8.06241833369221, 5.624054758446669]",False,527.637753100018,530.6701289000921,530.6701289000921,531.8819711001124,['space'],1,3.5208890000358224,4.546426499960944,None,1,None,1,[0.473015199881047],,,,,,,,,,,,,ddmfvc,001,fr,0,0,2022-05-05_10h34.05.823,Cluster,2022.1.1,36.51984835093601,
,,,,3,0,3,0,0,0,0,0,,,frequency,,,,,,,,,,,,,,,,,,,,,,,,,,,,,,,,,,,,,,,,,,,,,,,,,,,,,,,,,,,,,,,,,,,,,,,,,,,,,,,,,,,,,,,,,,,,,,,,,,,,,,,,,,,,,,,,,,,557.7119000001112,None,,,,,"[0.6175434109633557, 0.5651745592040534, 0.6680620954118076, 0.46272225442365855]","[340.06462441888084, 269.90947126985105, 214.22728931497102, 170.0323122094404]",Major_3rd,"[11.513616445785994, 10.6749502582452, 7.60008055091731, 7.0]",True,558.70328970009,561.5871849000687,561.5871849000687,562.8039326000726,None,1,3.342437000130303,4.3735035001300275,None,1,None,1,,0,,,,,,,,,,,,ddmfvc,001,fr,0,0,2022-05-05_10h34.05.823,Cluster,2022.1.1,36.51984835093601,
,,,,3,0,3,0,1,0,1,0,,,none,,,,,,,,,,,,,,,,,,,,,,,,,,,,,,,,,,,,,,,,,,,,,,,,,,,,,,,,,,,,,,,,,,,,,,,,,,,,,,,,,,,,,,,,,,,,,,,,,,,,,,,,,,,,,,,,,,,563.1026700000511,None,933.0329915368076,-6.0,2.112459967719075e-05,0,"[0.5767033544232876, 0.6418098469030278, 0.4229443582559951, 0.5982538365786291]","[237.46066291652156, 6457.821775824043, 1021.773583092233, 294.0700924995711]",None,"[9.0, 0.23521728604462666, 5.0, 11.347902014810314]",False,564.1277715000324,566.7937974000815,566.7937974000815,568.0088557000272,None,0,3.2656787999439985,4.288989799912088,None,1,None,1,,,,,,,,,,,,,,ddmfvc,001,fr,0,0,2022-05-05_10h34.05.823,Cluster,2022.1.1,36.51984835093601,
,,,,3,0,3,0,2,0,2,0,,,both,,,,,,,,,,,,,,,,,,,,,,,,,,,,,,,,,,,,,,,,,,,,,,,,,,,,,,,,,,,,,,,,,,,,,,,,,,,,,,,,,,,,,,,,,,,,,,,,,,,,,,,,,,,,,,,,,,,568.4621700000716,None,1319.5079107728945,-4.0,3.3304181786869376e-05,1,"[0.5969975153357792, 0.5969975153357792, 0.5969975153357792, 0.5969975153357792]","[831.2378961427878, 933.0329915368075, 1047.2941228206269, 1175.5479062836089]",Tone,"[5.687378023881542, 5.624054758446669, 5.0, 4.0]",False,569.4730475000106,572.3097530000377,572.3097530000377,573.5279202000238,['space'],1,3.428910799906589,4.435513200005516,None,1,None,1,[0.7628993999678642],,,,,,,,,,,,,ddmfvc,001,fr,0,0,2022-05-05_10h34.05.823,Cluster,2022.1.1,36.51984835093601,
,,,,3,0,3,0,3,0,3,0,,,time,,,,,,,,,,,,,,,,,,,,,,,,,,,,,,,,,,,,,,,,,,,,,,,,,,,,,,,,,,,,,,,,,,,,,,,,,,,,,,,,,,,,,,,,,,,,,,,,,,,,,,,,,,,,,,,,,,,573.9561240000185,None,329.87697769322364,-2.0,7.52697013181096e-05,0,"[0.7267379032682361, 0.7267379032682361, 0.7267379032682361, 0.7267379032682361]","[618.6495099365337, 127.34996071243138, 1399.2445342597046, 222.94011327487382]",None,"[4.897056990734846, 13.0, 2.0, 8.0]",False,574.9863131000893,578.1852122000419,578.1852122000419,579.3951598000713,None,0,3.929747899994254,4.958204100024886,None,1,None,1,,,,,,,,,,,,,,ddmfvc,001,fr,0,0,2022-05-05_10h34.05.823,Cluster,2022.1.1,36.51984835093601,
,,,,3,0,3,0,4,0,4,0,,,time,,,,,,,,,,,,,,,,,,,,,,,,,,,,,,,,,,,,,,,,,,,,,,,,,,,,,,,,,,,,,,,,,,,,,,,,,,,,,,,,,,,,,,,,,,,,,,,,,,,,,,,,,,,,,,,,,,,579.9838138000341,None,,,,,"[0.5979040892368372, 0.5979040892368372, 0.5979040892368372, 0.5979040892368372]","[138.53883901520518, 1079.499075476861, 2881.1350835048975, 537.7046232447345]",None,"[11.0, 4.793322612308798, 9.112124997758599, 5.407565608342791]",True,580.9951464000624,583.8200114000356,583.8200114000356,585.0354318000609,None,1,3.439618699834682,4.4465419999323785,None,1,None,1,,0,,,,,,,,,,,,ddmfvc,001,fr,0,0,2022-05-05_10h34.05.823,Cluster,2022.1.1,36.51984835093601,
,,,,3,0,3,0,5,0,5,0,,,none,,,,,,,,,,,,,,,,,,,,,,,,,,,,,,,,,,,,,,,,,,,,,,,,,,,,,,,,,,,,,,,,,,,,,,,,,,,,,,,,,,,,,,,,,,,,,,,,,,,,,,,,,,,,,,,,,,,585.4848905000836,None,480.76179763728373,0.9937914451767409,8.120715798606196e-05,1,"[0.532202613565893, 0.47598578213731174, 0.5919364175052876, 0.6610917868911161]","[261.8123734533345, 1972.9935564131931, 3898.249435329628, 252.58440577748368]",None,"[10.6749502582452, 2.85462562250569, 4.0, 9.716698867869631]",False,586.489225700032,589.1278172000311,589.1278172000311,590.3187755000545,['space'],1,3.294298500055447,4.3179977000691,None,1,None,1,[0.6480804999591783],,,,,,,,,,,,,ddmfvc,001,fr,0,0,2022-05-05_10h34.05.823,Cluster,2022.1.1,36.51984835093601,
,,,,3,0,3,0,6,0,6,0,,,both,,,,,,,,,,,,,,,,,,,,,,,,,,,,,,,,,,,,,,,,,,,,,,,,,,,,,,,,,,,,,,,,,,,,,,,,,,,,,,,,,,,,,,,,,,,,,,,,,,,,,,,,,,,,,,,,,,,590.8441181000089,None,166.30111091835403,1.6093112597021733,0.00046718693166540636,0,"[0.6571993559158872, 0.6571993559158872, 0.6571993559158872, 0.6571993559158872]","[263.98655841527545, 235.18528649844868, 209.52627026693636, 186.6666855975399]",Tone,"[10.6749502582452, 8.626180643476042, 7.0, 6.547681486333655]",False,591.8557334000943,594.8448843000224,594.8448843000224,596.0587605000474,None,0,3.6830044998787344,4.700778199941851,None,1,None,1,,,,,,,,,,,,,,ddmfvc,001,fr,0,0,2022-05-05_10h34.05.823,Cluster,2022.1.1,36.51984835093601,
,,,,3,0,3,0,7,0,7,0,,,both,,,,,,,,,,,,,,,,,,,,,,,,,,,,,,,,,,,,,,,,,,,,,,,,,,,,,,,,,,,,,,,,,,,,,,,,,,,,,,,,,,,,,,,,,,,,,,,,,,,,,,,,,,,,,,,,,,,596.5915677000303,None,500.0,-4.0,4.507855688029785e-05,0,"[0.45450348437647164, 0.45450348437647164, 0.45450348437647164, 0.45450348437647164]","[1259.9210498948732, 1000.0000000000001, 793.7005259840998, 629.9605249474366]",Major_3rd,"[3.0, 5.306476951059075, 5.687378023881542, 4.897056990734846]",False,598.4585867000278,600.8518657000968,600.8518657000968,602.064460500027,None,0,2.83046809991356,3.86205599992536,None,1,None,1,,,,,,,,,,,,,,ddmfvc,001,fr,0,0,2022-05-05_10h34.05.823,Cluster,2022.1.1,36.51984835093601,
,,,,3,0,3,0,8,0,8,0,,,frequency,,,,,,,,,,,,,,,,,,,,,,,,,,,,,,,,,,,,,,,,,,,,,,,,,,,,,,,,,,,,,,,,,,,,,,,,,,,,,,,,,,,,,,,,,,,,,,,,,,,,,,,,,,,,,,,,,,,602.3681747000664,None,2667.384143225762,2.439616362994944,9.997497823931747e-05,1,"[0.5322653610259764, 0.6112933321639615, 0.7417079873398422, 0.5930957975389066]","[6721.386860411879, 5334.768286451525, 4234.208394959869, 3360.6934302059385]",Major_3rd,"[1.0, -1.6284079652419363, 2.0, 8.0]",False,603.3828745000064,606.2837895000121,606.2837895000121,607.4984835000942,['space'],1,3.504460299969651,4.531471300055273,None,1,None,1,[0.47301039996091276],,,,,,,,,,,,,ddmfvc,001,fr,0,0,2022-05-05_10h34.05.823,Cluster,2022.1.1,36.51984835093601,
,,,,3,0,3,0,9,0,9,0,,,time,,,,,,,,,,,,,,,,,,,,,,,,,,,,,,,,,,,,,,,,,,,,,,,,,,,,,,,,,,,,,,,,,,,,,,,,,,,,,,,,,,,,,,,,,,,,,,,,,,,,,,,,,,,,,,,,,,,607.9527019000379,None,5896.505786521476,-7.0,5.34618700373869e-05,0,"[0.6057168054771428, 0.6057168054771428, 0.6057168054771428, 0.6057168054771428]","[1014.6218193031356, 5500.228075084843, 3082.268485835918, 6419.333999813907]",None,"[5.306476951059075, -1.4891035780236894, 9.0, 0.0]",False,608.96814370004,611.8080838000169,611.8080838000169,613.0308209001087,None,0,3.446295899921097,4.452017299947329,None,1,None,1,,,,,,,,,,,,,,ddmfvc,001,fr,0,0,2022-05-05_10h34.05.823,Cluster,2022.1.1,36.51984835093601,
,,,,3,0,3,0,10,0,10,0,,,none,,,,,,,,,,,,,,,,,,,,,,,,,,,,,,,,,,,,,,,,,,,,,,,,,,,,,,,,,,,,,,,,,,,,,,,,,,,,,,,,,,,,,,,,,,,,,,,,,,,,,,,,,,,,,,,,,,,613.4561844000127,None,,,,,"[0.7943471392447135, 0.5442952178723618, 0.5327810598460749, 0.6825036524204557]","[709.8620243039048, 1663.5191050067676, 359.8696885506112, 3519.804604757091]",None,"[5.23313629654465, 1.0254998596726566, 11.0, 7.0]",True,614.470387600013,617.3776348000392,617.3776348000392,618.5921512000496,None,1,3.6084516000701115,4.6217409000964835,None,1,None,1,,0,,,,,,,,,,,,ddmfvc,001,fr,0,0,2022-05-05_10h34.05.823,Cluster,2022.1.1,36.51984835093601,
,,,,3,0,3,0,11,0,11,0,,,none,,,,,,,,,,,,,,,,,,,,,,,,,,,,,,,,,,,,,,,,,,,,,,,,,,,,,,,,,,,,,,,,,,,,,,,,,,,,,,,,,,,,,,,,,,,,,,,,,,,,,,,,,,,,,,,,,,,619.1180089000845,None,8000.0,-4.0,0.00011454338263838867,0,"[0.7110432122183346, 0.5894430092896787, 0.69064760999793, 0.4873188967788733]","[2843.7110668916753, 172.65820857284913, 154.35566423356883, 1052.654255825123]",None,"[9.112124997758599, 7.0, 8.863572288142883, 5.0]",False,620.1417493000627,623.1563681000844,623.1563681000844,624.355699100066,None,0,3.5130338998278603,4.527521799784154,None,1,None,1,,,,,,,,,,,,,,ddmfvc,001,fr,0,0,2022-05-05_10h34.05.823,Cluster,2022.1.1,36.51984835093601,
,,,,3,0,3,0,12,0,12,0,,,frequency,,,,,,,,,,,,,,,,,,,,,,,,,,,,,,,,,,,,,,,,,,,,,,,,,,,,,,,,,,,,,,,,,,,,,,,,,,,,,,,,,,,,,,,,,,,,,,,,,,,,,,,,,,,,,,,,,,,624.7130744000897,None,1414.213562373095,-2.0,4.005983164181629e-05,1,"[0.7803642763141303, 0.7705898604006841, 0.6418860746906887, 0.632390133425009]","[2244.9240966187467, 2000.0000000000005, 1781.797436280679, 1587.4010519681997]",Tone,"[5.0, 2.85462562250569, 1.1898294073388112, 1.0254998596726566]",False,625.7184839000693,628.9285578000126,628.9285578000126,630.1415387000889,['space'],1,3.8496086999075487,4.85588489996735,None,1,['space'],0,[0.40089809987694025],,[-3.9630776001140475],,,,,,,,,,,ddmfvc,001,fr,0,0,2022-05-05_10h34.05.823,Cluster,2022.1.1,36.51984835093601,
,,,,3,0,3,0,13,0,13,0,,,both,,,,,,,,,,,,,,,,,,,,,,,,,,,,,,,,,,,,,,,,,,,,,,,,,,,,,,,,,,,,,,,,,,,,,,,,,,,,,,,,,,,,,,,,,,,,,,,,,,,,,,,,,,,,,,,,,,,630.6236036000773,None,405.96761083614854,3.17166637567039,0.00010985504852401532,1,"[0.7207036686927015, 0.7207036686927015, 0.7207036686927015, 0.7207036686927015]","[1022.9742769359873, 811.9352216722972, 644.4334125063189, 511.4871384679936]",Major_3rd,"[5.0, 5.687378023881542, 4.99930533297728, 6.0]",False,631.6196084000403,634.8046189000597,634.8046189000597,636.0167678000871,['space'],1,3.9348927000537515,4.939450000063516,None,1,None,1,[0.4777516999747604],,,,,,,,,,,,,ddmfvc,001,fr,0,0,2022-05-05_10h34.05.823,Cluster,2022.1.1,36.51984835093601,
,,,,3,0,3,0,14,0,14,0,,,none,,,,,,,,,,,,,,,,,,,,,,,,,,,,,,,,,,,,,,,,,,,,,,,,,,,,,,,,,,,,,,,,,,,,,,,,,,,,,,,,,,,,,,,,,,,,,,,,,,,,,,,,,,,,,,,,,,,636.5981712000212,None,7661.9799250921615,-3.0,0.00012126603957345688,1,"[0.6545067375662144, 0.4893334459132014, 0.6989334531486938, 0.41572616597615086]","[428.4494707341395, 252.7656795584425, 734.579476968609, 135.48335679037172]",None,"[8.06241833369221, 10.0, 5.4928901646508494, 11.876763562060933]",False,637.5916804000735,640.45022410003,640.45022410003,641.6714678000426,['space'],1,3.2946382999652997,4.298490699962713,None,1,None,1,[0.4916455999482423],,,,,,,,,,,,,ddmfvc,001,fr,0,0,2022-05-05_10h34.05.823,Cluster,2022.1.1,36.51984835093601,
,,,,3,0,3,0,15,0,15,0,,,time,,,,,,,,,,,,,,,,,,,,,,,,,,,,,,,,,,,,,,,,,,,,,,,,,,,,,,,,,,,,,,,,,,,,,,,,,,,,,,,,,,,,,,,,,,,,,,,,,,,,,,,,,,,,,,,,,,,641.922237800085,None,,,,,"[0.44046364256947707, 0.44046364256947707, 0.44046364256947707, 0.44046364256947707]","[494.7923439286303, 399.2329065375953, 1440.0445276940407, 7627.197056992385]",None,"[6.081850458640543, 9.171666375670391, 1.8109081932435442, 3.0]",True,642.9377574000973,645.2766611000989,645.2766611000989,646.485889100004,['space'],0,2.794182699872181,3.823156099882908,None,1,None,1,[0.6037966998992488],0,,,,,,,,,,,,ddmfvc,001,fr,0,0,2022-05-05_10h34.05.823,Cluster,2022.1.1,36.51984835093601,
,,,,3,0,3,0,16,0,16,0,,,both,,,,,,,,,,,,,,,,,,,,,,,,,,,,,,,,,,,,,,,,,,,,,,,,,,,,,,,,,,,,,,,,,,,,,,,,,,,,,,,,,,,,,,,,,,,,,,,,,,,,,,,,,,,,,,,,,,,646.791318200063,None,125.0,9.0,0.0020369013890205647,1,"[0.4937395914670206, 0.4937395914670206, 0.4937395914670206, 0.4937395914670206]","[198.42513149602502, 176.77669529663694, 157.49013123685918, 140.30775603867164]",Tone,"[6.847316394817064, 6.800380026165427, 8.863572288142883, 11.0]",False,647.8833018000005,650.3954397001071,650.3954397001071,651.5968030000804,['space'],1,3.0050260999705642,4.031849100021645,None,1,None,1,[0.4552859999239445],,,,,,,,,,,,,ddmfvc,001,fr,0,0,2022-05-05_10h34.05.823,Cluster,2022.1.1,36.51984835093601,
,,,,3,0,3,0,17,0,17,0,,,none,,,,,,,,,,,,,,,,,,,,,,,,,,,,,,,,,,,,,,,,,,,,,,,,,,,,,,,,,,,,,,,,,,,,,,,,,,,,,,,,,,,,,,,,,,,,,,,,,,,,,,,,,,,,,,,,,,,651.958159300033,None,659.7539553864473,-4.0,3.0636414623792164e-05,0,"[0.42043449620825135, 0.4077208134058082, 0.779543018853214, 0.6475145485738991]","[313.3725561568548, 422.4772812870098, 1672.7615232277644, 2837.5979548375863]",None,"[11.634060966657366, 9.0, 1.0254998596726566, 9.112124997758599]",False,652.9913613001117,655.6208811000688,655.6208811000688,656.8502308001043,None,0,3.263152100145817,4.281492900103331,None,1,None,1,,,,,,,,,,,,,,ddmfvc,001,fr,0,0,2022-05-05_10h34.05.823,Cluster,2022.1.1,36.51984835093601,
,,,,3,0,3,0,18,0,18,0,,,frequency,,,,,,,,,,,,,,,,,,,,,,,,,,,,,,,,,,,,,,,,,,,,,,,,,,,,,,,,,,,,,,,,,,,,,,,,,,,,,,,,,,,,,,,,,,,,,,,,,,,,,,,,,,,,,,,,,,,657.3267238000408,None,1683.3673231894825,-4.810170592661189,3.478190132803819e-05,1,"[0.6131209060670236, 0.7008906605841001, 0.4198074504524242, 0.5851259982076269]","[334.0223824599846, 500.46809947500446, 749.8548951944222, 1123.512896100425]",Perfect_5th,"[11.513616445785994, 6.081850458640543, 5.4928901646508494, 4.128892000811312]",False,658.3197394000599,661.0663152000634,661.0663152000634,662.2763755000196,['space'],1,3.3519801000365987,4.377599500119686,None,1,None,1,[0.5191989998565987],,,,,,,,,,,,,ddmfvc,001,fr,0,0,2022-05-05_10h34.05.823,Cluster,2022.1.1,36.51984835093601,
,,,,3,0,3,0,19,0,19,0,,,time,,,,,,,,,,,,,,,,,,,,,,,,,,,,,,,,,,,,,,,,,,,,,,,,,,,,,,,,,,,,,,,,,,,,,,,,,,,,,,,,,,,,,,,,,,,,,,,,,,,,,,,,,,,,,,,,,,,662.7337450000923,None,,,,,"[0.5397608062809687, 0.5397608062809687, 0.5397608062809687, 0.5397608062809687]","[333.6059204045476, 399.8258049506259, 3847.884964887023, 3193.065578835914]",None,"[11.513616445785994, 9.171666375670391, 5.0, 8.469750195397058]",True,663.7465330000268,666.4063838000875,666.4063838000875,667.6300449999981,None,1,3.2078072000294924,4.219020000076853,None,1,None,1,,0,,,,,,,,,,,,ddmfvc,001,fr,0,0,2022-05-05_10h34.05.823,Cluster,2022.1.1,36.51984835093601,
,,,,4,0,4,0,0,0,0,0,,,frequency,,,,,,,,,,,,,,,,,,,,,,,,,,,,,,,,,,,,,,,,,,,,,,,,,,,,,,,,,,,,,,,,,,,,,,,,,,,,,,,,,,,,,,,,,,,,,,,,,,,,,,,,,,,,,,,,,,,695.4373770001112,None,574.3491774985172,-3.0,4.236786401426487e-05,0,"[0.6010910036832654, 0.4899472708466208, 0.43647205520917287, 0.7806475231915484]","[361.81730936009427, 406.1261981781175, 455.8612442791081, 511.68694599838716]",Tone,"[11.0, 9.171666375670391, 7.0, 6.0]",False,696.4339274000376,698.992800100008,698.992800100008,700.1931932000443,None,0,3.340410199947655,4.362427899963222,None,1,None,1,,,,,,,,,,,,,,ddmfvc,001,fr,0,0,2022-05-05_10h34.05.823,Cluster,2022.1.1,36.51984835093601,
,,,,4,0,4,0,1,0,1,0,,,frequency,,,,,,,,,,,,,,,,,,,,,,,,,,,,,,,,,,,,,,,,,,,,,,,,,,,,,,,,,,,,,,,,,,,,,,,,,,,,,,,,,,,,,,,,,,,,,,,,,,,,,,,,,,,,,,,,,,,700.8377530000871,None,1479.1421091566403,-4.733346217922802,2.830960554311306e-05,0,"[0.5183059348666088, 0.5837587813380811, 0.48445697585705044, 0.6798862843081892]","[2347.9917400857125, 2091.822831446466, 1863.6022791123517, 1660.2808815846088]",Tone,"[6.0, 4.0, 1.803590307524745, 1.0254998596726566]",False,701.8360003000125,704.4376172000775,704.4376172000775,705.6403284000698,None,0,3.30695149989333,4.320350399939343,None,1,None,1,,,,,,,,,,,,,,ddmfvc,001,fr,0,0,2022-05-05_10h34.05.823,Cluster,2022.1.1,36.51984835093601,
,,,,4,0,4,0,2,0,2,0,,,both,,,,,,,,,,,,,,,,,,,,,,,,,,,,,,,,,,,,,,,,,,,,,,,,,,,,,,,,,,,,,,,,,,,,,,,,,,,,,,,,,,,,,,,,,,,,,,,,,,,,,,,,,,,,,,,,,,,706.1901537000667,None,1897.0862760317098,-4.0,4.427106441542229e-05,1,"[0.5197297158127161, 0.5197297158127161, 0.5197297158127161, 0.5197297158127161]","[376.4295937808962, 564.0071243077313, 845.05586575914, 1266.1531840230705]",Perfect_5th,"[10.194900943411337, 5.016899083795806, 5.745764438707836, 3.0]",False,707.2057043000823,709.7942554000765,709.7942554000765,711.0045289000263,['space'],1,3.112724999897182,4.130591099848971,None,1,None,1,[0.451953399926424],,,,,,,,,,,,,ddmfvc,001,fr,0,0,2022-05-05_10h34.05.823,Cluster,2022.1.1,36.51984835093601,
,,,,4,0,4,0,3,0,3,0,,,none,,,,,,,,,,,,,,,,,,,,,,,,,,,,,,,,,,,,,,,,,,,,,,,,,,,,,,,,,,,,,,,,,,,,,,,,,,,,,,,,,,,,,,,,,,,,,,,,,,,,,,,,,,,,,,,,,,,711.3728961000452,None,408.0790387532475,3.17166637567039,0.00010969961207379571,1,"[0.5579338290233086, 0.6599189008921038, 0.43203731854850447, 0.465136389567747]","[808.4283035179623, 188.42426787315304, 669.2693047753802, 1469.1814518872434]",None,"[5.687378023881542, 6.547681486333655, 5.0, 1.2666537820771984]",False,712.374504800071,715.0496265001129,715.0496265001129,716.256227600039,['space'],1,3.1680332999676466,4.185691299964674,None,1,None,1,[0.5529969999333844],,,,,,,,,,,,,ddmfvc,001,fr,0,0,2022-05-05_10h34.05.823,Cluster,2022.1.1,36.51984835093601,
,,,,4,0,4,0,4,0,4,0,,,none,,,,,,,,,,,,,,,,,,,,,,,,,,,,,,,,,,,,,,,,,,,,,,,,,,,,,,,,,,,,,,,,,,,,,,,,,,,,,,,,,,,,,,,,,,,,,,,,,,,,,,,,,,,,,,,,,,,716.5984218000667,None,,,,,"[0.4126917644877828, 0.7091950118789521, 0.49055405145540965, 0.5890757503859368]","[1271.432473142172, 370.3657629042687, 416.18655279521545, 2527.754684727248]",None,"[3.0, 10.194900943411337, 9.0, 8.0]",True,717.614416000084,720.2471771000419,720.2471771000419,721.4732685000636,None,1,3.2434030999429524,4.258013999904506,None,1,None,1,,0,,,,,,,,,,,,ddmfvc,001,fr,0,0,2022-05-05_10h34.05.823,Cluster,2022.1.1,36.51984835093601,
,,,,4,0,4,0,5,0,5,0,,,time,,,,,,,,,,,,,,,,,,,,,,,,,,,,,,,,,,,,,,,,,,,,,,,,,,,,,,,,,,,,,,,,,,,,,,,,,,,,,,,,,,,,,,,,,,,,,,,,,,,,,,,,,,,,,,,,,,,721.9004573000129,None,3249.0095854249403,0.0,7.075723770535575e-05,1,"[0.7815764861200838, 0.7815764861200838, 0.7815764861200838, 0.7815764861200838]","[7275.340911674568, 1143.9579516171684, 176.56603985942354, 491.13576719421366]",None,"[2.0, 4.128892000811312, 6.800380026165427, 6.081850458640543]",False,722.9344245000975,726.3057094000978,726.3057094000978,727.5089014000259,['space'],1,4.151683500036597,5.166623699944466,None,1,None,1,[0.6280368999578059],,,,,,,,,,,,,ddmfvc,001,fr,0,0,2022-05-05_10h34.05.823,Cluster,2022.1.1,36.51984835093601,
,,,,4,0,4,0,6,0,6,0,,,frequency,,,,,,,,,,,,,,,,,,,,,,,,,,,,,,,,,,,,,,,,,,,,,,,,,,,,,,,,,,,,,,,,,,,,,,,,,,,,,,,,,,,,,,,,,,,,,,,,,,,,,,,,,,,,,,,,,,,728.1454887000145,None,353.5533905932738,-3.0,6.273272561452762e-05,0,"[0.7724566773291817, 0.717544393545692, 0.4836080868888618, 0.44336240381153874]","[222.72467953508485, 250.00000000000003, 280.6155120773433, 314.9802624737183]",Tone,"[8.0, 9.716698867869631, 11.0, 11.634060966657366]",False,729.160003200057,732.1716282000998,732.1716282000998,733.3758090001065,None,0,3.4265332999639213,4.446664500050247,None,1,None,1,,,,,,,,,,,,,,ddmfvc,001,fr,0,0,2022-05-05_10h34.05.823,Cluster,2022.1.1,36.51984835093601,
,,,,4,0,4,0,7,0,7,0,,,none,,,,,,,,,,,,,,,,,,,,,,,,,,,,,,,,,,,,,,,,,,,,,,,,,,,,,,,,,,,,,,,,,,,,,,,,,,,,,,,,,,,,,,,,,,,,,,,,,,,,,,,,,,,,,,,,,,,733.6585018000333,None,2297.3967099940687,3.0,0.00011498656915782863,1,"[0.4700952853422456, 0.5429019544753092, 0.7899770104040078, 0.5644016949005969]","[5511.584116596476, 580.6050043904723, 979.0909833284962, 1174.9976403469168]",None,"[-1.4891035780236894, 5.0, 5.306476951059075, 4.0]",False,734.678639800055,737.5181806000182,737.5181806000182,738.7498947000131,['space'],1,3.4038576998282224,4.430504799936898,None,1,None,1,[0.5918415999040008],,,,,,,,,,,,,ddmfvc,001,fr,0,0,2022-05-05_10h34.05.823,Cluster,2022.1.1,36.51984835093601,
,,,,4,0,4,0,8,0,8,0,,,frequency,,,,,,,,,,,,,,,,,,,,,,,,,,,,,,,,,,,,,,,,,,,,,,,,,,,,,,,,,,,,,,,,,,,,,,,,,,,,,,,,,,,,,,,,,,,,,,,,,,,,,,,,,,,,,,,,,,,739.1501788001042,None,1459.381735699126,-4.189091806756456,3.0443100948672445e-05,0,"[0.745507758069964, 0.4329993467373247, 0.7768342944971635, 0.6390289514480317]","[289.57801280899616, 433.8767858996053, 650.0806588058874, 974.0204516295165]",Perfect_5th,"[11.347902014810314, 8.06241833369221, 4.99930533297728, 5.306476951059075]",False,740.1462542000227,743.1161295000929,743.1161295000929,744.3456838000566,None,0,3.6254926999099553,4.650200599920936,None,1,None,1,,,,,,,,,,,,,,ddmfvc,001,fr,0,0,2022-05-05_10h34.05.823,Cluster,2022.1.1,36.51984835093601,
,,,,4,0,4,0,9,0,9,0,,,none,,,,,,,,,,,,,,,,,,,,,,,,,,,,,,,,,,,,,,,,,,,,,,,,,,,,,,,,,,,,,,,,,,,,,,,,,,,,,,,,,,,,,,,,,,,,,,,,,,,,,,,,,,,,,,,,,,,744.8345821000403,None,2872.102994369196,3.1121249977585994,8.981956388762984e-05,0,"[0.6182982956506451, 0.5759595245804088, 0.4012016850650755, 0.7283486502749217]","[6753.076479187312, 240.47735509745928, 2921.8487124253943, 179.02428619829737]",None,"[1.0, 9.0, 9.112124997758599, 6.800380026165427]",False,745.8478108000709,748.4619410000741,748.4619410000741,749.6807311000302,None,0,3.356177900102921,4.383958300109953,None,1,None,1,,,,,,,,,,,,,,ddmfvc,001,fr,0,0,2022-05-05_10h34.05.823,Cluster,2022.1.1,36.51984835093601,
,,,,4,0,4,0,10,0,10,0,,,none,,,,,,,,,,,,,,,,,,,,,,,,,,,,,,,,,,,,,,,,,,,,,,,,,,,,,,,,,,,,,,,,,,,,,,,,,,,,,,,,,,,,,,,,,,,,,,,,,,,,,,,,,,,,,,,,,,,750.2683499000268,None,125.0,9.0,0.0020369013890205647,0,"[0.7370131536156452, 0.47092303665833307, 0.6114805061852533, 0.5840372215864154]","[7158.033218028905, 678.0260789488326, 1901.887196929389, 4660.220476069046]",None,"[2.0, 5.0, 2.0, -0.05668281329649982]",False,752.8085551999975,755.6662661000155,755.6662661000155,756.8970360000385,None,0,3.453053599805571,4.480994399753399,None,1,None,1,,,,,,,,,,,,,,ddmfvc,001,fr,0,0,2022-05-05_10h34.05.823,Cluster,2022.1.1,36.51984835093601,
,,,,4,0,4,0,11,0,11,0,,,both,,,,,,,,,,,,,,,,,,,,,,,,,,,,,,,,,,,,,,,,,,,,,,,,,,,,,,,,,,,,,,,,,,,,,,,,,,,,,,,,,,,,,,,,,,,,,,,,,,,,,,,,,,,,,,,,,,,757.3200315000722,None,2828.42712474619,-4.0,4.131885137928784e-05,0,"[0.6460711142739151, 0.6460711142739151, 0.6460711142739151, 0.6460711142739151]","[4489.848193237493, 4000.000000000001, 3563.594872561358, 3174.8021039363994]",Tone,"[0.0, 3.4589661902529443, 7.0, 8.469750195397058]",False,758.3489894000813,761.3264263001038,761.3264263001038,762.5525017000036,None,0,3.6209223000332713,4.654370600124821,None,1,None,1,,,,,,,,,,,,,,ddmfvc,001,fr,0,0,2022-05-05_10h34.05.823,Cluster,2022.1.1,36.51984835093601,
,,,,4,0,4,0,12,0,12,0,,,time,,,,,,,,,,,,,,,,,,,,,,,,,,,,,,,,,,,,,,,,,,,,,,,,,,,,,,,,,,,,,,,,,,,,,,,,,,,,,,,,,,,,,,,,,,,,,,,,,,,,,,,,,,,,,,,,,,,763.048976500053,None,713.568944242114,-0.7668637034553498,4.013195740039501e-05,1,"[0.6666301707751487, 0.6666301707751487, 0.6666301707751487, 0.6666301707751487]","[455.91642895788596, 369.0365427443896, 2831.382187105711, 7928.74677400197]",None,"[7.0, 10.194900943411337, 9.112124997758599, 3.903422065845511]",False,764.0453740000958,767.0797526000533,767.0797526000533,768.2966884000925,['space'],1,3.6915005000773817,4.712527700117789,None,1,None,1,[0.5523955998942256],,,,,,,,,,,,,ddmfvc,001,fr,0,0,2022-05-05_10h34.05.823,Cluster,2022.1.1,36.51984835093601,
,,,,4,0,4,0,13,0,13,0,,,none,,,,,,,,,,,,,,,,,,,,,,,,,,,,,,,,,,,,,,,,,,,,,,,,,,,,,,,,,,,,,,,,,,,,,,,,,,,,,,,,,,,,,,,,,,,,,,,,,,,,,,,,,,,,,,,,,,,768.7970558000961,None,,,,,"[0.48297640370308603, 0.7032888465794322, 0.61339819680819, 0.5189224712730718]","[144.01490278686646, 4034.3757100493794, 5469.105634656948, 348.3217954261306]",None,"[10.369950949930363, 3.0, -1.4891035780236894, 11.008027259455613]",True,769.7973829000257,772.619164200034,772.619164200034,773.853199300007,None,1,3.3701265000272542,4.3957754001021385,None,1,None,1,,0,,,,,,,,,,,,ddmfvc,001,fr,0,0,2022-05-05_10h34.05.823,Cluster,2022.1.1,36.51984835093601,
,,,,4,0,4,0,14,0,14,0,,,both,,,,,,,,,,,,,,,,,,,,,,,,,,,,,,,,,,,,,,,,,,,,,,,,,,,,,,,,,,,,,,,,,,,,,,,,,,,,,,,,,,,,,,,,,,,,,,,,,,,,,,,,,,,,,,,,,,,774.2326455001021,None,3062.7307495673563,3.0,8.582642622426591e-05,1,"[0.5210823437183214, 0.5210823437183214, 0.5210823437183214, 0.5210823437183214]","[4861.782013758574, 4331.355363935271, 3858.7989415402158, 3437.799030579476]",Tone,"[-1.0000000000000009, 1.5438401106294783, 4.0, 7.179895465996863]",False,775.2347553001018,777.8355490000686,777.8355490000686,779.0711336000822,['space'],1,3.1118087000213563,4.133447299944237,None,1,None,1,[0.7734972998732701],,,,,,,,,,,,,ddmfvc,001,fr,0,0,2022-05-05_10h34.05.823,Cluster,2022.1.1,36.51984835093601,
,,,,4,0,4,0,15,0,15,0,,,none,,,,,,,,,,,,,,,,,,,,,,,,,,,,,,,,,,,,,,,,,,,,,,,,,,,,,,,,,,,,,,,,,,,,,,,,,,,,,,,,,,,,,,,,,,,,,,,,,,,,,,,,,,,,,,,,,,,779.4238657000242,None,2914.9172749409645,3.1121249977585994,8.601252555703305e-05,1,"[0.5330168804858457, 0.5999074852962479, 0.4991786506307718, 0.6020815695745109]","[4542.2337560803335, 210.17015466592702, 1826.0222047276834, 1529.7895861339007]",None,"[0.0, 7.0, 1.803590307524745, 1.2666537820771984]",False,780.4463427000446,783.1065784000093,783.1065784000093,784.3161350000883,['space'],1,3.270274599897675,4.299741499940865,None,1,None,1,[0.5403388999402523],,,,,,,,,,,,,ddmfvc,001,fr,0,0,2022-05-05_10h34.05.823,Cluster,2022.1.1,36.51984835093601,
,,,,4,0,4,0,16,0,16,0,,,both,,,,,,,,,,,,,,,,,,,,,,,,,,,,,,,,,,,,,,,,,,,,,,,,,,,,,,,,,,,,,,,,,,,,,,,,,,,,,,,,,,,,,,,,,,,,,,,,,,,,,,,,,,,,,,,,,,,784.7983158000279,None,1000.0,-7.0,1.9677503772788864e-05,0,"[0.498642295877759, 0.498642295877759, 0.498642295877759, 0.498642295877759]","[629.9605249474365, 707.1067811865474, 793.7005259840997, 890.8987181403393]",Tone,"[4.897056990734846, 5.23313629654465, 5.687378023881542, 5.745764438707836]",False,785.8882601000369,788.4185098001035,788.4185098001035,789.625960500096,None,0,3.023006600094959,4.0420195000479,None,1,None,1,,,,,,,,,,,,,,ddmfvc,001,fr,0,0,2022-05-05_10h34.05.823,Cluster,2022.1.1,36.51984835093601,
,,,,4,0,4,0,17,0,17,0,,,time,,,,,,,,,,,,,,,,,,,,,,,,,,,,,,,,,,,,,,,,,,,,,,,,,,,,,,,,,,,,,,,,,,,,,,,,,,,,,,,,,,,,,,,,,,,,,,,,,,,,,,,,,,,,,,,,,,,789.9662018000381,None,,,,,"[0.7216165722282041, 0.7216165722282041, 0.7216165722282041, 0.7216165722282041]","[246.42677868269448, 4992.125059241802, 5013.185636808321, 239.24466148842552]",None,"[9.716698867869631, -1.1517555255134466, -1.1517555255134466, 9.0]",True,790.977508900105,794.1747359000146,794.1747359000146,795.3837502000388,None,1,3.9164361000293866,4.940493499976583,None,1,None,1,,0,,,,,,,,,,,,ddmfvc,001,fr,0,0,2022-05-05_10h34.05.823,Cluster,2022.1.1,36.51984835093601,
,,,,4,0,4,0,18,0,18,0,,,both,,,,,,,,,,,,,,,,,,,,,,,,,,,,,,,,,,,,,,,,,,,,,,,,,,,,,,,,,,,,,,,,,,,,,,,,,,,,,,,,,,,,,,,,,,,,,,,,,,,,,,,,,,,,,,,,,,,795.9516921000322,None,264.85109523475046,4.674950258245201,0.0002599407171266244,1,"[0.6474801773450408, 0.6474801773450408, 0.6474801773450408, 0.6474801773450408]","[166.8457349869869, 187.27800544517615, 210.21245359528632, 235.95550124270412]",Tone,"[7.6093112597021735, 6.547681486333655, 7.0, 8.626180643476042]",False,796.9552967000054,799.9285363000818,799.9285363000818,801.1374110000907,['space'],1,3.6170473999809474,4.6320921999868006,None,1,None,1,[0.5151710999198258],,,,,,,,,,,,,ddmfvc,001,fr,0,0,2022-05-05_10h34.05.823,Cluster,2022.1.1,36.51984835093601,
,,,,4,0,4,0,19,0,19,0,,,frequency,,,,,,,,,,,,,,,,,,,,,,,,,,,,,,,,,,,,,,,,,,,,,,,,,,,,,,,,,,,,,,,,,,,,,,,,,,,,,,,,,,,,,,,,,,,,,,,,,,,,,,,,,,,,,,,,,,,801.6268121000612,None,3732.1319661472303,-2.0,6.29409948098831e-05,1,"[0.6828541527544971, 0.5845733357587535, 0.4996154958703043, 0.5596037479380482]","[740.5487761432821, 1109.569472067845, 1662.4757922855756, 2490.899244717646]",Perfect_5th,"[5.4928901646508494, 4.793322612308798, 1.0254998596726566, 7.261860214502654]",False,802.6545730000362,805.4606691000517,805.4606691000517,806.6741478000768,['space'],1,3.3575606000376865,4.3656924000242725,None,1,None,1,[0.45044899987988174],,,,,,,,,,,,,ddmfvc,001,fr,0,0,2022-05-05_10h34.05.823,Cluster,2022.1.1,36.51984835093601,
,,,,5,0,5,0,0,0,0,0,,,none,,,,,,,,,,,,,,,,,,,,,,,,,,,,,,,,,,,,,,,,,,,,,,,,,,,,,,,,,,,,,,,,,,,,,,,,,,,,,,,,,,,,,,,,,,,,,,,,,,,,,,,,,,,,,,,,,,,818.9497725000838,None,4924.577653379667,-7.0,6.591109276268535e-05,1,"[0.7809142371537705, 0.785791402421994, 0.5853405108123456, 0.5012321070365764]","[1972.2919107839991, 161.04333053063047, 491.3436435893057, 200.23974671457455]",None,"[2.85462562250569, 8.0, 6.081850458640543, 6.847316394817064]",False,819.9571291001048,823.151313600014,823.151313600014,824.3728641000343,['space'],1,3.666368899983354,4.6720459999050945,None,1,None,1,[0.7475034999661148],,,,,,,,,,,,,ddmfvc,001,fr,0,0,2022-05-05_10h34.05.823,Cluster,2022.1.1,36.51984835093601,
,,,,5,0,5,0,1,0,1,0,,,frequency,,,,,,,,,,,,,,,,,,,,,,,,,,,,,,,,,,,,,,,,,,,,,,,,,,,,,,,,,,,,,,,,,,,,,,,,,,,,,,,,,,,,,,,,,,,,,,,,,,,,,,,,,,,,,,,,,,,824.6815982999979,None,2923.188084360273,3.1121249977585994,8.527708663189247e-05,0,"[0.5851252256662228, 0.7960619931214843, 0.7989972669795798, 0.40709411330801215]","[4640.271840214405, 4134.012234269726, 3682.986200287379, 3281.1676847645845]",Tone,"[-0.05668281329649982, 3.0, 6.0, 8.469750195397058]",False,825.6734027001075,828.8927859000396,828.8927859000396,830.0860072000651,None,0,3.612626599962823,4.6255213000113145,None,1,None,1,,,,,,,,,,,,,,ddmfvc,001,fr,0,0,2022-05-05_10h34.05.823,Cluster,2022.1.1,36.51984835093601,
,,,,5,0,5,0,2,0,2,0,,,none,,,,,,,,,,,,,,,,,,,,,,,,,,,,,,,,,,,,,,,,,,,,,,,,,,,,,,,,,,,,,,,,,,,,,,,,,,,,,,,,,,,,,,,,,,,,,,,,,,,,,,,,,,,,,,,,,,,830.3509381000185,None,1634.2605692155994,-4.9745001403273434,3.287948545534981e-05,0,"[0.5119750221636151, 0.4514678010804704, 0.6800395388089906, 0.666655639530249]","[172.45569632531544, 3097.684606409866, 5482.5694520562865, 185.00140185289328]",None,"[7.0, 9.0, -1.4891035780236894, 6.547681486333655]",False,831.3623524000868,834.0240616000956,834.0240616000956,835.2272334001027,None,0,3.3546156998490915,4.369725399883464,None,1,None,1,,,,,,,,,,,,,,ddmfvc,001,fr,0,0,2022-05-05_10h34.05.823,Cluster,2022.1.1,36.51984835093601,
,,,,5,0,5,0,3,0,3,0,,,time,,,,,,,,,,,,,,,,,,,,,,,,,,,,,,,,,,,,,,,,,,,,,,,,,,,,,,,,,,,,,,,,,,,,,,,,,,,,,,,,,,,,,,,,,,,,,,,,,,,,,,,,,,,,,,,,,,,835.7839400001103,None,,,,,"[0.6196262430268618, 0.6196262430268618, 0.6196262430268618, 0.6196262430268618]","[271.2897418918634, 2919.8542029495557, 439.0701962603583, 491.8917161171704]",None,"[10.6749502582452, 9.112124997758599, 8.0, 6.081850458640543]",True,836.7962088000495,839.6637085000984,839.6637085000984,840.8711872000713,None,1,3.5252056000754237,4.519331800052896,None,1,None,1,,0,,,,,,,,,,,,ddmfvc,001,fr,0,0,2022-05-05_10h34.05.823,Cluster,2022.1.1,36.51984835093601,
,,,,5,0,5,0,4,0,4,0,,,time,,,,,,,,,,,,,,,,,,,,,,,,,,,,,,,,,,,,,,,,,,,,,,,,,,,,,,,,,,,,,,,,,,,,,,,,,,,,,,,,,,,,,,,,,,,,,,,,,,,,,,,,,,,,,,,,,,,841.342582100071,None,125.0,10.0,0.002285440948074376,1,"[0.5726803745107761, 0.5726803745107761, 0.5726803745107761, 0.5726803745107761]","[1748.9104168226615, 549.8282399802051, 401.474932617244, 141.72493324678845]",None,"[1.1898294073388112, 5.407565608342791, 9.171666375670391, 10.369950949930363]",False,842.3718654001132,845.1229798001004,845.1229798001004,846.3537727000657,['space'],1,3.3138137998757884,4.331944199861027,None,1,None,1,[0.4929312999593094],,,,,,,,,,,,,ddmfvc,001,fr,0,0,2022-05-05_10h34.05.823,Cluster,2022.1.1,36.51984835093601,
,,,,5,0,5,0,5,0,5,0,,,time,,,,,,,,,,,,,,,,,,,,,,,,,,,,,,,,,,,,,,,,,,,,,,,,,,,,,,,,,,,,,,,,,,,,,,,,,,,,,,,,,,,,,,,,,,,,,,,,,,,,,,,,,,,,,,,,,,,846.750794300111,None,206.33625447121037,1.0,0.0002839024168955483,0,"[0.7953332413662793, 0.7953332413662793, 0.7953332413662793, 0.7953332413662793]","[5155.876822316302, 283.5047965993134, 4188.974461855548, 182.1444432131248]",None,"[-1.6284079652419363, 11.347902014810314, 2.0, 6.800380026165427]",False,847.7552278001094,851.1690962000284,851.1690962000284,852.3824934000149,None,0,4.227907499996945,5.24944789998699,None,1,None,1,,,,,,,,,,,,,,ddmfvc,001,fr,0,0,2022-05-05_10h34.05.823,Cluster,2022.1.1,36.51984835093601,
,,,,5,0,5,0,6,0,6,0,,,frequency,,,,,,,,,,,,,,,,,,,,,,,,,,,,,,,,,,,,,,,,,,,,,,,,,,,,,,,,,,,,,,,,,,,,,,,,,,,,,,,,,,,,,,,,,,,,,,,,,,,,,,,,,,,,,,,,,,,853.0463934000582,None,574.3491774985172,1.0,6.714853925532655e-05,1,"[0.49626875227645084, 0.7882881486080968, 0.49682887332592296, 0.6374603232974547]","[227.93062213955415, 287.17458874925865, 361.8173093600944, 455.8612442791082]",Major_3rd,"[8.0, 11.347902014810314, 11.0, 7.0]",False,854.0562210000353,856.8627994999988,856.8627994999988,858.0898824000033,['space'],1,3.428892199881375,4.4369771998608485,None,1,None,1,[0.4521199999144301],,,,,,,,,,,,,ddmfvc,001,fr,0,0,2022-05-05_10h34.05.823,Cluster,2022.1.1,36.51984835093601,
,,,,5,0,5,0,7,0,7,0,,,none,,,,,,,,,,,,,,,,,,,,,,,,,,,,,,,,,,,,,,,,,,,,,,,,,,,,,,,,,,,,,,,,,,,,,,,,,,,,,,,,,,,,,,,,,,,,,,,,,,,,,,,,,,,,,,,,,,,858.5426439000294,None,,,,,"[0.44093270555742203, 0.5003745978259683, 0.7085884267271157, 0.4752435392238321]","[221.41715595580794, 1650.7772344579694, 442.2204915881509, 138.66036728197258]",None,"[8.0, 1.0254998596726566, 8.0, 11.0]",True,859.5565173000796,862.2373827000847,862.2373827000847,863.4449987000553,None,1,3.1602006000466645,4.165836000000127,None,1,None,1,,0,,,,,,,,,,,,ddmfvc,001,fr,0,0,2022-05-05_10h34.05.823,Cluster,2022.1.1,36.51984835093601,
,,,,5,0,5,0,8,0,8,0,,,both,,,,,,,,,,,,,,,,,,,,,,,,,,,,,,,,,,,,,,,,,,,,,,,,,,,,,,,,,,,,,,,,,,,,,,,,,,,,,,,,,,,,,,,,,,,,,,,,,,,,,,,,,,,,,,,,,,,863.7539809000446,None,8000.0,-4.0,0.00011454338263838867,1,"[0.7239545372778781, 0.7239545372778781, 0.7239545372778781, 0.7239545372778781]","[5039.684199579492, 5656.8542494923795, 6349.604207872798, 7127.189745122714]",Tone,"[-1.1517555255134466, -1.4891035780236894, 0.0, 2.0]",False,864.7663838000735,867.9717445001006,867.9717445001006,869.184049100033,['space'],1,3.913898800034076,4.9416254999814555,None,1,None,1,[0.6007487999740988],,,,,,,,,,,,,ddmfvc,001,fr,0,0,2022-05-05_10h34.05.823,Cluster,2022.1.1,36.51984835093601,
,,,,5,0,5,0,9,0,9,0,,,both,,,,,,,,,,,,,,,,,,,,,,,,,,,,,,,,,,,,,,,,,,,,,,,,,,,,,,,,,,,,,,,,,,,,,,,,,,,,,,,,,,,,,,,,,,,,,,,,,,,,,,,,,,,,,,,,,,,869.7606034000637,None,4489.12633142417,-6.0,5.893709079781182e-05,1,"[0.5955478045298738, 0.5955478045298738, 0.5955478045298738, 0.5955478045298738]","[2827.97238029933, 3174.291670553119, 3563.021930460435, 3999.3568942358365]",Tone,"[9.112124997758599, 8.469750195397058, 7.0, 3.4589661902529443]",False,870.7602661000565,873.5622820000863,873.5622820000863,874.7783866000827,['space'],1,3.4138414000626653,4.435396200045943,None,1,None,1,[0.7366869999095798],,,,,,,,,,,,,ddmfvc,001,fr,0,0,2022-05-05_10h34.05.823,Cluster,2022.1.1,36.51984835093601,
,,,,5,0,5,0,10,0,10,0,,,time,,,,,,,,,,,,,,,,,,,,,,,,,,,,,,,,,,,,,,,,,,,,,,,,,,,,,,,,,,,,,,,,,,,,,,,,,,,,,,,,,,,,,,,,,,,,,,,,,,,,,,,,,,,,,,,,,,,875.2390559000196,None,1000.0,-7.0,1.9677503772788864e-05,0,"[0.4776950273259707, 0.4776950273259707, 0.4776950273259707, 0.4776950273259707]","[341.7561751948151, 785.2155073196137, 5916.290964602, 5464.828773259096]",None,"[11.008027259455613, 5.687378023881542, -1.0, -1.6284079652419363]",False,876.2587172000203,878.722544600023,878.722544600023,879.9609099000227,None,0,2.947782500064932,3.964753800071776,None,1,None,1,,,,,,,,,,,,,,ddmfvc,001,fr,0,0,2022-05-05_10h34.05.823,Cluster,2022.1.1,36.51984835093601,
,,,,5,0,5,0,11,0,11,0,,,time,,,,,,,,,,,,,,,,,,,,,,,,,,,,,,,,,,,,,,,,,,,,,,,,,,,,,,,,,,,,,,,,,,,,,,,,,,,,,,,,,,,,,,,,,,,,,,,,,,,,,,,,,,,,,,,,,,,880.2761036000447,None,,,,,"[0.49081327629406823, 0.49081327629406823, 0.49081327629406823, 0.49081327629406823]","[1402.525269541116, 392.62598569802105, 1014.7435917045223, 7037.277970993154]",None,"[1.8109081932435442, 10.0, 5.306476951059075, 1.480832168998898]",True,881.278626000043,883.7618545000441,883.7618545000441,885.0007726000622,None,1,2.996308400062844,4.014907000120729,None,1,None,1,,0,,,,,,,,,,,,ddmfvc,001,fr,0,0,2022-05-05_10h34.05.823,Cluster,2022.1.1,36.51984835093601,
,,,,5,0,5,0,12,0,12,0,,,both,,,,,,,,,,,,,,,,,,,,,,,,,,,,,,,,,,,,,,,,,,,,,,,,,,,,,,,,,,,,,,,,,,,,,,,,,,,,,,,,,,,,,,,,,,,,,,,,,,,,,,,,,,,,,,,,,,,885.3235904000467,None,329.87697769322364,-3.0,6.708419191281203e-05,1,"[0.6918329266258492, 0.6918329266258492, 0.6918329266258492, 0.6918329266258492]","[1662.4757922855758, 1109.5694720678453, 740.5487761432823, 494.2570101764482]",Perfect_5th,"[1.0254998596726566, 4.793322612308798, 5.4928901646508494, 6.081850458640543]",False,886.3655331000919,889.467734200065,889.467734200065,890.6980091000441,['space'],1,3.793308599968441,4.807359999977052,None,1,None,1,[0.5559200999559835],,,,,,,,,,,,,ddmfvc,001,fr,0,0,2022-05-05_10h34.05.823,Cluster,2022.1.1,36.51984835093601,
,,,,5,0,5,0,13,0,13,0,,,both,,,,,,,,,,,,,,,,,,,,,,,,,,,,,,,,,,,,,,,,,,,,,,,,,,,,,,,,,,,,,,,,,,,,,,,,,,,,,,,,,,,,,,,,,,,,,,,,,,,,,,,,,,,,,,,,,,,891.2278176000109,None,712.9971214746728,-0.7668637034553498,4.0177864694151254e-05,1,"[0.6765198848960758, 0.6765198848960758, 0.6765198848960758, 0.6765198848960758]","[449.160040930196, 504.16509956122957, 565.9061903395967, 635.2082215595377]",Tone,"[8.0, 6.0, 5.016899083795806, 4.897056990734846]",False,892.2204448000994,895.2742798000108,895.2742798000108,896.4896205000114,['space'],1,3.7512799000833184,4.779764299979433,None,1,None,1,[0.7957462999038398],,,,,,,,,,,,,ddmfvc,001,fr,0,0,2022-05-05_10h34.05.823,Cluster,2022.1.1,36.51984835093601,
,,,,5,0,5,0,14,0,14,0,,,none,,,,,,,,,,,,,,,,,,,,,,,,,,,,,,,,,,,,,,,,,,,,,,,,,,,,,,,,,,,,,,,,,,,,,,,,,,,,,,,,,,,,,,,,,,,,,,,,,,,,,,,,,,,,,,,,,,,897.0398528000806,None,164.93848884661182,5.0,0.0006991046927313053,1,"[0.575154353162273, 0.5013266251456401, 0.505431374386514, 0.5567340472852523]","[193.5378532307508, 7512.357475272622, 1048.123221935673, 128.22341254737972]",None,"[6.547681486333655, 2.7490878775909113, 5.0, 13.0]",False,898.0778267000569,900.6804859000258,900.6804859000258,901.8978975000791,['space'],1,3.154150299844332,4.160516599891707,None,1,None,1,[0.4269965998828411],,,,,,,,,,,,,ddmfvc,001,fr,0,0,2022-05-05_10h34.05.823,Cluster,2022.1.1,36.51984835093601,
,,,,5,0,5,0,15,0,15,0,,,time,,,,,,,,,,,,,,,,,,,,,,,,,,,,,,,,,,,,,,,,,,,,,,,,,,,,,,,,,,,,,,,,,,,,,,,,,,,,,,,,,,,,,,,,,,,,,,,,,,,,,,,,,,,,,,,,,,,902.2948507000692,None,,,,,"[0.5357270742522816, 0.5357270742522816, 0.5357270742522816, 0.5357270742522816]","[351.8778808599359, 603.6511807102288, 2962.5007312955163, 3515.777774079246]",None,"[11.008027259455613, 4.897056990734846, 9.136888866253425, 7.0]",True,903.3049601000967,905.9311274000211,905.9311274000211,907.147386000026,None,1,3.1702881997916847,4.183803199790418,None,1,None,1,,0,,,,,,,,,,,,ddmfvc,001,fr,0,0,2022-05-05_10h34.05.823,Cluster,2022.1.1,36.51984835093601,
,,,,5,0,5,0,16,0,16,0,,,both,,,,,,,,,,,,,,,,,,,,,,,,,,,,,,,,,,,,,,,,,,,,,,,,,,,,,,,,,,,,,,,,,,,,,,,,,,,,,,,,,,,,,,,,,,,,,,,,,,,,,,,,,,,,,,,,,,,907.5224684000714,None,125.0,8.0,0.0018153902738505074,1,"[0.6029861873328226, 0.6029861873328226, 0.6029861873328226, 0.6029861873328226]","[198.42513149602502, 176.77669529663694, 157.49013123685918, 140.30775603867164]",Tone,"[6.847316394817064, 6.800380026165427, 8.863572288142883, 11.0]",False,908.6201465000631,911.4514595000073,911.4514595000073,912.67062790005,['space'],1,3.4409877998987213,4.447321299929172,None,1,None,1,[0.3739281998714432],,,"{'estimation': [[125.0, 7.778087130749406], [130.75988958003623, 8.0], [133.9716828170366, 8.114296548414655], [143.5872943746293, 8.215607198514617], [153.89305166811442, 8.090796444264162], [156.64172742667895, 8.0], [164.9384888466115, 7.737661281205638], [176.77669529663666, 7.145541308575718], [178.80197622857654, 7.0], [189.46457081379947, 6.279892755861546], [192.61857395147882, 6.0], [203.0630990890585, 5.121991411700436], [204.26268784425443, 5.0], [214.22911319367088, 4.0], [217.6376408240306, 3.681088415770385], [223.96550136745154, 3.0], [233.25824788420132, 2.0204247172392114], [233.4548083233714, 2.0], [242.7556139798393, 1.0], [249.99999999999937, 0.24632052368712465], [252.59304349844953, 0.0], [262.7311008860185, -1.0], [267.94336563407256, -1.4903989175599266], [274.4016479119617, -2.0], [287.1115590392612, -3.0], [287.1745887492579, -3.004811447492224], [305.0087185785187, -4.0], [307.78610333622805, -4.151641253381252], [329.87697769322244, -4.815277440420999], [353.55339059327247, -4.981187159609741], [378.929141627598, -4.713070170120082], [406.12619817811606, -4.150289009962429], [412.332321835382, -4.0], [435.2752816480601, -3.4711389247951763], [459.2573889549476, -3.0], [466.5164957684015, -2.861774936084798], [499.9999999999975, -2.472544935468032], [535.8867312681438, -2.3756774925049164], [574.3491774985143, -2.56864130292612], [615.5722066724546, -2.9876132790947483], [616.525087987307, -3.0], [659.7539553864432, -3.5233344995137372], [701.6787952563576, -4.0], [707.1067811865431, -4.0593342536842405], [757.8582832551941, -4.50869878742709], [812.2523963562301, -4.822911475145778], [865.1647994541661, -5.0], [870.5505632961181, -5.017830089136593], [933.0329915368008, -5.1373061479430735], [999.9999999999926, -5.243063157518439], [1071.773462536285, -5.395652459343972], [1148.698354997026, -5.629222509716862], [1231.1444133449063, -5.945163645048717], [1244.23075095727, -6.0], [1319.5079107728832, -6.303332357080356], [1414.2135623730828, -6.623599103779595], [1515.7165665103846, -6.83001150272604], [1624.5047927124563, -6.84369516115619], [1741.1011265922318, -6.612128179630805], [1866.065983073597, -6.122438902269345], [1888.291714983287, -6.0], [1999.9999999999777, -5.408844198941238], [2068.176675175027, -5.0], [2143.5469250725646, -4.558092443373991], [2242.45187059861, -4.0], [2297.396709994046, -3.6956398858484603], [2453.9224651236136, -3.0], [2462.2888266898062, -2.963341709978513], [2639.01582154576, -2.4875217743812637], [2828.427124746159, -2.360905821338564], [3031.4331330207615, -2.6122152809678543], [3169.4445878876, -3.0], [3249.0095854249043, -3.2165709130180415], [3462.9012208179056, -4.0], [3482.2022531844555, -4.0686333152606], [3722.275210844911, -5.0], [3732.1319661471844, -5.036772303594622], [3999.9999999999504, -5.972382498495104], [4009.6984557965916, -6.0], [4287.093850145118, -6.748964570278743], [4428.483744173607, -7.0], [4594.7934199880865, -7.2867533409544745], [4924.577653379601, -7.547095361322812], [5278.031643091506, -7.565018346288852], [5656.854249492303, -7.4054174232010075], [6062.866266041516, -7.146586826124082], [6279.510429996031, -7.0], [6498.019170849792, -6.858885015846837], [6964.404506368894, -6.600603686023861], [7464.2639322943505, -6.3881452993672685], [7999.999999999882, -6.210283617412244]], 'plus_line': [[125.0, 4.8044742039637445], [128.19823635374166, 5.0], [133.9716828170366, 5.296113143793806], [143.5872943746293, 5.445079351212938], [153.89305166811442, 5.323084325627438], [164.44130448841642, 5.0], [164.93848884661162, 4.983458632427873], [176.77669529663666, 4.399783763462708], [182.9658605564708, 4.0], [189.46457081379947, 3.591410366190688], [196.60596000272915, 3.0], [203.0630990890585, 2.5031109715233546], [208.03846874331654, 2.0], [217.6376408240306, 1.1183894168464183], [218.71322275940219, 1.0], [227.39236188193382, 0.0], [233.25824788420132, -0.5804830923565357], [236.9312402920949, -1.0], [245.5920281723319, -2.0], [249.99999999999952, -2.4425294715882218], [255.20829204913153, -3.0], [264.8273755282287, -4.0], [267.94336563407256, -4.292173729210886], [275.9341971125129, -5.0], [287.1745887492579, -5.911121720512583], [288.65005959953476, -6.0], [305.24458851577486, -7.0], [307.78610333622805, -7.147348896108303], [329.87697769322244, -7.856144085564726], [350.6114483386177, -8.0], [353.55339059327247, -8.02285315580674], [355.3221391570919, -8.0], [378.929141627598, -7.745593146914349], [406.12619817811606, -7.14008038587268], [411.35809731042053, -7.0], [435.2752816480601, -6.42933430375042], [455.04869388133903, -6.0], [466.5164957684015, -5.776634723090627], [499.9999999999975, -5.368401447644143], [535.8867312681438, -5.2495531812301275], [574.3491774985143, -5.427752999017256], [615.5722066724546, -5.804771683432206], [633.2728464675939, -6.0], [659.7539553864432, -6.304813358482813], [707.1067811865431, -6.784516716494316], [734.7735522988227, -7.0], [757.8582832551941, -7.192469414345736], [812.2523963562301, -7.48704725099386], [870.5505632961181, -7.660436806329858], [933.0329915368008, -7.770133528325754], [999.9999999999926, -7.879360432625932], [1052.8984576293674, -8.0], [1071.773462536285, -8.04872203455214], [1148.6983549970246, -8.321284099944053], [1231.1444133449063, -8.6499066654194], [1319.5079107728832, -8.994806619670188], [1321.0247160640292, -9.0], [1414.2135623730828, -9.341332241231601], [1515.7165665103846, -9.543463129032979], [1624.5047927124563, -9.545082388689698], [1741.1011265922318, -9.297350635134496], [1810.8632775357844, -9.0], [1866.065983073597, -8.7925704141964], [1999.9999999999802, -8.087309155011821], [2014.4692217427864, -8.0], [2143.5469250725673, -7.275409098876448], [2192.1938626314013, -6.999999999999999], [2297.3967099940432, -6.4415821914009666], [2394.0033398804107, -6.0], [2462.2888266898062, -5.7118138441036095], [2639.0158215457564, -5.232639672287572], [2828.427124746159, -5.086738681125135], [3031.4331330207615, -5.3525622810648805], [3249.0095854249043, -5.9429864544575715], [3264.164787077843, -6.0], [3482.2022531844555, -6.808568798219449], [3530.7957074840156, -7.0], [3732.1319661471844, -7.770694794757378], [3797.5841974062073, -8.0], [3999.9999999999504, -8.690086708372327], [4116.636491506662, -9.0], [4287.093850145118, -9.453835856193022], [4594.793419988081, -9.967918453663716], [4631.422718494221, -10.0], [4924.577653379601, -10.280045026390857], [5278.031643091513, -10.34845608085216], [5656.854249492303, -10.2233510807106], [5988.61435204321, -10.0], [6062.866266041508, -9.956951531960687], [6498.019170849792, -9.652716093480151], [6964.4045063688845, -9.338871977305114], [7464.2639322943505, -9.086197307998177], [7920.588110362038, -9.0], [7999.999999999882, -8.987104392337834]], 'minus_line': [[125.0, 10.786603743177782], [133.9716828170366, 10.961728818644294], [139.97575386898552, 11.0], [143.5872943746293, 11.025805863552314], [145.95643817748558, 11.0], [153.89305166811442, 10.927770985115583], [164.93848884661162, 10.618805304510873], [176.6621621696063, 10.0], [176.77669529663666, 9.994449813776935], [189.46457081379947, 9.079347641293054], [190.31052536729558, 9.0], [201.23430995461285, 8.0], [203.0630990890585, 7.841041793056286], [211.28755531788107, 7.0], [217.6376408240306, 6.338787980711142], [220.8899551644689, 6.0], [229.85277192267205, 5.0], [233.25824788420132, 4.635368061102635], [239.62039301634496, 4.0], [248.6059242824313, 3.0], [249.99999999999937, 2.857430520928648], [259.48542822401845, 2.0], [267.94336563407256, 1.1714862895470994], [270.26517229287697, 1.0], [283.26707537563004, 0.0], [287.17458874925757, -0.2960645191833446], [300.3298947516633, -1.0], [307.78610333622805, -1.3938512180514575], [328.39346564319436, -2.0], [329.87697769322244, -2.04124274809339], [353.55339059327247, -2.172636976575901], [368.7139337759991, -2.0], [378.929141627598, -1.8729065982669217], [406.12619817811606, -1.2776917711247806], [417.741923271325, -1.0], [435.2752816480601, -0.5692900926540102], [464.7346372453306, 0.0], [466.5164957684015, 0.036420526009265375], [499.9999999999975, 0.4481636623606262], [535.8867312681438, 0.5284243087071085], [574.3491774985143, 0.287771663014162], [596.6157911328503, 0.0], [615.5722066724546, -0.21119972374911267], [659.7539553864432, -0.8340054953671726], [671.1204019573765, -1.0], [707.1067811865431, -1.452867667959974], [757.8582832551941, -1.9897004115731272], [759.2408656172294, -2.0], [812.2523963562301, -2.329626939963439], [870.5505632961181, -2.5223062022419755], [933.0329915368008, -2.6157784223791936], [999.9999999999926, -2.6811156018568405], [1071.773462536285, -2.7925957895325344], [1146.3184251653238, -3.0], [1148.698354997026, -3.0057661671439746], [1231.1444133449063, -3.2826789392782008], [1319.5079107728832, -3.6244963869461144], [1414.2135623730828, -3.9762036334148103], [1423.5096290039583, -4.0], [1515.7165665103846, -4.195533434795246], [1624.5047927124563, -4.2326775189996635], [1741.1011265922298, -4.030755784965629], [1748.8309910855742, -4.0], [1866.065983073597, -3.519735614389919], [1961.7291563542979, -3.0], [1999.9999999999827, -2.785563849812259], [2126.9629819343895, -2.0], [2143.5469250725646, -1.8962187502487935], [2296.173367123793, -1.0], [2297.396709994046, -0.9927430937180859], [2462.2888266898062, -0.21205390027735246], [2540.1042948543823, 0.0], [2639.01582154576, 0.28576090104600393], [2828.427124746159, 0.4141616885815256], [3031.433133020758, 0.14258284862538062], [3078.242772865438, 0.0], [3249.0095854249043, -0.46132755394005437], [3388.207068439727, -1.0], [3482.2022531844555, -1.3401921390133817], [3643.1118605075767, -2.0], [3732.1319661471844, -2.3463223196614518], [3906.802577830064, -3.0], [3999.9999999999504, -3.329026727713634], [4232.3650270492035, -4.0], [4287.093850145118, -4.1471094188603566], [4594.793419988081, -4.66479629291009], [4924.577653379601, -4.895207793176393], [5278.031643091506, -4.840855768123058], [5656.854249492303, -4.609534685813378], [6062.866266041508, -4.330641582743295], [6498.019170849792, -4.087773431101089], [6712.981750909218, -4.0], [6964.404506368894, -3.889304569109802], [7464.2639322943505, -3.709917741765469], [7999.999999999892, -3.474691954758783]]}",,,,,,,,,,ddmfvc,001,fr,0,0,2022-05-05_10h34.05.823,Cluster,2022.1.1,36.51984835093601,
,,,,5,0,5,0,17,0,17,0,,,none,,,,,,,,,,,,,,,,,,,,,,,,,,,,,,,,,,,,,,,,,,,,,,,,,,,,,,,,,,,,,,,,,,,,,,,,,,,,,,,,,,,,,,,,,,,,,,,,,,,,,,,,,,,,,,,,,,,913.0978216000367,None,149.45484039562666,4.0,0.0008003757229552319,1,"[0.7722863844816095, 0.6811988969678314, 0.42803516457998336, 0.5886856383138777]","[585.0474685778154, 1407.6070977978738, 1112.7365132813804, 172.48166752569514]",None,"[5.0, 1.8109081932435442, 4.128892000811312, 7.0]",False,914.1065688000526,917.0134592000395,917.0134592000395,918.2370451000752,['space'],1,3.512874399893917,4.525434799841605,None,1,None,1,[0.42891049990430474],,,,,,,,,,,,,ddmfvc,001,fr,0,0,2022-05-05_10h34.05.823,Cluster,2022.1.1,36.51984835093601,
,,,,5,0,5,0,18,0,18,0,,,time,,,,,,,,,,,,,,,,,,,,,,,,,,,,,,,,,,,,,,,,,,,,,,,,,,,,,,,,,,,,,,,,,,,,,,,,,,,,,,,,,,,,,,,,,,,,,,,,,,,,,,,,,,,,,,,,,,,918.67021510005,None,255.42310273804722,4.0,0.0002563365611495291,1,"[0.4156140131356656, 0.4156140131356656, 0.4156140131356656, 0.4156140131356656]","[841.9066570526847, 4684.1228836178025, 1635.5738321777826, 3655.103627765154]",None,"[5.745764438707836, -0.05668281329649982, 1.0254998596726566, 6.0]",False,919.6819035001099,921.9543148000957,921.9543148000957,923.169561100076,['space'],1,2.697587599977851,3.7074850999051705,None,1,None,1,[0.388940499862656],,,,,,,,,,,,,ddmfvc,001,fr,0,0,2022-05-05_10h34.05.823,Cluster,2022.1.1,36.51984835093601,
