tTrials.thisRepN,tTrials.thisTrialN,tTrials.thisN,tTrials.thisIndex,blocks.thisRepN,blocks.thisTrialN,blocks.thisN,blocks.thisIndex,trials.thisRepN,trials.thisTrialN,trials.thisN,trials.thisIndex,tStart_text.started,tStart_text.stopped,Prediction,practice_Frequency,practice_Level,practice_Psychopy_Level,practice_isCatchTrial,Practice_trial_detection,practice_Cue_Delays,practice_Cue_Frequencies,practice_Interval,practice_Cue_Intensities,tCue_visual_cue.started,tCue_visual_cue.stopped,tProbe_visual_cue.started,tProbe_visual_cue.stopped,tFeedback.keys,tFeedback.corr,tFeedback.rt,tFeedback.started,tFeedback.stopped,tToo_late.keys,tToo_late.corr,tToo_early.keys,tToo_early.corr,more_instructions.started,more_instructions.stopped,readyy.keys,readyy.rt,readyy.started,readyy.stopped,txt_rhythm.started,txt_rhythm.stopped,sound_1.started,sound_1.stopped,sound_2.started,sound_2.stopped,sound_3.started,sound_3.stopped,sound_4.started,sound_4.stopped,cross.started,cross.stopped,sound_5.started,sound_5.stopped,circle.started,circle.stopped,rhythm_ready.keys,rhythm_ready.rt,rhythm_ready.started,rhythm_ready.stopped,rhytm_ready_txt.started,rhytm_ready_txt.stopped,txt_freq.started,txt_freq.stopped,sound_6.started,sound_6.stopped,sound_7.started,sound_7.stopped,sound_8.started,sound_8.stopped,sound_9.started,sound_9.stopped,cross_2.started,cross_2.stopped,sound_10.started,sound_10.stopped,circle_2.started,circle_2.stopped,freq_ready.keys,freq_ready.rt,freq_ready.started,freq_ready.stopped,freq_ready_txt.started,freq_ready_txt.stopped,txt_freq_2.started,txt_freq_2.stopped,sound_11.started,sound_11.stopped,sound_12.started,sound_12.stopped,sound_13.started,sound_13.stopped,sound_14.started,sound_14.stopped,cross_3.started,cross_3.stopped,sound_15.started,sound_15.stopped,circle_3.started,circle_3.stopped,freq_ready_2.keys,freq_ready_2.rt,freq_ready_2.started,freq_ready_2.stopped,freq_ready_txt_2.started,freq_ready_txt_2.stopped,txt_freq_3.started,txt_freq_3.stopped,sound_16.started,sound_16.stopped,sound_17.started,sound_17.stopped,sound_18.started,sound_18.stopped,sound_19.started,sound_19.stopped,cross_4.started,cross_4.stopped,sound_20.started,sound_20.stopped,circle_4.started,circle_4.stopped,freq_ready_txt_3.started,freq_ready_txt_3.stopped,tStart_text_2.started,tStart_text_2.stopped,this_trial_is.started,this_trial_is.stopped,Frequency,Level,Psychopy_Level,Real trial detection,Cue Delays,Cue Frequencies,Interval,Cue Intensities,Catch trial,cue_visual_cue.started,cue_visual_cue.stopped,probe_visual_cue.started,probe_visual_cue.stopped,feedback.keys,feedback.corr,feedback.rt,feedback.started,feedback.stopped,answer_too_late.keys,answer_too_late.corr,answer_too_early.keys,answer_too_early.corr,Catch trial answer,answer_too_early.rt,Audiogram_none,Audiogram_frequency,Audiogram_time,Audiogram_both,participant,session,Language (english or french),Skip training? (1 for yes),Resume previous experiment,date,expName,psychopyVersion,frameRate,
0,0,0,0,,,,,,,,,15.802330099977553,None,both,1000,30,0.0013930605843148849,False,1,"[0.4653492500465004, 0.4653492500465004, 0.4653492500465004, 0.4653492500465004]","[2519.8420997897465, 2000.0000000000002, 1587.4010519681997, 1259.9210498948732]",Major_3rd,"[30, 30, 30, 30]",54.83171549998224,57.14327659999253,57.14327659999253,58.36132539997925,['space'],1,[1.1582919000065885],57.14327659999253,58.82656259997748,None,1,None,1,,,,,,,,,,,,,,,,,,,,,,,,,,,,,,,,,,,,,,,,,,,,,,,,,,,,,,,,,,,,,,,,,,,,,,,,,,,,,,,,,,,,,,,,,,,,,,,,,,,,,,,,,,,,,,,,,,,,,,,,,,,hnxrev,001,fr,0,0,2022-07-25_14h33.50.374,Cluster,2022.1.1,36.50377102363571,
1,0,1,0,,,,,,,,,,,time,2500,30,0.002716251657462167,False,1,"[0.5754033302454877, 0.5754033302454877, 0.5754033302454877, 0.5754033302454877]","[1142.531690541048, 2045.7881027848357, 7170.472791992638, 7512.347832868741]",None,"[30, 30, 30, 30]",64.45717889998923,67.12627599999541,67.12627599999541,68.3294405999768,['space'],1,[1.0792285999923479],67.12627599999541,68.90129029998207,None,1,None,1,,,,,,,,,,,,,,,,,,,,,,,,,,,,,,,,,,,,,,,,,,,,,,,,,,,,,,,,,,,,,,,,,,,,,,,,,,,,,,,,,,,,,,,,,,,,,,,,,,,,,,,,,,,,,,,,,,,,,,,,,,,hnxrev,001,fr,0,0,2022-07-25_14h33.50.374,Cluster,2022.1.1,36.50377102363571,
2,0,2,0,,,,,,,,,,,both,6000,30,0.003664122665694519,True,1,"[0.724158042465699, 0.724158042465699, 0.724158042465699, 0.724158042465699]","[3779.7631496846193, 4242.640687119285, 4762.203155904598, 5345.392308842036]",Tone,"[30, 30, 30, 30]",71.98813630000222,75.1010915999941,75.1010915999941,76.31566339998972,None,1,,75.1010915999941,77.03802069998346,None,1,None,1,,,,,,,,,,,,,,,,,,,,,,,,,,,,,,,,,,,,,,,,,,,,,,,,,,,,,,,,,,,,,,,,,,,,,,,,,,,,,,,,,,,,,,,,,,,,,,,,,,,,,,,,,,,,,,,,,,,,,,,,,,,hnxrev,001,fr,0,0,2022-07-25_14h33.50.374,Cluster,2022.1.1,36.50377102363571,
3,0,3,0,,,,,,,,,,,none,440,30,0.0023562289915021436,False,1,"[0.5170247238216754, 0.6538450815938233, 0.44286161851395245, 0.7308514951709376]","[575.9256732312326, 717.4818791285167, 167.967716740175, 201.08167058397774]",None,"[30, 30, 30, 30]",80.26754569998593,82.80372619998525,82.80372619998525,84.00605639998685,['space'],1,[1.329979700007243],82.80372619998525,84.74260939998203,None,1,None,1,,,,,,,,,,,,,,,,,,,,,,,,,,,,,,,,,,,,,,,,,,,,,,,,,,,,,,,,,,,,,,,,,,,,,,,,,,,,,,,,,,,,,,,,,,,,,,,,,,,,,,,,,,,,,,,,,,,,,,,,,,,hnxrev,001,fr,0,0,2022-07-25_14h33.50.374,Cluster,2022.1.1,36.50377102363571,
4,0,4,0,,,,,,,,,,,time,250,30,0.005296268625886445,True,1,"[0.6303882416279593, 0.6303882416279593, 0.6303882416279593, 0.6303882416279593]","[1760.19459331829, 1796.560952018314, 3873.926095645811, 1446.954258057069]",None,"[30, 30, 30, 30]",87.52889129999676,90.36017639999045,90.36017639999045,91.56835069999215,None,1,,90.36017639999045,92.19607949999045,None,1,None,1,,,,,,,,,,,,,,,,,,,,,,,,,,,,,,,,,,,,,,,,,,,,,,,,,,,,,,,,,,,,,,,,,,,,,,,,,,,,,,,,,,,,,,,,,,,,,,,,,,,,,,,,,,,,,,,,,,,,,,,,,,,hnxrev,001,fr,0,0,2022-07-25_14h33.50.374,Cluster,2022.1.1,36.50377102363571,
,,,,,,,,,,,,,,,,,,,,,,,,,,,,,,,,,,,,,94.44861329998821,None,space,38.765799699991476,94.44861329998821,None,,,,,,,,,,,,,,,,,,,,,,,,,,,,,,,,,,,,,,,,,,,,,,,,,,,,,,,,,,,,,,,,,,,,,,,,,,,,,,,,,,,,,,,,,,,,,,,,,,,,,,,,,,,,,,,,,,,,,hnxrev,001,fr,0,0,2022-07-25_14h33.50.374,Cluster,2022.1.1,36.50377102363571,
,,,,,,,,,,,,,,,,,,,,,,,,,,,,,,,,,,,,,,,,,,,133.2690362999856,134.29402109998045,134.7202967999765,None,135.22600449998572,135.44272659998387,135.7248844999849,135.94380859998637,136.22966909997922,136.44056749998708,134.63512999998056,136.44056749998708,136.72932020000007,None,136.44056749998708,137.24218599998858,space,3.6199955999909434,137.44192359998124,None,,,,,,,,,,,,,,,,,,,,,,,,,,,,,,,,,,,,,,,,,,,,,,,,,,,,,,,,,,,,,,,,,,,,,,,,,,,,,,,,,,,,,,,,,,,,,,,,,hnxrev,001,fr,0,0,2022-07-25_14h33.50.374,Cluster,2022.1.1,36.50377102363571,
,,,,,,,,,,,,,,,,,,,,,,,,,,,,,,,,,,,,,,,,,,,,,,,,,,,,,,,,,,,,,,,137.44192359998124,None,141.12555070000235,142.12774029999855,142.57975089999672,142.79588049999438,142.8792118999845,143.0957594999927,143.5817780999787,None,143.97996079998848,144.19593329998315,142.48224240000127,144.2837163999793,144.59991949998948,144.8210842999979,144.2837163999793,145.11041289998684,space,0.8379824000003282,145.2801832999976,None,,,,,,,,,,,,,,,,,,,,,,,,,,,,,,,,,,,,,,,,,,,,,,,,,,,,,,,,,,,,,,,,,,,,,,,,,,,hnxrev,001,fr,0,0,2022-07-25_14h33.50.374,Cluster,2022.1.1,36.50377102363571,
,,,,,,,,,,,,,,,,,,,,,,,,,,,,,,,,,,,,,,,,,,,,,,,,,,,,,,,,,,,,,,,,,,,,,,,,,,,,,,,,,,,,,145.2801832999976,None,146.17681519998587,147.2033467000001,147.63676249999844,147.852267499984,148.1467108999932,None,148.6386427999969,None,149.13484579998476,None,147.54478379999637,149.3586463999818,149.64929459999257,None,149.3586463999818,150.18053569999756,space,1.6365142999857198,150.34636529997806,None,,,,,,,,,,,,,,,,,,,,,,,,,,,,,,,,,,,,,,,,,,,,,,,,,,,,,hnxrev,001,fr,0,0,2022-07-25_14h33.50.374,Cluster,2022.1.1,36.50377102363571,
,,,,0,0,0,0,0,0,0,0,,,frequency,,,,,,,,,,,,,,,,,,,,,,,,,,,,,,,,,,,,,,,,,,,,,,,,,,,,,,,,,,,,,,,,,,,,,,,,,,,,,,,,,,,,,,,,,,,,,150.34636529997806,None,152.04635359998792,153.07394799997564,153.50328299998364,153.71637789998204,153.8070492999832,None,154.4928954999923,154.71330789997592,154.91391289998137,155.13192769998568,153.41734230000293,155.1870391999837,155.51046059998043,None,155.1870391999837,156.00688979998813,156.20296979998238,None,157.24211669998476,None,165.9602606999979,None,841.4027098018007,-3.0,2.799558571518149e-05,1,"[0.7410839711535991, 0.4113034526489769, 0.494098220237591, 0.6597576345871952]","[4240.403942071504, 2830.1300898283826, 1888.8852181943723, 1260.6796345992548]",Perfect_5th,"[-1.8405943648524419, 4.908739591731656, 4.0574235575589865, 4.876532467017045]",False,166.94752059999155,169.61294609998004,169.61294609998004,170.8252075999917,['space'],1,[0.3938013000006322],3.3316154000058305,4.366277700028149,None,1,None,1,,,,,,,hnxrev,001,fr,0,0,2022-07-25_14h33.50.374,Cluster,2022.1.1,36.50377102363571,
,,,,0,0,0,0,1,0,1,0,,,both,,,,,,,,,,,,,,,,,,,,,,,,,,,,,,,,,,,,,,,,,,,,,,,,,,,,,,,,,,,,,,,,,,,,,,,,,,,,,,,,,,,,,,,,,,,,,,,,,,,,,,,,,,,,,,,,,,,171.35347819997696,None,680.0238277626668,-4.628010889454236,2.7456198777028203e-05,1,"[0.6114546232061061, 0.6114546232061061, 0.6114546232061061, 0.6114546232061061]","[428.38816751413464, 480.8494599794144, 539.7352697769494, 605.8323564586467]",Tone,"[7.4875205611352, 6.0, 3.6129955185513642, 2.0]",False,172.36412230000133,175.23357779998332,175.23357779998332,176.4435236999998,['space'],1,[0.2375095000024885],3.4722016000014264,4.479686699982267,None,1,None,1,,,,,,,hnxrev,001,fr,0,0,2022-07-25_14h33.50.374,Cluster,2022.1.1,36.50377102363571,
,,,,0,0,0,0,2,0,2,0,,,both,,,,,,,,,,,,,,,,,,,,,,,,,,,,,,,,,,,,,,,,,,,,,,,,,,,,,,,,,,,,,,,,,,,,,,,,,,,,,,,,,,,,,,,,,,,,,,,,,,,,,,,,,,,,,,,,,,,176.8775326999894,None,176.7766952966369,-2.0,0.0002780315447610839,1,"[0.5019547427428599, 0.5019547427428599, 0.5019547427428599, 0.5019547427428599]","[890.8987181403394, 594.6035575013606, 396.8502629920499, 264.86577358982385]",Perfect_5th,"[4.0, 2.0, 8.352345427553765, 6.0]",False,178.3350342999911,180.86201539999456,180.86201539999456,182.06709070000215,['space'],1,[0.23471420002169907],3.053256400016835,4.073501600010786,None,1,None,1,,,,,,,hnxrev,001,fr,0,0,2022-07-25_14h33.50.374,Cluster,2022.1.1,36.50377102363571,
,,,,0,0,0,0,3,0,3,0,,,frequency,,,,,,,,,,,,,,,,,,,,,,,,,,,,,,,,,,,,,,,,,,,,,,,,,,,,,,,,,,,,,,,,,,,,,,,,,,,,,,,,,,,,,,,,,,,,,,,,,,,,,,,,,,,,,,,,,,,182.44306150000193,None,,,,,"[0.608978757882669, 0.5655668707816246, 0.44365341001638897, 0.6176880816297554]","[139.72694562754515, 176.04492003366053, 221.80270047746856, 279.45389125509024]",Major_3rd,"[6.475215026484154, 6.171133378872256, 5.199138554488693, 6.900615931954652]",True,183.43045299997902,186.07480079997913,186.07480079997913,187.29742359998636,None,1,,3.2533754000032786,4.267266999988351,None,1,None,1,0,,,,,,hnxrev,001,fr,0,0,2022-07-25_14h33.50.374,Cluster,2022.1.1,36.50377102363571,
,,,,0,0,0,0,4,0,4,0,,,none,,,,,,,,,,,,,,,,,,,,,,,,,,,,,,,,,,,,,,,,,,,,,,,,,,,,,,,,,,,,,,,,,,,,,,,,,,,,,,,,,,,,,,,,,,,,,,,,,,,,,,,,,,,,,,,,,,,187.73099260000163,None,5510.9182372924015,-10.762477236157597,3.8785894027216376e-05,1,"[0.40307686429329115, 0.45632742163902007, 0.4154228863746327, 0.5145613313636684]","[511.9505568277136, 269.7833271539974, 131.74294665107658, 135.75051110278613]",None,"[4.950677049804232, 6.13337686125661, 6.0, 6.184254754094951]",False,188.73678549999022,191.03874279998126,191.03874279998126,192.2477011999872,['space'],1,[0.4004152999841608],2.824390699970536,3.8262617999862414,None,1,None,1,,,,,,,hnxrev,001,fr,0,0,2022-07-25_14h33.50.374,Cluster,2022.1.1,36.50377102363571,
,,,,0,0,0,0,5,0,5,0,,,time,,,,,,,,,,,,,,,,,,,,,,,,,,,,,,,,,,,,,,,,,,,,,,,,,,,,,,,,,,,,,,,,,,,,,,,,,,,,,,,,,,,,,,,,,,,,,,,,,,,,,,,,,,,,,,,,,,,192.60027259998606,None,247.53549432587286,-0.46244209845185447,0.0001633771393519927,1,"[0.640845038347934, 0.640845038347934, 0.640845038347934, 0.640845038347934]","[726.9318656037731, 1456.7536620530234, 3397.9257041967903, 144.0309631971095]",None,"[1.5065839802177479, 4.0, 3.0, 6.475215026484154]",False,193.6107931000006,196.56620059997658,196.56620059997658,197.76884629999404,['space'],1,[0.30861770000774413],3.578284099989105,4.586443400010467,None,1,None,1,,,,,,,hnxrev,001,fr,0,0,2022-07-25_14h33.50.374,Cluster,2022.1.1,36.50377102363571,
,,,,0,0,0,0,6,0,6,0,,,none,,,,,,,,,,,,,,,,,,,,,,,,,,,,,,,,,,,,,,,,,,,,,,,,,,,,,,,,,,,,,,,,,,,,,,,,,,,,,,,,,,,,,,,,,,,,,,,,,,,,,,,,,,,,,,,,,,,198.2315985999885,None,176.7766952966369,-2.0,0.0002780315447610839,1,"[0.5496604167605839, 0.7303254588110321, 0.5832337028492602, 0.6360347449185966]","[3011.610541670379, 223.31049567087373, 264.6896990220746, 1116.7117305004156]",None,"[4.308986853041107, 5.199138554488693, 6.0, 5.2053088615713285]",False,199.2497148999828,202.13715509997564,202.13715509997564,203.35817299998598,['space'],1,[0.2974121000152081],3.542789500032086,4.5540415000286885,None,1,None,1,,,,,,,hnxrev,001,fr,0,0,2022-07-25_14h33.50.374,Cluster,2022.1.1,36.50377102363571,
,,,,0,0,0,0,7,0,7,0,,,none,,,,,,,,,,,,,,,,,,,,,,,,,,,,,,,,,,,,,,,,,,,,,,,,,,,,,,,,,,,,,,,,,,,,,,,,,,,,,,,,,,,,,,,,,,,,,,,,,,,,,,,,,,,,,,,,,,,203.81999769998947,None,141.57302433269956,0.4752150264841535,0.0006075184448990086,1,"[0.4079252338151533, 0.605412956008678, 0.743385724042797, 0.7816082776928592]","[2913.7516522326364, 1786.4402873232305, 606.834761341298, 167.1119358860836]",None,"[4.908739591731656, 3.7654575652601103, 2.0, 6.459574941411008]",False,204.8271143999882,207.60916219998035,207.60916219998035,208.83198139999877,['space'],1,[0.2734836000017822],3.5665334000077564,4.581195000006119,None,1,None,1,,,,,,,hnxrev,001,fr,0,0,2022-07-25_14h33.50.374,Cluster,2022.1.1,36.50377102363571,
,,,,0,0,0,0,8,0,8,0,,,both,,,,,,,,,,,,,,,,,,,,,,,,,,,,,,,,,,,,,,,,,,,,,,,,,,,,,,,,,,,,,,,,,,,,,,,,,,,,,,,,,,,,,,,,,,,,,,,,,,,,,,,,,,,,,,,,,,,209.45553669999936,None,6711.096677404102,-9.0,5.055001435765249e-05,1,"[0.520147813457952, 0.520147813457952, 0.520147813457952, 0.520147813457952]","[2663.300481392891, 3355.548338702052, 4227.7259858704865, 5326.60096278578]",Major_3rd,"[5.238159830709439, 3.0, -1.8405943648524419, -4.622411110452054]",False,210.46935629998916,213.0696511999995,213.0696511999995,214.2887531000015,['space'],1,[0.2383687999972608],3.1190774000133388,4.131868800002849,None,1,None,1,,,,,,,hnxrev,001,fr,0,0,2022-07-25_14h33.50.374,Cluster,2022.1.1,36.50377102363571,
,,,,0,0,0,0,9,0,9,0,,,frequency,,,,,,,,,,,,,,,,,,,,,,,,,,,,,,,,,,,,,,,,,,,,,,,,,,,,,,,,,,,,,,,,,,,,,,,,,,,,,,,,,,,,,,,,,,,,,,,,,,,,,,,,,,,,,,,,,,,214.64901100000134,None,176.7766952966369,-1.0,0.0003119565241000184,1,"[0.7189124682231435, 0.4890771075234348, 0.4122572184960709, 0.7698856655333267]","[445.44935907016975, 353.55339059327383, 280.6155120773433, 222.72467953508485]",Major_3rd,"[7.0, 8.78921793928857, 6.900615931954652, 5.199138554488693]",False,215.6680732999812,218.30837089999113,218.30837089999113,219.51767819997622,['space'],1,[0.43796460001613013],3.42276660000789,4.435910800006241,None,1,None,1,,,,,,,hnxrev,001,fr,0,0,2022-07-25_14h33.50.374,Cluster,2022.1.1,36.50377102363571,
,,,,0,0,0,0,10,0,10,0,,,time,,,,,,,,,,,,,,,,,,,,,,,,,,,,,,,,,,,,,,,,,,,,,,,,,,,,,,,,,,,,,,,,,,,,,,,,,,,,,,,,,,,,,,,,,,,,,,,,,,,,,,,,,,,,,,,,,,,220.1235531999846,None,,,,,"[0.46525118178963604, 0.46525118178963604, 0.46525118178963604, 0.46525118178963604]","[4377.2906313106, 7227.288164275436, 244.2929270204125, 5821.282224137585]",None,"[-2.0, -2.0, 5.537557901548146, -4.762477236157597]",True,221.11523080000188,223.5205747,223.5205747,224.74465700000292,None,1,,2.8781839000002947,3.8885502999764867,None,1,None,1,0,,,,,,hnxrev,001,fr,0,0,2022-07-25_14h33.50.374,Cluster,2022.1.1,36.50377102363571,
,,,,0,0,0,0,11,0,11,0,,,none,,,,,,,,,,,,,,,,,,,,,,,,,,,,,,,,,,,,,,,,,,,,,,,,,,,,,,,,,,,,,,,,,,,,,,,,,,,,,,,,,,,,,,,,,,,,,,,,,,,,,,,,,,,,,,,,,,,225.03481089998968,None,353.5533905932738,-2.0,7.038727582816145e-05,1,"[0.4332812582043978, 0.42263162356901723, 0.6239605669133779, 0.6004831514634553]","[385.13391570066665, 584.3207218021834, 363.51345552856134, 447.99592092489604]",None,"[8.790195709713082, 2.479650305886871, 8.78921793928857, 7.0]",False,226.0570364999876,228.5772165999806,228.5772165999806,229.80198649998056,['space'],1,[0.28080429998226464],3.1160474000207614,4.125663100014208,None,1,None,1,,,,,,,hnxrev,001,fr,0,0,2022-07-25_14h33.50.374,Cluster,2022.1.1,36.50377102363571,
,,,,0,0,0,0,12,0,12,0,,,both,,,,,,,,,,,,,,,,,,,,,,,,,,,,,,,,,,,,,,,,,,,,,,,,,,,,,,,,,,,,,,,,,,,,,,,,,,,,,,,,,,,,,,,,,,,,,,,,,,,,,,,,,,,,,,,,,,,230.21029209997505,None,353.5533905932738,-2.0,7.038727582816145e-05,1,"[0.4163602500142497, 0.4163602500142497, 0.4163602500142497, 0.4163602500142497]","[890.8987181403395, 707.1067811865477, 561.2310241546866, 445.4493590701697]",Major_3rd,"[4.0, 1.5065839802177479, 3.0, 7.0]",False,231.29372570000123,233.5664496999816,233.5664496999816,234.77514659997541,['space'],1,[0.6448435999918729],2.696613999985857,3.719029700005194,None,1,None,1,,,,,,,hnxrev,001,fr,0,0,2022-07-25_14h33.50.374,Cluster,2022.1.1,36.50377102363571,
,,,,0,0,0,0,13,0,13,0,,,frequency,,,,,,,,,,,,,,,,,,,,,,,,,,,,,,,,,,,,,,,,,,,,,,,,,,,,,,,,,,,,,,,,,,,,,,,,,,,,,,,,,,,,,,,,,,,,,,,,,,,,,,,,,,,,,,,,,,,235.04010459998972,None,449.1506531619837,1.0,8.307753877293435e-05,1,"[0.6197460389447953, 0.5117544160316942, 0.48583193562052823, 0.5352590905870885]","[282.94718124640724, 317.5974726252057, 356.4911096607684, 400.1477411539074]",Tone,"[6.900615931954652, 8.0, 8.78921793928857, 8.352345427553765]",False,236.0546214999922,238.69535989998258,238.69535989998258,239.91000679999706,['space'],1,[0.24829960000352003],3.1716782999865245,4.196977799991146,None,1,None,1,,,,,,,hnxrev,001,fr,0,0,2022-07-25_14h33.50.374,Cluster,2022.1.1,36.50377102363571,
,,,,0,0,0,0,14,0,14,0,,,time,,,,,,,,,,,,,,,,,,,,,,,,,,,,,,,,,,,,,,,,,,,,,,,,,,,,,,,,,,,,,,,,,,,,,,,,,,,,,,,,,,,,,,,,,,,,,,,,,,,,,,,,,,,,,,,,,,,240.29548799997428,None,164.93848884661182,-3.0,0.00027831859114393215,1,"[0.7344573404929075, 0.7344573404929075, 0.7344573404929075, 0.7344573404929075]","[208.56945118493462, 3571.349166546584, 2144.48012774652, 3239.063971357573]",None,"[5.416622651675733, 2.0, 4.828475417338947, 3.4224510059389095]",False,241.32139089997509,244.55527319997782,244.55527319997782,245.7578996999946,['space'],1,[0.2698576000111643],3.974814100016374,4.990530800016131,None,1,None,1,,,,,,,hnxrev,001,fr,0,0,2022-07-25_14h33.50.374,Cluster,2022.1.1,36.50377102363571,
,,,,0,0,0,0,15,0,15,0,,,both,,,,,,,,,,,,,,,,,,,,,,,,,,,,,,,,,,,,,,,,,,,,,,,,,,,,,,,,,,,,,,,,,,,,,,,,,,,,,,,,,,,,,,,,,,,,,,,,,,,,,,,,,,,,,,,,,,,246.34003839999787,None,3337.654067826092,-3.0,5.1193904451055475e-05,0,"[0.6662690294969196, 0.6662690294969196, 0.6662690294969196, 0.6662690294969196]","[5298.19557837308, 4720.15564922939, 4205.1806173213445, 3746.3900215201866]",Tone,"[-4.622411110452054, -3.0839600630279165, -1.8405943648524419, 0.9627018844564637]",False,247.3514848999912,250.3672712999978,250.3672712999978,251.58278869997594,None,0,,3.687295500014443,4.716462600015802,None,1,None,1,,,,,,,hnxrev,001,fr,0,0,2022-07-25_14h33.50.374,Cluster,2022.1.1,36.50377102363571,
,,,,0,0,0,0,16,0,16,0,,,none,,,,,,,,,,,,,,,,,,,,,,,,,,,,,,,,,,,,,,,,,,,,,,,,,,,,,,,,,,,,,,,,,,,,,,,,,,,,,,,,,,,,,,,,,,,,,,,,,,,,,,,,,,,,,,,,,,,252.1123021999956,None,,,,,"[0.7468509647034275, 0.5406534895933313, 0.6862671637068565, 0.6502437532054817]","[7334.275193957662, 3123.1391567851992, 368.64308120275894, 2551.687231931856]",None,"[-2.0, 4.0, 8.790195709713082, 5.238159830709439]",True,253.1282072000031,256.1404039999761,256.1404039999761,257.3471816999954,None,1,,3.656043700000737,4.678512100013904,None,1,None,1,0,,,,,,hnxrev,001,fr,0,0,2022-07-25_14h33.50.374,Cluster,2022.1.1,36.50377102363571,
,,,,0,0,0,0,17,0,17,0,,,frequency,,,,,,,,,,,,,,,,,,,,,,,,,,,,,,,,,,,,,,,,,,,,,,,,,,,,,,,,,,,,,,,,,,,,,,,,,,,,,,,,,,,,,,,,,,,,,,,,,,,,,,,,,,,,,,,,,,,257.84475239997846,None,307.7861033362292,-3.0,7.522887020865065e-05,1,"[0.6422514645765324, 0.783946671764594, 0.5998975608282162, 0.6451771000482753]","[775.5723809168676, 615.5722066724584, 488.5799842171232, 387.7861904584338]",Major_3rd,"[2.047633898018567, 1.698292829809227, 5.0, 8.790195709713082]",False,258.88575769998715,261.9539616999973,261.9539616999973,263.1640111999877,['space'],1,[0.5110852000070736],3.6919084999826737,4.7165965999884065,None,1,None,1,,,,,,,hnxrev,001,fr,0,0,2022-07-25_14h33.50.374,Cluster,2022.1.1,36.50377102363571,
,,,,0,0,0,0,18,0,18,0,,,none,,,,,,,,,,,,,,,,,,,,,,,,,,,,,,,,,,,,,,,,,,,,,,,,,,,,,,,,,,,,,,,,,,,,,,,,,,,,,,,,,,,,,,,,,,,,,,,,,,,,,,,,,,,,,,,,,,,263.629480899981,None,1037.6690663847721,-0.709704845137636,4.204811183079424e-05,1,"[0.6751146724329742, 0.5225347346219474, 0.7689081310264291, 0.6388623939440481]","[5129.3541423242195, 4382.393270711156, 4157.325062705221, 3841.7054924564736]",None,"[-4.622411110452054, -2.0, -1.0, 0.0]",False,264.6352172999759,267.64185769998585,267.64185769998585,268.8537836999749,['space'],1,[0.44223900002543814],3.621540800028015,4.646583600027952,None,1,None,1,,,,,,,hnxrev,001,fr,0,0,2022-07-25_14h33.50.374,Cluster,2022.1.1,36.50377102363571,
,,,,0,0,0,0,19,0,19,0,,,frequency,,,,,,,,,,,,,,,,,,,,,,,,,,,,,,,,,,,,,,,,,,,,,,,,,,,,,,,,,,,,,,,,,,,,,,,,,,,,,,,,,,,,,,,,,,,,,,,,,,,,,,,,,,,,,,,,,,,269.3273138999939,None,296.34050492927355,1.0,0.0001328348370973675,1,"[0.5443609562200322, 0.634270706533499, 0.6446033457419779, 0.4628842985821089]","[186.68282004843357, 209.54438057573483, 235.2056146327581, 264.0093759745507]",Tone,"[5.7788409976936865, 5.416622651675733, 5.223862564447552, 6.0]",False,270.33492259998457,273.18674879998434,273.18674879998434,274.40204429998994,['space'],1,[0.5344446999952197],3.3258746000065003,4.356704900012119,None,1,None,1,,,,,,,hnxrev,001,fr,0,0,2022-07-25_14h33.50.374,Cluster,2022.1.1,36.50377102363571,
,,,,1,0,1,0,0,0,0,0,,,frequency,,,,,,,,,,,,,,,,,,,,,,,,,,,,,,,,,,,,,,,,,,,,,,,,,,,,,,,,,,,,,,,,,,,,,,,,,,,,,,,,,,,,,,,,,,,,,,,,,,,,,,,,,,,,,,,,,,,282.374141999986,None,2297.3967099940687,-2.0,6.466169967930508e-05,1,"[0.4196034878705559, 0.4621201898270286, 0.4132649538125935, 0.6118863639154359]","[911.7224885582166, 1148.6983549970346, 1447.2692374403775, 1823.4449771164327]",Major_3rd,"[4.0, 5.2053088615713285, 4.0, 4.0]",False,283.35817849999876,285.6746934999828,285.6746934999828,286.9062067999912,['space'],1,[0.48651780001819134],2.9524488000024576,3.9609001000062563,None,1,None,1,,,,,,,hnxrev,001,fr,0,0,2022-07-25_14h33.50.374,Cluster,2022.1.1,36.50377102363571,
,,,,1,0,1,0,1,0,1,0,,,both,,,,,,,,,,,,,,,,,,,,,,,,,,,,,,,,,,,,,,,,,,,,,,,,,,,,,,,,,,,,,,,,,,,,,,,,,,,,,,,,,,,,,,,,,,,,,,,,,,,,,,,,,,,,,,,,,,,287.3525406999979,None,,,,,"[0.5364054256702528, 0.5364054256702528, 0.5364054256702528, 0.5364054256702528]","[3690.485642790393, 2463.103658619467, 1643.9244642386436, 1097.1879460554314]",Perfect_5th,"[1.0, 5.301282829788761, 3.647019961438937, 5.290295154862364]",True,288.3640516999876,291.0139013000007,291.0139013000007,292.21635789997526,None,1,,3.177662900008727,4.202717600011965,None,1,None,1,0,,,,,,hnxrev,001,fr,0,0,2022-07-25_14h33.50.374,Cluster,2022.1.1,36.50377102363571,
,,,,1,0,1,0,2,0,2,0,,,time,,,,,,,,,,,,,,,,,,,,,,,,,,,,,,,,,,,,,,,,,,,,,,,,,,,,,,,,,,,,,,,,,,,,,,,,,,,,,,,,,,,,,,,,,,,,,,,,,,,,,,,,,,,,,,,,,,,292.60460109999985,None,7317.7469737771,-8.0,6.403884788946015e-05,1,"[0.5889267343973017, 0.5889267343973017, 0.5889267343973017, 0.5889267343973017]","[686.6438009318575, 1958.0483307980235, 3138.272800045868, 1894.960859240924]",None,"[1.5065839802177479, 4.440927439868993, 4.0, 4.0574235575589865]",False,293.6008522999764,296.4051483999938,296.4051483999938,297.61223040000186,['space'],1,[0.33066730000427924],3.3828109000169206,4.389706700021634,None,1,None,1,,,,,,,hnxrev,001,fr,0,0,2022-07-25_14h33.50.374,Cluster,2022.1.1,36.50377102363571,
,,,,1,0,1,0,3,0,3,0,,,frequency,,,,,,,,,,,,,,,,,,,,,,,,,,,,,,,,,,,,,,,,,,,,,,,,,,,,,,,,,,,,,,,,,,,,,,,,,,,,,,,,,,,,,,,,,,,,,,,,,,,,,,,,,,,,,,,,,,,298.03955989997485,None,323.25363605069333,2.0,0.00012145913302688714,1,"[0.6088983451868398, 0.6799657339642287, 0.5086163406717742, 0.6044696707618947]","[513.1331619194161, 457.149676189307, 407.2740605153248, 362.8399384449138]",Tone,"[4.0, 7.0, 8.352345427553765, 8.78921793928857]",False,299.0351219000004,301.86581249997835,301.86581249997835,303.08544349999283,['space'],1,[0.3027678000216838],3.4240225999965332,4.454539300000761,None,1,None,1,,,,,,,hnxrev,001,fr,0,0,2022-07-25_14h33.50.374,Cluster,2022.1.1,36.50377102363571,
,,,,1,0,1,0,4,0,4,0,,,none,,,,,,,,,,,,,,,,,,,,,,,,,,,,,,,,,,,,,,,,,,,,,,,,,,,,,,,,,,,,,,,,,,,,,,,,,,,,,,,,,,,,,,,,,,,,,,,,,,,,,,,,,,,,,,,,,,,303.538481399999,None,2297.3967099940687,-2.0,6.466169967930508e-05,1,"[0.7550946724286746, 0.4511645083051339, 0.5600464217906672, 0.5162959010762369]","[1977.704208554671, 3970.2614605664485, 270.44917678609465, 1094.74286347546]",None,"[4.440927439868993, -0.45241078254740774, 6.13337686125661, 5.290295154862364]",False,304.57147689998965,307.36006929998985,307.36006929998985,308.5642879999941,['space'],1,[0.4145044000179041],3.3309115000010934,4.358290100004524,None,1,None,1,,,,,,,hnxrev,001,fr,0,0,2022-07-25_14h33.50.374,Cluster,2022.1.1,36.50377102363571,
,,,,1,0,1,0,5,0,5,0,,,none,,,,,,,,,,,,,,,,,,,,,,,,,,,,,,,,,,,,,,,,,,,,,,,,,,,,,,,,,,,,,,,,,,,,,,,,,,,,,,,,,,,,,,,,,,,,,,,,,,,,,,,,,,,,,,,,,,,308.952060599986,None,7118.302077679566,-8.0,6.163203133027995e-05,1,"[0.5842090447103344, 0.47378968757845186, 0.5826993995937672, 0.6304357270355414]","[1964.499127930571, 283.66058660566244, 7677.773647499655, 523.2378689076531]",None,"[4.440927439868993, 6.900615931954652, -1.0, 4.0]",False,309.9437570000009,312.60413769999286,312.60413769999286,313.82715800000005,['space'],1,[0.2663466999947559],3.2878218999831006,4.291684299998451,None,1,None,1,,,,,,,hnxrev,001,fr,0,0,2022-07-25_14h33.50.374,Cluster,2022.1.1,36.50377102363571,
,,,,1,0,1,0,6,0,6,0,,,frequency,,,,,,,,,,,,,,,,,,,,,,,,,,,,,,,,,,,,,,,,,,,,,,,,,,,,,,,,,,,,,,,,,,,,,,,,,,,,,,,,,,,,,,,,,,,,,,,,,,,,,,,,,,,,,,,,,,,314.28427209999063,None,1231.1444133449168,0.0,5.372054966049046e-05,1,"[0.6043910491308948, 0.6297387694404917, 0.6605932101502978, 0.4285740797496627]","[1954.319936868493, 1741.101126592249, 1551.1447618337354, 1381.9128799677767]",Tone,"[4.440927439868993, 3.7654575652601103, 3.735371251845848, 4.026040202278114]",False,315.3159212000028,318.22552439998253,318.22552439998253,319.44710869999835,['space'],1,[0.3350102000113111],3.3701880000298843,4.373433100030525,None,1,None,1,,,,,,,hnxrev,001,fr,0,0,2022-07-25_14h33.50.374,Cluster,2022.1.1,36.50377102363571,
,,,,1,0,1,0,7,0,7,0,,,both,,,,,,,,,,,,,,,,,,,,,,,,,,,,,,,,,,,,,,,,,,,,,,,,,,,,,,,,,,,,,,,,,,,,,,,,,,,,,,,,,,,,,,,,,,,,,,,,,,,,,,,,,,,,,,,,,,,319.7223191999947,None,,,,,"[0.6376759856519941, 0.6376759856519941, 0.6376759856519941, 0.6376759856519941]","[2712.4875614707184, 3417.5201762749716, 4305.805608529274, 5424.975122941435]",Major_3rd,"[5.0, 2.2889682846151116, -1.8405943648524419, -4.622411110452054]",True,320.72950359998504,323.6659260999877,323.6659260999877,324.87515099998564,None,1,,3.589347600005567,4.612983700004406,None,1,None,1,0,,,,,,hnxrev,001,fr,0,0,2022-07-25_14h33.50.374,Cluster,2022.1.1,36.50377102363571,
,,,,1,0,1,0,8,0,8,0,,,none,,,,,,,,,,,,,,,,,,,,,,,,,,,,,,,,,,,,,,,,,,,,,,,,,,,,,,,,,,,,,,,,,,,,,,,,,,,,,,,,,,,,,,,,,,,,,,,,,,,,,,,,,,,,,,,,,,,325.37958399998024,None,1515.7165665103996,-3.0,3.5135546789290564e-05,1,"[0.4238943260581003, 0.715721297698187, 0.776496122797798, 0.46612976840006626]","[551.2137091340982, 1541.2983458818662, 2982.2175904162573, 1283.8246982858145]",None,"[3.0, 3.735371251845848, 4.308986853041107, 4.442200552808806]",False,326.38971339998534,329.33699139999226,329.33699139999226,330.5523879999819,['space'],1,[0.625567700015381],3.4058367000252474,4.435106600023573,None,1,None,1,,,,,,,hnxrev,001,fr,0,0,2022-07-25_14h33.50.374,Cluster,2022.1.1,36.50377102363571,
,,,,1,0,1,0,9,0,9,0,,,frequency,,,,,,,,,,,,,,,,,,,,,,,,,,,,,,,,,,,,,,,,,,,,,,,,,,,,,,,,,,,,,,,,,,,,,,,,,,,,,,,,,,,,,,,,,,,,,,,,,,,,,,,,,,,,,,,,,,,330.8522361999785,None,135.5717039077587,0.18425475409495107,0.0006420789940921877,1,"[0.7473386898397353, 0.740465247151344, 0.5245289123918582, 0.715200223531374]","[683.2385740940009, 456.0070393034892, 304.3481849221893, 203.1280433892249]",Perfect_5th,"[1.3719891105457638, 7.0, 7.709747770638259, 5.416622651675733]",False,331.86664349999046,334.905820999993,334.905820999993,336.12495929998113,['space'],1,[0.300318800000241],3.7530080000287853,4.781823300028918,None,1,None,1,,,,,,,hnxrev,001,fr,0,0,2022-07-25_14h33.50.374,Cluster,2022.1.1,36.50377102363571,
,,,,1,0,1,0,10,0,10,0,,,time,,,,,,,,,,,,,,,,,,,,,,,,,,,,,,,,,,,,,,,,,,,,,,,,,,,,,,,,,,,,,,,,,,,,,,,,,,,,,,,,,,,,,,,,,,,,,,,,,,,,,,,,,,,,,,,,,,,336.6992872999981,None,378.9291416275994,-3.0,5.806893951290537e-05,1,"[0.5400235597311978, 0.5400235597311978, 0.5400235597311978, 0.5400235597311978]","[287.62407824521625, 1022.4434446261495, 2858.4946879708004, 438.2508725933763]",None,"[6.900615931954652, 5.06055000320855, 4.908739591731656, 7.4875205611352]",False,337.7267644999956,340.3790533999854,340.3790533999854,341.5900168999797,['space'],1,[0.48247869999613613],3.192189600027632,4.216619400045602,None,1,None,1,,,,,,,hnxrev,001,fr,0,0,2022-07-25_14h33.50.374,Cluster,2022.1.1,36.50377102363571,
,,,,1,0,1,0,11,0,11,0,,,both,,,,,,,,,,,,,,,,,,,,,,,,,,,,,,,,,,,,,,,,,,,,,,,,,,,,,,,,,,,,,,,,,,,,,,,,,,,,,,,,,,,,,,,,,,,,,,,,,,,,,,,,,,,,,,,,,,,341.98054489999777,None,,,,,"[0.6092800292686389, 0.6092800292686389, 0.6092800292686389, 0.6092800292686389]","[1075.9523881388468, 1207.7157214736915, 1355.615062500792, 1521.6264597736777]",Tone,"[5.290295154862364, 5.0, 4.442200552808806, 3.735371251845848]",True,342.96518020000076,345.80836100000306,345.80836100000306,347.0062292999937,None,1,,3.470582700014347,4.474865000025602,None,1,None,1,0,,,,,,hnxrev,001,fr,0,0,2022-07-25_14h33.50.374,Cluster,2022.1.1,36.50377102363571,
,,,,1,0,1,0,12,0,12,0,,,none,,,,,,,,,,,,,,,,,,,,,,,,,,,,,,,,,,,,,,,,,,,,,,,,,,,,,,,,,,,,,,,,,,,,,,,,,,,,,,,,,,,,,,,,,,,,,,,,,,,,,,,,,,,,,,,,,,,347.48127119999845,None,144.77606599805708,0.4752150264841535,0.0005773987382631815,1,"[0.5550751855689123, 0.6516688130632562, 0.5553891676380308, 0.7292994701210784]","[305.3709637256503, 573.8070773161207, 165.95013580139982, 5994.298839028853]",None,"[7.709747770638259, 2.479650305886871, 6.459574941411008, -4.461808124366424]",False,348.47298829999636,351.2606964999868,351.2606964999868,352.4840108999924,['space'],1,[0.31575539999175817],3.5179489000001922,4.527741099998821,None,1,None,1,,,,,,,hnxrev,001,fr,0,0,2022-07-25_14h33.50.374,Cluster,2022.1.1,36.50377102363571,
,,,,1,0,1,0,13,0,13,0,,,frequency,,,,,,,,,,,,,,,,,,,,,,,,,,,,,,,,,,,,,,,,,,,,,,,,,,,,,,,,,,,,,,,,,,,,,,,,,,,,,,,,,,,,,,,,,,,,,,,,,,,,,,,,,,,,,,,,,,,353.04728239998803,None,176.7766952966369,-6.0,0.0001754260451641794,1,"[0.6144025231849896, 0.6844745522084166, 0.6416306117601843, 0.6077411188465628]","[280.61551207734334, 250.00000000000006, 222.72467953508487, 198.42513149602496]",Tone,"[6.900615931954652, 5.537557901548146, 5.199138554488693, 5.416622651675733]",False,354.1310497999948,357.08776319999015,357.08776319999015,358.28781869998784,['space'],1,[0.3894225000112783],3.5726457000127994,4.596645899990108,None,1,None,1,,,,,,,hnxrev,001,fr,0,0,2022-07-25_14h33.50.374,Cluster,2022.1.1,36.50377102363571,
,,,,1,0,1,0,14,0,14,0,,,frequency,,,,,,,,,,,,,,,,,,,,,,,,,,,,,,,,,,,,,,,,,,,,,,,,,,,,,,,,,,,,,,,,,,,,,,,,,,,,,,,,,,,,,,,,,,,,,,,,,,,,,,,,,,,,,,,,,,,358.7574354999815,None,614.5917404241341,-4.301707170190773,3.264546514977203e-05,1,"[0.47685050332682133, 0.4490135001593853, 0.6478327310812196, 0.49216739380149543]","[975.6035752802371, 869.1639746302952, 774.3370708518923, 689.855903830496]",Tone,"[5.0, 3.723018073591315, 2.047633898018567, 1.5065839802177479]",False,359.77379310000106,362.3676674999879,362.3676674999879,363.5997570999898,['space'],1,[0.356475100008538],3.087629699992249,4.114552999992156,None,1,None,1,,,,,,,hnxrev,001,fr,0,0,2022-07-25_14h33.50.374,Cluster,2022.1.1,36.50377102363571,
,,,,1,0,1,0,15,0,15,0,,,none,,,,,,,,,,,,,,,,,,,,,,,,,,,,,,,,,,,,,,,,,,,,,,,,,,,,,,,,,,,,,,,,,,,,,,,,,,,,,,,,,,,,,,,,,,,,,,,,,,,,,,,,,,,,,,,,,,,363.9375754999928,None,189.4645708137998,-7.0,0.00013570784394859175,1,"[0.7502527964493291, 0.6150099416563319, 0.5904815868980442, 0.5801482400970411]","[311.2636346829703, 415.6455520487681, 2787.2130233807356, 7482.827979110705]",None,"[7.709747770638259, 8.0, 5.0, -1.524323124432895]",False,364.968429200002,367.97203209999134,367.97203209999134,369.1749972999969,['space'],1,[0.34552080000867136],3.571440400031861,4.593815000029281,None,1,None,1,,,,,,,hnxrev,001,fr,0,0,2022-07-25_14h33.50.374,Cluster,2022.1.1,36.50377102363571,
,,,,1,0,1,0,16,0,16,0,,,time,,,,,,,,,,,,,,,,,,,,,,,,,,,,,,,,,,,,,,,,,,,,,,,,,,,,,,,,,,,,,,,,,,,,,,,,,,,,,,,,,,,,,,,,,,,,,,,,,,,,,,,,,,,,,,,,,,,369.58497929997975,None,129.41912858420355,0.0,0.0006833771966570271,1,"[0.5221915041752548, 0.5221915041752548, 0.5221915041752548, 0.5221915041752548]","[479.0499838273181, 3226.6105510326083, 625.0470130178404, 828.638474684922]",None,"[6.0, 3.4224510059389095, 1.698292829809227, 3.0]",False,370.6037859999924,373.1836601999821,373.1836601999821,374.3929188999755,['space'],1,[0.37640599999576807],3.1243708999827504,4.125692000001436,None,1,None,1,,,,,,,hnxrev,001,fr,0,0,2022-07-25_14h33.50.374,Cluster,2022.1.1,36.50377102363571,
,,,,1,0,1,0,17,0,17,0,,,frequency,,,,,,,,,,,,,,,,,,,,,,,,,,,,,,,,,,,,,,,,,,,,,,,,,,,,,,,,,,,,,,,,,,,,,,,,,,,,,,,,,,,,,,,,,,,,,,,,,,,,,,,,,,,,,,,,,,,374.77526579998084,None,,,,,"[0.5955119728071695, 0.7369885574423082, 0.7200004910850375, 0.6984116728685185]","[3766.640623005885, 3355.695302731272, 2989.584643672848, 2663.417126820183]",Tone,"[0.9627018844564637, 3.0, 4.308986853041107, 5.238159830709439]",True,375.7812126999779,378.8668428999954,378.8668428999954,380.0733830999816,None,1,,3.7655564000306185,4.802390000026207,None,1,None,1,0,,,,,,hnxrev,001,fr,0,0,2022-07-25_14h33.50.374,Cluster,2022.1.1,36.50377102363571,
,,,,1,0,1,0,18,0,18,0,,,none,,,,,,,,,,,,,,,,,,,,,,,,,,,,,,,,,,,,,,,,,,,,,,,,,,,,,,,,,,,,,,,,,,,,,,,,,,,,,,,,,,,,,,,,,,,,,,,,,,,,,,,,,,,,,,,,,,,380.6249332999869,None,2223.022136931324,-1.0,7.108223141699609e-05,1,"[0.7249773194639193, 0.6739573026256296, 0.7302971316480316, 0.4253001024565315]","[152.36277179587762, 143.06779034728694, 3931.81477867691, 132.17357282828704]",None,"[6.571339210100276, 6.475215026484154, 0.0, 6.184254754094951]",False,381.62737780000316,384.78897959997994,384.78897959997994,386.0263978999865,['space'],1,[0.5026783999928739],3.591187300015008,4.5957692000083625,None,1,None,1,,,,,,,hnxrev,001,fr,0,0,2022-07-25_14h33.50.374,Cluster,2022.1.1,36.50377102363571,
,,,,1,0,1,0,19,0,19,0,,,frequency,,,,,,,,,,,,,,,,,,,,,,,,,,,,,,,,,,,,,,,,,,,,,,,,,,,,,,,,,,,,,,,,,,,,,,,,,,,,,,,,,,,,,,,,,,,,,,,,,,,,,,,,,,,,,,,,,,,386.26905269999406,None,4924.577653379667,-9.0,5.2355041962932216e-05,1,"[0.709012088728689, 0.6670211617933924, 0.7409175704215389, 0.6560180652588963]","[7817.279747473972, 6964.404506368996, 6204.579047334942, 5527.651519871107]",Tone,"[-1.0, -2.729523008592409, -4.0, -4.762477236157597]",False,387.2938128999958,390.4282473999774,390.4282473999774,391.64094129999285,['space'],1,[0.42794699998921715],3.809266300027957,4.812509900017176,None,1,None,1,,,,,,,hnxrev,001,fr,0,0,2022-07-25_14h33.50.374,Cluster,2022.1.1,36.50377102363571,
,,,,2,0,2,0,0,0,0,0,,,time,,,,,,,,,,,,,,,,,,,,,,,,,,,,,,,,,,,,,,,,,,,,,,,,,,,,,,,,,,,,,,,,,,,,,,,,,,,,,,,,,,,,,,,,,,,,,,,,,,,,,,,,,,,,,,,,,,,397.0689947999781,None,2297.3967099940687,-2.0,6.466169967930508e-05,1,"[0.46083741633295006, 0.46083741633295006, 0.46083741633295006, 0.46083741633295006]","[4746.5598092256305, 259.7270286687519, 4648.719785839424, 405.74152130196893]",None,"[-3.0839600630279165, 6.0, -3.0839600630279165, 8.352345427553765]",False,398.0585999999894,400.46485659998143,400.46485659998143,401.67281170000206,['space'],1,[0.37021660001482815],2.8835240000043996,3.8853429000009783,None,1,None,1,,,,,,,hnxrev,001,fr,0,0,2022-07-25_14h33.50.374,Cluster,2022.1.1,36.50377102363571,
,,,,2,0,2,0,1,0,1,0,,,time,,,,,,,,,,,,,,,,,,,,,,,,,,,,,,,,,,,,,,,,,,,,,,,,,,,,,,,,,,,,,,,,,,,,,,,,,,,,,,,,,,,,,,,,,,,,,,,,,,,,,,,,,,,,,,,,,,,401.96866679997765,None,330.1680599700232,2.3965485698273126,0.0001247674058695006,1,"[0.6835008310928375, 0.6835008310928375, 0.6835008310928375, 0.6835008310928375]","[357.3284467316612, 3590.810087160865, 511.2444512661169, 4473.033287724458]",None,"[8.78921793928857, 2.0, 4.950677049804232, -3.0]",False,402.97309669997776,406.04444469997543,406.04444469997543,407.2611715999956,['space'],1,[0.20137999998405576],3.762550999992527,4.766113099991344,None,1,None,1,,,,,,,hnxrev,001,fr,0,0,2022-07-25_14h33.50.374,Cluster,2022.1.1,36.50377102363571,
,,,,2,0,2,0,2,0,2,0,,,frequency,,,,,,,,,,,,,,,,,,,,,,,,,,,,,,,,,,,,,,,,,,,,,,,,,,,,,,,,,,,,,,,,,,,,,,,,,,,,,,,,,,,,,,,,,,,,,,,,,,,,,,,,,,,,,,,,,,,407.7867773999751,None,898.1082506528882,-2.0,3.2691763678155045e-05,1,"[0.4151629313184814, 0.5666498744402853, 0.5930936194386813, 0.6072880003376102]","[1425.6579818677142, 1270.1168685524897, 1131.545490081835, 1008.0924266313887]",Tone,"[4.0, 4.876532467017045, 5.2053088615713285, 5.06055000320855]",False,408.78320199999143,411.399751799996,411.399751799996,412.6350936999952,['space'],1,[0.3184820000024047],3.1986750999931246,4.207296400010819,None,1,None,1,,,,,,,hnxrev,001,fr,0,0,2022-07-25_14h33.50.374,Cluster,2022.1.1,36.50377102363571,
,,,,2,0,2,0,3,0,3,0,,,frequency,,,,,,,,,,,,,,,,,,,,,,,,,,,,,,,,,,,,,,,,,,,,,,,,,,,,,,,,,,,,,,,,,,,,,,,,,,,,,,,,,,,,,,,,,,,,,,,,,,,,,,,,,,,,,,,,,,,413.0338770999806,None,378.9291416275994,-7.0,3.663902387184372e-05,0,"[0.7100835503550799, 0.6850694241514554, 0.5187948022740553, 0.6560360400757119]","[150.37812951026456, 189.46457081379972, 238.71040097760408, 300.75625902052906]",Major_3rd,"[6.571339210100276, 5.7788409976936865, 5.223862564447552, 7.709747770638259]",False,415.24306469998555,418.17727499999455,418.17727499999455,419.3824196999776,None,0,,3.616493800014723,4.631963600026211,None,1,None,1,,,,,,,hnxrev,001,fr,0,0,2022-07-25_14h33.50.374,Cluster,2022.1.1,36.50377102363571,
,,,,2,0,2,0,4,0,4,0,,,frequency,,,,,,,,,,,,,,,,,,,,,,,,,,,,,,,,,,,,,,,,,,,,,,,,,,,,,,,,,,,,,,,,,,,,,,,,,,,,,,,,,,,,,,,,,,,,,,,,,,,,,,,,,,,,,,,,,,,419.90138579998165,None,,,,,"[0.683991892066876, 0.6131305824735676, 0.7626193958782694, 0.7534134484862884]","[2316.441676808863, 1838.5609772946846, 1459.2668147326315, 1158.2208384044313]",Major_3rd,"[5.1460154689617825, 4.0, 4.0, 5.2053088615713285]",True,420.9044908999931,424.0024392999767,424.0024392999767,425.2255779999832,None,1,,3.8511448000208475,4.860285100003239,None,1,None,1,0,,,,,,hnxrev,001,fr,0,0,2022-07-25_14h33.50.374,Cluster,2022.1.1,36.50377102363571,
,,,,2,0,2,0,5,0,5,0,,,both,,,,,,,,,,,,,,,,,,,,,,,,,,,,,,,,,,,,,,,,,,,,,,,,,,,,,,,,,,,,,,,,,,,,,,,,,,,,,,,,,,,,,,,,,,,,,,,,,,,,,,,,,,,,,,,,,,,425.8046222999983,None,2000.0,-1.0,6.667607160816621e-05,1,"[0.6057627768309177, 0.6057627768309177, 0.6057627768309177, 0.6057627768309177]","[396.8502629920499, 594.6035575013606, 890.8987181403394, 1334.8398541700344]",Perfect_5th,"[8.352345427553765, 2.0, 4.0, 4.442200552808806]",False,426.8232838999829,429.6687488000025,429.6687488000025,430.8699002999929,['space'],1,[0.41677250000066124],3.462235800048802,4.487980400037486,None,1,None,1,,,,,,,hnxrev,001,fr,0,0,2022-07-25_14h33.50.374,Cluster,2022.1.1,36.50377102363571,
,,,,2,0,2,0,6,0,6,0,,,none,,,,,,,,,,,,,,,,,,,,,,,,,,,,,,,,,,,,,,,,,,,,,,,,,,,,,,,,,,,,,,,,,,,,,,,,,,,,,,,,,,,,,,,,,,,,,,,,,,,,,,,,,,,,,,,,,,,431.3379066999769,None,353.5533905932738,-7.0,3.9581673965746926e-05,0,"[0.6660066201165142, 0.4150240029746444, 0.5090004288914778, 0.7177887169476849]","[1917.7774233141897, 603.6303112077628, 766.6745539914331, 951.1143854153582]",None,"[4.0574235575589865, 2.0, 2.047633898018567, 4.512287280576092]",False,432.35662049998064,434.95954929999425,434.95954929999425,436.18225469999015,None,0,,3.369921900011832,4.38097630001721,None,1,None,1,,,,,,,hnxrev,001,fr,0,0,2022-07-25_14h33.50.374,Cluster,2022.1.1,36.50377102363571,
,,,,2,0,2,0,7,0,7,0,,,frequency,,,,,,,,,,,,,,,,,,,,,,,,,,,,,,,,,,,,,,,,,,,,,,,,,,,,,,,,,,,,,,,,,,,,,,,,,,,,,,,,,,,,,,,,,,,,,,,,,,,,,,,,,,,,,,,,,,,436.7670931999746,None,902.410950430246,-2.0,3.278890261023954e-05,1,"[0.6387373270199919, 0.47301240563024505, 0.4644565285987562, 0.7238220834427083]","[358.12202300514895, 451.20547521512316, 568.4832760513531, 716.2440460102977]",Major_3rd,"[8.78921793928857, 7.0, 2.479650305886871, 1.5065839802177479]",False,437.7736420999863,440.37991879999754,440.37991879999754,441.6060878999997,['space'],1,[0.3076752999913879],3.3364238000358455,4.341472400032217,None,1,None,1,,,,,,,hnxrev,001,fr,0,0,2022-07-25_14h33.50.374,Cluster,2022.1.1,36.50377102363571,
,,,,2,0,2,0,8,0,8,0,,,none,,,,,,,,,,,,,,,,,,,,,,,,,,,,,,,,,,,,,,,,,,,,,,,,,,,,,,,,,,,,,,,,,,,,,,,,,,,,,,,,,,,,,,,,,,,,,,,,,,,,,,,,,,,,,,,,,,,442.16080319997855,None,,,,,"[0.6486018855863137, 0.4458203275488615, 0.7266024999724072, 0.4278439919306347]","[2062.7361064735746, 7840.388688300402, 2971.5535742490497, 1028.671458603061]",None,"[4.440927439868993, -1.0, 4.308986853041107, 5.06055000320855]",True,443.16654609999387,446.0001349999802,446.0001349999802,447.22253139998065,None,1,,3.2708385000296403,4.284914500021841,None,1,None,1,0,,,,,,hnxrev,001,fr,0,0,2022-07-25_14h33.50.374,Cluster,2022.1.1,36.50377102363571,
,,,,2,0,2,0,9,0,9,0,,,none,,,,,,,,,,,,,,,,,,,,,,,,,,,,,,,,,,,,,,,,,,,,,,,,,,,,,,,,,,,,,,,,,,,,,,,,,,,,,,,,,,,,,,,,,,,,,,,,,,,,,,,,,,,,,,,,,,,447.48621109998203,None,359.81730371989977,2.7892179392885694,0.00011992536990333789,1,"[0.5354243304662856, 0.5035664638743198, 0.6151175640118178, 0.6067024655478699]","[1341.4136612275686, 2156.8787926689483, 268.4890502549948, 318.51006478333017]",None,"[4.442200552808806, 4.828475417338947, 6.13337686125661, 8.0]",False,448.48802029999206,451.1606868999952,451.1606868999952,452.3728646999807,['space'],1,[0.26394950001849793],3.27263639998273,4.284650299989153,None,1,None,1,,,,,,,hnxrev,001,fr,0,0,2022-07-25_14h33.50.374,Cluster,2022.1.1,36.50377102363571,
,,,,2,0,2,0,10,0,10,0,,,none,,,,,,,,,,,,,,,,,,,,,,,,,,,,,,,,,,,,,,,,,,,,,,,,,,,,,,,,,,,,,,,,,,,,,,,,,,,,,,,,,,,,,,,,,,,,,,,,,,,,,,,,,,,,,,,,,,,452.8223155000014,None,125.0,-7.0,0.00032282711451732784,0,"[0.5023582983585025, 0.7386358298241559, 0.6839622045675529, 0.7880558613468929]","[265.9412890317886, 361.0020576411023, 431.98366826567775, 3045.4200075420495]",None,"[6.13337686125661, 8.78921793928857, 7.4875205611352, 4.308986853041107]",False,455.06974389997777,458.0125541999878,458.0125541999878,459.223874599993,None,0,,3.7552790000336245,4.764931800047634,None,1,None,1,,,,,,,hnxrev,001,fr,0,0,2022-07-25_14h33.50.374,Cluster,2022.1.1,36.50377102363571,
,,,,2,0,2,0,11,0,11,0,,,time,,,,,,,,,,,,,,,,,,,,,,,,,,,,,,,,,,,,,,,,,,,,,,,,,,,,,,,,,,,,,,,,,,,,,,,,,,,,,,,,,,,,,,,,,,,,,,,,,,,,,,,,,,,,,,,,,,,459.86888229998294,None,1319.5079107728945,0.0,5.27835709944967e-05,1,"[0.6211628409975516, 0.6211628409975516, 0.6211628409975516, 0.6211628409975516]","[317.98353361895016, 7841.895565114928, 223.97644908221343, 406.2229554770206]",None,"[8.0, -1.0, 5.199138554488693, 8.352345427553765]",False,460.94659379997756,463.8467426999996,463.8467426999996,465.0556913999899,['space'],1,[0.25700380001217127],3.5152715000440367,4.532047000044258,None,1,None,1,,,,,,,hnxrev,001,fr,0,0,2022-07-25_14h33.50.374,Cluster,2022.1.1,36.50377102363571,
,,,,2,0,2,0,12,0,12,0,,,both,,,,,,,,,,,,,,,,,,,,,,,,,,,,,,,,,,,,,,,,,,,,,,,,,,,,,,,,,,,,,,,,,,,,,,,,,,,,,,,,,,,,,,,,,,,,,,,,,,,,,,,,,,,,,,,,,,,465.52036779999617,None,,,,,"[0.7745745675331873, 0.7745745675331873, 0.7745745675331873, 0.7745745675331873]","[2542.483004552079, 2265.0948496490455, 2017.970098018619, 1797.8069735703225]",Tone,"[5.301282829788761, 5.1460154689617825, 4.440927439868993, 4.0]",True,466.52384149999125,469.876618099981,469.876618099981,471.0928713999747,None,1,,4.134081400028663,5.136035800009267,None,1,None,1,0,,,,,,hnxrev,001,fr,0,0,2022-07-25_14h33.50.374,Cluster,2022.1.1,36.50377102363571,
,,,,2,0,2,0,13,0,13,0,,,frequency,,,,,,,,,,,,,,,,,,,,,,,,,,,,,,,,,,,,,,,,,,,,,,,,,,,,,,,,,,,,,,,,,,,,,,,,,,,,,,,,,,,,,,,,,,,,,,,,,,,,,,,,,,,,,,,,,,,471.7058500999992,None,1866.0659830736151,-6.0,3.446376225943923e-05,0,"[0.6899383016374436, 0.6621205606897487, 0.7530437022375349, 0.5244309161620769]","[4702.1916251344355, 3732.1319661472303, 2962.195104573129, 2351.0958125672178]",Major_3rd,"[-3.0839600630279165, 0.9627018844564637, 4.308986853041107, 5.1460154689617825]",False,472.7254478999821,475.869670199987,475.869670199987,477.08071629999904,None,0,,3.684005500021158,4.709313400031533,None,1,None,1,,,,,,,hnxrev,001,fr,0,0,2022-07-25_14h33.50.374,Cluster,2022.1.1,36.50377102363571,
,,,,2,0,2,0,14,0,14,0,,,both,,,,,,,,,,,,,,,,,,,,,,,,,,,,,,,,,,,,,,,,,,,,,,,,,,,,,,,,,,,,,,,,,,,,,,,,,,,,,,,,,,,,,,,,,,,,,,,,,,,,,,,,,,,,,,,,,,,477.46639159999904,None,1529.552220480916,-2.264628748154152,3.914035005015863e-05,1,"[0.6274066271737132, 0.6274066271737132, 0.6274066271737132, 0.6274066271737132]","[2428.012803831702, 2163.1134945619942, 1927.1150394973504, 1716.8643183971587]",Tone,"[5.301282829788761, 4.828475417338947, 4.0574235575589865, 3.7654575652601103]",False,478.4706460000016,481.3918383999844,481.3918383999844,482.60288729998865,['space'],1,[0.3454778000013903],3.528485200018622,4.556518200028222,None,1,None,1,,,,,,,hnxrev,001,fr,0,0,2022-07-25_14h33.50.374,Cluster,2022.1.1,36.50377102363571,
,,,,2,0,2,0,15,0,15,0,,,time,,,,,,,,,,,,,,,,,,,,,,,,,,,,,,,,,,,,,,,,,,,,,,,,,,,,,,,,,,,,,,,,,,,,,,,,,,,,,,,,,,,,,,,,,,,,,,,,,,,,,,,,,,,,,,,,,,,483.07424089999404,None,1865.4650826805362,-1.9425764424410135,5.496199254874257e-05,1,"[0.7075540791427045, 0.7075540791427045, 0.7075540791427045, 0.7075540791427045]","[242.74812708543928, 2977.5877732173212, 213.40914487767645, 760.1520190518731]",None,"[5.537557901548146, 4.308986853041107, 5.199138554488693, 2.047633898018567]",False,484.0859288999927,487.237793599983,487.237793599983,488.455865099997,['space'],1,[0.26775679999263957],3.8472076000180095,4.850777300016489,None,1,None,1,,,,,,,hnxrev,001,fr,0,0,2022-07-25_14h33.50.374,Cluster,2022.1.1,36.50377102363571,
,,,,2,0,2,0,16,0,16,0,,,time,,,,,,,,,,,,,,,,,,,,,,,,,,,,,,,,,,,,,,,,,,,,,,,,,,,,,,,,,,,,,,,,,,,,,,,,,,,,,,,,,,,,,,,,,,,,,,,,,,,,,,,,,,,,,,,,,,,488.98338499999954,None,,,,,"[0.5661754004211085, 0.5661754004211085, 0.5661754004211085, 0.5661754004211085]","[2825.733887729294, 1292.9382199115196, 363.35285968979156, 876.5324724017986]",None,"[4.908739591731656, 4.442200552808806, 8.78921793928857, 3.723018073591315]",True,489.99038740000105,492.7222189999884,492.7222189999884,493.9213737999962,None,1,,3.288574600010179,4.301898600009736,None,1,None,1,0,,,,,,hnxrev,001,fr,0,0,2022-07-25_14h33.50.374,Cluster,2022.1.1,36.50377102363571,
,,,,2,0,2,0,17,0,17,0,,,none,,,,,,,,,,,,,,,,,,,,,,,,,,,,,,,,,,,,,,,,,,,,,,,,,,,,,,,,,,,,,,,,,,,,,,,,,,,,,,,,,,,,,,,,,,,,,,,,,,,,,,,,,,,,,,,,,,,494.33366199999,None,133.63116257791836,0.18425475409495107,0.0006597256749996298,1,"[0.43389166471044305, 0.4809109500835934, 0.4811139413787566, 0.6868021644855149]","[5007.625266046278, 1803.5493746905886, 1517.5944661137125, 7801.151311502861]",None,"[-4.042775762931498, 4.0, 3.735371251845848, -1.0]",False,495.34011059999466,497.76220659998944,497.76220659998944,498.96703169998364,['space'],1,[0.31649679999100044],3.0961717999889515,4.118743500002893,None,1,None,1,,,,,,,hnxrev,001,fr,0,0,2022-07-25_14h33.50.374,Cluster,2022.1.1,36.50377102363571,
,,,,2,0,2,0,18,0,18,0,,,none,,,,,,,,,,,,,,,,,,,,,,,,,,,,,,,,,,,,,,,,,,,,,,,,,,,,,,,,,,,,,,,,,,,,,,,,,,,,,,,,,,,,,,,,,,,,,,,,,,,,,,,,,,,,,,,,,,,499.50211189998663,None,3031.4331330207992,-5.0,3.250253881325064e-05,0,"[0.7243798299226065, 0.4080806068106948, 0.676349219569409, 0.7786753341229194]","[1516.8112270549002, 346.5854067272769, 623.7078451336034, 566.5163504334884]",None,"[3.735371251845848, 8.78921793928857, 1.698292829809227, 2.479650305886871]",False,501.7134121999843,504.5385975999816,504.5385975999816,505.73918769997545,None,0,,3.618165100022452,4.630210100032855,None,1,None,1,,,,,,,hnxrev,001,fr,0,0,2022-07-25_14h33.50.374,Cluster,2022.1.1,36.50377102363571,
,,,,2,0,2,0,19,0,19,0,,,both,,,,,,,,,,,,,,,,,,,,,,,,,,,,,,,,,,,,,,,,,,,,,,,,,,,,,,,,,,,,,,,,,,,,,,,,,,,,,,,,,,,,,,,,,,,,,,,,,,,,,,,,,,,,,,,,,,,506.3796759999823,None,125.0,-4.0,0.00045600541967795504,1,"[0.7082310291131227, 0.7082310291131227, 0.7082310291131227, 0.7082310291131227]","[198.42513149602502, 176.77669529663694, 157.49013123685918, 140.30775603867164]",Tone,"[5.416622651675733, 6.171133378872256, 6.571339210100276, 6.475215026484154]",False,507.40221579998615,510.54255749998265,510.54255749998265,511.75570579999476,['space'],1,[0.35312539999722503],3.883377800055314,4.909760400041705,None,1,None,1,,,,,,,hnxrev,001,fr,0,0,2022-07-25_14h33.50.374,Cluster,2022.1.1,36.50377102363571,
,,,,3,0,3,0,0,0,0,0,,,frequency,,,,,,,,,,,,,,,,,,,,,,,,,,,,,,,,,,,,,,,,,,,,,,,,,,,,,,,,,,,,,,,,,,,,,,,,,,,,,,,,,,,,,,,,,,,,,,,,,,,,,,,,,,,,,,,,,,,514.7751426999748,None,299.8051284537386,1.7097477706382591,0.0001396759651470017,1,"[0.7919932132600026, 0.459369935873132, 0.7193390127620176, 0.7682857110375786]","[755.4615844106032, 599.6102569074772, 475.9109762929258, 377.7307922053016]",Major_3rd,"[2.0, 2.0, 6.0, 8.790195709713082]",False,515.7642021999927,518.7534315999947,518.7534315999947,519.9558662999771,['space'],1,[0.20733979999204166],3.7739333000208717,4.776591700006975,None,1,None,1,,,,,,,hnxrev,001,fr,0,0,2022-07-25_14h33.50.374,Cluster,2022.1.1,36.50377102363571,
,,,,3,0,3,0,1,0,1,0,,,none,,,,,,,,,,,,,,,,,,,,,,,,,,,,,,,,,,,,,,,,,,,,,,,,,,,,,,,,,,,,,,,,,,,,,,,,,,,,,,,,,,,,,,,,,,,,,,,,,,,,,,,,,,,,,,,,,,,520.6064406999794,None,799.9951198444205,-3.1591710410923306,2.6669444138964797e-05,0,"[0.4607099540848346, 0.6604417770219935, 0.46950411720858004, 0.46402867353733857]","[173.48275808071648, 845.1101979896348, 363.8998077830268, 1113.7935847847396]",None,"[6.171133378872256, 3.0, 8.78921793928857, 5.2053088615713285]",False,521.6104403999925,524.2217498999962,524.2217498999962,525.4615130999882,None,0,,3.0751731999916956,4.107566999999108,None,1,None,1,,,,,,,hnxrev,001,fr,0,0,2022-07-25_14h33.50.374,Cluster,2022.1.1,36.50377102363571,
,,,,3,0,3,0,2,0,2,0,,,frequency,,,,,,,,,,,,,,,,,,,,,,,,,,,,,,,,,,,,,,,,,,,,,,,,,,,,,,,,,,,,,,,,,,,,,,,,,,,,,,,,,,,,,,,,,,,,,,,,,,,,,,,,,,,,,,,,,,,525.7819450999959,None,125.0,-7.0,0.00032282711451732784,1,"[0.4081189093567357, 0.7383940855492359, 0.42860177139265176, 0.4913288610507674]","[198.42513149602502, 176.77669529663694, 157.49013123685918, 140.30775603867164]",Tone,"[5.416622651675733, 6.171133378872256, 6.571339210100276, 6.475215026484154]",False,526.792169399996,529.3941786999931,529.3941786999931,530.6282619999838,['space'],1,[0.4631611999939196],3.1105705999943893,4.141270499996608,None,1,['space'],0,,[-3.557438199990429],,,,,hnxrev,001,fr,0,0,2022-07-25_14h33.50.374,Cluster,2022.1.1,36.50377102363571,
,,,,3,0,3,0,3,0,3,0,,,time,,,,,,,,,,,,,,,,,,,,,,,,,,,,,,,,,,,,,,,,,,,,,,,,,,,,,,,,,,,,,,,,,,,,,,,,,,,,,,,,,,,,,,,,,,,,,,,,,,,,,,,,,,,,,,,,,,,530.9761319999816,None,,,,,"[0.5363913041389692, 0.5363913041389692, 0.5363913041389692, 0.5363913041389692]","[402.0363904863214, 4706.910738250942, 2417.3333952142225, 2429.1070279020946]",None,"[8.352345427553765, -3.0839600630279165, 5.301282829788761, 5.301282829788761]",True,531.9841814999818,534.6323255999887,534.6323255999887,535.8665266000025,None,1,,3.177302800002508,4.212515999999596,None,1,None,1,0,,,,,,hnxrev,001,fr,0,0,2022-07-25_14h33.50.374,Cluster,2022.1.1,36.50377102363571,
,,,,3,0,3,0,4,0,4,0,,,both,,,,,,,,,,,,,,,,,,,,,,,,,,,,,,,,,,,,,,,,,,,,,,,,,,,,,,,,,,,,,,,,,,,,,,,,,,,,,,,,,,,,,,,,,,,,,,,,,,,,,,,,,,,,,,,,,,,536.2473905999796,None,195.9690124073476,-0.22115900230631344,0.0002730805701355473,1,"[0.5563203245288244, 0.5563203245288244, 0.5563203245288244, 0.5563203245288244]","[493.81096771825366, 391.9380248146952, 311.08141644859273, 246.90548385912683]",Major_3rd,"[5.0, 8.790195709713082, 7.709747770638259, 5.537557901548146]",False,537.2537939999893,539.9366953999852,539.9366953999852,541.1734840999998,['space'],1,[0.2658432000025641],3.2505681999900844,4.254067400004715,None,1,None,1,,,,,,,hnxrev,001,fr,0,0,2022-07-25_14h33.50.374,Cluster,2022.1.1,36.50377102363571,
,,,,3,0,3,0,5,0,5,0,,,time,,,,,,,,,,,,,,,,,,,,,,,,,,,,,,,,,,,,,,,,,,,,,,,,,,,,,,,,,,,,,,,,,,,,,,,,,,,,,,,,,,,,,,,,,,,,,,,,,,,,,,,,,,,,,,,,,,,541.5725351999863,None,189.4645708137998,-7.0,0.00013570784394859175,0,"[0.6817706296406351, 0.6817706296406351, 0.6817706296406351, 0.6817706296406351]","[706.2572632009583, 297.48063672958415, 3118.1125615728283, 729.592971793803]",None,"[1.5065839802177479, 7.0, 4.0, 1.5065839802177479]",False,542.6063284999982,545.677025299985,545.677025299985,546.9086292999855,None,0,,3.784887500019977,4.814483700029086,None,1,None,1,,,,,,,hnxrev,001,fr,0,0,2022-07-25_14h33.50.374,Cluster,2022.1.1,36.50377102363571,
,,,,3,0,3,0,6,0,6,0,,,none,,,,,,,,,,,,,,,,,,,,,,,,,,,,,,,,,,,,,,,,,,,,,,,,,,,,,,,,,,,,,,,,,,,,,,,,,,,,,,,,,,,,,,,,,,,,,,,,,,,,,,,,,,,,,,,,,,,547.4560103999975,None,500.0,-6.0,3.58071705106451e-05,1,"[0.5905593728828288, 0.6164232080423898, 0.7731180140763594, 0.6524866271932943]","[5085.048893378433, 3027.20279213597, 381.33520058809506, 159.95404684369996]",None,"[-4.042775762931498, 4.308986853041107, 8.790195709713082, 6.459574941411008]",False,548.4797550999792,551.4816657999763,551.4816657999763,552.7169999999751,['space'],1,[0.2669556000037119],3.6828264000068884,4.713676400016993,None,1,None,1,,,,,,,hnxrev,001,fr,0,0,2022-07-25_14h33.50.374,Cluster,2022.1.1,36.50377102363571,
,,,,3,0,3,0,7,0,7,0,,,none,,,,,,,,,,,,,,,,,,,,,,,,,,,,,,,,,,,,,,,,,,,,,,,,,,,,,,,,,,,,,,,,,,,,,,,,,,,,,,,,,,,,,,,,,,,,,,,,,,,,,,,,,,,,,,,,,,,553.2267689,None,3541.244184680032,-4.0,4.788155717062253e-05,1,"[0.4996303385156141, 0.7388394110130074, 0.778074506332742, 0.6909722740742061]","[539.633166594762, 585.8649372648839, 220.72701680111172, 363.41525967675443]",None,"[3.6129955185513642, 2.479650305886871, 5.199138554488693, 8.78921793928857]",False,554.2394032999873,557.2858511999948,557.2858511999948,558.4911080999882,['space'],1,[0.3289699000015389],3.7448304000135977,4.780447099998128,None,1,None,1,,,,,,,hnxrev,001,fr,0,0,2022-07-25_14h33.50.374,Cluster,2022.1.1,36.50377102363571,
,,,,3,0,3,0,8,0,8,0,,,none,,,,,,,,,,,,,,,,,,,,,,,,,,,,,,,,,,,,,,,,,,,,,,,,,,,,,,,,,,,,,,,,,,,,,,,,,,,,,,,,,,,,,,,,,,,,,,,,,,,,,,,,,,,,,,,,,,,559.0808098999842,None,,,,,"[0.7395502074145373, 0.44652238662297294, 0.4773433950760088, 0.44904375838743993]","[1419.389676669644, 161.96888113117066, 1605.5265995518546, 7511.324560840195]",None,"[4.0, 6.459574941411008, 3.647019961438937, -1.524323124432895]",True,560.0782758999849,562.7631133999967,562.7631133999967,563.9959883999836,['space'],0,[0.19690469998749904],3.1435209999908693,4.153868699999293,None,1,None,1,0,,,,,,hnxrev,001,fr,0,0,2022-07-25_14h33.50.374,Cluster,2022.1.1,36.50377102363571,
,,,,3,0,3,0,9,0,9,0,,,none,,,,,,,,,,,,,,,,,,,,,,,,,,,,,,,,,,,,,,,,,,,,,,,,,,,,,,,,,,,,,,,,,,,,,,,,,,,,,,,,,,,,,,,,,,,,,,,,,,,,,,,,,,,,,,,,,,,564.2778663999925,None,250.0,-7.0,7.481178280472168e-05,0,"[0.7166182544154952, 0.44484489761136614, 0.4718279804946717, 0.6113257052371757]","[7401.462951478811, 267.6929098604096, 1319.5462548298008, 226.08689885788016]",None,"[-1.524323124432895, 6.13337686125661, 4.442200552808806, 5.223862564447552]",False,565.2985522999952,567.9727065999759,567.9727065999759,569.2050620999944,None,0,,3.2797739999950863,4.312106700002914,None,1,None,1,,,,,,,hnxrev,001,fr,0,0,2022-07-25_14h33.50.374,Cluster,2022.1.1,36.50377102363571,
,,,,3,0,3,0,10,0,10,0,,,both,,,,,,,,,,,,,,,,,,,,,,,,,,,,,,,,,,,,,,,,,,,,,,,,,,,,,,,,,,,,,,,,,,,,,,,,,,,,,,,,,,,,,,,,,,,,,,,,,,,,,,,,,,,,,,,,,,,569.6480849999934,None,1148.6983549970344,-1.0,4.480502791392034e-05,1,"[0.5415647996144595, 0.5415647996144595, 0.5415647996144595, 0.5415647996144595]","[1823.4449771164332, 1624.5047927124706, 1447.2692374403775, 1289.3703084395786]",Tone,"[4.0, 3.647019961438937, 4.0, 4.442200552808806]",False,570.6758561999886,573.3419855999819,573.3419855999819,574.5740841999941,['space'],1,[0.3542777999828104],3.207487699983176,4.237066199973924,None,1,None,1,,,,,,,hnxrev,001,fr,0,0,2022-07-25_14h33.50.374,Cluster,2022.1.1,36.50377102363571,
,,,,3,0,3,0,11,0,11,0,,,frequency,,,,,,,,,,,,,,,,,,,,,,,,,,,,,,,,,,,,,,,,,,,,,,,,,,,,,,,,,,,,,,,,,,,,,,,,,,,,,,,,,,,,,,,,,,,,,,,,,,,,,,,,,,,,,,,,,,,574.9512704999943,None,2094.551343935992,-1.1715245826610539,6.720378814152318e-05,1,"[0.6076639085237678, 0.6867140783419516, 0.5288186933997555, 0.5609342484301356]","[831.2232516913501, 1047.2756719679962, 1319.4846641552765, 1662.4465033827]",Major_3rd,"[3.0, 5.290295154862364, 4.442200552808806, 3.647019961438937]",False,575.9633870999969,578.8117017999757,578.8117017999757,580.0122157000005,['space'],1,[0.3299395999929402],3.412680800014641,4.445099300035508,None,1,None,1,,,,,,,hnxrev,001,fr,0,0,2022-07-25_14h33.50.374,Cluster,2022.1.1,36.50377102363571,
,,,,3,0,3,0,12,0,12,0,,,time,,,,,,,,,,,,,,,,,,,,,,,,,,,,,,,,,,,,,,,,,,,,,,,,,,,,,,,,,,,,,,,,,,,,,,,,,,,,,,,,,,,,,,,,,,,,,,,,,,,,,,,,,,,,,,,,,,,580.4728325999749,None,1694.3196340451316,-2.2345424347398897,4.7170380983727284e-05,1,"[0.48726444736175223, 0.48726444736175223, 0.48726444736175223, 0.48726444736175223]","[5251.841209518684, 256.3426531798178, 3865.681369500854, 7707.0912755128265]",None,"[-4.622411110452054, 5.537557901548146, 0.0, -1.0]",False,581.4667107999849,583.9516910999955,583.9516910999955,585.1894235999789,['space'],1,[0.33099839999340475],2.9823795999982394,4.016285300021991,None,1,None,1,,,,,,,hnxrev,001,fr,0,0,2022-07-25_14h33.50.374,Cluster,2022.1.1,36.50377102363571,
,,,,3,0,3,0,13,0,13,0,,,frequency,,,,,,,,,,,,,,,,,,,,,,,,,,,,,,,,,,,,,,,,,,,,,,,,,,,,,,,,,,,,,,,,,,,,,,,,,,,,,,,,,,,,,,,,,,,,,,,,,,,,,,,,,,,,,,,,,,,585.5426138999755,None,,,,,"[0.6409992645979905, 0.7683062689236896, 0.7079054919619958, 0.6522127333877088]","[698.7631883165272, 622.5272287548506, 554.6087101051542, 494.1001889021489]",Tone,"[1.5065839802177479, 1.698292829809227, 3.0, 5.0]",True,586.5381886999821,589.6909444999765,589.6909444999765,590.9291921999829,None,1,,3.781109000032302,4.817615200008731,None,1,None,1,0,,,,,,hnxrev,001,fr,0,0,2022-07-25_14h33.50.374,Cluster,2022.1.1,36.50377102363571,
,,,,3,0,3,0,14,0,14,0,,,none,,,,,,,,,,,,,,,,,,,,,,,,,,,,,,,,,,,,,,,,,,,,,,,,,,,,,,,,,,,,,,,,,,,,,,,,,,,,,,,,,,,,,,,,,,,,,,,,,,,,,,,,,,,,,,,,,,,591.399982199975,None,139.91051289098584,0.4752150264841535,0.0006231518215873927,1,"[0.7313380127027289, 0.6332748212837475, 0.473310674213981, 0.4503248698652839]","[248.9467888387405, 204.47854263512312, 514.8151355761731, 3699.513296468278]",None,"[5.537557901548146, 5.416622651675733, 4.0, 1.0]",False,592.4127879999869,595.2987209999992,595.2987209999992,596.531341199996,['space'],1,[0.32233190000988543],3.3145441000233404,4.347327700001188,None,1,None,1,,,,,,,hnxrev,001,fr,0,0,2022-07-25_14h33.50.374,Cluster,2022.1.1,36.50377102363571,
,,,,3,0,3,0,15,0,15,0,,,none,,,,,,,,,,,,,,,,,,,,,,,,,,,,,,,,,,,,,,,,,,,,,,,,,,,,,,,,,,,,,,,,,,,,,,,,,,,,,,,,,,,,,,,,,,,,,,,,,,,,,,,,,,,,,,,,,,,596.8202079999901,None,164.93848884661182,-8.0,0.00015651004536898976,0,"[0.6741842845779655, 0.4870433907001445, 0.4885871413652123, 0.46394296764049736]","[1588.903852732068, 7990.598459367822, 255.7340225538956, 2228.59828160101]",None,"[3.647019961438937, -0.2632778101216129, 5.537557901548146, 5.0]",False,598.7094992999919,601.4012549999752,601.4012549999752,602.6126615999965,None,0,,3.1276995000080206,4.145835400006035,None,1,None,1,,,,,,,hnxrev,001,fr,0,0,2022-07-25_14h33.50.374,Cluster,2022.1.1,36.50377102363571,
,,,,3,0,3,0,16,0,16,0,,,none,,,,,,,,,,,,,,,,,,,,,,,,,,,,,,,,,,,,,,,,,,,,,,,,,,,,,,,,,,,,,,,,,,,,,,,,,,,,,,,,,,,,,,,,,,,,,,,,,,,,,,,,,,,,,,,,,,,602.9062635999871,None,4249.772400532726,-7.840594364852442,4.100465195324363e-05,1,"[0.796058318634381, 0.48800155040043436, 0.7890218756480724, 0.483795826132977]","[129.61480136187478, 689.530481536671, 811.3523241153299, 627.3087883881892]",None,"[6.0, 1.5065839802177479, 2.8408289589076694, 1.698292829809227]",False,603.9041714999767,607.0161936999939,607.0161936999939,608.2209766999877,['space'],1,[0.32650970001122914],3.5868272999941837,4.612436900002649,None,1,None,1,,,,,,,hnxrev,001,fr,0,0,2022-07-25_14h33.50.374,Cluster,2022.1.1,36.50377102363571,
,,,,3,0,3,0,17,0,17,0,,,frequency,,,,,,,,,,,,,,,,,,,,,,,,,,,,,,,,,,,,,,,,,,,,,,,,,,,,,,,,,,,,,,,,,,,,,,,,,,,,,,,,,,,,,,,,,,,,,,,,,,,,,,,,,,,,,,,,,,,608.5660107999865,None,,,,,"[0.7905764614937182, 0.7457573871698939, 0.45300593006570256, 0.6689672553198329]","[629.3215556399458, 942.916940446373, 1412.779124777709, 2116.776960718086]",Perfect_5th,"[1.698292829809227, 4.512287280576092, 4.026040202278114, 4.828475417338947]",True,609.5852266000002,612.5893735999998,612.5893735999998,613.7999440999993,None,1,,3.6792083000182174,4.7070205000345595,None,1,None,1,0,,,,,,hnxrev,001,fr,0,0,2022-07-25_14h33.50.374,Cluster,2022.1.1,36.50377102363571,
,,,,3,0,3,0,18,0,18,0,,,time,,,,,,,,,,,,,,,,,,,,,,,,,,,,,,,,,,,,,,,,,,,,,,,,,,,,,,,,,,,,,,,,,,,,,,,,,,,,,,,,,,,,,,,,,,,,,,,,,,,,,,,,,,,,,,,,,,,614.3344160999986,None,307.7861033362292,-6.0,5.32579615281957e-05,1,"[0.5845604036821558, 0.5845604036821558, 0.5845604036821558, 0.5845604036821558]","[1163.4260521306874, 621.457413201317, 344.390846520328, 231.0559778814027]",None,"[5.2053088615713285, 1.698292829809227, 8.78921793928857, 5.223862564447552]",False,615.3364010999794,618.1148436999938,618.1148436999938,619.3322977999924,['space'],1,[0.2370541999989655],3.3871439000358805,4.418164300033823,None,1,None,1,,,,,,,hnxrev,001,fr,0,0,2022-07-25_14h33.50.374,Cluster,2022.1.1,36.50377102363571,
,,,,3,0,3,0,19,0,19,0,,,none,,,,,,,,,,,,,,,,,,,,,,,,,,,,,,,,,,,,,,,,,,,,,,,,,,,,,,,,,,,,,,,,,,,,,,,,,,,,,,,,,,,,,,,,,,,,,,,,,,,,,,,,,,,,,,,,,,,619.7876448000025,None,1414.213562373095,-5.0,2.836018893396214e-05,0,"[0.5426118536649024, 0.5406008153826387, 0.7181212572474518, 0.4891943222216561]","[6644.0627451397495, 2281.603792445053, 565.4178584530438, 3265.5134639005187]",None,"[-3.748760475731716, 5.1460154689617825, 2.479650305886871, 3.4224510059389095]",False,620.8142206999764,623.6291576999938,623.6291576999938,624.8368379999883,None,0,,3.3344894000329077,4.360832500009565,None,1,None,1,,,,,,,hnxrev,001,fr,0,0,2022-07-25_14h33.50.374,Cluster,2022.1.1,36.50377102363571,
,,,,4,0,4,0,0,0,0,0,,,time,,,,,,,,,,,,,,,,,,,,,,,,,,,,,,,,,,,,,,,,,,,,,,,,,,,,,,,,,,,,,,,,,,,,,,,,,,,,,,,,,,,,,,,,,,,,,,,,,,,,,,,,,,,,,,,,,,,629.7555868999916,None,493.24650708108265,-1.0,6.398270830601402e-05,1,"[0.43142637801054695, 0.43142637801054695, 0.43142637801054695, 0.43142637801054695]","[384.9953801985361, 1742.7650653761689, 1649.9686325208404, 1913.7105491809004]",None,"[8.790195709713082, 3.7654575652601103, 3.647019961438937, 4.0574235575589865]",False,630.7297177999862,633.0456881999853,633.0456881999853,634.2505186999915,['space'],1,[0.3895980000088457],2.7526839000056498,3.7776089000108186,None,1,None,1,,,,,,,hnxrev,001,fr,0,0,2022-07-25_14h33.50.374,Cluster,2022.1.1,36.50377102363571,
,,,,4,0,4,0,1,0,1,0,,,time,,,,,,,,,,,,,,,,,,,,,,,,,,,,,,,,,,,,,,,,,,,,,,,,,,,,,,,,,,,,,,,,,,,,,,,,,,,,,,,,,,,,,,,,,,,,,,,,,,,,,,,,,,,,,,,,,,,634.5575083000003,None,,,,,"[0.7905123560394559, 0.7905123560394559, 0.7905123560394559, 0.7905123560394559]","[801.4947380558705, 634.5191006157165, 5958.625629915053, 507.84600701929634]",None,"[2.8408289589076694, 1.698292829809227, -4.461808124366424, 4.950677049804232]",True,635.5667419999954,638.9672446999757,638.9672446999757,640.1908519999997,None,1,,4.18809899999178,5.205179100012174,None,1,None,1,0,,,,,,hnxrev,001,fr,0,0,2022-07-25_14h33.50.374,Cluster,2022.1.1,36.50377102363571,
,,,,4,0,4,0,2,0,2,0,,,frequency,,,,,,,,,,,,,,,,,,,,,,,,,,,,,,,,,,,,,,,,,,,,,,,,,,,,,,,,,,,,,,,,,,,,,,,,,,,,,,,,,,,,,,,,,,,,,,,,,,,,,,,,,,,,,,,,,,,640.8180035999976,None,189.4645708137998,-9.0,0.00010779657212192314,0,"[0.43010346310840414, 0.7855131993222978, 0.5874862764501736, 0.5548030118903596]","[477.4208019552084, 378.9291416275996, 300.7562590205292, 238.7104009776042]",Major_3rd,"[6.0, 8.790195709713082, 7.709747770638259, 5.223862564447552]",False,641.8480452999938,644.683487399976,644.683487399976,645.920312000002,None,0,,3.398776500020176,4.428842400026042,None,1,None,1,,,,,,,hnxrev,001,fr,0,0,2022-07-25_14h33.50.374,Cluster,2022.1.1,36.50377102363571,
,,,,4,0,4,0,3,0,3,0,,,both,,,,,,,,,,,,,,,,,,,,,,,,,,,,,,,,,,,,,,,,,,,,,,,,,,,,,,,,,,,,,,,,,,,,,,,,,,,,,,,,,,,,,,,,,,,,,,,,,,,,,,,,,,,,,,,,,,,646.307018099993,None,3525.6937046175544,-4.0,4.7709321759227315e-05,1,"[0.5227675616061415, 0.5227675616061415, 0.5227675616061415, 0.5227675616061415]","[2221.0478569647466, 2493.0419269217928, 2798.344947813782, 3141.036001999243]",Tone,"[5.0, 5.301282829788761, 5.0, 4.0]",False,647.3012123999943,649.884478299995,649.884478299995,651.088503099978,['space'],1,[0.4072498000168707],3.1075030000065453,4.112838900007773,None,1,None,1,,,,,,,hnxrev,001,fr,0,0,2022-07-25_14h33.50.374,Cluster,2022.1.1,36.50377102363571,
,,,,4,0,4,0,4,0,4,0,,,none,,,,,,,,,,,,,,,,,,,,,,,,,,,,,,,,,,,,,,,,,,,,,,,,,,,,,,,,,,,,,,,,,,,,,,,,,,,,,,,,,,,,,,,,,,,,,,,,,,,,,,,,,,,,,,,,,,,651.4716306999908,None,1148.9077099213985,-0.7946911384286711,4.588469369966269e-05,1,"[0.468629289641461, 0.6759366029385656, 0.7951384582469901, 0.788314840031177]","[5768.1392048614125, 221.71258828966944, 165.07476831074317, 537.0424642342435]",None,"[-4.762477236157597, 5.199138554488693, 6.459574941411008, 3.6129955185513642]",False,652.4794524999743,655.4351057999884,655.4351057999884,656.6493724999891,['space'],1,[0.5393205000145826],3.744065100006992,4.741222100012237,None,1,None,1,,,,,,,hnxrev,001,fr,0,0,2022-07-25_14h33.50.374,Cluster,2022.1.1,36.50377102363571,
,,,,4,0,4,0,5,0,5,0,,,time,,,,,,,,,,,,,,,,,,,,,,,,,,,,,,,,,,,,,,,,,,,,,,,,,,,,,,,,,,,,,,,,,,,,,,,,,,,,,,,,,,,,,,,,,,,,,,,,,,,,,,,,,,,,,,,,,,,657.2731951999885,None,,,,,"[0.7809760336575854, 0.7809760336575854, 0.7809760336575854, 0.7809760336575854]","[1410.413110274323, 901.8055624208945, 1462.3496883637522, 4817.227727671833]",None,"[4.026040202278114, 4.0, 4.0, -4.0]",True,658.284771799983,661.6318611000024,661.6318611000024,662.8334433999844,None,1,,4.152360200008843,5.160624300013296,None,1,None,1,0,,,,,,hnxrev,001,fr,0,0,2022-07-25_14h33.50.374,Cluster,2022.1.1,36.50377102363571,
,,,,4,0,4,0,6,0,6,0,,,none,,,,,,,,,,,,,,,,,,,,,,,,,,,,,,,,,,,,,,,,,,,,,,,,,,,,,,,,,,,,,,,,,,,,,,,,,,,,,,,,,,,,,,,,,,,,,,,,,,,,,,,,,,,,,,,,,,,663.4905663999962,None,125.0,-4.0,0.00045600541967795504,1,"[0.5488311919676349, 0.536997381216326, 0.46511166492672124, 0.7346970078348798]","[351.03506818613374, 267.21869054777216, 6772.477567528391, 172.22342880447627]",None,"[8.78921793928857, 6.13337686125661, -3.0, 6.171133378872256]",False,664.5033578999864,667.0941212999751,667.0941212999751,668.3053134999936,['space'],1,[0.5340076000138652],3.3266685000271536,4.328135700023267,None,1,None,1,,,"{'estimation': [[125.0, -4.120467863543361], [133.9716828170366, -4.682383069507734], [138.37246616216035, -5.0], [143.5872943746293, -5.344992872195986], [153.89305166811442, -5.996183432810833], [153.96514092187127, -6.0], [164.93848884661162, -6.540713890874281], [176.77669529663666, -6.8769143213525314], [189.46457081379947, -6.950144538306427], [203.0630990890585, -6.740982929501455], [217.6376408240306, -6.299771051050378], [225.39128857435406, -6.0], [233.25824788420132, -5.697134230805755], [249.99999999999937, -5.06996123798306], [252.22178867054717, -5.0], [267.94336563407256, -4.522069442044122], [287.1745887492579, -4.170761791685674], [307.78610333622805, -4.071555604275165], [329.87697769322244, -4.25011542504507], [353.55339059327247, -4.674870984709713], [366.5358278794596, -5.0], [378.929141627598, -5.297318997454892], [405.78111322663034, -6.0], [406.12619817811606, -6.008844908329985], [435.2752816480601, -6.7130412053908035], [449.9428016205736, -7.0], [466.5164957684015, -7.312000014543948], [499.9999999999975, -7.694498579504215], [535.8867312681438, -7.805761297586116], [574.3491774985143, -7.608090560964078], [615.5722066724546, -7.102857848703249], [621.086250070051, -7.0], [659.7539553864432, -6.333117520802613], [675.5370391452597, -6.0], [707.1067811865431, -5.381927903144612], [725.259744613447, -5.0], [757.8582832551941, -4.361594771473099], [777.3519164469246, -4.0], [812.2523963562301, -3.3907610872188636], [839.6778461177458, -3.0], [870.5505632961181, -2.5786505695521313], [933.0329915368008, -2.020851536525603], [938.0657843401051, -2.0], [999.9999999999926, -1.7549231163485834], [1071.773462536285, -1.7974406779684378], [1120.0027773972847, -2.0], [1148.698354997026, -2.118741618196761], [1231.1444133449063, -2.6374484535428926], [1279.431844745203, -3.0], [1319.5079107728832, -3.2945172940820906], [1414.2135623730828, -3.9793584577806325], [1417.4099426094915, -4.0], [1515.7165665103846, -4.620637156653906], [1595.4578019672763, -5.0], [1624.5047927124542, -5.1416816863441905], [1741.101126592234, -5.474681716649904], [1866.065983073597, -5.591150302116356], [1999.9999999999777, -5.491824539227166], [2143.5469250725646, -5.207189070166992], [2219.6105117685383, -5.0], [2297.396709994046, -4.79969229308664], [2462.2888266898062, -4.386436548035044], [2639.01582154576, -4.070312653394506], [2772.5643656852258, -4.0], [2828.427124746159, -3.972258321673376], [2852.1174041453655, -4.0], [3031.433133020758, -4.194834756139124], [3249.0095854249043, -4.773637714547366], [3302.058855242558, -5.0], [3482.2022531844555, -5.7228268660357084], [3536.389702347157, -6.0], [3732.1319661471844, -6.974822564663211], [3736.864607086136, -7.0], [3920.2010644422257, -8.0], [3999.9999999999554, -8.412336488902993], [4115.502353869336, -9.0], [4287.093850145118, -9.871377093867054], [4317.309590506076, -10.0], [4546.239197433166, -11.0], [4594.793419988081, -11.205533443372843], [4847.793106740237, -12.0], [4924.577653379601, -12.23999902493539], [5278.031643091513, -12.854069770386484], [5656.854249492303, -12.994473960344417], [6062.866266041501, -12.654653591115842], [6430.729529647001, -12.0], [6498.019170849792, -11.88572754127586], [6877.810248288172, -11.0], [6964.404506368894, -10.805997102564213], [7285.218192711051, -10.0], [7464.2639322943505, -9.55536150406202], [7702.208371956827, -9.0], [7999.999999999872, -8.27798251549407]], 'plus_line': [[125.0, -6.652049628090992], [133.66385748398858, -7.0], [133.9716828170366, -7.012802499046954], [143.5872943746293, -7.579320070858449], [151.09948408700524, -8.0], [153.89305166811442, -8.163345754812998], [164.93848884661162, -8.681307244501824], [176.77669529663666, -8.996648254319819], [177.23419755990457, -9.0], [189.46457081379936, -9.104582498204113], [197.1178914963611, -9.0], [203.0630990890585, -8.932924391005884], [217.6376408240306, -8.561323834320222], [233.03008378653703, -8.0], [233.25824788420132, -7.992260302563888], [249.99999999999937, -7.423017407047135], [263.5831201782541, -7.0], [267.94336563407256, -6.877132298877878], [287.1745887492579, -6.5322186809208995], [307.78610333622805, -6.412783065435327], [329.87697769322244, -6.563267677118703], [353.55339059327247, -6.954694546964687], [355.4041370126542, -7.0], [378.929141627598, -7.586155430849178], [394.9601054595586, -8.0], [406.12619817811606, -8.298134076594309], [435.2752816480601, -8.974737803222876], [436.6025746702402, -9.0], [466.5164957684015, -9.582176872673148], [499.9999999999975, -9.94238935114894], [519.6171970496927, -10.0], [535.8867312681431, -10.055698356377365], [544.7786510229848, -10.0], [574.3491774985143, -9.850788453610212], [615.5722066724546, -9.326461229825046], [631.7779631474677, -9.0], [659.7539553864432, -8.492946296334795], [681.5125564959392, -8.0], [707.1067811865431, -7.458100705648137], [727.6201890735587, -7.0], [757.8582832551941, -6.356375275296264], [776.138630374939, -6.0], [812.2523963562301, -5.333662848523122], [834.6367068928698, -5.0], [870.5505632961181, -4.511718338331123], [925.8948726485439, -4.0], [933.0329915368008, -3.940371104071998], [999.9999999999926, -3.7227032285276], [1071.773462536285, -3.7870199105639815], [1123.4557858066287, -4.0], [1148.698354997026, -4.119600969195158], [1231.1444133449063, -4.663346529513659], [1276.3773005541818, -5.0], [1319.5079107728832, -5.338344590936611], [1408.5331914218907, -6.0], [1414.2135623730846, -6.045298316939517], [1515.7165665103846, -6.770800438055002], [1557.5960097176364, -7.0], [1624.5047927124563, -7.4001150248418845], [1741.1011265922318, -7.820959720165525], [1863.829027867405, -8.0], [1866.065983073597, -8.003886899193176], [1872.913070853157, -8.0], [1999.9999999999802, -7.941472023400575], [2143.5469250725646, -7.664880663428553], [2297.3967099940432, -7.224926569764655], [2368.2942719195594, -7.0], [2462.2888266898062, -6.748382869014641], [2639.01582154576, -6.379157234702732], [2828.427124746159, -6.20739534016804], [3031.4331330207615, -6.360738566022992], [3249.0095854249043, -6.861827366621099], [3283.0832986187015, -7.0], [3482.2022531844555, -7.773216111230347], [3526.2221479935424, -8.0], [3731.4196477948203, -9.0], [3732.1319661471844, -9.003287745778445], [3900.261019235725, -10.0], [3999.9999999999504, -10.51081495759379], [4088.1173525044837, -11.0], [4279.401146065815, -12.0], [4287.093850145124, -12.03778085229513], [4483.283251814935, -13.0], [4594.793419988076, -13.493835625601651], [4742.300723130632, -14.0], [4924.577653379601, -14.615994620442478], [5131.708189155485, -15.0], [5278.031643091513, -15.28988671729407], [5656.854249492303, -15.439176459519437], [6062.866266041508, -15.036262618053803], [6080.441389448459, -15.000000000000002], [6498.019170849792, -14.231958496986035], [6592.131208029074, -14.0], [6964.4045063688845, -13.106099601837435], [7007.969445497603, -13.0], [7414.744288906561, -12.0], [7464.2639322943505, -11.881164716538688], [7884.081999256946, -11.0], [7999.999999999882, -10.747850080077265]], 'minus_line': [[125.0, -1.579805648640754], [129.57213186661014, -2.0], [133.9716828170366, -2.344705652966316], [141.702685393029, -3.0], [143.5872943746293, -3.141296998937806], [153.89305166811442, -3.864933722617634], [156.19832822606475, -4.0], [164.93848884661162, -4.4361205156048715], [176.77669529663666, -4.779470784094103], [189.46457081379947, -4.819449323855998], [203.0630990890585, -4.538268852595822], [217.6376408240306, -4.035851065463946], [218.47880357240206, -4.0], [233.25824788420132, -3.3411349170172553], [241.70463764634863, -3.0], [249.99999999999937, -2.645524823916322], [267.94336563407256, -2.091392147144442], [273.05075285121075, -2.0], [287.1745887492579, -1.7262846962267426], [307.78610333622805, -1.6588522769142928], [329.87697769322244, -1.8967294924102542], [334.4616850480318, -2.0], [353.55339059327247, -2.3591771362274647], [377.68519378304364, -3.0], [378.929141627598, -3.0299762735031184], [406.12619817811606, -3.7518269899458225], [415.2976857371326, -4.0], [435.2752816480596, -4.482566123545908], [460.1536038961763, -5.0], [466.5164957684015, -5.119288971393742], [499.9999999999975, -5.5036395335763855], [535.8867312681438, -5.620440295394664], [574.3491774985143, -5.430369721233106], [612.9935805342304, -5.0], [615.5722066724546, -4.968620733569065], [659.7539553864432, -4.24208296949709], [672.2551077911925, -4.0], [707.1067811865431, -3.3588219544266864], [725.5201319072247, -3.0], [757.8582832551941, -2.406215250257472], [781.0955763758838, -2.0], [812.2523963562301, -1.4766582262339916], [847.2200665305264, -1.0], [870.5505632961181, -0.6768107782867038], [933.0329915368008, -0.12215210098625802], [962.1641724541905, 0.0], [999.9999999999939, 0.18169573820058438], [1071.773462536285, 0.16280674865630618], [1108.8960358629104, 0.0], [1148.698354997026, -0.14534472333052398], [1231.1444133449063, -0.6392529134852738], [1277.982843788207, -1.0], [1319.5079107728832, -1.2875004224611866], [1414.2135623730828, -1.9563596848673148], [1421.2787859155471, -2.0], [1515.7165665103846, -2.5124427462548384], [1624.5047927124563, -2.9656013291255667], [1639.0471245918534, -3.0], [1741.101126592234, -3.205019437778204], [1866.065983073597, -3.2565171889196494], [1999.9999999999802, -3.134350109848942], [2069.845991093256, -3.0], [2143.5469250725646, -2.8445774149298044], [2297.396709994046, -2.4585849612783814], [2462.2888266898062, -2.091049236681768], [2520.522049175145, -2.0], [2639.01582154576, -1.798386485773288], [2828.427124746159, -1.7424528227944354], [3002.5482925363813, -2.0], [3031.4331330207615, -2.0355468088084785], [3249.0095854249043, -2.6552329329985374], [3325.9474887043884, -3.0], [3482.2022531844555, -3.658595837108773], [3549.1476475105337, -4.0], [3732.1319661471844, -4.964011288291114], [3739.1656439579715, -5.0], [3928.7196377875757, -6.0], [3999.9999999999504, -6.375625927044533], [4130.727691387737, -7.0], [4287.093850145118, -7.803797106942678], [4335.879995114958, -8.0], [4572.695535879253, -9.0], [4594.793419988076, -9.08969823240635], [4900.059893936726, -10.0], [4924.577653379601, -10.071986775466335], [5278.031643091506, -10.641530626046752], [5656.854249492303, -10.784558868483089], [6062.866266041508, -10.459545032521227], [6333.11965712925, -10.0], [6498.019170849792, -9.71491165350509], [6799.536875726227, -9.0], [6964.404506368894, -8.624853911465385], [7194.22641945336, -8.0], [7464.2639322943505, -7.301567710074506], [7577.9335990798945, -7.0], [7941.114099043379, -6.0], [7999.999999999882, -5.845466351838113]]}",,,,hnxrev,001,fr,0,0,2022-07-25_14h33.50.374,Cluster,2022.1.1,36.50377102363571,
,,,,4,0,4,0,7,0,7,0,,,frequency,,,,,,,,,,,,,,,,,,,,,,,,,,,,,,,,,,,,,,,,,,,,,,,,,,,,,,,,,,,,,,,,,,,,,,,,,,,,,,,,,,,,,,,,,,,,,,,,,,,,,,,,,,,,,,,,,,,668.8682419999968,None,142.91130192919437,0.4752150264841535,0.0005949339914903376,1,"[0.5016970351388683, 0.41983301044838717, 0.6281465061742106, 0.6959624096910605]","[226.85755102054813, 202.10710140466296, 180.0569575684738, 160.41251269000276]",Tone,"[5.223862564447552, 5.416622651675733, 6.0, 6.459574941411008]",False,669.8583310999966,672.4408599000017,672.4408599000017,673.6531689999974,['space'],1,[0.28977209998993203],3.278691899991827,4.298690700001316,None,1,None,1,,,,,,,hnxrev,001,fr,0,0,2022-07-25_14h33.50.374,Cluster,2022.1.1,36.50377102363571,
,,,,4,0,4,0,8,0,8,0,,,both,,,,,,,,,,,,,,,,,,,,,,,,,,,,,,,,,,,,,,,,,,,,,,,,,,,,,,,,,,,,,,,,,,,,,,,,,,,,,,,,,,,,,,,,,,,,,,,,,,,,,,,,,,,,,,,,,,,674.212408499996,None,189.4645708137998,-7.0,0.00013570784394859175,1,"[0.5637736023221196, 0.5637736023221196, 0.5637736023221196, 0.5637736023221196]","[954.8416039104168, 637.2803136596312, 425.333580475428, 283.8761072677194]",Perfect_5th,"[4.512287280576092, 1.698292829809227, 8.0, 6.900615931954652]",False,675.2468867999851,677.9817678999971,677.9817678999971,679.2086405000009,['space'],1,[0.22330720000900328],3.2998016999918036,4.302761200000532,None,1,None,1,,,,,,,hnxrev,001,fr,0,0,2022-07-25_14h33.50.374,Cluster,2022.1.1,36.50377102363571,
,,,,4,0,4,0,9,0,9,0,,,both,,,,,,,,,,,,,,,,,,,,,,,,,,,,,,,,,,,,,,,,,,,,,,,,,,,,,,,,,,,,,,,,,,,,,,,,,,,,,,,,,,,,,,,,,,,,,,,,,,,,,,,,,,,,,,,,,,,679.5913363999862,None,,,,,"[0.7338796968076748, 0.7338796968076748, 0.7338796968076748, 0.7338796968076748]","[997.3391805392754, 1494.3203522483866, 2238.950758894613, 3354.6357668302153]",Perfect_5th,"[5.06055000320855, 3.735371251845848, 5.0, 3.0]",True,680.5992290999857,683.8190161999955,683.8190161999955,685.035791799979,['space'],0,[0.2753190000075847],3.975185900024371,4.977905900013866,None,1,None,1,0,,,,,,hnxrev,001,fr,0,0,2022-07-25_14h33.50.374,Cluster,2022.1.1,36.50377102363571,
,,,,4,0,4,0,10,0,10,0,,,frequency,,,,,,,,,,,,,,,,,,,,,,,,,,,,,,,,,,,,,,,,,,,,,,,,,,,,,,,,,,,,,,,,,,,,,,,,,,,,,,,,,,,,,,,,,,,,,,,,,,,,,,,,,,,,,,,,,,,685.6189488999953,None,2828.42712474619,-6.0,3.282073027694465e-05,0,"[0.777851088742428, 0.5348069629538693, 0.43063574069944693, 0.7902674683221649]","[561.2310241546866, 840.8964152537146, 1259.9210498948732, 1887.748625363387]",Perfect_5th,"[3.0, 3.0, 4.876532467017045, 4.0574235575589865]",False,686.6496886999812,689.4289129999815,689.4289129999815,690.625122700003,None,0,,3.5695324999687728,4.570758899964858,None,1,None,1,,,,,,,hnxrev,001,fr,0,0,2022-07-25_14h33.50.374,Cluster,2022.1.1,36.50377102363571,
,,,,4,0,4,0,11,0,11,0,,,both,,,,,,,,,,,,,,,,,,,,,,,,,,,,,,,,,,,,,,,,,,,,,,,,,,,,,,,,,,,,,,,,,,,,,,,,,,,,,,,,,,,,,,,,,,,,,,,,,,,,,,,,,,,,,,,,,,,691.2600367999985,None,,,,,"[0.7556143902101172, 0.7556143902101172, 0.7556143902101172, 0.7556143902101172]","[275.22172993498594, 308.9259467220734, 346.75765093357074, 389.2223031338424]",Tone,"[6.13337686125661, 7.709747770638259, 8.78921793928857, 8.790195709713082]",True,692.2525243999844,695.5486146999756,695.5486146999756,696.7552863000019,None,1,,4.04973500003689,5.069600100017851,None,1,None,1,0,,,,,,hnxrev,001,fr,0,0,2022-07-25_14h33.50.374,Cluster,2022.1.1,36.50377102363571,
,,,,4,0,4,0,12,0,12,0,,,frequency,,,,,,,,,,,,,,,,,,,,,,,,,,,,,,,,,,,,,,,,,,,,,,,,,,,,,,,,,,,,,,,,,,,,,,,,,,,,,,,,,,,,,,,,,,,,,,,,,,,,,,,,,,,,,,,,,,,697.3707442999876,None,5217.129727653297,-10.622411110452054,4.260546810687807e-05,1,"[0.6322992947538608, 0.6553497672602571, 0.5858148501770577, 0.648520836285865]","[2070.419304482853, 2608.5648638266493, 3286.5857819513485, 4140.838608965705]",Major_3rd,"[4.440927439868993, 5.238159830709439, 3.4224510059389095, -1.0]",False,698.3741394999961,701.2698653999832,701.2698653999832,702.4783738999977,['space'],1,[0.24875719999545254],3.5548060000000987,4.561287499993341,None,1,None,1,,,,,,,hnxrev,001,fr,0,0,2022-07-25_14h33.50.374,Cluster,2022.1.1,36.50377102363571,
,,,,4,0,4,0,13,0,13,0,,,time,,,,,,,,,,,,,,,,,,,,,,,,,,,,,,,,,,,,,,,,,,,,,,,,,,,,,,,,,,,,,,,,,,,,,,,,,,,,,,,,,,,,,,,,,,,,,,,,,,,,,,,,,,,,,,,,,,,702.9909076999757,None,3031.4331330207992,-5.0,3.250253881325064e-05,0,"[0.6856046889460211, 0.6856046889460211, 0.6856046889460211, 0.6856046889460211]","[1838.2402254267142, 801.5954655003138, 1557.4829960259835, 4859.965241030408]",None,"[4.0, 2.8408289589076694, 3.735371251845848, -4.0]",False,704.0088757999765,707.0788137999771,707.0788137999771,708.3005458999833,None,0,,3.777586899988819,4.782398400013335,None,1,None,1,,,,,,,hnxrev,001,fr,0,0,2022-07-25_14h33.50.374,Cluster,2022.1.1,36.50377102363571,
,,,,4,0,4,0,14,0,14,0,,,frequency,,,,,,,,,,,,,,,,,,,,,,,,,,,,,,,,,,,,,,,,,,,,,,,,,,,,,,,,,,,,,,,,,,,,,,,,,,,,,,,,,,,,,,,,,,,,,,,,,,,,,,,,,,,,,,,,,,,708.8238427999895,None,535.8867312681471,-7.0,2.94124861631282e-05,0,"[0.7489184012754182, 0.594746258509659, 0.6357179747732657, 0.4850458943206412]","[1350.3499461681915, 1071.7734625362943, 850.6671609508566, 675.1749730840957]",Major_3rd,"[4.442200552808806, 5.290295154862364, 3.723018073591315, 1.3719891105457638]",False,709.8965075000015,712.9083207999938,712.9083207999938,714.1273196999973,None,0,,3.49109740005224,4.498754700034624,None,1,None,1,,,,,,,hnxrev,001,fr,0,0,2022-07-25_14h33.50.374,Cluster,2022.1.1,36.50377102363571,
,,,,4,0,4,0,15,0,15,0,,,both,,,,,,,,,,,,,,,,,,,,,,,,,,,,,,,,,,,,,,,,,,,,,,,,,,,,,,,,,,,,,,,,,,,,,,,,,,,,,,,,,,,,,,,,,,,,,,,,,,,,,,,,,,,,,,,,,,,714.4260185000021,None,,,,,"[0.6325645364298448, 0.6325645364298448, 0.6325645364298448, 0.6325645364298448]","[916.0190950353491, 1372.477892645637, 2056.393339407752, 3081.1086932767066]",Perfect_5th,"[4.512287280576092, 4.026040202278114, 4.440927439868993, 4.0]",True,715.4346805999812,718.3644184999866,718.3644184999866,719.5789579999982,None,1,,3.5652094000251964,4.59041040003649,None,1,None,1,0,,,,,,hnxrev,001,fr,0,0,2022-07-25_14h33.50.374,Cluster,2022.1.1,36.50377102363571,
,,,,4,0,4,0,16,0,16,0,,,both,,,,,,,,,,,,,,,,,,,,,,,,,,,,,,,,,,,,,,,,,,,,,,,,,,,,,,,,,,,,,,,,,,,,,,,,,,,,,,,,,,,,,,,,,,,,,,,,,,,,,,,,,,,,,,,,,,,720.0655522999878,None,694.8511374689625,-4.493416019782252,2.71098731185585e-05,1,"[0.4436683244554648, 0.4436683244554648, 0.4436683244554648, 0.4436683244554648]","[1750.9151492810843, 1389.702274937925, 1103.007426579531, 875.4575746405421]",Major_3rd,"[3.7654575652601103, 4.026040202278114, 5.290295154862364, 3.723018073591315]",False,721.0715667999757,723.4288823999814,723.4288823999814,724.6422703999851,['space'],1,[0.5084538999944925],2.788398700009566,3.824998299998697,None,1,None,1,,,,,,,hnxrev,001,fr,0,0,2022-07-25_14h33.50.374,Cluster,2022.1.1,36.50377102363571,
,,,,4,0,4,0,17,0,17,0,,,both,,,,,,,,,,,,,,,,,,,,,,,,,,,,,,,,,,,,,,,,,,,,,,,,,,,,,,,,,,,,,,,,,,,,,,,,,,,,,,,,,,,,,,,,,,,,,,,,,,,,,,,,,,,,,,,,,,,724.9466805999982,None,353.5533905932738,-6.0,4.441136864173166e-05,1,"[0.7652638990488065, 0.7652638990488065, 0.7652638990488065, 0.7652638990488065]","[890.8987181403395, 707.1067811865477, 561.2310241546866, 445.4493590701697]",Major_3rd,"[4.0, 1.5065839802177479, 3.0, 7.0]",False,727.1453221999982,730.4638036999968,730.4638036999968,731.6734024999896,['space'],1,[0.31481380001059733],4.098324200022034,5.1331496000348125,None,1,None,1,,,,,,,hnxrev,001,fr,0,0,2022-07-25_14h33.50.374,Cluster,2022.1.1,36.50377102363571,
,,,,4,0,4,0,18,0,18,0,,,frequency,,,,,,,,,,,,,,,,,,,,,,,,,,,,,,,,,,,,,,,,,,,,,,,,,,,,,,,,,,,,,,,,,,,,,,,,,,,,,,,,,,,,,,,,,,,,,,,,,,,,,,,,,,,,,,,,,,,732.3163153999776,None,7825.270381468382,-7.0,7.87246582090685e-05,1,"[0.5435614685409438, 0.7692641504014371, 0.44533858407246624, 0.49589884152255453]","[3105.460608869627, 3912.635190734192, 4929.61143736545, 6210.921217739252]",Major_3rd,"[4.0, 0.0, -4.042775762931498, -4.0]",False,733.3211819999851,736.0959153999866,736.0959153999866,737.3100397999806,['space'],1,[0.2884573999908753],3.271429899992654,4.296338400017703,None,1,None,1,,,,,,,hnxrev,001,fr,0,0,2022-07-25_14h33.50.374,Cluster,2022.1.1,36.50377102363571,
,,,,4,0,4,0,19,0,19,0,,,time,,,,,,,,,,,,,,,,,,,,,,,,,,,,,,,,,,,,,,,,,,,,,,,,,,,,,,,,,,,,,,,,,,,,,,,,,,,,,,,,,,,,,,,,,,,,,,,,,,,,,,,,,,,,,,,,,,,737.6723681000003,None,394.27118638068856,2.352345427553765,0.00010231600460499465,1,"[0.7709278275432103, 0.7709278275432103, 0.7709278275432103, 0.7709278275432103]","[286.93846642365384, 4470.695953409687, 1590.7852717360124, 1474.501596777518]",None,"[6.900615931954652, -3.0, 3.647019961438937, 3.735371251845848]",False,738.6776389000006,742.0325890999811,742.0325890999811,743.2466425999883,['space'],1,[0.3310741000168491],4.111337700014701,5.123072700022021,None,1,None,1,,,,,,,hnxrev,001,fr,0,0,2022-07-25_14h33.50.374,Cluster,2022.1.1,36.50377102363571,
,,,,5,0,5,0,0,0,0,0,,,frequency,,,,,,,,,,,,,,,,,,,,,,,,,,,,,,,,,,,,,,,,,,,,,,,,,,,,,,,,,,,,,,,,,,,,,,,,,,,,,,,,,,,,,,,,,,,,,,,,,,,,,,,,,,,,,,,,,,,746.1196998999803,None,1414.213562373095,-3.0,3.570336253224866e-05,1,"[0.7965782184533264, 0.5986349988777485, 0.5592629614085215, 0.702895870741425]","[7127.189745122715, 4756.828460010885, 3174.8021039363994, 2118.9261887185908]",Perfect_5th,"[-2.0, -4.0, 4.0, 4.828475417338947]",False,747.1146409999928,750.0813641999848,750.0813641999848,751.2913874999795,['space'],1,[0.29669029999058694],3.6992543000087608,4.703065300011076,None,1,None,1,,,,,,,hnxrev,001,fr,0,0,2022-07-25_14h33.50.374,Cluster,2022.1.1,36.50377102363571,
,,,,5,0,5,0,1,0,1,0,,,time,,,,,,,,,,,,,,,,,,,,,,,,,,,,,,,,,,,,,,,,,,,,,,,,,,,,,,,,,,,,,,,,,,,,,,,,,,,,,,,,,,,,,,,,,,,,,,,,,,,,,,,,,,,,,,,,,,,751.8588595999754,None,125.0,-6.0,0.00036221798003749513,1,"[0.6436889710516632, 0.6436889710516632, 0.6436889710516632, 0.6436889710516632]","[2791.2884954404303, 1762.4055516314481, 7314.6302979259, 6274.882657982363]",None,"[5.0, 3.7654575652601103, -2.0, -4.0]",False,752.8623972999922,755.8305917999824,755.8305917999824,757.031739099999,['space'],1,[0.38182760000927374],3.61007470000186,4.6180994999886025,None,1,None,1,,,,,,,hnxrev,001,fr,0,0,2022-07-25_14h33.50.374,Cluster,2022.1.1,36.50377102363571,
,,,,5,0,5,0,2,0,2,0,,,time,,,,,,,,,,,,,,,,,,,,,,,,,,,,,,,,,,,,,,,,,,,,,,,,,,,,,,,,,,,,,,,,,,,,,,,,,,,,,,,,,,,,,,,,,,,,,,,,,,,,,,,,,,,,,,,,,,,757.5108483999793,None,,,,,"[0.5977532536170352, 0.5977532536170352, 0.5977532536170352, 0.5977532536170352]","[2221.081542826502, 1654.045675068682, 1916.4846285638876, 168.835033739982]",None,"[5.0, 3.647019961438937, 4.0574235575589865, 6.459574941411008]",True,758.5149419999798,761.3307471000007,761.3307471000007,762.5700136999949,['space'],0,[0.07915390000562184],3.425021299975924,4.456940499978373,None,1,None,1,0,,,,,,hnxrev,001,fr,0,0,2022-07-25_14h33.50.374,Cluster,2022.1.1,36.50377102363571,
,,,,5,0,5,0,3,0,3,0,,,both,,,,,,,,,,,,,,,,,,,,,,,,,,,,,,,,,,,,,,,,,,,,,,,,,,,,,,,,,,,,,,,,,,,,,,,,,,,,,,,,,,,,,,,,,,,,,,,,,,,,,,,,,,,,,,,,,,,763.0152251999825,None,375.53350783974867,2.7901957097130823,0.00011431316293411688,1,"[0.503204465476851, 0.503204465476851, 0.503204465476851, 0.503204465476851]","[946.2851429363214, 751.0670156794973, 596.1222853941251, 473.1425714681607]",Major_3rd,"[4.512287280576092, 2.0, 2.0, 6.0]",False,764.0185576999793,766.5432532999839,766.5432532999839,767.7538996999792,['space'],1,[0.27054209998459555],3.0394078999815974,4.051095100003295,None,1,None,1,,,,,,,hnxrev,001,fr,0,0,2022-07-25_14h33.50.374,Cluster,2022.1.1,36.50377102363571,
,,,,5,0,5,0,4,0,4,0,,,frequency,,,,,,,,,,,,,,,,,,,,,,,,,,,,,,,,,,,,,,,,,,,,,,,,,,,,,,,,,,,,,,,,,,,,,,,,,,,,,,,,,,,,,,,,,,,,,,,,,,,,,,,,,,,,,,,,,,,768.1230525999854,None,3153.0191855469143,-2.0,5.4866008484346634e-05,0,"[0.6113001771289982, 0.6124671236408253, 0.5609643405689175, 0.4941218366183533]","[7945.110485185894, 6306.0383710938295, 5005.105972013088, 3972.5552425929463]",Major_3rd,"[-0.2632778101216129, -4.0, -4.042775762931498, -0.45241078254740774]",False,769.1285699,771.9314140999923,771.9314140999923,773.1473838999809,None,0,,3.2943815999897197,4.300613599974895,None,1,None,1,,,,,,,hnxrev,001,fr,0,0,2022-07-25_14h33.50.374,Cluster,2022.1.1,36.50377102363571,
,,,,5,0,5,0,5,0,5,0,,,both,,,,,,,,,,,,,,,,,,,,,,,,,,,,,,,,,,,,,,,,,,,,,,,,,,,,,,,,,,,,,,,,,,,,,,,,,,,,,,,,,,,,,,,,,,,,,,,,,,,,,,,,,,,,,,,,,,,773.4837025000015,None,2462.2888266898335,-4.0,5.366889446213605e-05,1,"[0.6031466579317077, 0.6031466579317077, 0.6031466579317077, 0.6031466579317077]","[3908.639873736986, 3482.202253184498, 3102.289523667471, 2763.8257599355534]",Tone,"[0.0, 2.2889682846151116, 4.0, 5.0]",False,774.5008757999749,777.3304184000008,777.3304184000008,778.5475155999884,['space'],1,[0.2906807000108529],3.448698099993635,4.457124199980171,None,1,None,1,,,,,,,hnxrev,001,fr,0,0,2022-07-25_14h33.50.374,Cluster,2022.1.1,36.50377102363571,
,,,,5,0,5,0,6,0,6,0,,,both,,,,,,,,,,,,,,,,,,,,,,,,,,,,,,,,,,,,,,,,,,,,,,,,,,,,,,,,,,,,,,,,,,,,,,,,,,,,,,,,,,,,,,,,,,,,,,,,,,,,,,,,,,,,,,,,,,,778.9844618999923,None,4363.907540871501,-8.0,4.338538914036804e-05,1,"[0.5079022421202619, 0.5079022421202619, 0.5079022421202619, 0.5079022421202619]","[1731.817855267845, 2181.953770435751, 2749.0894852694883, 3463.6357105356897]",Major_3rd,"[3.7654575652601103, 4.828475417338947, 5.0, 2.2889682846151116]",False,779.9930295999802,782.521668100002,782.521668100002,783.722239900002,['space'],1,[0.5799842000124045],3.0607724000001326,4.072141799988458,None,1,None,1,,,,,,,hnxrev,001,fr,0,0,2022-07-25_14h33.50.374,Cluster,2022.1.1,36.50377102363571,
,,,,5,0,5,0,7,0,7,0,,,both,,,,,,,,,,,,,,,,,,,,,,,,,,,,,,,,,,,,,,,,,,,,,,,,,,,,,,,,,,,,,,,,,,,,,,,,,,,,,,,,,,,,,,,,,,,,,,,,,,,,,,,,,,,,,,,,,,,784.1161215999746,None,164.93848884661182,-9.0,0.00013948972476246718,1,"[0.6551334627504867, 0.6551334627504867, 0.6551334627504867, 0.6551334627504867]","[831.2378961427879, 554.7847360339226, 370.27438807164117, 247.1285050882241]",Perfect_5th,"[3.0, 3.0, 8.790195709713082, 5.537557901548146]",False,786.4148434999806,789.4112325999886,789.4112325999886,790.6330242999829,['space'],1,[0.3739683000021614],3.6264925000432413,4.6366972000396345,None,1,None,1,,,,,,,hnxrev,001,fr,0,0,2022-07-25_14h33.50.374,Cluster,2022.1.1,36.50377102363571,
