frequencies,training_trials.thisRepN,training_trials.thisTrialN,training_trials.thisN,training_trials.thisIndex,frequencies.thisRepN,frequencies.thisTrialN,frequencies.thisN,frequencies.thisIndex,trials.thisRepN,trials.thisTrialN,trials.thisN,trials.thisIndex,tFrequency,tLevel,tCorrect,Tprobe.started,Tprobe.stopped,tTriangle_cue.started,tTriangle_cue.stopped,Tfeedback.keys,Tfeedback.corr,Tfeedback.rt,Tfeedback.started,Tfeedback.stopped,reversals_nTrials.routineEndVal,track_dir.routineEndVal,step_up.routineEndVal,Correct,Frequency,Level,Psychopy_Level,Direction,Reversals,Track_dir,Step,probe.started,probe.stopped,cross_cue.started,cross_cue.stopped,circle_cue.started,circle_cue.stopped,triangle_cue.started,triangle_cue.stopped,feedback.keys,feedback.corr,feedback.rt,feedback.started,feedback.stopped,memo.started,memo.stopped,key_resp.keys,key_resp.rt,key_resp.started,key_resp.stopped,text.started,text.stopped,participant,session,skip_training,language (english or french),date,expName,psychopyVersion,frameRate,
450,0,0,0,1,,,,,,,,,450,30,left,38.398660966722915,None,40.37121060001664,40.69704220001586,up,0,4.307540600071661,37.9373757999856,None,,,,,,,,,,,,,,,,,,,,,,,,,,,,,,,,,wquuex,001,0,fr,2022-05-06_17h30.10.757,3-AFC_adaptive_staircase_mess,2022.1.1,None,
850,0,1,1,2,,,,,,,,,850,30,up,50.68129506666834,None,51.61869430006482,51.94169260002673,up,1,3.903764999937266,49.18861269997433,None,,,,,,,,,,,,,,,,,,,,,,,,,,,,,,,,,wquuex,001,0,fr,2022-05-06_17h30.10.757,3-AFC_adaptive_staircase_mess,2022.1.1,None,
1300,0,2,2,3,,,,,,,,,1300,30,left,57.30286836665279,None,59.277882499969564,59.602956000017,left,1,3.6708369000116363,56.84571879997384,None,,,,,,,,,,,,,,,,,,,,,,,,,,,,,,,,,wquuex,001,0,fr,2022-05-06_17h30.10.757,3-AFC_adaptive_staircase_mess,2022.1.1,None,
200,0,3,3,0,,,,,,,,,200,30,right,67.52069306670843,None,67.47313810000196,67.80429490003735,right,1,3.6373405000194907,65.03882440004963,None,,,,,,,,,,,,,,,,,,,,,,,,,,,,,,,,,wquuex,001,0,fr,2022-05-06_17h30.10.757,3-AFC_adaptive_staircase_mess,2022.1.1,None,
5000,0,4,4,4,,,,,,,,,5000,30,right,74.72490456671609,None,74.68017489998601,75.00427989999298,right,1,3.5709138000383973,72.2582446000306,None,,,,,,,,,,,,,,,,,,,,,,,,,,,,,,,,,wquuex,001,0,fr,2022-05-06_17h30.10.757,3-AFC_adaptive_staircase_mess,2022.1.1,None,
,,,,,0,0,0,0,0,0,0,0,,,,,,,,,,,,,[],[],10,up,1000,30,0.0013930605843148849,0,0,-1,10,87.13493806665453,None,86.09386290004477,86.41663380002137,87.08800460002385,87.41746929998044,88.09083450003527,88.41390449996106,up,1,3.13398199994117,86.1504116000142,None,88.6526391999796,None,,,,,,,wquuex,001,0,fr,2022-05-06_17h30.10.757,3-AFC_adaptive_staircase_mess,2022.1.1,None,
,,,,,0,0,0,0,1,0,1,0,,,,,,,,,,,,,,,,left,1000,30,0.0013930605843148849,0,0,-1,10,90.8449126666567,None,90.79865290003363,91.13155709998682,91.8118351000594,92.13863429997582,92.81135370000266,93.1339752000058,left,1,3.3702273999806494,90.85729940002784,None,93.34205350000411,None,,,,,,,wquuex,001,0,fr,2022-05-06_17h30.10.757,3-AFC_adaptive_staircase_mess,2022.1.1,None,
,,,,,0,0,0,0,2,0,2,0,,,,,,,,,,,,,,,,up,1000,10,0.00013930605843148847,-1,0,-1,-10,96.78521256667251,None,95.76161100005265,96.09738930000458,96.76854590000585,97.10158520005643,97.75299359997734,98.08272069995292,right,0,4.746176199987531,95.81890730001032,None,98.31691980001051,None,,,,,,,wquuex,001,0,fr,2022-05-06_17h30.10.757,3-AFC_adaptive_staircase_mess,2022.1.1,None,
,,,,,0,0,0,0,3,0,3,0,,,,,,,,,,,,,,,,left,1000,15,0.000247725095402395,1,1,1,5,102.12561956671222,None,102.07975100004114,102.41042910004035,103.08953720005229,103.41579870006535,104.08942179998849,104.41230960004032,up,0,5.0652132000541314,102.13863729999866,None,104.61975660000462,None,,,,,,,wquuex,001,0,fr,2022-05-06_17h30.10.757,3-AFC_adaptive_staircase_mess,2022.1.1,None,
,,,,,0,0,0,0,4,0,4,0,,,,,,,,,,,,,,,,up,1000,20,0.0004405244365040069,1,1,1,5,109.7732503666232,None,108.74955189996399,109.0973952000495,109.75658369995654,110.0692366999574,110.74438609997742,111.07048600004055,left,0,4.300687300041318,108.807903500041,None,111.3090552999638,None,,,,,,,wquuex,001,0,fr,2022-05-06_17h30.10.757,3-AFC_adaptive_staircase_mess,2022.1.1,None,
,,,,,0,0,0,0,5,0,5,0,,,,,,,,,,,,,,,,left,1000,25,0.0007833755350540744,1,1,1,5,114.68481316668137,None,114.63673490006477,114.9778626000043,115.63447100005578,115.96994520002045,116.64938620000612,116.98194940004032,left,1,3.22924590006005,114.69588050001767,None,117.18889830005355,None,,,,,,,wquuex,001,0,fr,2022-05-06_17h30.10.757,3-AFC_adaptive_staircase_mess,2022.1.1,None,
,,,,,0,0,0,0,6,0,6,0,,,,,,,,,,,,,,,,right,1000,25,0.0007833755350540744,1,1,1,5,121.4604872667153,None,119.43739710003138,119.76192930003162,120.44208990002517,120.77495950006414,121.44382060004864,121.77746799995657,right,1,3.182724100071937,119.49420830002055,None,121.98749900003895,None,,,,,,,wquuex,001,0,fr,2022-05-06_17h30.10.757,3-AFC_adaptive_staircase_mess,2022.1.1,None,
,,,,,0,0,0,0,7,0,7,0,,,,,,,,,,,,,,,,left,1000,15,0.000247725095402395,-1,2,-1,-5.0,124.2346486666395,124.46131899999455,124.18442359997425,124.52169670001604,125.19204820005689,125.51842039998155,126.19211820000783,126.52534629998263,right,0,3.832857000059448,124.25168079999276,None,126.73212020006031,None,,,,,,,wquuex,001,0,fr,2022-05-06_17h30.10.757,3-AFC_adaptive_staircase_mess,2022.1.1,None,
,,,,,0,0,0,0,8,0,8,0,,,,,,,,,,,,,,,,up,1000,17.5,0.00033034672400379786,1,3,1,2.5,130.67487016664043,None,129.63153330003843,129.9574927999638,130.62994510005228,130.96440719999373,131.64179510006215,131.96858149999753,left,0,4.778440200025216,129.69015779998153,None,132.17572309996467,None,,,,,,,wquuex,001,0,fr,2022-05-06_17h30.10.757,3-AFC_adaptive_staircase_mess,2022.1.1,None,
,,,,,0,0,0,0,9,0,9,0,,,,,,,,,,,,,,,,right,1000,20.0,0.0004405244365040069,1,3,1,2.5,138.02035576670121,None,135.98180960002355,136.3120118000079,136.99320749996696,137.3316353999544,138.00368910003453,138.34434569999576,left,0,5.4831464000744745,136.0413834999781,None,138.5594715999905,None,,,,,,,wquuex,001,0,fr,2022-05-06_17h30.10.757,3-AFC_adaptive_staircase_mess,2022.1.1,None,
,,,,,0,0,0,0,10,0,10,0,,,,,,,,,,,,,,,,left,1000,22.5,0.0005874487774697646,1,3,1,2.5,143.06467116665252,None,143.04800449998584,143.36582379997708,144.0502042999724,144.36642410000786,145.0407670000568,145.35848150006495,left,1,3.1666270999703556,143.07735130004585,None,145.59334310004488,None,,,,,,,wquuex,001,0,fr,2022-05-06_17h30.10.757,3-AFC_adaptive_staircase_mess,2022.1.1,None,
,,,,,0,0,0,0,11,0,11,0,,,,,,,,,,,,,,,,left,1000,22.5,0.0005874487774697646,1,3,1,2.5,147.8203026666927,None,147.7711685000686,148.10835920006502,148.7628432000056,149.10372560005635,149.77531469997484,150.10613830003422,left,1,2.999801400001161,147.83700309996493,None,150.3139216999989,None,,,,,,,wquuex,001,0,fr,2022-05-06_17h30.10.757,3-AFC_adaptive_staircase_mess,2022.1.1,None,
,,,,,0,0,0,0,12,0,12,0,,,,,,,,,,,,,,,,right,1000,17.5,0.00033034672400379786,-1,4,-1,-5.0,154.36578566668712,None,152.33077700005379,152.66559240000788,153.33866070001386,153.67486679996364,154.34911900002044,154.68371550005395,right,1,3.2179806999629363,152.38620329997502,None,154.9006958999671,None,,,,,,,wquuex,001,0,fr,2022-05-06_17h30.10.757,3-AFC_adaptive_staircase_mess,2022.1.1,None,
,,,,,0,0,0,0,13,0,13,0,,,,,,,,,,,,,,,,up,1000,17.5,0.00033034672400379786,-1,4,-1,-5.0,158.15431276668485,None,157.1037524000276,157.4481466000434,158.10972670000046,158.45314200001303,159.11566610005684,159.45108270004857,left,0,4.616041800007224,157.16347450006288,None,159.66650299995672,None,,,,,,,wquuex,001,0,fr,2022-05-06_17h30.10.757,3-AFC_adaptive_staircase_mess,2022.1.1,None,
,,,,,0,0,0,0,14,0,14,0,,,,,,,,,,,,,,,,up,1000,20.0,0.0004405244365040069,1,5,1,2.5,164.32192606671404,None,163.28705980000086,163.60303160001058,164.27634760004003,164.62194720003754,165.2822069999529,165.62082059995737,up,1,3.018498899997212,163.32154519995674,None,165.82470120000653,None,,,,,,,wquuex,001,0,fr,2022-05-06_17h30.10.757,3-AFC_adaptive_staircase_mess,2022.1.1,None,
,,,,,0,0,0,0,15,0,15,0,,,,,,,,,,,,,,,,left,1000,20.0,0.0004405244365040069,1,5,1,2.5,167.90573836671345,None,167.8560836999677,168.19922139996197,168.8584335000487,169.19426270003896,169.85861740005203,170.19165239995345,right,0,3.108019300037995,167.92013139999472,None,170.43401950004045,None,,,,,,,wquuex,001,0,fr,2022-05-06_17h30.10.757,3-AFC_adaptive_staircase_mess,2022.1.1,None,
,,,,,0,0,0,0,16,0,16,0,,,,,,,,,,,,,,,,left,1000,22.5,0.0005874487774697646,1,5,1,2.5,172.6023841666213,None,172.55300650000572,172.89899819996208,173.56306469999254,173.89637039997615,174.56058240006678,174.8973489999771,left,1,3.054543500067666,172.6135313999839,None,175.1058160000248,None,,,,,,,wquuex,001,0,fr,2022-05-06_17h30.10.757,3-AFC_adaptive_staircase_mess,2022.1.1,None,
,,,,,0,0,0,0,17,0,17,0,,,,,,,,,,,,,,,,up,1000,22.5,0.0005874487774697646,1,5,1,2.5,178.22465016664162,None,177.16554279997945,177.50190569995902,178.17973370000254,178.50127490004525,179.16850050003268,179.50520490005147,up,1,2.983274500002153,177.22951540001668,None,179.7212091999827,None,,,,,,,wquuex,001,0,fr,2022-05-06_17h30.10.757,3-AFC_adaptive_staircase_mess,2022.1.1,None,
,,,,,0,0,0,0,18,0,18,0,,,,,,,,,,,,,,,,right,1000,17.5,0.00033034672400379786,-1,6,-1,-5.0,183.7552893666473,None,181.71458230004646,182.03787400003057,182.69594830006827,183.04039720003493,183.70606320002116,184.04359380004462,up,0,4.597094700089656,181.74258580000605,None,184.26368239999283,None,,,,,,,wquuex,001,0,fr,2022-05-06_17h30.10.757,3-AFC_adaptive_staircase_mess,2022.1.1,None,
,,,,,1,0,1,0,0,0,0,0,,,,,,,,,,,,,[],[],10,up,1500,30,0.001527460556607757,0,0,-1,10,191.36463406664942,None,190.31600430002436,190.6310373999877,191.3169566000579,191.63079139997717,192.30675870005507,192.647600300028,up,1,2.951759699964896,190.3808115000138,None,192.86098280001897,None,space,2.403826899942942,187.42384139995556,None,187.42384139995556,None,wquuex,001,0,fr,2022-05-06_17h30.10.757,3-AFC_adaptive_staircase_mess,2022.1.1,None,
,,,,,1,0,1,0,1,0,1,0,,,,,,,,,,,,,,,,right,1500,30,0.001527460556607757,0,0,-1,10,196.90219046670634,None,194.85668079997413,195.18402310006786,195.87594870000612,196.21850529999938,196.88552380003966,197.22718389995862,right,1,3.097801800002344,194.92177779995836,None,197.42311400000472,None,,,,,,,wquuex,001,0,fr,2022-05-06_17h30.10.757,3-AFC_adaptive_staircase_mess,2022.1.1,None,
,,,,,1,0,1,0,2,0,2,0,,,,,,,,,,,,,,,,up,1500,10,0.0001527460556607757,-1,0,-1,-10,200.57228256663464,None,199.52299980004318,199.86015439999755,200.52290750003885,200.86487779999152,201.5232093000086,201.8584546999773,left,0,4.608142600045539,199.58772640000097,None,202.0724655999802,None,,,,,,,wquuex,001,0,fr,2022-05-06_17h30.10.757,3-AFC_adaptive_staircase_mess,2022.1.1,None,
,,,,,1,0,1,0,3,0,3,0,,,,,,,,,,,,,,,,left,1500,15,0.00027162516574621667,1,1,1,5,205.74949616665643,None,205.70057390001602,206.0358908000635,206.70139970001765,207.02993730001617,207.70037149998825,208.02238019998185,left,1,4.589837900013663,205.76565479999408,None,208.26605169998948,None,,,,,,,wquuex,001,0,fr,2022-05-06_17h30.10.757,3-AFC_adaptive_staircase_mess,2022.1.1,None,
,,,,,1,0,1,0,4,0,4,0,,,,,,,,,,,,,,,,up,1500,15,0.00027162516574621667,1,1,1,5,212.9212566667159,None,211.8687670000363,212.2120086000068,212.86984439997468,213.19043830002192,213.8705622999696,214.2084457000019,left,0,3.478550100000575,211.93359100003727,None,214.4303002000088,None,,,,,,,wquuex,001,0,fr,2022-05-06_17h30.10.757,3-AFC_adaptive_staircase_mess,2022.1.1,None,
,,,,,1,0,1,0,5,0,5,0,,,,,,,,,,,,,,,,right,1500,20,0.00048302543949490677,1,1,1,5,218.9606189666704,None,216.90220080001745,217.2404204000486,217.9131505000405,218.24065769999288,218.91125280002598,219.2409645000007,up,0,5.779502899968065,216.9607758000493,None,219.45183639996685,None,,,,,,,wquuex,001,0,fr,2022-05-06_17h30.10.757,3-AFC_adaptive_staircase_mess,2022.1.1,None,
,,,,,1,0,1,0,6,0,6,0,,,,,,,,,,,,,,,,right,1500,25,0.0008589541935787943,1,1,1,5,226.28217796673223,None,224.25811409996822,224.5868327000644,225.2434854999883,225.5851066999603,226.26551130006555,226.58191279997118,right,1,4.192274699918926,224.32345510006417,None,226.79337009997107,None,,,,,,,wquuex,001,0,fr,2022-05-06_17h30.10.757,3-AFC_adaptive_staircase_mess,2022.1.1,None,
,,,,,1,0,1,0,7,0,7,0,,,,,,,,,,,,,,,,up,1500,25,0.0008589541935787943,1,1,1,5,231.08734516665962,None,230.05429820006248,230.39294569997583,231.0413961999584,231.35576269996818,232.0346613000147,232.36092800006736,up,1,3.1822022999404,230.0865891999565,None,232.5940116000129,None,,,,,,,wquuex,001,0,fr,2022-05-06_17h30.10.757,3-AFC_adaptive_staircase_mess,2022.1.1,None,
,,,,,1,0,1,0,8,0,8,0,,,,,,,,,,,,,,,,right,1500,15,0.00027162516574621667,-1,2,-1,-5.0,236.84171736665692,None,234.80724640004337,235.1247462000465,235.82483459997457,236.16463400004432,236.82505069999024,237.16759740002453,left,0,4.276136300060898,234.86534170003142,None,237.3531076000072,None,,,,,,,wquuex,001,0,fr,2022-05-06_17h30.10.757,3-AFC_adaptive_staircase_mess,2022.1.1,None,
,,,,,1,0,1,0,9,0,9,0,,,,,,,,,,,,,,,,up,1500,17.5,0.00036221798003749513,1,3,1,2.5,241.65982496663153,None,240.61893380002584,240.9522536000004,241.64315829996485,241.96430600003805,242.63653100002557,242.9640677999705,left,0,3.228984900051728,240.67878760001622,None,243.17726310004946,None,,,,,,,wquuex,001,0,fr,2022-05-06_17h30.10.757,3-AFC_adaptive_staircase_mess,2022.1.1,None,
,,,,,1,0,1,0,10,0,10,0,,,,,,,,,,,,,,,,right,1500,20.0,0.00048302543949490677,1,3,1,2.5,247.43064946664188,None,245.3914281000616,245.72701519995462,246.40381319995504,246.7262779000448,247.4139827999752,247.75155709998216,right,1,4.073074400075711,245.4512745999964,None,247.94121630000882,None,,,,,,,wquuex,001,0,fr,2022-05-06_17h30.10.757,3-AFC_adaptive_staircase_mess,2022.1.1,None,
,,,,,1,0,1,0,11,0,11,0,,,,,,,,,,,,,,,,up,1500,20.0,0.00048302543949490677,1,3,1,2.5,252.07507916662533,None,251.04762810003012,251.3795377999777,252.0300599000184,252.37280310003553,253.05349730001763,253.3840962999966,up,1,4.974064500071108,251.07844690000638,None,253.60044830001425,None,,,,,,,wquuex,001,0,fr,2022-05-06_17h30.10.757,3-AFC_adaptive_staircase_mess,2022.1.1,None,
,,,,,1,0,1,0,12,0,12,0,,,,,,,,,,,,,,,,right,1500,15.0,0.00027162516574621667,-1,4,-1,-5.0,259.6104631666715,None,257.58902710000984,257.92144820000976,258.5861248000292,258.9177586999722,259.56559190002736,259.90194769995287,right,1,5.406363400048576,257.6214112000307,None,260.1448480000254,None,,,,,,,wquuex,001,0,fr,2022-05-06_17h30.10.757,3-AFC_adaptive_staircase_mess,2022.1.1,None,
,,,,,1,0,1,0,13,0,13,0,,,,,,,,,,,,,,,,left,1500,15.0,0.00027162516574621667,-1,4,-1,-5.0,264.5957149667122,None,264.5486011999892,264.88789040001575,265.5505808000453,265.86978059995454,266.55962519999593,266.8854737000074,up,0,3.235339800012298,264.608529399964,None,267.0913329999894,None,,,,,,,wquuex,001,0,fr,2022-05-06_17h30.10.757,3-AFC_adaptive_staircase_mess,2022.1.1,None,
,,,,,1,0,1,0,14,0,14,0,,,,,,,,,,,,,,,,right,1500,17.5,0.00036221798003749513,1,5,1,2.5,271.38629036670704,None,269.3400292999577,269.6564552000491,270.3598506000126,270.67384639999364,271.3410988000687,271.6716805000324,right,1,3.167002399917692,269.4133548999671,None,271.90791319997516,None,,,,,,,wquuex,001,0,fr,2022-05-06_17h30.10.757,3-AFC_adaptive_staircase_mess,2022.1.1,None,
,,,,,1,0,1,0,15,0,15,0,,,,,,,,,,,,,,,,up,1500,17.5,0.00036221798003749513,1,5,1,2.5,275.1626740666727,None,274.1253779999679,274.4447584999725,275.1161295999773,275.44923749996815,276.13351740001235,276.46417449996807,right,0,4.905228500021622,274.155138000031,None,276.6727276999736,None,,,,,,,wquuex,001,0,fr,2022-05-06_17h30.10.757,3-AFC_adaptive_staircase_mess,2022.1.1,None,
,,,,,1,0,1,0,16,0,16,0,,,,,,,,,,,,,,,,up,1500,20.0,0.00048302543949490677,1,5,1,2.5,281.6324781666665,None,280.6047301000217,280.9387327999575,281.58676560001913,281.9207333000377,282.59161310002673,282.92397830006666,left,0,3.979942499892786,280.6330235999776,None,283.1317634000443,None,,,,,,,wquuex,001,0,fr,2022-05-06_17h30.10.757,3-AFC_adaptive_staircase_mess,2022.1.1,None,
,,,,,1,0,1,0,17,0,17,0,,,,,,,,,,,,,,,,right,1500,22.5,0.000644124775846567,1,5,1,2.5,288.16330426669833,None,286.1256478000432,286.45471209997777,287.10987599997316,287.4419359000167,288.11641560005955,288.4468352999538,right,1,3.033638900029473,286.15463360003196,None,288.6582023999654,None,,,,,,,wquuex,001,0,fr,2022-05-06_17h30.10.757,3-AFC_adaptive_staircase_mess,2022.1.1,None,
,,,,,1,0,1,0,18,0,18,0,,,,,,,,,,,,,,,,up,1500,22.5,0.000644124775846567,1,5,1,2.5,291.7189953666568,None,290.68816430005245,291.0180709999986,291.7023286999902,292.0394862999674,292.6625414000591,292.99774250003975,up,1,3.0779336999403313,290.7187710000435,None,293.218911999953,None,,,,,,,wquuex,001,0,fr,2022-05-06_17h30.10.757,3-AFC_adaptive_staircase_mess,2022.1.1,None,
,,,,,1,0,1,0,19,0,19,0,,,,,,,,,,,,,,,,left,1500,17.5,0.00036221798003749513,-1,6,-1,-5.0,295.3326032666412,None,295.28763879998587,295.61548110004514,296.288172999979,296.61201000004075,297.2830485999584,297.60089330002666,left,1,3.4437491999706253,295.3451974999625,None,297.8509184999857,None,,,,,,,wquuex,001,0,fr,2022-05-06_17h30.10.757,3-AFC_adaptive_staircase_mess,2022.1.1,None,
,,,,,2,0,2,0,0,0,0,0,,,,,,,,,,,,,[],[],10,up,2000,30,0.0023657562948074026,0,0,-1,10,303.0453470666582,None,302.01764480001293,302.3524869000539,303.0286803999916,303.35342309996486,304.0240038000047,304.3416064999765,up,1,3.3046357999555767,302.0758414999582,None,304.5581795000471,None,space,1.6278912000125274,299.8796178000048,None,299.8796178000048,None,wquuex,001,0,fr,2022-05-06_17h30.10.757,3-AFC_adaptive_staircase_mess,2022.1.1,None,
,,,,,2,0,2,0,1,0,1,0,,,,,,,,,,,,,,,,up,2000,30,0.0023657562948074026,0,0,-1,10,307.93558676663474,None,306.9006689999951,307.2381858000299,307.8759482000023,308.19969240005594,308.9037914000219,309.22892090003006,up,1,3.0739083000225946,306.93010890006553,None,309.4385951999575,None,,,,,,,wquuex,001,0,fr,2022-05-06_17h30.10.757,3-AFC_adaptive_staircase_mess,2022.1.1,None,
,,,,,2,0,2,0,2,0,2,0,,,,,,,,,,,,,,,,left,2000,10,0.00023657562948074026,-1,0,-1,-10,311.5791931666356,None,311.5342596999835,311.8715207000496,312.5367486999603,312.866114799981,313.5352995999856,313.8695777000394,left,1,3.940911499899812,311.59851719997823,None,314.1052191000199,None,,,,,,,wquuex,001,0,fr,2022-05-06_17h30.10.757,3-AFC_adaptive_staircase_mess,2022.1.1,None,
,,,,,2,0,2,0,3,0,3,0,,,,,,,,,,,,,,,,left,2000,10,0.00023657562948074026,-1,0,-1,-10,317.10802446672847,None,317.0579417999834,317.3757489999989,318.0645985000301,318.3944172000047,319.0688402999658,319.3903852000367,left,1,3.110140400007367,317.117585400003,None,319.60664400004316,None,,,,,,,wquuex,001,0,fr,2022-05-06_17h30.10.757,3-AFC_adaptive_staircase_mess,2022.1.1,None,
,,,,,2,0,2,0,4,0,4,0,,,,,,,,,,,,,,,,right,2000,0,7.481178280472168e-05,-1,0,-1,-10,323.76745546661937,None,321.73837220005225,322.06866140000056,322.7485328000039,323.08201200002804,323.7507887999527,324.0877550999867,left,0,3.9298921999288723,321.8018200000515,None,324.31905859999824,None,,,,,,,wquuex,001,0,fr,2022-05-06_17h30.10.757,3-AFC_adaptive_staircase_mess,2022.1.1,None,
,,,,,2,0,2,0,5,0,5,0,,,,,,,,,,,,,,,,right,2000,5,0.0001330362529899405,1,1,1,5,329.28038306668554,None,327.2574969000416,327.58269940002356,328.2656873000087,328.58843510004226,329.2637164000189,329.5929677999811,up,0,3.407353000016883,327.3163004000671,None,329.804279700038,None,,,,,,,wquuex,001,0,fr,2022-05-06_17h30.10.757,3-AFC_adaptive_staircase_mess,2022.1.1,None,
,,,,,2,0,2,0,6,0,6,0,,,,,,,,,,,,,,,,left,2000,10,0.00023657562948074026,1,1,1,5,332.2672264666219,None,332.2505597999552,332.5839665000094,333.23926820000634,333.5872392000165,334.2580719999969,334.59326470003,left,1,3.479891899973154,332.2835359000601,None,334.7957208000589,None,,,,,,,wquuex,001,0,fr,2022-05-06_17h30.10.757,3-AFC_adaptive_staircase_mess,2022.1.1,None,
,,,,,2,0,2,0,7,0,7,0,,,,,,,,,,,,,,,,up,2000,10,0.00023657562948074026,1,1,1,5,338.31217116670837,None,337.2651423000498,337.59376439999323,338.2642700000433,338.6001941000577,339.26714999997057,339.5996880000457,up,1,4.559619800071232,337.33254129998386,None,339.8004208999919,None,,,,,,,wquuex,001,0,fr,2022-05-06_17h30.10.757,3-AFC_adaptive_staircase_mess,2022.1.1,None,
,,,,,2,0,2,0,8,0,8,0,,,,,,,,,,,,,,,,right,2000,0,7.481178280472168e-05,-1,2,-1,-5.0,345.45480806666114,None,343.40323649998754,343.7378764000023,344.40281680005137,344.7318915000651,345.40257340006065,345.7403550000163,left,0,3.301977299968712,343.47000750002917,None,345.9740657999646,None,,,,,,,wquuex,001,0,fr,2022-05-06_17h30.10.757,3-AFC_adaptive_staircase_mess,2022.1.1,None,
,,,,,2,0,2,0,9,0,9,0,,,,,,,,,,,,,,,,right,2000,2.5,9.976311574844399e-05,1,3,1,2.5,350.32730306667895,None,348.2685655000387,348.610840999987,349.2743144000415,349.607723299996,350.2743123000255,350.6104308000067,up,0,3.905849099974148,348.338661900023,None,350.846826300025,None,,,,,,,wquuex,001,0,fr,2022-05-06_17h30.10.757,3-AFC_adaptive_staircase_mess,2022.1.1,None,
,,,,,2,0,2,0,10,0,10,0,,,,,,,,,,,,,,,,left,2000,5.0,0.0001330362529899405,1,3,1,2.5,353.7979728666289,None,353.7463452999946,354.07563620002475,354.74432090006303,355.0778952999972,355.74877219996415,356.07909100002144,up,0,4.014216699986719,353.8133964999579,None,356.3136479000095,None,,,,,,,wquuex,001,0,fr,2022-05-06_17h30.10.757,3-AFC_adaptive_staircase_mess,2022.1.1,None,
,,,,,2,0,2,0,11,0,11,0,,,,,,,,,,,,,,,,left,2000,7.5,0.00017740669461678777,1,3,1,2.5,359.3682989667325,359.59634960000403,359.32100240001455,359.6559934000252,360.32053589995485,360.65301939996425,361.3181891000131,361.6487986999564,left,1,4.668484100024216,359.3830695999786,None,361.8897364999866,None,,,,,,,wquuex,001,0,fr,2022-05-06_17h30.10.757,3-AFC_adaptive_staircase_mess,2022.1.1,None,
,,,,,2,0,2,0,12,0,12,0,,,,,,,,,,,,,,,,left,2000,7.5,0.00017740669461678777,1,3,1,2.5,365.609292966725,365.8409810999874,365.5570871999953,365.8587172999978,366.5616364000598,366.89399989997037,367.5638285999885,367.88974680006504,left,1,3.0958749999990687,365.627732199966,None,368.0977567000082,None,,,,,,,wquuex,001,0,fr,2022-05-06_17h30.10.757,3-AFC_adaptive_staircase_mess,2022.1.1,None,
,,,,,2,0,2,0,13,0,13,0,,,,,,,,,,,,,,,,right,2000,2.5,9.976311574844399e-05,-1,4,-1,-5.0,372.28379156667893,None,370.2335815000115,370.56515519996174,371.23014650004916,371.5644619000377,372.2320721000433,372.56518589996267,up,0,3.1176746001001447,370.2942495000316,None,372.80278260004707,None,,,,,,,wquuex,001,0,fr,2022-05-06_17h30.10.757,3-AFC_adaptive_staircase_mess,2022.1.1,None,
,,,,,2,0,2,0,14,0,14,0,,,,,,,,,,,,,,,,left,2000,5.0,0.0001330362529899405,1,5,1,2.5,374.9867854667284,None,374.93524789996445,375.26720899995416,375.93710169999395,376.26754330005497,376.93590070004575,377.27106669999193,up,0,3.1157481999835,375.00117289996706,None,377.5079258000478,None,,,,,,,wquuex,001,0,fr,2022-05-06_17h30.10.757,3-AFC_adaptive_staircase_mess,2022.1.1,None,
,,,,,2,0,2,0,15,0,15,0,,,,,,,,,,,,,,,,right,2000,7.5,0.00017740669461678777,1,5,1,2.5,381.6587461666825,None,379.6388077000156,379.9728514000308,380.64033900003415,380.9719002000056,381.6420795000158,381.9780944000231,up,0,3.915188500075601,379.67360159999225,None,382.17943050002214,None,,,,,,,wquuex,001,0,fr,2022-05-06_17h30.10.757,3-AFC_adaptive_staircase_mess,2022.1.1,None,
,,,,,2,0,2,0,16,0,16,0,,,,,,,,,,,,,,,,left,2000,10.0,0.00023657562948074026,1,5,1,2.5,385.16420896671866,None,385.1123305000365,385.449804999982,386.1124854000518,386.4462575999787,387.11318250000477,387.4480498000048,left,1,2.825409699929878,385.1785132000223,None,387.6507863999577,None,,,,,,,wquuex,001,0,fr,2022-05-06_17h30.10.757,3-AFC_adaptive_staircase_mess,2022.1.1,None,
,,,,,2,0,2,0,17,0,17,0,,,,,,,,,,,,,,,,left,2000,10.0,0.00023657562948074026,1,5,1,2.5,389.56936736667217,389.7931778000202,389.5173857000191,389.856862799963,390.51961600000504,390.8525504999561,391.5224332000362,391.8514667999698,left,1,2.9813501000171527,389.5828443999635,None,392.08812880003825,None,,,,,,,wquuex,001,0,fr,2022-05-06_17h30.10.757,3-AFC_adaptive_staircase_mess,2022.1.1,None,
,,,,,2,0,2,0,18,0,18,0,,,,,,,,,,,,,,,,left,2000,5.0,0.0001330362529899405,-1,6,-1,-5.0,394.13743516669297,None,394.086029099999,394.4269116000505,395.09017039998434,395.41750810004305,396.08949429995846,396.4201010999968,left,1,3.0791004999773577,394.1571998000145,None,396.62845359998755,None,,,,,,,wquuex,001,0,fr,2022-05-06_17h30.10.757,3-AFC_adaptive_staircase_mess,2022.1.1,None,
,,,,,3,0,3,0,0,0,0,0,,,,,,,,,,,,,[],[],10,left,3000,30,0.001733684252262658,0,0,-1,10,400.9134608667266,None,400.8618451000657,401.1915197999915,401.86534420005046,402.19259340001736,402.8658819999546,403.1954848000314,left,1,3.0771403999533504,400.9266238999553,None,403.43363500002306,None,space,2.0456241000210866,398.32659920002334,None,398.32659920002334,None,wquuex,001,0,fr,2022-05-06_17h30.10.757,3-AFC_adaptive_staircase_mess,2022.1.1,None,
,,,,,3,0,3,0,1,0,1,0,,,,,,,,,,,,,,,,right,3000,30,0.001733684252262658,0,0,-1,10,407.5859202666363,407.8131260999944,405.53170419996604,405.8662323000608,406.5338918999769,406.86689010006376,407.53404379996937,407.87337769998703,right,1,2.982144200010225,405.5973413999891,None,408.105078099994,None,,,,,,,wquuex,001,0,fr,2022-05-06_17h30.10.757,3-AFC_adaptive_staircase_mess,2022.1.1,None,
,,,,,3,0,3,0,2,0,2,0,,,,,,,,,,,,,,,,left,3000,10,0.00017336842522626576,-1,0,-1,-10,410.1475535666725,None,410.09796629997436,410.43618499999866,411.11060000001453,411.4336576999631,412.09246559999883,412.43351680005435,left,1,3.8413900000741705,410.16215039999224,None,412.6694540999597,None,,,,,,,wquuex,001,0,fr,2022-05-06_17h30.10.757,3-AFC_adaptive_staircase_mess,2022.1.1,None,
,,,,,3,0,3,0,3,0,3,0,,,,,,,,,,,,,,,,left,3000,10,0.00017336842522626576,-1,0,-1,-10,415.53737616673266,None,415.49158629996236,415.8200918000657,416.49377389997244,416.8261933999602,417.5015566999791,417.8308126999764,left,1,3.078817900037393,415.5499934999971,None,418.03625979996286,None,,,,,,,wquuex,001,0,fr,2022-05-06_17h30.10.757,3-AFC_adaptive_staircase_mess,2022.1.1,None,
,,,,,3,0,3,0,4,0,4,0,,,,,,,,,,,,,,,,right,3000,0,5.482390980715923e-05,-1,0,-1,-10,422.1935496667322,None,420.15290840005036,420.47596179996617,421.1467894000234,421.4755538000027,422.1447052999865,422.4826063000364,left,0,4.335124299977906,420.1805472000269,None,422.69054330000654,None,,,,,,,wquuex,001,0,fr,2022-05-06_17h30.10.757,3-AFC_adaptive_staircase_mess,2022.1.1,None,
,,,,,3,0,3,0,5,0,5,0,,,,,,,,,,,,,,,,up,3000,5,9.749222998790222e-05,1,1,1,5,427.0639418666872,427.29206849995535,426.0110006000614,426.3353649000637,427.0156844999874,427.3534649000503,428.0259057000512,428.35124420002103,left,0,3.2618583000730723,426.0700035999762,None,428.55908240005374,None,,,,,,,wquuex,001,0,fr,2022-05-06_17h30.10.757,3-AFC_adaptive_staircase_mess,2022.1.1,None,
,,,,,3,0,3,0,6,0,6,0,,,,,,,,,,,,,,,,up,3000,10,0.00017336842522626576,1,1,1,5,431.8761973666881,None,430.8498326999834,431.17689550004434,431.83147950004786,432.16643620003015,432.84234940004535,433.157756300061,up,1,3.255619299947284,430.90892099996563,None,433.4100787000498,None,,,,,,,wquuex,001,0,fr,2022-05-06_17h30.10.757,3-AFC_adaptive_staircase_mess,2022.1.1,None,
,,,,,3,0,3,0,7,0,7,0,,,,,,,,,,,,,,,,right,3000,10,0.00017336842522626576,1,1,1,5,437.710330666687,None,435.6563129000133,435.98090610001236,436.6577038000105,436.99210300005507,437.6639420000138,437.99564109998755,up,0,3.8727089000167325,435.7147727999836,None,438.21015709999483,None,,,,,,,wquuex,001,0,fr,2022-05-06_17h30.10.757,3-AFC_adaptive_staircase_mess,2022.1.1,None,
,,,,,3,0,3,0,8,0,8,0,,,,,,,,,,,,,,,,right,3000,15,0.00030829750093074097,1,1,1,5,443.1264516666454,None,441.0940312000457,441.42929390002973,442.0812712999759,442.39804900006857,443.07993810006883,443.3979353000177,left,0,3.6353207000065595,441.1532547000097,None,443.635078500025,None,,,,,,,wquuex,001,0,fr,2022-05-06_17h30.10.757,3-AFC_adaptive_staircase_mess,2022.1.1,None,
,,,,,3,0,3,0,9,0,9,0,,,,,,,,,,,,,,,,right,3000,20,0.0005482390980715922,1,1,1,5,448.33713546669264,None,446.29565600003116,446.6345178000629,447.3086578999646,447.63881689996924,448.2921889000572,448.6369243999943,right,1,2.8830295000225306,446.35303640004713,None,448.84508280002046,None,,,,,,,wquuex,001,0,fr,2022-05-06_17h30.10.757,3-AFC_adaptive_staircase_mess,2022.1.1,None,
,,,,,3,0,3,0,10,0,10,0,,,,,,,,,,,,,,,,up,3000,20,0.0005482390980715922,1,1,1,5,451.78968706663386,452.0194437999744,450.75399540003855,451.06412550003733,451.7399033999536,452.0798658999847,452.755861200043,453.08629160001874,up,1,2.9964900999329984,450.7840838000411,None,453.2926114000147,None,,,,,,,wquuex,001,0,fr,2022-05-06_17h30.10.757,3-AFC_adaptive_staircase_mess,2022.1.1,None,
,,,,,3,0,3,0,11,0,11,0,,,,,,,,,,,,,,,,up,3000,10,0.00017336842522626576,-1,2,-1,-5.0,456.32896716666096,None,455.3017345999833,455.64070870005526,456.2807532000588,456.60406120005064,457.3038032000186,457.6454304000363,up,1,2.9917097999714315,455.33331110002473,None,457.8546446999535,None,,,,,,,wquuex,001,0,fr,2022-05-06_17h30.10.757,3-AFC_adaptive_staircase_mess,2022.1.1,None,
,,,,,3,0,3,0,12,0,12,0,,,,,,,,,,,,,,,,left,3000,10,0.00017336842522626576,-1,2,-1,-5.0,459.8890365666632,None,459.8446279000491,460.18748359999154,460.8496290000621,461.1889767999528,461.85633219999727,462.1911131000379,left,1,2.962660999968648,459.90532490005717,None,462.40736910002306,None,,,,,,,wquuex,001,0,fr,2022-05-06_17h30.10.757,3-AFC_adaptive_staircase_mess,2022.1.1,None,
,,,,,3,0,3,0,13,0,13,0,,,,,,,,,,,,,,,,left,3000,5.0,9.749222998790222e-05,-1,2,-1,-5.0,464.4154106666722,None,464.3707377000246,464.71821409999393,465.4004639000632,465.7209694000194,466.38402370002586,466.7182978000492,left,1,3.8977075999137014,464.42667009995785,None,466.925540599972,None,,,,,,,wquuex,001,0,fr,2022-05-06_17h30.10.757,3-AFC_adaptive_staircase_mess,2022.1.1,None,
,,,,,3,0,3,0,14,0,14,0,,,,,,,,,,,,,,,,left,3000,5.0,9.749222998790222e-05,-1,2,-1,-5.0,469.86144846672346,None,469.8154203000013,470.1602555999998,470.81229160004295,471.1581229000585,471.8268059999682,472.1595668999944,left,1,3.6966653999406844,469.87478119996376,None,472.36988460004795,None,,,,,,,wquuex,001,0,fr,2022-05-06_17h30.10.757,3-AFC_adaptive_staircase_mess,2022.1.1,None,
,,,,,3,0,3,0,15,0,15,0,,,,,,,,,,,,,,,,up,3000,0.0,5.482390980715923e-05,-1,2,-1,-5.0,476.149269766702,None,475.10161590005737,475.42984520003665,476.13260310003534,476.47102329996414,477.1068152000662,477.43195050000213,left,0,3.1245667999610305,475.167378299986,None,477.66799240000546,None,,,,,,,wquuex,001,0,fr,2022-05-06_17h30.10.757,3-AFC_adaptive_staircase_mess,2022.1.1,None,
,,,,,3,0,3,0,16,0,16,0,,,,,,,,,,,,,,,,up,3000,2.5,7.310885872283589e-05,1,3,1,2.5,480.8516786667208,None,479.81734940002207,480.1532279000385,480.8017566000344,481.1439376999624,481.8044306000229,482.1387940000277,up,1,3.1210515999700874,479.8755244000349,None,482.35276130004786,None,,,,,,,wquuex,001,0,fr,2022-05-06_17h30.10.757,3-AFC_adaptive_staircase_mess,2022.1.1,None,
,,,,,3,0,3,0,17,0,17,0,,,,,,,,,,,,,,,,right,3000,2.5,7.310885872283589e-05,1,3,1,2.5,486.5576371666432,None,484.4970418000594,484.83922850003,485.5023283000337,485.84226349997334,486.5085088000633,486.84567239996977,left,0,3.766468400019221,484.55632950004656,None,487.0682036000071,None,,,,,,,wquuex,001,0,fr,2022-05-06_17h30.10.757,3-AFC_adaptive_staircase_mess,2022.1.1,None,
,,,,,3,0,3,0,18,0,18,0,,,,,,,,,,,,,,,,right,3000,5.0,9.749222998790222e-05,1,3,1,2.5,491.88020826672823,None,489.841198900016,490.17774249997456,490.85155100002885,491.18050600006245,491.8337507999968,492.18091480003204,up,0,4.217768899980001,489.89873050001916,None,492.395142900059,None,,,,,,,wquuex,001,0,fr,2022-05-06_17h30.10.757,3-AFC_adaptive_staircase_mess,2022.1.1,None,
,,,,,3,0,3,0,19,0,19,0,,,,,,,,,,,,,,,,up,3000,7.5,0.00013000797815826355,1,3,1,2.5,496.6610153667318,None,495.61669499997515,495.95967190002557,496.6161457999842,496.9580194000155,497.6310378999915,497.9563484999817,left,0,3.331720200018026,495.68022890004795,None,498.17838419997133,None,,,,,,,wquuex,001,0,fr,2022-05-06_17h30.10.757,3-AFC_adaptive_staircase_mess,2022.1.1,None,
,,,,,3,0,3,0,20,0,20,0,,,,,,,,,,,,,,,,right,3000,10.0,0.00017336842522626576,1,3,1,2.5,502.5563064666387,None,500.52255120000336,500.85901660006493,501.51114630000666,501.82653369999025,502.5102555999765,502.83019829995465,left,0,4.614904200076126,500.5880427999655,None,503.08312970004044,None,,,,,,,wquuex,001,0,fr,2022-05-06_17h30.10.757,3-AFC_adaptive_staircase_mess,2022.1.1,None,
,,,,,3,0,3,0,21,0,21,0,,,,,,,,,,,,,,,,up,3000,12.5,0.00023119051069963006,1,3,1,2.5,507.7867209666331,None,506.7482698999811,507.0665397000266,507.74139260000084,508.06486000004224,508.73198789998423,509.04897370003164,up,1,3.0984351999359205,506.77754649997223,None,509.29547600005753,None,,,,,,,wquuex,001,0,fr,2022-05-06_17h30.10.757,3-AFC_adaptive_staircase_mess,2022.1.1,None,
,,,,,3,0,3,0,22,0,22,0,,,,,,,,,,,,,,,,up,3000,12.5,0.00023119051069963006,1,3,1,2.5,512.410364866668,None,511.366215200047,511.70498739997856,512.3603235000046,512.6756764999591,513.3648211000254,513.7038295000093,left,0,3.181880500051193,511.42974769999273,None,513.9237465000479,None,,,,,,,wquuex,001,0,fr,2022-05-06_17h30.10.757,3-AFC_adaptive_staircase_mess,2022.1.1,None,
,,,,,3,0,3,0,23,0,23,0,,,,,,,,,,,,,,,,up,3000,15.0,0.00030829750093074097,1,3,1,2.5,517.1619725666862,None,516.0940013000509,516.4398985999869,517.1122889999533,517.4394270000048,518.107238000026,518.4459887000266,up,1,4.138596100034192,516.1534361999948,None,518.6696719999891,None,,,,,,,wquuex,001,0,fr,2022-05-06_17h30.10.757,3-AFC_adaptive_staircase_mess,2022.1.1,None,
,,,,,3,0,3,0,24,0,24,0,,,,,,,,,,,,,,,,left,3000,15.0,0.00030829750093074097,1,3,1,2.5,521.8604313666622,None,521.8108756999718,522.1261500000255,522.8103557999711,523.1455178000033,523.8169205000158,524.1465153000318,left,1,2.8948610000079498,521.8773263000185,None,524.3604253999656,None,,,,,,,wquuex,001,0,fr,2022-05-06_17h30.10.757,3-AFC_adaptive_staircase_mess,2022.1.1,None,
,,,,,3,0,3,0,25,0,25,0,,,,,,,,,,,,,,,,left,3000,10.0,0.00017336842522626576,-1,4,-1,-5.0,526.333989466719,None,526.2845898000523,526.6134265000001,527.2834150999552,527.6054019000148,528.2803635000018,528.6235635000048,left,1,3.4789249000605196,526.3499409999931,None,528.852881400031,None,,,,,,,wquuex,001,0,fr,2022-05-06_17h30.10.757,3-AFC_adaptive_staircase_mess,2022.1.1,None,
,,,,,3,0,3,0,26,0,26,0,,,,,,,,,,,,,,,,up,3000,10.0,0.00017336842522626576,-1,4,-1,-5.0,532.3461436667169,None,531.322955599986,531.6563615000341,532.3294770000502,532.6556112000253,533.3300068000099,533.6598786000395,up,1,3.113135699997656,531.3865989999613,None,533.8741986000678,None,,,,,,,wquuex,001,0,fr,2022-05-06_17h30.10.757,3-AFC_adaptive_staircase_mess,2022.1.1,None,
,,,,,3,0,3,0,27,0,27,0,,,,,,,,,,,,,,,,up,3000,5.0,9.749222998790222e-05,-1,4,-1,-5.0,537.0415524666353,None,535.9861901999684,536.318858499988,536.9916306000669,537.3346196999773,537.9944468999747,538.3312529000686,up,1,4.00445020000916,536.0473949000007,None,538.5609751000302,None,,,,,,,wquuex,001,0,fr,2022-05-06_17h30.10.757,3-AFC_adaptive_staircase_mess,2022.1.1,None,
,,,,,3,0,3,0,28,0,28,0,,,,,,,,,,,,,,,,up,3000,5.0,9.749222998790222e-05,-1,4,-1,-5.0,542.5981422666848,None,541.5729210999561,541.9034588000504,542.5814756000182,542.9109364000615,543.5610420999583,543.877668500063,left,0,3.1187970000319183,541.605590500054,None,544.1320028000046,None,,,,,,,wquuex,001,0,fr,2022-05-06_17h30.10.757,3-AFC_adaptive_staircase_mess,2022.1.1,None,
,,,,,3,0,3,0,29,0,29,0,,,,,,,,,,,,,,,,right,3000,7.5,0.00013000797815826355,1,5,1,2.5,548.2888940666492,None,546.2439008000074,546.572736900067,547.2345215000678,547.5649466000032,548.243014800013,548.5775706999702,left,0,3.382106599980034,546.2705489000073,None,548.7884222000139,None,,,,,,,wquuex,001,0,fr,2022-05-06_17h30.10.757,3-AFC_adaptive_staircase_mess,2022.1.1,None,
,,,,,3,0,3,0,30,0,30,0,,,,,,,,,,,,,,,,right,3000,10.0,0.00017336842522626576,1,5,1,2.5,553.2086468666714,None,551.1802655999782,551.5108452000422,552.1696053000633,552.506575700012,553.1615751000354,553.497352699982,right,1,3.032783400034532,551.2112861999776,None,553.7368978000013,None,,,,,,,wquuex,001,0,fr,2022-05-06_17h30.10.757,3-AFC_adaptive_staircase_mess,2022.1.1,None,
,,,,,3,0,3,0,31,0,31,0,,,,,,,,,,,,,,,,left,3000,10.0,0.00017336842522626576,1,5,1,2.5,555.7700956666997,None,555.7534290000331,556.0887279000599,556.752888899995,557.0878129999619,557.7448123999638,558.0749223000603,left,1,3.657000600011088,555.7869199999841,None,558.3045650999993,None,,,,,,,wquuex,001,0,fr,2022-05-06_17h30.10.757,3-AFC_adaptive_staircase_mess,2022.1.1,None,
,,,,,3,0,3,0,32,0,32,0,,,,,,,,,,,,,,,,right,3000,5.0,9.749222998790222e-05,-1,6,-1,-5.0,563.0018840666783,None,560.966993900016,561.3012389000505,561.9758498000447,562.3081183000468,562.9551284000045,563.2941967999795,left,0,3.2036457000067458,561.0248434999958,None,563.5035137999803,None,,,,,,,wquuex,001,0,fr,2022-05-06_17h30.10.757,3-AFC_adaptive_staircase_mess,2022.1.1,None,
,,,,,4,0,4,0,0,0,0,0,,,,,,,,,,,,,[],[],10,left,4000,30,0.0026544222211549416,0,0,-1,10,567.7665059667236,None,567.7498393000569,568.0833762000548,568.7570765999844,569.0730349000078,569.750587400049,570.0755508999573,left,1,2.932298499974422,567.7765897000208,None,570.3118787000421,None,space,1.9851994999917224,565.2822355000535,None,565.2822355000535,None,wquuex,001,0,fr,2022-05-06_17h30.10.757,3-AFC_adaptive_staircase_mess,2022.1.1,None,
,,,,,4,0,4,0,1,0,1,0,,,,,,,,,,,,,,,,right,4000,30,0.0026544222211549416,0,0,-1,10,574.271868266693,None,572.235859700013,572.5645503000123,573.2468165999744,573.5766101999907,574.2253462000517,574.5595375000266,right,1,2.781485299929045,572.294865300064,None,574.7941724000266,None,,,,,,,wquuex,001,0,fr,2022-05-06_17h30.10.757,3-AFC_adaptive_staircase_mess,2022.1.1,None,
,,,,,4,0,4,0,2,0,2,0,,,,,,,,,,,,,,,,right,4000,10,0.00026544222211549425,-1,0,-1,-10,578.6102430666253,None,576.5743374000303,576.9058506999863,577.5487563000061,577.8632346000522,578.5639908000594,578.897650900064,left,0,4.2463563999626786,576.6372356000356,None,579.1324304000009,None,,,,,,,wquuex,001,0,fr,2022-05-06_17h30.10.757,3-AFC_adaptive_staircase_mess,2022.1.1,None,
,,,,,4,0,4,0,3,0,3,0,,,,,,,,,,,,,,,,right,4000,15,0.0004720304381429618,1,1,1,5,584.4497196666819,None,582.4184004999697,582.7558792000636,583.4045628999593,583.717732100049,584.4034700000193,584.7418887000531,right,1,2.8479333999566734,582.4514786000364,None,584.9530898999656,None,,,,,,,wquuex,001,0,fr,2022-05-06_17h30.10.757,3-AFC_adaptive_staircase_mess,2022.1.1,None,
,,,,,4,0,4,0,4,0,4,0,,,,,,,,,,,,,,,,right,4000,15,0.0004720304381429618,1,1,1,5,588.8794135667306,None,586.8491338000167,587.1573021999793,587.8192352000624,588.1567455000477,588.8241745999549,589.1391925000353,left,0,3.6052756999852136,586.8782024000539,None,589.3804685999639,None,,,,,,,wquuex,001,0,fr,2022-05-06_17h30.10.757,3-AFC_adaptive_staircase_mess,2022.1.1,None,
,,,,,4,0,4,0,5,0,5,0,,,,,,,,,,,,,,,,left,4000,20,0.0008394020090612801,1,1,1,5,592.0131789666523,None,591.97502969997,592.2964005999966,592.982044500066,593.308651600033,593.9798046000069,594.2960065000225,left,1,2.953324000001885,592.0279986000387,None,594.512671399978,None,,,,,,,wquuex,001,0,fr,2022-05-06_17h30.10.757,3-AFC_adaptive_staircase_mess,2022.1.1,None,
,,,,,4,0,4,0,6,0,6,0,,,,,,,,,,,,,,,,left,4000,20,0.0008394020090612801,1,1,1,5,596.5153768666244,None,596.4696064000018,596.8035448000301,597.4910409000004,597.8228037999943,598.4901472000638,598.8182039000094,left,1,2.804290899890475,596.5279858000576,None,599.0261468000244,None,,,,,,,wquuex,001,0,fr,2022-05-06_17h30.10.757,3-AFC_adaptive_staircase_mess,2022.1.1,None,
,,,,,4,0,4,0,7,0,7,0,,,,,,,,,,,,,,,,right,4000,10,0.00026544222211549425,-1,2,-1,-5.0,602.9049093666874,None,600.8750540000619,601.1999413999729,601.8710957999574,602.2031619000481,602.8882427000208,603.2267890999792,left,0,2.9705910000484437,600.9368291000137,None,603.4342932000291,None,,,,,,,wquuex,001,0,fr,2022-05-06_17h30.10.757,3-AFC_adaptive_staircase_mess,2022.1.1,None,
,,,,,4,0,4,0,8,0,8,0,,,,,,,,,,,,,,,,right,4000,12.5,0.000353972892192069,1,3,1,2.5,607.4370578666606,607.6660449999617,605.418471800047,605.7416319999611,606.4088939999929,606.7477817999898,607.4203911999939,607.7618990000337,left,0,5.553009600029327,605.4747787000379,None,607.9834056999534,None,,,,,,,wquuex,001,0,fr,2022-05-06_17h30.10.757,3-AFC_adaptive_staircase_mess,2022.1.1,None,
,,,,,4,0,4,0,9,0,9,0,,,,,,,,,,,,,,,,right,4000,15.0,0.0004720304381429618,1,3,1,2.5,614.5655652667085,None,612.5332460000645,612.8547974999528,613.5170554000651,613.8545296000084,614.5488986000419,614.880258899997,left,0,3.480163799948059,612.6034296000144,None,615.086004300043,None,,,,,,,wquuex,001,0,fr,2022-05-06_17h30.10.757,3-AFC_adaptive_staircase_mess,2022.1.1,None,
,,,,,4,0,4,0,10,0,10,0,,,,,,,,,,,,,,,,left,4000,17.5,0.0006294627058970836,1,3,1,2.5,617.6203273666945,617.8456659000367,617.6036607000278,617.9374598000431,618.581907200045,618.918860899983,619.591611300013,619.9059852999635,left,1,2.8803581000538543,617.6363420999842,None,620.1409740999807,None,,,,,,,wquuex,001,0,fr,2022-05-06_17h30.10.757,3-AFC_adaptive_staircase_mess,2022.1.1,None,
,,,,,4,0,4,0,11,0,11,0,,,,,,,,,,,,,,,,right,4000,17.5,0.0006294627058970836,1,3,1,2.5,624.0694926666949,None,622.0390467999969,622.3697846999858,623.0405904999934,623.3739576999797,624.0528260000283,624.3828654000536,left,0,3.069289800012484,622.1026932999957,None,624.5904864000622,None,,,,,,,wquuex,001,0,fr,2022-05-06_17h30.10.757,3-AFC_adaptive_staircase_mess,2022.1.1,None,
,,,,,4,0,4,0,12,0,12,0,,,,,,,,,,,,,,,,left,4000,20.0,0.0008394020090612801,1,3,1,2.5,626.7006313666391,None,626.6839646999724,627.0033980000298,627.6652669999748,628.0035616999958,628.6789489999646,629.0089809000492,left,1,2.9883976000128314,626.7121323000174,None,629.2438424000284,None,,,,,,,wquuex,001,0,fr,2022-05-06_17h30.10.757,3-AFC_adaptive_staircase_mess,2022.1.1,None,
,,,,,4,0,4,0,13,0,13,0,,,,,,,,,,,,,,,,up,4000,20.0,0.0008394020090612801,1,3,1,2.5,632.2824021666931,None,631.2353989999974,631.5608706000494,632.236188699957,632.5702951999847,633.2456357000628,633.5845054000383,up,1,2.8382100000744686,631.2938170999987,None,633.7885626000352,None,,,,,,,wquuex,001,0,fr,2022-05-06_17h30.10.757,3-AFC_adaptive_staircase_mess,2022.1.1,None,
,,,,,4,0,4,0,14,0,14,0,,,,,,,,,,,,,,,,left,4000,15.0,0.0004720304381429618,-1,4,-1,-5.0,635.7321179666944,None,635.6735518999631,635.9978020000271,636.6780769999605,637.0040062000044,637.6786825000308,638.004660799983,left,1,2.997577500063926,635.743014800013,None,638.2429118000437,None,,,,,,,wquuex,001,0,fr,2022-05-06_17h30.10.757,3-AFC_adaptive_staircase_mess,2022.1.1,None,
,,,,,4,0,4,0,15,0,15,0,,,,,,,,,,,,,,,,left,4000,15.0,0.0004720304381429618,-1,4,-1,-5.0,640.3061177667153,640.534990199958,640.2580102999927,640.5960054000607,641.268913900014,641.589813800063,642.2627116000513,642.5978342000162,left,1,2.4232656999956816,640.3173084000591,None,642.7791382666367,None,,,,,,,wquuex,001,0,fr,2022-05-06_17h30.10.757,3-AFC_adaptive_staircase_mess,2022.1.1,None,
,,,,,4,0,4,0,16,0,16,0,,,,,,,,,,,,,,,,left,4000,10.0,0.00026544222211549425,-1,4,-1,-5.0,644.3080783666267,None,644.2480162000284,644.5683333000634,645.2495258999988,645.5757088999962,646.2515146000078,646.5730720000574,up,0,3.077008599997498,644.3189370000036,None,646.8074033999583,None,,,,,,,wquuex,001,0,fr,2022-05-06_17h30.10.757,3-AFC_adaptive_staircase_mess,2022.1.1,None,
,,,,,4,0,4,0,17,0,17,0,,,,,,,,,,,,,,,,left,4000,12.5,0.000353972892192069,1,5,1,2.5,648.9452348666421,None,648.8853440000676,649.2095547000645,649.8837669000495,650.2116141000297,650.8827168999705,651.2073333000299,left,1,2.8234764999942854,648.9560962000396,None,651.4428084000247,None,,,,,,,wquuex,001,0,fr,2022-05-06_17h30.10.757,3-AFC_adaptive_staircase_mess,2022.1.1,None,
,,,,,4,0,4,0,18,0,18,0,,,,,,,,,,,,,,,,left,4000,12.5,0.000353972892192069,1,5,1,2.5,653.3430318666544,653.5713066000026,653.2926100000041,653.6272786000045,654.3062565999571,654.6399496999802,655.2939257000107,655.6223391999956,left,1,2.9219785999739543,653.3539545000531,None,655.85646489996,None,,,,,,,wquuex,001,0,fr,2022-05-06_17h30.10.757,3-AFC_adaptive_staircase_mess,2022.1.1,None,
,,,,,4,0,4,0,19,0,19,0,,,,,,,,,,,,,,,,up,4000,7.5,0.00019905358527674868,-1,6,-1,-5.0,658.8090138666487,None,657.7932552000275,658.1168386000209,658.792347199982,659.1247493999545,659.7651549000293,660.0902600999689,left,0,3.093396499985829,657.8226327999728,None,660.3326555000385,None,,,,,,,wquuex,001,0,fr,2022-05-06_17h30.10.757,3-AFC_adaptive_staircase_mess,2022.1.1,None,
,,,,,5,0,5,0,0,0,0,0,,,,,,,,,,,,,[],[],10,up,6000,30,0.003664122665694519,0,0,-1,10,665.587750466719,None,664.5353813000256,664.8572381000267,665.5394139999989,665.8738336999668,666.548982999986,666.872313800035,up,1,3.827636400004849,664.5921423999825,None,667.0792280000169,None,space,2.0640994000714272,661.9884208999574,None,661.9884208999574,None,wquuex,001,0,fr,2022-05-06_17h30.10.757,3-AFC_adaptive_staircase_mess,2022.1.1,None,
,,,,,5,0,5,0,1,0,1,0,,,,,,,,,,,,,,,,right,6000,30,0.003664122665694519,0,0,-1,10,671.9509783667202,None,669.9099295999622,670.2320581000531,670.9326348999748,671.2584243000019,671.9343117000535,672.2620822000317,right,1,2.822317500016652,669.965656699962,None,672.4709295000648,None,,,,,,,wquuex,001,0,fr,2022-05-06_17h30.10.757,3-AFC_adaptive_staircase_mess,2022.1.1,None,
,,,,,5,0,5,0,2,0,2,0,,,,,,,,,,,,,,,,right,6000,10,0.00036641226656945183,-1,0,-1,-10,676.329057066647,None,674.2934589000652,674.6262033999665,675.2984430000652,675.6269991999725,676.2820720999734,676.6127224999946,left,0,3.6916714999824762,674.360558400047,None,676.8497164000291,None,,,,,,,wquuex,001,0,fr,2022-05-06_17h30.10.757,3-AFC_adaptive_staircase_mess,2022.1.1,None,
,,,,,5,0,5,0,3,0,3,0,,,,,,,,,,,,,,,,right,6000,15,0.0006515833892261495,1,1,1,5,681.6163836667004,None,679.5628076000139,679.9001235000324,680.5771993000526,680.904546600068,681.5683051999658,681.9098842999665,left,0,3.0046785000013188,679.6226988000562,None,682.1161759999814,None,,,,,,,wquuex,001,0,fr,2022-05-06_17h30.10.757,3-AFC_adaptive_staircase_mess,2022.1.1,None,
,,,,,5,0,5,0,4,0,4,0,,,,,,,,,,,,,,,,up,6000,20,0.0011586973249842392,1,1,1,5,685.1878620667305,None,684.1462556000333,684.4711883000564,685.1418576999567,685.4756394999567,686.1229403000325,686.4493370000273,left,0,3.0451567999552935,684.1744175000349,None,686.6840184000321,None,,,,,,,wquuex,001,0,fr,2022-05-06_17h30.10.757,3-AFC_adaptive_staircase_mess,2022.1.1,None,
,,,,,5,0,5,0,5,0,5,0,,,,,,,,,,,,,,,,left,6000,25,0.0020604875954866506,1,1,1,5,688.8047749667351,None,688.7588284000522,689.0853634000523,689.7563897999935,690.080976300058,690.7530392999761,691.0778343999991,left,1,2.9145695999031886,688.8174792999635,None,691.3121352000162,None,,,,,,,wquuex,001,0,fr,2022-05-06_17h30.10.757,3-AFC_adaptive_staircase_mess,2022.1.1,None,
,,,,,5,0,5,0,6,0,6,0,,,,,,,,,,,,,,,,right,6000,25,0.0020604875954866506,1,1,1,5,695.2870840667204,None,693.2474610999925,693.5762387999566,694.2452632000204,694.5708247000584,695.2425395000027,695.5711183999665,left,0,2.9653179000597447,693.3101473000133,None,695.8049070000416,None,,,,,,,wquuex,001,0,fr,2022-05-06_17h30.10.757,3-AFC_adaptive_staircase_mess,2022.1.1,None,
,,,,,5,0,5,0,7,0,7,0,,,,,,,,,,,,,,,,up,6000,30,0.003664122665694519,1,1,1,5,698.8182803666607,None,697.7973385000369,698.121472400031,698.7731416999595,699.1197767000413,699.7736930999672,700.0972179999808,up,1,2.9933274999493733,697.8269893999677,None,700.3313673000084,None,,,,,,,wquuex,001,0,fr,2022-05-06_17h30.10.757,3-AFC_adaptive_staircase_mess,2022.1.1,None,
,,,,,5,0,5,0,8,0,8,0,,,,,,,,,,,,,,,,left,6000,30,0.003664122665694519,1,1,1,5,702.3607639666336,None,702.3156262000557,702.6444985000417,703.317855500034,703.6441470000427,704.3154947999865,704.6447931999573,left,1,2.909260099986568,702.3741014000261,None,704.8601992999902,None,,,,,,,wquuex,001,0,fr,2022-05-06_17h30.10.757,3-AFC_adaptive_staircase_mess,2022.1.1,None,
,,,,,5,0,5,0,9,0,9,0,,,,,,,,,,,,,,,,left,6000,20,0.0011586973249842392,-1,2,-1,-5.0,706.8206942666477,None,706.804027599981,707.132410399965,707.8059050999582,708.1452599000186,708.7972031000536,709.1254594000056,left,1,3.3161147999344394,706.8323563999729,None,709.3580545999575,None,,,,,,,wquuex,001,0,fr,2022-05-06_17h30.10.757,3-AFC_adaptive_staircase_mess,2022.1.1,None,
,,,,,5,0,5,0,10,0,10,0,,,,,,,,,,,,,,,,up,6000,20,0.0011586973249842392,-1,2,-1,-5.0,712.7132636666686,None,711.6858933999902,712.0152464000275,712.6965970000019,713.0350188000593,713.681135199964,714.0063577999827,left,0,3.2676773999119177,711.7444604999619,None,714.2408671999583,None,,,,,,,wquuex,001,0,fr,2022-05-06_17h30.10.757,3-AFC_adaptive_staircase_mess,2022.1.1,None,
,,,,,5,0,5,0,11,0,11,0,,,,,,,,,,,,,,,,left,6000,22.5,0.0015451477162567947,1,3,1,2.5,716.582999566632,None,716.5360481999815,716.8786638999591,717.5278697999893,717.8441949000116,718.5402101000072,718.8734813999617,left,1,2.961707800044678,716.5939489000011,None,719.0785962999798,None,,,,,,,wquuex,001,0,fr,2022-05-06_17h30.10.757,3-AFC_adaptive_staircase_mess,2022.1.1,None,
,,,,,5,0,5,0,12,0,12,0,,,,,,,,,,,,,,,,up,6000,22.5,0.0015451477162567947,1,3,1,2.5,722.1158536666228,None,721.0715409000404,721.3963713999838,722.0711448000511,722.411863300018,723.0620164000429,723.3775128000416,left,0,3.162807499989867,721.129159700009,None,723.6412482999731,None,,,,,,,wquuex,001,0,fr,2022-05-06_17h30.10.757,3-AFC_adaptive_staircase_mess,2022.1.1,None,
,,,,,5,0,5,0,13,0,13,0,,,,,,,,,,,,,,,,up,6000,25.0,0.0020604875954866506,1,3,1,2.5,726.8650601666343,None,725.8010266000638,726.1263881999766,726.8164954000385,727.1314882000443,727.8166999999667,728.1497445000568,left,0,3.1517431000247598,725.8600087000523,None,728.3552481000079,None,,,,,,,wquuex,001,0,fr,2022-05-06_17h30.10.757,3-AFC_adaptive_staircase_mess,2022.1.1,None,
,,,,,5,0,5,0,14,0,14,0,,,,,,,,,,,,,,,,up,6000,27.5,0.002747704369288122,1,3,1,2.5,731.5588368666979,None,730.5228031000588,730.8550964000169,731.5143459000392,731.8554260999663,732.5143532999791,732.8536624000408,up,1,3.068776899948716,730.5520680999616,None,733.0690592000028,None,,,,,,,wquuex,001,0,fr,2022-05-06_17h30.10.757,3-AFC_adaptive_staircase_mess,2022.1.1,None,
,,,,,5,0,5,0,15,0,15,0,,,,,,,,,,,,,,,,right,6000,27.5,0.002747704369288122,1,3,1,2.5,737.1803660666958,None,735.1316590000642,735.4560440999921,736.1294286999619,736.4636214000639,737.1308520999737,737.4740263000131,right,1,2.843680299934931,735.1927078999579,None,737.6990727999946,None,,,,,,,wquuex,001,0,fr,2022-05-06_17h30.10.757,3-AFC_adaptive_staircase_mess,2022.1.1,None,
,,,,,5,0,5,0,16,0,16,0,,,,,,,,,,,,,,,,right,6000,22.5,0.0015451477162567947,-1,4,-1,-5.0,741.6193367667186,None,739.5889472999843,739.9177170000039,740.5900013999781,740.9281533999601,741.5747615,741.8896032000193,up,0,3.9229566999711096,739.6168892000569,None,742.133022999973,None,,,,,,,wquuex,001,0,fr,2022-05-06_17h30.10.757,3-AFC_adaptive_staircase_mess,2022.1.1,None,
,,,,,5,0,5,0,17,0,17,0,,,,,,,,,,,,,,,,left,6000,25.0,0.0020604875954866506,1,5,1,2.5,745.0643626666317,None,745.0183004999999,745.3628136999905,746.0335119999945,746.3680421999888,747.0174626000226,747.334753000061,left,1,2.765744300093502,745.0777572999941,None,747.5705800000578,None,,,,,,,wquuex,001,0,fr,2022-05-06_17h30.10.757,3-AFC_adaptive_staircase_mess,2022.1.1,None,
,,,,,5,0,5,0,18,0,18,0,,,,,,,,,,,,,,,,right,6000,25.0,0.0020604875954866506,1,5,1,2.5,751.4006036667308,None,749.3563530000392,749.7034202000359,750.361151500023,750.7048989000032,751.3540238999994,751.6658274000511,left,0,3.162227199994959,749.4164515000302,None,751.9076255999971,None,,,,,,,wquuex,001,0,fr,2022-05-06_17h30.10.757,3-AFC_adaptive_staircase_mess,2022.1.1,None,
,,,,,5,0,5,0,19,0,19,0,,,,,,,,,,,,,,,,up,6000,27.5,0.002747704369288122,1,5,1,2.5,755.1414425667065,None,754.10023370001,754.4413878000341,755.0951795000583,755.4409201999661,756.1233599999687,756.4434788000071,up,1,2.931242599966936,754.1594126999844,None,756.6522944000317,None,,,,,,,wquuex,001,0,fr,2022-05-06_17h30.10.757,3-AFC_adaptive_staircase_mess,2022.1.1,None,
,,,,,5,0,5,0,20,0,20,0,,,,,,,,,,,,,,,,up,6000,27.5,0.002747704369288122,1,5,1,2.5,759.6558641666236,None,758.6113348000217,758.9483811999671,759.6113102000672,759.9529181000544,760.6210433000233,760.9582838000497,up,1,2.981747500016354,758.6700848999899,None,761.1728552000131,None,,,,,,,wquuex,001,0,fr,2022-05-06_17h30.10.757,3-AFC_adaptive_staircase_mess,2022.1.1,None,
,,,,,5,0,5,0,21,0,21,0,,,,,,,,,,,,,,,,right,6000,22.5,0.0015451477162567947,-1,6,-1,-5.0,765.1976746667099,None,763.1805903000059,763.5185788000235,764.1840582999866,764.5192954000086,765.1810080000432,765.4913993000519,right,1,4.667257699999027,763.2087582000531,None,765.716590099968,None,,,,,,,wquuex,001,0,fr,2022-05-06_17h30.10.757,3-AFC_adaptive_staircase_mess,2022.1.1,None,
,,,,,6,0,6,0,0,0,0,0,,,,,,,,,,,,,[],[],10,up,8000,30,0.005740768107484416,0,0,1,10,772.4240895666337,None,771.3895047999686,771.7253099000081,772.3769181000534,772.69583099999,773.407064500032,773.7430017000297,left,0,3.065095700090751,771.4498452000553,None,773.9404193999944,None,space,1.9576438000658527,768.9578877000604,None,768.9578877000604,None,wquuex,001,0,fr,2022-05-06_17h30.10.757,3-AFC_adaptive_staircase_mess,2022.1.1,None,
,,,,,6,0,6,0,1,0,1,0,,,,,,,,,,,,,,,,right,8000,40,0.018153902738505076,1,0,1,10,778.0920191666266,None,776.0316486000083,776.3807294999715,777.061723700026,777.4052456000354,778.0392572999699,778.3691427999875,right,1,2.7077110999962315,776.09623679996,None,778.5975535999751,None,,,,,,,wquuex,001,0,fr,2022-05-06_17h30.10.757,3-AFC_adaptive_staircase_mess,2022.1.1,None,
,,,,,6,0,6,0,2,0,2,0,,,,,,,,,,,,,,,,up,8000,40,0.018153902738505076,1,0,1,10,781.3556489666846,781.5824038999854,780.2930016999599,780.6373184999684,781.3056785999797,781.643271900015,782.3141377000138,782.6384324999526,up,1,2.8344336999580264,780.3527637000661,None,782.8553398000076,None,,,,,,,wquuex,001,0,fr,2022-05-06_17h30.10.757,3-AFC_adaptive_staircase_mess,2022.1.1,None,
,,,,,6,0,6,0,3,0,3,0,,,,,,,,,,,,,,,,up,8000,20,0.0018153902738505074,-1,1,-1,-10,785.7398184666565,None,784.7092684999807,785.0316039000172,785.7231517999899,786.0395530000096,786.7101948000491,787.0341526999837,left,0,3.069142200052738,784.7748570999829,None,787.2696802000282,None,,,,,,,wquuex,001,0,fr,2022-05-06_17h30.10.757,3-AFC_adaptive_staircase_mess,2022.1.1,None,
,,,,,6,0,6,0,4,0,4,0,,,,,,,,,,,,,,,,right,8000,25,0.003228271145173279,1,2,1,2.5,791.3870933666515,None,789.3449569999939,789.6838387000607,790.3380640000105,790.6775614999933,791.3418852000032,791.6578431000235,left,0,3.2175835999660194,789.410661400063,None,791.9158116000472,None,,,,,,,wquuex,001,0,fr,2022-05-06_17h30.10.757,3-AFC_adaptive_staircase_mess,2022.1.1,None,
,,,,,6,0,6,0,5,0,5,0,,,,,,,,,,,,,,,,up,8000,27.5,0.0043049687609230045,1,2,1,2.5,795.1797918666309,None,794.1593801999697,794.4841992000584,795.1631251999643,795.4833976000082,796.1381119999569,796.4835508000106,left,0,3.208244899986312,794.1869667000137,None,796.7229345999658,None,,,,,,,wquuex,001,0,fr,2022-05-06_17h30.10.757,3-AFC_adaptive_staircase_mess,2022.1.1,None,
,,,,,6,0,6,0,6,0,6,0,,,,,,,,,,,,,,,,up,8000,30.0,0.005740768107484416,1,2,1,2.5,799.9213248666531,None,798.8864899000619,799.222896500025,799.8753740000539,800.2204291999806,800.8923946999712,801.2190896000247,left,0,3.0178937000455335,798.9525666000554,None,801.4304553000256,None,,,,,,,wquuex,001,0,fr,2022-05-06_17h30.10.757,3-AFC_adaptive_staircase_mess,2022.1.1,None,
,,,,,6,0,6,0,7,0,7,0,,,,,,,,,,,,,,,,up,8000,32.5,0.0076554373084101535,1,2,1,2.5,804.525640366661,None,803.4906852999702,803.8267104000552,804.5089736999944,804.8274061999982,805.4973535999889,805.8264239999698,up,1,3.0584378000348806,803.553742500022,None,806.0355514000403,None,,,,,,,wquuex,001,0,fr,2022-05-06_17h30.10.757,3-AFC_adaptive_staircase_mess,2022.1.1,None,
,,,,,6,0,6,0,8,0,8,0,,,,,,,,,,,,,,,,right,8000,32.5,0.0076554373084101535,1,2,1,2.5,810.1729170666697,None,808.1326094999677,808.4604760999791,809.1335982000455,809.4657836999977,810.1272126999684,810.4724837000249,left,0,3.1816499000415206,808.1976235000184,None,810.7006060000276,None,,,,,,,wquuex,001,0,fr,2022-05-06_17h30.10.757,3-AFC_adaptive_staircase_mess,2022.1.1,None,
,,,,,6,0,6,0,9,0,9,0,,,,,,,,,,,,,,,,left,8000,35.0,0.01020868972334765,1,2,1,2.5,812.9519577667272,None,812.9030115000205,813.243416900048,813.8939186000498,814.2377553000115,814.9073982000118,815.2325562000042,left,1,3.036385199986398,812.967410900048,None,815.4444460000377,None,,,,,,,wquuex,001,0,fr,2022-05-06_17h30.10.757,3-AFC_adaptive_staircase_mess,2022.1.1,None,
,,,,,6,0,6,0,10,0,10,0,,,,,,,,,,,,,,,,up,8000,35.0,0.01020868972334765,1,2,1,2.5,818.5441982666418,None,817.5045331000583,817.8452628999949,818.4982470000396,818.8184444999788,819.5063055000501,819.8438213999616,up,1,2.993110000039451,817.5706493000034,None,820.0677679000655,None,,,,,,,wquuex,001,0,fr,2022-05-06_17h30.10.757,3-AFC_adaptive_staircase_mess,2022.1.1,None,
,,,,,6,0,6,0,11,0,11,0,,,,,,,,,,,,,,,,right,8000,30.0,0.005740768107484416,-1,3,-1,-5.0,824.1365179666939,None,822.0826403000392,822.4116139999824,823.0841508000158,823.4130886000348,824.0874858000316,824.4115658999654,left,0,3.5699940000195056,822.1462382000173,None,824.6537115999963,None,,,,,,,wquuex,001,0,fr,2022-05-06_17h30.10.757,3-AFC_adaptive_staircase_mess,2022.1.1,None,
,,,,,6,0,6,0,12,0,12,0,,,,,,,,,,,,,,,,right,8000,32.5,0.0076554373084101535,1,4,1,2.5,829.2506977667256,None,827.2196601000614,827.5493535000132,828.2212719999952,828.5568612000206,829.2340311000589,829.5759178999579,right,1,2.8935962999239564,827.2862897999585,None,829.7867101000156,None,,,,,,,wquuex,001,0,fr,2022-05-06_17h30.10.757,3-AFC_adaptive_staircase_mess,2022.1.1,None,
,,,,,6,0,6,0,13,0,13,0,,,,,,,,,,,,,,,,up,8000,32.5,0.0076554373084101535,1,4,1,2.5,832.7249749666701,None,831.707995899953,832.0419725000393,832.7083083000034,833.0507502000546,833.6879931000294,834.0256800999632,up,1,2.5689391000196338,831.7379150000634,None,834.2643039000686,None,,,,,,,wquuex,001,0,fr,2022-05-06_17h30.10.757,3-AFC_adaptive_staircase_mess,2022.1.1,None,
,,,,,6,0,6,0,14,0,14,0,,,,,,,,,,,,,,,,right,8000,27.5,0.0043049687609230045,-1,5,-1,-5.0,837.8776274666345,None,835.8244571000105,836.1486375000095,836.8193287999602,837.157154400018,837.8298594000516,838.164052600041,up,0,3.181945399963297,835.8924528000643,None,838.3696031,None,,,,,,,wquuex,001,0,fr,2022-05-06_17h30.10.757,3-AFC_adaptive_staircase_mess,2022.1.1,None,
,,,,,6,0,6,0,15,0,15,0,,,,,,,,,,,,,,,,right,8000,30.0,0.005740768107484416,1,6,1,2.5,842.6475333666351,None,840.5960509000579,840.9255722999806,841.5897109999787,841.9160781999817,842.597830099985,842.938352099969,left,0,3.9708708999678493,840.6565930000506,None,843.1540725000668,None,,,,,,,wquuex,001,0,fr,2022-05-06_17h30.10.757,3-AFC_adaptive_staircase_mess,2022.1.1,None,
,,,,,7,0,7,0,0,0,0,0,,,,,,,,,,,,,[],[],10,right,750,30,0.0012851978913844323,0,0,-1,10,849.9426689666618,None,847.9141997999977,848.2274522000225,848.9040024999995,849.2384768000338,849.8958598000463,850.2232834000606,right,1,2.63596610003151,847.9435343999648,None,850.4659685000079,None,space,1.7266940999543294,845.6851856999565,None,845.6851856999565,None,wquuex,001,0,fr,2022-05-06_17h30.10.757,3-AFC_adaptive_staircase_mess,2022.1.1,None,
,,,,,7,0,7,0,1,0,1,0,,,,,,,,,,,,,,,,right,750,30,0.0012851978913844323,0,0,-1,10,854.1252539667223,None,852.0910219000652,852.418752299971,853.0816960000666,853.4146831999533,854.0754599999636,854.4183137000073,right,1,2.602611899957992,852.1210183000658,None,854.6219610000262,None,,,,,,,wquuex,001,0,fr,2022-05-06_17h30.10.757,3-AFC_adaptive_staircase_mess,2022.1.1,None,
,,,,,7,0,7,0,2,0,2,0,,,,,,,,,,,,,,,,right,750,10,0.00012851978913844324,-1,0,-1,-10,858.2898820667217,None,856.2462322000647,856.5753930000355,857.2311014999868,857.5571568000596,858.2405487999786,858.5542571999831,right,1,2.5806899999734014,856.3025854000589,None,858.7909043000545,None,,,,,,,wquuex,001,0,fr,2022-05-06_17h30.10.757,3-AFC_adaptive_staircase_mess,2022.1.1,None,
,,,,,7,0,7,0,3,0,3,0,,,,,,,,,,,,,,,,left,750,10,0.00012851978913844324,-1,0,-1,-10,860.4279487666829,None,860.3831702000462,860.7199311000295,861.3875010999618,861.7181070999941,862.3905404000543,862.7191192000173,left,1,3.544122999999672,860.4434761999873,None,862.9598196999868,None,,,,,,,wquuex,001,0,fr,2022-05-06_17h30.10.757,3-AFC_adaptive_staircase_mess,2022.1.1,None,
,,,,,7,0,7,0,4,0,4,0,,,,,,,,,,,,,,,,up,750,0,4.064152580820497e-05,-1,0,-1,-10,866.5397203666546,None,865.5158711000113,865.8454972000327,866.5230536999879,866.865806399961,867.5198914000066,867.8483790999744,left,0,3.1937599999364465,865.5451423999621,None,868.0588411999634,None,,,,,,,wquuex,001,0,fr,2022-05-06_17h30.10.757,3-AFC_adaptive_staircase_mess,2022.1.1,None,
,,,,,7,0,7,0,5,0,5,0,,,,,,,,,,,,,,,,left,750,5,7.22719885372964e-05,1,1,1,5,870.2703252667018,None,870.2536586000351,870.5937596999574,871.2441469000187,871.5716794000473,872.2460041999584,872.5789197999984,left,1,3.154567899997346,870.2877502000192,None,872.7866900999798,None,,,,,,,wquuex,001,0,fr,2022-05-06_17h30.10.757,3-AFC_adaptive_staircase_mess,2022.1.1,None,
,,,,,7,0,7,0,6,0,6,0,,,,,,,,,,,,,,,,left,750,5,7.22719885372964e-05,1,1,1,5,874.9962624667135,None,874.9795958000468,875.3137982999906,875.969037199975,876.2952312000562,876.973564999993,877.3049151999876,left,1,3.2346784999826923,875.008475300041,None,877.5211281999946,None,,,,,,,wquuex,001,0,fr,2022-05-06_17h30.10.757,3-AFC_adaptive_staircase_mess,2022.1.1,None,
,,,,,7,0,7,0,7,0,7,0,,,,,,,,,,,,,,,,up,750,-5,2.285440948074376e-05,-1,2,-1,-5.0,880.7986478666464,None,879.7816616999917,880.1177177999634,880.7615081999684,881.0949996999698,881.7463106999639,882.0787339999806,left,0,3.0858832999365404,879.8136251000687,None,882.316874000011,None,,,,,,,wquuex,001,0,fr,2022-05-06_17h30.10.757,3-AFC_adaptive_staircase_mess,2022.1.1,None,
,,,,,7,0,7,0,8,0,8,0,,,,,,,,,,,,,,,,up,750,-2.5,3.0476844862008466e-05,1,3,1,2.5,885.4633558666721,None,884.4123326999834,884.74090720003,885.4156500999816,885.7216387999943,886.4079331000103,886.721240999992,left,0,3.0036090000066906,884.4714395999908,None,886.9564532999648,None,,,,,,,wquuex,001,0,fr,2022-05-06_17h30.10.757,3-AFC_adaptive_staircase_mess,2022.1.1,None,
,,,,,7,0,7,0,9,0,9,0,,,,,,,,,,,,,,,,left,750,0.0,4.064152580820497e-05,1,3,1,2.5,889.024060066735,None,889.0073934000684,889.3271414999617,890.0104801000562,890.3411227000179,890.9969244999811,891.3289295999566,left,1,2.9944935000967234,889.041662100004,None,891.5665579000488,None,,,,,,,wquuex,001,0,fr,2022-05-06_17h30.10.757,3-AFC_adaptive_staircase_mess,2022.1.1,None,
,,,,,7,0,7,0,10,0,10,0,,,,,,,,,,,,,,,,up,750,0.0,4.064152580820497e-05,1,3,1,2.5,894.5722881666773,None,893.5165612000274,893.8422735000495,894.5251464999747,894.8523203000659,895.525557099958,895.8473299000179,left,0,3.101067499956116,893.574307700037,None,896.0826838000212,None,,,,,,,wquuex,001,0,fr,2022-05-06_17h30.10.757,3-AFC_adaptive_staircase_mess,2022.1.1,None,
,,,,,7,0,7,0,11,0,11,0,,,,,,,,,,,,,,,,left,750,2.5,5.419634570106019e-05,1,3,1,2.5,898.1958832666899,None,898.1792166000232,898.5134270000271,899.1835918000434,899.4982761000283,900.1721354000038,900.4981585000642,left,1,3.1794622000306845,898.19950290001,None,900.7065697000362,None,,,,,,,wquuex,001,0,fr,2022-05-06_17h30.10.757,3-AFC_adaptive_staircase_mess,2022.1.1,None,
,,,,,7,0,7,0,12,0,12,0,,,,,,,,,,,,,,,,up,750,2.5,5.419634570106019e-05,1,3,1,2.5,903.9158978666567,None,902.8942951000063,903.2188898000168,903.89923119999,904.2200309999753,904.8923562000273,905.2254878999665,up,1,3.464077099924907,902.9245024999836,None,905.4287397000007,None,,,,,,,wquuex,001,0,fr,2022-05-06_17h30.10.757,3-AFC_adaptive_staircase_mess,2022.1.1,None,
,,,,,7,0,7,0,13,0,13,0,,,,,,,,,,,,,,,,right,750,-2.5,3.0476844862008466e-05,-1,4,-1,-5.0,909.9344322666914,None,907.8954331000568,908.2337039000122,908.8976458000252,909.2299416000023,909.8984641999705,910.229209400015,up,0,3.1483781000133604,907.9591530000325,None,910.4340851999586,None,,,,,,,wquuex,001,0,fr,2022-05-06_17h30.10.757,3-AFC_adaptive_staircase_mess,2022.1.1,None,
,,,,,7,0,7,0,14,0,14,0,,,,,,,,,,,,,,,,up,750,0.0,4.064152580820497e-05,1,5,1,2.5,913.6584795666315,None,912.6235772999935,912.9621051000431,913.6418128999649,913.9680633000098,914.6353960999986,914.9654810000211,left,0,3.201799599919468,912.6897271999624,None,915.1689112000167,None,,,,,,,wquuex,001,0,fr,2022-05-06_17h30.10.757,3-AFC_adaptive_staircase_mess,2022.1.1,None,
,,,,,7,0,7,0,15,0,15,0,,,,,,,,,,,,,,,,right,750,2.5,5.419634570106019e-05,1,5,1,2.5,919.4517970666677,None,917.4067080999957,917.7415128999855,918.4061010000296,918.7393151000142,919.4030610000482,919.7373408999993,left,0,3.141770099988207,917.4687693000305,None,919.9625501000555,None,,,,,,,wquuex,001,0,fr,2022-05-06_17h30.10.757,3-AFC_adaptive_staircase_mess,2022.1.1,None,
,,,,,7,0,7,0,16,0,16,0,,,,,,,,,,,,,,,,right,750,5.0,7.22719885372964e-05,1,5,1,2.5,924.1626498667213,None,922.1367256999947,922.4748718000483,923.1291873999871,923.4563767999643,924.1459832000546,924.4748493999941,left,0,3.0032731000101194,922.1998127000406,None,924.6896360999672,None,,,,,,,wquuex,001,0,fr,2022-05-06_17h30.10.757,3-AFC_adaptive_staircase_mess,2022.1.1,None,
,,,,,7,0,7,0,17,0,17,0,,,,,,,,,,,,,,,,left,750,7.5,9.637624565954684e-05,1,5,1,2.5,926.7641002666826,None,926.7142312000506,927.0370880999835,927.7168134000385,928.0497343000025,928.7229949999601,929.0512608999852,left,1,2.965369400102645,926.7819076000014,None,929.289575700066,None,,,,,,,wquuex,001,0,fr,2022-05-06_17h30.10.757,3-AFC_adaptive_staircase_mess,2022.1.1,None,
,,,,,7,0,7,0,18,0,18,0,,,,,,,,,,,,,,,,up,750,7.5,9.637624565954684e-05,1,5,1,2.5,932.2817853666531,None,931.2626552999718,931.5850166999735,932.2651186999865,932.5991419999627,933.2473813999677,933.583769000019,up,1,2.9841651999158785,931.2907628000248,None,933.8198001000565,None,,,,,,,wquuex,001,0,fr,2022-05-06_17h30.10.757,3-AFC_adaptive_staircase_mess,2022.1.1,None,
,,,,,7,0,7,0,19,0,19,0,,,,,,,,,,,,,,,,right,750,2.5,5.419634570106019e-05,-1,6,-1,-5.0,937.860321566641,None,935.8162841000594,936.1399205999915,936.8153049000539,937.1413455000147,937.8161247000098,938.1600276000099,up,0,3.2990312000038102,935.8729255000362,None,938.3612102000043,None,,,,,,,wquuex,001,0,fr,2022-05-06_17h30.10.757,3-AFC_adaptive_staircase_mess,2022.1.1,None,
,,,,,8,0,8,0,0,0,0,0,,,,,,,,,,,,,[],[],10,right,500,30,0.002259279721874612,0,0,-1,10,944.3983987667054,None,942.3505118000321,942.6757721999893,943.3500755999703,943.6773066000314,944.3515506000258,944.69570260006,right,1,2.6500603000167757,942.4101818000199,None,944.9044184000231,None,space,1.6202316000126302,940.2705966000212,None,940.2705966000212,None,wquuex,001,0,fr,2022-05-06_17h30.10.757,3-AFC_adaptive_staircase_mess,2022.1.1,None,
,,,,,8,0,8,0,1,0,1,0,,,,,,,,,,,,,,,,right,500,30,0.002259279721874612,0,0,-1,10,948.5997366667182,None,946.5575194000266,946.8790078000166,947.5527166000102,947.8747067999793,948.5526847000001,948.9004418000113,right,1,2.986766100046225,946.6175653999671,None,949.113723800052,None,,,,,,,wquuex,001,0,fr,2022-05-06_17h30.10.757,3-AFC_adaptive_staircase_mess,2022.1.1,None,
,,,,,8,0,8,0,2,0,2,0,,,,,,,,,,,,,,,,left,500,10,0.0002259279721874612,-1,0,-1,-10,951.1586267667046,None,951.1117507000454,951.4228987999959,952.1024264000589,952.4298153000418,953.104312099982,953.4303785000229,up,0,3.9695814999286085,951.1699877000647,None,953.6654801999684,None,,,,,,,wquuex,001,0,fr,2022-05-06_17h30.10.757,3-AFC_adaptive_staircase_mess,2022.1.1,None,
,,,,,8,0,8,0,3,0,3,0,,,,,,,,,,,,,,,,left,500,15,0.0004017630610928086,1,1,1,5,956.682868566659,None,956.6385263999691,956.9637770999689,957.6662779999897,958.0098370000487,958.656941800029,958.9777804999612,left,1,2.620053599937819,956.6944061999675,None,959.1878087000223,None,,,,,,,wquuex,001,0,fr,2022-05-06_17h30.10.757,3-AFC_adaptive_staircase_mess,2022.1.1,None,
,,,,,8,0,8,0,4,0,4,0,,,,,,,,,,,,,,,,left,500,15,0.0004017630610928086,1,1,1,5,960.8667683667193,None,960.8501017000526,961.1954102000454,961.8356223000446,962.1593952999683,962.8364642000524,963.1491154000396,left,1,2.3723142999224365,960.8792089000344,None,None,None,,,,,,,wquuex,001,0,fr,2022-05-06_17h30.10.757,3-AFC_adaptive_staircase_mess,2022.1.1,None,
,,,,,8,0,8,0,5,0,5,0,,,,,,,,,,,,,,,,up,500,5,0.00012704863527746526,-1,2,-1,-5.0,965.8180255666996,None,964.792367600021,965.1180909000104,965.8013589000329,966.1306143000256,966.8036390000489,967.1389014000306,left,0,2.9304317000787705,964.8493400999578,None,967.3458172000246,None,,,,,,,wquuex,001,0,fr,2022-05-06_17h30.10.757,3-AFC_adaptive_staircase_mess,2022.1.1,None,
,,,,,8,0,8,0,6,0,6,0,,,,,,,,,,,,,,,,left,500,7.5,0.00016942207806960129,1,3,1,2.5,969.3316195667178,None,969.3149529000511,969.6380973999621,970.31337540003,970.6411547999596,971.2868652000325,971.6242512000026,left,1,2.7394248000346124,969.3437473999802,None,971.8623121000128,None,,,,,,,wquuex,001,0,fr,2022-05-06_17h30.10.757,3-AFC_adaptive_staircase_mess,2022.1.1,None,
,,,,,8,0,8,0,7,0,7,0,,,,,,,,,,,,,,,,left,500,7.5,0.00016942207806960129,1,3,1,2.5,973.6255803666465,None,973.5797206000425,973.9087214999599,974.5824416000396,974.8994103999576,975.5802830000175,975.9073338999879,left,1,3.004703599959612,973.6384723000228,None,976.1441381999757,None,,,,,,,wquuex,001,0,fr,2022-05-06_17h30.10.757,3-AFC_adaptive_staircase_mess,2022.1.1,None,
,,,,,8,0,8,0,8,0,8,0,,,,,,,,,,,,,,,,left,500,2.5,9.527303589816237e-05,-1,4,-1,-5.0,978.1986163666627,None,978.181949699996,978.4988363999873,979.176545000053,979.5036631999537,980.173676299979,980.5071869000094,left,1,2.7841686999890953,978.2111501999898,None,980.734691599966,None,,,,,,,wquuex,001,0,fr,2022-05-06_17h30.10.757,3-AFC_adaptive_staircase_mess,2022.1.1,None,
,,,,,8,0,8,0,9,0,9,0,,,,,,,,,,,,,,,,right,500,2.5,9.527303589816237e-05,-1,4,-1,-5.0,984.5366975666877,None,982.4987784000114,982.8221444999799,983.490996700013,983.8168862999883,984.4933559000492,984.8355781000573,left,0,3.078722700010985,982.5572090999922,None,985.0419366999995,None,,,,,,,wquuex,001,0,fr,2022-05-06_17h30.10.757,3-AFC_adaptive_staircase_mess,2022.1.1,None,
,,,,,8,0,8,0,10,0,10,0,,,,,,,,,,,,,,,,left,500,5.0,0.00012704863527746526,1,5,1,2.5,987.1848241666487,None,987.1378126000054,987.4796032999875,988.1387288999977,988.4786912000272,989.1439816000639,989.4779133000411,up,0,3.3032127000624314,987.1957091999939,None,989.6783824999584,None,,,,,,,wquuex,001,0,fr,2022-05-06_17h30.10.757,3-AFC_adaptive_staircase_mess,2022.1.1,None,
,,,,,8,0,8,0,11,0,11,0,,,,,,,,,,,,,,,,up,500,7.5,0.00016942207806960129,1,5,1,2.5,993.0355639666707,None,992.003286399995,992.349213700043,993.018897300004,993.3568143000593,994.0147594000446,994.3476732999552,left,0,3.0590784999076277,992.0640084999613,None,994.5646485000616,None,,,,,,,wquuex,001,0,fr,2022-05-06_17h30.10.757,3-AFC_adaptive_staircase_mess,2022.1.1,None,
,,,,,8,0,8,0,12,0,12,0,,,,,,,,,,,,,,,,left,500,10.0,0.0002259279721874612,1,5,1,2.5,996.7137102666932,None,996.666743400041,996.9852609999944,997.6773275999585,998.006683900021,998.6621498999884,998.9870811000001,left,1,3.2764352000085637,996.726800100063,None,999.2319409999764,None,,,,,,,wquuex,001,0,fr,2022-05-06_17h30.10.757,3-AFC_adaptive_staircase_mess,2022.1.1,None,
,,,,,8,0,8,0,13,0,13,0,,,,,,,,,,,,,,,,left,500,10.0,0.0002259279721874612,1,5,1,2.5,1001.5647602666324,None,1001.5187898000004,1001.8578158000018,1002.5241031000623,1002.8597615000326,1003.5277350000106,1003.8569410999771,left,1,3.2099766999017447,1001.5780454999767,None,1004.0634626999963,None,,,,,,,wquuex,001,0,fr,2022-05-06_17h30.10.757,3-AFC_adaptive_staircase_mess,2022.1.1,None,
,,,,,8,0,8,0,14,0,14,0,,,,,,,,,,,,,,,,left,500,5.0,0.00012704863527746526,-1,6,-1,-5.0,1006.3454577667328,1006.5741943999892,1006.2951881999616,1006.6363899999997,1007.2905820000451,1007.6281680000247,1008.2985217999667,1008.6309450999834,left,1,2.77817549998872,1006.3622239000397,None,1008.8437520000152,None,,,,,,,wquuex,001,0,fr,2022-05-06_17h30.10.757,3-AFC_adaptive_staircase_mess,2022.1.1,None,
,,,,,9,0,9,0,0,0,0,0,,,,,,,,,,,,,[],[],10,right,250,30,0.005296268625886445,0,0,-1,10,1017.1201520666402,None,1015.0698182999622,1015.4052841999801,1016.0655269999988,1016.3968162999954,1017.0708109999541,1017.4109255999792,right,1,2.774930000072345,1015.1327820000006,None,1017.62670969998,None,space,4.3496088000247255,1010.2302304999903,None,1010.2302304999903,None,wquuex,001,0,fr,2022-05-06_17h30.10.757,3-AFC_adaptive_staircase_mess,2022.1.1,None,
,,,,,9,0,9,0,1,0,1,0,,,,,,,,,,,,,,,,right,250,30,0.005296268625886445,0,0,-1,10,1021.4481377666273,None,1019.420029400033,1019.7401484999573,1020.4142031000229,1020.7419095999794,1021.398490200052,1021.7137161999708,right,1,2.63250639999751,1019.45048400003,None,1021.9647911000066,None,,,,,,,wquuex,001,0,fr,2022-05-06_17h30.10.757,3-AFC_adaptive_staircase_mess,2022.1.1,None,
,,,,,9,0,9,0,2,0,2,0,,,,,,,,,,,,,,,,right,250,10,0.0005296268625886444,-1,0,-1,-10,1025.6208398666388,None,1023.5643041000003,1023.8923177999677,1024.569687100011,1024.9119718000293,1025.5762789000291,1025.917455399991,right,1,4.3950474000303075,1023.6238060999895,None,1026.1276774000144,None,,,,,,,wquuex,001,0,fr,2022-05-06_17h30.10.757,3-AFC_adaptive_staircase_mess,2022.1.1,None,
,,,,,9,0,9,0,3,0,3,0,,,,,,,,,,,,,,,,right,250,10,0.0005296268625886444,-1,0,-1,-10,1031.5432064666568,None,1029.5127749000676,1029.849656800041,1030.5241665999638,1030.857800400001,1031.496788199991,1031.8188176000258,right,1,2.7364223999902606,1029.5719233000418,None,1032.0561880000168,None,,,,,,,wquuex,001,0,fr,2022-05-06_17h30.10.757,3-AFC_adaptive_staircase_mess,2022.1.1,None,
,,,,,9,0,9,0,4,0,4,0,,,,,,,,,,,,,,,,up,250,0,0.0001674827195789138,-1,0,-1,-10,1034.8716272666973,None,1033.8354972000234,1034.1716593999881,1034.823122599977,1035.1639919000445,1035.826010299963,1036.156514100032,right,0,3.193888199981302,1033.8656609000172,None,1036.3643545999657,None,,,,,,,wquuex,001,0,fr,2022-05-06_17h30.10.757,3-AFC_adaptive_staircase_mess,2022.1.1,None,
,,,,,9,0,9,0,5,0,5,0,,,,,,,,,,,,,,,,left,250,5,0.0002978310717645052,1,1,1,5,1038.5909913667167,None,1038.5446208000649,1038.8935797000304,1039.5487843999872,1039.8719243999803,1040.5536174000008,1040.8835650000256,right,0,3.3474421000573784,1038.607483800035,None,1041.1182524999604,None,,,,,,,wquuex,001,0,fr,2022-05-06_17h30.10.757,3-AFC_adaptive_staircase_mess,2022.1.1,None,
,,,,,9,0,9,0,6,0,6,0,,,,,,,,,,,,,,,,right,250,10,0.0005296268625886444,1,1,1,5,1045.485231266652,1045.713208500063,1043.455722499988,1043.796476299991,1044.4704736999702,1044.8025195000228,1045.4685645999853,1045.8009548999835,right,1,2.7296408999245614,1043.5145789000671,None,1046.0231353000272,None,,,,,,,wquuex,001,0,fr,2022-05-06_17h30.10.757,3-AFC_adaptive_staircase_mess,2022.1.1,None,
,,,,,9,0,9,0,7,0,7,0,,,,,,,,,,,,,,,,right,250,10,0.0005296268625886444,1,1,1,5,1049.8117840666712,None,1047.7632321000565,1048.1045166000258,1048.7693363999715,1049.1036608000286,1049.7670752999838,1050.1083040999947,right,1,2.692882200004533,1047.8218398999888,None,1050.3385240000207,None,,,,,,,wquuex,001,0,fr,2022-05-06_17h30.10.757,3-AFC_adaptive_staircase_mess,2022.1.1,None,
,,,,,9,0,9,0,8,0,8,0,,,,,,,,,,,,,,,,left,250,0,0.0001674827195789138,-1,2,-1,-5.0,1052.0722406666648,None,1052.0259661000455,1052.3438558999915,1053.0444448000053,1053.375826100004,1054.0408780999715,1054.3757563000545,right,0,3.133518600021489,1052.0853251999943,None,1054.5982879999792,None,,,,,,,wquuex,001,0,fr,2022-05-06_17h30.10.757,3-AFC_adaptive_staircase_mess,2022.1.1,None,
,,,,,9,0,9,0,9,0,9,0,,,,,,,,,,,,,,,,up,250,2.5,0.0002233417960754815,1,3,1,2.5,1057.7690315666298,None,1056.73346030002,1057.0769601999782,1057.7523648999631,1058.0800014999695,1058.7433538000332,1059.0761987000005,up,1,2.8928144000237808,1056.7902998999925,None,1059.3104700000258,None,,,,,,,wquuex,001,0,fr,2022-05-06_17h30.10.757,3-AFC_adaptive_staircase_mess,2022.1.1,None,
,,,,,9,0,9,0,10,0,10,0,,,,,,,,,,,,,,,,left,250,2.5,0.0002233417960754815,1,3,1,2.5,1061.2327325667177,1061.4613515000092,1061.1823734999634,1061.5255502000218,1062.1822399999946,1062.5206539999926,1063.19098449999,1063.5171463000588,right,0,4.1143005000194535,1061.2486293000402,None,1063.7255428000353,None,,,,,,,wquuex,001,0,fr,2022-05-06_17h30.10.757,3-AFC_adaptive_staircase_mess,2022.1.1,None,
,,,,,9,0,9,0,11,0,11,0,,,,,,,,,,,,,,,,up,250,5.0,0.0002978310717645052,1,3,1,2.5,1067.938172166647,None,1066.8790778999683,1067.2218447000487,1067.888377700001,1068.2156708999537,1068.8860587000381,1069.213604700053,right,0,3.36759310006164,1066.9399466000032,None,1069.4705898000393,None,,,,,,,wquuex,001,0,fr,2022-05-06_17h30.10.757,3-AFC_adaptive_staircase_mess,2022.1.1,None,
,,,,,9,0,9,0,12,0,12,0,,,,,,,,,,,,,,,,left,250,7.5,0.0003971641173621407,1,3,1,2.5,1071.8759705667073,None,1071.8257947000675,1072.1398105999688,1072.834401100059,1073.1620898999972,1073.8491589999758,1074.194999200059,left,1,2.398327200091444,1071.892702799989,None,None,None,,,,,,,wquuex,001,0,fr,2022-05-06_17h30.10.757,3-AFC_adaptive_staircase_mess,2022.1.1,None,
,,,,,9,0,9,0,13,0,13,0,,,,,,,,,,,,,,,,left,250,7.5,0.0003971641173621407,1,3,1,2.5,1075.8172933667122,None,1075.8006267000455,1076.1334635000676,1076.806735399994,1077.1372562999604,1077.7891929000616,1078.1337990000611,left,1,2.5059050999116153,1075.8329524999717,None,1078.3506519000512,None,,,,,,,wquuex,001,0,fr,2022-05-06_17h30.10.757,3-AFC_adaptive_staircase_mess,2022.1.1,None,
,,,,,9,0,9,0,14,0,14,0,,,,,,,,,,,,,,,,right,250,2.5,0.0002233417960754815,-1,4,-1,-5.0,1081.8856913666862,None,1079.8647125000134,1080.2051443000091,1080.8758101999993,1081.2030899999663,1081.8690247000195,1082.2054145999718,left,0,3.5344254999654368,1079.9248148000333,None,1082.4040173999965,None,,,,,,,wquuex,001,0,fr,2022-05-06_17h30.10.757,3-AFC_adaptive_staircase_mess,2022.1.1,None,
,,,,,9,0,9,0,15,0,15,0,,,,,,,,,,,,,,,,right,250,5.0,0.0002978310717645052,1,5,1,2.5,1087.0313263666505,1087.2549982999917,1084.9833860000363,1085.3114802000346,1086.0115815000609,1086.3418429000303,1086.9819835000671,1087.3154102000408,up,0,2.9408157999860123,1085.0459239999764,None,1087.555429900065,None,,,,,,,wquuex,001,0,fr,2022-05-06_17h30.10.757,3-AFC_adaptive_staircase_mess,2022.1.1,None,
,,,,,9,0,9,0,16,0,16,0,,,,,,,,,,,,,,,,up,250,7.5,0.0003971641173621407,1,5,1,2.5,1090.5311506667097,1090.758905600058,1089.479306400055,1089.7992793000303,1090.4831145000644,1090.8198909000494,1091.481441300013,1091.8137163000647,up,1,2.8254364000167698,1089.5453637000173,None,1092.051157800015,None,,,,,,,wquuex,001,0,fr,2022-05-06_17h30.10.757,3-AFC_adaptive_staircase_mess,2022.1.1,None,
,,,,,9,0,9,0,17,0,17,0,,,,,,,,,,,,,,,,right,250,7.5,0.0003971641173621407,1,5,1,2.5,1095.90154356667,None,1093.8854564999929,1094.213167799986,1094.8844886999577,1095.1995806000195,1095.8848769000033,1096.2028713000473,right,1,2.77392049995251,1093.917997200042,None,1096.4235619000392,None,,,,,,,wquuex,001,0,fr,2022-05-06_17h30.10.757,3-AFC_adaptive_staircase_mess,2022.1.1,None,
,,,,,9,0,9,0,18,0,18,0,,,,,,,,,,,,,,,,up,250,2.5,0.0002233417960754815,-1,6,-1,-5.0,1099.2358811667111,None,1098.187614100054,1098.5196787000168,1099.185559400008,1099.5279957000166,1100.1833670999622,1100.5256135000382,right,0,4.086931400001049,1098.2535753999837,None,1100.7472539000446,None,,,,,,,wquuex,001,0,fr,2022-05-06_17h30.10.757,3-AFC_adaptive_staircase_mess,2022.1.1,None,
,,,,,10,0,10,0,0,0,0,0,,,,,,,,,,,,,[],[],10,right,125,30,0.02285440948074376,0,0,-1,10,1107.9129625666576,None,1105.873393899994,1106.1940396999707,1106.8662904000375,1107.1970514999703,1107.8635452999733,1108.2038857999723,right,1,2.8859879000810906,1105.9015220999718,None,1108.437745800009,None,space,1.9328803000971675,1103.4468081999803,None,1103.4468081999803,None,wquuex,001,0,fr,2022-05-06_17h30.10.757,3-AFC_adaptive_staircase_mess,2022.1.1,None,
,,,,,10,0,10,0,1,0,1,0,,,,,,,,,,,,,,,,left,125,30,0.02285440948074376,0,0,-1,10,1110.3474469666291,None,1110.2966583999805,1110.639691999997,1111.3029991000658,1111.634459599969,1112.3122966999654,1112.6391053999541,left,1,2.5849508999381214,1110.3614022999536,None,1112.848742500064,None,,,,,,,wquuex,001,0,fr,2022-05-06_17h30.10.757,3-AFC_adaptive_staircase_mess,2022.1.1,None,
,,,,,10,0,10,0,2,0,2,0,,,,,,,,,,,,,,,,right,125,10,0.002285440948074376,-1,0,-1,-10,1116.521291366724,None,1114.4764615000458,1114.8018346000463,1115.468810099992,1115.779104599962,1116.4722583000548,1116.8125043000327,right,1,2.7412748999195173,1114.5417135000462,None,1117.0497510000132,None,,,,,,,wquuex,001,0,fr,2022-05-06_17h30.10.757,3-AFC_adaptive_staircase_mess,2022.1.1,None,
,,,,,10,0,10,0,3,0,3,0,,,,,,,,,,,,,,,,right,125,10,0.002285440948074376,-1,0,-1,-10,1120.851833166733,None,1118.8087504999712,1119.138701400021,1119.8111973999767,1120.14091810002,1120.8058000999736,1121.1484167999588,right,1,2.776728600030765,1118.8745913000312,None,1121.3685564000625,None,,,,,,,wquuex,001,0,fr,2022-05-06_17h30.10.757,3-AFC_adaptive_staircase_mess,2022.1.1,None,
,,,,,10,0,10,0,4,0,4,0,,,,,,,,,,,,,,,,right,125,0,0.000722719885372964,-1,0,-1,-10,1125.1840925666659,None,1123.1521523999982,1123.4866974999895,1124.169637999963,1124.5157836000435,1125.1674258999992,1125.4805473999586,right,1,2.8656081999652088,1123.2172876000404,None,1125.718158200034,None,,,,,,,wquuex,001,0,fr,2022-05-06_17h30.10.757,3-AFC_adaptive_staircase_mess,2022.1.1,None,
,,,,,10,0,10,0,5,0,5,0,,,,,,,,,,,,,,,,right,125,0,0.000722719885372964,-1,0,-1,-10,1129.616711966639,None,1127.5858853000682,1127.9162413000595,1128.5791835000273,1128.9158422000473,1129.5698989999946,1129.888265699963,right,1,3.1049754000268877,1127.650699299993,None,1130.125434000045,None,,,,,,,wquuex,001,0,fr,2022-05-06_17h30.10.757,3-AFC_adaptive_staircase_mess,2022.1.1,None,
,,,,,10,0,10,0,6,0,6,0,,,,,,,,,,,,,,,,left,125,-10,0.0002285440948074376,-1,0,-1,-10,1132.30207036663,None,1132.252835100051,1132.592266199994,1133.2597445000429,1133.5998108000495,1134.2592875000555,1134.5894608000526,right,0,2.9961940000066534,1132.3190800000448,None,1134.799094100017,None,,,,,,,wquuex,001,0,fr,2022-05-06_17h30.10.757,3-AFC_adaptive_staircase_mess,2022.1.1,None,
,,,,,10,0,10,0,7,0,7,0,,,,,,,,,,,,,,,,left,125,-5,0.00040641525808204974,1,1,1,5,1136.8456754666443,None,1136.8290087999776,1137.161681800033,1137.8127257999731,1138.1421925000614,1138.8013648999622,1139.1326114999829,right,0,2.7109694000100717,1136.8598651000066,None,1139.3781217000214,None,,,,,,,wquuex,001,0,fr,2022-05-06_17h30.10.757,3-AFC_adaptive_staircase_mess,2022.1.1,None,
,,,,,10,0,10,0,8,0,8,0,,,,,,,,,,,,,,,,left,125,0,0.000722719885372964,1,1,1,5,1141.1207617666262,None,1141.1040950999595,1141.4395477999933,1142.104685200029,1142.4443341000006,1143.099598400062,1143.4357252999907,left,1,2.8678717999719083,1141.1360230999999,None,1143.6480846999912,None,,,,,,,wquuex,001,0,fr,2022-05-06_17h30.10.757,3-AFC_adaptive_staircase_mess,2022.1.1,None,
,,,,,10,0,10,0,9,0,9,0,,,,,,,,,,,,,,,,right,125,0,0.000722719885372964,1,1,1,5,1147.5495492666416,None,1145.5234675999964,1145.8658483000472,1146.5001763000619,1146.8330497000134,1147.5000687000575,1147.8493599999929,right,1,2.898296399973333,1145.5527261999669,None,1148.0519760999596,None,,,,,,,wquuex,001,0,fr,2022-05-06_17h30.10.757,3-AFC_adaptive_staircase_mess,2022.1.1,None,
,,,,,10,0,10,0,10,0,10,0,,,,,,,,,,,,,,,,left,125,-10,0.0002285440948074376,-1,2,-1,-5.0,1150.0151434667098,None,1149.9695715999696,1150.3083571000025,1150.9645368000492,1151.2929307000013,1151.9815433999756,1152.3118393999757,right,0,3.0426891000242904,1150.0323529000161,None,1152.5257111999672,None,,,,,,,wquuex,001,0,fr,2022-05-06_17h30.10.757,3-AFC_adaptive_staircase_mess,2022.1.1,None,
,,,,,10,0,10,0,11,0,11,0,,,,,,,,,,,,,,,,up,125,-7.5,0.0003047684486200847,1,3,1,2.5,1155.6276835667124,None,1154.5862987999571,1154.9181066000601,1155.5800397000276,1155.9268937000306,1156.5947634000331,1156.9194988000672,left,0,4.056357100023888,1154.6513747000135,None,1157.1334607000463,None,,,,,,,wquuex,001,0,fr,2022-05-06_17h30.10.757,3-AFC_adaptive_staircase_mess,2022.1.1,None,
,,,,,10,0,10,0,12,0,12,0,,,,,,,,,,,,,,,,right,125,-5.0,0.00040641525808204974,1,3,1,2.5,1162.273829166723,None,1160.2346551000373,1160.5667835000204,1161.244152200059,1161.576780000003,1162.224427200039,1162.5641498999903,right,1,3.1327356999972835,1160.2945426000515,None,1162.7753609999781,None,,,,,,,wquuex,001,0,fr,2022-05-06_17h30.10.757,3-AFC_adaptive_staircase_mess,2022.1.1,None,
,,,,,10,0,10,0,13,0,13,0,,,,,,,,,,,,,,,,left,125,-5.0,0.00040641525808204974,1,3,1,2.5,1165.0006889666586,None,1164.954633599962,1165.2931596999988,1165.9435778000625,1166.2765007000417,1166.9637965000002,1167.2944188000401,up,0,3.0018031999934465,1165.0011320000049,None,1167.5061913999962,None,,,,,,,wquuex,001,0,fr,2022-05-06_17h30.10.757,3-AFC_adaptive_staircase_mess,2022.1.1,None,
,,,,,10,0,10,0,14,0,14,0,,,,,,,,,,,,,,,,up,125,-2.5,0.000541963457010602,1,3,1,2.5,1170.5671002666388,None,1169.537125300034,1169.8689590999857,1170.5180072999792,1170.858870600001,1171.5269089000067,1171.857032299973,up,1,3.141374900005758,1169.5666225999594,None,1172.0657798000611,None,,,,,,,wquuex,001,0,fr,2022-05-06_17h30.10.757,3-AFC_adaptive_staircase_mess,2022.1.1,None,
,,,,,10,0,10,0,15,0,15,0,,,,,,,,,,,,,,,,left,125,-2.5,0.000541963457010602,1,3,1,2.5,1174.2399456666938,None,1174.223279000027,1174.5644724000013,1175.2090816999553,1175.5387089999858,1176.191315800068,1176.510317599983,left,1,3.681099099921994,1174.2586449000519,None,1176.7496686000377,None,,,,,,,wquuex,001,0,fr,2022-05-06_17h30.10.757,3-AFC_adaptive_staircase_mess,2022.1.1,None,
,,,,,10,0,10,0,16,0,16,0,,,,,,,,,,,,,,,,up,125,-7.5,0.0003047684486200847,-1,4,-1,-5.0,1180.4935423667232,None,1179.4597891999874,1179.7805629000068,1180.447166100028,1180.7851295999717,1181.4613138999557,1181.7942285999889,up,1,3.018711799988523,1179.4802281999728,None,1181.9975207999814,None,,,,,,,wquuex,001,0,fr,2022-05-06_17h30.10.757,3-AFC_adaptive_staircase_mess,2022.1.1,None,
,,,,,10,0,10,0,17,0,17,0,,,,,,,,,,,,,,,,right,125,-7.5,0.0003047684486200847,-1,4,-1,-5.0,1186.0356700666637,None,1184.0028045000508,1184.3203856999753,1185.0113956000423,1185.3339412000496,1185.9899874000112,1186.3204167999793,left,0,2.589290500036441,1184.0532494999934,None,1186.5604095000308,None,,,,,,,wquuex,001,0,fr,2022-05-06_17h30.10.757,3-AFC_adaptive_staircase_mess,2022.1.1,None,
,,,,,10,0,10,0,18,0,18,0,,,,,,,,,,,,,,,,up,125,-5.0,0.00040641525808204974,1,5,1,2.5,1189.1919090666963,None,1188.170899800025,1188.4905692000175,1189.146321899956,1189.479290700052,1190.1537231999682,1190.4915607000003,left,0,3.4142125999787822,1188.2052211000118,None,1190.7227720000083,None,,,,,,,wquuex,001,0,fr,2022-05-06_17h30.10.757,3-AFC_adaptive_staircase_mess,2022.1.1,None,
,,,,,10,0,10,0,19,0,19,0,,,,,,,,,,,,,,,,left,125,-2.5,0.000541963457010602,1,5,1,2.5,1193.2154186666633,None,1193.16066709999,1193.483757799957,1194.162480900064,1194.5103083000286,1195.16289529996,1195.48645950004,left,1,2.866377199999988,1193.2321066999575,None,1195.720192000037,None,,,,,,,wquuex,001,0,fr,2022-05-06_17h30.10.757,3-AFC_adaptive_staircase_mess,2022.1.1,None,
,,,,,10,0,10,0,20,0,20,0,,,,,,,,,,,,,,,,left,125,-2.5,0.000541963457010602,1,5,1,2.5,1197.6414329666334,None,1197.6247662999667,1197.9318937000353,1198.6264297000598,1198.9498520999914,1199.639670100063,1199.969260300044,left,1,3.0836643000366166,1197.655487000011,None,1200.1615462000482,None,,,,,,,wquuex,001,0,fr,2022-05-06_17h30.10.757,3-AFC_adaptive_staircase_mess,2022.1.1,None,
,,,,,10,0,10,0,21,0,21,0,,,,,,,,,,,,,,,,left,125,-7.5,0.0003047684486200847,-1,6,-1,-5.0,1202.282257866642,None,1202.2394798999885,1202.5716309000272,1203.2491159000201,1203.5872085000155,1204.2449441000354,1204.587044200045,left,1,3.8655826000031084,1202.2963789000642,None,1204.790854300023,None,,,,,,,wquuex,001,0,fr,2022-05-06_17h30.10.757,3-AFC_adaptive_staircase_mess,2022.1.1,None,
,,,,,,,,,,,,,,,,,,,,,,,,,,,,,,,,,,,,,,,,,,,,,,,,,,,space,1.720873499987647,1207.243021100061,None,1207.243021100061,None,,,,,,,,,
