frequencies,training_trials.thisRepN,training_trials.thisTrialN,training_trials.thisN,training_trials.thisIndex,frequencies.thisRepN,frequencies.thisTrialN,frequencies.thisN,frequencies.thisIndex,trials.thisRepN,trials.thisTrialN,trials.thisN,trials.thisIndex,tFrequency,tLevel,tCorrect,Tprobe.started,Tprobe.stopped,tTriangle_cue.started,tTriangle_cue.stopped,Tfeedback.keys,Tfeedback.corr,Tfeedback.rt,Tfeedback.started,Tfeedback.stopped,reversals_nTrials.routineEndVal,track_dir.routineEndVal,step_up.routineEndVal,Correct,Frequency,Level,Psychopy_Level,Direction,Reversals,Track_dir,Step,probe.started,probe.stopped,cross_cue.started,cross_cue.stopped,circle_cue.started,circle_cue.stopped,triangle_cue.started,triangle_cue.stopped,feedback.keys,feedback.corr,feedback.rt,feedback.started,feedback.stopped,memo.started,memo.stopped,participant,session,skip_training,language (english or french),date,expName,psychopyVersion,frameRate,
1300,0,0,0,3,,,,,,,,,1300,30,up,82.68588026666636,None,83.66887439999982,None,up,1,2.7366243999999824,81.21379690000003,None,,,,,,,,,,,,,,,,,,,,,,,,,,,ikieoz,001,0,fr,2022-04-25_15h36.59.495,3-AFC_adaptive_staircase_mess,2022.1.1,None,
850,0,1,1,2,,,,,,,,,850,30,right,91.21823776666658,None,91.20157109999991,91.52712549999978,right,1,3.091363000000001,88.7620764999997,None,,,,,,,,,,,,,,,,,,,,,,,,,,,ikieoz,001,0,fr,2022-04-25_15h36.59.495,3-AFC_adaptive_staircase_mess,2022.1.1,None,
200,0,2,2,0,,,,,,,,,200,30,up,97.66720436666652,None,98.64722690000008,98.95413980000012,up,1,4.832368299999871,96.20644420000008,None,,,,,,,,,,,,,,,,,,,,,,,,,,,ikieoz,001,0,fr,2022-04-25_15h36.59.495,3-AFC_adaptive_staircase_mess,2022.1.1,None,
5000,0,3,3,4,,,,,,,,,5000,30,left,102.5848288666664,None,None,None,left,1,1.5477642999999262,102.1140817999999,None,,,,,,,,,,,,,,,,,,,,,,,,,,,ikieoz,001,0,fr,2022-04-25_15h36.59.495,3-AFC_adaptive_staircase_mess,2022.1.1,None,
450,0,4,4,1,,,,,,,,,450,30,right,109.29784486666655,109.52439509999977,109.25397810000004,109.57935670000006,right,1,3.140832000000046,106.82650220000005,None,,,,,,,,,,,,,,,,,,,,,,,,,,,ikieoz,001,0,fr,2022-04-25_15h36.59.495,3-AFC_adaptive_staircase_mess,2022.1.1,None,
,,,,,0,0,0,0,0,0,0,0,,,,,,,,,,,,,[],[],5,up,1000,50,0.013930605843148852,0,0,-1,5,133.31713876666643,133.54458579999982,132.28753310000002,132.60402489999979,133.30047209999975,133.63546880000013,None,None,up,1,1.6061362999998892,132.3448324000001,None,None,None,ikieoz,001,0,fr,2022-04-25_15h36.59.495,3-AFC_adaptive_staircase_mess,2022.1.1,None,
,,,,,0,0,0,0,1,0,1,0,,,,,,,,,,,,,,,,left,1000,40,0.004405244365040069,-1,0,-1,-10,135.51218676666647,None,135.4677899999997,135.7910710000001,None,None,None,None,left,1,0.7306096999996043,135.5238801999999,None,None,None,ikieoz,001,0,fr,2022-04-25_15h36.59.495,3-AFC_adaptive_staircase_mess,2022.1.1,None,
,,,,,0,0,0,0,2,0,2,0,,,,,,,,,,,,,,,,up,1000,30,0.0013930605843148849,-1,0,-1,-10,138.82076066666676,None,137.75779890000013,138.0722194,138.7609236999997,139.0916285999997,None,None,up,1,1.7380699000000277,137.81158400000004,None,None,None,ikieoz,001,0,fr,2022-04-25_15h36.59.495,3-AFC_adaptive_staircase_mess,2022.1.1,None,
,,,,,0,0,0,0,3,0,3,0,,,,,,,,,,,,,,,,up,1000,20,0.0004405244365040069,-1,0,-1,-10,142.08722966666645,None,141.07017510000014,141.38429739999992,142.07056299999977,142.39051519999975,None,None,up,1,1.684386199999608,141.0974799999999,None,None,None,ikieoz,001,0,fr,2022-04-25_15h36.59.495,3-AFC_adaptive_staircase_mess,2022.1.1,None,
,,,,,0,0,0,0,4,0,4,0,,,,,,,,,,,,,,,,right,1000,10,0.00013930605843148847,-1,0,-1,-10,146.3254046666664,None,144.3044915999999,144.62532699999974,145.30075119999992,145.63195899999982,146.30873799999972,146.6214673999998,right,1,2.6573758999998063,144.33298539999987,None,146.8520079,None,ikieoz,001,0,fr,2022-04-25_15h36.59.495,3-AFC_adaptive_staircase_mess,2022.1.1,None,
,,,,,0,0,0,0,5,0,5,0,,,,,,,,,,,,,,,,up,1000,0,4.405244365040069e-05,-1,0,-1,-10,149.5625119666668,None,148.51640670000006,148.8290075,149.50509499999998,149.8398342999999,150.51028499999984,150.82858439999973,up,1,4.49611109999978,148.5431625000001,None,151.05401729999994,None,ikieoz,001,0,fr,2022-04-25_15h36.59.495,3-AFC_adaptive_staircase_mess,2022.1.1,None,
,,,,,0,0,0,0,6,0,6,0,,,,,,,,,,,,,,,,up,1000,-10,1.3930605843148848e-05,-1,0,-1,-10,155.5678833666664,None,154.54276679999975,154.86988010000005,155.5512166999997,155.88168229999974,156.53076079999983,156.84627779999983,right,0,3.5784629999998288,154.6115178,None,157.0991415999997,None,ikieoz,001,0,fr,2022-04-25_15h36.59.495,3-AFC_adaptive_staircase_mess,2022.1.1,None,
,,,,,0,0,0,0,7,0,7,0,,,,,,,,,,,,,,,,up,1000,-5,2.4772509540239506e-05,1,1,1,5,160.7400141666665,None,159.72272070000008,160.03933490000009,160.72334749999982,161.04250189999993,161.71384080000007,162.02935949999983,right,0,3.0327534999996715,159.75006769999982,None,162.2526654999997,None,ikieoz,001,0,fr,2022-04-25_15h36.59.495,3-AFC_adaptive_staircase_mess,2022.1.1,None,
,,,,,0,0,0,0,8,0,8,0,,,,,,,,,,,,,,,,right,1000,0,4.405244365040069e-05,1,1,1,5,166.34095786666674,None,164.30112009999993,164.6181744999999,165.29495289999977,165.61205599999994,166.29656139999997,166.64246400000002,up,0,3.214353399999709,164.3201524000001,None,166.8444973999999,None,ikieoz,001,0,fr,2022-04-25_15h36.59.495,3-AFC_adaptive_staircase_mess,2022.1.1,None,
,,,,,0,0,0,0,9,0,9,0,,,,,,,,,,,,,,,,left,1000,5,7.833755350540742e-05,1,1,1,5,169.06610346666665,None,169.04943679999997,169.3744885000001,170.0514487999999,170.3697115,171.0408242999997,171.35837270000002,up,0,3.2411480999999185,169.07699019999973,None,171.5873474,None,ikieoz,001,0,fr,2022-04-25_15h36.59.495,3-AFC_adaptive_staircase_mess,2022.1.1,None,
,,,,,0,0,0,0,10,0,10,0,,,,,,,,,,,,,,,,up,1000,10,0.00013930605843148847,1,1,1,5,174.8621554666668,None,173.81465260000004,174.13382649999994,174.81880969999975,175.1473387000001,175.83371529999977,176.14951239999982,up,1,2.3436276999996153,173.86173719999988,None,None,None,ikieoz,001,0,fr,2022-04-25_15h36.59.495,3-AFC_adaptive_staircase_mess,2022.1.1,None,
,,,,,0,0,0,0,11,0,11,0,,,,,,,,,,,,,,,,right,1000,0,4.405244365040069e-05,-1,2,-1,-10,179.75910396666657,None,177.72585309999977,178.0427648,178.72111910000012,179.03721929999983,179.70160469999973,180.03837539999995,left,0,3.0614862000002177,177.7529171000001,None,180.27409050000006,None,ikieoz,001,0,fr,2022-04-25_15h36.59.495,3-AFC_adaptive_staircase_mess,2022.1.1,None,
,,,,,0,0,0,0,12,0,12,0,,,,,,,,,,,,,,,,left,1000,5,7.833755350540742e-05,1,3,1,2.5,182.36876626666643,None,182.3238997999997,182.65928489999988,183.33534869999994,183.65399059999982,184.33311689999982,184.65356350000002,left,1,2.7159278999997696,182.37070489999996,None,184.91106949999994,None,ikieoz,001,0,fr,2022-04-25_15h36.59.495,3-AFC_adaptive_staircase_mess,2022.1.1,None,
,,,,,0,0,0,0,13,0,13,0,,,,,,,,,,,,,,,,right,1000,0.0,4.405244365040069e-05,-1,4,-1,-5.0,188.62878106666656,None,186.5927133,186.91121629999998,187.59186950000003,187.9092711999997,188.58338009999989,188.9025587000001,right,1,3.0380363999997826,186.62465429999975,None,189.12750219999998,None,ikieoz,001,0,fr,2022-04-25_15h36.59.495,3-AFC_adaptive_staircase_mess,2022.1.1,None,
,,,,,0,0,0,0,14,0,14,0,,,,,,,,,,,,,,,,right,1000,-5.0,2.4772509540239506e-05,-1,4,-1,-5.0,193.22980136666663,None,191.1865911,191.50020719999975,192.2169114999997,192.53269509999973,193.18454380000003,193.50223000000005,up,0,2.89932140000019,191.2431870999999,None,193.76289850000012,None,ikieoz,001,0,fr,2022-04-25_15h36.59.495,3-AFC_adaptive_staircase_mess,2022.1.1,None,
,,,,,0,0,0,0,15,0,15,0,,,,,,,,,,,,,,,,up,1000,-2.5,3.303467240037979e-05,1,5,1,2.5,196.68642606666643,None,195.64371559999972,195.96389550000004,196.64260190000005,196.9682014,197.6506688999998,197.9673911,right,0,2.9071077999997215,195.69971600000008,None,198.1906702000001,None,ikieoz,001,0,fr,2022-04-25_15h36.59.495,3-AFC_adaptive_staircase_mess,2022.1.1,None,
,,,,,0,0,0,0,16,0,16,0,,,,,,,,,,,,,,,,up,1000,0.0,4.405244365040069e-05,1,5,1,2.5,201.1699259666664,None,200.15350439999975,200.47098359999973,201.12632639999993,201.44695300000012,202.14786030000005,202.46811879999996,up,1,2.938275099999828,200.18027799999982,None,202.69516029999977,None,ikieoz,001,0,fr,2022-04-25_15h36.59.495,3-AFC_adaptive_staircase_mess,2022.1.1,None,
,,,,,0,0,0,0,17,0,17,0,,,,,,,,,,,,,,,,right,1000,-5.0,2.4772509540239506e-05,-1,6,-1,-5.0,206.66075596666658,206.8914850000001,204.62672440000006,204.94220050000013,205.62130639999987,205.93808649999983,206.6440892999999,206.9781656,right,1,2.9474827999997615,204.6832159999999,None,207.1789915999998,None,ikieoz,001,0,fr,2022-04-25_15h36.59.495,3-AFC_adaptive_staircase_mess,2022.1.1,None,
,,,,,0,0,0,0,18,0,18,0,,,,,,,,,,,,,,,,right,1000,-10.0,1.3930605843148848e-05,-1,6,-1,-5.0,211.18815366666675,None,209.12814350000008,209.4318874999999,210.12350539999989,210.4417724,211.14431549999972,211.4706268,up,0,2.9926344999998946,209.1826173999998,None,211.70085410000002,None,ikieoz,001,0,fr,2022-04-25_15h36.59.495,3-AFC_adaptive_staircase_mess,2022.1.1,None,
,,,,,0,0,0,0,19,0,19,0,,,,,,,,,,,,,,,,right,1000,-7.5,1.8576761454858622e-05,1,7,1,2.5,215.71376476666663,None,213.6954181000001,214.01227470000003,214.69168649999983,215.01485030000003,215.6701248999998,215.99533220000012,up,0,2.8506577999996807,213.72316210000008,None,216.2231385,None,ikieoz,001,0,fr,2022-04-25_15h36.59.495,3-AFC_adaptive_staircase_mess,2022.1.1,None,
,,,,,0,0,0,0,20,0,20,0,,,,,,,,,,,,,,,,right,1000,-5.0,2.4772509540239506e-05,1,7,1,2.5,220.14173316666646,220.36845820000008,218.09615940000003,218.4170380999999,219.0977343999998,219.4439499,220.0965186999997,220.4273807999998,up,0,3.0109717000000273,218.1550483000001,None,220.65934190000007,None,ikieoz,001,0,fr,2022-04-25_15h36.59.495,3-AFC_adaptive_staircase_mess,2022.1.1,None,
,,,,,0,0,0,0,21,0,21,0,,,,,,,,,,,,,,,,right,1000,-2.5,3.303467240037979e-05,1,7,1,2.5,224.73265966666648,None,222.7080458999999,223.0288370999997,223.68586659999983,224.00128589999986,224.68495029999985,225.00727830000005,up,0,2.8128090999998676,222.73724809999976,None,225.2350507000001,None,ikieoz,001,0,fr,2022-04-25_15h36.59.495,3-AFC_adaptive_staircase_mess,2022.1.1,None,
,,,,,0,0,0,0,22,0,22,0,,,,,,,,,,,,,,,,right,1000,0.0,4.405244365040069e-05,1,7,1,2.5,229.1055316666664,None,227.05498510000007,227.3685975999997,228.05535419999978,228.37350370000013,229.05832689999988,229.3787282999997,right,1,2.888937199999873,227.10937689999992,None,229.61242219999986,None,ikieoz,001,0,fr,2022-04-25_15h36.59.495,3-AFC_adaptive_staircase_mess,2022.1.1,None,
,,,,,0,0,0,0,23,0,23,0,,,,,,,,,,,,,,,,up,1000,-5.0,2.4772509540239506e-05,-1,8,-1,-5.0,232.5474040666666,None,231.5026469999998,231.8216610999998,232.50182360000008,232.83017489999975,233.51777420000008,233.84166879999975,right,0,3.8936264999997547,231.56109070000002,None,234.04532859999972,None,ikieoz,001,0,fr,2022-04-25_15h36.59.495,3-AFC_adaptive_staircase_mess,2022.1.1,None,
,,,,,1,0,1,0,0,0,0,0,,,,,,,,,,,,,[],[],5,left,1500,50,0.01527460556607757,0,0,-1,5,237.0032961666664,None,236.95779459999994,237.2847558999997,None,None,None,None,left,1,0.8393207999997685,237.01439189999974,None,None,None,ikieoz,001,0,fr,2022-04-25_15h36.59.495,3-AFC_adaptive_staircase_mess,2022.1.1,None,
,,,,,1,0,1,0,1,0,1,0,,,,,,,,,,,,,,,,right,1500,40,0.004830254394949068,-1,0,-1,-10,241.42723346666642,None,239.39075550000007,239.71359329999996,240.37759509999978,240.69799469999998,241.38047939999979,241.70208109999976,right,1,2.610822999999982,239.41940320000003,None,241.92833109999992,None,ikieoz,001,0,fr,2022-04-25_15h36.59.495,3-AFC_adaptive_staircase_mess,2022.1.1,None,
,,,,,1,0,1,0,2,0,2,0,,,,,,,,,,,,,,,,right,1500,30,0.001527460556607757,-1,0,-1,-10,245.59966066666655,None,243.55012050000005,243.87730699999975,244.55656360000012,244.8826068999997,245.55091330000005,245.89039679999996,right,1,2.4673068000001876,243.61115719999998,None,246.09133509999992,None,ikieoz,001,0,fr,2022-04-25_15h36.59.495,3-AFC_adaptive_staircase_mess,2022.1.1,None,
,,,,,1,0,1,0,3,0,3,0,,,,,,,,,,,,,,,,right,1500,20,0.00048302543949490677,-1,0,-1,-10,249.6160899666668,249.84039239999993,247.5945925000001,247.92755709999983,248.58839549999993,248.90844160000006,249.59942330000013,249.9237751999999,right,1,2.351994199999808,247.6613311000001,None,None,None,ikieoz,001,0,fr,2022-04-25_15h36.59.495,3-AFC_adaptive_staircase_mess,2022.1.1,None,
,,,,,1,0,1,0,4,0,4,0,,,,,,,,,,,,,,,,right,1500,10,0.0001527460556607757,-1,0,-1,-10,253.5527900666664,None,251.4947913000001,251.83504360000006,252.50041069999997,252.83444819999977,253.5013669,253.83286099999987,right,1,2.562543999999889,251.56395799999973,None,254.06929420000006,None,ikieoz,001,0,fr,2022-04-25_15h36.59.495,3-AFC_adaptive_staircase_mess,2022.1.1,None,
,,,,,1,0,1,0,5,0,5,0,,,,,,,,,,,,,,,,up,1500,0,4.830254394949071e-05,-1,0,-1,-10,256.6906654666666,None,255.63645210000004,255.9693930999997,256.6383025,256.97400560000005,257.64215509999985,257.9748062999997,right,0,2.3424605999998676,255.7039107999999,None,None,None,ikieoz,001,0,fr,2022-04-25_15h36.59.495,3-AFC_adaptive_staircase_mess,2022.1.1,None,
,,,,,1,0,1,0,6,0,6,0,,,,,,,,,,,,,,,,left,1500,5,8.589541935787943e-05,1,1,1,5,259.6215004666667,None,259.57019349999973,259.9112264999999,260.57558389999986,260.90918280000005,261.57882599999994,261.9092458,right,0,2.3445514000000003,259.6392066999997,None,None,None,ikieoz,001,0,fr,2022-04-25_15h36.59.495,3-AFC_adaptive_staircase_mess,2022.1.1,None,
,,,,,1,0,1,0,7,0,7,0,,,,,,,,,,,,,,,,left,1500,10,0.0001527460556607757,1,1,1,5,263.56125746666635,None,263.51097619999973,263.8247083000001,264.51259649999974,None,None,None,left,1,1.0434268999997585,263.57888890000004,None,None,None,ikieoz,001,0,fr,2022-04-25_15h36.59.495,3-AFC_adaptive_staircase_mess,2022.1.1,None,
,,,,,1,0,1,0,8,0,8,0,,,,,,,,,,,,,,,,up,1500,0,4.830254394949071e-05,-1,2,-1,-10,267.1976628666664,267.41914339999994,266.1467471000001,266.4835401,267.1471596000001,267.4822743999998,268.1484459999997,268.4829939000001,left,0,2.82462409999971,266.2145021000001,None,268.7203306000001,None,ikieoz,001,0,fr,2022-04-25_15h36.59.495,3-AFC_adaptive_staircase_mess,2022.1.1,None,
,,,,,1,0,1,0,9,0,9,0,,,,,,,,,,,,,,,,right,1500,5,8.589541935787943e-05,1,3,1,2.5,272.60868546666666,None,270.55084099999976,270.8857015999997,271.5521786999998,271.8867236000001,272.55682750000005,272.88909160000003,right,1,2.3076382999997804,270.6182924999998,None,None,None,ikieoz,001,0,fr,2022-04-25_15h36.59.495,3-AFC_adaptive_staircase_mess,2022.1.1,None,
,,,,,1,0,1,0,10,0,10,0,,,,,,,,,,,,,,,,up,1500,0.0,4.830254394949071e-05,-1,4,-1,-5.0,None,None,274.4515971999999,274.7918182999997,None,None,None,None,left,0,0.8548354999998082,274.518638,None,None,None,ikieoz,001,0,fr,2022-04-25_15h36.59.495,3-AFC_adaptive_staircase_mess,2022.1.1,None,
,,,,,1,0,1,0,11,0,11,0,,,,,,,,,,,,,,,,up,1500,2.5,6.441247758465671e-05,1,5,1,2.5,277.94312006666655,None,276.89039890000004,277.2274453,277.89249599999994,278.20544470000004,278.89374799999996,279.22786730000007,right,0,2.5266931999999542,276.9596284999998,None,279.4640125000001,None,ikieoz,001,0,fr,2022-04-25_15h36.59.495,3-AFC_adaptive_staircase_mess,2022.1.1,None,
,,,,,1,0,1,0,12,0,12,0,,,,,,,,,,,,,,,,right,1500,5.0,8.589541935787943e-05,1,5,1,2.5,283.05113996666637,None,280.99372730000005,281.3295413000001,282.0000249999998,282.3322284999999,283.00052959999994,283.3386347999999,left,0,2.8556727000000137,281.0619572999999,None,283.5666054999997,None,ikieoz,001,0,fr,2022-04-25_15h36.59.495,3-AFC_adaptive_staircase_mess,2022.1.1,None,
,,,,,1,0,1,0,13,0,13,0,,,,,,,,,,,,,,,,left,1500,7.5,0.00011454338263838867,1,5,1,2.5,285.4845229666664,285.70704109999997,285.43412249999983,285.7700485999999,286.4349102000001,286.76873669999986,287.43609609999976,287.77206320000005,up,0,2.703347499999836,285.5022368,None,288.00688009999976,None,ikieoz,001,0,fr,2022-04-25_15h36.59.495,3-AFC_adaptive_staircase_mess,2022.1.1,None,
,,,,,1,0,1,0,14,0,14,0,,,,,,,,,,,,,,,,up,1500,10.0,0.0001527460556607757,1,5,1,2.5,290.7599038666665,None,289.7052699000001,290.04073629999993,290.7076197000001,291.0459665999997,291.7089083000001,292.0407568999999,right,0,2.8332350999999107,289.7733654999997,None,292.2761513999999,None,ikieoz,001,0,fr,2022-04-25_15h36.59.495,3-AFC_adaptive_staircase_mess,2022.1.1,None,
,,,,,1,0,1,0,15,0,15,0,,,,,,,,,,,,,,,,left,1500,12.5,0.0002036901389020564,1,5,1,2.5,294.15721986666654,None,294.10601210000004,294.4439804999997,295.1104937,None,None,None,left,1,0.9269044999996368,294.1748727999998,None,None,None,ikieoz,001,0,fr,2022-04-25_15h36.59.495,3-AFC_adaptive_staircase_mess,2022.1.1,None,
,,,,,1,0,1,0,16,0,16,0,,,,,,,,,,,,,,,,left,1500,7.5,0.00011454338263838867,-1,6,-1,-5.0,296.6644591666666,None,296.6127987,296.944027,297.6137727999999,297.9474885999998,298.61617079999996,298.94962399999986,left,1,2.7719069999998283,296.68233069999997,None,299.1841491,None,ikieoz,001,0,fr,2022-04-25_15h36.59.495,3-AFC_adaptive_staircase_mess,2022.1.1,None,
,,,,,1,0,1,0,17,0,17,0,,,,,,,,,,,,,,,,right,1500,2.5,6.441247758465671e-05,-1,6,-1,-5.0,302.97102886666676,None,300.943436,301.2836345999999,301.95738059999985,302.2876094999997,302.9543622000001,303.2895917999999,up,0,2.6336277999998856,301.01193269999976,None,303.49193000000014,None,ikieoz,001,0,fr,2022-04-25_15h36.59.495,3-AFC_adaptive_staircase_mess,2022.1.1,None,
,,,,,1,0,1,0,18,0,18,0,,,,,,,,,,,,,,,,up,1500,5.0,8.589541935787943e-05,1,7,1,2.5,306.2013807666665,None,305.14694359999976,305.4858208999999,306.15054139999984,306.48723949999976,307.1485250999999,307.4857576999998,up,1,2.8784091999996235,305.2156537999999,None,307.7024220999997,None,ikieoz,001,0,fr,2022-04-25_15h36.59.495,3-AFC_adaptive_staircase_mess,2022.1.1,None,
,,,,,1,0,1,0,19,0,19,0,,,,,,,,,,,,,,,,left,1500,0.0,4.830254394949071e-05,-1,8,-1,-5.0,309.66919196666663,None,309.6177717999999,309.96058379999977,310.6285898000001,310.9633567000001,311.6232786999999,311.9564304999999,right,0,2.9352223999999296,309.68655469999976,None,312.1584984000001,None,ikieoz,001,0,fr,2022-04-25_15h36.59.495,3-AFC_adaptive_staircase_mess,2022.1.1,None,
,,,,,2,0,2,0,0,0,0,0,,,,,,,,,,,,,[],[],5,up,2000,50,0.02365756294807403,0,0,-1,5,315.1763805666667,None,314.13365049999993,314.4654959999998,315.12561289999985,315.46045300000014,None,None,up,1,1.7022743999996237,314.16755699999976,None,None,None,ikieoz,001,0,fr,2022-04-25_15h36.59.495,3-AFC_adaptive_staircase_mess,2022.1.1,None,
,,,,,2,0,2,0,1,0,1,0,,,,,,,,,,,,,,,,left,2000,40,0.007481178280472167,-1,0,-1,-10,317.4446625666667,None,317.39420029999974,317.7146168999998,None,None,None,None,left,1,0.743817399999898,317.4622768999998,None,None,None,ikieoz,001,0,fr,2022-04-25_15h36.59.495,3-AFC_adaptive_staircase_mess,2022.1.1,None,
,,,,,2,0,2,0,2,0,2,0,,,,,,,,,,,,,,,,right,2000,30,0.0023657562948074026,-1,0,-1,-10,321.77885076666666,None,319.72659780000004,320.0636930999999,320.7241670999997,321.0672669999999,321.7279880000001,322.0696564,right,1,2.4269547999997485,319.7944730999998,None,None,None,ikieoz,001,0,fr,2022-04-25_15h36.59.495,3-AFC_adaptive_staircase_mess,2022.1.1,None,
,,,,,2,0,2,0,3,0,3,0,,,,,,,,,,,,,,,,left,2000,20,0.0007481178280472167,-1,0,-1,-10,323.7487500666664,None,323.73208339999974,324.07149649999974,None,None,None,None,left,1,0.5517775999996957,323.7660141000001,None,None,None,ikieoz,001,0,fr,2022-04-25_15h36.59.495,3-AFC_adaptive_staircase_mess,2022.1.1,None,
,,,,,2,0,2,0,4,0,4,0,,,,,,,,,,,,,,,,left,2000,10,0.00023657562948074026,-1,0,-1,-10,325.8599849666664,326.08316719999993,325.84331829999974,326.1757024999997,None,None,None,None,left,1,0.5678695999999945,325.87837020000006,None,None,None,ikieoz,001,0,fr,2022-04-25_15h36.59.495,3-AFC_adaptive_staircase_mess,2022.1.1,None,
,,,,,2,0,2,0,5,0,5,0,,,,,,,,,,,,,,,,up,2000,0,7.481178280472168e-05,-1,0,-1,-10,329.0128789666667,None,327.96943699999974,328.29727449999973,328.96621749999986,329.3042148999998,329.9616286999999,None,up,1,1.935106999999789,328.03162669999983,None,None,None,ikieoz,001,0,fr,2022-04-25_15h36.59.495,3-AFC_adaptive_staircase_mess,2022.1.1,None,
,,,,,2,0,2,0,6,0,6,0,,,,,,,,,,,,,,,,left,2000,-10,2.3657562948074015e-05,-1,0,-1,-10,331.5254026666664,None,331.4803707000001,331.8084325,332.48760820000007,332.8170740999999,333.48837000000003,333.8091509000001,right,0,2.380161799999769,331.53806110000005,None,None,None,ikieoz,001,0,fr,2022-04-25_15h36.59.495,3-AFC_adaptive_staircase_mess,2022.1.1,None,
,,,,,2,0,2,0,7,0,7,0,,,,,,,,,,,,,,,,right,2000,-5,4.206975708225974e-05,1,1,1,5,337.46260426666663,None,335.4223294999997,335.74168569999983,336.42791009999974,336.7486765999997,337.4159178,337.73136939999995,up,0,2.3740915999997014,335.48079559999996,None,None,None,ikieoz,001,0,fr,2022-04-25_15h36.59.495,3-AFC_adaptive_staircase_mess,2022.1.1,None,
,,,,,2,0,2,0,8,0,8,0,,,,,,,,,,,,,,,,right,2000,0,7.481178280472168e-05,1,1,1,5,341.4122967666665,None,339.3642544999998,339.6827430999997,340.37713829999984,340.69686479999973,341.3659432999998,341.6911611999999,right,1,2.384678200000053,339.42092300000013,None,None,None,ikieoz,001,0,fr,2022-04-25_15h36.59.495,3-AFC_adaptive_staircase_mess,2022.1.1,None,
,,,,,2,0,2,0,9,0,9,0,,,,,,,,,,,,,,,,up,2000,-10,2.3657562948074015e-05,-1,2,-1,-10,344.3449043666667,None,343.31155899999976,343.6337337,344.32823770000005,344.6584474000001,345.32489959999975,None,up,1,1.9520511999999144,343.37296990000004,None,None,None,ikieoz,001,0,fr,2022-04-25_15h36.59.495,3-AFC_adaptive_staircase_mess,2022.1.1,None,
,,,,,2,0,2,0,10,0,10,0,,,,,,,,,,,,,,,,up,2000,-20,7.481178280472164e-06,-1,2,-1,-10,347.85661386666675,None,346.8182462999998,347.1431343999998,347.8399472000001,348.1642945999997,348.83360649999986,349.1609218999997,up,1,2.3610383999998703,346.8691202,None,None,None,ikieoz,001,0,fr,2022-04-25_15h36.59.495,3-AFC_adaptive_staircase_mess,2022.1.1,None,
,,,,,2,0,2,0,11,0,11,0,,,,,,,,,,,,,,,,left,2000,-30,2.3657562948074015e-06,-1,2,-1,-10,350.77459356666645,None,350.7280006000001,351.06031140000005,351.73993010000004,352.0646950999999,352.72711720000007,353.0384312000001,right,0,3.5955487999999605,350.7862697999999,None,353.27846039999986,None,ikieoz,001,0,fr,2022-04-25_15h36.59.495,3-AFC_adaptive_staircase_mess,2022.1.1,None,
,,,,,2,0,2,0,12,0,12,0,,,,,,,,,,,,,,,,up,2000,-25,4.206975708225973e-06,1,3,1,2.5,356.92445426666677,None,355.89994709999974,356.2483635999997,356.9077876000001,357.2356169999998,357.9012620999997,358.24817380000013,right,0,3.0335517999997137,355.9563561,None,358.4489859999999,None,ikieoz,001,0,fr,2022-04-25_15h36.59.495,3-AFC_adaptive_staircase_mess,2022.1.1,None,
,,,,,2,0,2,0,13,0,13,0,,,,,,,,,,,,,,,,left,2000,-22.5,5.610092271509815e-06,1,3,1,2.5,360.55245306666643,None,360.5059118999998,360.83425050000005,361.5187565000001,361.8398632999997,362.5028291999997,362.8507942000001,right,0,2.8108210000000327,360.5644394000001,None,363.05359739999994,None,ikieoz,001,0,fr,2022-04-25_15h36.59.495,3-AFC_adaptive_staircase_mess,2022.1.1,None,
,,,,,2,0,2,0,14,0,14,0,,,,,,,,,,,,,,,,right,2000,-20.0,7.481178280472164e-06,1,3,1,2.5,366.9514089666666,None,364.8857307999997,365.21311909999986,365.90135329999976,366.22410360000003,366.9068287,367.2401924999999,right,1,2.7244518999996217,364.9535989000001,None,367.4411986,None,ikieoz,001,0,fr,2022-04-25_15h36.59.495,3-AFC_adaptive_staircase_mess,2022.1.1,None,
,,,,,2,0,2,0,15,0,15,0,,,,,,,,,,,,,,,,up,2000,-25.0,4.206975708225973e-06,-1,4,-1,-5.0,370.21828316666665,None,369.1574221999999,369.48696119999977,370.17302900000004,370.50753110000005,371.1928484,371.5047497999999,up,1,3.5210581000001184,369.22892920000004,None,371.72860439999977,None,ikieoz,001,0,fr,2022-04-25_15h36.59.495,3-AFC_adaptive_staircase_mess,2022.1.1,None,
,,,,,2,0,2,0,16,0,16,0,,,,,,,,,,,,,,,,left,2000,-30.0,2.3657562948074015e-06,-1,4,-1,-5.0,374.2931161666668,None,374.24898540000004,374.5844496999998,375.2592332999998,375.58531730000004,376.2665124,376.5822181999997,right,0,2.956807800000206,374.3051826000001,None,376.7967730999999,None,ikieoz,001,0,fr,2022-04-25_15h36.59.495,3-AFC_adaptive_staircase_mess,2022.1.1,None,
,,,,,2,0,2,0,17,0,17,0,,,,,,,,,,,,,,,,up,2000,-27.5,3.154786722400965e-06,1,5,1,2.5,379.82041306666656,380.04392129999997,378.75317889999997,379.09806149999986,379.7674686999999,380.0982730999999,380.76751190000004,381.10063439999976,up,1,3.140034300000025,378.8101775,None,381.32854580000003,None,ikieoz,001,0,fr,2022-04-25_15h36.59.495,3-AFC_adaptive_staircase_mess,2022.1.1,None,
,,,,,2,0,2,0,18,0,18,0,,,,,,,,,,,,,,,,up,2000,-32.5,1.7740669461678767e-06,-1,6,-1,-5.0,384.48319866666657,None,383.4716797000001,383.78301759999977,384.4665319999999,384.78690159999996,385.47147989999985,385.78715950000014,up,1,2.9771740999995018,383.5015797000001,None,386.0044955999997,None,ikieoz,001,0,fr,2022-04-25_15h36.59.495,3-AFC_adaptive_staircase_mess,2022.1.1,None,
,,,,,2,0,2,0,19,0,19,0,,,,,,,,,,,,,,,,right,2000,-37.5,9.976311574844394e-07,-1,6,-1,-5.0,390.0091763666667,None,387.99096370000007,388.3066770999999,388.9804307999998,389.29622629999994,389.9925097,390.31048759999976,right,1,2.763561100000061,388.0194717999998,None,390.5104117000001,None,ikieoz,001,0,fr,2022-04-25_15h36.59.495,3-AFC_adaptive_staircase_mess,2022.1.1,None,
,,,,,2,0,2,0,20,0,20,0,,,,,,,,,,,,,,,,up,2000,-42.5,5.610092271509815e-07,-1,6,-1,-5.0,393.30857096666637,None,392.2914655999998,392.60952169999973,393.2919042999997,393.62618569999995,394.27771410000014,394.59660329999997,up,1,2.4233111999997163,392.31063540000014,None,None,None,ikieoz,001,0,fr,2022-04-25_15h36.59.495,3-AFC_adaptive_staircase_mess,2022.1.1,None,
,,,,,2,0,2,0,21,0,21,0,,,,,,,,,,,,,,,,right,2000,-47.5,3.154786722400965e-07,-1,6,-1,-5.0,398.30838556666663,None,396.23103519999995,396.5488817999999,397.255889,397.5737387999998,398.23085820000006,398.5539681,up,0,2.4960688999995,396.3181976999999,None,398.78493530000014,None,ikieoz,001,0,fr,2022-04-25_15h36.59.495,3-AFC_adaptive_staircase_mess,2022.1.1,None,
,,,,,2,0,2,0,22,0,22,0,,,,,,,,,,,,,,,,right,2000,-45.0,4.206975708225974e-07,1,7,1,2.5,402.39223316666653,None,400.33854789999987,400.68842749999976,401.3398182000001,401.6640527999998,402.34678529999974,402.6738258999999,up,0,2.7157620999996652,400.38628149999977,None,402.90369999999984,None,ikieoz,001,0,fr,2022-04-25_15h36.59.495,3-AFC_adaptive_staircase_mess,2022.1.1,None,
,,,,,2,0,2,0,23,0,23,0,,,,,,,,,,,,,,,,left,2000,-42.5,5.610092271509815e-07,1,7,1,2.5,404.64622326666654,None,404.6295565999999,404.9526922,405.60997020000013,405.9264688999997,406.62618059999977,406.9421718999997,right,0,2.9729817000002186,404.6575797999999,None,407.1665955999997,None,ikieoz,001,0,fr,2022-04-25_15h36.59.495,3-AFC_adaptive_staircase_mess,2022.1.1,None,
,,,,,2,0,2,0,24,0,24,0,,,,,,,,,,,,,,,,up,2000,-40.0,7.481178280472164e-07,1,7,1,2.5,410.1797968666667,None,409.1360516,409.4537178999999,410.13282149999986,410.44620369999984,411.1308027,411.45177809999996,up,1,2.3721160999998574,409.1945185999998,None,None,None,ikieoz,001,0,fr,2022-04-25_15h36.59.495,3-AFC_adaptive_staircase_mess,2022.1.1,None,
,,,,,2,0,2,0,25,0,25,0,,,,,,,,,,,,,,,,up,2000,-45.0,4.206975708225974e-07,-1,8,-1,-5.0,414.16100526666673,None,413.1081842999997,413.4224878,414.100649,414.4313036999997,415.10739590000003,415.4223480999999,up,1,2.3872521999996934,413.16369269999996,None,None,None,ikieoz,001,0,fr,2022-04-25_15h36.59.495,3-AFC_adaptive_staircase_mess,2022.1.1,None,
,,,,,3,0,3,0,0,0,0,0,,,,,,,,,,,,,[],[],5,up,3000,50,0.017336842522626576,0,0,-1,5,418.1300745666665,None,417.05498850000004,417.3733345999999,418.07061399999975,418.39672139999993,None,None,up,1,1.6311209000000417,417.10221939999974,None,None,None,ikieoz,001,0,fr,2022-04-25_15h36.59.495,3-AFC_adaptive_staircase_mess,2022.1.1,None,
,,,,,3,0,3,0,1,0,1,0,,,,,,,,,,,,,,,,left,3000,40,0.005482390980715924,-1,0,-1,-10,420.2698756666666,None,420.2245681999998,420.55897030000006,None,None,None,None,left,1,0.6865671999998995,420.27197380000007,None,None,None,ikieoz,001,0,fr,2022-04-25_15h36.59.495,3-AFC_adaptive_staircase_mess,2022.1.1,None,
,,,,,3,0,3,0,2,0,2,0,,,,,,,,,,,,,,,,right,3000,30,0.001733684252262658,-1,0,-1,-10,424.5130842666665,424.7400193999997,422.47190999999975,422.7913527999999,423.4763509999998,423.8171502,424.4692454000001,424.79543539999986,right,1,2.457930799999758,422.53183519999993,None,425.0087851666665,None,ikieoz,001,0,fr,2022-04-25_15h36.59.495,3-AFC_adaptive_staircase_mess,2022.1.1,None,
,,,,,3,0,3,0,3,0,3,0,,,,,,,,,,,,,,,,up,3000,20,0.0005482390980715922,-1,0,-1,-10,427.5321246666665,427.7531481000001,426.51294689999986,426.83012959999996,427.51545799999985,427.83292459999984,None,None,up,1,1.5519451999998637,426.5419721999997,None,None,None,ikieoz,001,0,fr,2022-04-25_15h36.59.495,3-AFC_adaptive_staircase_mess,2022.1.1,None,
,,,,,3,0,3,0,4,0,4,0,,,,,,,,,,,,,,,,left,3000,10,0.00017336842522626576,-1,0,-1,-10,429.64862076666645,None,429.6319540999998,429.9641637,430.6184804999998,430.9352020000001,431.6201114999999,431.9510511999997,left,1,2.9905644000000393,429.66317660000004,None,432.1797468,None,ikieoz,001,0,fr,2022-04-25_15h36.59.495,3-AFC_adaptive_staircase_mess,2022.1.1,None,
,,,,,3,0,3,0,5,0,5,0,,,,,,,,,,,,,,,,right,3000,0,5.482390980715923e-05,-1,0,-1,-10,436.1941131666665,None,434.17275470000004,434.48921389999987,435.14678730000014,435.4621572000001,436.1486068999998,436.4920858999999,up,0,2.324824400000125,434.2014804999999,None,None,None,ikieoz,001,0,fr,2022-04-25_15h36.59.495,3-AFC_adaptive_staircase_mess,2022.1.1,None,
,,,,,3,0,3,0,6,0,6,0,,,,,,,,,,,,,,,,right,3000,5,9.749222998790222e-05,1,1,1,5,440.1009751666668,440.3282991000001,438.07151369999974,438.38435759999993,439.0612102,439.37722189999977,440.0553559,440.3823666999997,up,0,2.923957099999825,438.0983016,None,440.60589900000014,None,ikieoz,001,0,fr,2022-04-25_15h36.59.495,3-AFC_adaptive_staircase_mess,2022.1.1,None,
,,,,,3,0,3,0,7,0,7,0,,,,,,,,,,,,,,,,up,3000,10,0.00017336842522626576,1,1,1,5,443.5820001666664,443.8018079999997,442.5361637000001,442.85130849999996,443.5653334999997,443.88284829999975,None,None,up,1,1.8534315000001698,442.5925612000001,None,None,None,ikieoz,001,0,fr,2022-04-25_15h36.59.495,3-AFC_adaptive_staircase_mess,2022.1.1,None,
,,,,,3,0,3,0,8,0,8,0,,,,,,,,,,,,,,,,up,3000,0,5.482390980715923e-05,-1,2,-1,-10,446.96516616666645,None,445.9472397999998,446.26427939999985,446.9484994999998,447.2830082999999,447.94325449999997,448.25729060000003,right,0,2.895962999999938,445.9660117999997,None,448.4842417,None,ikieoz,001,0,fr,2022-04-25_15h36.59.495,3-AFC_adaptive_staircase_mess,2022.1.1,None,
,,,,,3,0,3,0,9,0,9,0,,,,,,,,,,,,,,,,up,3000,5,9.749222998790222e-05,1,3,1,2.5,451.4095086666664,None,450.3626822000001,450.6776322999999,451.3641841999997,451.6912790000001,452.37451699999974,452.68925480000007,up,1,2.8431777999999213,450.4191618,None,452.92244889999984,None,ikieoz,001,0,fr,2022-04-25_15h36.59.495,3-AFC_adaptive_staircase_mess,2022.1.1,None,
,,,,,3,0,3,0,10,0,10,0,,,,,,,,,,,,,,,,right,3000,0.0,5.482390980715923e-05,-1,4,-1,-5.0,456.83539816666666,None,454.7720171000001,455.0879896000001,455.79086289999987,456.10326099999975,456.7771287999999,457.11354010000014,right,1,2.946110399999725,454.82828359999985,None,457.34423100000004,None,ikieoz,001,0,fr,2022-04-25_15h36.59.495,3-AFC_adaptive_staircase_mess,2022.1.1,None,
,,,,,3,0,3,0,11,0,11,0,,,,,,,,,,,,,,,,up,3000,-5.0,3.082975009307411e-05,-1,4,-1,-5.0,460.34568706666664,None,459.2938836999997,459.6032689999997,460.3003300999999,460.63252439999997,461.30822209999997,461.6287506999997,up,1,2.7130567999997766,459.3495545999999,None,461.85725379999985,None,ikieoz,001,0,fr,2022-04-25_15h36.59.495,3-AFC_adaptive_staircase_mess,2022.1.1,None,
,,,,,3,0,3,0,12,0,12,0,,,,,,,,,,,,,,,,right,3000,-10.0,1.7336842522626584e-05,-1,4,-1,-5.0,465.6230553666667,None,463.5594092000001,463.87323819999983,464.5825245000001,464.8994785,465.57832400000007,465.9090821,left,0,2.8120819999999185,463.6186951999998,None,466.1358009999999,None,ikieoz,001,0,fr,2022-04-25_15h36.59.495,3-AFC_adaptive_staircase_mess,2022.1.1,None,
,,,,,3,0,3,0,13,0,13,0,,,,,,,,,,,,,,,,up,3000,-7.5,2.3119051069963017e-05,1,5,1,2.5,468.9892010666665,469.2158876999997,467.95467580000013,468.2693197999997,468.944066,469.2746327,469.9508246999999,470.2697118000001,left,0,2.879084799999873,467.9830552999997,None,470.49699759999976,None,ikieoz,001,0,fr,2022-04-25_15h36.59.495,3-AFC_adaptive_staircase_mess,2022.1.1,None,
,,,,,3,0,3,0,14,0,14,0,,,,,,,,,,,,,,,,right,3000,-5.0,3.082975009307411e-05,1,5,1,2.5,474.43220196666675,None,472.3788347999998,472.6961222,473.3784112999997,473.6973475,474.38802510000005,474.71614390000013,up,0,2.5054315000002134,472.4358059000001,None,474.9454519000001,None,ikieoz,001,0,fr,2022-04-25_15h36.59.495,3-AFC_adaptive_staircase_mess,2022.1.1,None,
,,,,,3,0,3,0,15,0,15,0,,,,,,,,,,,,,,,,right,3000,-2.5,4.1112132497353565e-05,1,5,1,2.5,478.4850323666667,None,476.4452246999999,476.7609745999998,477.44450689999985,477.7630865000001,478.439895,478.7580232,up,0,2.8215477999997347,476.4720797,None,478.98246659999995,None,ikieoz,001,0,fr,2022-04-25_15h36.59.495,3-AFC_adaptive_staircase_mess,2022.1.1,None,
,,,,,3,0,3,0,16,0,16,0,,,,,,,,,,,,,,,,left,3000,0.0,5.482390980715923e-05,1,5,1,2.5,480.84821916666647,481.0723331999998,480.8315524999998,481.1543984,481.80621870000004,482.1205073000001,482.8076974999999,483.12312810000003,left,1,2.418131199999607,480.8601837000001,None,None,None,ikieoz,001,0,fr,2022-04-25_15h36.59.495,3-AFC_adaptive_staircase_mess,2022.1.1,None,
,,,,,3,0,3,0,17,0,17,0,,,,,,,,,,,,,,,,right,3000,-5.0,3.082975009307411e-05,-1,6,-1,-5.0,486.8221937666665,None,484.8095853,485.1223522999999,485.80921979999994,486.12695329999997,486.80552709999984,487.1240337999998,right,1,2.7915360999995755,484.8374759999997,None,487.35633989999997,None,ikieoz,001,0,fr,2022-04-25_15h36.59.495,3-AFC_adaptive_staircase_mess,2022.1.1,None,
,,,,,3,0,3,0,18,0,18,0,,,,,,,,,,,,,,,,up,3000,-10.0,1.7336842522626584e-05,-1,6,-1,-5.0,490.1994973666667,None,489.15017639999996,489.4737648999999,490.1548984000001,490.4813180000001,491.16076810000004,491.4818679,right,0,3.0332713999996486,489.2053526999998,None,491.7092521999998,None,ikieoz,001,0,fr,2022-04-25_15h36.59.495,3-AFC_adaptive_staircase_mess,2022.1.1,None,
,,,,,3,0,3,0,19,0,19,0,,,,,,,,,,,,,,,,right,3000,-7.5,2.3119051069963017e-05,1,7,1,2.5,495.7745931666666,None,493.7624114,494.07642899999973,494.7565077999998,495.07289630000014,495.75792649999994,496.0816500000001,right,1,2.8803511999994953,493.78923959999975,None,496.31169150000005,None,ikieoz,001,0,fr,2022-04-25_15h36.59.495,3-AFC_adaptive_staircase_mess,2022.1.1,None,
,,,,,3,0,3,0,20,0,20,0,,,,,,,,,,,,,,,,left,3000,-12.5,1.300079781582636e-05,-1,8,-1,-5.0,498.18852466666635,None,498.14371359999996,498.45830179999984,499.1538191999998,499.49061699999993,500.15468139999984,500.4840669,right,0,2.3889421999997467,498.2007143000001,None,None,None,ikieoz,001,0,fr,2022-04-25_15h36.59.495,3-AFC_adaptive_staircase_mess,2022.1.1,None,
,,,,,4,0,4,0,0,0,0,0,,,,,,,,,,,,,[],[],5,left,4000,50,0.02654422221154942,0,0,-1,5,502.14784976666647,502.37218840000014,502.1018718999999,502.4271699000001,None,None,None,None,left,1,0.6540622999996231,502.1596294000001,None,None,None,ikieoz,001,0,fr,2022-04-25_15h36.59.495,3-AFC_adaptive_staircase_mess,2022.1.1,None,
,,,,,4,0,4,0,1,0,1,0,,,,,,,,,,,,,,,,left,4000,40,0.008394020090612802,-1,0,-1,-10,504.3670308666667,None,504.3237263000001,504.65088509999987,None,None,None,None,left,1,0.56271629999992,504.3787311000001,None,None,None,ikieoz,001,0,fr,2022-04-25_15h36.59.495,3-AFC_adaptive_staircase_mess,2022.1.1,None,
,,,,,4,0,4,0,2,0,2,0,,,,,,,,,,,,,,,,left,4000,30,0.0026544222211549416,-1,0,-1,-10,506.5067154666665,None,506.49004879999984,506.81087249999973,None,None,None,None,left,1,0.6159655999999814,506.5173946,None,None,None,ikieoz,001,0,fr,2022-04-25_15h36.59.495,3-AFC_adaptive_staircase_mess,2022.1.1,None,
,,,,,4,0,4,0,3,0,3,0,,,,,,,,,,,,,,,,left,4000,20,0.0008394020090612801,-1,0,-1,-10,508.6673176666666,508.8885931,508.6225027999999,508.94829059999984,None,None,None,None,left,1,0.5663500999999087,508.6791555,None,None,None,ikieoz,001,0,fr,2022-04-25_15h36.59.495,3-AFC_adaptive_staircase_mess,2022.1.1,None,
,,,,,4,0,4,0,4,0,4,0,,,,,,,,,,,,,,,,left,4000,10,0.00026544222211549425,-1,0,-1,-10,510.80314516666635,None,510.7586581999999,511.0866225999998,None,None,None,None,left,1,0.6055022000000463,510.81568149999976,None,None,None,ikieoz,001,0,fr,2022-04-25_15h36.59.495,3-AFC_adaptive_staircase_mess,2022.1.1,None,
,,,,,4,0,4,0,5,0,5,0,,,,,,,,,,,,,,,,up,4000,0,8.394020090612804e-05,-1,0,-1,-10,513.9431495666665,514.1697291999999,512.9006762999998,513.2171791000001,513.8995893000001,514.2244443999998,514.9109344999997,515.2324825000001,left,0,2.3831946999998763,512.9579585000001,None,None,None,ikieoz,001,0,fr,2022-04-25_15h36.59.495,3-AFC_adaptive_staircase_mess,2022.1.1,None,
,,,,,4,0,4,0,6,0,6,0,,,,,,,,,,,,,,,,up,4000,5,0.00014926913094589803,1,1,1,5,None,None,516.8678942000001,517.1893660000001,None,None,None,None,left,0,0.765057099999467,516.8972888999997,None,None,None,ikieoz,001,0,fr,2022-04-25_15h36.59.495,3-AFC_adaptive_staircase_mess,2022.1.1,None,
,,,,,4,0,4,0,7,0,7,0,,,,,,,,,,,,,,,,right,4000,10,0.00026544222211549425,1,1,1,5,521.2350783666664,521.4537664,519.1717327000001,519.4911624000001,520.2109531000001,520.5260748999999,521.1884182999997,521.5133381,up,0,2.7228919999997743,519.2268036999999,None,521.7447586999997,None,ikieoz,001,0,fr,2022-04-25_15h36.59.495,3-AFC_adaptive_staircase_mess,2022.1.1,None,
,,,,,4,0,4,0,8,0,8,0,,,,,,,,,,,,,,,,left,4000,15,0.0004720304381429618,1,1,1,5,523.4862723666668,None,523.4429888,523.7677669999998,524.4496083999998,None,None,None,left,1,0.9964669000000868,523.4976653999997,None,None,None,ikieoz,001,0,fr,2022-04-25_15h36.59.495,3-AFC_adaptive_staircase_mess,2022.1.1,None,
,,,,,4,0,4,0,9,0,9,0,,,,,,,,,,,,,,,,up,4000,5,0.00014926913094589803,-1,2,-1,-10,527.0351702666665,None,526.0104023999997,526.3311479999998,526.9873883999999,527.3165908000001,528.0009540000001,528.3266221999997,right,0,2.374163999999837,526.0388909999997,None,None,None,ikieoz,001,0,fr,2022-04-25_15h36.59.495,3-AFC_adaptive_staircase_mess,2022.1.1,None,
,,,,,4,0,4,0,10,0,10,0,,,,,,,,,,,,,,,,left,4000,10,0.00026544222211549425,1,3,1,2.5,529.9732425666664,None,529.9259441999998,530.2457073,None,None,None,None,left,1,0.8621000999996795,529.9840116,None,None,None,ikieoz,001,0,fr,2022-04-25_15h36.59.495,3-AFC_adaptive_staircase_mess,2022.1.1,None,
,,,,,4,0,4,0,11,0,11,0,,,,,,,,,,,,,,,,up,4000,5.0,0.00014926913094589803,-1,4,-1,-5.0,533.3829700666668,None,532.3263019000001,532.6465678999998,533.3371890999997,533.6764322999998,None,None,up,1,1.7106165999998666,532.3839936999998,None,None,None,ikieoz,001,0,fr,2022-04-25_15h36.59.495,3-AFC_adaptive_staircase_mess,2022.1.1,None,
,,,,,4,0,4,0,12,0,12,0,,,,,,,,,,,,,,,,right,4000,0.0,8.394020090612804e-05,-1,4,-1,-5.0,537.6371162666667,537.8611861999998,535.5819071999999,535.9061867,536.5868522000001,536.9071562999998,537.5913523999998,537.9192515999998,right,1,2.374459399999978,535.6396853000001,None,None,None,ikieoz,001,0,fr,2022-04-25_15h36.59.495,3-AFC_adaptive_staircase_mess,2022.1.1,None,
,,,,,4,0,4,0,13,0,13,0,,,,,,,,,,,,,,,,up,4000,-5.0,4.720304381429618e-05,-1,4,-1,-5.0,540.5713651666667,None,539.5247924,539.8442627,540.5251515999998,540.8552254000001,541.5520508,541.8687541999998,up,1,3.457565799999884,539.5802432999999,None,542.0994658999998,None,ikieoz,001,0,fr,2022-04-25_15h36.59.495,3-AFC_adaptive_staircase_mess,2022.1.1,None,
,,,,,4,0,4,0,14,0,14,0,,,,,,,,,,,,,,,,right,4000,-10.0,2.6544222211549425e-05,-1,4,-1,-5.0,546.5988809666667,None,544.5432925999999,544.8632244999999,545.5501245,545.868806,546.5522142999998,546.8905476,up,0,2.995151899999655,544.6028911999997,None,547.0906003,None,ikieoz,001,0,fr,2022-04-25_15h36.59.495,3-AFC_adaptive_staircase_mess,2022.1.1,None,
,,,,,4,0,4,0,15,0,15,0,,,,,,,,,,,,,,,,left,4000,-7.5,3.53972892192069e-05,1,5,1,2.5,549.1475165666664,None,549.1021037999999,549.4324558999997,550.1164217999999,550.4350375999998,551.1218516999998,551.4462791999999,up,0,2.8079738999995243,549.1578948000001,None,551.6756766999997,None,ikieoz,001,0,fr,2022-04-25_15h36.59.495,3-AFC_adaptive_staircase_mess,2022.1.1,None,
,,,,,4,0,4,0,16,0,16,0,,,,,,,,,,,,,,,,right,4000,-5.0,4.720304381429618e-05,1,5,1,2.5,555.5216381666667,None,553.4796855999998,553.8193335000001,554.4727525999997,554.7954162999999,555.4745502999999,555.7882522,right,1,2.526480800000172,553.5347842000001,None,556.0497559,None,ikieoz,001,0,fr,2022-04-25_15h36.59.495,3-AFC_adaptive_staircase_mess,2022.1.1,None,
,,,,,4,0,4,0,17,0,17,0,,,,,,,,,,,,,,,,up,4000,-10.0,2.6544222211549425e-05,-1,6,-1,-5.0,558.6397311666667,None,557.5739785000001,557.8956776,558.5935005000001,558.9173625999997,559.5759613999999,559.8959122000001,right,0,2.8779986999998073,557.6316722000001,None,560.1248286,None,ikieoz,001,0,fr,2022-04-25_15h36.59.495,3-AFC_adaptive_staircase_mess,2022.1.1,None,
,,,,,4,0,4,0,18,0,18,0,,,,,,,,,,,,,,,,left,4000,-7.5,3.53972892192069e-05,1,7,1,2.5,562.0611428666664,None,562.0444761999997,562.3729946999997,563.0332442999998,563.3503636,564.0375718,564.3626948000001,right,0,2.9344049999999697,562.0721522999997,None,564.5926826,None,ikieoz,001,0,fr,2022-04-25_15h36.59.495,3-AFC_adaptive_staircase_mess,2022.1.1,None,
,,,,,4,0,4,0,19,0,19,0,,,,,,,,,,,,,,,,up,4000,-5.0,4.720304381429618e-05,1,7,1,2.5,567.5893579666665,None,566.5512137999999,566.8717766,567.5411574,567.8763992999998,568.5389823,568.8611013,right,0,3.1477343999999903,566.5790480999999,None,569.0985397,None,ikieoz,001,0,fr,2022-04-25_15h36.59.495,3-AFC_adaptive_staircase_mess,2022.1.1,None,
,,,,,4,0,4,0,20,0,20,0,,,,,,,,,,,,,,,,up,4000,-2.5,6.294627058970837e-05,1,7,1,2.5,572.2912320666667,572.5203978,571.2329746999999,571.5551715000001,572.2427346,572.5824518999998,573.2469946000001,573.5731433000001,right,0,2.5190692999999555,571.2868177999999,None,573.8061708,None,ikieoz,001,0,fr,2022-04-25_15h36.59.495,3-AFC_adaptive_staircase_mess,2022.1.1,None,
,,,,,4,0,4,0,21,0,21,0,,,,,,,,,,,,,,,,left,4000,0.0,8.394020090612804e-05,1,7,1,2.5,575.3645182666667,None,575.3159074,575.6519267999997,576.3168989999999,576.643082,577.3301978999998,577.6572894000001,right,0,2.3944430999999895,575.3793409,None,None,None,ikieoz,001,0,fr,2022-04-25_15h36.59.495,3-AFC_adaptive_staircase_mess,2022.1.1,None,
,,,,,4,0,4,0,22,0,22,0,,,,,,,,,,,,,,,,up,4000,2.5,0.000111936056928417,1,7,1,2.5,580.3016637666667,580.5310349000001,579.2739197000001,579.5909656999997,580.2849971,580.6211183,581.2665551,581.5864088999997,right,0,2.521625199999562,579.3317683,None,581.8216695000001,None,ikieoz,001,0,fr,2022-04-25_15h36.59.495,3-AFC_adaptive_staircase_mess,2022.1.1,None,
,,,,,4,0,4,0,23,0,23,0,,,,,,,,,,,,,,,,up,4000,5.0,0.00014926913094589803,1,7,1,2.5,584.3792928666664,None,583.3383420999999,583.6645650999999,584.3347103000001,584.6673725,585.3119522666664,None,up,1,1.882676000000174,583.3945777999998,None,None,None,ikieoz,001,0,fr,2022-04-25_15h36.59.495,3-AFC_adaptive_staircase_mess,2022.1.1,None,
,,,,,4,0,4,0,24,0,24,0,,,,,,,,,,,,,,,,up,4000,0.0,8.394020090612804e-05,-1,8,-1,-5.0,587.8363054666668,None,586.8011569,587.1248990999998,587.7906926999999,588.1155214999999,None,None,up,1,1.7914980000000469,586.8299969999998,None,None,None,ikieoz,001,0,fr,2022-04-25_15h36.59.495,3-AFC_adaptive_staircase_mess,2022.1.1,None,
,,,,,5,0,5,0,0,0,0,0,,,,,,,,,,,,,[],[],5,right,6000,50,0.03664122665694519,0,0,-1,5,592.1800370666667,592.4083065999998,590.1287873000001,590.4563611999997,591.1228557,591.4421843999999,592.1337310999997,592.4702787000001,right,1,2.479053600000043,590.1903649999999,None,592.6788581000001,None,ikieoz,001,0,fr,2022-04-25_15h36.59.495,3-AFC_adaptive_staircase_mess,2022.1.1,None,
,,,,,5,0,5,0,1,0,1,0,,,,,,,,,,,,,,,,right,6000,40,0.01158697324984239,-1,0,-1,-10,596.2197442666668,None,594.1773512999998,594.5029010999997,595.1698255000001,595.4995985,596.171828,596.5029420999999,right,1,2.3375166000000718,594.2356590999998,None,None,None,ikieoz,001,0,fr,2022-04-25_15h36.59.495,3-AFC_adaptive_staircase_mess,2022.1.1,None,
,,,,,5,0,5,0,2,0,2,0,,,,,,,,,,,,,,,,right,6000,30,0.003664122665694519,-1,0,-1,-10,600.1159509666666,None,598.0816012,598.4068668999998,599.0783701999999,599.4075394000001,600.0992842999999,600.4213150999999,right,1,2.3528279999995902,598.1410627,None,None,None,ikieoz,001,0,fr,2022-04-25_15h36.59.495,3-AFC_adaptive_staircase_mess,2022.1.1,None,
,,,,,5,0,5,0,3,0,3,0,,,,,,,,,,,,,,,,left,6000,20,0.0011586973249842392,-1,0,-1,-10,602.0468653666665,None,602.0009836999998,602.3271798000001,None,None,None,None,left,1,0.8675418000002537,602.0591076999999,None,None,None,ikieoz,001,0,fr,2022-04-25_15h36.59.495,3-AFC_adaptive_staircase_mess,2022.1.1,None,
,,,,,5,0,5,0,4,0,4,0,,,,,,,,,,,,,,,,up,6000,10,0.00036641226656945183,-1,0,-1,-10,605.4967778666667,None,604.4485547999998,604.7765234999997,605.4500125,605.7803458999997,None,None,up,1,1.6317281999999977,604.5095542999998,None,None,None,ikieoz,001,0,fr,2022-04-25_15h36.59.495,3-AFC_adaptive_staircase_mess,2022.1.1,None,
,,,,,5,0,5,0,5,0,5,0,,,,,,,,,,,,,,,,right,6000,0,0.00011586973249842387,-1,0,-1,-10,609.6969712666667,None,607.6563785999997,607.9800261999999,608.6789725999997,609.0036393999999,609.6803046,610.0215336000001,right,1,2.7800483000000895,607.7150207,None,610.2356442,None,ikieoz,001,0,fr,2022-04-25_15h36.59.495,3-AFC_adaptive_staircase_mess,2022.1.1,None,
,,,,,5,0,5,0,6,0,6,0,,,,,,,,,,,,,,,,left,6000,-10,3.664122665694518e-05,-1,0,-1,-10,612.0688077666666,None,612.0219152999998,612.3598661000001,613.0153750999998,613.3463080000001,614.0179958999997,614.3365633999997,up,0,3.274506400000064,612.0833819999998,None,614.5734039999998,None,ikieoz,001,0,fr,2022-04-25_15h36.59.495,3-AFC_adaptive_staircase_mess,2022.1.1,None,
,,,,,5,0,5,0,7,0,7,0,,,,,,,,,,,,,,,,left,6000,-5,6.515833892261494e-05,1,1,1,5,616.9278224666666,None,616.8822387999999,617.1996361000001,617.8742710000001,618.1948093999999,618.8949173999999,619.2303919999999,right,0,2.9290579999997135,616.9405566,None,619.4328965,None,ikieoz,001,0,fr,2022-04-25_15h36.59.495,3-AFC_adaptive_staircase_mess,2022.1.1,None,
,,,,,5,0,5,0,8,0,8,0,,,,,,,,,,,,,,,,up,6000,0,0.00011586973249842387,1,1,1,5,622.4189380666664,None,621.3874098000001,621.7169359999998,622.4022713999998,622.7341320999999,623.4049973000001,623.7288810999999,up,1,3.7857688999997663,621.4447774,None,623.9566458999998,None,ikieoz,001,0,fr,2022-04-25_15h36.59.495,3-AFC_adaptive_staircase_mess,2022.1.1,None,
,,,,,5,0,5,0,9,0,9,0,,,,,,,,,,,,,,,,left,6000,-10,3.664122665694518e-05,-1,2,-1,-10,626.8050838666666,None,626.7593026999998,627.0818154999997,627.7497506,628.0722554999998,628.7647274000001,629.0863541999997,right,0,2.9881522999999106,626.8168673,None,629.3219159999999,None,ikieoz,001,0,fr,2022-04-25_15h36.59.495,3-AFC_adaptive_staircase_mess,2022.1.1,None,
,,,,,5,0,5,0,10,0,10,0,,,,,,,,,,,,,,,,right,6000,-5,6.515833892261494e-05,1,3,1,2.5,633.3630969666667,None,631.3401601,631.6624369000001,632.3271006,632.6454332999997,633.3464303000001,633.6775767999998,right,1,2.644393599999603,631.401206,None,633.8811734999999,None,ikieoz,001,0,fr,2022-04-25_15h36.59.495,3-AFC_adaptive_staircase_mess,2022.1.1,None,
,,,,,5,0,5,0,11,0,11,0,,,,,,,,,,,,,,,,left,6000,-10.0,3.664122665694518e-05,-1,4,-1,-5.0,635.6259847666668,None,635.5794618,635.9157910999998,636.5887318,636.9179617999998,637.5856764,637.9110800999997,up,0,3.511338700000124,635.6383547,None,638.1464735999998,None,ikieoz,001,0,fr,2022-04-25_15h36.59.495,3-AFC_adaptive_staircase_mess,2022.1.1,None,
,,,,,5,0,5,0,12,0,12,0,,,,,,,,,,,,,,,,up,6000,-7.5,4.886186104779051e-05,1,5,1,2.5,641.6796731666666,None,640.6418669,640.9714368999998,641.6630064999999,641.9898198000001,642.6514928000001,642.983111,right,0,2.4632824000000255,640.7042154999999,None,643.2019791666664,None,ikieoz,001,0,fr,2022-04-25_15h36.59.495,3-AFC_adaptive_staircase_mess,2022.1.1,None,
,,,,,5,0,5,0,13,0,13,0,,,,,,,,,,,,,,,,up,6000,-5.0,6.515833892261494e-05,1,5,1,2.5,645.7398019666664,None,644.6988431,645.0121197999997,645.6931835999999,646.0223335000001,646.7143145,647.0284001,right,0,2.3776324000000386,644.7556217000001,None,None,None,ikieoz,001,0,fr,2022-04-25_15h36.59.495,3-AFC_adaptive_staircase_mess,2022.1.1,None,
,,,,,5,0,5,0,14,0,14,0,,,,,,,,,,,,,,,,left,6000,-2.5,8.689004143746872e-05,1,5,1,2.5,648.6993425666667,None,648.6547003999999,648.9913401999997,649.6498891000001,649.9704877999998,650.6577211999997,650.9690274999998,right,0,2.8863264000001436,648.7114831999997,None,651.2089163999999,None,ikieoz,001,0,fr,2022-04-25_15h36.59.495,3-AFC_adaptive_staircase_mess,2022.1.1,None,
,,,,,5,0,5,0,15,0,15,0,,,,,,,,,,,,,,,,right,6000,0.0,0.00011586973249842387,1,5,1,2.5,655.1193536666667,None,653.071848,653.4025972,654.0887585,654.4121646999997,655.1026870000001,655.4283111999998,right,1,2.823855200000253,653.1417114000001,None,655.6305631999999,None,ikieoz,001,0,fr,2022-04-25_15h36.59.495,3-AFC_adaptive_staircase_mess,2022.1.1,None,
,,,,,5,0,5,0,16,0,16,0,,,,,,,,,,,,,,,,up,6000,-5.0,6.515833892261494e-05,-1,6,-1,-5.0,658.5062792666665,None,657.4810352999998,657.8002262,658.4610981000001,658.7919376999998,659.4506379999998,659.7747108999997,right,0,3.061334999999872,657.5132567,None,660.0028137999998,None,ikieoz,001,0,fr,2022-04-25_15h36.59.495,3-AFC_adaptive_staircase_mess,2022.1.1,None,
,,,,,5,0,5,0,17,0,17,0,,,,,,,,,,,,,,,,up,6000,-2.5,8.689004143746872e-05,1,7,1,2.5,663.1201388666666,None,662.0688495999998,662.3869624999998,663.0744647000001,663.4011298999999,664.0865933,664.4054803999998,right,0,3.0336075000000164,662.1162025999997,None,664.6097544999998,None,ikieoz,001,0,fr,2022-04-25_15h36.59.495,3-AFC_adaptive_staircase_mess,2022.1.1,None,
,,,,,5,0,5,0,18,0,18,0,,,,,,,,,,,,,,,,left,6000,0.0,0.00011586973249842387,1,7,1,2.5,666.6997697666663,None,666.6515488,666.9833656000001,667.6554514999998,667.9910129,668.6435894000001,668.9939899999999,up,0,3.6535116000000016,666.7120451000001,None,669.2252521999999,None,ikieoz,001,0,fr,2022-04-25_15h36.59.495,3-AFC_adaptive_staircase_mess,2022.1.1,None,
,,,,,5,0,5,0,19,0,19,0,,,,,,,,,,,,,,,,right,6000,2.5,0.00015451477162567947,1,7,1,2.5,673.9403978666667,None,671.8825787000001,672.1890300999999,672.8892351,673.2081006999997,673.8923285000001,674.2134894000001,right,1,2.6822025999999823,671.9395439,None,674.4391356000001,None,ikieoz,001,0,fr,2022-04-25_15h36.59.495,3-AFC_adaptive_staircase_mess,2022.1.1,None,
,,,,,5,0,5,0,20,0,20,0,,,,,,,,,,,,,,,,left,6000,-2.5,8.689004143746872e-05,-1,8,-1,-5.0,676.1515519666666,None,676.0925662,676.4224546,677.0904209999999,677.4201951,678.1114109,678.4324787999999,right,0,2.7153972999999496,676.1623479999998,None,678.6630405000001,None,ikieoz,001,0,fr,2022-04-25_15h36.59.495,3-AFC_adaptive_staircase_mess,2022.1.1,None,
,,,,,6,0,6,0,0,0,0,0,,,,,,,,,,,,,[],[],5,right,8000,50,0.05740768107484415,0,0,-1,5,682.4091567666667,None,680.3636980000001,680.6674497999998,681.3649614000001,681.6828786000001,682.3642003999998,682.6883402999997,right,1,2.4274760999996943,680.4182636,None,None,None,ikieoz,001,0,fr,2022-04-25_15h36.59.495,3-AFC_adaptive_staircase_mess,2022.1.1,None,
,,,,,6,0,6,0,1,0,1,0,,,,,,,,,,,,,,,,up,8000,40,0.018153902738505076,-1,0,-1,-10,685.4105334666667,None,684.3693592,684.6855753,685.3647066999997,685.6888233,None,None,up,1,1.7112993000000642,684.3977841999999,None,None,None,ikieoz,001,0,fr,2022-04-25_15h36.59.495,3-AFC_adaptive_staircase_mess,2022.1.1,None,
,,,,,6,0,6,0,2,0,2,0,,,,,,,,,,,,,,,,left,8000,30,0.005740768107484416,-1,0,-1,-10,687.6352821666667,None,687.6186155,687.9415076,None,None,None,None,left,1,0.6957244000000173,687.6384426,None,None,None,ikieoz,001,0,fr,2022-04-25_15h36.59.495,3-AFC_adaptive_staircase_mess,2022.1.1,None,
,,,,,6,0,6,0,3,0,3,0,,,,,,,,,,,,,,,,right,8000,20,0.0018153902738505074,-1,0,-1,-10,691.8791517666666,692.106468,689.841676,690.1618766000001,690.8425535000001,691.1852497,691.8624851,692.1894425,right,1,2.593464899999617,689.8995086999998,None,692.3779510999998,None,ikieoz,001,0,fr,2022-04-25_15h36.59.495,3-AFC_adaptive_staircase_mess,2022.1.1,None,
,,,,,6,0,6,0,4,0,4,0,,,,,,,,,,,,,,,,right,8000,10,0.0005740768107484417,-1,0,-1,-10,696.0412438666665,None,694.0245047999997,694.3390678999999,695.0129296,695.3427483,696.0245771999998,696.3427504000001,right,1,2.4574588999994376,694.0523297,None,None,None,ikieoz,001,0,fr,2022-04-25_15h36.59.495,3-AFC_adaptive_staircase_mess,2022.1.1,None,
,,,,,6,0,6,0,5,0,5,0,,,,,,,,,,,,,,,,right,8000,0,0.0001815390273850507,-1,0,-1,-10,700.0561957666666,None,698.0087634000001,698.31648,699.0306488000001,699.3527884,700.0102773999997,700.3363927,right,1,2.955331600000136,698.0658287000001,None,700.5551261999999,None,ikieoz,001,0,fr,2022-04-25_15h36.59.495,3-AFC_adaptive_staircase_mess,2022.1.1,None,
,,,,,6,0,6,0,6,0,6,0,,,,,,,,,,,,,,,,up,8000,-10,5.740768107484415e-05,-1,0,-1,-10,703.6067271666664,None,702.5883924,702.9093874,703.5590244999999,703.8812694999997,704.5673984,704.8852151000001,right,0,2.708028299999569,702.6171678000001,None,705.1085803999999,None,ikieoz,001,0,fr,2022-04-25_15h36.59.495,3-AFC_adaptive_staircase_mess,2022.1.1,None,
,,,,,6,0,6,0,7,0,7,0,,,,,,,,,,,,,,,,right,8000,-5,0.00010208689723347648,1,1,1,5,708.8794324666667,None,706.8437257999999,707.1626434,707.8373603999999,708.1521870000001,708.8627658,709.1898477,right,1,2.9130090999997265,706.8926106999998,None,709.4147927999998,None,ikieoz,001,0,fr,2022-04-25_15h36.59.495,3-AFC_adaptive_staircase_mess,2022.1.1,None,
,,,,,6,0,6,0,8,0,8,0,,,,,,,,,,,,,,,,left,8000,-15,3.228271145173278e-05,-1,2,-1,-10,711.3664606666664,None,711.3212235999999,711.6480351,712.3327688999998,712.6534732999999,713.3329426999999,713.6493105,right,0,2.8749511999999413,711.3782112999997,None,713.8671998,None,ikieoz,001,0,fr,2022-04-25_15h36.59.495,3-AFC_adaptive_staircase_mess,2022.1.1,None,
,,,,,6,0,6,0,9,0,9,0,,,,,,,,,,,,,,,,left,8000,-10,5.740768107484415e-05,1,3,1,2.5,715.8180476666664,None,715.7823723000001,716.0981708999998,716.7847201999998,717.0999745999998,717.7844267,718.1059614000001,right,0,2.8098924000000807,715.8438590999999,None,718.3397402999999,None,ikieoz,001,0,fr,2022-04-25_15h36.59.495,3-AFC_adaptive_staircase_mess,2022.1.1,None,
,,,,,6,0,6,0,10,0,10,0,,,,,,,,,,,,,,,,right,8000,-7.5,7.655437308410152e-05,1,3,1,2.5,722.1721498666664,None,720.1352176999999,720.4519741999998,721.1303749999997,721.4466969999999,722.1268913999997,722.4584731,right,1,2.957717700000103,720.1922303000001,None,722.6808823000001,None,ikieoz,001,0,fr,2022-04-25_15h36.59.495,3-AFC_adaptive_staircase_mess,2022.1.1,None,
,,,,,6,0,6,0,11,0,11,0,,,,,,,,,,,,,,,,up,8000,-12.5,4.304968760923004e-05,-1,4,-1,-5.0,725.6948603666667,None,724.6579564999997,724.9789437,725.6781937000001,725.9971714999997,726.6827334999998,727.0009196999999,right,0,2.798265099999753,724.7189251999998,None,727.2236969,None,ikieoz,001,0,fr,2022-04-25_15h36.59.495,3-AFC_adaptive_staircase_mess,2022.1.1,None,
,,,,,6,0,6,0,12,0,12,0,,,,,,,,,,,,,,,,up,8000,-10.0,5.740768107484415e-05,1,5,1,2.5,730.0674881666666,730.288595,729.0162040999999,729.3422999,730.0198230999999,730.3415559,731.0159665000001,731.3368981999997,right,0,2.961215700000139,729.0853207999999,None,731.5687610999998,None,ikieoz,001,0,fr,2022-04-25_15h36.59.495,3-AFC_adaptive_staircase_mess,2022.1.1,None,
,,,,,6,0,6,0,13,0,13,0,,,,,,,,,,,,,,,,right,8000,-7.5,7.655437308410152e-05,1,5,1,2.5,735.6068699666664,None,733.5557657999998,733.8733668999998,734.5608027999997,734.8732203,735.5621501999999,735.8806393,right,1,2.5282940999995844,733.6129313000001,None,736.1093765999999,None,ikieoz,001,0,fr,2022-04-25_15h36.59.495,3-AFC_adaptive_staircase_mess,2022.1.1,None,
,,,,,6,0,6,0,14,0,14,0,,,,,,,,,,,,,,,,up,8000,-12.5,4.304968760923004e-05,-1,6,-1,-5.0,738.6858799666668,None,737.6584318999999,737.9891941999999,738.6692133000001,738.9845501999998,739.6590307000001,739.9896537999998,right,0,3.2621564999999464,737.7278219,None,740.2201405000001,None,ikieoz,001,0,fr,2022-04-25_15h36.59.495,3-AFC_adaptive_staircase_mess,2022.1.1,None,
,,,,,6,0,6,0,15,0,15,0,,,,,,,,,,,,,,,,up,8000,-10.0,5.740768107484415e-05,1,7,1,2.5,743.5502821666666,None,742.5294221999998,742.8455199999999,743.5336155,743.8461339999999,744.5333093999998,744.8544094999997,right,0,3.695640800000092,742.5579880999999,None,745.0799800999998,None,ikieoz,001,0,fr,2022-04-25_15h36.59.495,3-AFC_adaptive_staircase_mess,2022.1.1,None,
,,,,,6,0,6,0,16,0,16,0,,,,,,,,,,,,,,,,up,8000,-7.5,7.655437308410152e-05,1,7,1,2.5,748.8117288666665,None,747.7596043999997,748.0672691,748.7683038,749.0893415999999,749.7780057,750.0955716999997,right,0,4.374109800000042,747.815584,None,750.3250591999999,None,ikieoz,001,0,fr,2022-04-25_15h36.59.495,3-AFC_adaptive_staircase_mess,2022.1.1,None,
,,,,,6,0,6,0,17,0,17,0,,,,,,,,,,,,,,,,right,8000,-5.0,0.00010208689723347648,1,7,1,2.5,755.7670329666664,None,753.6983323,754.0188635999998,754.7085711,755.0388582,755.709597,756.0298954999998,right,1,2.930931800000053,753.7545587,None,756.2746695999999,None,ikieoz,001,0,fr,2022-04-25_15h36.59.495,3-AFC_adaptive_staircase_mess,2022.1.1,None,
,,,,,6,0,6,0,18,0,18,0,,,,,,,,,,,,,,,,up,8000,-10.0,5.740768107484415e-05,-1,8,-1,-5.0,759.2376655666665,759.4609144000001,758.1638069999999,758.4803625,759.1790614000001,759.5153574999999,760.1734733999997,760.4878206999997,right,0,3.106232199999795,758.2194940999998,None,760.7175646999999,None,ikieoz,001,0,fr,2022-04-25_15h36.59.495,3-AFC_adaptive_staircase_mess,2022.1.1,None,
,,,,,7,0,7,0,0,0,0,0,,,,,,,,,,,,,[],[],5,right,750,50,0.012851978913844325,0,0,-1,5,764.8710918666663,None,762.8304970999998,763.1448962,763.8251818999997,764.1400534999998,764.8269471999997,765.1723858,right,1,2.7082015000000865,762.8572331,None,765.3886831999998,None,ikieoz,001,0,fr,2022-04-25_15h36.59.495,3-AFC_adaptive_staircase_mess,2022.1.1,None,
,,,,,7,0,7,0,1,0,1,0,,,,,,,,,,,,,,,,right,750,40,0.004064152580820497,-1,0,-1,-10,769.1141794666667,None,767.0544451000001,767.3813264999999,768.0634169999998,768.3824187999999,769.0686728999999,769.3920475999998,right,1,2.474305899999763,767.1229026000001,None,769.6181640999998,None,ikieoz,001,0,fr,2022-04-25_15h36.59.495,3-AFC_adaptive_staircase_mess,2022.1.1,None,
,,,,,7,0,7,0,2,0,2,0,,,,,,,,,,,,,,,,up,750,30,0.0012851978913844323,-1,0,-1,-10,772.1561053666667,772.3839456000001,771.1391206999997,771.4522447999998,772.1394387,772.4735876,None,None,up,1,1.8050551999999698,771.1687198,None,None,None,ikieoz,001,0,fr,2022-04-25_15h36.59.495,3-AFC_adaptive_staircase_mess,2022.1.1,None,
,,,,,7,0,7,0,3,0,3,0,,,,,,,,,,,,,,,,right,750,20,0.00040641525808204974,-1,0,-1,-10,776.5167864666666,776.7394948000001,774.4765385000001,774.8004657000001,775.4979278000001,775.8145750999997,776.5001198,776.8239270999998,right,1,2.617349000000104,774.5645644000001,None,777.0525715999997,None,ikieoz,001,0,fr,2022-04-25_15h36.59.495,3-AFC_adaptive_staircase_mess,2022.1.1,None,
,,,,,7,0,7,0,4,0,4,0,,,,,,,,,,,,,,,,up,750,10,0.00012851978913844324,-1,0,-1,-10,779.6990561666664,None,778.6580183000001,778.9654983,779.6823894999998,780.0163050000001,780.6701183,780.9842602999997,right,0,4.578398300000117,778.7148345,None,781.2178997000001,None,ikieoz,001,0,fr,2022-04-25_15h36.59.495,3-AFC_adaptive_staircase_mess,2022.1.1,None,
,,,,,7,0,7,0,5,0,5,0,,,,,,,,,,,,,,,,left,750,15,0.0002285440948074376,1,1,1,5,784.8245387666664,785.0450729999998,784.7787051,785.0972237000001,785.7761212999999,786.0924350999999,786.7829741,787.0984757000001,left,1,2.249244699999963,784.8365273,None,None,None,ikieoz,001,0,fr,2022-04-25_15h36.59.495,3-AFC_adaptive_staircase_mess,2022.1.1,None,
,,,,,7,0,7,0,6,0,6,0,,,,,,,,,,,,,,,,left,750,5,7.22719885372964e-05,-1,2,-1,-10,788.6198174666667,None,788.5738559000001,788.8968599999998,789.5797870000001,789.8960177999998,790.5806545,790.8981893,right,0,2.999772799999846,788.6304498,None,791.1295163999998,None,ikieoz,001,0,fr,2022-04-25_15h36.59.495,3-AFC_adaptive_staircase_mess,2022.1.1,None,
,,,,,7,0,7,0,7,0,7,0,,,,,,,,,,,,,,,,left,750,10,0.00012851978913844324,1,3,1,2.5,793.1499137666667,None,793.1332471000001,793.4638485999999,794.1224102000001,794.4382952000001,795.1248952999999,795.4404617,right,0,5.37898099999984,793.1618530000001,None,795.6669437999999,None,ikieoz,001,0,fr,2022-04-25_15h36.59.495,3-AFC_adaptive_staircase_mess,2022.1.1,None,
,,,,,7,0,7,0,8,0,8,0,,,,,,,,,,,,,,,,up,750,12.5,0.00017138389327322524,1,3,1,2.5,801.1037140666665,801.3259224999997,800.0517595000001,800.3709094999999,801.0592148000001,801.3794993000001,802.0639397,None,up,1,2.0805786999999327,800.1086033000001,None,None,None,ikieoz,001,0,fr,2022-04-25_15h36.59.495,3-AFC_adaptive_staircase_mess,2022.1.1,None,
,,,,,7,0,7,0,9,0,9,0,,,,,,,,,,,,,,,,left,750,7.5,9.637624565954684e-05,-1,4,-1,-5.0,803.7282217666664,None,803.6830672000001,804.0086900000001,804.7042305,805.0202458999997,805.7044209999999,806.0213279,right,0,3.0722759999998743,803.7401866999999,None,806.2488355,None,ikieoz,001,0,fr,2022-04-25_15h36.59.495,3-AFC_adaptive_staircase_mess,2022.1.1,None,
,,,,,7,0,7,0,10,0,10,0,,,,,,,,,,,,,,,,up,750,10.0,0.00012851978913844324,1,5,1,2.5,809.3746303666665,None,808.3256986000001,808.6436657999998,809.3288469999998,809.6559044,810.3350618,810.6493706000001,right,0,5.343672599999991,808.3827698,None,810.8816717,None,ikieoz,001,0,fr,2022-04-25_15h36.59.495,3-AFC_adaptive_staircase_mess,2022.1.1,None,
,,,,,7,0,7,0,11,0,11,0,,,,,,,,,,,,,,,,right,750,12.5,0.00017138389327322524,1,5,1,2.5,817.2869609666666,None,815.2274588999999,815.5509511999999,816.2353745,816.5536456999998,817.2423746,817.5648670999999,right,1,2.6964904000001297,815.2856099,None,817.7927037,None,ikieoz,001,0,fr,2022-04-25_15h36.59.495,3-AFC_adaptive_staircase_mess,2022.1.1,None,
,,,,,7,0,7,0,12,0,12,0,,,,,,,,,,,,,,,,left,750,7.5,9.637624565954684e-05,-1,6,-1,-5.0,819.5289928666664,None,819.4844840000001,819.8110357,820.4932527000001,820.8118405,821.4912647000001,821.8105273000001,right,0,2.9666347999996106,819.5433579999999,None,822.0441022,None,ikieoz,001,0,fr,2022-04-25_15h36.59.495,3-AFC_adaptive_staircase_mess,2022.1.1,None,
,,,,,7,0,7,0,13,0,13,0,,,,,,,,,,,,,,,,left,750,10.0,0.00012851978913844324,1,7,1,2.5,824.0396117666667,824.2607147999997,823.9937105999998,824.3163648,825.0010784000001,825.3186707999998,825.9993676999998,826.3297011,right,0,4.747095000000172,824.0504120999999,None,826.5581364999998,None,ikieoz,001,0,fr,2022-04-25_15h36.59.495,3-AFC_adaptive_staircase_mess,2022.1.1,None,
,,,,,7,0,7,0,14,0,14,0,,,,,,,,,,,,,,,,up,750,12.5,0.00017138389327322524,1,7,1,2.5,831.3387138666665,831.56108,830.3138454,830.6359133000001,831.2907095999999,831.6143681999997,832.2993040000001,832.6163511,up,1,2.726835999999821,830.3422540000001,None,832.8441447999999,None,ikieoz,001,0,fr,2022-04-25_15h36.59.495,3-AFC_adaptive_staircase_mess,2022.1.1,None,
,,,,,7,0,7,0,15,0,15,0,,,,,,,,,,,,,,,,left,750,7.5,9.637624565954684e-05,-1,8,-1,-5.0,834.6015274666668,None,834.5848608000001,834.9111745999999,835.5661686999997,835.8870171999997,836.5760215,836.8958401999998,right,0,2.457375599999523,834.6121770999998,None,837.1139486666664,None,ikieoz,001,0,fr,2022-04-25_15h36.59.495,3-AFC_adaptive_staircase_mess,2022.1.1,None,
,,,,,8,0,8,0,0,0,0,0,,,,,,,,,,,,,[],[],5,up,500,50,0.02259279721874612,0,0,-1,5,839.6452055666666,None,838.6225248999999,838.9346829000001,839.5976077999999,839.9126001999998,None,None,up,1,1.827849299999798,838.6505090999999,None,None,None,ikieoz,001,0,fr,2022-04-25_15h36.59.495,3-AFC_adaptive_staircase_mess,2022.1.1,None,
,,,,,8,0,8,0,1,0,1,0,,,,,,,,,,,,,,,,up,500,40,0.007144469792555516,-1,0,-1,-10,843.0306954666664,None,841.9835391000001,842.3130016999999,842.9815933,843.3210014000001,None,None,up,1,1.4984700999998495,842.0503158000001,None,None,None,ikieoz,001,0,fr,2022-04-25_15h36.59.495,3-AFC_adaptive_staircase_mess,2022.1.1,None,
,,,,,8,0,8,0,2,0,2,0,,,,,,,,,,,,,,,,left,500,30,0.002259279721874612,-1,0,-1,-10,845.1058203666664,None,845.0562248000001,845.4006790999997,None,None,None,None,left,1,0.8263293999998496,845.1231152999999,None,None,None,ikieoz,001,0,fr,2022-04-25_15h36.59.495,3-AFC_adaptive_staircase_mess,2022.1.1,None,
,,,,,8,0,8,0,3,0,3,0,,,,,,,,,,,,,,,,right,500,20,0.0007144469792555515,-1,0,-1,-10,849.5034100666664,None,847.496975,847.8262298999998,848.4932275000001,848.8235866,849.4867433999998,849.8240652,right,1,2.640335199999754,847.5332819,None,850.0347618999999,None,ikieoz,001,0,fr,2022-04-25_15h36.59.495,3-AFC_adaptive_staircase_mess,2022.1.1,None,
,,,,,8,0,8,0,4,0,4,0,,,,,,,,,,,,,,,,left,500,10,0.0002259279721874612,-1,0,-1,-10,851.7388013666666,851.9681685999999,851.6904494999999,852.0273515999997,852.6995717,853.0241651000001,853.6956372999998,854.0082973999997,right,0,3.9742940000001,851.7512253999998,None,854.2502623999999,None,ikieoz,001,0,fr,2022-04-25_15h36.59.495,3-AFC_adaptive_staircase_mess,2022.1.1,None,
,,,,,8,0,8,0,5,0,5,0,,,,,,,,,,,,,,,,right,500,15,0.0004017630610928086,1,1,1,5,859.2552098666667,None,857.219392,857.5584764999999,858.2211069999998,858.5677557999998,859.2385432000001,859.5701706999998,right,1,2.9312896000001274,857.2750916999998,None,859.7785739000001,None,ikieoz,001,0,fr,2022-04-25_15h36.59.495,3-AFC_adaptive_staircase_mess,2022.1.1,None,
,,,,,8,0,8,0,6,0,6,0,,,,,,,,,,,,,,,,right,500,5,0.00012704863527746526,-1,2,-1,-10,863.7294240666668,None,861.7001482999999,862.0181674,862.7169539000001,863.0458633999997,863.7127574000001,864.0459311999998,right,1,2.7196404999999686,861.7584926999998,None,864.2484415999998,None,ikieoz,001,0,fr,2022-04-25_15h36.59.495,3-AFC_adaptive_staircase_mess,2022.1.1,None,
,,,,,8,0,8,0,7,0,7,0,,,,,,,,,,,,,,,,up,500,-5,4.017630610928089e-05,-1,2,-1,-10,867.0182419666664,867.2373496,865.9801121,866.3059503,866.9719640999997,867.2949413000001,867.9833393999997,868.3077552999998,right,0,3.158913599999778,866.039323,None,868.5415058999997,None,ikieoz,001,0,fr,2022-04-25_15h36.59.495,3-AFC_adaptive_staircase_mess,2022.1.1,None,
,,,,,8,0,8,0,8,0,8,0,,,,,,,,,,,,,,,,right,500,0,7.144469792555515e-05,1,3,1,2.5,872.7585941666664,872.9879664999999,870.7148155999998,871.0394771000001,871.7023331,872.0228953000001,872.7121029999998,873.0498622999999,right,1,4.022445999999945,870.7434519999997,None,873.2592362999999,None,ikieoz,001,0,fr,2022-04-25_15h36.59.495,3-AFC_adaptive_staircase_mess,2022.1.1,None,
,,,,,8,0,8,0,9,0,9,0,,,,,,,,,,,,,,,,up,500,-5.0,4.017630610928089e-05,-1,4,-1,-5.0,877.3316961666667,None,876.287484,876.6113393999999,877.2829379999998,877.6195926999999,878.2905314999998,878.6170388,right,0,4.435320799999772,876.3458943,None,878.8489443999997,None,ikieoz,001,0,fr,2022-04-25_15h36.59.495,3-AFC_adaptive_staircase_mess,2022.1.1,None,
,,,,,8,0,8,0,10,0,10,0,,,,,,,,,,,,,,,,up,500,-2.5,5.357596526188033e-05,1,5,1,2.5,883.3410199666666,None,882.3018283000001,882.6273243999999,883.2935406000001,883.6301196,884.2947441000001,884.6244468,right,0,3.782154300000002,882.3588354999997,None,884.8617685999998,None,ikieoz,001,0,fr,2022-04-25_15h36.59.495,3-AFC_adaptive_staircase_mess,2022.1.1,None,
,,,,,8,0,8,0,11,0,11,0,,,,,,,,,,,,,,,,left,500,0.0,7.144469792555515e-05,1,5,1,2.5,887.6914277666667,None,887.6464824,887.9776446999999,888.6430718000001,888.9732488999998,889.6464396000001,889.9660954000001,right,0,3.1412953999997626,887.7046083,None,890.1994485,None,ikieoz,001,0,fr,2022-04-25_15h36.59.495,3-AFC_adaptive_staircase_mess,2022.1.1,None,
,,,,,8,0,8,0,12,0,12,0,,,,,,,,,,,,,,,,up,500,2.5,9.527303589816237e-05,1,5,1,2.5,893.3795315666664,None,892.3413826000001,892.6639870999998,893.3628648999997,893.7015683999998,894.3507639999998,894.6693901999997,right,0,3.853783900000053,892.3998045999997,None,894.9096933000001,None,ikieoz,001,0,fr,2022-04-25_15h36.59.495,3-AFC_adaptive_staircase_mess,2022.1.1,None,
,,,,,8,0,8,0,13,0,13,0,,,,,,,,,,,,,,,,up,500,5.0,0.00012704863527746526,1,5,1,2.5,898.8333494666665,None,897.7745838000001,898.1040269999999,898.7878697000001,899.1128549999999,899.7784904,900.1094334999998,right,0,3.806494500000099,897.8393513000001,None,900.3436843999998,None,ikieoz,001,0,fr,2022-04-25_15h36.59.495,3-AFC_adaptive_staircase_mess,2022.1.1,None,
,,,,,8,0,8,0,14,0,14,0,,,,,,,,,,,,,,,,right,500,7.5,0.00016942207806960129,1,5,1,2.5,905.2063103666667,None,903.1580254,903.4866025000001,904.1618674000001,904.4809234999998,905.1598288999999,905.4895258000001,right,1,2.894071300000178,903.2147798000001,None,905.7212949,None,ikieoz,001,0,fr,2022-04-25_15h36.59.495,3-AFC_adaptive_staircase_mess,2022.1.1,None,
,,,,,8,0,8,0,15,0,15,0,,,,,,,,,,,,,,,,right,500,2.5,9.527303589816237e-05,-1,6,-1,-5.0,909.6372478666665,None,907.6103181999997,907.9396806,908.6159681999998,908.9434078999998,909.6205811999998,909.9500457999998,right,1,3.206088699999782,907.6711224999999,None,910.1570496999998,None,ikieoz,001,0,fr,2022-04-25_15h36.59.495,3-AFC_adaptive_staircase_mess,2022.1.1,None,
,,,,,8,0,8,0,16,0,16,0,,,,,,,,,,,,,,,,left,500,-2.5,5.357596526188033e-05,-1,6,-1,-5.0,912.4083685666667,None,912.3640302999997,912.6976126,913.3768867999997,913.6990185999998,914.3657204000001,914.6937247999999,right,0,3.4793233999998847,912.4229117999998,None,914.9286035999999,None,ikieoz,001,0,fr,2022-04-25_15h36.59.495,3-AFC_adaptive_staircase_mess,2022.1.1,None,
,,,,,8,0,8,0,17,0,17,0,,,,,,,,,,,,,,,,right,500,0.0,7.144469792555515e-05,1,7,1,2.5,919.4626397666664,None,917.4220295,917.7496342999998,918.4175617999999,918.7413424000001,919.4166213999997,919.7408571999999,right,1,2.8541213999997126,917.4785572999999,None,919.9740523999999,None,ikieoz,001,0,fr,2022-04-25_15h36.59.495,3-AFC_adaptive_staircase_mess,2022.1.1,None,
,,,,,8,0,8,0,18,0,18,0,,,,,,,,,,,,,,,,left,500,-5.0,4.017630610928089e-05,-1,8,-1,-5.0,921.8934631666664,None,921.8510074999999,922.1787919999997,922.8519332999999,923.1717109000001,923.8543909,924.1760151999997,right,0,6.3473040999997465,921.9058993999997,None,924.4079982999997,None,ikieoz,001,0,fr,2022-04-25_15h36.59.495,3-AFC_adaptive_staircase_mess,2022.1.1,None,
,,,,,9,0,9,0,0,0,0,0,,,,,,,,,,,,,[],[],5,up,250,50,0.05296268625886444,0,0,-1,5,930.8081700666664,None,929.7751979,930.1023723999997,930.7665139000001,931.0899074999998,None,None,up,1,1.7770642000000407,929.8362137999998,None,None,None,ikieoz,001,0,fr,2022-04-25_15h36.59.495,3-AFC_adaptive_staircase_mess,2022.1.1,None,
,,,,,9,0,9,0,1,0,1,0,,,,,,,,,,,,,,,,up,250,40,0.016748271957891383,-1,0,-1,-10,934.1857724666668,None,933.1438585000001,933.4736456999999,934.1404460999997,934.4756199999997,None,None,up,1,1.5595237999996243,933.1740245999999,None,None,None,ikieoz,001,0,fr,2022-04-25_15h36.59.495,3-AFC_adaptive_staircase_mess,2022.1.1,None,
,,,,,9,0,9,0,2,0,2,0,,,,,,,,,,,,,,,,right,250,30,0.005296268625886445,-1,0,-1,-10,938.2920618666665,None,936.2561978999997,936.584347,937.2499972,937.5732816,938.2456803,938.5816921999999,right,1,2.681037500000002,936.3250306,None,938.7962331999997,None,ikieoz,001,0,fr,2022-04-25_15h36.59.495,3-AFC_adaptive_staircase_mess,2022.1.1,None,
,,,,,9,0,9,0,3,0,3,0,,,,,,,,,,,,,,,,right,250,20,0.0016748271957891384,-1,0,-1,-10,942.5668609666666,None,940.5269549999998,940.8511005999999,941.5268854000001,941.8567386,942.5201727999997,942.8527356,right,1,2.644650499999898,940.5841661999998,None,943.0850230000001,None,ikieoz,001,0,fr,2022-04-25_15h36.59.495,3-AFC_adaptive_staircase_mess,2022.1.1,None,
,,,,,9,0,9,0,4,0,4,0,,,,,,,,,,,,,,,,left,250,10,0.0005296268625886444,-1,0,-1,-10,944.7795842666667,None,944.7342399999998,945.0664186999998,945.7366044999999,946.0585791999997,946.7485462999998,947.0753059999997,right,0,2.885111899999629,944.792438,None,947.3042015000001,None,ikieoz,001,0,fr,2022-04-25_15h36.59.495,3-AFC_adaptive_staircase_mess,2022.1.1,None,
,,,,,9,0,9,0,5,0,5,0,,,,,,,,,,,,,,,,up,250,15,0.0009418245447449003,1,1,1,5,950.2255399666667,None,949.1719091,949.5101285999999,950.1701899,950.5077056999999,951.1747344999999,None,up,1,1.9532863999997971,949.2282842999998,None,None,None,ikieoz,001,0,fr,2022-04-25_15h36.59.495,3-AFC_adaptive_staircase_mess,2022.1.1,None,
,,,,,9,0,9,0,6,0,6,0,,,,,,,,,,,,,,,,left,250,5,0.0002978310717645052,-1,2,-1,-10,952.7468512666667,None,952.701697,953.032796,953.7015077000001,954.0280991999998,954.7190436000001,955.0465927,up,0,6.917523899999651,952.7595105,None,955.2532277999999,None,ikieoz,001,0,fr,2022-04-25_15h36.59.495,3-AFC_adaptive_staircase_mess,2022.1.1,None,
,,,,,9,0,9,0,7,0,7,0,,,,,,,,,,,,,,,,left,250,10,0.0005296268625886444,1,3,1,2.5,961.2294052666664,None,961.1818521,961.5198568999999,962.1921302999999,962.5198950999998,963.2170121999998,963.5388266,right,0,3.0676892999999836,961.2502049999998,None,963.7433922,None,ikieoz,001,0,fr,2022-04-25_15h36.59.495,3-AFC_adaptive_staircase_mess,2022.1.1,None,
,,,,,9,0,9,0,8,0,8,0,,,,,,,,,,,,,,,,up,250,12.5,0.0007062687723113773,1,3,1,2.5,966.8723160666666,None,965.8182206000001,966.1422035,966.8201893999999,967.1515642999998,967.8091168000001,968.1208355999997,right,0,4.228828299999805,965.8806319999999,None,968.3925079999999,None,ikieoz,001,0,fr,2022-04-25_15h36.59.495,3-AFC_adaptive_staircase_mess,2022.1.1,None,
,,,,,9,0,9,0,9,0,9,0,,,,,,,,,,,,,,,,right,250,15.0,0.0009418245447449003,1,3,1,2.5,973.6853140666665,None,971.6192725000001,971.9389060999997,972.6264102999999,972.9444376000001,973.6263976999999,973.9567999000001,right,1,6.254931899999974,971.6785626999999,None,974.1605544999998,None,ikieoz,001,0,fr,2022-04-25_15h36.59.495,3-AFC_adaptive_staircase_mess,2022.1.1,None,
,,,,,9,0,9,0,10,0,10,0,,,,,,,,,,,,,,,,right,250,10.0,0.0005296268625886444,-1,4,-1,-5.0,981.4645622666665,None,979.431212,979.7515307999997,980.4360219999999,980.7562558999998,981.4190767999999,981.7511528,right,1,2.953872099999444,979.4919452999998,None,981.9896454999998,None,ikieoz,001,0,fr,2022-04-25_15h36.59.495,3-AFC_adaptive_staircase_mess,2022.1.1,None,
,,,,,9,0,9,0,11,0,11,0,,,,,,,,,,,,,,,,left,250,5.0,0.0002978310717645052,-1,4,-1,-5.0,983.9836101666667,None,983.9355442000001,984.2573671,984.9426828999999,985.2578011999999,985.9429716999998,986.2620684999997,right,0,2.916299099999833,983.9925254,None,986.5008465000001,None,ikieoz,001,0,fr,2022-04-25_15h36.59.495,3-AFC_adaptive_staircase_mess,2022.1.1,None,
,,,,,9,0,9,0,12,0,12,0,,,,,,,,,,,,,,,,up,250,7.5,0.0003971641173621407,1,5,1,2.5,989.4582314666666,None,988.4052287,988.7312198,989.4415647999999,989.7661717000001,990.4090095000001,990.7439737,right,0,2.979865499999505,988.4738234000001,None,990.97165,None,ikieoz,001,0,fr,2022-04-25_15h36.59.495,3-AFC_adaptive_staircase_mess,2022.1.1,None,
,,,,,9,0,9,0,13,0,13,0,,,,,,,,,,,,,,,,right,250,10.0,0.0005296268625886444,1,5,1,2.5,995.0288076666664,None,992.9726068999998,993.3152735999997,993.9705653999999,994.3012961999998,994.9804939,995.3028922999997,right,1,3.1613791999998284,993.0275102999999,None,995.5312251999999,None,ikieoz,001,0,fr,2022-04-25_15h36.59.495,3-AFC_adaptive_staircase_mess,2022.1.1,None,
,,,,,9,0,9,0,14,0,14,0,,,,,,,,,,,,,,,,left,250,5.0,0.0002978310717645052,-1,6,-1,-5.0,997.7168717666666,None,997.7002051,998.0326632000001,998.6877903999998,999.0078524,999.70066,1000.0205671999997,right,0,2.364006899999822,997.7300414000001,None,None,None,ikieoz,001,0,fr,2022-04-25_15h36.59.495,3-AFC_adaptive_staircase_mess,2022.1.1,None,
,,,,,9,0,9,0,15,0,15,0,,,,,,,,,,,,,,,,up,250,7.5,0.0003971641173621407,1,7,1,2.5,1002.6310076666666,None,1001.6051413,1001.9552669,1002.5852323999998,1002.9061240000001,1003.6025832999999,1003.9245774000001,right,0,2.3963832999997976,1001.6334625999998,None,None,None,ikieoz,001,0,fr,2022-04-25_15h36.59.495,3-AFC_adaptive_staircase_mess,2022.1.1,None,
,,,,,9,0,9,0,16,0,16,0,,,,,,,,,,,,,,,,right,250,10.0,0.0005296268625886444,1,7,1,2.5,1007.5853268666667,None,1005.5415735000001,1005.8685934,1006.5599339999999,1006.8798882000001,1007.5267411,1007.8576233999997,right,1,2.9353863000001184,1005.6052830999997,None,1008.0847057999999,None,ikieoz,001,0,fr,2022-04-25_15h36.59.495,3-AFC_adaptive_staircase_mess,2022.1.1,None,
,,,,,9,0,9,0,17,0,17,0,,,,,,,,,,,,,,,,left,250,5.0,0.0002978310717645052,-1,8,-1,-5.0,1010.0702354666666,None,1010.0279118999997,1010.3501656999997,1011.0382553999998,1011.3559618999998,1012.0398141000001,1012.3535886,right,0,5.244000099999539,1010.0821256999998,None,1012.5812476000001,None,ikieoz,001,0,fr,2022-04-25_15h36.59.495,3-AFC_adaptive_staircase_mess,2022.1.1,None,
,,,,,10,0,10,0,0,0,0,0,,,,,,,,,,,,,[],[],5,right,125,50,0.2285440948074376,0,0,-1,5,1018.8850062666668,None,1016.835216,1017.1525790000001,1017.8411370999997,1018.1581376999998,1018.8386634999997,1019.1578331000001,right,1,2.672835699999723,1016.8935517,None,1019.3888128999997,None,ikieoz,001,0,fr,2022-04-25_15h36.59.495,3-AFC_adaptive_staircase_mess,2022.1.1,None,
,,,,,10,0,10,0,1,0,1,0,,,,,,,,,,,,,,,,left,125,40,0.07227198853729641,-1,0,-1,-10,1021.1136258666668,None,1021.0676979,1021.3968786999999,None,None,None,None,left,1,0.8404648999999154,1021.1246477999998,None,None,None,ikieoz,001,0,fr,2022-04-25_15h36.59.495,3-AFC_adaptive_staircase_mess,2022.1.1,None,
,,,,,10,0,10,0,2,0,2,0,,,,,,,,,,,,,,,,up,125,30,0.02285440948074376,-1,0,-1,-10,1024.5355830666665,None,1023.4632670000001,1023.7808455999998,1024.4762617000001,1024.8079113999997,None,None,up,1,1.6777202999996916,1023.5200614,None,None,None,ikieoz,001,0,fr,2022-04-25_15h36.59.495,3-AFC_adaptive_staircase_mess,2022.1.1,None,
,,,,,10,0,10,0,3,0,3,0,,,,,,,,,,,,,,,,right,125,20,0.00722719885372964,-1,0,-1,-10,1028.7268575666665,None,1026.6797536999998,1027.0134889,1027.6975453999999,1028.0226425,1028.6825518,1029.0010453999998,right,1,2.6257102999998096,1026.7483541000001,None,1029.231468,None,ikieoz,001,0,fr,2022-04-25_15h36.59.495,3-AFC_adaptive_staircase_mess,2022.1.1,None,
,,,,,10,0,10,0,4,0,4,0,,,,,,,,,,,,,,,,left,125,10,0.002285440948074376,-1,0,-1,-10,1030.9335602666667,None,1030.8978042999997,1031.2188114,1031.9060220000001,1032.2271037,1032.88697,1033.2015827999999,right,0,2.669832999999926,1030.9588447,None,1033.4712756999998,None,ikieoz,001,0,fr,2022-04-25_15h36.59.495,3-AFC_adaptive_staircase_mess,2022.1.1,None,
,,,,,10,0,10,0,5,0,5,0,,,,,,,,,,,,,,,,left,125,15,0.004064152580820497,1,1,1,5,1035.1847778666668,None,1035.1368429,1035.4722438999997,1036.1551359999999,1036.4734125,1037.1320883999997,1037.4495016,right,0,3.3757611000000907,1035.1976194999997,None,1037.7053882,None,ikieoz,001,0,fr,2022-04-25_15h36.59.495,3-AFC_adaptive_staircase_mess,2022.1.1,None,
,,,,,10,0,10,0,6,0,6,0,,,,,,,,,,,,,,,,up,125,20,0.00722719885372964,1,1,1,5,1041.0931264666667,None,1040.0612139,1040.3854407999997,1041.0443814,1041.3827701999999,1042.0647341,None,up,1,1.9743207000001348,1040.1183068999999,None,None,None,ikieoz,001,0,fr,2022-04-25_15h36.59.495,3-AFC_adaptive_staircase_mess,2022.1.1,None,
,,,,,10,0,10,0,7,0,7,0,,,,,,,,,,,,,,,,up,125,10,0.002285440948074376,-1,2,-1,-10,1044.6280906666664,None,1043.5963742,1043.9113984,1044.6114239999997,1044.9465867,1045.6064268,1045.9254034,up,1,2.3459830999995575,1043.6507255000001,None,None,None,ikieoz,001,0,fr,2022-04-25_15h36.59.495,3-AFC_adaptive_staircase_mess,2022.1.1,None,
,,,,,10,0,10,0,8,0,8,0,,,,,,,,,,,,,,,,up,125,0,0.000722719885372964,-1,2,-1,-10,1048.5604973666666,None,1047.5001380999997,1047.8297257999998,1048.5025772,1048.8331042999998,1049.5272566999997,1049.8352922,right,0,4.252158699999654,1047.5694227,None,1050.053622,None,ikieoz,001,0,fr,2022-04-25_15h36.59.495,3-AFC_adaptive_staircase_mess,2022.1.1,None,
,,,,,10,0,10,0,9,0,9,0,,,,,,,,,,,,,,,,right,125,5,0.0012851978913844323,1,3,1,2.5,1055.3952597666664,None,1053.3416788999998,1053.6570277,1054.3430807,1054.663854,1055.3506091,1055.6781619999997,right,1,2.870403599999918,1053.3985985,None,1055.9110388,None,ikieoz,001,0,fr,2022-04-25_15h36.59.495,3-AFC_adaptive_staircase_mess,2022.1.1,None,
,,,,,10,0,10,0,10,0,10,0,,,,,,,,,,,,,,,,left,125,0.0,0.000722719885372964,-1,4,-1,-5.0,1057.7963546666667,None,1057.7519155,1058.0978531,1058.7816837,1059.0996013,1059.7464658,1060.0728074999997,right,0,2.9379313999997976,1057.8108026999998,None,1060.3031366999999,None,ikieoz,001,0,fr,2022-04-25_15h36.59.495,3-AFC_adaptive_staircase_mess,2022.1.1,None,
,,,,,10,0,10,0,11,0,11,0,,,,,,,,,,,,,,,,right,125,2.5,0.0009637624565954683,1,5,1,2.5,1064.2901662666666,None,1062.2412362,1062.5570886,1063.2433059,1063.5502087999998,1064.2444800999997,1064.5753096999997,right,1,3.6676486999999725,1062.2979258999999,None,1064.8011084,None,ikieoz,001,0,fr,2022-04-25_15h36.59.495,3-AFC_adaptive_staircase_mess,2022.1.1,None,
,,,,,10,0,10,0,12,0,12,0,,,,,,,,,,,,,,,,left,125,-2.5,0.000541963457010602,-1,6,-1,-5.0,1067.5260222666664,1067.7474521999998,1067.4807812999998,1067.8033218,1068.4962335999999,1068.8157778,1069.4970008999999,1069.8133555999998,right,0,7.068459999999959,1067.5373731,None,1070.0409959999997,None,ikieoz,001,0,fr,2022-04-25_15h36.59.495,3-AFC_adaptive_staircase_mess,2022.1.1,None,
,,,,,10,0,10,0,13,0,13,0,,,,,,,,,,,,,,,,right,125,0.0,0.000722719885372964,1,7,1,2.5,1078.1714046666664,1078.3998179999999,1076.1119826999998,1076.4346717999997,1077.1196415,1077.4399042,1078.1251303,1078.4546940999999,right,1,3.057690999999977,1076.1710079999998,None,1078.6576893000001,None,ikieoz,001,0,fr,2022-04-25_15h36.59.495,3-AFC_adaptive_staircase_mess,2022.1.1,None,
,,,,,10,0,10,0,14,0,14,0,,,,,,,,,,,,,,,,left,125,-5.0,0.00040641525808204974,-1,8,-1,-5.0,1080.7775017666665,None,1080.7315786999998,1081.0589383000001,1081.7553638,1082.0756521999997,1082.7300876,1083.0482618,right,0,2.9689987999995537,1080.7884301,None,1083.3067846,None,ikieoz,001,0,fr,2022-04-25_15h36.59.495,3-AFC_adaptive_staircase_mess,2022.1.1,None,
