frequencies,training_trials.thisRepN,training_trials.thisTrialN,training_trials.thisN,training_trials.thisIndex,frequencies.thisRepN,frequencies.thisTrialN,frequencies.thisN,frequencies.thisIndex,trials.thisRepN,trials.thisTrialN,trials.thisN,trials.thisIndex,tFrequency,tLevel,tCorrect,Tprobe.started,Tprobe.stopped,tTriangle_cue.started,tTriangle_cue.stopped,Tfeedback.keys,Tfeedback.corr,Tfeedback.rt,Tfeedback.started,Tfeedback.stopped,reversals_nTrials.routineEndVal,track_dir.routineEndVal,step_up.routineEndVal,Correct,Frequency,Level,Psychopy_Level,Direction,Reversals,Track_dir,Step,probe.started,probe.stopped,cross_cue.started,cross_cue.stopped,circle_cue.started,circle_cue.stopped,triangle_cue.started,triangle_cue.stopped,feedback.keys,feedback.corr,feedback.rt,feedback.started,feedback.stopped,memo.started,memo.stopped,key_resp.keys,key_resp.rt,key_resp.started,key_resp.stopped,text.started,text.stopped,participant,session,skip_training,language (english or french),date,expName,psychopyVersion,frameRate,
450,0,0,0,1,,,,,,,,,450,30,left,48.25620536675366,None,None,None,left,1,1.0747839000541717,47.76935900002718,None,,,,,,,,,,,,,,,,,,,,,,,,,,,,,,,,,vqnuwy,001,0,fr,2022-05-10_10h48.57.345,3-AFC_adaptive_staircase_mess,2022.1.1,35.801821175071765,
5000,0,1,1,4,,,,,,,,,5000,30,right,57.30366446666109,None,57.25031669996679,57.58116010017693,right,1,2.7913560001179576,54.8204251001589,None,,,,,,,,,,,,,,,,,,,,,,,,,,,,,,,,,vqnuwy,001,0,fr,2022-05-10_10h48.57.345,3-AFC_adaptive_staircase_mess,2022.1.1,35.801821175071765,
200,0,2,2,0,,,,,,,,,200,30,left,62.60869876674066,None,None,None,left,1,0.9100013000424951,62.12581510003656,None,,,,,,,,,,,,,,,,,,,,,,,,,,,,,,,,,vqnuwy,001,0,fr,2022-05-10_10h48.57.345,3-AFC_adaptive_staircase_mess,2022.1.1,35.801821175071765,
1300,0,3,3,3,,,,,,,,,1300,30,up,67.86563496670375,None,None,None,up,1,1.8238113999832422,66.38076600013301,None,,,,,,,,,,,,,,,,,,,,,,,,,,,,,,,,,vqnuwy,001,0,fr,2022-05-10_10h48.57.345,3-AFC_adaptive_staircase_mess,2022.1.1,35.801821175071765,
850,0,4,4,2,,,,,,,,,850,30,left,71.30280486663493,71.53141180006787,None,None,left,1,0.9347629998810589,70.8371997999493,None,,,,,,,,,,,,,,,,,,,,,,,,,,,,,,,,,vqnuwy,001,0,fr,2022-05-10_10h48.57.345,3-AFC_adaptive_staircase_mess,2022.1.1,35.801821175071765,
,,,,,0,0,0,0,0,0,0,0,,,,,,,,,,,,,[],[],10,up,1000,30,0.0013930605843148849,0,0,-1,10,91.12824736681456,None,90.09591899998486,90.43574680015445,91.1115807001479,91.44371290015988,None,None,up,1,1.3149850000627339,90.15431340015493,None,None,None,,,,,,,vqnuwy,001,0,fr,2022-05-10_10h48.57.345,3-AFC_adaptive_staircase_mess,2022.1.1,35.801821175071765,
,,,,,0,0,0,0,1,0,1,0,,,,,,,,,,,,,,,,up,1000,30,0.0013930605843148849,0,0,-1,10,94.00109086680847,None,92.97843930008821,93.30803430010565,93.9844242001418,94.2974577001296,None,None,up,1,1.3554461000021547,93.00896200002171,None,None,None,,,,,,,vqnuwy,001,0,fr,2022-05-10_10h48.57.345,3-AFC_adaptive_staircase_mess,2022.1.1,35.801821175071765,
,,,,,0,0,0,0,2,0,2,0,,,,,,,,,,,,,,,,left,1000,10,0.00013930605843148847,-1,0,-1,-10,95.91792146681497,None,95.8722948001232,96.21364840003662,None,None,None,None,left,1,0.530836199875921,95.93024330004118,None,None,None,,,,,,,vqnuwy,001,0,fr,2022-05-10_10h48.57.345,3-AFC_adaptive_staircase_mess,2022.1.1,35.801821175071765,
,,,,,0,0,0,0,3,0,3,0,,,,,,,,,,,,,,,,up,1000,10,0.00013930605843148847,-1,0,-1,-10,99.03959606663945,None,97.97911780001596,98.30893620010465,98.99052600003779,99.30403340002522,None,None,up,1,1.3662564000114799,98.03747129999101,None,None,None,,,,,,,vqnuwy,001,0,fr,2022-05-10_10h48.57.345,3-AFC_adaptive_staircase_mess,2022.1.1,35.801821175071765,
,,,,,0,0,0,0,4,0,4,0,,,,,,,,,,,,,,,,up,1000,0,4.405244365040069e-05,-1,0,-1,-10,101.96198166680212,None,100.9290516001638,101.26145250000991,101.91628500004299,102.25890010013245,None,None,up,1,1.3906276999041438,100.95774660003372,None,None,None,,,,,,,vqnuwy,001,0,fr,2022-05-10_10h48.57.345,3-AFC_adaptive_staircase_mess,2022.1.1,35.801821175071765,
,,,,,0,0,0,0,5,0,5,0,,,,,,,,,,,,,,,,left,1000,0,4.405244365040069e-05,-1,0,-1,-10,103.89707136672611,None,103.88040470005944,104.19443590007722,None,None,None,None,left,1,0.580773799913004,103.91163550014608,None,None,None,,,,,,,vqnuwy,001,0,fr,2022-05-10_10h48.57.345,3-AFC_adaptive_staircase_mess,2022.1.1,35.801821175071765,
,,,,,0,0,0,0,6,0,6,0,,,,,,,,,,,,,,,,up,1000,-10,1.3930605843148848e-05,-1,0,-1,-10,107.030002166812,None,106.00477360002697,106.3320163001772,106.98406150005758,107.32739110011607,107.98423580010422,108.31874170014635,right,0,2.699684399878606,106.03329390008003,None,108.56414939998649,None,,,,,,,vqnuwy,001,0,fr,2022-05-10_10h48.57.345,3-AFC_adaptive_staircase_mess,2022.1.1,35.801821175071765,
,,,,,0,0,0,0,7,0,7,0,,,,,,,,,,,,,,,,left,1000,-5,2.4772509540239506e-05,1,1,1,5,110.26160216663654,None,110.21591280004941,110.56193960015662,111.24169090017676,111.58032470010221,112.23082860000432,112.56418810016476,left,1,3.6744646998122334,110.27442030003294,None,112.76942940009758,None,,,,,,,vqnuwy,001,0,fr,2022-05-10_10h48.57.345,3-AFC_adaptive_staircase_mess,2022.1.1,35.801821175071765,
,,,,,0,0,0,0,8,0,8,0,,,,,,,,,,,,,,,,left,1000,-5,2.4772509540239506e-05,1,1,1,5,115.53313336667294,None,115.48669890011661,115.83057039999403,116.47902190010063,116.82071170001291,117.47579910000786,117.81101149995811,right,0,2.4829053001012653,115.5458722000476,None,118.04556320002303,None,,,,,,,vqnuwy,001,0,fr,2022-05-10_10h48.57.345,3-AFC_adaptive_staircase_mess,2022.1.1,35.801821175071765,
,,,,,0,0,0,0,9,0,9,0,,,,,,,,,,,,,,,,right,1000,0,4.405244365040069e-05,1,1,1,5,121.58674176672163,None,119.52927790000103,119.86714990017936,120.54854570003226,120.88182450016029,121.53994309995323,121.88181790011004,right,1,2.489135299809277,119.58698430005461,None,122.10369500005618,None,,,,,,,vqnuwy,001,0,fr,2022-05-10_10h48.57.345,3-AFC_adaptive_staircase_mess,2022.1.1,35.801821175071765,
,,,,,0,0,0,0,10,0,10,0,,,,,,,,,,,,,,,,up,1000,0,4.405244365040069e-05,1,1,1,5,124.64822526678132,None,123.60995170008391,123.94576310017146,124.60202959994785,124.94383220002055,None,None,right,0,1.505721600027755,123.67531500011683,None,None,None,,,,,,,vqnuwy,001,0,fr,2022-05-10_10h48.57.345,3-AFC_adaptive_staircase_mess,2022.1.1,35.801821175071765,
,,,,,0,0,0,0,11,0,11,0,,,,,,,,,,,,,,,,left,1000,5,7.833755350540742e-05,1,1,1,5,126.73450006667214,None,126.71783340000547,127.03066210006364,127.70569900004193,128.03840339998715,None,None,left,1,1.5674693998880684,126.74854109995067,None,None,None,,,,,,,vqnuwy,001,0,fr,2022-05-10_10h48.57.345,3-AFC_adaptive_staircase_mess,2022.1.1,35.801821175071765,
,,,,,0,0,0,0,12,0,12,0,,,,,,,,,,,,,,,,left,1000,5,7.833755350540742e-05,1,1,1,5,129.88665776682708,None,129.84007220016792,130.1825227001682,None,None,None,None,left,1,0.5773535999469459,129.89951320015825,None,None,None,,,,,,,vqnuwy,001,0,fr,2022-05-10_10h48.57.345,3-AFC_adaptive_staircase_mess,2022.1.1,35.801821175071765,
,,,,,0,0,0,0,13,0,13,0,,,,,,,,,,,,,,,,right,1000,-5,2.4772509540239506e-05,-1,2,-1,-5.0,134.04112406663288,None,131.9752363001462,132.31780730001628,132.99786370014772,133.31570630008355,133.99351770011708,134.3301302001346,right,1,2.602546699810773,132.03411939996295,None,134.54199920012616,None,,,,,,,vqnuwy,001,0,fr,2022-05-10_10h48.57.345,3-AFC_adaptive_staircase_mess,2022.1.1,35.801821175071765,
,,,,,0,0,0,0,14,0,14,0,,,,,,,,,,,,,,,,right,1000,-5,2.4772509540239506e-05,-1,2,-1,-5.0,138.20240306674194,None,136.17766440007836,136.50802740012296,137.1640061000362,137.48117880010977,138.15655930014327,138.49948550015688,left,0,3.102566799847409,136.20652900007553,None,138.7088465001434,None,,,,,,,vqnuwy,001,0,fr,2022-05-10_10h48.57.345,3-AFC_adaptive_staircase_mess,2022.1.1,35.801821175071765,
,,,,,0,0,0,0,15,0,15,0,,,,,,,,,,,,,,,,left,1000,-2.5,3.303467240037979e-05,1,3,1,2.5,140.8787766667704,None,140.8302551000379,141.16464900015853,141.82328570005484,142.1596093000844,142.83677639998496,143.1538211000152,left,1,2.574565500020981,140.89398000016809,None,143.3932322000619,None,,,,,,,vqnuwy,001,0,fr,2022-05-10_10h48.57.345,3-AFC_adaptive_staircase_mess,2022.1.1,35.801821175071765,
,,,,,0,0,0,0,16,0,16,0,,,,,,,,,,,,,,,,up,1000,-2.5,3.303467240037979e-05,1,3,1,2.5,146.01556926669244,None,144.9993052999489,145.3346853000112,145.99890260002576,146.33463239995763,None,None,up,1,1.637420899933204,145.03130430006422,None,None,None,,,,,,,vqnuwy,001,0,fr,2022-05-10_10h48.57.345,3-AFC_adaptive_staircase_mess,2022.1.1,35.801821175071765,
,,,,,0,0,0,0,17,0,17,0,,,,,,,,,,,,,,,,left,1000,-7.5,1.8576761454858622e-05,-1,4,-1,-5.0,148.25682456681196,None,148.20822730008513,148.52997960010543,149.20853850012645,149.5220621000044,150.19821369997226,150.53101360006258,up,0,3.180790900019929,148.27238360000774,None,150.77379360003397,None,,,,,,,vqnuwy,001,0,fr,2022-05-10_10h48.57.345,3-AFC_adaptive_staircase_mess,2022.1.1,35.801821175071765,
,,,,,0,0,0,0,18,0,18,0,,,,,,,,,,,,,,,,left,1000,-5.0,2.4772509540239506e-05,1,5,1,2.5,153.02061156678636,None,152.97335410001688,153.3136255000718,None,None,None,None,left,1,0.6590204001404345,153.03368390002288,None,None,None,,,,,,,vqnuwy,001,0,fr,2022-05-10_10h48.57.345,3-AFC_adaptive_staircase_mess,2022.1.1,35.801821175071765,
,,,,,0,0,0,0,19,0,19,0,,,,,,,,,,,,,,,,left,1000,-5.0,2.4772509540239506e-05,1,5,1,2.5,155.24789546669152,None,155.20238590007648,155.54056999995373,156.1980680001434,156.5245789999608,157.20250290003605,157.5372310001403,left,1,3.009020400000736,155.2601755000651,None,157.77055769995786,None,,,,,,,vqnuwy,001,0,fr,2022-05-10_10h48.57.345,3-AFC_adaptive_staircase_mess,2022.1.1,35.801821175071765,
,,,,,0,0,0,0,20,0,20,0,,,,,,,,,,,,,,,,left,1000,-10.0,1.3930605843148848e-05,-1,6,-1,-5.0,159.82598106662434,None,159.78008880000561,160.11645510001108,160.76922380016185,161.09733320004307,161.77974000014365,162.1049697000999,left,1,2.652944999979809,159.83971810014918,None,162.33901030011475,None,,,,,,,vqnuwy,001,0,fr,2022-05-10_10h48.57.345,3-AFC_adaptive_staircase_mess,2022.1.1,35.801821175071765,
,,,,,1,0,1,0,0,0,0,0,,,,,,,,,,,,,[],[],10,right,1500,30,0.001527460556607757,0,0,-1,10,169.6394024666554,None,167.59316250006668,167.92057460010983,168.59562290017493,168.9220873999875,169.59277960006148,169.92819100013003,right,1,2.457426499808207,167.65146940015256,None,170.1384163000621,None,space,3.536167200189084,163.56520800013095,None,163.56520800013095,None,vqnuwy,001,0,fr,2022-05-10_10h48.57.345,3-AFC_adaptive_staircase_mess,2022.1.1,35.801821175071765,
,,,,,1,0,1,0,1,0,1,0,,,,,,,,,,,,,,,,left,1500,30,0.001527460556607757,0,0,-1,10,171.68233156676095,None,171.6333799001295,171.96914699999616,None,None,None,None,left,1,0.6214034000877291,171.69570050016046,None,None,None,,,,,,,vqnuwy,001,0,fr,2022-05-10_10h48.57.345,3-AFC_adaptive_staircase_mess,2022.1.1,35.801821175071765,
,,,,,1,0,1,0,2,0,2,0,,,,,,,,,,,,,,,,right,1500,10,0.0001527460556607757,-1,0,-1,-10,175.85448446666513,None,173.81437300005928,174.14354720013216,174.81193630001508,175.1409679001663,175.8077195000369,176.14217140013352,right,1,2.651386999990791,173.87283749994822,None,176.35346120013855,None,,,,,,,vqnuwy,001,0,fr,2022-05-10_10h48.57.345,3-AFC_adaptive_staircase_mess,2022.1.1,35.801821175071765,
,,,,,1,0,1,0,3,0,3,0,,,,,,,,,,,,,,,,up,1500,10,0.0001527460556607757,-1,0,-1,-10,179.07636896666762,None,178.0518604000099,178.3770722001791,179.05970230000094,179.3905531000346,None,None,up,1,1.550543799996376,178.10953300003894,None,None,None,,,,,,,vqnuwy,001,0,fr,2022-05-10_10h48.57.345,3-AFC_adaptive_staircase_mess,2022.1.1,35.801821175071765,
,,,,,1,0,1,0,4,0,4,0,,,,,,,,,,,,,,,,left,1500,0,4.830254394949071e-05,-1,0,-1,-10,181.2224637666407,181.44769860012457,181.17566810012795,181.51181050017476,182.1851888000965,182.50802790001035,183.16962900012732,183.49761310010217,left,1,2.5848736001644284,181.2355245000217,None,183.7317681000568,None,,,,,,,vqnuwy,001,0,fr,2022-05-10_10h48.57.345,3-AFC_adaptive_staircase_mess,2022.1.1,35.801821175071765,
,,,,,1,0,1,0,5,0,5,0,,,,,,,,,,,,,,,,right,1500,0,4.830254394949071e-05,-1,0,-1,-10,187.34866706683923,None,185.320129300002,185.65857980004512,186.3376605999656,186.66582180000842,187.33200040017255,187.65614220011048,up,0,3.515214500017464,185.39285330008715,None,187.86848800000735,None,,,,,,,vqnuwy,001,0,fr,2022-05-10_10h48.57.345,3-AFC_adaptive_staircase_mess,2022.1.1,35.801821175071765,
,,,,,1,0,1,0,6,0,6,0,,,,,,,,,,,,,,,,right,1500,5,8.589541935787943e-05,1,1,1,5,192.47053426673327,None,190.42600790015422,190.74861160013825,191.42919300007634,191.74436040013097,192.42067050002515,192.7572300999891,right,1,2.566885699983686,190.45387320010923,None,192.96454300009646,None,,,,,,,vqnuwy,001,0,fr,2022-05-10_10h48.57.345,3-AFC_adaptive_staircase_mess,2022.1.1,35.801821175071765,
,,,,,1,0,1,0,7,0,7,0,,,,,,,,,,,,,,,,right,1500,5,8.589541935787943e-05,1,1,1,5,196.57184216665726,None,194.5357935000211,194.85929329995997,195.53156600007787,195.85899380012415,196.5246771001257,196.855593000073,right,1,2.363362699979916,194.59320550016128,None,None,None,,,,,,,vqnuwy,001,0,fr,2022-05-10_10h48.57.345,3-AFC_adaptive_staircase_mess,2022.1.1,35.801821175071765,
,,,,,1,0,1,0,8,0,8,0,,,,,,,,,,,,,,,,left,1500,-5,2.716251657462168e-05,-1,2,-1,-5.0,198.52435486676794,None,198.47720380011015,198.81540900003165,199.46147550013848,199.79711810010485,200.4619926000014,200.782690100139,left,1,2.962335499934852,198.53815190005116,None,201.01582160010003,None,,,,,,,vqnuwy,001,0,fr,2022-05-10_10h48.57.345,3-AFC_adaptive_staircase_mess,2022.1.1,35.801821175071765,
,,,,,1,0,1,0,9,0,9,0,,,,,,,,,,,,,,,,right,1500,-5,2.716251657462168e-05,-1,2,-1,-5.0,205.04794156673987,None,203.00888290000148,203.33474760013632,204.0033105001785,204.33034540014341,205.00288420007564,205.33408750011586,up,0,2.9947549998760223,203.06473610014655,None,205.5666519999504,None,,,,,,,vqnuwy,001,0,fr,2022-05-10_10h48.57.345,3-AFC_adaptive_staircase_mess,2022.1.1,35.801821175071765,
,,,,,1,0,1,0,10,0,10,0,,,,,,,,,,,,,,,,up,1500,-2.5,3.622179800374953e-05,1,3,1,2.5,208.62455356662784,None,207.59931390010752,207.9190726999659,208.5867797001265,208.91021919995546,209.58816449996084,209.9125081000384,up,1,3.0274588000029325,207.6569998001214,None,210.14569799997844,None,,,,,,,vqnuwy,001,0,fr,2022-05-10_10h48.57.345,3-AFC_adaptive_staircase_mess,2022.1.1,35.801821175071765,
,,,,,1,0,1,0,11,0,11,0,,,,,,,,,,,,,,,,up,1500,-2.5,3.622179800374953e-05,1,3,1,2.5,213.23684306681778,None,212.1943356001284,212.5200571999885,213.2201764001511,213.56346960016526,214.2057366000954,214.5284343000967,left,0,3.0821462001185864,212.24268879997544,None,214.76286510005593,None,,,,,,,vqnuwy,001,0,fr,2022-05-10_10h48.57.345,3-AFC_adaptive_staircase_mess,2022.1.1,35.801821175071765,
,,,,,1,0,1,0,12,0,12,0,,,,,,,,,,,,,,,,up,1500,0.0,4.830254394949071e-05,1,3,1,2.5,217.88018406677682,None,216.83087110007182,217.14794240007177,217.83406969998032,218.16829619999044,218.83770989999175,219.18952909996733,up,1,2.927386699942872,216.89302700012922,None,219.39567450014874,None,,,,,,,vqnuwy,001,0,fr,2022-05-10_10h48.57.345,3-AFC_adaptive_staircase_mess,2022.1.1,35.801821175071765,
,,,,,1,0,1,0,13,0,13,0,,,,,,,,,,,,,,,,up,1500,0.0,4.830254394949071e-05,1,3,1,2.5,222.3853141668408,None,221.34339420008473,221.6667361999862,222.3390021000523,222.6743999000173,223.34287720010616,223.6589780000504,up,1,3.0594837001990527,221.4008830001112,None,223.8927725001704,None,,,,,,,vqnuwy,001,0,fr,2022-05-10_10h48.57.345,3-AFC_adaptive_staircase_mess,2022.1.1,35.801821175071765,
,,,,,1,0,1,0,14,0,14,0,,,,,,,,,,,,,,,,right,1500,-5.0,2.716251657462168e-05,-1,4,-1,-5.0,228.01333306666154,None,225.97914010006934,226.29287620005198,226.99337060004473,227.31363119999878,227.9761558000464,228.30069079995155,left,0,2.597255000146106,226.03972170013003,None,228.53870380017906,None,,,,,,,vqnuwy,001,0,fr,2022-05-10_10h48.57.345,3-AFC_adaptive_staircase_mess,2022.1.1,35.801821175071765,
,,,,,1,0,1,0,15,0,15,0,,,,,,,,,,,,,,,,right,1500,-2.5,3.622179800374953e-05,1,5,1,2.5,232.18504586682346,None,230.15362980007194,230.47893810016103,231.1509609001223,231.4777281000279,232.16837920015678,232.49662590003572,left,0,3.2876930001657456,230.21243389998563,None,232.72768250014633,None,,,,,,,vqnuwy,001,0,fr,2022-05-10_10h48.57.345,3-AFC_adaptive_staircase_mess,2022.1.1,35.801821175071765,
,,,,,1,0,1,0,16,0,16,0,,,,,,,,,,,,,,,,left,1500,0.0,4.830254394949071e-05,1,5,1,2.5,235.05256716680404,None,235.01567690004595,235.34499839995988,236.0379713999573,236.3617231999524,237.0394009000156,237.36087780003436,right,0,3.287146999966353,235.07798760011792,None,237.5686924001202,None,,,,,,,vqnuwy,001,0,fr,2022-05-10_10h48.57.345,3-AFC_adaptive_staircase_mess,2022.1.1,35.801821175071765,
,,,,,1,0,1,0,17,0,17,0,,,,,,,,,,,,,,,,up,1500,2.5,6.441247758465671e-05,1,5,1,2.5,240.94759936683502,None,239.90597620001063,240.23598630004562,240.9032278000377,241.2316232000012,241.88991570007056,242.2190610000398,up,1,2.7688521000090986,239.9320982999634,None,242.45344840013422,None,,,,,,,vqnuwy,001,0,fr,2022-05-10_10h48.57.345,3-AFC_adaptive_staircase_mess,2022.1.1,35.801821175071765,
,,,,,1,0,1,0,18,0,18,0,,,,,,,,,,,,,,,,up,1500,2.5,6.441247758465671e-05,1,5,1,2.5,245.23784536664996,245.4674562001601,244.20244970009662,244.52545780013315,245.22117869998328,245.56044530007057,246.1985498999711,246.51335490006022,up,1,2.536978399846703,244.25977430003695,None,246.74791770009324,None,,,,,,,vqnuwy,001,0,fr,2022-05-10_10h48.57.345,3-AFC_adaptive_staircase_mess,2022.1.1,35.801821175071765,
,,,,,1,0,1,0,19,0,19,0,,,,,,,,,,,,,,,,up,1500,-2.5,3.622179800374953e-05,-1,6,-1,-5.0,249.36772526667144,249.59503350011073,248.31627569999546,248.64408620004542,249.319906800054,249.65109950001352,250.32027280004695,250.64225429994985,left,0,3.046448100125417,248.37399680004455,None,250.85942870005965,None,,,,,,,vqnuwy,001,0,fr,2022-05-10_10h48.57.345,3-AFC_adaptive_staircase_mess,2022.1.1,35.801821175071765,
,,,,,2,0,2,0,0,0,0,0,,,,,,,,,,,,,[],[],10,left,2000,30,0.0023657562948074026,0,0,-1,10,258.55798346671895,None,258.51347520016134,258.84173750015907,None,None,None,None,left,1,0.5420523998327553,258.57384430011734,None,None,None,space,5.498213600134477,252.51554209995084,None,252.51554209995084,None,vqnuwy,001,0,fr,2022-05-10_10h48.57.345,3-AFC_adaptive_staircase_mess,2022.1.1,35.801821175071765,
,,,,,2,0,2,0,1,0,1,0,,,,,,,,,,,,,,,,up,2000,30,0.0023657562948074026,0,0,-1,10,261.6810285666181,None,260.6214460001793,260.9453845000826,261.63614120008424,261.9648714000359,None,None,up,1,1.4127467998769134,260.67952900007367,None,None,None,,,,,,,vqnuwy,001,0,fr,2022-05-10_10h48.57.345,3-AFC_adaptive_staircase_mess,2022.1.1,35.801821175071765,
,,,,,2,0,2,0,2,0,2,0,,,,,,,,,,,,,,,,right,2000,10,0.00023657562948074026,-1,0,-1,-10,265.6764968666869,None,263.632402200019,263.95448790001683,264.64526100014336,264.9639942001086,265.63076900015585,265.95703339995816,right,1,2.6249886001460254,263.69129410013556,None,266.1918359999545,None,,,,,,,vqnuwy,001,0,fr,2022-05-10_10h48.57.345,3-AFC_adaptive_staircase_mess,2022.1.1,35.801821175071765,
,,,,,2,0,2,0,3,0,3,0,,,,,,,,,,,,,,,,left,2000,10,0.00023657562948074026,-1,0,-1,-10,267.8692249667986,None,267.8242709999904,268.1575943999924,None,None,None,None,left,1,0.44740840001031756,267.88542139995843,None,None,None,,,,,,,vqnuwy,001,0,fr,2022-05-10_10h48.57.345,3-AFC_adaptive_staircase_mess,2022.1.1,35.801821175071765,
,,,,,2,0,2,0,4,0,4,0,,,,,,,,,,,,,,,,left,2000,0,7.481178280472168e-05,-1,0,-1,-10,269.9058789667363,None,269.85973280016333,270.1894847000949,270.85624820017256,271.18173209996894,271.87170170014724,272.1937768999487,left,1,2.397849200060591,269.9188868999481,None,None,None,,,,,,,vqnuwy,001,0,fr,2022-05-10_10h48.57.345,3-AFC_adaptive_staircase_mess,2022.1.1,35.801821175071765,
,,,,,2,0,2,0,5,0,5,0,,,,,,,,,,,,,,,,right,2000,0,7.481178280472168e-05,-1,0,-1,-10,275.8618082667856,None,273.82465640013106,274.14232370001264,274.8236879000906,275.1481576000806,275.84514160011895,276.16871630004607,right,1,2.4567586998455226,273.8905257000588,None,276.3748973000329,None,,,,,,,vqnuwy,001,0,fr,2022-05-10_10h48.57.345,3-AFC_adaptive_staircase_mess,2022.1.1,35.801821175071765,
,,,,,2,0,2,0,6,0,6,0,,,,,,,,,,,,,,,,left,2000,-10,2.3657562948074015e-05,-1,0,-1,-10,277.9088535668018,278.135251800064,277.8610406999942,278.1950150001794,278.86174890003167,279.1960077001713,279.86414680001326,280.1902666001115,left,1,3.0346331999171525,277.92198990006,None,280.42424690001644,None,,,,,,,vqnuwy,001,0,fr,2022-05-10_10h48.57.345,3-AFC_adaptive_staircase_mess,2022.1.1,35.801821175071765,
,,,,,2,0,2,0,7,0,7,0,,,,,,,,,,,,,,,,left,2000,-10,2.3657562948074015e-05,-1,0,-1,-10,282.51635776675926,None,282.4663990000263,282.79985280008987,283.46615640004165,283.787532400107,284.4848196001258,284.8072419001255,left,1,3.047298800200224,282.53266849997453,None,285.01832909998484,None,,,,,,,vqnuwy,001,0,fr,2022-05-10_10h48.57.345,3-AFC_adaptive_staircase_mess,2022.1.1,35.801821175071765,
,,,,,2,0,2,0,8,0,8,0,,,,,,,,,,,,,,,,up,2000,-20,7.481178280472164e-06,-1,0,-1,-10,288.133141366827,None,287.0998200001195,287.4206283001695,288.089848899981,288.4106704001315,289.0763602000661,289.40087560005486,left,0,3.1403859998099506,287.12852480006404,None,289.6624678999651,None,,,,,,,vqnuwy,001,0,fr,2022-05-10_10h48.57.345,3-AFC_adaptive_staircase_mess,2022.1.1,35.801821175071765,
,,,,,2,0,2,0,9,0,9,0,,,,,,,,,,,,,,,,right,2000,-15,1.3303625298994042e-05,1,1,1,5,293.8310231667167,None,291.7763909001369,292.10826830007136,292.7712610999588,293.09259200003,293.78613719996065,294.1157250001561,left,0,2.8145441999658942,291.83762430003844,None,294.34875680017285,None,,,,,,,vqnuwy,001,0,fr,2022-05-10_10h48.57.345,3-AFC_adaptive_staircase_mess,2022.1.1,35.801821175071765,
,,,,,2,0,2,0,10,0,10,0,,,,,,,,,,,,,,,,left,2000,-10,2.3657562948074015e-05,1,1,1,5,296.22975086683095,None,296.1812605999876,296.5207567999605,297.18649780005217,297.5123819001019,298.18010940006934,298.49984800000675,up,0,2.986346499994397,296.2424626001157,None,298.7359645999968,None,,,,,,,vqnuwy,001,0,fr,2022-05-10_10h48.57.345,3-AFC_adaptive_staircase_mess,2022.1.1,35.801821175071765,
,,,,,2,0,2,0,11,0,11,0,,,,,,,,,,,,,,,,left,2000,-5,4.206975708225974e-05,1,1,1,5,300.8012650667845,None,300.7521713001188,301.0891077001579,301.75165860005654,302.08057400002144,302.7750597000122,303.0980110000819,left,1,2.9258520000148565,300.81490029999986,None,303.3027621000074,None,,,,,,,vqnuwy,001,0,fr,2022-05-10_10h48.57.345,3-AFC_adaptive_staircase_mess,2022.1.1,35.801821175071765,
,,,,,2,0,2,0,12,0,12,0,,,,,,,,,,,,,,,,left,2000,-5,4.206975708225974e-05,1,1,1,5,305.3088950666754,None,305.2638960001059,305.5936215000693,306.2644664000254,306.58845890010707,307.256750700064,307.58171109994873,left,1,2.608954100171104,305.3241662001237,None,307.8145649000071,None,,,,,,,vqnuwy,001,0,fr,2022-05-10_10h48.57.345,3-AFC_adaptive_staircase_mess,2022.1.1,35.801821175071765,
,,,,,2,0,2,0,13,0,13,0,,,,,,,,,,,,,,,,left,2000,-15,1.3303625298994042e-05,-1,2,-1,-5.0,309.47998546675467,None,309.4343644999899,309.76937850005925,310.4361684001051,310.7582112001255,311.4276787000708,311.7516298000701,left,1,2.741219100076705,309.49591329996474,None,311.9855408000294,None,,,,,,,vqnuwy,001,0,fr,2022-05-10_10h48.57.345,3-AFC_adaptive_staircase_mess,2022.1.1,35.801821175071765,
,,,,,2,0,2,0,14,0,14,0,,,,,,,,,,,,,,,,right,2000,-15,1.3303625298994042e-05,-1,2,-1,-5.0,315.79870376672284,None,313.766260900069,314.09570950013585,314.76317839999683,315.0857927000616,315.7820371000562,316.1051415000111,left,0,2.711291200015694,313.82829750003293,None,316.3367993000429,None,,,,,,,vqnuwy,001,0,fr,2022-05-10_10h48.57.345,3-AFC_adaptive_staircase_mess,2022.1.1,35.801821175071765,
,,,,,2,0,2,0,15,0,15,0,,,,,,,,,,,,,,,,left,2000,-12.5,1.7740669461678767e-05,1,3,1,2.5,318.1259264667208,None,318.0802945001051,318.40733660012484,319.07334979996085,319.40632069995627,320.07384940003976,320.40388670004904,up,0,2.4830227999482304,318.13682959997095,None,320.6363790000323,None,,,,,,,vqnuwy,001,0,fr,2022-05-10_10h48.57.345,3-AFC_adaptive_staircase_mess,2022.1.1,35.801821175071765,
,,,,,2,0,2,0,16,0,16,0,,,,,,,,,,,,,,,,left,2000,-10.0,2.3657562948074015e-05,1,3,1,2.5,322.1754166668436,None,322.12717530014925,322.4597076000646,323.12689820001833,323.44559050002135,324.1421533001121,324.4671198001597,left,1,2.722719500074163,322.1848103001248,None,324.67239030008204,None,,,,,,,vqnuwy,001,0,fr,2022-05-10_10h48.57.345,3-AFC_adaptive_staircase_mess,2022.1.1,35.801821175071765,
,,,,,2,0,2,0,17,0,17,0,,,,,,,,,,,,,,,,left,2000,-10.0,2.3657562948074015e-05,1,3,1,2.5,326.4631718667845,None,326.4188528000377,326.75004309997894,327.41766749997623,327.7424516000319,328.4104369999841,328.7341595001053,left,1,2.8123409999534488,326.47973020002246,None,328.96805849997327,None,,,,,,,vqnuwy,001,0,fr,2022-05-10_10h48.57.345,3-AFC_adaptive_staircase_mess,2022.1.1,35.801821175071765,
,,,,,2,0,2,0,18,0,18,0,,,,,,,,,,,,,,,,left,2000,-15.0,1.3303625298994042e-05,-1,4,-1,-5.0,330.8652107667333,None,330.81980270007625,331.1525718001649,331.8178449999541,332.145662400173,332.81235400005244,333.1344203001354,left,1,2.7000977001152933,330.8801629000809,None,333.3655268000439,None,,,,,,,vqnuwy,001,0,fr,2022-05-10_10h48.57.345,3-AFC_adaptive_staircase_mess,2022.1.1,35.801821175071765,
,,,,,2,0,2,0,19,0,19,0,,,,,,,,,,,,,,,,up,2000,-15.0,1.3303625298994042e-05,-1,4,-1,-5.0,336.13822486676895,None,335.1047229000833,335.42431699996814,336.09218559996225,336.42552340007387,337.0942318001762,337.4210763000883,left,0,2.7857419999781996,335.1629213001579,None,337.65444430010393,None,,,,,,,vqnuwy,001,0,fr,2022-05-10_10h48.57.345,3-AFC_adaptive_staircase_mess,2022.1.1,35.801821175071765,
,,,,,2,0,2,0,20,0,20,0,,,,,,,,,,,,,,,,left,2000,-12.5,1.7740669461678767e-05,1,5,1,2.5,339.5067327668114,None,339.45869940007105,339.79770850017667,340.4612006000243,340.7933529999573,341.461698200088,341.78968850011006,left,1,2.828193699941039,339.52033960004337,None,342.0202793001663,None,,,,,,,vqnuwy,001,0,fr,2022-05-10_10h48.57.345,3-AFC_adaptive_staircase_mess,2022.1.1,35.801821175071765,
,,,,,2,0,2,0,21,0,21,0,,,,,,,,,,,,,,,,up,2000,-12.5,1.7740669461678767e-05,1,5,1,2.5,344.9129193667943,None,343.87231920007616,344.1966897000093,344.86429230007343,345.20301910000853,345.8788835001178,346.19912610016763,left,0,3.5548761000391096,343.929044800112,None,346.434633300174,None,,,,,,,vqnuwy,001,0,fr,2022-05-10_10h48.57.345,3-AFC_adaptive_staircase_mess,2022.1.1,35.801821175071765,
,,,,,2,0,2,0,22,0,22,0,,,,,,,,,,,,,,,,right,2000,-10.0,2.3657562948074015e-05,1,5,1,2.5,351.06465496664555,None,349.00404740008526,349.3396901001688,349.9918569000438,350.3063926000614,351.01037429994904,351.3491964000277,left,0,2.8452943998854607,349.0711889001541,None,351.57974239997566,None,,,,,,,vqnuwy,001,0,fr,2022-05-10_10h48.57.345,3-AFC_adaptive_staircase_mess,2022.1.1,35.801821175071765,
,,,,,2,0,2,0,23,0,23,0,,,,,,,,,,,,,,,,right,2000,-7.5,3.154786722400965e-05,1,5,1,2.5,355.4987908667574,None,353.45509089995176,353.77883440000005,354.4452218001243,354.7797580000479,355.4476276000496,355.7806013999507,left,0,2.8482584999874234,353.48535830015317,None,356.01489989995025,None,,,,,,,vqnuwy,001,0,fr,2022-05-10_10h48.57.345,3-AFC_adaptive_staircase_mess,2022.1.1,35.801821175071765,
,,,,,2,0,2,0,24,0,24,0,,,,,,,,,,,,,,,,left,2000,-5.0,4.206975708225974e-05,1,5,1,2.5,357.8985695667254,358.1252590001095,357.8472293999512,358.1874118000269,358.84965850017034,359.18462339998223,359.85012620012276,360.1844910001382,left,1,2.68810289981775,357.91561580006965,None,360.4194148001261,None,,,,,,,vqnuwy,001,0,fr,2022-05-10_10h48.57.345,3-AFC_adaptive_staircase_mess,2022.1.1,35.801821175071765,
,,,,,2,0,2,0,25,0,25,0,,,,,,,,,,,,,,,,up,2000,-5.0,4.206975708225974e-05,1,5,1,2.5,363.1706571668076,363.3974985999521,362.1133346001152,362.4517070001457,363.1206946000457,363.4614262001123,364.1221259001177,364.46064010006376,up,1,2.9927948999684304,362.1712531000376,None,364.6941770000849,None,,,,,,,vqnuwy,001,0,fr,2022-05-10_10h48.57.345,3-AFC_adaptive_staircase_mess,2022.1.1,35.801821175071765,
,,,,,2,0,2,0,26,0,26,0,,,,,,,,,,,,,,,,right,2000,-10.0,2.3657562948074015e-05,-1,6,-1,-5.0,368.7455971667698,368.98103779996745,366.70016330014914,367.0155015999917,367.70396400010213,368.0501366001554,368.6931549999863,369.0108698999975,left,0,2.6824135999195278,366.7694174000062,None,369.24123740009964,None,,,,,,,vqnuwy,001,0,fr,2022-05-10_10h48.57.345,3-AFC_adaptive_staircase_mess,2022.1.1,35.801821175071765,
,,,,,3,0,3,0,0,0,0,0,,,,,,,,,,,,,[],[],10,left,3000,30,0.001733684252262658,0,0,-1,10,373.7984115668262,None,373.78174490015954,374.12958630011417,None,None,None,None,left,1,0.5708969999104738,373.81006269995123,None,None,None,space,2.7135143000632524,370.56362930010073,None,370.56362930010073,None,vqnuwy,001,0,fr,2022-05-10_10h48.57.345,3-AFC_adaptive_staircase_mess,2022.1.1,35.801821175071765,
,,,,,3,0,3,0,1,0,1,0,,,,,,,,,,,,,,,,up,3000,30,0.001733684252262658,0,0,-1,10,376.9555408666531,None,375.89217500016093,376.2329264001455,376.9039437000174,377.2406842999626,None,None,up,1,1.468130299821496,375.95169800007716,None,None,None,,,,,,,vqnuwy,001,0,fr,2022-05-10_10h48.57.345,3-AFC_adaptive_staircase_mess,2022.1.1,35.801821175071765,
,,,,,3,0,3,0,2,0,2,0,,,,,,,,,,,,,,,,up,3000,10,0.00017336842522626576,-1,0,-1,-10,379.9685572668134,None,378.9388156000059,379.2708316000644,379.9518906001467,380.2729832001496,None,None,up,1,1.4061658000573516,379.00614050007425,None,None,None,,,,,,,vqnuwy,001,0,fr,2022-05-10_10h48.57.345,3-AFC_adaptive_staircase_mess,2022.1.1,35.801821175071765,
,,,,,3,0,3,0,3,0,3,0,,,,,,,,,,,,,,,,right,3000,10,0.00017336842522626576,-1,0,-1,-10,383.9636728666412,None,381.9407194000669,382.27343120006844,382.9400306001771,383.2779402001761,383.94700619997457,384.2842623000033,right,1,2.499106799950823,382.0088170999661,None,384.51160890003666,None,,,,,,,vqnuwy,001,0,fr,2022-05-10_10h48.57.345,3-AFC_adaptive_staircase_mess,2022.1.1,35.801821175071765,
,,,,,3,0,3,0,4,0,4,0,,,,,,,,,,,,,,,,left,3000,0,5.482390980715923e-05,-1,0,-1,-10,386.0627177667959,None,386.0100821000524,386.3261307000648,None,None,None,None,left,1,0.652381599880755,386.0792314000428,None,None,None,,,,,,,vqnuwy,001,0,fr,2022-05-10_10h48.57.345,3-AFC_adaptive_staircase_mess,2022.1.1,35.801821175071765,
,,,,,3,0,3,0,5,0,5,0,,,,,,,,,,,,,,,,up,3000,0,5.482390980715923e-05,-1,0,-1,-10,389.29423996672654,None,388.24403259996325,388.5818992999848,389.24427090003155,389.5848372001201,None,None,up,1,1.5244126999750733,388.31151080015115,None,None,None,,,,,,,vqnuwy,001,0,fr,2022-05-10_10h48.57.345,3-AFC_adaptive_staircase_mess,2022.1.1,35.801821175071765,
,,,,,3,0,3,0,6,0,6,0,,,,,,,,,,,,,,,,up,3000,-10,1.7336842522626584e-05,-1,0,-1,-10,392.40785266674743,None,391.35290880012326,391.6884421999566,392.3567039000336,392.6858242000453,393.3448067000136,393.6846005001571,left,0,3.086676700040698,391.42196439998224,None,393.91882320004515,None,,,,,,,vqnuwy,001,0,fr,2022-05-10_10h48.57.345,3-AFC_adaptive_staircase_mess,2022.1.1,35.801821175071765,
,,,,,3,0,3,0,7,0,7,0,,,,,,,,,,,,,,,,up,3000,-5,3.082975009307411e-05,1,1,1,5,397.0811411666839,None,396.02702100016177,396.3608552000951,397.02624769997783,397.35587620013393,398.02570700016804,398.35700489999726,up,1,2.5606498999986798,396.0595192001201,None,398.5918046000879,None,,,,,,,vqnuwy,001,0,fr,2022-05-10_10h48.57.345,3-AFC_adaptive_staircase_mess,2022.1.1,35.801821175071765,
,,,,,3,0,3,0,8,0,8,0,,,,,,,,,,,,,,,,right,3000,-5,3.082975009307411e-05,1,1,1,5,402.1640538667018,None,400.1588888000697,400.4924908000976,401.1565489999484,401.4921040001791,402.14738720003515,402.46643740008585,left,0,2.6672471000347286,400.19424520013854,None,402.70264760009013,None,,,,,,,vqnuwy,001,0,fr,2022-05-10_10h48.57.345,3-AFC_adaptive_staircase_mess,2022.1.1,35.801821175071765,
,,,,,3,0,3,0,9,0,9,0,,,,,,,,,,,,,,,,left,3000,0,5.482390980715923e-05,1,1,1,5,404.4171242667983,None,404.3663950001355,404.7021778000053,None,None,None,None,left,1,0.5837882999330759,404.4361273001414,None,None,None,,,,,,,vqnuwy,001,0,fr,2022-05-10_10h48.57.345,3-AFC_adaptive_staircase_mess,2022.1.1,35.801821175071765,
,,,,,3,0,3,0,10,0,10,0,,,,,,,,,,,,,,,,left,3000,0,5.482390980715923e-05,1,1,1,5,406.58941016678386,406.81528670014814,406.54033350013196,406.875130899949,None,None,None,None,left,1,0.7346642999909818,406.60471750004217,None,None,None,,,,,,,vqnuwy,001,0,fr,2022-05-10_10h48.57.345,3-AFC_adaptive_staircase_mess,2022.1.1,35.801821175071765,
,,,,,3,0,3,0,11,0,11,0,,,,,,,,,,,,,,,,left,3000,-10,1.7336842522626584e-05,-1,2,-1,-5.0,408.903862066629,None,408.85479110013694,409.202767000068,409.8694111001678,410.2038384999614,410.87623060005717,411.2110123001039,left,1,2.6963595000561327,408.91536870016716,None,411.43837670003995,None,,,,,,,vqnuwy,001,0,fr,2022-05-10_10h48.57.345,3-AFC_adaptive_staircase_mess,2022.1.1,35.801821175071765,
,,,,,3,0,3,0,12,0,12,0,,,,,,,,,,,,,,,,left,3000,-10,1.7336842522626584e-05,-1,2,-1,-5.0,413.1787512666235,None,413.1316121001728,413.47128299996257,414.1462930999696,414.48095060000196,415.1421396001242,415.47202510014176,up,0,2.5816073999740183,413.1902860000264,None,415.7044911000412,None,,,,,,,vqnuwy,001,0,fr,2022-05-10_10h48.57.345,3-AFC_adaptive_staircase_mess,2022.1.1,35.801821175071765,
,,,,,3,0,3,0,13,0,13,0,,,,,,,,,,,,,,,,right,3000,-7.5,2.3119051069963017e-05,1,3,1,2.5,419.3314598666659,None,417.27480530017056,417.6126930001192,418.27868310012855,418.611389500089,419.27980420016684,419.613399800146,left,0,2.875501000089571,417.34501449996606,None,419.8349544000812,None,,,,,,,vqnuwy,001,0,fr,2022-05-10_10h48.57.345,3-AFC_adaptive_staircase_mess,2022.1.1,35.801821175071765,
,,,,,3,0,3,0,14,0,14,0,,,,,,,,,,,,,,,,left,3000,-5.0,3.082975009307411e-05,1,3,1,2.5,421.77009946672865,None,421.72099069994874,422.06008130009286,422.71691339998506,423.05833030003123,423.7231414001435,424.06238760007545,left,1,2.671477199997753,421.7883653000463,None,424.2610241000075,None,,,,,,,vqnuwy,001,0,fr,2022-05-10_10h48.57.345,3-AFC_adaptive_staircase_mess,2022.1.1,35.801821175071765,
,,,,,3,0,3,0,15,0,15,0,,,,,,,,,,,,,,,,right,3000,-5.0,3.082975009307411e-05,1,3,1,2.5,428.00372856675335,428.22872709995136,425.95383200002834,426.28200620017014,426.9498024000786,427.2833941001445,427.95246180007234,428.2906043000985,right,1,2.745988499838859,426.0195347000845,None,428.52011870010756,None,,,,,,,vqnuwy,001,0,fr,2022-05-10_10h48.57.345,3-AFC_adaptive_staircase_mess,2022.1.1,35.801821175071765,
,,,,,3,0,3,0,16,0,16,0,,,,,,,,,,,,,,,,right,3000,-10.0,1.7336842522626584e-05,-1,4,-1,-5.0,432.31707026675963,None,430.2884861000348,430.626242000144,431.2899740000721,431.62200930016115,432.300403600093,432.621117600007,left,0,2.9189475998282433,430.3571021000389,None,432.85476980009116,None,,,,,,,vqnuwy,001,0,fr,2022-05-10_10h48.57.345,3-AFC_adaptive_staircase_mess,2022.1.1,35.801821175071765,
,,,,,3,0,3,0,17,0,17,0,,,,,,,,,,,,,,,,left,3000,-7.5,2.3119051069963017e-05,1,5,1,2.5,434.8142995667333,435.0387332001701,434.7976329000667,435.135169000132,435.79552080016583,436.14314880012535,436.79523800010793,437.1388630999718,left,1,2.9778046999126673,434.82715669996105,None,437.3515874000732,None,,,,,,,vqnuwy,001,0,fr,2022-05-10_10h48.57.345,3-AFC_adaptive_staircase_mess,2022.1.1,35.801821175071765,
,,,,,3,0,3,0,18,0,18,0,,,,,,,,,,,,,,,,right,3000,-7.5,2.3119051069963017e-05,1,5,1,2.5,441.3885628667815,None,439.36585539998487,439.6981057000812,440.3492405000143,440.69593230006285,441.37189620011486,441.68964170012623,right,1,2.7084623998962343,439.39921850012615,None,441.9270012001507,None,,,,,,,vqnuwy,001,0,fr,2022-05-10_10h48.57.345,3-AFC_adaptive_staircase_mess,2022.1.1,35.801821175071765,
,,,,,3,0,3,0,19,0,19,0,,,,,,,,,,,,,,,,right,3000,-12.5,1.300079781582636e-05,-1,6,-1,-5.0,445.652373966823,None,443.606852900004,443.9373665000312,444.6008616001345,444.94262740015984,445.6014195999596,445.93129310011864,left,0,2.7992819000501186,443.67633819999173,None,446.1473970999941,None,,,,,,,vqnuwy,001,0,fr,2022-05-10_10h48.57.345,3-AFC_adaptive_staircase_mess,2022.1.1,35.801821175071765,
,,,,,4,0,4,0,0,0,0,0,,,,,,,,,,,,,[],[],10,up,4000,30,0.0026544222211549416,0,0,-1,10,450.52646956668855,None,449.4810691999737,449.81292270007543,450.477729300037,450.80119230016135,None,None,up,1,1.4019416000228375,449.5533718999941,None,None,None,space,1.4406252999324352,447.547072699992,None,447.547072699992,None,vqnuwy,001,0,fr,2022-05-10_10h48.57.345,3-AFC_adaptive_staircase_mess,2022.1.1,35.801821175071765,
,,,,,4,0,4,0,1,0,1,0,,,,,,,,,,,,,,,,left,4000,30,0.0026544222211549416,0,0,-1,10,452.5123502666286,None,452.46575380000286,452.80503100017086,None,None,None,None,left,1,0.46307629998773336,452.52550210012123,None,None,None,,,,,,,vqnuwy,001,0,fr,2022-05-10_10h48.57.345,3-AFC_adaptive_staircase_mess,2022.1.1,35.801821175071765,
,,,,,4,0,4,0,2,0,2,0,,,,,,,,,,,,,,,,up,4000,10,0.00026544222211549425,-1,0,-1,-10,455.55339616683,None,454.51769500016235,454.8555868000258,455.5073069999926,455.82382269995287,None,None,up,1,1.360316399950534,454.5873753000051,None,None,None,,,,,,,vqnuwy,001,0,fr,2022-05-10_10h48.57.345,3-AFC_adaptive_staircase_mess,2022.1.1,35.801821175071765,
,,,,,4,0,4,0,3,0,3,0,,,,,,,,,,,,,,,,up,4000,10,0.00026544222211549425,-1,0,-1,-10,458.47800186678455,None,457.45187440002337,457.7896157000214,458.4315065999981,458.7770229000598,None,None,up,1,1.359106000047177,457.4851518999785,None,None,None,,,,,,,vqnuwy,001,0,fr,2022-05-10_10h48.57.345,3-AFC_adaptive_staircase_mess,2022.1.1,35.801821175071765,
,,,,,4,0,4,0,4,0,4,0,,,,,,,,,,,,,,,,left,4000,0,8.394020090612804e-05,-1,0,-1,-10,460.44145646674247,None,460.39337910013273,460.7085104000289,None,None,None,None,left,1,0.5960202999413013,460.45600969996303,None,None,None,,,,,,,vqnuwy,001,0,fr,2022-05-10_10h48.57.345,3-AFC_adaptive_staircase_mess,2022.1.1,35.801821175071765,
,,,,,4,0,4,0,5,0,5,0,,,,,,,,,,,,,,,,right,4000,0,8.394020090612804e-05,-1,0,-1,-10,464.61025156669007,None,462.5481845999602,462.883949900046,463.5487484000623,463.8907143000979,464.5597399000544,464.8861079001799,right,1,2.377573600038886,462.6102340000216,None,None,None,,,,,,,vqnuwy,001,0,fr,2022-05-10_10h48.57.345,3-AFC_adaptive_staircase_mess,2022.1.1,35.801821175071765,
,,,,,4,0,4,0,6,0,6,0,,,,,,,,,,,,,,,,right,4000,-10,2.6544222211549425e-05,-1,0,-1,-10,468.53841756662973,None,466.513969700085,466.86180620011874,467.53220720007084,467.85454450012185,468.5217508999631,468.8656629000325,right,1,2.3891900999005884,466.58249760000035,None,None,None,,,,,,,vqnuwy,001,0,fr,2022-05-10_10h48.57.345,3-AFC_adaptive_staircase_mess,2022.1.1,35.801821175071765,
,,,,,4,0,4,0,7,0,7,0,,,,,,,,,,,,,,,,up,4000,-10,2.6544222211549425e-05,-1,0,-1,-10,471.5253323666441,None,470.4911855000537,470.83009820012376,471.5086656999774,471.8453343999572,None,None,up,1,1.8545493001583964,470.557656200137,None,None,None,,,,,,,vqnuwy,001,0,fr,2022-05-10_10h48.57.345,3-AFC_adaptive_staircase_mess,2022.1.1,35.801821175071765,
,,,,,4,0,4,0,8,0,8,0,,,,,,,,,,,,,,,,left,4000,-20,8.394020090612804e-06,-1,0,-1,-10,473.954748466673,None,473.9091869001277,474.2473563000094,474.9066635000054,475.22251390013844,475.9212428999599,476.2330830001738,left,1,2.6506250000093132,473.96944280015305,None,476.46025980007835,None,,,,,,,vqnuwy,001,0,fr,2022-05-10_10h48.57.345,3-AFC_adaptive_staircase_mess,2022.1.1,35.801821175071765,
,,,,,4,0,4,0,9,0,9,0,,,,,,,,,,,,,,,,right,4000,-20,8.394020090612804e-06,-1,0,-1,-10,480.1707926667916,None,478.14637870015576,478.46143060014583,479.14871320012026,479.46915840008296,480.15412600012496,480.49437640002,left,0,2.7326322998851538,478.1758209001273,None,480.6760092000477,None,,,,,,,vqnuwy,001,0,fr,2022-05-10_10h48.57.345,3-AFC_adaptive_staircase_mess,2022.1.1,35.801821175071765,
,,,,,4,0,4,0,10,0,10,0,,,,,,,,,,,,,,,,right,4000,-15,1.4926913094589802e-05,1,1,1,5,484.47740706667923,None,482.4201134000905,482.75083140004426,483.44626840017736,483.77387360017747,484.4297194001265,484.7447415001225,left,0,2.6223625000566244,482.4777508000843,None,484.9937253999524,None,,,,,,,vqnuwy,001,0,fr,2022-05-10_10h48.57.345,3-AFC_adaptive_staircase_mess,2022.1.1,35.801821175071765,
,,,,,4,0,4,0,11,0,11,0,,,,,,,,,,,,,,,,up,4000,-10,2.6544222211549425e-05,1,1,1,5,487.6416968666638,None,486.6131029999815,486.9546070001088,487.5946325000841,487.9407502000686,None,None,up,1,1.8969544998835772,486.6430848001037,None,None,None,,,,,,,vqnuwy,001,0,fr,2022-05-10_10h48.57.345,3-AFC_adaptive_staircase_mess,2022.1.1,35.801821175071765,
,,,,,4,0,4,0,12,0,12,0,,,,,,,,,,,,,,,,up,4000,-10,2.6544222211549425e-05,1,1,1,5,491.0810521667047,None,490.05301890010014,490.3713408000767,491.06438550003804,491.3857341001276,492.0490568999667,492.3769507999532,left,0,3.0435339000541717,490.1204739001114,None,492.58845839998685,None,,,,,,,vqnuwy,001,0,fr,2022-05-10_10h48.57.345,3-AFC_adaptive_staircase_mess,2022.1.1,35.801821175071765,
,,,,,4,0,4,0,13,0,13,0,,,,,,,,,,,,,,,,left,4000,-5,4.720304381429618e-05,1,1,1,5,494.7331643666296,None,494.71649769996293,495.0546945000533,None,None,None,None,left,1,0.546317300060764,494.74541259999387,None,None,None,,,,,,,vqnuwy,001,0,fr,2022-05-10_10h48.57.345,3-AFC_adaptive_staircase_mess,2022.1.1,35.801821175071765,
,,,,,4,0,4,0,14,0,14,0,,,,,,,,,,,,,,,,up,4000,-5,4.720304381429618e-05,1,1,1,5,497.862048866755,None,496.80589560000226,497.13532330002636,497.79982229997404,498.1279200001154,None,None,up,1,1.41677560005337,496.8681485999841,None,None,None,,,,,,,vqnuwy,001,0,fr,2022-05-10_10h48.57.345,3-AFC_adaptive_staircase_mess,2022.1.1,35.801821175071765,
,,,,,4,0,4,0,15,0,15,0,,,,,,,,,,,,,,,,left,4000,-15,1.4926913094589802e-05,-1,2,-1,-5.0,499.84463156672814,None,499.7946769001428,500.11378050013445,500.8180623999797,501.15092690009624,501.8043178000953,502.12016839999706,left,1,2.809166500112042,499.85919740004465,None,502.3564476000611,None,,,,,,,vqnuwy,001,0,fr,2022-05-10_10h48.57.345,3-AFC_adaptive_staircase_mess,2022.1.1,35.801821175071765,
,,,,,4,0,4,0,16,0,16,0,,,,,,,,,,,,,,,,up,4000,-15,1.4926913094589802e-05,-1,2,-1,-5.0,505.2368517667676,None,504.1901815000456,504.50655010016635,505.1865950000938,505.50085159996524,506.17465619998984,506.4896911000833,left,0,2.8788090001326054,504.25307790003717,None,506.73392649996094,None,,,,,,,vqnuwy,001,0,fr,2022-05-10_10h48.57.345,3-AFC_adaptive_staircase_mess,2022.1.1,35.801821175071765,
,,,,,4,0,4,0,17,0,17,0,,,,,,,,,,,,,,,,up,4000,-12.5,1.9905358527674868e-05,1,3,1,2.5,509.66558956663744,None,508.6333622999955,508.96975839999504,509.6489228999708,509.97645350010134,510.6537560999859,510.96769740013406,left,0,2.747388199903071,508.70392040000297,None,511.1928610999603,None,,,,,,,vqnuwy,001,0,fr,2022-05-10_10h48.57.345,3-AFC_adaptive_staircase_mess,2022.1.1,35.801821175071765,
,,,,,4,0,4,0,18,0,18,0,,,,,,,,,,,,,,,,right,4000,-10.0,2.6544222211549425e-05,1,3,1,2.5,515.0071910666923,None,512.9523646000307,513.2910347001161,513.960761600174,514.2909897000063,514.9905244000256,515.3313896001782,right,1,2.760422100080177,513.010638799984,None,515.5365854001138,None,,,,,,,vqnuwy,001,0,fr,2022-05-10_10h48.57.345,3-AFC_adaptive_staircase_mess,2022.1.1,35.801821175071765,
,,,,,4,0,4,0,19,0,19,0,,,,,,,,,,,,,,,,up,4000,-10.0,2.6544222211549425e-05,1,3,1,2.5,518.3347383668336,None,517.3194037000649,517.6685240000952,518.3180717001669,518.6350680000614,None,None,up,1,1.7130394000560045,517.3383820999879,None,None,None,,,,,,,vqnuwy,001,0,fr,2022-05-10_10h48.57.345,3-AFC_adaptive_staircase_mess,2022.1.1,35.801821175071765,
,,,,,4,0,4,0,20,0,20,0,,,,,,,,,,,,,,,,up,4000,-15.0,1.4926913094589802e-05,-1,4,-1,-5.0,521.6256863666388,521.856467399979,520.5675925000105,520.9061135000084,521.5741237001494,521.886771999998,522.5770938000642,522.9080066999886,up,1,2.3062185999006033,520.6340928000864,None,None,None,,,,,,,vqnuwy,001,0,fr,2022-05-10_10h48.57.345,3-AFC_adaptive_staircase_mess,2022.1.1,35.801821175071765,
,,,,,4,0,4,0,21,0,21,0,,,,,,,,,,,,,,,,right,4000,-15.0,1.4926913094589802e-05,-1,4,-1,-5.0,526.4620332667293,None,524.4298829999752,524.7442695000209,525.4520875001326,525.7769045999739,526.4453666000627,526.777223299956,left,0,2.76288940012455,524.4978567999788,None,526.9809141000733,None,,,,,,,vqnuwy,001,0,fr,2022-05-10_10h48.57.345,3-AFC_adaptive_staircase_mess,2022.1.1,35.801821175071765,
,,,,,4,0,4,0,22,0,22,0,,,,,,,,,,,,,,,,right,4000,-12.5,1.9905358527674868e-05,1,5,1,2.5,530.8044718667554,None,528.7813995000906,529.1213857000694,529.7813601000234,530.1220881000627,530.7878052000888,531.1187112000771,up,0,2.621158800087869,528.815782800084,None,531.3179884001147,None,,,,,,,vqnuwy,001,0,fr,2022-05-10_10h48.57.345,3-AFC_adaptive_staircase_mess,2022.1.1,35.801821175071765,
,,,,,4,0,4,0,23,0,23,0,,,,,,,,,,,,,,,,right,4000,-10.0,2.6544222211549425e-05,1,5,1,2.5,534.9747021666883,None,532.9556206001434,533.282310700044,533.9555794000626,534.290363300126,534.9580355000217,535.301465800032,right,1,2.416674999985844,533.0188524001278,None,None,None,,,,,,,vqnuwy,001,0,fr,2022-05-10_10h48.57.345,3-AFC_adaptive_staircase_mess,2022.1.1,35.801821175071765,
,,,,,4,0,4,0,24,0,24,0,,,,,,,,,,,,,,,,left,4000,-10.0,2.6544222211549425e-05,1,5,1,2.5,537.0161654668084,537.2442018000875,536.9994988001417,537.3414262000006,537.9878299999982,538.3226288000587,538.9931441999506,539.3356341000181,left,1,2.499644699972123,537.0322992999572,None,539.5486316001043,None,,,,,,,vqnuwy,001,0,fr,2022-05-10_10h48.57.345,3-AFC_adaptive_staircase_mess,2022.1.1,35.801821175071765,
,,,,,4,0,4,0,25,0,25,0,,,,,,,,,,,,,,,,up,4000,-15.0,1.4926913094589802e-05,-1,6,-1,-5.0,542.1135359667862,542.3456644001417,541.062571400078,541.3969360999763,542.0621525000315,542.3741558000911,543.0690584999975,543.397502399981,left,0,3.3785975999198854,541.1286234001163,None,543.5985120001715,None,,,,,,,vqnuwy,001,0,fr,2022-05-10_10h48.57.345,3-AFC_adaptive_staircase_mess,2022.1.1,35.801821175071765,
,,,,,5,0,5,0,0,0,0,0,,,,,,,,,,,,,[],[],10,right,6000,30,0.003664122665694519,0,0,-1,10,551.5222669668185,None,549.4706550999545,549.7996889001224,550.4689333999995,550.8088251999579,551.4748418000527,551.8129674000666,right,1,2.3790784999728203,549.5377336000092,None,None,None,space,3.404752700123936,545.5994631999638,None,545.5994631999638,None,vqnuwy,001,0,fr,2022-05-10_10h48.57.345,3-AFC_adaptive_staircase_mess,2022.1.1,35.801821175071765,
,,,,,5,0,5,0,1,0,1,0,,,,,,,,,,,,,,,,up,6000,30,0.003664122665694519,0,0,-1,10,554.5044012666369,None,553.461728299968,553.790681600105,554.4601058000699,554.807231800165,None,None,up,1,1.4037583000026643,553.5198637000285,None,None,None,,,,,,,vqnuwy,001,0,fr,2022-05-10_10h48.57.345,3-AFC_adaptive_staircase_mess,2022.1.1,35.801821175071765,
,,,,,5,0,5,0,2,0,2,0,,,,,,,,,,,,,,,,left,6000,10,0.00036641226656945183,-1,0,-1,-10,556.467772766777,None,556.4511061001103,556.7824661000632,None,None,None,None,left,1,0.5195757001638412,556.4847262001131,None,None,None,,,,,,,vqnuwy,001,0,fr,2022-05-10_10h48.57.345,3-AFC_adaptive_staircase_mess,2022.1.1,35.801821175071765,
,,,,,5,0,5,0,3,0,3,0,,,,,,,,,,,,,,,,left,6000,10,0.00036641226656945183,-1,0,-1,-10,558.5639488667405,558.7975749000907,558.5472822000738,558.8854871001095,None,None,None,None,left,1,0.43894330016337335,558.5811640000902,None,None,None,,,,,,,vqnuwy,001,0,fr,2022-05-10_10h48.57.345,3-AFC_adaptive_staircase_mess,2022.1.1,35.801821175071765,
,,,,,5,0,5,0,4,0,4,0,,,,,,,,,,,,,,,,right,6000,0,0.00011586973249842387,-1,0,-1,-10,562.5991319667703,None,560.5439243000001,560.8804001000244,561.5465629999526,561.8809470001142,562.5488617999945,562.8806877001189,right,1,2.553483000025153,560.6113923999947,None,563.1157460000832,None,,,,,,,vqnuwy,001,0,fr,2022-05-10_10h48.57.345,3-AFC_adaptive_staircase_mess,2022.1.1,35.801821175071765,
,,,,,5,0,5,0,5,0,5,0,,,,,,,,,,,,,,,,up,6000,0,0.00011586973249842387,-1,0,-1,-10,565.7375960667307,None,564.6837249000091,565.0227264000569,565.6861088001169,566.019290999975,None,None,up,1,1.4038023999892175,564.7520700001623,None,None,None,,,,,,,vqnuwy,001,0,fr,2022-05-10_10h48.57.345,3-AFC_adaptive_staircase_mess,2022.1.1,35.801821175071765,
,,,,,5,0,5,0,6,0,6,0,,,,,,,,,,,,,,,,right,6000,-10,3.664122665694518e-05,-1,0,-1,-10,569.7062808666999,None,567.6868137000129,568.0209627000149,568.6872495000716,569.0244096000679,569.654287399957,569.9675430001225,right,1,3.1231744999531657,567.7203881000169,None,570.2236842000857,None,,,,,,,vqnuwy,001,0,fr,2022-05-10_10h48.57.345,3-AFC_adaptive_staircase_mess,2022.1.1,35.801821175071765,
,,,,,5,0,5,0,7,0,7,0,,,,,,,,,,,,,,,,left,6000,-10,3.664122665694518e-05,-1,0,-1,-10,572.4146841667282,572.6401311999653,572.3634585000109,572.6989680000115,573.3724621001165,573.6935849001165,574.3658170001581,574.694833500078,left,1,2.6076754999812692,572.4272861999925,None,574.9294743000064,None,,,,,,,vqnuwy,001,0,fr,2022-05-10_10h48.57.345,3-AFC_adaptive_staircase_mess,2022.1.1,35.801821175071765,
,,,,,5,0,5,0,8,0,8,0,,,,,,,,,,,,,,,,right,6000,-20,1.1586973249842387e-05,-1,0,-1,-10,578.5857138666945,578.811775600072,576.5620786000509,576.8931018000003,577.5469480000902,577.8657384000253,578.5690472000279,578.9052778000478,right,1,2.5984284000005573,576.6288258000277,None,579.1117663001642,None,,,,,,,vqnuwy,001,0,fr,2022-05-10_10h48.57.345,3-AFC_adaptive_staircase_mess,2022.1.1,35.801821175071765,
,,,,,5,0,5,0,9,0,9,0,,,,,,,,,,,,,,,,right,6000,-20,1.1586973249842387e-05,-1,0,-1,-10,582.7936277667216,None,580.7660966999829,581.1049164000433,581.768538699951,582.1020319000818,582.7432671999559,583.072646799963,left,0,2.682293900055811,580.8013623000588,None,583.3035457001533,None,,,,,,,vqnuwy,001,0,fr,2022-05-10_10h48.57.345,3-AFC_adaptive_staircase_mess,2022.1.1,35.801821175071765,
,,,,,5,0,5,0,10,0,10,0,,,,,,,,,,,,,,,,left,6000,-15,2.0604875954866497e-05,1,1,1,5,585.064354766688,None,585.013691799948,585.3489900000859,586.013304800028,586.3584784001578,587.0059811000247,587.3425465000328,left,1,2.6070905001834035,585.0845598999877,None,587.5519928999711,None,,,,,,,vqnuwy,001,0,fr,2022-05-10_10h48.57.345,3-AFC_adaptive_staircase_mess,2022.1.1,35.801821175071765,
,,,,,5,0,5,0,11,0,11,0,,,,,,,,,,,,,,,,up,6000,-15,2.0604875954866497e-05,1,1,1,5,590.2648577667462,None,589.2102233001497,589.5466840001754,590.2138777000364,590.5451702000573,591.2146042000968,591.544588800054,right,0,2.8130622000899166,589.2785130001139,None,591.7852927001659,None,,,,,,,vqnuwy,001,0,fr,2022-05-10_10h48.57.345,3-AFC_adaptive_staircase_mess,2022.1.1,35.801821175071765,
,,,,,5,0,5,0,12,0,12,0,,,,,,,,,,,,,,,,up,6000,-10,3.664122665694518e-05,1,1,1,5,594.6232944667029,594.8525541001,593.5977563001215,593.9421942001209,594.6066278000362,594.9463945999742,595.6134348001797,595.9493911999743,left,0,2.68350200005807,593.6655699000694,None,596.1469177999534,None,,,,,,,vqnuwy,001,0,fr,2022-05-10_10h48.57.345,3-AFC_adaptive_staircase_mess,2022.1.1,35.801821175071765,
,,,,,5,0,5,0,13,0,13,0,,,,,,,,,,,,,,,,up,6000,-5,6.515833892261494e-05,1,1,1,5,598.8778087667345,None,597.8538449001499,598.1872870000079,598.8611421000678,599.178886000067,599.846570600057,600.1937752000522,left,0,2.585149500053376,597.922596000135,None,600.3987304000184,None,,,,,,,vqnuwy,001,0,fr,2022-05-10_10h48.57.345,3-AFC_adaptive_staircase_mess,2022.1.1,35.801821175071765,
,,,,,5,0,5,0,14,0,14,0,,,,,,,,,,,,,,,,left,6000,0,0.00011586973249842387,1,1,1,5,602.0703771666779,None,602.0209211001638,602.3541619000025,None,None,None,None,left,1,0.612913099816069,602.0866609001532,None,None,None,,,,,,,vqnuwy,001,0,fr,2022-05-10_10h48.57.345,3-AFC_adaptive_staircase_mess,2022.1.1,35.801821175071765,
,,,,,5,0,5,0,15,0,15,0,,,,,,,,,,,,,,,,right,6000,0,0.00011586973249842387,1,1,1,5,606.2855019667807,None,604.2352064000443,604.5700911001768,605.231038399972,605.5668433001265,606.2350952001289,606.582503200043,right,1,2.446611399995163,604.3015632000752,None,606.7815604000352,None,,,,,,,vqnuwy,001,0,fr,2022-05-10_10h48.57.345,3-AFC_adaptive_staircase_mess,2022.1.1,35.801821175071765,
,,,,,5,0,5,0,16,0,16,0,,,,,,,,,,,,,,,,up,6000,-10,3.664122665694518e-05,-1,2,-1,-5.0,609.3073531666926,None,608.2952344000805,608.6138641000725,609.2906865000259,609.6103964999784,610.2767970000859,610.6163562999573,left,0,2.9763196001295,608.3314816001803,None,610.8204833001364,None,,,,,,,vqnuwy,001,0,fr,2022-05-10_10h48.57.345,3-AFC_adaptive_staircase_mess,2022.1.1,35.801821175071765,
,,,,,5,0,5,0,17,0,17,0,,,,,,,,,,,,,,,,left,6000,-7.5,4.886186104779051e-05,1,3,1,2.5,612.8339418667058,None,612.8172752000391,613.1541969999671,613.8077354000416,614.1542621999979,614.8249508000445,615.1623097001575,left,1,2.7268526998814195,612.8525962000713,None,615.3672653001267,None,,,,,,,vqnuwy,001,0,fr,2022-05-10_10h48.57.345,3-AFC_adaptive_staircase_mess,2022.1.1,35.801821175071765,
,,,,,5,0,5,0,18,0,18,0,,,,,,,,,,,,,,,,left,6000,-7.5,4.886186104779051e-05,1,3,1,2.5,617.1062949668305,None,617.0896283001639,617.4111764000263,618.102748000063,618.421023900155,619.081711600069,619.4155773001257,up,0,3.363785099936649,617.1282452000305,None,619.6494057001546,None,,,,,,,vqnuwy,001,0,fr,2022-05-10_10h48.57.345,3-AFC_adaptive_staircase_mess,2022.1.1,35.801821175071765,
,,,,,5,0,5,0,19,0,19,0,,,,,,,,,,,,,,,,left,6000,-5.0,6.515833892261494e-05,1,3,1,2.5,622.0344581667489,None,622.0177915000822,622.3521129000001,623.0177570001688,None,None,None,left,1,1.1140038999728858,622.0510416000616,None,None,None,,,,,,,vqnuwy,001,0,fr,2022-05-10_10h48.57.345,3-AFC_adaptive_staircase_mess,2022.1.1,35.801821175071765,
,,,,,5,0,5,0,20,0,20,0,,,,,,,,,,,,,,,,up,6000,-5.0,6.515833892261494e-05,1,3,1,2.5,625.7315463666494,None,624.683374900138,625.015822699992,625.6826159001794,626.0253260000609,626.6835878000129,627.0206894001458,up,1,2.976762600010261,624.746797000058,None,627.2544727001805,None,,,,,,,vqnuwy,001,0,fr,2022-05-10_10h48.57.345,3-AFC_adaptive_staircase_mess,2022.1.1,35.801821175071765,
,,,,,5,0,5,0,21,0,21,0,,,,,,,,,,,,,,,,right,6000,-10.0,3.664122665694518e-05,-1,4,-1,-5.0,631.2742535668115,None,629.2434402999934,629.576683799969,630.2594763000961,630.5899297001306,631.2575869001448,631.5978986001574,right,1,3.3574304000940174,629.3100907001644,None,631.7959499000572,None,,,,,,,vqnuwy,001,0,fr,2022-05-10_10h48.57.345,3-AFC_adaptive_staircase_mess,2022.1.1,35.801821175071765,
,,,,,5,0,5,0,22,0,22,0,,,,,,,,,,,,,,,,left,6000,-10.0,3.664122665694518e-05,-1,4,-1,-5.0,634.2469363667226,634.4765256000683,634.194333899999,634.5409729999956,635.1929993999656,635.5306931000669,636.1997561999597,636.5328565000091,left,1,2.6751350997947156,634.2639039000496,None,636.7684073001146,None,,,,,,,vqnuwy,001,0,fr,2022-05-10_10h48.57.345,3-AFC_adaptive_staircase_mess,2022.1.1,35.801821175071765,
,,,,,5,0,5,0,23,0,23,0,,,,,,,,,,,,,,,,right,6000,-15.0,2.0604875954866497e-05,-1,4,-1,-5.0,640.5182590666848,640.7450429999735,638.4773067000788,638.8080150000751,639.4630247000605,639.8066853999626,640.4668513000943,640.806216500001,left,0,2.7817479998338968,638.5099210001063,None,641.0358215000015,None,,,,,,,vqnuwy,001,0,fr,2022-05-10_10h48.57.345,3-AFC_adaptive_staircase_mess,2022.1.1,35.801821175071765,
,,,,,5,0,5,0,24,0,24,0,,,,,,,,,,,,,,,,up,6000,-12.5,2.7477043692881217e-05,1,5,1,2.5,643.853656966767,None,642.8028434000444,643.1354386000894,643.8005095000844,644.1470121000893,644.809355000034,645.1473909001797,left,0,2.7769561000168324,642.8663129999768,None,645.3518517001066,None,,,,,,,vqnuwy,001,0,fr,2022-05-10_10h48.57.345,3-AFC_adaptive_staircase_mess,2022.1.1,35.801821175071765,
,,,,,5,0,5,0,25,0,25,0,,,,,,,,,,,,,,,,left,6000,-10.0,3.664122665694518e-05,1,5,1,2.5,647.2389076667062,None,647.1868706000969,647.5140713001601,648.2058421000838,648.5443915000651,649.1750487999525,649.5122605001088,up,0,2.898593300022185,647.2571336000692,None,649.7475736001506,None,,,,,,,vqnuwy,001,0,fr,2022-05-10_10h48.57.345,3-AFC_adaptive_staircase_mess,2022.1.1,35.801821175071765,
,,,,,5,0,5,0,26,0,26,0,,,,,,,,,,,,,,,,left,6000,-7.5,4.886186104779051e-05,1,5,1,2.5,651.6968636667045,None,651.6801970000379,652.0177832001355,652.6775181000121,653.0135054001585,653.6859948001802,654.0222233000677,right,0,3.146796400193125,651.7125781001523,None,654.2221123001073,None,,,,,,,vqnuwy,001,0,fr,2022-05-10_10h48.57.345,3-AFC_adaptive_staircase_mess,2022.1.1,35.801821175071765,
,,,,,5,0,5,0,27,0,27,0,,,,,,,,,,,,,,,,up,6000,-5.0,6.515833892261494e-05,1,5,1,2.5,657.437955166741,None,656.4023220001254,656.725381599972,657.3877167000901,657.7297879999969,658.3878332001623,658.7154666001443,right,0,2.921053299913183,656.4342410000972,None,658.9552046000026,None,,,,,,,vqnuwy,001,0,fr,2022-05-10_10h48.57.345,3-AFC_adaptive_staircase_mess,2022.1.1,35.801821175071765,
,,,,,5,0,5,0,28,0,28,0,,,,,,,,,,,,,,,,right,6000,-2.5,8.689004143746872e-05,1,5,1,2.5,662.9065482668268,None,660.856514000101,661.1860591999721,661.8536882000044,662.1891749000642,662.8572672000155,663.1704694000073,right,1,2.579056200105697,660.9200530000962,None,663.4362341000233,None,,,,,,,vqnuwy,001,0,fr,2022-05-10_10h48.57.345,3-AFC_adaptive_staircase_mess,2022.1.1,35.801821175071765,
,,,,,5,0,5,0,29,0,29,0,,,,,,,,,,,,,,,,up,6000,-2.5,8.689004143746872e-05,1,5,1,2.5,666.0474647668345,None,665.0171759000514,665.3462906000204,666.0307981001679,666.3598784999922,667.0316006001085,667.3653846001253,right,0,3.007884999969974,665.0843663001433,None,667.6001387999859,None,,,,,,,vqnuwy,001,0,fr,2022-05-10_10h48.57.345,3-AFC_adaptive_staircase_mess,2022.1.1,35.801821175071765,
,,,,,5,0,5,0,30,0,30,0,,,,,,,,,,,,,,,,right,6000,0.0,0.00011586973249842387,1,5,1,2.5,671.6538687667964,None,669.6321851999965,669.9668582000304,670.6336175000761,670.9759713001549,671.6372021001298,671.9609708001371,right,1,2.4715468999929726,669.7002581001725,None,672.1749986000359,None,,,,,,,vqnuwy,001,0,fr,2022-05-10_10h48.57.345,3-AFC_adaptive_staircase_mess,2022.1.1,35.801821175071765,
,,,,,5,0,5,0,31,0,31,0,,,,,,,,,,,,,,,,right,6000,0.0,0.00011586973249842387,1,5,1,2.5,675.6942083666256,None,673.660931300139,673.9995784000494,674.6751957000233,674.9999281000346,675.677541699959,676.0064982001204,right,1,3.2605592999607325,673.7271143000107,None,676.241483299993,None,,,,,,,vqnuwy,001,0,fr,2022-05-10_10h48.57.345,3-AFC_adaptive_staircase_mess,2022.1.1,35.801821175071765,
,,,,,5,0,5,0,32,0,32,0,,,,,,,,,,,,,,,,left,6000,-5.0,6.515833892261494e-05,-1,6,-1,-5.0,678.5580358666523,None,678.5413691999856,678.8895619001705,679.5453515001573,679.894640600076,680.5292342000175,680.8499424001202,left,1,3.03872359986417,678.5732793000061,None,681.099743800005,None,,,,,,,vqnuwy,001,0,fr,2022-05-10_10h48.57.345,3-AFC_adaptive_staircase_mess,2022.1.1,35.801821175071765,
,,,,,6,0,6,0,0,0,0,0,,,,,,,,,,,,,[],[],10,left,8000,30,0.005740768107484416,0,0,-1,10,684.5994919667176,None,684.5828253000509,684.9237645999528,None,None,None,None,left,1,0.5632513999007642,684.6161508001387,None,None,None,space,1.378288900014013,682.6968539000954,None,682.6968539000954,None,vqnuwy,001,0,fr,2022-05-10_10h48.57.345,3-AFC_adaptive_staircase_mess,2022.1.1,35.801821175071765,
,,,,,6,0,6,0,1,0,1,0,,,,,,,,,,,,,,,,up,8000,30,0.005740768107484416,0,0,-1,10,687.7362036668385,None,686.6829363000579,687.0199605999514,687.6875277999789,688.018907800084,None,None,up,1,1.3447457998991013,686.7471321001649,None,None,None,,,,,,,vqnuwy,001,0,fr,2022-05-10_10h48.57.345,3-AFC_adaptive_staircase_mess,2022.1.1,35.801821175071765,
,,,,,6,0,6,0,2,0,2,0,,,,,,,,,,,,,,,,right,8000,10,0.0005740768107484417,-1,0,-1,-10,691.6536750668349,691.8854110999964,689.6235174001195,689.9600917999633,690.6275059001055,690.968908400042,691.6370084001683,691.951830400154,right,1,2.385451699839905,689.6578190000728,None,None,None,,,,,,,vqnuwy,001,0,fr,2022-05-10_10h48.57.345,3-AFC_adaptive_staircase_mess,2022.1.1,35.801821175071765,
,,,,,6,0,6,0,3,0,3,0,,,,,,,,,,,,,,,,up,8000,10,0.0005740768107484417,-1,0,-1,-10,694.6063467667593,None,693.5957673999947,693.9251379000489,694.5896801000927,694.9320462001488,None,None,up,1,1.4226907999254763,693.6292553001549,None,None,None,,,,,,,vqnuwy,001,0,fr,2022-05-10_10h48.57.345,3-AFC_adaptive_staircase_mess,2022.1.1,35.801821175071765,
,,,,,6,0,6,0,4,0,4,0,,,,,,,,,,,,,,,,right,8000,0,0.0001815390273850507,-1,0,-1,-10,698.6135463666326,698.8421734001022,696.5612323000096,696.8962638000958,697.5627511001658,697.8958110001404,698.5620921000373,698.9116690000519,right,1,2.422732900129631,696.6307374001481,None,699.0916062666258,None,,,,,,,vqnuwy,001,0,fr,2022-05-10_10h48.57.345,3-AFC_adaptive_staircase_mess,2022.1.1,35.801821175071765,
,,,,,6,0,6,0,5,0,5,0,,,,,,,,,,,,,,,,right,8000,0,0.0001815390273850507,-1,0,-1,-10,702.6193288667748,None,700.6027677000966,700.9415764999576,701.5987472000998,701.9350730001461,702.6026622001082,702.9415486000944,right,1,2.4159698002040386,700.6354974000715,None,None,None,,,,,,,vqnuwy,001,0,fr,2022-05-10_10h48.57.345,3-AFC_adaptive_staircase_mess,2022.1.1,35.801821175071765,
,,,,,6,0,6,0,6,0,6,0,,,,,,,,,,,,,,,,up,8000,-10,5.740768107484415e-05,-1,0,-1,-10,705.6233607666256,None,704.5686868000776,704.9031524001621,705.5715028000996,705.9027482999954,706.5715874000452,706.9061650000513,left,0,2.7983146000187844,704.636665900005,None,707.139876200119,None,,,,,,,vqnuwy,001,0,fr,2022-05-10_10h48.57.345,3-AFC_adaptive_staircase_mess,2022.1.1,35.801821175071765,
,,,,,6,0,6,0,7,0,7,0,,,,,,,,,,,,,,,,up,8000,-5,0.00010208689723347648,1,1,1,5,709.9926165666586,710.2207841000054,708.943392300047,709.277211900102,709.9422971999738,710.2875787001103,None,None,up,1,1.705307399854064,709.0101284000557,None,None,None,,,,,,,vqnuwy,001,0,fr,2022-05-10_10h48.57.345,3-AFC_adaptive_staircase_mess,2022.1.1,35.801821175071765,
,,,,,6,0,6,0,8,0,8,0,,,,,,,,,,,,,,,,up,8000,-5,0.00010208689723347648,1,1,1,5,713.2634090667746,None,712.2484828000888,712.579677999951,713.2467424001079,713.5806847000495,714.2458993999753,714.581094800029,up,1,2.6401846001390368,712.2827346001286,None,714.8132231000345,None,,,,,,,vqnuwy,001,0,fr,2022-05-10_10h48.57.345,3-AFC_adaptive_staircase_mess,2022.1.1,35.801821175071765,
,,,,,6,0,6,0,9,0,9,0,,,,,,,,,,,,,,,,left,8000,-15,3.228271145173278e-05,-1,2,-1,-5.0,716.4972565668324,None,716.4435926000588,716.7586300000548,717.4495250000618,717.7819995000027,718.449542599963,718.788247599965,left,1,2.9663083001505584,716.5168773999903,None,718.9864280000329,None,,,,,,,vqnuwy,001,0,fr,2022-05-10_10h48.57.345,3-AFC_adaptive_staircase_mess,2022.1.1,35.801821175071765,
,,,,,6,0,6,0,10,0,10,0,,,,,,,,,,,,,,,,up,8000,-15,3.228271145173278e-05,-1,2,-1,-5.0,722.0405103667329,None,720.9837072000373,721.316357200034,721.990184100112,722.3171522000339,722.9893330000341,723.3209037999623,left,0,2.6977140000090003,721.0576249000151,None,723.5569212001283,None,,,,,,,vqnuwy,001,0,fr,2022-05-10_10h48.57.345,3-AFC_adaptive_staircase_mess,2022.1.1,35.801821175071765,
,,,,,6,0,6,0,11,0,11,0,,,,,,,,,,,,,,,,up,8000,-12.5,4.304968760923004e-05,1,3,1,2.5,726.3104934667392,726.5387687999755,725.2552473000251,725.5902613000944,726.2610295000486,726.5960753001273,727.2569883000106,727.5904189001303,left,0,2.687677999958396,725.3247057001572,None,727.8183944001794,None,,,,,,,vqnuwy,001,0,fr,2022-05-10_10h48.57.345,3-AFC_adaptive_staircase_mess,2022.1.1,35.801821175071765,
,,,,,6,0,6,0,12,0,12,0,,,,,,,,,,,,,,,,right,8000,-10.0,5.740768107484415e-05,1,3,1,2.5,731.5572841666328,None,729.536323999986,729.875669100089,730.5527645000257,730.8870719000697,731.5406174999662,731.8897398000117,left,0,2.725436600157991,729.6060852999799,None,732.0945785001386,None,,,,,,,vqnuwy,001,0,fr,2022-05-10_10h48.57.345,3-AFC_adaptive_staircase_mess,2022.1.1,35.801821175071765,
,,,,,6,0,6,0,13,0,13,0,,,,,,,,,,,,,,,,left,8000,-7.5,7.655437308410152e-05,1,3,1,2.5,733.9147817667729,None,733.8625439000316,734.2063905000687,734.8590286001563,735.1893621000927,735.8699326000642,736.2130834001582,left,1,2.9253227999433875,733.9339899001643,None,736.4134911999572,None,,,,,,,vqnuwy,001,0,fr,2022-05-10_10h48.57.345,3-AFC_adaptive_staircase_mess,2022.1.1,35.801821175071765,
,,,,,6,0,6,0,14,0,14,0,,,,,,,,,,,,,,,,left,8000,-7.5,7.655437308410152e-05,1,3,1,2.5,738.4104557666617,None,738.393789099995,738.7327759000473,739.3712453001644,739.7106006001122,740.39981920016,740.7427891001571,left,1,3.056022500153631,738.4270602001343,None,740.9493015999906,None,,,,,,,vqnuwy,001,0,fr,2022-05-10_10h48.57.345,3-AFC_adaptive_staircase_mess,2022.1.1,35.801821175071765,
,,,,,6,0,6,0,15,0,15,0,,,,,,,,,,,,,,,,up,8000,-12.5,4.304968760923004e-05,-1,4,-1,-5.0,744.0511725666622,744.278595100157,743.0348348000553,743.3634571000002,744.003007600084,744.3429870000109,745.0365765001625,745.3667743001133,left,0,2.830650799907744,743.0693975000177,None,745.5730290000793,None,,,,,,,vqnuwy,001,0,fr,2022-05-10_10h48.57.345,3-AFC_adaptive_staircase_mess,2022.1.1,35.801821175071765,
,,,,,6,0,6,0,16,0,16,0,,,,,,,,,,,,,,,,up,8000,-10.0,5.740768107484415e-05,1,5,1,2.5,748.4627616666878,None,747.4163410000037,747.7615581001155,748.4099942001048,748.7280361000448,749.4374243000057,749.7701791999862,left,0,2.5406172000803053,747.487085300032,None,749.9636540999636,None,,,,,,,vqnuwy,001,0,fr,2022-05-10_10h48.57.345,3-AFC_adaptive_staircase_mess,2022.1.1,35.801821175071765,
,,,,,6,0,6,0,17,0,17,0,,,,,,,,,,,,,,,,right,8000,-7.5,7.655437308410152e-05,1,5,1,2.5,753.5882870667303,753.8165329000913,751.5574825999793,751.889230000088,752.5386251001619,752.8782117001247,753.5374308000319,753.8813074999489,left,0,2.6788465999998152,751.5900982001331,None,754.1108046001755,None,,,,,,,vqnuwy,001,0,fr,2022-05-10_10h48.57.345,3-AFC_adaptive_staircase_mess,2022.1.1,35.801821175071765,
,,,,,6,0,6,0,18,0,18,0,,,,,,,,,,,,,,,,left,8000,-5.0,0.00010208689723347648,1,5,1,2.5,755.8306341667815,756.0568872001022,755.8139675001148,756.1542901999783,756.8257325000595,757.1539477000479,757.8041837001219,758.1186532999855,left,1,2.419884300092235,755.8476209000219,None,None,None,,,,,,,vqnuwy,001,0,fr,2022-05-10_10h48.57.345,3-AFC_adaptive_staircase_mess,2022.1.1,35.801821175071765,
,,,,,6,0,6,0,19,0,19,0,,,,,,,,,,,,,,,,left,8000,-5.0,0.00010208689723347648,1,5,1,2.5,759.8113812667473,None,759.7947146000806,760.1192094001453,760.7972244999837,None,None,None,left,1,0.9873585000168532,759.8243164001033,None,None,None,,,,,,,vqnuwy,001,0,fr,2022-05-10_10h48.57.345,3-AFC_adaptive_staircase_mess,2022.1.1,35.801821175071765,
,,,,,6,0,6,0,20,0,20,0,,,,,,,,,,,,,,,,left,8000,-10.0,5.740768107484415e-05,-1,6,-1,-5.0,762.3468628668381,None,762.3301962001715,762.6709587001242,763.316555300029,763.65063249995,764.341348499991,764.6638291000854,left,1,2.7387779999990016,762.3609649999999,None,764.8876807000488,None,,,,,,,vqnuwy,001,0,fr,2022-05-10_10h48.57.345,3-AFC_adaptive_staircase_mess,2022.1.1,35.801821175071765,
,,,,,7,0,7,0,0,0,0,0,,,,,,,,,,,,,[],[],10,right,750,30,0.0012851978913844323,0,0,-1,10,770.1963922668403,None,768.168318600161,768.4994537001476,769.1568062000442,769.4880047000479,770.147447100142,770.4664156001527,right,1,2.4206987998913974,768.1990237999707,None,None,None,space,1.4753439999185503,766.1846182001755,None,766.1846182001755,None,vqnuwy,001,0,fr,2022-05-10_10h48.57.345,3-AFC_adaptive_staircase_mess,2022.1.1,35.801821175071765,
,,,,,7,0,7,0,1,0,1,0,,,,,,,,,,,,,,,,right,750,30,0.0012851978913844323,0,0,-1,10,774.1695067666626,None,772.1397784999572,772.4743359000422,773.1414419000503,773.4760590000078,774.152840099996,774.4727020000573,right,1,2.3293770998716354,772.2094111000188,None,None,None,,,,,,,vqnuwy,001,0,fr,2022-05-10_10h48.57.345,3-AFC_adaptive_staircase_mess,2022.1.1,35.801821175071765,
,,,,,7,0,7,0,2,0,2,0,,,,,,,,,,,,,,,,up,750,10,0.00012851978913844324,-1,0,-1,-10,777.122962866739,None,776.0935947999824,776.4109046000522,777.1062962000724,777.4252436000388,None,None,up,1,1.5183457999955863,776.1253880001605,None,None,None,,,,,,,vqnuwy,001,0,fr,2022-05-10_10h48.57.345,3-AFC_adaptive_staircase_mess,2022.1.1,35.801821175071765,
,,,,,7,0,7,0,3,0,3,0,,,,,,,,,,,,,,,,left,750,10,0.00012851978913844324,-1,0,-1,-10,779.2249054667229,None,779.1799614999909,779.5252774001565,None,None,None,None,left,1,0.48342419997788966,779.2398167001083,None,None,None,,,,,,,vqnuwy,001,0,fr,2022-05-10_10h48.57.345,3-AFC_adaptive_staircase_mess,2022.1.1,35.801821175071765,
,,,,,7,0,7,0,4,0,4,0,,,,,,,,,,,,,,,,right,750,0,4.064152580820497e-05,-1,0,-1,-10,783.2962857667046,None,781.2635967000388,781.5837400001474,782.2376493001357,782.5593065000139,783.2461357000284,783.5913126999512,right,1,2.4571260001976043,781.2985861001071,None,783.7752245667546,None,,,,,,,vqnuwy,001,0,fr,2022-05-10_10h48.57.345,3-AFC_adaptive_staircase_mess,2022.1.1,35.801821175071765,
,,,,,7,0,7,0,5,0,5,0,,,,,,,,,,,,,,,,right,750,0,4.064152580820497e-05,-1,0,-1,-10,787.2957328668019,None,785.2563825000543,785.5819965000264,786.2463818001561,786.5697531001642,787.2474652000237,787.5709073001053,right,1,2.355791499838233,785.3198401001282,None,None,None,,,,,,,vqnuwy,001,0,fr,2022-05-10_10h48.57.345,3-AFC_adaptive_staircase_mess,2022.1.1,35.801821175071765,
,,,,,7,0,7,0,6,0,6,0,,,,,,,,,,,,,,,,right,750,-10,1.2851978913844322e-05,-1,0,-1,-10,791.2141626666455,None,789.1859416000079,789.5035997000523,790.2085239000153,790.5310247000307,791.1974959999789,791.5194690001663,left,0,2.906185300089419,789.2487977000419,None,791.7395028001629,None,,,,,,,vqnuwy,001,0,fr,2022-05-10_10h48.57.345,3-AFC_adaptive_staircase_mess,2022.1.1,35.801821175071765,
,,,,,7,0,7,0,7,0,7,0,,,,,,,,,,,,,,,,left,750,-5,2.285440948074376e-05,1,1,1,5,793.7131175667203,793.9448355999775,793.6777317000087,794.004295400111,794.6818089999724,794.9993953001685,795.6654517001007,796.0135252999607,left,1,2.556443199981004,793.7425822000951,None,796.2482613001484,None,,,,,,,vqnuwy,001,0,fr,2022-05-10_10h48.57.345,3-AFC_adaptive_staircase_mess,2022.1.1,35.801821175071765,
,,,,,7,0,7,0,8,0,8,0,,,,,,,,,,,,,,,,up,750,-5,2.285440948074376e-05,1,1,1,5,798.8678016667875,None,797.819188100053,798.1477998001501,798.8150341999717,799.1293107001111,799.8198233000003,800.1524176001549,up,1,2.397482499945909,797.8538862001151,None,None,None,,,,,,,vqnuwy,001,0,fr,2022-05-10_10h48.57.345,3-AFC_adaptive_staircase_mess,2022.1.1,35.801821175071765,
,,,,,7,0,7,0,9,0,9,0,,,,,,,,,,,,,,,,left,750,-15,7.22719885372964e-06,-1,2,-1,-5.0,801.8022952667127,None,801.785628600046,802.1232263999991,802.752006100025,803.0904810000211,803.7413091999479,804.0888861999847,left,1,2.559389099944383,801.8042167001404,None,804.3232156999875,None,,,,,,,vqnuwy,001,0,fr,2022-05-10_10h48.57.345,3-AFC_adaptive_staircase_mess,2022.1.1,35.801821175071765,
,,,,,7,0,7,0,10,0,10,0,,,,,,,,,,,,,,,,left,750,-15,7.22719885372964e-06,-1,2,-1,-5.0,805.9224933668195,None,805.873659200035,806.2221850000788,806.8899038000964,807.2283717000391,807.8913219000679,808.2255254001357,left,1,2.64863339997828,805.9390198001638,None,808.4312112999614,None,,,,,,,vqnuwy,001,0,fr,2022-05-10_10h48.57.345,3-AFC_adaptive_staircase_mess,2022.1.1,35.801821175071765,
,,,,,7,0,7,0,11,0,11,0,,,,,,,,,,,,,,,,up,750,-20.0,4.0641525808204974e-06,-1,2,-1,-5.0,811.1785512667304,None,810.159141600132,810.4877210999839,811.1260665000882,811.4463949000929,812.1323557000142,812.4638080000877,up,1,2.5879852999933064,810.1913205001038,None,812.6983274000231,None,,,,,,,vqnuwy,001,0,fr,2022-05-10_10h48.57.345,3-AFC_adaptive_staircase_mess,2022.1.1,35.801821175071765,
,,,,,7,0,7,0,12,0,12,0,,,,,,,,,,,,,,,,left,750,-20.0,4.0641525808204974e-06,-1,2,-1,-5.0,814.3350657667654,None,814.2988317999989,814.6332235999871,815.3127623000182,815.6308997999877,816.2854113001376,816.6001798000652,left,1,2.8318799999542534,814.3639542001765,None,816.8380666000303,None,,,,,,,vqnuwy,001,0,fr,2022-05-10_10h48.57.345,3-AFC_adaptive_staircase_mess,2022.1.1,35.801821175071765,
,,,,,7,0,7,0,13,0,13,0,,,,,,,,,,,,,,,,left,750,-25.0,2.285440948074376e-06,-1,2,-1,-5.0,818.7885901667798,None,818.7360106001142,819.079570400063,819.7393141000066,820.0683552999981,820.738282199949,821.0742570001166,up,0,2.7255932001862675,818.8060588000808,None,821.3061431001406,None,,,,,,,vqnuwy,001,0,fr,2022-05-10_10h48.57.345,3-AFC_adaptive_staircase_mess,2022.1.1,35.801821175071765,
,,,,,7,0,7,0,14,0,14,0,,,,,,,,,,,,,,,,left,750,-22.5,3.0476844862008467e-06,1,3,1,2.5,823.0618636666952,None,823.0451970000286,823.3747072999831,824.0756551001687,824.4144960001577,825.0470006000251,825.3775965999812,left,1,2.5992550998926163,823.0763068001252,None,825.5824951000977,None,,,,,,,vqnuwy,001,0,fr,2022-05-10_10h48.57.345,3-AFC_adaptive_staircase_mess,2022.1.1,35.801821175071765,
,,,,,7,0,7,0,15,0,15,0,,,,,,,,,,,,,,,,up,750,-22.5,3.0476844862008467e-06,1,3,1,2.5,828.2179268666698,None,827.1720686999615,827.5161747001112,828.1683114001062,828.4817749001086,829.1813624000642,829.5258691001218,left,0,2.6970911999233067,827.2342781999614,None,829.7385041001253,None,,,,,,,vqnuwy,001,0,fr,2022-05-10_10h48.57.345,3-AFC_adaptive_staircase_mess,2022.1.1,35.801821175071765,
,,,,,7,0,7,0,16,0,16,0,,,,,,,,,,,,,,,,right,750,-20.0,4.0641525808204974e-06,1,3,1,2.5,833.5424351667209,None,831.5007101001684,831.8296527001075,832.4919998000842,832.8238677000627,833.4919859000947,833.8353638001718,left,0,2.813776300055906,831.5341454001609,None,834.0340348000173,None,,,,,,,vqnuwy,001,0,fr,2022-05-10_10h48.57.345,3-AFC_adaptive_staircase_mess,2022.1.1,35.801821175071765,
,,,,,7,0,7,0,17,0,17,0,,,,,,,,,,,,,,,,up,750,-17.5,5.419634570106019e-06,1,3,1,2.5,836.945237166776,None,835.8912844001316,836.2206467001233,836.8904659000691,837.2224169000983,837.8915611000266,838.219588899985,left,0,2.6017598998732865,835.9537679001223,None,838.42729900009,None,,,,,,,vqnuwy,001,0,fr,2022-05-10_10h48.57.345,3-AFC_adaptive_staircase_mess,2022.1.1,35.801821175071765,
,,,,,7,0,7,0,18,0,18,0,,,,,,,,,,,,,,,,right,750,-15.0,7.22719885372964e-06,1,3,1,2.5,842.0775911666608,None,840.0622066000942,840.3960321999621,841.0607203000691,841.3915439001285,842.0609244999941,842.3990980000235,left,0,2.9867583999875933,840.0963316000998,None,842.599911400117,None,,,,,,,vqnuwy,001,0,fr,2022-05-10_10h48.57.345,3-AFC_adaptive_staircase_mess,2022.1.1,35.801821175071765,
,,,,,7,0,7,0,19,0,19,0,,,,,,,,,,,,,,,,right,750,-12.5,9.637624565954684e-06,1,3,1,2.5,846.6694823667096,None,844.6335657001473,844.9696272001602,845.6300640001427,845.9661566000432,846.6204519001767,846.9664104999974,left,0,2.7191288999747485,844.7010916001163,None,847.1971025001258,None,,,,,,,vqnuwy,001,0,fr,2022-05-10_10h48.57.345,3-AFC_adaptive_staircase_mess,2022.1.1,35.801821175071765,
,,,,,7,0,7,0,20,0,20,0,,,,,,,,,,,,,,,,right,750,-10.0,1.2851978913844322e-05,1,3,1,2.5,850.9904742667607,851.2202414001804,848.9332053000107,849.2684534001164,849.9338591000997,850.2732545000035,850.9386551000644,851.2754327000584,left,0,2.673065199982375,849.0030149000231,None,851.5046131000854,None,,,,,,,vqnuwy,001,0,fr,2022-05-10_10h48.57.345,3-AFC_adaptive_staircase_mess,2022.1.1,35.801821175071765,
,,,,,7,0,7,0,21,0,21,0,,,,,,,,,,,,,,,,right,750,-7.5,1.7138389327322525e-05,1,3,1,2.5,855.2274797666507,None,853.2095727999695,853.5440634000115,854.2077562001068,854.5460765000898,855.2108130999841,855.5473267999478,left,0,2.865769099909812,853.24141040002,None,855.7756290000398,None,,,,,,,vqnuwy,001,0,fr,2022-05-10_10h48.57.345,3-AFC_adaptive_staircase_mess,2022.1.1,35.801821175071765,
,,,,,7,0,7,0,22,0,22,0,,,,,,,,,,,,,,,,up,750,-5.0,2.285440948074376e-05,1,3,1,2.5,858.6587652667115,858.8921801000834,857.6119514000602,857.9433856001124,858.6084418999963,858.9240409000777,859.6108528000768,859.9378992000129,up,1,2.6851592001039535,857.6778252001386,None,860.1838426000904,None,,,,,,,vqnuwy,001,0,fr,2022-05-10_10h48.57.345,3-AFC_adaptive_staircase_mess,2022.1.1,35.801821175071765,
,,,,,7,0,7,0,23,0,23,0,,,,,,,,,,,,,,,,left,750,-5.0,2.285440948074376e-05,1,3,1,2.5,861.9362005666519,None,861.8850636000279,862.2174170000944,862.879986200016,None,None,None,left,1,0.9412561999633908,861.9500222001225,None,None,None,,,,,,,vqnuwy,001,0,fr,2022-05-10_10h48.57.345,3-AFC_adaptive_staircase_mess,2022.1.1,35.801821175071765,
,,,,,7,0,7,0,24,0,24,0,,,,,,,,,,,,,,,,up,750,-10.0,1.2851978913844322e-05,-1,4,-1,-5.0,865.4726162667541,None,864.4063127001282,864.7515424999874,865.4220704999752,865.7539586001076,866.4214545001741,866.7531510000117,left,0,2.6644413999747485,864.467192400014,None,866.9909532000311,None,,,,,,,vqnuwy,001,0,fr,2022-05-10_10h48.57.345,3-AFC_adaptive_staircase_mess,2022.1.1,35.801821175071765,
,,,,,7,0,7,0,25,0,25,0,,,,,,,,,,,,,,,,up,750,-7.5,1.7138389327322525e-05,1,5,1,2.5,869.6771811666588,869.9088666001335,868.6545327999629,868.9904434999917,869.6605144999921,870.0103534001391,870.6624247001018,871.0117506000679,right,0,2.926015199860558,868.7182575000916,None,871.2177454000339,None,,,,,,,vqnuwy,001,0,fr,2022-05-10_10h48.57.345,3-AFC_adaptive_staircase_mess,2022.1.1,35.801821175071765,
,,,,,7,0,7,0,26,0,26,0,,,,,,,,,,,,,,,,up,750,-5.0,2.285440948074376e-05,1,5,1,2.5,874.1819631667497,None,873.1634987001307,873.4969965000637,874.1652965000831,874.4983533001505,875.1647724001668,None,up,1,1.9672855001408607,873.2283195999917,None,None,None,,,,,,,vqnuwy,001,0,fr,2022-05-10_10h48.57.345,3-AFC_adaptive_staircase_mess,2022.1.1,35.801821175071765,
,,,,,7,0,7,0,27,0,27,0,,,,,,,,,,,,,,,,right,750,-5.0,2.285440948074376e-05,1,5,1,2.5,878.7487421667358,878.9755474000704,876.6956543000415,877.0359806001652,877.7030498001259,878.0337162001524,878.6958594000898,879.0419261001516,up,0,2.8312478000298142,876.7643667999655,None,879.2683705000672,None,,,,,,,vqnuwy,001,0,fr,2022-05-10_10h48.57.345,3-AFC_adaptive_staircase_mess,2022.1.1,35.801821175071765,
,,,,,7,0,7,0,28,0,28,0,,,,,,,,,,,,,,,,left,750,-2.5,3.0476844862008466e-05,1,5,1,2.5,881.136997366619,None,881.1203306999523,881.434907700168,882.1033342001028,None,None,None,left,1,1.1327086999081075,881.1515747001395,None,None,None,,,,,,,vqnuwy,001,0,fr,2022-05-10_10h48.57.345,3-AFC_adaptive_staircase_mess,2022.1.1,35.801821175071765,
,,,,,7,0,7,0,29,0,29,0,,,,,,,,,,,,,,,,up,750,-2.5,3.0476844862008466e-05,1,5,1,2.5,884.8593526667139,885.0858132001013,883.8088094999548,884.14412000007,884.8072216000874,885.1468742999714,885.8061923000496,None,up,1,2.07296480005607,883.8745516000781,None,None,None,,,,,,,vqnuwy,001,0,fr,2022-05-10_10h48.57.345,3-AFC_adaptive_staircase_mess,2022.1.1,35.801821175071765,
,,,,,7,0,7,0,30,0,30,0,,,,,,,,,,,,,,,,right,750,-7.5,1.7138389327322525e-05,-1,6,-1,-5.0,889.4992324666275,889.7259529000148,887.4799067999702,887.8092875999864,888.4774340000004,888.8137809999753,889.4825657999609,889.8171531001572,left,0,2.9294396000914276,887.5459451000206,None,890.0522620000411,None,,,,,,,vqnuwy,001,0,fr,2022-05-10_10h48.57.345,3-AFC_adaptive_staircase_mess,2022.1.1,35.801821175071765,
,,,,,8,0,8,0,0,0,0,0,,,,,,,,,,,,,[],[],10,right,500,30,0.002259279721874612,0,0,-1,10,896.1041524666982,None,894.0477331001312,894.3799398001283,895.0542755001225,895.3840493001044,896.051633000141,896.3544461000711,right,1,2.4384832999203354,894.1174109999556,None,896.5988751666775,None,space,2.01407720008865,891.548890999984,None,891.548890999984,None,vqnuwy,001,0,fr,2022-05-10_10h48.57.345,3-AFC_adaptive_staircase_mess,2022.1.1,35.801821175071765,
,,,,,8,0,8,0,1,0,1,0,,,,,,,,,,,,,,,,left,500,30,0.002259279721874612,0,0,-1,10,898.139648866669,None,898.0909973001108,898.4283196001779,None,None,None,None,left,1,0.5294711000751704,898.154533599969,None,None,None,,,,,,,vqnuwy,001,0,fr,2022-05-10_10h48.57.345,3-AFC_adaptive_staircase_mess,2022.1.1,35.801821175071765,
,,,,,8,0,8,0,2,0,2,0,,,,,,,,,,,,,,,,left,500,10,0.0002259279721874612,-1,0,-1,-10,900.2420775667454,None,900.1933602001518,900.527651600074,None,None,None,None,left,1,0.48795340000651777,900.2596187000163,None,None,None,,,,,,,vqnuwy,001,0,fr,2022-05-10_10h48.57.345,3-AFC_adaptive_staircase_mess,2022.1.1,35.801821175071765,
,,,,,8,0,8,0,3,0,3,0,,,,,,,,,,,,,,,,left,500,10,0.0002259279721874612,-1,0,-1,-10,902.3062506667959,902.5303787000012,902.2602901000064,902.5945334001444,None,None,None,None,left,1,0.42174279992468655,902.3255143000279,None,None,None,,,,,,,vqnuwy,001,0,fr,2022-05-10_10h48.57.345,3-AFC_adaptive_staircase_mess,2022.1.1,35.801821175071765,
,,,,,8,0,8,0,4,0,4,0,,,,,,,,,,,,,,,,right,500,0,7.144469792555515e-05,-1,0,-1,-10,906.3157130666698,None,904.2599198000971,904.5925651001744,905.2654471001588,905.5938979999628,906.2624342001509,906.5963507001288,right,1,2.4826184997800738,904.3283007000573,None,906.8357137001585,None,,,,,,,vqnuwy,001,0,fr,2022-05-10_10h48.57.345,3-AFC_adaptive_staircase_mess,2022.1.1,35.801821175071765,
,,,,,8,0,8,0,5,0,5,0,,,,,,,,,,,,,,,,up,500,0,7.144469792555515e-05,-1,0,-1,-10,909.3612780667065,None,908.3317225000355,908.6659578001127,909.3446114000399,909.66118429997,None,None,up,1,1.6464106999337673,908.3980821999721,None,None,None,,,,,,,vqnuwy,001,0,fr,2022-05-10_10h48.57.345,3-AFC_adaptive_staircase_mess,2022.1.1,35.801821175071765,
,,,,,8,0,8,0,6,0,6,0,,,,,,,,,,,,,,,,up,500,-10,2.259279721874613e-05,-1,0,-1,-10,912.622566666749,None,911.567111399956,911.9028303001542,912.5725867999718,912.9152925000526,913.5836400000844,913.9227644000202,left,0,2.871466299984604,911.6356137001421,None,914.1136865001172,None,,,,,,,vqnuwy,001,0,fr,2022-05-10_10h48.57.345,3-AFC_adaptive_staircase_mess,2022.1.1,35.801821175071765,
,,,,,8,0,8,0,7,0,7,0,,,,,,,,,,,,,,,,up,500,-5,4.017630610928089e-05,1,1,1,5,917.0932142667627,917.3185616000555,916.0428190999664,916.3777205001097,917.0437960999552,917.3805246001575,918.0400956000667,918.375784400152,up,1,2.3804259998723865,916.1106740999967,None,None,None,,,,,,,vqnuwy,001,0,fr,2022-05-10_10h48.57.345,3-AFC_adaptive_staircase_mess,2022.1.1,35.801821175071765,
,,,,,8,0,8,0,8,0,8,0,,,,,,,,,,,,,,,,right,500,-5,4.017630610928089e-05,1,1,1,5,922.0300802668246,None,920.001539299963,920.3455948999617,921.0125345999841,921.3419162000064,922.013413600158,922.3471077000722,left,0,2.9241316998377442,920.0626602000557,None,922.5501443000976,None,,,,,,,vqnuwy,001,0,fr,2022-05-10_10h48.57.345,3-AFC_adaptive_staircase_mess,2022.1.1,35.801821175071765,
,,,,,8,0,8,0,9,0,9,0,,,,,,,,,,,,,,,,left,500,0,7.144469792555515e-05,1,1,1,5,924.5637854666604,924.7936158999801,924.512864400167,924.8564111001324,None,None,None,None,left,1,0.7227241999935359,924.584892099956,None,None,None,,,,,,,vqnuwy,001,0,fr,2022-05-10_10h48.57.345,3-AFC_adaptive_staircase_mess,2022.1.1,35.801821175071765,
,,,,,8,0,8,0,10,0,10,0,,,,,,,,,,,,,,,,up,500,0,7.144469792555515e-05,1,1,1,5,927.8388273667699,None,926.8173873000778,927.1500556000974,927.8221607001033,928.1466745999642,None,None,up,1,1.6028450999874622,926.8880231000949,None,None,None,,,,,,,vqnuwy,001,0,fr,2022-05-10_10h48.57.345,3-AFC_adaptive_staircase_mess,2022.1.1,35.801821175071765,
,,,,,8,0,8,0,11,0,11,0,,,,,,,,,,,,,,,,right,500,-10,2.259279721874613e-05,-1,2,-1,-5.0,932.0396460667873,None,929.9876584000885,930.323599500116,930.9904354000464,931.3214522001799,931.9891548999585,932.302809700137,left,0,2.8497134998906404,930.0575466000009,None,932.5579878999852,None,,,,,,,vqnuwy,001,0,fr,2022-05-10_10h48.57.345,3-AFC_adaptive_staircase_mess,2022.1.1,35.801821175071765,
,,,,,8,0,8,0,12,0,12,0,,,,,,,,,,,,,,,,up,500,-7.5,3.0127979303717903e-05,1,3,1,2.5,935.4776628667644,None,934.4300689001102,934.7619437000249,935.4243874000385,935.7631878000684,936.4316956000403,936.7615744001232,left,0,2.719526099972427,934.4922065001447,None,936.999218699988,None,,,,,,,vqnuwy,001,0,fr,2022-05-10_10h48.57.345,3-AFC_adaptive_staircase_mess,2022.1.1,35.801821175071765,
,,,,,8,0,8,0,13,0,13,0,,,,,,,,,,,,,,,,up,500,-5.0,4.017630610928089e-05,1,3,1,2.5,939.7852204666162,None,938.7323340000585,939.0682135000825,939.7331255001482,940.0654249000363,940.7343828000594,941.0648497999646,left,0,2.288373799994588,938.7963428001385,None,None,None,,,,,,,vqnuwy,001,0,fr,2022-05-10_10h48.57.345,3-AFC_adaptive_staircase_mess,2022.1.1,35.801821175071765,
,,,,,8,0,8,0,14,0,14,0,,,,,,,,,,,,,,,,right,500,-2.5,5.357596526188033e-05,1,3,1,2.5,944.6575442667274,None,942.5988724001218,942.9309650999494,943.601668999996,943.937011100119,944.6052402001806,944.9357672999613,right,1,2.677297400077805,942.6620863000862,None,945.1713068999816,None,,,,,,,vqnuwy,001,0,fr,2022-05-10_10h48.57.345,3-AFC_adaptive_staircase_mess,2022.1.1,35.801821175071765,
,,,,,8,0,8,0,15,0,15,0,,,,,,,,,,,,,,,,right,500,-2.5,5.357596526188033e-05,1,3,1,2.5,948.8923338666248,949.1196514000185,946.8375781001523,947.1695137000643,947.8421257000882,948.1723505000118,948.8420472999569,949.1779074999504,right,1,2.4478241000324488,946.9076434001327,None,949.3867323666966,None,,,,,,,vqnuwy,001,0,fr,2022-05-10_10h48.57.345,3-AFC_adaptive_staircase_mess,2022.1.1,35.801821175071765,
,,,,,8,0,8,0,16,0,16,0,,,,,,,,,,,,,,,,left,500,-7.5,3.0127979303717903e-05,-1,4,-1,-5.0,950.8986169666207,None,950.881950299954,951.214673000155,951.8819327000529,952.209061200032,952.879589300137,953.2158089999575,left,1,2.6804116000421345,950.9148444000166,None,953.4464873999823,None,,,,,,,vqnuwy,001,0,fr,2022-05-10_10h48.57.345,3-AFC_adaptive_staircase_mess,2022.1.1,35.801821175071765,
,,,,,8,0,8,0,17,0,17,0,,,,,,,,,,,,,,,,right,500,-7.5,3.0127979303717903e-05,-1,4,-1,-5.0,957.1433140666379,957.3681383000221,955.1191565000918,955.4474641000852,956.1176331001334,956.4481665000785,957.1266473999713,957.4676586999558,right,1,3.1820867001079023,955.180854300037,None,957.6632151999511,None,,,,,,,vqnuwy,001,0,fr,2022-05-10_10h48.57.345,3-AFC_adaptive_staircase_mess,2022.1.1,35.801821175071765,
,,,,,8,0,8,0,18,0,18,0,,,,,,,,,,,,,,,,right,500,-12.5,1.6942207806960138e-05,-1,4,-1,-5.0,961.9419691668047,962.1732606000733,959.8880998000968,960.2175125000067,960.8834112000186,961.2245253999718,961.8889735001139,962.2009746001568,left,0,3.225338999880478,959.9538070999552,None,962.4551228000782,None,,,,,,,vqnuwy,001,0,fr,2022-05-10_10h48.57.345,3-AFC_adaptive_staircase_mess,2022.1.1,35.801821175071765,
,,,,,8,0,8,0,19,0,19,0,,,,,,,,,,,,,,,,left,500,-10.0,2.259279721874613e-05,1,5,1,2.5,964.7798852667368,None,964.7268489999697,965.0380351999775,965.7261687000282,966.0648399000056,966.7254999000579,967.0645068001468,up,0,2.4647204000502825,964.7952686999924,None,967.2982520000078,None,,,,,,,vqnuwy,001,0,fr,2022-05-10_10h48.57.345,3-AFC_adaptive_staircase_mess,2022.1.1,35.801821175071765,
,,,,,8,0,8,0,20,0,20,0,,,,,,,,,,,,,,,,left,500,-7.5,3.0127979303717903e-05,1,5,1,2.5,968.8453504667307,969.0700612000655,968.7971247001551,969.1363351000473,969.7965685001109,970.1321370000951,970.7901542000473,971.1375398000237,left,1,3.0030732001177967,968.8646307999734,None,971.3688578000292,None,,,,,,,vqnuwy,001,0,fr,2022-05-10_10h48.57.345,3-AFC_adaptive_staircase_mess,2022.1.1,35.801821175071765,
,,,,,8,0,8,0,21,0,21,0,,,,,,,,,,,,,,,,right,500,-7.5,3.0127979303717903e-05,1,5,1,2.5,975.4215546667731,None,973.3666197999846,973.7048953999765,974.3740583001636,974.7007002001628,975.3695438001305,975.7048313999549,right,1,2.5763904000632465,973.4354713000357,None,975.906961500179,None,,,,,,,vqnuwy,001,0,fr,2022-05-10_10h48.57.345,3-AFC_adaptive_staircase_mess,2022.1.1,35.801821175071765,
,,,,,8,0,8,0,22,0,22,0,,,,,,,,,,,,,,,,right,500,-12.5,1.6942207806960138e-05,-1,6,-1,-5.0,979.5896457667152,979.8145759000909,977.5383228000719,977.8690275000408,978.5434783000965,978.8731436999515,979.5379914001096,979.8785983000416,right,1,2.947597299935296,977.6077705000062,None,980.1086689000949,None,,,,,,,vqnuwy,001,0,fr,2022-05-10_10h48.57.345,3-AFC_adaptive_staircase_mess,2022.1.1,35.801821175071765,
,,,,,9,0,9,0,0,0,0,0,,,,,,,,,,,,,[],[],10,left,250,30,0.005296268625886445,0,0,-1,10,988.7663078667285,None,988.7191233001649,989.0567928000819,None,None,None,None,left,1,0.5575091999489814,988.7821806001011,None,None,None,space,6.577827499946579,981.6420754999854,None,981.6420754999854,None,vqnuwy,001,0,fr,2022-05-10_10h48.57.345,3-AFC_adaptive_staircase_mess,2022.1.1,35.801821175071765,
,,,,,9,0,9,0,1,0,1,0,,,,,,,,,,,,,,,,left,250,30,0.005296268625886445,0,0,-1,10,990.9017562666597,None,990.8541151999962,991.1886199000292,None,None,None,None,left,1,0.43518929998390377,990.9209343001712,None,None,None,,,,,,,vqnuwy,001,0,fr,2022-05-10_10h48.57.345,3-AFC_adaptive_staircase_mess,2022.1.1,35.801821175071765,
,,,,,9,0,9,0,2,0,2,0,,,,,,,,,,,,,,,,up,250,10,0.0005296268625886444,-1,0,-1,-10,993.9424114667966,None,992.8860902001616,993.2244625999592,993.8899656001013,994.2083416001406,None,None,up,1,1.4398649998474866,992.9554722001776,None,None,None,,,,,,,vqnuwy,001,0,fr,2022-05-10_10h48.57.345,3-AFC_adaptive_staircase_mess,2022.1.1,35.801821175071765,
,,,,,9,0,9,0,3,0,3,0,,,,,,,,,,,,,,,,up,250,10,0.0005296268625886444,-1,0,-1,-10,996.9733438667065,None,995.9258135999553,996.2616206000093,996.9245299000759,997.2650230000727,None,None,up,1,1.4887347999028862,995.9621576000936,None,None,None,,,,,,,vqnuwy,001,0,fr,2022-05-10_10h48.57.345,3-AFC_adaptive_staircase_mess,2022.1.1,35.801821175071765,
,,,,,9,0,9,0,4,0,4,0,,,,,,,,,,,,,,,,left,250,0,0.0001674827195789138,-1,0,-1,-10,999.0111702667239,None,998.9585190000944,999.2996384999715,999.9620346999727,1000.2887681000866,1000.9596704000141,1001.3012741999701,left,1,2.949319100007415,999.0297954000998,None,1001.5269069001079,None,,,,,,,vqnuwy,001,0,fr,2022-05-10_10h48.57.345,3-AFC_adaptive_staircase_mess,2022.1.1,35.801821175071765,
,,,,,9,0,9,0,5,0,5,0,,,,,,,,,,,,,,,,left,250,0,0.0001674827195789138,-1,0,-1,-10,1003.5491126666932,None,1003.4983334999997,1003.8121764000971,1004.502395800082,1004.8288302000146,1005.5048144001048,1005.8310225000605,left,1,2.5857360002119094,1003.5696360999718,None,1006.0683504999615,None,,,,,,,vqnuwy,001,0,fr,2022-05-10_10h48.57.345,3-AFC_adaptive_staircase_mess,2022.1.1,35.801821175071765,
,,,,,9,0,9,0,6,0,6,0,,,,,,,,,,,,,,,,right,250,-10,5.296268625886443e-05,-1,0,-1,-10,1009.6937280668101,None,1007.6691320000682,1008.0021087999921,1008.669102099957,1009.0056255999953,1009.6770614001434,1010.0154444000218,up,0,2.5761907999403775,1007.7404051001649,None,1010.2062683000695,None,,,,,,,vqnuwy,001,0,fr,2022-05-10_10h48.57.345,3-AFC_adaptive_staircase_mess,2022.1.1,35.801821175071765,
,,,,,9,0,9,0,7,0,7,0,,,,,,,,,,,,,,,,left,250,-5,9.418245447449e-05,1,1,1,5,1011.8842016666351,None,1011.8675349999685,1012.2122156000696,1012.8442604001611,1013.181158100022,1013.8476261000615,1014.1787428001408,left,1,2.6056097000837326,1011.9028817999642,None,1014.4148506999481,None,,,,,,,vqnuwy,001,0,fr,2022-05-10_10h48.57.345,3-AFC_adaptive_staircase_mess,2022.1.1,35.801821175071765,
,,,,,9,0,9,0,8,0,8,0,,,,,,,,,,,,,,,,up,250,-5,9.418245447449e-05,1,1,1,5,1017.0311596666618,None,1016.0043344001751,1016.3511167000979,1017.0144929999951,1017.3462493000552,1018.0178619001526,1018.344733200036,left,0,2.596080500166863,1016.071190000046,None,1018.5800910999533,None,,,,,,,vqnuwy,001,0,fr,2022-05-10_10h48.57.345,3-AFC_adaptive_staircase_mess,2022.1.1,35.801821175071765,
,,,,,9,0,9,0,9,0,9,0,,,,,,,,,,,,,,,,up,250,0,0.0001674827195789138,1,1,1,5,1021.2256833667091,None,1020.181355800014,1020.5207404999528,1021.1773953000084,1021.5175677000079,None,None,up,1,1.7310112998820841,1020.2486858000048,None,None,None,,,,,,,vqnuwy,001,0,fr,2022-05-10_10h48.57.345,3-AFC_adaptive_staircase_mess,2022.1.1,35.801821175071765,
,,,,,9,0,9,0,10,0,10,0,,,,,,,,,,,,,,,,right,250,0,0.0001674827195789138,1,1,1,5,1025.5731146666842,1025.801735999994,1023.5222440999933,1023.8578166000079,1024.5248946000356,1024.8587656000163,1025.5220240000635,1025.8625948999543,right,1,2.963958599837497,1023.5906134999823,None,1026.062256500125,None,,,,,,,vqnuwy,001,0,fr,2022-05-10_10h48.57.345,3-AFC_adaptive_staircase_mess,2022.1.1,35.801821175071765,
,,,,,9,0,9,0,11,0,11,0,,,,,,,,,,,,,,,,up,250,-10,5.296268625886443e-05,-1,2,-1,-5.0,1029.1132579667649,None,1028.085692099994,1028.4166707000695,1029.0965913000982,1029.4247445000801,1030.0876635999884,1030.4260472001042,left,0,2.688694099895656,1028.154903500108,None,1030.6280012000352,None,,,,,,,vqnuwy,001,0,fr,2022-05-10_10h48.57.345,3-AFC_adaptive_staircase_mess,2022.1.1,35.801821175071765,
,,,,,9,0,9,0,12,0,12,0,,,,,,,,,,,,,,,,left,250,-7.5,7.06268772311377e-05,1,3,1,2.5,1032.4238432667373,None,1032.375148900086,1032.7106874000747,1033.4008462999482,1033.7300554001704,1034.398190899985,1034.731051800074,left,1,2.6743447999469936,1032.4410185001325,None,1034.9378208001144,None,,,,,,,vqnuwy,001,0,fr,2022-05-10_10h48.57.345,3-AFC_adaptive_staircase_mess,2022.1.1,35.801821175071765,
,,,,,9,0,9,0,13,0,13,0,,,,,,,,,,,,,,,,right,250,-7.5,7.06268772311377e-05,1,3,1,2.5,1038.6788824666912,None,1036.6711391001008,1036.9994575001765,1037.6596572999842,1037.9972243001685,1038.6622158000246,1039.0032613000367,left,0,2.6852889999281615,1036.7021080001723,None,1039.2018659999594,None,,,,,,,vqnuwy,001,0,fr,2022-05-10_10h48.57.345,3-AFC_adaptive_staircase_mess,2022.1.1,35.801821175071765,
,,,,,9,0,9,0,14,0,14,0,,,,,,,,,,,,,,,,right,250,-5.0,9.418245447449e-05,1,3,1,2.5,1042.9386557667206,None,1040.9173372001387,1041.2411653001327,1041.9116804001387,1042.2438195000868,1042.921989100054,1043.2394562000409,right,1,2.644756000023335,1040.9500013000797,None,1043.470447300002,None,,,,,,,vqnuwy,001,0,fr,2022-05-10_10h48.57.345,3-AFC_adaptive_staircase_mess,2022.1.1,35.801821175071765,
,,,,,9,0,9,0,15,0,15,0,,,,,,,,,,,,,,,,left,250,-5.0,9.418245447449e-05,1,3,1,2.5,1045.1569580666876,None,1045.102469400037,1045.4364974000491,1046.1030405999627,1046.4364384999499,1047.100089600077,1047.4221278000623,left,1,2.663442899938673,1045.1718309000134,None,1047.675668500131,None,,,,,,,vqnuwy,001,0,fr,2022-05-10_10h48.57.345,3-AFC_adaptive_staircase_mess,2022.1.1,35.801821175071765,
,,,,,9,0,9,0,16,0,16,0,,,,,,,,,,,,,,,,up,250,-10.0,5.296268625886443e-05,-1,4,-1,-5.0,1050.3884234666514,None,1049.335332200164,1049.6730714000296,1050.3398259000387,1050.6806294000708,1051.3412201001775,1051.6766858999617,left,0,2.7516797001007944,1049.404452700168,None,1051.910513299983,None,,,,,,,vqnuwy,001,0,fr,2022-05-10_10h48.57.345,3-AFC_adaptive_staircase_mess,2022.1.1,35.801821175071765,
,,,,,9,0,9,0,17,0,17,0,,,,,,,,,,,,,,,,left,250,-7.5,7.06268772311377e-05,1,5,1,2.5,1053.7220345666321,None,1053.7053678999655,1054.0480251000263,1054.6905913001392,1055.0230545999948,1055.6832004000898,1056.0125853000209,left,1,2.6098442000802606,1053.7374784999993,None,1056.2402252000757,None,,,,,,,vqnuwy,001,0,fr,2022-05-10_10h48.57.345,3-AFC_adaptive_staircase_mess,2022.1.1,35.801821175071765,
,,,,,9,0,9,0,18,0,18,0,,,,,,,,,,,,,,,,up,250,-7.5,7.06268772311377e-05,1,5,1,2.5,1058.905673166799,None,1057.8789208000526,1058.209965800168,1058.8890065001324,1059.228683100082,1059.892456700094,1060.2215817000251,left,0,2.5437038000673056,1057.9473987000529,None,1060.4160534001421,None,,,,,,,vqnuwy,001,0,fr,2022-05-10_10h48.57.345,3-AFC_adaptive_staircase_mess,2022.1.1,35.801821175071765,
,,,,,9,0,9,0,19,0,19,0,,,,,,,,,,,,,,,,left,250,-5.0,9.418245447449e-05,1,5,1,2.5,1062.0376149668048,None,1062.0209483001381,1062.3491170001216,1063.0340220001526,1063.3628810001537,1064.0236414000392,1064.3501454000361,left,1,2.6775422000791878,1062.0534701000433,None,1064.579312399961,None,,,,,,,vqnuwy,001,0,fr,2022-05-10_10h48.57.345,3-AFC_adaptive_staircase_mess,2022.1.1,35.801821175071765,
,,,,,9,0,9,0,20,0,20,0,,,,,,,,,,,,,,,,right,250,-5.0,9.418245447449e-05,1,5,1,2.5,1068.2963228666379,None,1066.263459800044,1066.584382200148,1067.2524224000517,1067.5758940000087,1068.2503784000874,1068.5986893000081,left,0,2.660974800121039,1066.2936711001676,None,1068.792189200176,None,,,,,,,vqnuwy,001,0,fr,2022-05-10_10h48.57.345,3-AFC_adaptive_staircase_mess,2022.1.1,35.801821175071765,
,,,,,9,0,9,0,21,0,21,0,,,,,,,,,,,,,,,,up,250,-2.5,0.00012559432157547898,1,5,1,2.5,1071.518172866727,None,1070.4753992999904,1070.8001159999985,1071.4690974000841,1071.8038484000135,1072.4761175999884,1072.8091431001667,left,0,2.608257600106299,1070.5379759999923,None,1073.0428359000944,None,,,,,,,vqnuwy,001,0,fr,2022-05-10_10h48.57.345,3-AFC_adaptive_staircase_mess,2022.1.1,35.801821175071765,
,,,,,9,0,9,0,22,0,22,0,,,,,,,,,,,,,,,,left,250,0.0,0.0001674827195789138,1,5,1,2.5,1074.7162806667077,None,1074.666091500083,1075.0137606000062,1075.6735736001283,1076.0051906001754,1076.6745264001656,1077.005630100146,left,1,2.55763279995881,1074.7331171999685,None,1077.2311506001279,None,,,,,,,vqnuwy,001,0,fr,2022-05-10_10h48.57.345,3-AFC_adaptive_staircase_mess,2022.1.1,35.801821175071765,
,,,,,9,0,9,0,23,0,23,0,,,,,,,,,,,,,,,,up,250,0.0,0.0001674827195789138,1,5,1,2.5,1079.8288484668049,1080.0552797000855,1078.8123972001486,1079.1447002999485,1079.8121818001382,1080.1490307000931,1080.8152678001206,1081.13678229996,up,1,2.750640100101009,1078.8442720000166,None,1081.3601202999707,None,,,,,,,vqnuwy,001,0,fr,2022-05-10_10h48.57.345,3-AFC_adaptive_staircase_mess,2022.1.1,35.801821175071765,
,,,,,9,0,9,0,24,0,24,0,,,,,,,,,,,,,,,,right,250,-5.0,9.418245447449e-05,-1,6,-1,-5.0,1085.187010866652,None,1083.1664535000455,1083.4912446001545,1084.1323391001206,1084.4598899001721,1085.134300300153,1085.4674955999944,left,0,2.8607681998983026,1083.1980459000915,None,1085.6898438001517,None,,,,,,,vqnuwy,001,0,fr,2022-05-10_10h48.57.345,3-AFC_adaptive_staircase_mess,2022.1.1,35.801821175071765,
,,,,,10,0,10,0,0,0,0,0,,,,,,,,,,,,,[],[],10,left,125,30,0.02285440948074376,0,0,-1,10,1089.207549166695,None,1089.1554458001629,1089.4693228001706,None,None,None,None,left,1,0.5179066001437604,1089.2208484001458,None,None,None,space,1.520758799975738,1087.1621310999617,None,1087.1621310999617,None,vqnuwy,001,0,fr,2022-05-10_10h48.57.345,3-AFC_adaptive_staircase_mess,2022.1.1,35.801821175071765,
,,,,,10,0,10,0,1,0,1,0,,,,,,,,,,,,,,,,right,125,30,0.02285440948074376,0,0,-1,10,1093.2985444667904,None,1091.272087200079,1091.60525100003,1092.277122200001,1092.6079989001155,1093.2818778001238,1093.6228628000244,right,1,2.3642484999727458,1091.326659400016,None,None,None,,,,,,,vqnuwy,001,0,fr,2022-05-10_10h48.57.345,3-AFC_adaptive_staircase_mess,2022.1.1,35.801821175071765,
,,,,,10,0,10,0,2,0,2,0,,,,,,,,,,,,,,,,right,125,10,0.002285440948074376,-1,0,-1,-10,1097.2650883666395,None,1095.2311396000441,1095.546280000126,1096.2557425999548,1096.5774958000984,1097.2484216999728,1097.5634094001725,right,1,2.345139800105244,1095.2981555999722,None,None,None,,,,,,,vqnuwy,001,0,fr,2022-05-10_10h48.57.345,3-AFC_adaptive_staircase_mess,2022.1.1,35.801821175071765,
,,,,,10,0,10,0,3,0,3,0,,,,,,,,,,,,,,,,right,125,10,0.002285440948074376,-1,0,-1,-10,1101.2352123666244,1101.4593754000962,1099.1815995001234,1099.5017948001623,1100.1844683999661,1100.5167321001645,1101.1835282000247,1101.5236888001673,right,1,2.3925272000487894,1099.235106300097,None,None,None,,,,,,,vqnuwy,001,0,fr,2022-05-10_10h48.57.345,3-AFC_adaptive_staircase_mess,2022.1.1,35.801821175071765,
,,,,,10,0,10,0,4,0,4,0,,,,,,,,,,,,,,,,right,125,0,0.000722719885372964,-1,0,-1,-10,1105.2107490667297,None,1103.1594539000653,1103.4911218001507,1104.1587360999547,1104.4903134000488,1105.1571282001678,1105.4947093001101,right,1,2.467344499891624,1103.2248905000743,None,1105.723353400128,None,,,,,,,vqnuwy,001,0,fr,2022-05-10_10h48.57.345,3-AFC_adaptive_staircase_mess,2022.1.1,35.801821175071765,
,,,,,10,0,10,0,5,0,5,0,,,,,,,,,,,,,,,,left,125,0,0.000722719885372964,-1,0,-1,-10,1107.2772912667754,None,1107.2253471000586,1107.5574036999606,None,None,None,None,left,1,0.7818865000735968,1107.2932432000525,None,None,None,,,,,,,vqnuwy,001,0,fr,2022-05-10_10h48.57.345,3-AFC_adaptive_staircase_mess,2022.1.1,35.801821175071765,
,,,,,10,0,10,0,6,0,6,0,,,,,,,,,,,,,,,,up,125,-10,0.0002285440948074376,-1,0,-1,-10,1110.6441302667993,None,1109.6298833000474,1109.9609246000182,1110.5815763000865,1110.9108663999941,1111.5990490999538,1111.9295725000557,left,0,2.8429558998905122,1109.6647608000785,None,1112.1624360000715,None,,,,,,,vqnuwy,001,0,fr,2022-05-10_10h48.57.345,3-AFC_adaptive_staircase_mess,2022.1.1,35.801821175071765,
