sweeps.thisRepN,sweeps.thisTrialN,sweeps.thisN,sweeps.thisIndex,trials.thisRepN,trials.thisTrialN,trials.thisN,trials.thisIndex,instructions.started,instructions.stopped,blank_text.started,blank_text.stopped,,text.started,text.stopped,Delay,Prediction,Frequency,Volume,Psychopy_level,isCatchTrial,len(y),finished_audiograms,probe.started,probe.stopped,feedback.keys,feedback.started,feedback.stopped,ISI.started,ISI.stopped,text_2.started,text_2.stopped,feedback.rt,break_txt.started,break_txt.stopped,Intervals,Audiogram_both,Audiogram_frequency,Audiogram_time,Audiogram_none,participant,session,language (english or french),Resume previous experiment,date,expName,psychopyVersion,frameRate,
0,0,0,0,0,0,0,0,22.473315299954265,None,89.72618769994006,None,0.3333333333333333,91.57981179992203,None,1.986156836229005,frequency,1516.0,1.2598363904904035,5.7404774298596304e-05,0,26,[],0.02359833987429738,None,None,92.61779449996538,None,0.21978913992643356,2.2059459761554385,92.82992229994852,None,,,,,,,,,nfsmrp,001,fr,0,2022-06-21_16h28.39.554,Continuous,2022.1.1,None,
0,0,0,0,1,0,1,0,,,,,,,,2.6294984936641788,frequency,1203.0,0.30087484414715604,5.439531538224861e-05,0,27,[],0.023725240025669336,None,None,94.83598009997513,94.83598009997513,0.23010243999306113,2.85960093365724,95.05038519995287,94.83598009997513,,,,,,,,,nfsmrp,001,fr,0,2022-06-21_16h28.39.554,Continuous,2022.1.1,None,
0,0,0,0,2,0,2,0,,,,,,,,2.2082342696335813,frequency,955.0,-0.09293847303601144,4.2318227073561984e-05,0,28,[],0.022584639838896692,None,None,97.69965650001541,97.69965650001541,0.22551193984691054,2.433746209480492,97.91949839994777,97.69965650001541,,,,,,,,,nfsmrp,001,fr,0,2022-06-21_16h28.39.554,Continuous,2022.1.1,None,
0,0,0,0,3,0,3,0,,,,,,,,2.6576559263190087,frequency,758.0,-4.952132134907751,2.2775024330894322e-05,0,29,[],0.024015839910134673,None,None,100.14496780000627,100.14496780000627,0.22836953995283693,2.8860254662718456,100.35615060001146,100.14496780000627,,,,,,,,,nfsmrp,001,fr,0,2022-06-21_16h28.39.554,Continuous,2022.1.1,None,
0,0,0,0,4,0,4,0,,,,,,,,1.2880331611959048,frequency,602.0,-6.624160466195928,2.590242670113451e-05,0,30,[],0.023822639835998416,None,None,103.03741049999371,103.03741049999371,0.22944783989805728,1.5174810010939621,103.25390809995588,103.03741049999371,,,,,,,,,nfsmrp,001,fr,0,2022-06-21_16h28.39.554,Continuous,2022.1.1,None,
0,0,0,0,5,0,5,0,,,,,,,,1.5758865611102777,frequency,478.0,-4.984191055217789,4.088279199108753e-05,0,31,[],0.023725339910015464,None,None,104.56522429990582,104.56522429990582,0.22688043990638107,1.8027670010166588,104.77733800001442,104.56522429990582,,,,,,,,,nfsmrp,001,fr,0,2022-06-21_16h28.39.554,Continuous,2022.1.1,None,
0,0,0,0,6,0,6,0,,,,,,,,2.1574288270511155,frequency,379.0,-8.0,3.264724102951903e-05,0,32,[],0.022684939904138446,None,None,106.37545089994092,106.37545089994092,0.22506463981699198,2.3824934668681075,106.59565849998035,106.37545089994092,,,,,,,,,nfsmrp,001,fr,0,2022-06-21_16h28.39.554,Continuous,2022.1.1,None,
0,0,0,0,7,0,7,0,,,,,,,,2.260381088915062,frequency,301.0,0.444628116193738,0.00011941169501581642,0,33,[],0.023630139883607626,None,None,108.77748869999778,108.77748869999778,0.22923433990217745,2.4896154288172396,108.99846749997232,108.77748869999778,,,,,,,,,nfsmrp,001,fr,0,2022-06-21_16h28.39.554,Continuous,2022.1.1,None,
0,0,0,0,8,0,8,0,,,,,,,,2.946484501644864,frequency,239.0,0.08193449552950027,0.0001908254137835148,0,34,[],0.02341183996759355,None,['space'],111.28019879991189,111.28019879991189,0.2279182398924604,3.1744027415373246,111.49527499999385,111.28019879991189,[-1.8834395000012591],,,,,,,,nfsmrp,001,fr,0,2022-06-21_16h28.39.554,Continuous,2022.1.1,None,
0,0,0,0,9,0,9,0,,,,,,,,1.6801031155692625,frequency,190.0,-5.813122591801527,0.00015457964744183104,0,35,[],0.02357964008115232,None,['space'],114.46635120001156,114.46635120001156,0.22940974007360637,1.9095128556428689,114.67502730002161,114.46635120001156,[-2.733201300026849],,,,,,,,nfsmrp,001,fr,0,2022-06-21_16h28.39.554,Continuous,2022.1.1,None,
0,0,0,0,10,0,10,0,,,,,,,,2.829826344981301,frequency,151.0,-1.0243284443698208,0.0004365994622058307,0,36,[],0.023637940059415996,None,None,116.37610779993702,116.37610779993702,0.22852404008153826,3.0583503850628393,116.59094069991261,116.37610779993702,,,,,,,,,nfsmrp,001,fr,0,2022-06-21_16h28.39.554,Continuous,2022.1.1,None,
0,0,0,0,11,0,11,0,,,,,,,,1.180027980455841,frequency,,,,1,36,[],0.023321039858274162,None,['space'],119.44902739999816,119.44902739999816,0.2275722399353981,1.407600220391239,119.66114019998349,119.44902739999816,[-2.50868209998589],,,,,,,,nfsmrp,001,fr,0,2022-06-21_16h28.39.554,Continuous,2022.1.1,None,
1,0,1,0,0,0,0,0,,,,,0.16666666666666666,123.56902809999883,None,1.6139679796237003,frequency,7818.0,2.1474309192298806,0.00022539222261512025,0,37,[],0.02468023996334523,None,None,124.58342069992796,None,0.22330104000866413,1.8372690196323644,124.79638509999495,None,,120.86833089997526,None,,,,,,nfsmrp,001,fr,0,2022-06-21_16h28.39.554,Continuous,2022.1.1,None,
1,0,1,0,1,0,1,0,,,,,,,,1.9948730173815135,frequency,6965.0,2.4536599092514417,0.0001991836907986353,0,38,[],0.01554033998399973,None,None,126.43559489992913,126.43559489992913,0.21025003993418068,2.205123057315694,126.65218109998386,126.43559489992913,,,,,,,,,nfsmrp,001,fr,0,2022-06-21_16h28.39.554,Continuous,2022.1.1,None,
1,0,1,0,2,0,2,0,,,,,,,,1.1428076700179255,frequency,6205.0,1.5224395669930266,0.0001495796479811562,0,39,[],0.023436139919795096,None,['space'],128.6732803999912,128.6732803999912,0.22939523996319622,1.3722029099811217,128.89503889996558,128.6732803999912,[-1.484686000039801],,,,,,,,nfsmrp,001,fr,0,2022-06-21_16h28.39.554,Continuous,2022.1.1,None,
1,0,1,0,3,0,3,0,,,,,,,,1.397289388342165,frequency,5528.0,1.0,0.00014953741009252546,0,40,[],0.023310540011152625,None,['space'],130.0597037000116,130.0597037000116,0.22919653996359557,1.6264859283057607,130.26846699998714,130.0597037000116,[-1.0151081000221893],,,,,,,,nfsmrp,001,fr,0,2022-06-21_16h28.39.554,Continuous,2022.1.1,None,
1,0,1,0,4,0,4,0,,,,,,,,1.051077262385746,frequency,4925.0,1.0,0.0001655937853633201,0,41,[],0.02332003996707499,None,['space'],131.69500529998913,131.69500529998913,0.22696153994183987,1.278038802327586,131.90923280001152,131.69500529998913,[-1.2428087999578565],,,,,,,,nfsmrp,001,fr,0,2022-06-21_16h28.39.554,Continuous,2022.1.1,None,
1,0,1,0,5,0,5,0,,,,,,,,2.9503342857553116,frequency,4388.0,-0.43474823249129346,0.0001052355509598749,0,42,[],0.018926039920188487,0.21576793992426246,['space'],132.98794449993875,132.98794449993875,0.21576793992426246,3.166102225679574,133.2096055999864,132.98794449993875,[-1.0082939000567421],,,,,,,,nfsmrp,001,fr,0,2022-06-21_16h28.39.554,Continuous,2022.1.1,None,
1,0,1,0,6,0,6,0,,,,,,,,2.808136030838127,frequency,3909.0,-0.41409855198722423,7.850920589466861e-05,0,43,[],0.016138439998030663,0.21340603998396546,['space'],136.17732369992882,136.17732369992882,0.21340603998396546,3.0215420708220924,136.3948914000066,136.17732369992882,[-2.7888436999637634],,,,,,,,nfsmrp,001,fr,0,2022-06-21_16h28.39.554,Continuous,2022.1.1,None,
1,0,1,0,7,0,7,0,,,,,,,,2.329748776135692,frequency,3483.0,-0.5841125019479849,6.999574415955767e-05,0,44,[],0.018734939978457987,0.2155344400089234,['space'],139.2281872999156,139.2281872999156,0.2155344400089234,2.5452832161446155,139.44742209999822,139.2281872999156,[-2.640459599904716],,,,,,,,nfsmrp,001,fr,0,2022-06-21_16h28.39.554,Continuous,2022.1.1,None,
1,0,1,0,8,0,8,0,,,,,,,,1.5179486738883987,frequency,3103.0,0.5579212669713045,6.885507246940197e-05,0,45,[],0.022507639951072633,None,['space'],141.7957026999211,141.7957026999211,0.22555353993084282,1.7435022138192415,142.016622099909,141.7957026999211,[-2.167114599957131],,,,,,,,nfsmrp,001,fr,0,2022-06-21_16h28.39.554,Continuous,2022.1.1,None,
1,0,1,0,9,0,9,0,,,,,,,,2.5394794853446063,frequency,2764.0,0.5562396037820441,7.408532346834001e-05,0,46,[],0.022985839983448386,None,['space'],143.558406899916,143.558406899916,0.23078993998933583,2.770269425333942,143.77496119996067,143.558406899916,[-1.3779223000165075],,,,,,,,nfsmrp,001,fr,0,2022-06-21_16h28.39.554,Continuous,2022.1.1,None,
1,0,1,0,10,0,10,0,,,,,,,,2.200631170214544,frequency,,,,1,46,[],0.016205639927648008,0.21086143993306905,['space'],146.33833609998692,146.33833609998692,0.21086143993306905,2.411492610147613,146.55501559993718,146.33833609998692,[-2.3186217000475153],,,,,,,,nfsmrp,001,fr,0,2022-06-21_16h28.39.554,Continuous,2022.1.1,None,
1,0,1,0,11,0,11,0,,,,,,,,2.0434056277843764,frequency,2193.0,1.8498684293354235,9.78622873215962e-05,0,47,[],0.024156340048648417,None,None,148.77949879993685,148.77949879993685,0.22627504006959498,2.2696806678539714,148.99147090001497,148.77949879993685,,,,,,,,,nfsmrp,001,fr,0,2022-06-21_16h28.39.554,Continuous,2022.1.1,None,
1,0,1,0,12,0,12,0,,,,,,,,1.5918302035758425,frequency,1954.0,1.7159392217357938,8.862145001843662e-05,0,48,[],0.016192739829421043,0.21137613989412785,None,151.059334199992,151.059334199992,0.21137613989412785,1.8032063434699703,151.27332769997884,151.059334199992,,,,,,,,,nfsmrp,001,fr,0,2022-06-21_16h28.39.554,Continuous,2022.1.1,None,
2,0,2,0,0,0,0,0,,,,,0.3333333333333333,158.40052649995778,None,1.3262928986204947,frequency,4595.0,4.252993808773931,0.00020377058076178107,0,49,[],0.024351839907467365,None,None,159.42235299991444,None,0.24283563997596502,1.5691285385964597,159.6361285999883,None,,152.8843060999643,None,,,,,,nfsmrp,001,fr,0,2022-06-21_16h28.39.554,Continuous,2022.1.1,None,
2,0,2,0,1,0,1,0,,,,,,,,2.300138681092231,frequency,3647.0,6.647016766796083,0.00016711502548083583,0,50,[],0.018676039995625615,0.2160424399189651,['space'],160.98386239993852,160.98386239993852,0.2160424399189651,2.516181121011196,161.20330369996373,160.98386239993852,[-1.058996899984777],,,,,,,,nfsmrp,001,fr,0,2022-06-21_16h28.39.554,Continuous,2022.1.1,None,
2,0,2,0,2,0,2,0,,,,,,,,2.103175628539335,frequency,2895.0,-1.4622369516626939,5.184359656259859e-05,0,51,[],0.02263423998374492,None,['space'],163.5291247999994,163.5291247999994,0.22673063992988318,2.3299062684692182,163.74022719997447,163.5291247999994,[-2.26912650000304],,,,,,,,nfsmrp,001,fr,0,2022-06-21_16h28.39.554,Continuous,2022.1.1,None,
2,0,2,0,3,0,3,0,,,,,,,,1.3970780956503224,frequency,2298.0,1.5179780540689984,9.696552651691476e-05,0,52,[],0.02181783993728459,None,None,165.87170000001788,165.87170000001788,0.2248119399882853,1.6218900356386077,166.09209609997924,165.87170000001788,,,,,,,,,nfsmrp,001,fr,0,2022-06-21_16h28.39.554,Continuous,2022.1.1,None,
2,0,2,0,4,0,4,0,,,,,,,,1.0846855396299624,frequency,,,,1,52,[],0.02262643992435187,None,None,167.5129634999903,167.5129634999903,0.2289561399957165,1.313641679625679,167.73166629998013,167.5129634999903,,,,,,,,,nfsmrp,001,fr,0,2022-06-21_16h28.39.554,Continuous,2022.1.1,None,
2,0,2,0,5,0,5,0,,,,,,,,2.0816318933434625,frequency,1448.0,12.036891002447996,0.00019827575072423173,0,53,[],0.023832140024751425,None,None,168.8390077999793,168.8390077999793,0.22888694005087018,2.3105188333943327,169.05081009992864,168.8390077999793,,,,,,,,,nfsmrp,001,fr,0,2022-06-21_16h28.39.554,Continuous,2022.1.1,None,
2,0,2,0,6,0,6,0,,,,,,,,1.4631187420294784,frequency,1149.0,13.0,0.00022461343774149428,0,54,[],0.022579639917239547,None,['space'],171.15481629990973,171.15481629990973,0.2276220399653539,1.6907407819948324,171.37362049997319,171.15481629990973,[-1.8389231000328436],,,,,,,,nfsmrp,001,fr,0,2022-06-21_16h28.39.554,Continuous,2022.1.1,None,
2,0,2,0,7,0,7,0,,,,,,,,1.2749452204262102,frequency,912.0,2.5611440963113266,5.580100777643503e-05,0,55,[],0.02242903981823474,None,['space'],172.85956399992574,172.85956399992574,0.22740503982640803,1.5023502602526182,173.07175699993968,172.85956399992574,[-1.3272423999151215],,,,,,,,nfsmrp,001,fr,0,2022-06-21_16h28.39.554,Continuous,2022.1.1,None,
2,0,2,0,8,0,8,0,,,,,,,,1.4764463245077046,frequency,724.0,11.791341978761531,0.0001668177863743258,0,56,[],0.022229939815588295,None,None,174.36833719990682,174.36833719990682,0.22786433983128518,1.7043106643389898,174.5839373000199,174.36833719990682,,,,,,,,,nfsmrp,001,fr,0,2022-06-21_16h28.39.554,Continuous,2022.1.1,None,
2,0,2,0,9,0,9,0,,,,,,,,1.0698948706559477,frequency,575.0,9.4576240327839,0.00017749264800351195,0,57,[],0.022145239869132638,None,['space'],176.08133299998008,176.08133299998008,0.22551963990554214,1.2954145105614898,176.29862689995207,176.08133299998008,[-1.2765568000031635],,,,,,,,nfsmrp,001,fr,0,2022-06-21_16h28.39.554,Continuous,2022.1.1,None,
2,0,2,0,10,0,10,0,,,,,,,,2.2855746488986632,frequency,456.0,6.768870793728672,0.00016064585015441055,0,58,[],0.02155673992820084,None,['space'],177.39574459998403,177.39574459998403,0.22758833994157612,2.5131629888402394,177.61471409990918,177.39574459998403,[-0.9353344000410289],,,,,,,,nfsmrp,001,fr,0,2022-06-21_16h28.39.554,Continuous,2022.1.1,None,
2,0,2,0,11,0,11,0,,,,,,,,1.2679059111706343,frequency,362.0,12.46769415172142,0.0003630751536227134,0,59,[],0.020578339928761125,None,['space'],179.9192605999997,179.9192605999997,0.22177043999545276,1.489676351166087,180.13557679997757,179.9192605999997,[-2.1468818000284955],,,,,,,,nfsmrp,001,fr,0,2022-06-21_16h28.39.554,Continuous,2022.1.1,None,
2,0,2,0,12,0,12,0,,,,,,,,2.9241892494243276,frequency,287.0,11.172101664258555,0.0004642795624061281,0,60,[],0.022147039999254048,None,['space'],181.43267269991338,181.43267269991338,0.23116223991382867,3.1553514893381562,181.65316989994608,181.43267269991338,[-1.1237043999135494],,,,,,,,nfsmrp,001,fr,0,2022-06-21_16h28.39.554,Continuous,2022.1.1,None,
2,0,2,0,13,0,13,0,,,,,,,,2.000080903084119,frequency,228.0,1.738022806291209,0.00025723399853488585,0,61,[],0.02204873994924128,None,['space'],184.60013859998435,184.60013859998435,0.2265432400163263,2.2266241431004454,184.81785879994277,184.60013859998435,[-2.8042453000089154],,,,,,,,nfsmrp,001,fr,0,2022-06-21_16h28.39.554,Continuous,2022.1.1,None,
2,0,2,0,14,0,14,0,,,,,,,,2.25062043402868,frequency,181.0,1.447042106334215,0.00039530261938083475,0,62,[],0.02129914006218314,None,['space'],186.84322299994528,186.84322299994528,0.22629964002408087,2.476920074052761,187.06375749991275,186.84322299994528,[-1.8387403000378981],,,,,,,,nfsmrp,001,fr,0,2022-06-21_16h28.39.554,Continuous,2022.1.1,None,
3,0,3,0,0,0,0,0,,,,,0.5833333333333334,191.70850539999083,None,1.6821527363520945,both,4288.0,-5.422434881343168,5.5576690031808634e-05,0,26,[],0.024524040054529905,None,None,192.7252424999606,None,0.2368409400805831,1.9189936764326776,192.94004309992306,None,,189.33226579998154,None,,,,,,nfsmrp,001,fr,0,2022-06-21_16h28.39.554,Continuous,2022.1.1,None,
3,0,3,0,1,0,1,0,,,,,,,,1.6821527363520945,both,2862.0,-7.680616355542313,2.6185207407648657e-05,0,27,[],0.021536940010264516,None,None,194.64507189998403,194.64507189998403,0.22652704000938684,1.9086797763614813,194.86004139995202,194.64507189998403,,,,,,,,,nfsmrp,001,fr,0,2022-06-21_16h28.39.554,Continuous,2022.1.1,None,
3,0,3,0,2,0,2,0,,,,,,,,1.6821527363520945,both,1910.0,-7.86871571067476,2.8594229739300525e-05,0,28,[],0.02198104001581669,None,None,196.56439690000843,196.56439690000843,0.2294084399472922,1.9115611762993867,196.78012819995638,196.56439690000843,,,,,,,,,nfsmrp,001,fr,0,2022-06-21_16h28.39.554,Continuous,2022.1.1,None,
3,0,3,0,3,0,3,0,,,,,,,,1.6821527363520945,both,1275.0,-0.32077285307859604,5.1934733592029016e-05,0,29,[],0.021909039933234453,None,None,198.48663830000442,198.48663830000442,0.22651733993552625,1.9086700762876208,198.70079469995108,198.48663830000442,,,,,,,,,nfsmrp,001,fr,0,2022-06-21_16h28.39.554,Continuous,2022.1.1,None,
3,0,3,0,4,0,4,0,,,,,,,,1.6821527363520945,both,851.0,-7.9010355737094615,1.603330951629318e-05,0,30,[],0.010798139963299036,None,['space'],200.41069679998327,200.41069679998327,0.20737563993316144,1.889528376285256,200.62884349992964,200.41069679998327,[-1.286054000025615],,,,,,,,nfsmrp,001,fr,0,2022-06-21_16h28.39.554,Continuous,2022.1.1,None,
3,0,3,0,5,0,5,0,,,,,,,,1.6821527363520945,both,568.0,-6.469597260230696,2.888587916064862e-05,0,31,[],0.021058540092781186,None,None,202.3360388999572,202.3360388999572,0.22579954005777836,1.9079522764098729,202.54909799993038,202.3360388999572,,,,,,,,,nfsmrp,001,fr,0,2022-06-21_16h28.39.554,Continuous,2022.1.1,None,
3,0,3,0,6,0,6,0,,,,,,,,1.6821527363520945,both,379.0,-8.0,3.264724102951903e-05,0,32,[],0.02202363999094814,None,None,204.25407709996216,204.25407709996216,0.2267156399320811,1.9088683762841756,204.46776879997924,204.25407709996216,,,,,,,,,nfsmrp,001,fr,0,2022-06-21_16h28.39.554,Continuous,2022.1.1,None,
3,0,3,0,7,0,7,0,,,,,,,,1.6821527363520945,both,253.0,-7.911295713267119,6.608222435996223e-05,0,33,[],0.02187714003957808,None,None,206.17384359997232,206.17384359997232,0.22665004001464695,1.9088027763667414,206.38510079996195,206.17384359997232,,,,,,,,,nfsmrp,001,fr,0,2022-06-21_16h28.39.554,Continuous,2022.1.1,None,
3,0,3,0,8,0,8,0,,,,,,,,1.6821527363520945,both,169.0,-5.14850146884888,0.0002091516208119068,0,34,[],0.021606339956633747,None,None,208.09524419996887,208.09524419996887,0.2302644399460405,1.912417176298135,208.30946969997603,208.09524419996887,,,,,,,,,nfsmrp,001,fr,0,2022-06-21_16h28.39.554,Continuous,2022.1.1,None,
3,0,3,0,9,0,9,0,,,,,,,,1.6821527363520945,both,,,,1,34,[],0.021892540040425956,None,None,210.0127600999549,210.0127600999549,0.22726014000363648,1.909412876355731,210.22787980001885,210.0127600999549,,,,,,,,,nfsmrp,001,fr,0,2022-06-21_16h28.39.554,Continuous,2022.1.1,None,
4,0,4,0,0,0,0,0,,,,,0.5833333333333334,218.22204829996917,None,2.9144093519237346,both,2135.0,2.062594757389971,9.865831609308842e-05,0,35,[],0.02479993994347751,None,None,219.24916729994584,None,0.2237628399161622,3.138172191839897,219.45788479992189,None,,211.93095999991056,None,,,,,,nfsmrp,001,fr,0,2022-06-21_16h28.39.554,Continuous,2022.1.1,None,
4,0,4,0,1,0,1,0,,,,,,,,2.9144093519237346,both,1425.0,7.134488925018504,0.00011405684418423716,0,36,[],0.017199939931742847,None,None,222.39898880000692,222.39898880000692,0.21471783984452486,3.1291271917682595,222.61855909996666,222.39898880000692,,,,,,,,,nfsmrp,001,fr,0,2022-06-21_16h28.39.554,Continuous,2022.1.1,None,
4,0,4,0,2,0,2,0,,,,,,,,2.9144093519237346,both,951.0,3.443455877893811,6.341490352761126e-05,0,37,[],0.021679339930415154,None,['space'],225.56109299999662,225.56109299999662,0.22229853982571512,3.1367078917494498,225.77277729997877,225.56109299999662,[-2.620015099993907],,,,,,,,nfsmrp,001,fr,0,2022-06-21_16h28.39.554,Continuous,2022.1.1,None,
4,0,4,0,3,0,3,0,,,,,,,,2.9144093519237346,both,635.0,0.2785866751813545,5.237952365904271e-05,0,38,[],0.02108423982281238,None,['space'],228.71516259992495,228.71516259992495,0.22631733992602676,3.1407266918497614,228.9314916000003,228.71516259992495,[-2.5341295999241993],,,,,,,,nfsmrp,001,fr,0,2022-06-21_16h28.39.554,Continuous,2022.1.1,None,
4,0,4,0,4,0,4,0,,,,,,,,2.9144093519237346,both,424.0,1.6105921644114258,9.067474425627168e-05,0,39,[],0.015279839979484677,None,['space'],231.878488700022,231.878488700022,0.21116973995231092,3.1255790918760455,232.09480099997018,231.878488700022,[-2.402002799906768],,,,,,,,nfsmrp,001,fr,0,2022-06-21_16h28.39.554,Continuous,2022.1.1,None,
4,0,4,0,5,0,5,0,,,,,,,,2.9144093519237346,both,283.0,3.5251394992035436,0.00019885920078297603,0,40,[],0.021427639992907643,None,['space'],235.03655429999344,235.03655429999344,0.22352773998863995,3.1379370919123746,235.24993439996615,235.03655429999344,[-2.688424599939026],,,,,,,,nfsmrp,001,fr,0,2022-06-21_16h28.39.554,Continuous,2022.1.1,None,
4,0,4,0,6,0,6,0,,,,,,,,2.9144093519237346,both,189.0,4.0,0.0004841911708835744,0,41,[],0.021447940031066537,None,['space'],238.1974725999171,238.1974725999171,0.22769754007458687,3.1421068919983215,238.41874200000893,238.1974725999171,[-2.72887140000239],,,,,,,,nfsmrp,001,fr,0,2022-06-21_16h28.39.554,Continuous,2022.1.1,None,
4,0,4,0,7,0,7,0,,,,,,,,2.9144093519237346,both,126.0,2.661342416793084,0.000969737186419438,0,42,[],0.014506639912724495,None,['space'],241.35735659999773,241.35735659999773,0.21360793989151716,3.128017291815252,241.57890520000365,241.35735659999773,[-2.7536275000311434],,,,,,,,nfsmrp,001,fr,0,2022-06-21_16h28.39.554,Continuous,2022.1.1,None,
4,0,4,0,8,0,8,0,,,,,,,,2.9144093519237346,both,,,,1,42,[],0.021360939950682223,None,['space'],244.51410379994195,244.51410379994195,0.22659763996489346,3.141006991888628,244.728632299928,244.51410379994195,[-2.581086700083688],,,,,,,,nfsmrp,001,fr,0,2022-06-21_16h28.39.554,Continuous,2022.1.1,None,
5,0,5,0,0,0,0,0,,,,,0.5833333333333334,253.38427419995423,None,2.801713634186357,both,8000.0,0.0,0.0001815390273850507,0,43,[],0.02437954000197351,0.21972893993370235,None,254.42572990001645,None,0.21972893993370235,3.0214425741200595,254.62191009998787,None,,247.67304219992366,None,,,,,,nfsmrp,001,fr,0,2022-06-21_16h28.39.554,Continuous,2022.1.1,None,
5,0,5,0,1,0,1,0,,,,,,,,2.801713634186357,both,5339.0,0.184393306032913,0.00014325407893895357,0,44,[],0.020132840028963983,None,None,257.45113679999486,257.45113679999486,0.222108340007253,3.02382197419361,257.66507009998895,257.45113679999486,,,,,,,,,nfsmrp,001,fr,0,2022-06-21_16h28.39.554,Continuous,2022.1.1,None,
5,0,5,0,2,0,2,0,,,,,,,,2.801713634186357,both,3563.0,-0.8113674907460204,6.946723402750311e-05,0,45,[],0.01843513990752399,None,['space'],260.488202599925,260.488202599925,0.21804403990972787,3.019757674096085,260.70459799992386,260.488202599925,[-2.563828799990006],,,,,,,,nfsmrp,001,fr,0,2022-06-21_16h28.39.554,Continuous,2022.1.1,None,
5,0,5,0,3,0,3,0,,,,,,,,2.801713634186357,both,2378.0,0.0,8.319101203890894e-05,0,46,[],0.013885739957913756,None,['space'],263.5326504999539,263.5326504999539,0.21479243994690478,3.016506074133262,263.74852929997724,263.5326504999539,[-2.592456500045955],,,,,,,,nfsmrp,001,fr,0,2022-06-21_16h28.39.554,Continuous,2022.1.1,None,
5,0,5,0,4,0,4,0,,,,,,,,2.801713634186357,both,,,,1,46,[],0.017099740100093186,None,['space'],266.57919049996417,266.57919049996417,0.21441074006725103,3.016124374253608,266.7993533000117,266.57919049996417,[-2.5828011999838054],,,,,,,,nfsmrp,001,fr,0,2022-06-21_16h28.39.554,Continuous,2022.1.1,None,
5,0,5,0,5,0,5,0,,,,,,,,2.801713634186357,both,1059.0,3.120959386078952,6.663308991457292e-05,0,47,[],0.02120743994601071,None,None,269.63140780001413,269.63140780001413,0.2236729400465265,3.0253865742328836,269.8455198999727,269.63140780001413,,,,,,,,,nfsmrp,001,fr,0,2022-06-21_16h28.39.554,Continuous,2022.1.1,None,
5,0,5,0,6,0,6,0,,,,,,,,2.801713634186357,both,707.0,0.021867981931454245,4.4524267122168876e-05,0,48,[],0.01827274006791413,None,None,272.6676972999703,272.6676972999703,0.21706034010276198,3.018773974289119,272.8873375999974,272.6676972999703,,,,,,,,,nfsmrp,001,fr,0,2022-06-21_16h28.39.554,Continuous,2022.1.1,None,
5,0,5,0,7,0,7,0,,,,,,,,2.801713634186357,both,472.0,0.30527180600694326,7.548220587025495e-05,0,49,[],0.0134467399911955,None,['space'],275.71178209991194,275.71178209991194,0.2148912400007248,3.016604874187082,275.92461969994474,275.71178209991194,[-0.8516263999044895],,,,,,,,nfsmrp,001,fr,0,2022-06-21_16h28.39.554,Continuous,2022.1.1,None,
5,0,5,0,8,0,8,0,,,,,,,,2.801713634186357,both,315.0,2.3163830165074675,0.00012876242735547708,0,50,[],0.01914364006370306,None,['space'],278.7566090999171,278.7566090999171,0.2201731400564313,3.0218867742427884,278.97195389994886,278.7566090999171,[-2.3924316000193357],,,,,,,,nfsmrp,001,fr,0,2022-06-21_16h28.39.554,Continuous,2022.1.1,None,
6,0,6,0,0,0,0,0,,,,,,283.854378500022,None,2.147962444776744,time,201.0,-5.7264201823266205,0.0001362798489026095,0,26,[],0.024635039968416095,None,None,284.88375829998404,None,0.22313783993013203,2.371100284706876,285.08997189998627,None,,281.79558799997903,None,"[0.3333333333333333, 0.16666666666666666, 0.16666666666666666, 0.16666666666666666, 0.5833333333333334, 0.16666666666666666, 0.3333333333333333, 0.3333333333333333, 0.5833333333333334, 0.3333333333333333, 0.5833333333333334, 0.16666666666666666, 0.16666666666666666, 0.16666666666666666, 0.16666666666666666]",,,,,nfsmrp,001,fr,0,2022-06-21_16h28.39.554,Continuous,2022.1.1,None,
6,0,6,0,1,0,1,0,,,,,,,,2.147962444776744,time,379.0,-8.0,3.264724102951903e-05,0,27,[],0.02031353989150375,None,None,287.2658531999914,287.2658531999914,0.22529223992023617,2.37325468469698,287.4874265999533,287.2658531999914,,,,,,,,,nfsmrp,001,fr,0,2022-06-21_16h28.39.554,Continuous,2022.1.1,None,
6,0,6,0,2,0,2,0,,,,,,,,2.147962444776744,time,716.0,-4.5145074066424495,2.5941251901802848e-05,0,28,[],0.014313839958049357,0.2102057399461046,None,289.65831580001395,289.65831580001395,0.2102057399461046,2.3581681847228486,289.8736133999191,289.65831580001395,,,,,,,,,nfsmrp,001,fr,0,2022-06-21_16h28.39.554,Continuous,2022.1.1,None,
6,0,6,0,3,0,3,0,,,,,,,,2.147962444776744,time,804.0,-7.493702622698214,1.6239393912843626e-05,0,29,[],0.020721039967611432,None,None,292.0467402000213,292.0467402000213,0.22485133993905038,2.3728137847157944,292.263081699959,292.0467402000213,,,,,,,,,nfsmrp,001,fr,0,2022-06-21_16h28.39.554,Continuous,2022.1.1,None,
6,0,6,0,4,0,4,0,,,,,,,,2.147962444776744,time,143.0,-6.960210344936452,0.00025239934681573997,0,30,[],0.020522539969533682,None,None,294.4396699999925,294.4396699999925,0.22529993997886777,2.373262384755612,294.6532605999382,294.4396699999925,,,,,,,,,nfsmrp,001,fr,0,2022-06-21_16h28.39.554,Continuous,2022.1.1,None,
6,0,6,0,5,0,5,0,,,,,,,,2.147962444776744,time,253.0,-0.29367086941125065,0.00015884220066069162,0,31,[],0.020524939987808466,0.22119333990849555,None,296.8733241999289,296.8733241999289,0.22119333990849555,2.3691557846852396,297.03622909996193,296.8733241999289,,,,,,,,,nfsmrp,001,fr,0,2022-06-21_16h28.39.554,Continuous,2022.1.1,None,
6,0,6,0,6,0,6,0,,,,,,,,2.147962444776744,time,1136.0,-1.4444636509940763,4.21202306018207e-05,0,32,[],0.015748740057460964,None,['space'],299.21585439995397,299.21585439995397,0.21676044003106654,2.3647228848078106,299.4324422000209,299.21585439995397,[-1.8027293999912217],,,,,,,,nfsmrp,001,fr,0,2022-06-21_16h28.39.554,Continuous,2022.1.1,None,
6,0,6,0,7,0,7,0,,,,,,,,2.147962444776744,time,,,,1,32,[],0.02044713997747749,None,None,301.6148469999898,301.6148469999898,0.22514383995439857,2.3731062847311426,301.83480029995553,301.6148469999898,,,,,,,,,nfsmrp,001,fr,0,2022-06-21_16h28.39.554,Continuous,2022.1.1,None,
6,0,6,0,8,0,8,0,,,,,,,,2.147962444776744,time,1012.0,-3.395045500659223,3.0139637435303862e-05,0,33,[],0.018061539973132312,None,None,304.0010117000202,304.0010117000202,0.216320040053688,2.364282484830432,304.22241579997353,304.0010117000202,,,,,,,,,nfsmrp,001,fr,0,2022-06-21_16h28.39.554,Continuous,2022.1.1,None,
6,0,6,0,9,0,9,0,,,,,,,,2.147962444776744,time,902.0,-0.35136254667816624,3.963107492628292e-05,0,34,[],0.02020864002406597,None,None,306.3935343999183,306.3935343999183,0.22685583995189518,2.374818284728639,306.61058749991935,306.3935343999183,,,,,,,,,nfsmrp,001,fr,0,2022-06-21_16h28.39.554,Continuous,2022.1.1,None,
6,0,6,0,10,0,10,0,,,,,,,,2.147962444776744,time,160.0,-4.514913793774185,0.0002444692919260818,0,35,[],0.020305640064179897,None,None,308.78644139994867,308.78644139994867,0.22680514003150165,2.3747675848082457,308.9984891000204,308.78644139994867,,,,,,,,,nfsmrp,001,fr,0,2022-06-21_16h28.39.554,Continuous,2022.1.1,None,
7,0,7,0,0,0,0,0,,,,,0.5833333333333334,315.18334340001456,None,1.55510919982264,both,8000.0,4.0,0.0002877199686685786,0,51,[],0.024789439979940653,None,None,316.2098818999948,None,0.22311774000991136,1.7782269398325514,316.4211949999444,None,,311.17484579992015,None,,,,,,nfsmrp,001,fr,0,2022-06-21_16h28.39.554,Continuous,2022.1.1,None,
7,0,7,0,1,0,1,0,,,,,,,,1.55510919982264,both,5339.0,0.9310638151327937,0.00015611352214217825,0,52,[],0.01607483997941017,None,['space'],317.9991141000064,317.9991141000064,0.21329823997803032,1.7684074398006704,318.2186228999635,317.9991141000064,[-0.8756041000597179],,,,,,,,nfsmrp,001,fr,0,2022-06-21_16h28.39.554,Continuous,2022.1.1,None,
7,0,7,0,2,0,2,0,,,,,,,,1.55510919982264,both,3563.0,3.1280165833103855,0.00010933248284020925,0,53,[],0.01595493999775499,None,['space'],319.8025200999109,319.8025200999109,0.21615433995611966,1.7712635397787597,320.0212035999866,319.8025200999109,[-1.3741729999892414],,,,,,,,nfsmrp,001,fr,0,2022-06-21_16h28.39.554,Continuous,2022.1.1,None,
7,0,7,0,3,0,3,0,,,,,,,,1.55510919982264,both,2378.0,1.2852450673191091,9.6458090652521e-05,0,54,[],0.019157439935952425,None,['space'],321.6026807000162,321.6026807000162,0.2222122399834916,1.7773214398061317,321.8234398999484,321.6026807000162,[-1.3662760000443086],,,,,,,,nfsmrp,001,fr,0,2022-06-21_16h28.39.554,Continuous,2022.1.1,None,
7,0,7,0,4,0,4,0,,,,,,,,1.55510919982264,both,1587.0,5.638286405541195,0.00010651173207961954,0,55,[],0.019549940014258027,None,['space'],323.402127899928,323.402127899928,0.22996123996563256,1.7850704397882726,323.62102349998895,323.402127899928,[-1.365768100018613],,,,,,,,nfsmrp,001,fr,0,2022-06-21_16h28.39.554,Continuous,2022.1.1,None,
7,0,7,0,5,0,5,0,,,,,,,,1.55510919982264,both,,,,1,55,[],0.020227339933626354,None,['space'],325.19970220001414,325.19970220001414,0.22475713992025703,1.779866339742897,325.4127066999208,325.19970220001414,[-1.3716783000854775],,,,,,,,nfsmrp,001,fr,0,2022-06-21_16h28.39.554,Continuous,2022.1.1,None,
7,0,7,0,6,0,6,0,,,,,,,,1.55510919982264,both,707.0,2.3154423077064044,5.797963752404848e-05,0,56,[],0.020913240034133196,None,None,327.0000690999441,327.0000690999441,0.2370125399902463,1.7921217398128864,327.2212063999614,327.0000690999441,,,,,,,,,nfsmrp,001,fr,0,2022-06-21_16h28.39.554,Continuous,2022.1.1,None,
7,0,7,0,7,0,7,0,,,,,,,,1.55510919982264,both,472.0,2.7385603410817696,9.988700928685536e-05,0,57,[],0.006556039908900857,None,None,328.8064747999888,328.8064747999888,0.2055566399358213,1.7606658397584614,329.0255152999889,328.8064747999888,,,,,,,,,nfsmrp,001,fr,0,2022-06-21_16h28.39.554,Continuous,2022.1.1,None,
7,0,7,0,8,0,8,0,,,,,,,,1.55510919982264,both,315.0,3.7204104192686285,0.0001513528228483704,0,58,[],0.019092740025371313,None,['space'],330.61077919998206,330.61077919998206,0.22348734003026038,1.7785965398529004,330.8282470999984,330.61077919998206,[-1.2699325999710709],,,,,,,,nfsmrp,001,fr,0,2022-06-21_16h28.39.554,Continuous,2022.1.1,None,
8,0,8,0,0,0,0,0,,,,,,334.5205917999847,None,1.156702474968998,none,675.0,-2.0180421014000918,3.7429142791240695e-05,0,26,[],0.024747940013185143,None,None,335.5356996000046,None,0.24424153997097164,1.4009440149399697,335.7598850999493,None,,332.4065306999255,None,"[0.3333333333333333, 0.16666666666666666, 0.16666666666666666, 0.16666666666666666, 0.3333333333333333, 0.3333333333333333, 0.5833333333333334, 0.5833333333333334, 0.5833333333333334, 0.16666666666666666, 0.3333333333333333, 0.16666666666666666, 0.16666666666666666, 0.16666666666666666, 0.5833333333333334]",,,,,nfsmrp,001,fr,0,2022-06-21_16h28.39.554,Continuous,2022.1.1,None,
8,0,8,0,1,0,1,0,,,,,,,,1.17229317015323,none,379.0,-8.0,3.264724102951903e-05,0,27,[],0.014995239791460335,None,None,336.9381208999548,336.9381208999548,0.21087793982587755,1.3831711099791075,337.1567221999867,336.9381208999548,,,,,,,,,nfsmrp,001,fr,0,2022-06-21_16h28.39.554,Continuous,2022.1.1,None,
8,0,8,0,2,0,2,0,,,,,,,,2.945318654377808,none,758.0,-2.691543056133887,2.954529315794081e-05,0,28,[],0.01528933981899172,None,None,338.35728999995627,338.35728999995627,0.2150738398777321,3.16039249425554,338.57499579992145,338.35728999995627,,,,,,,,,nfsmrp,001,fr,0,2022-06-21_16h28.39.554,Continuous,2022.1.1,None,
8,0,8,0,3,0,3,0,,,,,,,,1.2341770493404456,none,535.0,-4.39335483100418,3.979013436579086e-05,0,29,[],0.01964993996080011,None,None,341.5510516000213,341.5510516000213,0.2251026399899274,1.459279689330373,341.7598105999641,341.5510516000213,,,,,,,,,nfsmrp,001,fr,0,2022-06-21_16h28.39.554,Continuous,2022.1.1,None,
8,0,8,0,4,0,4,0,,,,,,,,1.8466511967503836,none,601.0,-2.62058384733388,4.118485853318354e-05,0,30,[],0.01756094000302255,None,None,343.024771999917,343.024771999917,0.2182735400274396,2.064924736777823,343.24607989995275,343.024771999917,,,,,,,,,nfsmrp,001,fr,0,2022-06-21_16h28.39.554,Continuous,2022.1.1,None,
8,0,8,0,5,0,5,0,,,,,,,,1.1806643614992416,none,425.0,-1.9356637415020819,6.023915235644529e-05,0,31,[],0.019568540039472282,None,None,345.1214111999143,345.1214111999143,0.2250310400268063,1.4056954015260479,345.3325833999552,345.1214111999143,,,,,,,,,nfsmrp,001,fr,0,2022-06-21_16h28.39.554,Continuous,2022.1.1,None,
8,0,8,0,6,0,6,0,,,,,,,,2.229105114378525,none,1136.0,4.913588252502222,8.757765966843342e-05,0,32,[],0.017745839897543192,None,None,346.5451526999241,346.5451526999241,0.21938363986555487,2.44848875424408,346.7654842999764,346.5451526999241,,,,,,,,,nfsmrp,001,fr,0,2022-06-21_16h28.39.554,Continuous,2022.1.1,None,
8,0,8,0,7,0,7,0,,,,,,,,2.515962007160911,none,,,,1,32,[],0.019634239957667887,None,['space'],349.02378980000503,349.02378980000503,0.22491533996071666,2.7408773471216277,349.2351425999077,349.02378980000503,[-1.9394215000793338],,,,,,,,nfsmrp,001,fr,0,2022-06-21_16h28.39.554,Continuous,2022.1.1,None,
8,0,8,0,8,0,8,0,,,,,,,,1.1048791277289307,none,253.0,-7.032549954270271,7.311760224307813e-05,0,33,[],0.020089439931325614,None,None,351.7772455000086,351.7772455000086,0.22599933994933963,1.3308784676782703,351.9887394999387,351.7772455000086,,,,,,,,,nfsmrp,001,fr,0,2022-06-21_16h28.39.554,Continuous,2022.1.1,None,
9,0,9,0,0,0,0,0,,,,,0.5833333333333334,355.9085841999622,None,2.971304706594421,frequency,4288.0,-0.8250482321416899,9.435436810620604e-05,0,63,[],0.022035239962860942,None,None,356.9247072999133,None,0.21717963996343315,3.1884843465578543,357.1442963000154,None,,353.12907919997815,None,,,,,,nfsmrp,001,fr,0,2022-06-21_16h28.39.554,Continuous,2022.1.1,None,
9,0,9,0,1,0,1,0,,,,,,,,2.0555609756105806,frequency,2862.0,-1.493042937847925,5.3386898222656003e-05,0,64,[],0.014703539898619056,None,None,360.14483050000854,360.14483050000854,0.20991983998101205,2.2654808155915926,360.3643238999648,360.14483050000854,,,,,,,,,nfsmrp,001,fr,0,2022-06-21_16h28.39.554,Continuous,2022.1.1,None,
9,0,9,0,2,0,2,0,,,,,,,,1.5226822332031664,frequency,1910.0,2.4089941381196307,9.336065599842092e-05,0,65,[],0.014533640001900494,0.21046963997650892,None,362.44804970000405,362.44804970000405,0.21046963997650892,1.7331518731796753,362.66649749991484,362.44804970000405,,,,,,,,,nfsmrp,001,fr,0,2022-06-21_16h28.39.554,Continuous,2022.1.1,None,
9,0,9,0,3,0,3,0,,,,,,,,2.666927966479843,frequency,1275.0,0.9633134925379512,6.0209112476501934e-05,0,66,[],0.01512984000146389,None,None,364.2158326000208,364.2158326000208,0.2100423399824649,2.876970306462308,364.4346642999444,364.2158326000208,,,,,,,,,nfsmrp,001,fr,0,2022-06-21_16h28.39.554,Continuous,2022.1.1,None,
9,0,9,0,4,0,4,0,,,,,,,,1.8504817940921972,frequency,851.0,0.6456679783503148,4.289022792252787e-05,0,67,[],0.019064740044996142,None,['space'],367.13078389992006,367.13078389992006,0.22444954002276063,2.074931334114958,367.34090209996793,367.13078389992006,[-2.406050999998115],,,,,,,,nfsmrp,001,fr,0,2022-06-21_16h28.39.554,Continuous,2022.1.1,None,
9,0,9,0,5,0,5,0,,,,,,,,1.593181787130157,frequency,568.0,-0.7670169301074822,5.5694794599516426e-05,0,68,[],0.013932439964264631,None,None,369.2234962999355,369.2234962999355,0.2143916399218142,1.8075734270519712,369.44203219993506,369.2234962999355,,,,,,,,,nfsmrp,001,fr,0,2022-06-21_16h28.39.554,Continuous,2022.1.1,None,
9,0,9,0,6,0,6,0,,,,,,,,1.2985993088768901,frequency,379.0,0.0,8.200616176827168e-05,0,69,[],0.019026439869776368,None,None,371.0687082000077,371.0687082000077,0.2228997399797663,1.5214990488566564,371.28113649995066,371.0687082000077,,,,,,,,,nfsmrp,001,fr,0,2022-06-21_16h28.39.554,Continuous,2022.1.1,None,
9,0,9,0,7,0,7,0,,,,,,,,2.85471646750898,frequency,253.0,0.0223743477611118,0.00016472827710977314,0,70,[],0.014931840007193387,0.2101496399845928,['space'],372.61042419995647,372.61042419995647,0.2101496399845928,3.0648661074935726,372.8264048999408,372.61042419995647,[-0.29366560000926256],,,,,,,,nfsmrp,001,fr,0,2022-06-21_16h28.39.554,Continuous,2022.1.1,None,
9,0,9,0,8,0,8,0,,,,,,,,2.171170012498396,frequency,169.0,0.1410682074455475,0.000384538402963502,0,71,[],0.016379939974285662,0.21589513996150345,['space'],375.70934750000015,375.70934750000015,0.21589513996150345,2.3870651524598996,375.9253423999762,375.70934750000015,[-2.5127125000581145],,,,,,,,nfsmrp,001,fr,0,2022-06-21_16h28.39.554,Continuous,2022.1.1,None,
9,0,9,0,9,0,9,0,,,,,,,,2.806368251464437,frequency,,,,1,71,[],0.0189551399089396,None,['space'],378.1207446999615,378.1207446999615,0.22291873989161104,3.029286991356048,378.33240860002115,378.1207446999615,[-1.980570700019598],,,,,,,,nfsmrp,001,fr,0,2022-06-21_16h28.39.554,Continuous,2022.1.1,None,
10,0,10,0,0,0,0,0,,,,,0.3333333333333333,384.6465045999503,None,2.6232704388022228,frequency,792.0,4.302136783473352,6.3558672662735e-05,0,72,[],0.02439413999672979,None,None,385.67410039994866,None,0.22394163999706507,2.847212078799288,385.8883801000193,None,,381.1661164999241,None,,,,,,nfsmrp,001,fr,0,2022-06-21_16h28.39.554,Continuous,2022.1.1,None,
10,0,10,0,1,0,1,0,,,,,,,,2.7440906942283467,frequency,629.0,4.1133137396922,8.240581048355796e-05,0,73,[],0.018292639986611903,None,None,388.53263479995076,388.53263479995076,0.22365073999390006,2.967741434222247,388.743811699911,388.53263479995076,,,,,,,,,nfsmrp,001,fr,0,2022-06-21_16h28.39.554,Continuous,2022.1.1,None,
10,0,10,0,2,0,2,0,,,,,,,,1.086429291745638,frequency,499.0,1.5308646022905206,8.527539265753241e-05,0,74,[],0.014268039958551526,None,['space'],391.51295819994994,391.51295819994994,0.2123011399526149,1.2987304316982529,391.7309320999775,391.51295819994994,[-2.1725698000518605],,,,,,,,nfsmrp,001,fr,0,2022-06-21_16h28.39.554,Continuous,2022.1.1,None,
10,0,10,0,3,0,3,0,,,,,,,,1.9488986039039187,frequency,396.0,5.177887302331211,0.0001408366997587176,0,75,[],0.014589439961127937,0.20943153998814523,['space'],392.8483355999924,392.8483355999924,0.20943153998814523,2.158330143892064,393.0649819999235,392.8483355999924,[-0.924242899985984],,,,,,,,nfsmrp,001,fr,0,2022-06-21_16h28.39.554,Continuous,2022.1.1,None,
10,0,10,0,4,0,4,0,,,,,,,,2.123989723143712,frequency,314.0,5.666611545845562,0.00019139958177298463,0,76,[],0.018453339813277125,None,['space'],395.0403637000127,395.0403637000127,0.22489923983812332,2.3488889629818352,395.25541089999024,395.0403637000127,[-1.5963769999798387],,,,,,,,nfsmrp,001,fr,0,2022-06-21_16h28.39.554,Continuous,2022.1.1,None,
10,0,10,0,5,0,5,0,,,,,,,,2.1514360129345684,frequency,,,,1,76,[],0.014257339877076447,None,['space'],397.4042434999719,397.4042434999719,0.2108743399148807,2.362310352849449,397.6201723999111,397.4042434999719,[-1.9758156000170857],,,,,,,,nfsmrp,001,fr,0,2022-06-21_16h28.39.554,Continuous,2022.1.1,None,
10,0,10,0,6,0,6,0,,,,,,,,2.516717623472034,frequency,198.0,6.969799559498664,0.0006084386626649265,0,77,[],0.01893613999709487,None,None,399.802067099954,399.802067099954,0.2214178399881348,2.7381354634601687,400.0227541999193,399.802067099954,,,,,,,,,nfsmrp,001,fr,0,2022-06-21_16h28.39.554,Continuous,2022.1.1,None,
10,0,10,0,7,0,7,0,,,,,,,,1.4370393009787363,frequency,157.0,2.095950453251419,0.0005573176709384765,0,78,[],0.018412039964459836,None,['space'],402.5702462999616,402.5702462999616,0.22356023988686502,1.6605995408656014,402.78229050000664,402.5702462999616,[-2.430076300050132],,,,,,,,nfsmrp,001,fr,0,2022-06-21_16h28.39.554,Continuous,2022.1.1,None,
10,0,10,0,8,0,8,0,,,,,,,,1.1686161591382687,frequency,125.0,7.0,0.0016179682846481417,0,79,[],0.012165440013632178,None,['space'],404.2481469999766,404.2481469999766,0.21919124003034085,1.3878073991686095,404.47391900001094,404.2481469999766,[-1.2192199000855908],,,,,,,,nfsmrp,001,fr,0,2022-06-21_16h28.39.554,Continuous,2022.1.1,None,
11,0,11,0,0,0,0,0,,,,,,408.3449548999779,None,1.087031531661624,time,637.0,5.806842180189695,9.864388045782681e-05,0,36,[],0.024430639808997512,0.22159873985219747,None,409.36730529996566,None,0.22159873985219747,1.3086302715138214,409.5771386999404,None,,405.66755179991014,None,"[0.16666666666666666, 0.16666666666666666, 0.3333333333333333, 0.5833333333333334, 0.3333333333333333, 0.16666666666666666, 0.5833333333333334, 0.3333333333333333, 0.3333333333333333, 0.3333333333333333, 0.5833333333333334, 0.3333333333333333, 0.16666666666666666, 0.3333333333333333, 0.5833333333333334]",,,,,nfsmrp,001,fr,0,2022-06-21_16h28.39.554,Continuous,2022.1.1,None,
11,0,11,0,1,0,1,0,,,,,,,,1.087031531661624,time,2862.0,5.96532371098731,0.0001259949160605251,0,37,[],0.014153039897792041,0.2090812399983406,['space'],410.68510739994235,410.68510739994235,0.2090812399983406,1.2961127716599645,410.9014071999118,410.68510739994235,[-0.6638849000446498],,,,,,,,nfsmrp,001,fr,0,2022-06-21_16h28.39.554,Continuous,2022.1.1,None,
11,0,11,0,2,0,2,0,,,,,,,,1.087031531661624,time,955.0,4.217227646059712,6.950815654425484e-05,0,38,[],0.014638139982707798,0.21049514005426317,['space'],412.018774199998,412.018774199998,0.21049514005426317,1.297526671715887,412.2360028999392,412.018774199998,[-0.9097911999560893],,,,,,,,nfsmrp,001,fr,0,2022-06-21_16h28.39.554,Continuous,2022.1.1,None,
11,0,11,0,3,0,3,0,,,,,,,,1.087031531661624,time,7641.0,4.815520996096604,0.00029709808814406803,0,39,[],0.018062639865092933,None,None,413.34881699993275,413.34881699993275,0.22435363987460732,1.3113851715362312,413.56627599999774,413.34881699993275,,,,,,,,,nfsmrp,001,fr,0,2022-06-21_16h28.39.554,Continuous,2022.1.1,None,
11,0,11,0,4,0,4,0,,,,,,,,1.087031531661624,time,,,,1,39,[],0.018040739931166172,None,['space'],414.677992300014,414.677992300014,0.22504443989600986,1.3120759715576338,414.8874801999191,414.677992300014,[-0.9450808999827132],,,,,,,,nfsmrp,001,fr,0,2022-06-21_16h28.39.554,Continuous,2022.1.1,None,
11,0,11,0,5,0,5,0,,,,,,,,1.087031531661624,time,1516.0,6.0,9.907320081476382e-05,0,40,[],0.015192639897577465,0.21026583993807435,None,416.0041648999322,416.0041648999322,0.21026583993807435,1.2972973715996983,416.2227835999802,416.0041648999322,,,,,,,,,nfsmrp,001,fr,0,2022-06-21_16h28.39.554,Continuous,2022.1.1,None,
11,0,11,0,6,0,6,0,,,,,,,,1.087031531661624,time,1203.0,6.0,0.00010483776575240432,0,41,[],0.014288539998233318,None,['space'],417.3384325999068,417.3384325999068,0.21278344001621008,1.299814971677834,417.5588099999586,417.3384325999068,[-0.958863899926655],,,,,,,,nfsmrp,001,fr,0,2022-06-21_16h28.39.554,Continuous,2022.1.1,None,
11,0,11,0,7,0,7,0,,,,,,,,1.087031531661624,time,3606.0,-0.7049626075766771,7.101944689443483e-05,0,42,[],0.014109239913523197,0.21197013999335468,['space'],418.6776326999534,418.6776326999534,0.21197013999335468,1.2990016716549786,418.88768699998036,418.6776326999534,[-0.9692777999443933],,,,,,,,nfsmrp,001,fr,0,2022-06-21_16h28.39.554,Continuous,2022.1.1,None,
11,0,11,0,8,0,8,0,,,,,,,,1.087031531661624,time,568.0,-0.04161574158836423,6.054588979331295e-05,0,43,[],0.0159887399058789,0.21574283996596932,['space'],420.0058723000111,420.0058723000111,0.21574283996596932,1.3027743716275932,420.2231614999473,420.0058723000111,[-0.8903569999383762],,,,,,,,nfsmrp,001,fr,0,2022-06-21_16h28.39.554,Continuous,2022.1.1,None,
11,0,11,0,9,0,9,0,,,,,,,,1.087031531661624,time,451.0,2.7511525806254724,0.00010150481367987829,0,44,[],0.017347040004096925,None,None,421.3403745999094,421.3403745999094,0.22275384003296494,1.3097853716945889,421.55317620001733,421.3403745999094,,,,,,,,,nfsmrp,001,fr,0,2022-06-21_16h28.39.554,Continuous,2022.1.1,None,
11,0,11,0,10,0,10,0,,,,,,,,1.087031531661624,time,5100.0,2.7160687592588073,0.00020377925077595026,0,45,[],0.014455339987762272,None,['space'],422.6638059999095,422.6638059999095,0.2145251400070265,1.3015566716686504,422.8844555999385,422.6638059999095,[-0.7796229999512434],,,,,,,,nfsmrp,001,fr,0,2022-06-21_16h28.39.554,Continuous,2022.1.1,None,
11,0,11,0,11,0,11,0,,,,,,,,1.087031531661624,time,301.0,5.83045022756118,0.00022199232955597004,0,46,[],0.017589939991012216,None,['space'],424.0090571999317,424.0090571999317,0.22096053999848664,1.3079920716601106,424.22838819993194,424.0090571999317,[-0.9559983999934047],,,,,,,,nfsmrp,001,fr,0,2022-06-21_16h28.39.554,Continuous,2022.1.1,None,
11,0,11,0,12,0,12,0,,,,,,,,1.087031531661624,time,1910.0,5.655226854647709,0.00013566740887381684,0,47,[],0.010290840058587492,None,['space'],425.3394149999367,425.3394149999367,0.21083274006377906,1.297864271725403,425.55356989998836,425.3394149999367,[-0.9830520999385044],,,,,,,,nfsmrp,001,fr,0,2022-06-21_16h28.39.554,Continuous,2022.1.1,None,
11,0,11,0,13,0,13,0,,,,,,,,1.087031531661624,time,213.0,4.024796416289602,0.000381418498216673,0,48,[],0.017542939982376993,None,['space'],426.6748024999397,426.6748024999397,0.22455574001651257,1.3115872716781365,426.89094469998963,426.6748024999397,[-0.9266685999464244],,,,,,,,nfsmrp,001,fr,0,2022-06-21_16h28.39.554,Continuous,2022.1.1,None,
11,0,11,0,14,0,14,0,,,,,,,,1.087031531661624,time,4048.0,-1.2715810222779282,7.53617460926277e-05,0,49,[],0.012360939988866448,None,['space'],428.0061645999085,428.0061645999085,0.21339703991543502,1.300428571577059,428.2255463999463,428.0061645999085,[-0.9455072999699041],,,,,,,,nfsmrp,001,fr,0,2022-06-21_16h28.39.554,Continuous,2022.1.1,None,
12,0,12,0,0,0,0,0,,,,,,433.3109514999669,None,1.1091041511401256,time,154.0,0.8560094500002126,0.0005126511370442107,0,50,[],0.02492283983156085,None,None,434.32304369995836,None,0.22555653983727098,1.3346606909773966,434.53622959996574,None,,429.3469053999288,None,"[0.16666666666666666, 0.5833333333333334, 0.3333333333333333, 0.16666666666666666, 0.16666666666666666, 0.3333333333333333, 0.5833333333333334, 0.3333333333333333, 0.5833333333333334, 0.16666666666666666, 0.5833333333333334, 0.5833333333333334, 0.3333333333333333, 0.5833333333333334, 0.16666666666666666]",,,,,nfsmrp,001,fr,0,2022-06-21_16h28.39.554,Continuous,2022.1.1,None,
12,0,12,0,1,0,1,0,,,,,,,,1.1091041511401256,time,731.0,-0.7491524971247469,3.881160999435166e-05,0,51,[],0.017190439975820482,None,['space'],435.6703453999944,435.6703453999944,0.2217859399970621,1.3308900911371877,435.87444719998166,435.6703453999944,[-0.8171724000712857],,,,,,,,nfsmrp,001,fr,0,2022-06-21_16h28.39.554,Continuous,2022.1.1,None,
12,0,12,0,2,0,2,0,,,,,,,,1.1091041511401256,time,435.0,-1.0,6.663525585693164e-05,0,52,[],0.01715803996194154,None,None,437.0174575999845,437.0174575999845,0.22247493988834321,1.3315790910284688,437.2397463999223,437.0174575999845,,,,,,,,,nfsmrp,001,fr,0,2022-06-21_16h28.39.554,Continuous,2022.1.1,None,
12,0,12,0,3,0,3,0,,,,,,,,1.1091041511401256,time,2321.0,-0.381018047858531,7.841130481263658e-05,0,53,[],0.014649939956143498,None,None,438.3761935000075,438.3761935000075,0.21358163992408663,1.3226857910642122,438.596388499951,438.3761935000075,,,,,,,,,nfsmrp,001,fr,0,2022-06-21_16h28.39.554,Continuous,2022.1.1,None,
12,0,12,0,4,0,4,0,,,,,,,,1.1091041511401256,time,1380.0,1.4344737330100727,6.049041018750043e-05,0,54,[],0.017263639834709466,None,None,439.7384294999065,439.7384294999065,0.22334223985671997,1.3324463909968456,439.95327649998944,439.7384294999065,,,,,,,,,nfsmrp,001,fr,0,2022-06-21_16h28.39.554,Continuous,2022.1.1,None,
12,0,12,0,5,0,5,0,,,,,,,,1.1091041511401256,time,230.0,0.5705285300117959,0.00022069706332339048,0,55,[],0.014625640003941953,None,None,441.0962259999942,441.0962259999942,0.21421623998321593,1.3233203911233415,441.3162361999275,441.0962259999942,,,,,,,,,nfsmrp,001,fr,0,2022-06-21_16h28.39.554,Continuous,2022.1.1,None,
12,0,12,0,6,0,6,0,,,,,,,,1.1091041511401256,time,,,,1,55,[],0.017201039823703468,None,['space'],442.4610714999726,442.4610714999726,0.2216738398419693,1.330777990982095,442.67906310001854,442.4610714999726,[-0.8245280999690294],,,,,,,,nfsmrp,001,fr,0,2022-06-21_16h28.39.554,Continuous,2022.1.1,None,
12,0,12,0,7,0,7,0,,,,,,,,1.1091041511401256,time,2068.0,1.1238099928099947,8.686084829115029e-05,0,56,[],0.015024739899672568,None,None,443.81576599995606,443.81576599995606,0.21402783994562924,1.3231319910857549,444.0357347999234,443.81576599995606,,,,,,,,,nfsmrp,001,fr,0,2022-06-21_16h28.39.554,Continuous,2022.1.1,None,
12,0,12,0,8,0,8,0,,,,,,,,1.1091041511401256,time,1095.0,2.405063836323903,6.33475456263151e-05,0,57,[],0.017064339946955442,None,['space'],445.17956079996657,445.17956079996657,0.2234447399387136,1.3325488910788392,445.39830509992316,445.17956079996657,[-0.7597668999806046],,,,,,,,nfsmrp,001,fr,0,2022-06-21_16h28.39.554,Continuous,2022.1.1,None,
12,0,12,0,9,0,9,0,,,,,,,,1.1091041511401256,time,488.0,-0.5565614692728914,6.758546097843886e-05,0,58,[],0.013721439987421036,None,None,446.53494459996,446.53494459996,0.2111412399681285,1.3202453911082541,446.75542739999946,446.53494459996,,,,,,,,,nfsmrp,001,fr,0,2022-06-21_16h28.39.554,Continuous,2022.1.1,None,
13,0,13,0,0,0,0,0,,,,,0.16666666666666666,451.2729693999281,None,1.5548596383632918,both,354.0,1.6595706276187143,0.00010712826435555548,0,59,[],0.02291523979511112,None,None,452.2899002999766,None,0.23343093984294683,1.7882905782062386,452.51204329996835,None,,447.8998930999078,None,,,,,,nfsmrp,001,fr,0,2022-06-21_16h28.39.554,Continuous,2022.1.1,None,
13,0,13,0,1,0,1,0,,,,,,,,1.5548596383632918,both,315.0,1.230727071567495,0.00011363349330786369,0,60,[],0.016853939974680543,None,None,454.0920175999636,454.0920175999636,0.2225092399166897,1.7773688782799815,454.3088798999088,454.0920175999636,,,,,,,,,nfsmrp,001,fr,0,2022-06-21_16h28.39.554,Continuous,2022.1.1,None,
13,0,13,0,2,0,2,0,,,,,,,,1.5548596383632918,both,281.0,1.8328085450257956,0.00016627152885871684,0,61,[],0.015949739958159626,None,None,455.89347160002217,455.89347160002217,0.22126403998117894,1.7761236783444707,456.1058981999522,455.89347160002217,,,,,,,,,nfsmrp,001,fr,0,2022-06-21_16h28.39.554,Continuous,2022.1.1,None,
13,0,13,0,3,0,3,0,,,,,,,,1.5548596383632918,both,250.0,1.012423523843192,0.00018818767665130517,0,62,[],0.007322140038013458,0.19526844006031752,['space'],457.69594229990616,457.69594229990616,0.19526844006031752,1.7501280784236093,457.9048789999215,457.69594229990616,[-1.4676677000243217],,,,,,,,nfsmrp,001,fr,0,2022-06-21_16h28.39.554,Continuous,2022.1.1,None,
13,0,13,0,4,0,4,0,,,,,,,,1.5548596383632918,both,223.0,0.3914926242952538,0.00023054116681068293,0,63,[],0.01676683989353478,None,['space'],459.49502689996734,459.49502689996734,0.22196173993870616,1.776821378301998,459.7000761999516,459.49502689996734,[-1.4983943999977782],,,,,,,,nfsmrp,001,fr,0,2022-06-21_16h28.39.554,Continuous,2022.1.1,None,
13,0,13,0,5,0,5,0,,,,,,,,1.5548596383632918,both,199.0,0.10572381412982534,0.000272379480950921,0,64,[],0.010181939927861094,0.20775073999539018,['space'],461.2931031999178,461.2931031999178,0.20775073999539018,1.762610378358682,461.5043388999766,461.2931031999178,[-1.4891209999332204],,,,,,,,nfsmrp,001,fr,0,2022-06-21_16h28.39.554,Continuous,2022.1.1,None,
13,0,13,0,6,0,6,0,,,,,,,,1.5548596383632918,both,177.0,0.0,0.00034920770625886783,0,65,[],0.013603839906863868,None,['space'],463.0903713000007,463.0903713000007,0.20886583987157792,1.7637254782348697,463.30724409990944,463.0903713000007,[-1.5101289000594988],,,,,,,,nfsmrp,001,fr,0,2022-06-21_16h28.39.554,Continuous,2022.1.1,None,
13,0,13,0,7,0,7,0,,,,,,,,1.5548596383632918,both,,,,1,65,[],0.012862039846368134,0.2084224398713559,['space'],464.8930731000146,464.8930731000146,0.2084224398713559,1.7632820782346477,465.107660699985,464.8930731000146,[-1.5447538000298664],,,,,,,,nfsmrp,001,fr,0,2022-06-21_16h28.39.554,Continuous,2022.1.1,None,
13,0,13,0,8,0,8,0,,,,,,,,1.5548596383632918,both,141.0,1.5976301060517086,0.0006974534673960803,0,66,[],0.0135400400031358,None,['space'],466.6911287999246,466.6911287999246,0.2097284400369972,1.764588078400289,466.90948469995055,466.6911287999246,[-1.2228557999478653],,,,,,,,nfsmrp,001,fr,0,2022-06-21_16h28.39.554,Continuous,2022.1.1,None,
13,0,13,0,9,0,9,0,,,,,,,,1.5548596383632918,both,126.0,1.879711090369879,0.0008862831313758087,0,67,[],0.012040339992381632,0.2089970400556922,None,468.49207969999406,468.49207969999406,0.2089970400556922,1.763856678418984,468.71113299997523,468.49207969999406,,,,,,,,,nfsmrp,001,fr,0,2022-06-21_16h28.39.554,Continuous,2022.1.1,None,
14,0,14,0,0,0,0,0,,,,,0.16666666666666666,473.56021299993154,None,2.906489558850722,both,8000.0,8.0,0.00045600541967795504,0,68,[],0.024488740018568933,None,None,474.56795769999735,None,0.22451773995999247,3.1310072988107143,474.77872569998726,None,,470.2927655999083,None,,,,,,nfsmrp,001,fr,0,2022-06-21_16h28.39.554,Continuous,2022.1.1,None,
14,0,14,0,1,0,1,0,,,,,,,,2.906489558850722,both,7127.0,2.7663535267004167,0.0002132372913427251,0,69,[],0.015671339817345142,None,['space'],477.7154279999668,477.7154279999668,0.22103283985052258,3.1275223987012444,477.9331104999874,477.7154279999668,[-2.646909400005825],,,,,,,,nfsmrp,001,fr,0,2022-06-21_16h28.39.554,Continuous,2022.1.1,None,
14,0,14,0,2,0,2,0,,,,,,,,2.906489558850722,both,6349.0,2.1107946794262675,0.00016766534569754392,0,70,[],0.011609639972448349,None,['space'],480.87227940000594,480.87227940000594,0.20777493994683027,3.114264498797552,481.0917037000181,480.87227940000594,[-2.627929399954155],,,,,,,,nfsmrp,001,fr,0,2022-06-21_16h28.39.554,Continuous,2022.1.1,None,
14,0,14,0,3,0,3,0,,,,,,,,2.906489558850722,both,5656.0,7.009085182895804,0.0002881004030324644,0,71,[],0.010863539995625615,None,['space'],484.0321833000053,484.0321833000053,0.2076859399676323,3.114175498818354,484.25542980001774,484.0321833000053,[-2.8114964000415057],,,,,,,,nfsmrp,001,fr,0,2022-06-21_16h28.39.554,Continuous,2022.1.1,None,
14,0,14,0,4,0,4,0,,,,,,,,2.906489558850722,both,5039.0,5.751171287081969,0.00029337297708026714,0,72,[],0.016202739905565977,None,['space'],487.193273199955,487.193273199955,0.22045273997355253,3.1269422988242743,487.41258419991937,487.193273199955,[-2.86121230002027],,,,,,,,nfsmrp,001,fr,0,2022-06-21_16h28.39.554,Continuous,2022.1.1,None,
14,0,14,0,5,0,5,0,,,,,,,,2.906489558850722,both,4489.0,4.002074233032237,0.0001864061785468107,0,73,[],0.016278139897622168,None,['space'],490.34446389996447,490.34446389996447,0.22374933992978185,3.1302388987805037,490.55676910001785,490.34446389996447,[-2.7160929000237957],,,,,,,,nfsmrp,001,fr,0,2022-06-21_16h28.39.554,Continuous,2022.1.1,None,
14,0,14,0,6,0,6,0,,,,,,,,2.906489558850722,both,3999.0,5.910731437576652,0.0001657355768909262,0,74,[],0.012202839949168265,None,['space'],493.4910699999891,493.4910699999891,0.2099179398501292,3.116407498700851,493.7083154999418,493.4910699999891,[-2.694533500005491],,,,,,,,nfsmrp,001,fr,0,2022-06-21_16h28.39.554,Continuous,2022.1.1,None,
14,0,14,0,7,0,7,0,,,,,,,,2.906489558850722,both,,,,1,74,[],0.016263040015473962,None,['space'],496.6529051999096,496.6529051999096,0.22355663997586817,3.13004619882659,496.87077479995787,496.6529051999096,[-2.736514399992302],,,,,,,,nfsmrp,001,fr,0,2022-06-21_16h28.39.554,Continuous,2022.1.1,None,
14,0,14,0,8,0,8,0,,,,,,,,2.906489558850722,both,3174.0,0.10989742721518869,7.032468310683665e-05,0,75,[],0.017357039963826537,None,None,499.8012554999441,499.8012554999441,0.22316973994020373,3.1296592987909255,500.01726909994613,499.8012554999441,,,,,,,,,nfsmrp,001,fr,0,2022-06-21_16h28.39.554,Continuous,2022.1.1,None,
15,0,15,0,0,0,0,0,,,,,0.5833333333333334,508.2368113999255,None,1.7257151572380367,both,6654.0,4.5543895241938,0.00023775660106020068,0,76,[],0.024916739901527762,None,None,509.2438782999525,None,0.22026453993748873,1.9459796971755254,509.4502144999569,None,,502.95994460000657,None,,,,,,nfsmrp,001,fr,0,2022-06-21_16h28.39.554,Continuous,2022.1.1,None,
15,0,15,0,1,0,1,0,,,,,,,,1.7257151572380367,both,4441.0,7.23430695424935,0.0002628446822529722,0,77,[],0.008587540010921657,None,['space'],511.2133935999591,511.2133935999591,0.20446003996767104,1.9301751972057077,511.42843929992523,511.2133935999591,[-1.368558199959807],,,,,,,,nfsmrp,001,fr,0,2022-06-21_16h28.39.554,Continuous,2022.1.1,None,
15,0,15,0,2,0,2,0,,,,,,,,1.7257151572380367,both,2964.0,4.190331035637301,9.243924196118767e-05,0,78,[],0.011212239973247051,0.20681673986837268,['space'],513.189135099994,513.189135099994,0.20681673986837268,1.9325318971064094,513.4048845999641,513.189135099994,[-1.5697804000228643],,,,,,,,nfsmrp,001,fr,0,2022-06-21_16h28.39.554,Continuous,2022.1.1,None,
15,0,15,0,3,0,3,0,,,,,,,,1.7257151572380367,both,1978.0,11.035580808797944,0.00026299273612721054,0,79,[],0.013454139814712107,0.2137999398401007,['space'],515.1566884999629,515.1566884999629,0.2137999398401007,1.9395150970781374,515.3771126000211,515.1566884999629,[-1.6324512000428513],,,,,,,,nfsmrp,001,fr,0,2022-06-21_16h28.39.554,Continuous,2022.1.1,None,
15,0,15,0,4,0,4,0,,,,,,,,1.7257151572380367,both,1320.0,12.0,0.00021008654439845728,0,80,[],0.012438339996151626,None,['space'],517.1309726999607,517.1309726999607,0.21092883998062462,1.9366439972186613,517.3486938999267,517.1309726999607,[-1.6469637000700459],,,,,,,,nfsmrp,001,fr,0,2022-06-21_16h28.39.554,Continuous,2022.1.1,None,
15,0,15,0,5,0,5,0,,,,,,,,1.7257151572380367,both,881.0,2.417785335269154,5.372371599385372e-05,0,81,[],0.01543033984489739,None,['space'],519.110462600016,519.110462600016,0.21890003990847617,1.9446151971465129,519.3231642999453,519.110462600016,[-1.6823667000280693],,,,,,,,nfsmrp,001,fr,0,2022-06-21_16h28.39.554,Continuous,2022.1.1,None,
15,0,15,0,6,0,6,0,,,,,,,,1.7257151572380367,both,,,,1,81,[],0.015858739847317338,None,None,521.0801071999595,521.0801071999595,0.22022433986421674,1.9459394971022534,521.2975115999579,521.0801071999595,,,,,,,,,nfsmrp,001,fr,0,2022-06-21_16h28.39.554,Continuous,2022.1.1,None,
15,0,15,0,7,0,7,0,,,,,,,,1.7257151572380367,both,392.0,10.001188317409358,0.0002486878500220066,0,82,[],0.015598839847370982,None,None,523.0481004000176,523.0481004000176,0.21700733993202448,1.9427224971700612,523.264769100002,523.0481004000176,,,,,,,,,nfsmrp,001,fr,0,2022-06-21_16h28.39.554,Continuous,2022.1.1,None,
15,0,15,0,8,0,8,0,,,,,,,,1.7257151572380367,both,262.0,4.324230259539654,0.000254623080471166,0,83,[],0.0134038400137797,0.21299343998543918,['space'],525.0165319999214,525.0165319999214,0.21299343998543918,1.9387085972234759,525.2328410999617,525.0165319999214,[-1.5484506000066176],,,,,,,,nfsmrp,001,fr,0,2022-06-21_16h28.39.554,Continuous,2022.1.1,None,
15,0,15,0,9,0,9,0,,,,,,,,1.7257151572380367,both,175.0,8.53342450936604,0.0009521833899831443,0,84,[],0.013714339933358133,0.21416543994564563,['space'],526.9856353999348,526.9856353999348,0.21416543994564563,1.9398805971836823,527.2063800999895,526.9856353999348,[-1.573742299922742],,,,,,,,nfsmrp,001,fr,0,2022-06-21_16h28.39.554,Continuous,2022.1.1,None,
16,0,16,0,0,0,0,0,,,,,0.5833333333333334,532.7885754000163,None,1.958181788322741,both,2135.0,-3.797689821135085,5.0248079752170875e-05,0,85,['both'],0.024674839922226965,None,None,533.7960367000196,None,0.22377003997098655,2.1819518282937276,534.0047016999451,None,,528.9571246999549,None,,"{'estimation': [[125.0, 2.4992982100549335], [127.72681352025019, 2.0], [133.46712984268552, 1.0], [133.9716828170366, 0.9161136072314973], [138.79052291513838, 0.0], [143.5872943746293, -0.9020348329685283], [144.11660957414378, -1.0], [149.47019737390016, -2.0], [153.89305166811442, -2.8169986516032584], [154.9883119997145, -3.0], [160.97860077092776, -4.0], [164.93848884661162, -4.644891592621224], [167.63558719705244, -5.0], [175.40352621136242, -6.0], [176.77669529663666, -6.171856720074633], [187.13185475917413, -7.0], [189.46457081379947, -7.180262388958717], [203.0630990890585, -7.484871748665123], [216.8265432784755, -7.0], [217.6376408240306, -6.972976161889088], [228.97829459781326, -6.0], [233.25824788420132, -5.654988190224106], [238.5938240430459, -5.0], [247.08427953275745, -4.0], [249.99999999999937, -3.675832020144358], [254.99355031098997, -3.0], [262.5448616347823, -2.0], [267.94336563407256, -1.3269376333030385], [270.5787618750192, -1.0], [278.66759275268424, 0.0], [287.14821611377255, 1.0], [287.1745887492579, 1.002993934300572], [297.8907096578811, 2.0], [307.78610333622805, 2.8947274957695446], [309.85979882537083, 3.0], [329.7953312452114, 4.0], [329.87697769322244, 4.004048066493519], [353.55339059327247, 4.14838357034016], [358.27294445185504, 4.0], [378.929141627598, 3.3640290180817805], [385.6028779890207, 3.0], [404.3072059095955, 2.0], [406.12619817811606, 1.9051310315792607], [421.1451526350228, 1.0], [435.2752816480601, 0.17518692618295806], [438.6726781659137, 0.0], [458.37451857582806, -1.0], [466.5164957684015, -1.399643527733788], [484.76691803189595, -2.0], [499.9999999999975, -2.4867909331824936], [535.8867312681438, -2.9470348986567894], [574.3491774985143, -2.8523309474917657], [615.5722066724546, -2.4232576474530068], [652.0884585049071, -2.0], [659.7539553864432, -1.91511111953035], [707.1067811865431, -1.5064433488608144], [757.8582832551941, -1.2135395709561558], [793.8790901900271, -1.0], [812.2523963562301, -0.8946742466383196], [870.5505632961181, -0.32602274966708705], [889.9986520579965, 0.0], [933.0329915368008, 0.6965126705950058], [945.9035712256463, 1.0], [989.1262625541422, 2.0], [999.9999999999926, 2.2436435825605914], [1027.3818995456538, 3.0], [1064.1981447849405, 4.0], [1071.773462536285, 4.19960873463701], [1100.8905513441846, 5.0], [1137.889703305146, 6.0], [1148.698354997026, 6.282488080714442], [1180.2634239767647, 7.0], [1225.6283253876916, 8.0], [1231.1444133449063, 8.117602871155128], [1293.7483571304213, 9.0], [1319.5079107728832, 9.346922734502554], [1414.2135623730828, 9.725278594386772], [1515.7165665103846, 9.187212715705973], [1530.594355593044, 9.0], [1611.5642894704952, 8.0], [1624.5047927124563, 7.8442263984829514], [1675.9850427984647, 7.0], [1738.2979132035912, 6.0], [1741.1011265922318, 5.956145952675791], [1796.8062190394064, 5.0], [1856.7204242221121, 4.0], [1866.065983073597, 3.8492397479791105], [1921.4492543041229, 3.0], [1989.0577298146404, 2.0], [1999.9999999999827, 1.844375214918979], [2071.483660318483, 1.0], [2143.5469250725646, 0.18851859311165897], [2167.415515765756, 0.0], [2297.396709994046, -0.9871695017053778], [2300.384005933189, -1.0], [2462.2888266898062, -1.6704141027332204], [2639.01582154576, -1.9501814432047206], [2828.427124746159, -1.976637832754244], [3031.4331330207615, -1.9113120877250995], [3249.0095854249043, -1.886392815552545], [3482.2022531844555, -1.9756194154835196], [3510.466239807916, -2.0], [3732.1319661471844, -2.1855218996724486], [3999.9999999999504, -2.4597168648886534], [4287.093850145118, -2.7005474760174133], [4594.7934199880865, -2.789482016996113], [4924.577653379601, -2.607594845810832], [5278.031643091506, -2.053888443875306], [5297.967037425712, -2.0], [5656.854249492303, -1.069507879965515], [5676.0702897332685, -1.0], [5959.318473009911, 0.0], [6062.866266041501, 0.35133348552725197], [6216.712288798802, 1.0], [6460.807544702593, 2.0], [6498.019170849792, 2.1468325153754835], [6689.029437508446, 3.0], [6919.812052896411, 4.0], [6964.404506368902, 4.185632082140912], [7155.716538026077, 5.0], [7394.607914994913, 6.0], [7464.2639322943505, 6.281578491587751], [7664.905069371532, 7.0], [7939.455063094157, 8.0], [7999.999999999882, 8.219306753271718]], 'plus_line': [[125.0, -3.2740281799746853], [129.17176067250722, -4.0], [133.9716828170366, -4.767815442592523], [135.05281269114892, -5.0], [139.67701353060613, -6.0], [143.5872943746293, -6.7870926632379645], [144.58400383937027, -7.0], [149.20638449825253, -8.0], [153.89305166811442, -8.939083408603851], [154.22081872932264, -9.0], [159.536452585023, -10.0], [164.93848884661162, -10.9361556280346], [165.39098698128888, -11.0], [172.51590912028996, -12.0], [176.77669529663666, -12.560216478390908], [182.07644523184595, -13.0], [189.46457081379947, -13.59538875595556], [203.0630990890585, -13.85543935029513], [217.6376408240306, -13.22253240984354], [219.8276332508539, -13.0], [229.98133342185056, -12.0], [233.25824788420132, -11.691224580916991], [238.44121756984646, -11.0], [245.82804389507407, -10.0], [249.99999999999937, -9.4536043504445], [253.2161653234447, -9.0], [260.1354573182236, -8.0], [266.96145405860443, -7.0], [267.94336563407256, -6.864632059255255], [274.89170967868415, -6.0], [282.5428365756902, -5.0], [287.1745887492579, -4.409314803162713], [291.6840535721626, -4.0], [302.481819207044, -3.0], [307.78610333622805, -2.513051444337823], [318.85063382132654, -2.0], [329.87697769322244, -1.4994141229240312], [353.55339059327247, -1.4911706487928065], [367.7713317296619, -2.0], [378.929141627598, -2.3992918745735663], [389.1711044354421, -3.0], [406.12619817811606, -3.9431712034164486], [407.01219451793673, -4.0], [422.5557804308201, -5.0], [435.2752816480601, -5.754977035180718], [439.7690189754511, -6.0], [458.5014826360739, -7.0], [466.5164957684015, -7.404449191115801], [483.6016111140601, -8.0], [499.9999999999975, -8.552797352231142], [534.0270445941562, -9.0], [535.8867312681438, -9.024859369146244], [542.385306603508, -9.0], [574.3491774985143, -8.89139842796542], [615.5722066724546, -8.380418972921241], [642.8293519375393, -8.0], [659.7539553864432, -7.783216125509625], [707.1067811865431, -7.3358109049036475], [757.8582832551941, -7.041902839197048], [765.1379015177595, -7.000000000000001], [812.2523963562301, -6.752888380741238], [870.5505632961181, -6.189515117900007], [881.684442778379, -6.0], [933.0329915368008, -5.155666808541654], [939.7062088181177, -5.0], [982.8879713750626, -4.0], [999.9999999999926, -3.607240485976778], [1022.7584560789404, -3.0], [1059.07517696034, -2.0], [1071.773462536285, -1.6559514191783777], [1096.4863405736048, -1.0], [1132.8055717661375, 0.0], [1148.698354997026, 0.43146384793664305], [1173.8772334700125, 1.0], [1217.3169700185456, 2.0], [1231.1444133449063, 2.310337249235896], [1277.5819109862512, 3.0], [1319.5079107728832, 3.606527784396916], [1404.469314067461, 4.0], [1414.2135623730828, 4.041425427457611], [1421.6329075909828, 4.0], [1515.7165665103846, 3.4725546118854433], [1550.8749377794468, 3.0], [1624.5047927124563, 2.0544394923516967], [1627.5988713579256, 2.0], [1683.9122501592974, 1.0], [1741.1011265922318, 0.0738038995339112], [1745.189463987907, 0.0], [1800.2199838956958, -1.0], [1861.2793903695247, -2.0], [1866.065983073597, -2.075576318066451], [1924.7724064114504, -3.0], [1995.5252017333116, -4.0], [1999.9999999999802, -4.0608224295668025], [2080.0091677216647, -5.0], [2143.5469250725646, -5.6777378095046895], [2185.4743595014115, -6.0], [2297.3967099940432, -6.816840550785736], [2341.690655051548, -7.0], [2462.2888266898062, -7.4929584347446], [2639.01582154576, -7.757467149664366], [2828.427124746159, -7.7518421058025], [3031.4331330207615, -7.642164580200392], [3249.0095854249043, -7.5836653767780104], [3482.2022531844555, -7.673640505924485], [3732.1319661471844, -7.91765917886823], [3798.5680487834247, -8.0], [3999.9999999999504, -8.25917364679508], [4287.093850145118, -8.555279913399824], [4594.793419988081, -8.664992735038876], [4924.577653379601, -8.468959401678578], [5195.201566394981, -8.0], [5278.0316430915, -7.867101406537308], [5592.258494688555, -7.0], [5656.854249492303, -6.8294247209726775], [5883.361313709776, -6.0], [6062.866266041508, -5.3485174265104405], [6143.605266138332, -5.0], [6373.909665592187, -4.0], [6498.019170849792, -3.4678439671769135], [6601.598112896606, -3.0], [6818.298880677591, -2.0], [6964.404506368894, -1.3305484563907612], [7044.0286224565, -1.0], [7280.030716618188, 0.0], [7464.2639322943505, 0.7910306283806253], [7531.875174290922, 1.0], [7847.243111146869, 2.0], [7999.999999999882, 2.498737874363166]], 'minus_line': [[125.0, 8.322293749164444], [126.61167483838017, 8.0], [131.67731473975832, 7.0], [133.9716828170366, 6.562821250532289], [137.17612278545587, 6.0], [142.69018231250783, 5.0], [143.5872943746293, 4.840085542891178], [148.57033577988958, 4.0], [153.89305166811442, 3.0619430274920507], [154.28645056140894, 3.0], [160.649447454866, 2.0], [164.93848884661162, 1.3132608801219736], [167.3614772160204, 1.0], [175.121807022295, 0.0], [176.77669529663655, -0.20791590807979737], [186.4038278177704, -1.0], [189.46457081379947, -1.2417144901661494], [203.0630990890585, -1.5969991752641692], [217.6376408240306, -1.1858873722393184], [219.97311373398287, -1.0], [233.25824788420147, -0.009187324581908227], [233.33654433377583, 0.0], [241.95380187360237, 1.0], [249.99999999999937, 1.8279866433886982], [251.28174164697165, 2.0], [258.76417484333064, 3.0], [267.24237603762793, 4.0], [267.94336563407256, 4.0786515956850335], [275.03847988218473, 5.0], [283.3945916566531, 6.0], [287.1745887492579, 6.417689021169117], [292.9406813529407, 7.0], [303.2483848950607, 8.0], [307.78610333622805, 8.413726546777253], [317.9024996037688, 9.0], [329.87697769322244, 9.67642223403929], [353.55339059327247, 9.948473131931712], [378.929141627598, 9.23937093644654], [383.3420422459399, 9.0], [401.9524280115805, 8.0], [406.12619817811606, 7.78096837273148], [419.15608189243125, 7.0], [435.2752816480601, 6.016713178747921], [435.6001730014043, 6.0], [455.39083805866426, 5.0], [466.5164957684015, 4.439019222024559], [479.95290276690235, 4.0], [499.9999999999975, 3.364557444678908], [528.5221771037905, 3.0], [535.8867312681438, 2.9124993389427845], [574.3491774985143, 2.9923240144625503], [575.1558120705591, 3.0], [615.5722066724546, 3.386758459941345], [659.7539553864432, 3.837593938767113], [679.9310919133167, 4.0], [707.1067811865431, 4.221451800408011], [757.8582832551941, 4.516390814581408], [812.2523963562301, 4.833750953621575], [829.19230819916, 5.0], [870.5505632961181, 5.404941849738545], [906.2314449493447, 6.0], [933.0329915368008, 6.4316242570999815], [956.163505877967, 7.0], [999.6702379003383, 8.0], [999.9999999999926, 8.0073814203294], [1033.2745789297596, 9.0], [1070.1840055377102, 10.0], [1071.773462536285, 10.041799057438297], [1104.0497314594527, 11.0], [1140.7780452913146, 12.0], [1148.698354997026, 12.205733985948978], [1182.1593962751183, 13.0], [1228.1097146657878, 14.0], [1231.1444133449063, 14.063875185407332], [1298.9002272028624, 15.0], [1319.5079107728832, 15.269434267233082], [1414.2135623730828, 15.602000324802198], [1515.7165665103846, 15.035688709629968], [1518.5871077615996, 15.0], [1600.828377823391, 14.0], [1624.5047927124563, 13.716548407736253], [1669.7425362151198, 13.0], [1730.8802631795218, 12.0], [1741.1011265922318, 11.837318162517132], [1791.1771702297685, 11.0], [1848.543175595023, 10.0], [1866.065983073597, 9.702670279578209], [1912.1268818965104, 9.0], [1975.6890687287184, 8.0], [1999.9999999999827, 7.62737408741162], [2052.239237377101, 7.0], [2134.45065249866, 6.0], [2143.5469250725646, 5.893549342729499], [2257.1175811428084, 5.0], [2297.3967099940432, 4.691080653046577], [2462.2888266898062, 4.008785475363679], [2467.803376354467, 4.0], [2639.01582154576, 3.7518403811564087], [2828.427124746159, 3.7171671881711803], [3031.433133020758, 3.74334663523691], [3249.0095854249043, 3.7223277747938575], [3482.2022531844555, 3.605579746873817], [3732.1319661471844, 3.39253842620628], [3999.9999999999504, 3.1225557085418334], [4140.816572255575, 3.0], [4287.093850145118, 2.8848604150406585], [4594.793419988081, 2.785293636499101], [4924.577653379601, 2.933952402299984], [4968.39630294566, 3.0], [5278.031643091506, 3.4642828042543794], [5484.4950331778045, 4.0], [5656.854249492303, 4.43341038535971], [5813.280033048946, 5.0], [6062.866266041501, 5.850196367493378], [6097.489517765498, 6.0], [6331.053203826613, 7.0], [6498.019170849792, 7.654331526115613], [6572.7178065722965, 8.0], [6793.4236580982815, 9.0], [6964.404506368894, 9.703689477823525], [7029.251012898538, 10.0], [7248.777315151219, 11.0], [7464.2639322943505, 11.889084180272278], [7490.303416733354, 12.0], [7717.14202086806, 13.0], [7957.492896537117, 14.0], [7999.999999999872, 14.172708205844469]]}",,,,nfsmrp,001,fr,0,2022-06-21_16h28.39.554,Continuous,2022.1.1,None,
16,0,16,0,1,0,1,0,,,,,,,,1.958181788322741,both,1425.0,-4.336904873268474,3.0447501538944932e-05,0,86,['both'],0.008709439891390502,0.19283863995224237,None,535.9963044999167,535.9963044999167,0.19283863995224237,2.1510204282749834,536.20338359999,535.9963044999167,,,,,,,,,nfsmrp,001,fr,0,2022-06-21_16h28.39.554,Continuous,2022.1.1,None,
16,0,16,0,2,0,2,0,,,,,,,,1.958181788322741,both,951.0,-3.6420940598275773,2.80487711606208e-05,0,87,['both'],0.013770840014331043,None,['space'],538.1972546000034,538.1972546000034,0.21800843998789787,2.176190228310639,538.4142442999873,538.1972546000034,[-0.704951100051403],,,,,,,,nfsmrp,001,fr,0,2022-06-21_16h28.39.554,Continuous,2022.1.1,None,
16,0,16,0,3,0,3,0,,,,,,,,1.958181788322741,both,635.0,-7.898948647946388,2.0430772056894567e-05,0,88,['both'],0.01260793989058584,None,None,540.3996672999347,540.3996672999347,0.2127312399679795,2.1709130282907205,540.6209671999095,540.3996672999347,,,,,,,,,nfsmrp,001,fr,0,2022-06-21_16h28.39.554,Continuous,2022.1.1,None,
16,0,16,0,4,0,4,0,,,,,,,,1.958181788322741,both,424.0,-4.352783363395349,4.563704992642244e-05,0,89,['both'],0.006053239922039211,0.20234513992909342,None,542.6153176999651,542.6153176999651,0.20234513992909342,2.1605269282518345,542.8241950999945,542.6153176999651,,,,,,,,,nfsmrp,001,fr,0,2022-06-21_16h28.39.554,Continuous,2022.1.1,None,
16,0,16,0,5,0,5,0,,,,,,,,1.958181788322741,both,283.0,-6.427181787417967,6.323093813256563e-05,0,90,['both'],0.013820139924064279,None,None,544.8209855000023,544.8209855000023,0.21836193988565356,2.1765437282083946,545.0420103999786,544.8209855000023,,,,,,,,,nfsmrp,001,fr,0,2022-06-21_16h28.39.554,Continuous,2022.1.1,None,
16,0,16,0,6,0,6,0,,,,,,,,1.958181788322741,both,189.0,-9.0,0.0001083969009365213,0,91,['both'],0.010062240064144135,None,None,547.0324891000055,547.0324891000055,0.2095727400155738,2.167754528338315,547.2464947999688,547.0324891000055,,,,,,,,,nfsmrp,001,fr,0,2022-06-21_16h28.39.554,Continuous,2022.1.1,None,
16,0,16,0,7,0,7,0,,,,,,,,1.958181788322741,both,,,,1,91,['both'],0.013450440019369125,None,None,549.2419687999645,549.2419687999645,0.21608384000137448,2.1742656283241155,549.463061699993,549.2419687999645,,,,,,,,,nfsmrp,001,fr,0,2022-06-21_16h28.39.554,Continuous,2022.1.1,None,
17,0,17,0,0,0,0,0,,,,,,555.6879087999696,None,1.9128199849176852,none,,,,1,33,['both'],0.024604039965197444,None,None,556.720118499943,None,0.22257983998861164,2.1353998249062967,556.9283467999194,None,,551.4507927999366,None,"[0.16666666666666666, 0.3333333333333333, 0.3333333333333333, 0.5833333333333334, 0.5833333333333334, 0.3333333333333333, 0.16666666666666666, 0.3333333333333333, 0.3333333333333333, 0.5833333333333334, 0.3333333333333333, 0.16666666666666666, 0.5833333333333334, 0.3333333333333333, 0.5833333333333334]",,,,,nfsmrp,001,fr,0,2022-06-21_16h28.39.554,Continuous,2022.1.1,None,
17,0,17,0,1,0,1,0,,,,,,,,1.1333987069956957,none,757.0,3.8084906587593528,6.251438770629546e-05,0,34,['both'],0.011515439837239683,None,None,558.875180699979,558.875180699979,0.2088576399255544,1.34225634692125,559.09781810001,558.875180699979,,,,,,,,,nfsmrp,001,fr,0,2022-06-21_16h28.39.554,Continuous,2022.1.1,None,
17,0,17,0,2,0,2,0,,,,,,,,1.35093473043963,none,357.0,3.8799294834866855,0.00013711438308328827,0,35,['both'],0.006605540052987635,None,None,560.2672365999315,560.2672365999315,0.20571054005995393,1.556645270499584,560.4868806999875,560.2672365999315,,,,,,,,,nfsmrp,001,fr,0,2022-06-21_16h28.39.554,Continuous,2022.1.1,None,
17,0,17,0,3,0,3,0,,,,,,,,1.1902230338613036,none,1134.0,4.304454020394885,8.15090089924005e-05,0,36,['both'],0.009803139953874052,0.20637533999979496,['space'],561.8739822999341,561.8739822999341,0.20637533999979496,1.3965983738610985,562.0932435999857,561.8739822999341,[-0.8622627999866381],,,,,,,,nfsmrp,001,fr,0,2022-06-21_16h28.39.554,Continuous,2022.1.1,None,
17,0,17,0,4,0,4,0,,,,,,,,2.247834695110513,none,150.0,2.9244629346619258,0.0007003626426558807,0,37,['both'],0.010283240000717342,None,['space'],563.3139034999767,563.3139034999767,0.21549453993793577,2.4633292350484486,563.5385346999392,563.3139034999767,[-0.7415044000372291],,,,,,,,nfsmrp,001,fr,0,2022-06-21_16h28.39.554,Continuous,2022.1.1,None,
17,0,17,0,5,0,5,0,,,,,,,,1.6229576999361572,none,401.0,3.1518631495158043,0.00010996973845098461,0,38,['both'],0.009128540055826306,None,['space'],565.8195787000004,565.8195787000004,0.20827204000670463,1.8312297399428619,566.032509899931,565.8195787000004,[-2.0232706000097096],,,,,,,,nfsmrp,001,fr,0,2022-06-21_16h28.39.554,Continuous,2022.1.1,None,
17,0,17,0,6,0,6,0,,,,,,,,1.0616596829706768,none,283.0,3.9093274986080084,0.00020785242206285443,0,39,['both'],0.013566139969043434,None,['space'],567.6950899999356,567.6950899999356,0.2172937400173396,1.2789534229880164,567.9154727999121,567.6950899999356,[-1.3861362000461668],,,,,,,,nfsmrp,001,fr,0,2022-06-21_16h28.39.554,Continuous,2022.1.1,None,
17,0,17,0,7,0,7,0,,,,,,,,2.433036874293668,none,189.0,4.0,0.0004841911708835744,0,40,['both'],0.010567740071564913,None,['space'],569.0017030999297,569.0017030999297,0.20704224007204175,2.64007911436571,569.219078999944,569.0017030999297,[-0.9008089000126347],,,,,,,,nfsmrp,001,fr,0,2022-06-21_16h28.39.554,Continuous,2022.1.1,None,
17,0,17,0,8,0,8,0,,,,,,,,2.561837326875878,none,601.0,0.5961957192254187,5.964534526279788e-05,0,41,['both'],0.009404339827597141,0.2048708398360759,['space'],571.6841595999431,571.6841595999431,0.2048708398360759,2.766708166711954,571.9036580999382,571.6841595999431,[-2.2722986999433488],,,,,,,,nfsmrp,001,fr,0,2022-06-21_16h28.39.554,Continuous,2022.1.1,None,
18,0,18,0,0,0,0,0,,,,,0.5833333333333334,578.4460617000004,None,1.937452266712314,frequency,8000.0,6.0,0.00036221798003749513,0,80,['both'],0.024889439926482737,None,None,579.4774015999865,None,0.22405423992313445,2.1615065066354484,579.684606899973,None,,574.4899898999138,None,,,,,,nfsmrp,001,fr,0,2022-06-21_16h28.39.554,Continuous,2022.1.1,None,
18,0,18,0,1,0,1,0,,,,,,,,1.5495726523020772,frequency,5339.0,3.688646520610652,0.0002144468431462112,0,81,['both'],0.013201839989051223,None,['space'],581.659396699979,581.659396699979,0.22727403999306262,1.7768466922951398,581.8757812000113,581.659396699979,[-1.6879396999720484],,,,,,,,nfsmrp,001,fr,0,2022-06-21_16h28.39.554,Continuous,2022.1.1,None,
18,0,18,0,2,0,2,0,,,,,,,,2.5483211535053623,frequency,3563.0,2.3950817378689866,0.00010048528494516078,0,82,['both'],0.010501639801077545,None,['space'],583.4629622999346,583.4629622999346,0.20899543981067836,2.7573165933160406,583.6840244999621,583.4629622999346,[-1.545972099993378],,,,,,,,nfsmrp,001,fr,0,2022-06-21_16h28.39.554,Continuous,2022.1.1,None,
18,0,18,0,3,0,3,0,,,,,,,,2.823674788734462,frequency,2378.0,1.1545758076260166,9.501784972391259e-05,0,83,['both'],0.009019739925861359,None,"['space', 'space']",586.268398599932,586.268398599932,0.2161475399043411,3.0398223286388033,586.4826570999576,586.268398599932,"[-2.4402501001022756, -0.5841698000440374]",,,,,,,,nfsmrp,001,fr,0,2022-06-21_16h28.39.554,Continuous,2022.1.1,None,
18,0,18,0,4,0,4,0,,,,,,,,1.0042559862931213,frequency,1587.0,6.263351129479282,0.00011445919400392036,0,84,['both'],0.008466039900667965,None,['space'],589.3451177999377,589.3451177999377,0.20742133993189782,1.2116773262250191,589.5617347999942,589.3451177999377,[-1.836452699964866],,,,,,,,nfsmrp,001,fr,0,2022-06-21_16h28.39.554,Continuous,2022.1.1,None,
18,0,18,0,5,0,5,0,,,,,,,,1.8117899846208316,frequency,1059.0,5.80101588172298,9.071785599482859e-05,0,85,"['both', 'frequency']",0.011728440062142909,None,['space'],590.6026960000163,590.6026960000163,0.21189294010400772,2.0236829247248393,590.8242568999995,590.6026960000163,[-0.846431800047867],,,,,"{'estimation': [[124.99999999999991, 2.1394908552328924], [126.33803672263598, 2.0], [133.9716828170366, 1.2698069052799066], [136.36090660941977, 1.0], [143.5872943746293, 0.2234175083128106], [145.54979266679007, 0.0], [153.89305166811442, -0.9157485586875393], [154.69316875995486, -1.0], [164.49607156204402, -2.0], [164.93848884661162, -2.043684345181309], [176.3085483379074, -3.0], [176.77669529663666, -3.038211654558243], [189.46457081379947, -3.767721635140939], [198.68521859240457, -4.0], [203.0630990890585, -4.107445928006912], [214.0460903390183, -4.0], [217.6376408240306, -3.966276422014051], [233.25824788420132, -3.332873066680423], [238.50428097286235, -2.9999999999999996], [249.99999999999937, -2.3001333920522105], [254.31559265836776, -2.0], [267.94336563407256, -1.0828252251305084], [269.35327052525537, -1.0], [286.8522663849017, 0.0], [287.1745887492579, 0.01792788867065942], [307.78610333622805, 0.6905419043112062], [329.87697769322244, 0.7196645294602486], [353.55339059327247, 0.07611863425280219], [355.230533399251, 0.0], [378.0206050210519, -1.0], [378.929141627598, -1.0385526886342626], [400.87549596711904, -2.0], [406.12619817811606, -2.2216893617382363], [435.2752816480596, -2.984260738492378], [466.5164957684015, -2.9171379233763735], [494.72056325025295, -2.0], [499.9999999999975, -1.8353349381797504], [514.9227305988211, -1.0], [533.3340923270307, 0.0], [535.8867312681438, 0.13393073108965214], [549.294999730897, 1.0], [564.985901854945, 2.0], [574.3491774985143, 2.5727908765054193], [581.7659843925735, 3.0], [599.207144073259, 4.0], [615.5722066724546, 4.90241794541064], [618.0822222967948, 5.0], [644.2286892014106, 6.0], [659.7539553864432, 6.570798008495917], [689.7377732628216, 7.0], [707.1067811865431, 7.239522484861037], [742.379344464453, 7.0], [757.8582832551932, 6.899703010875298], [805.6169326598664, 6.0], [812.2523963562301, 5.880193369116983], [856.6035642113175, 5.0], [870.5505632961181, 4.732620653535392], [933.0329915368008, 4.056232253480732], [999.9999999999926, 4.307829958175972], [1036.328740159703, 5.0], [1071.773462536285, 5.66754258469735], [1082.7121700783075, 6.0], [1115.3780364234565, 7.0], [1148.698354997026, 7.997894846589015], [1148.7583773643612, 8.0], [1176.9248009815597, 9.0], [1205.068360968537, 10.0], [1231.1444133449063, 10.893191835664139], [1234.371473375553, 11.0], [1264.2393769008402, 12.0], [1294.3333262552567, 13.0], [1319.5079107728832, 13.803950994980113], [1327.210686636495, 14.0], [1366.4156180012974, 15.0], [1406.720320976327, 16.0], [1414.2135623730828, 16.181076755626883], [1472.1694871920326, 17.0], [1515.7165665103846, 17.597877163369773], [1624.5047927124563, 17.82297693945629], [1720.8014547604032, 17.0], [1741.1011265922318, 16.833404572972384], [1790.6429772456713, 16.0], [1851.8611699957414, 15.0], [1866.065983073597, 14.776808140117645], [1901.6982103087141, 14.0], [1947.7915040127987, 13.0], [1995.8367049312121, 12.0], [1999.9999999999802, 11.916746929121974], [2038.7726441711325, 11.0], [2080.827389331191, 10.0], [2124.329206892412, 9.0], [2143.5469250725646, 8.579972803831385], [2168.901059052298, 8.0], [2212.033997469806, 7.0], [2255.900673765739, 6.0], [2297.396709994046, 5.105979586175632], [2302.6397155485347, 5.0], [2351.685579286639, 4.0], [2400.9568872251907, 3.0], [2452.7123496174454, 2.0], [2462.2888266898094, 1.8233957499936335], [2512.8083082794565, 1.0], [2574.853587966923, 0.0], [2639.01582154576, -0.9787679588729148], [2640.859579599422, -1.0], [2728.5953310419354, -2.0], [2820.35828715249, -3.0000000000000004], [2828.427124746159, -3.084768008166681], [2970.3577343552593, -4.0], [3031.4331330207615, -4.378653970558052], [3249.0095854249043, -4.870676742465401], [3482.2022531844555, -4.703970590107093], [3732.1319661471844, -4.1138794910907235], [3771.5821239947677, -4.0], [3999.9999999999504, -3.3691289586644517], [4153.307618542602, -3.0], [4287.093850145118, -2.6902668838102484], [4594.793419988081, -2.1885488473980144], [4766.602622188741, -2.0], [4924.577653379601, -1.8310172093517396], [5278.0316430915, -1.4760533398106008], [5607.142792835187, -1.0], [5656.854249492303, -0.9299102961176978], [6062.866266041508, -0.04277817152095389], [6077.001214223897, 0.0], [6416.487215639263, 1.0], [6498.019170849792, 1.2315970520368857], [6722.9872516906125, 2.0], [6964.404506368902, 2.800708156155415], [7024.31162442872, 3.0], [7324.041093621687, 4.0], [7464.2639322943505, 4.463110414928908], [7661.499636284005, 5.0], [7999.999999999892, 5.9602667924725585]], 'plus_line': [[125.0, -4.625932381897816], [131.06238944824557, -5.0], [133.9716828170366, -5.171537654721535], [142.21528935341564, -6.0], [143.5872943746293, -6.132192197653457], [151.3640399889719, -7.0], [153.89305166811442, -7.269672085320308], [160.82507796234603, -8.0], [164.93848884661162, -8.415391354175565], [171.54449368427206, -9.0], [176.77669529663666, -9.449712792127963], [185.6632402362189, -10.0], [189.46457081379958, -10.234084599157677], [203.0630990890585, -10.616194495473076], [217.6376408240306, -10.470499728845294], [228.11782244616361, -10.0], [233.25824788420132, -9.78398722153328], [245.2318547394823, -9.0], [249.99999999999937, -8.699446455728205], [260.04703807729163, -8.0], [267.94336563407256, -7.462395240517415], [275.99286302189705, -7.0], [287.17458874925825, -6.3760166012456505], [298.86341874030404, -6.0], [307.78610333622805, -5.729768379482669], [329.87697769322244, -5.724395736410649], [339.6758415140762, -6.0], [353.55339059327247, -6.388696193862065], [366.9417294850288, -7.0], [378.929141627598, -7.527038683940131], [389.2917626625636, -8.0], [406.12619817811606, -8.737348862928751], [415.8325471441979, -9.0], [435.2752816480601, -9.52006281648304], [466.5164957684015, -9.42991097355316], [478.7302348260052, -9.0], [499.99999999999693, -8.277536071527114], [504.8499377435894, -8.0], [522.275307403691, -7.0], [535.8867312681438, -6.214419382278582], [539.2417900459252, -6.0], [554.7024593324439, -5.0], [569.5964158191267, -4.0], [574.3491774985143, -3.691327734886636], [586.5501299426643, -3.0], [603.575833446182, -2.0], [615.5722066724546, -1.2992083144683229], [623.1985447255921, -1.0], [648.7947895336022, 0.0], [659.7539553864432, 0.41972511638287835], [696.9541870690695, 1.0], [707.1067811865431, 1.148237804583894], [733.6905256841869, 1.0], [757.8582832551941, 0.8636438267067184], [804.9880292020576, 0.0], [812.2523963562301, -0.12868794838305492], [854.7373078905049, -1.0], [870.5505632961181, -1.3116384587742345], [926.633861490684, -2.0], [933.0329915368008, -2.078959501762091], [976.6359703797496, -2.0], [999.9999999999926, -1.960961477817379], [1056.3685296386527, -1.0], [1071.773462536285, -0.7377632875567072], [1098.0305621913835, 0.0], [1131.936017662073, 1.0], [1148.698354997026, 1.493933128489939], [1164.238515343463, 2.0], [1193.5160954669452, 3.0], [1221.5726316040832, 4.0], [1231.1444133449063, 4.3320700692527865], [1252.7856874930776, 5.0], [1283.4559099438618, 6.0], [1313.2424375021799, 7.0], [1319.5079107728816, 7.2029744502412285], [1352.751128596215, 8.0], [1392.7591584744885, 9.0], [1414.2135623730828, 9.530927305589117], [1448.6193163960863, 10.0], [1515.7165665103846, 10.90846758512818], [1560.8381747335777, 11.0], [1624.5047927124563, 11.118670061800582], [1638.5579023813236, 11.0], [1741.1011265922318, 10.1662777188807], [1751.0418891361273, 10.0], [1811.9955628222422, 9.0], [1866.065983073597, 8.196847282287527], [1874.9971981027759, 8.0], [1920.254268778517, 7.0], [1969.5918178901027, 6.0], [1999.9999999999802, 5.439185802874405], [2018.0015608619672, 5.0], [2058.9043813718413, 4.0], [2103.2582937272186, 3.0], [2143.5469250725646, 2.194508018258073], [2151.7638509058283, 2.0], [2193.0106240630844, 1.0], [2236.6729745338866, 0.0], [2286.078676884077, -1.0], [2297.3967099940432, -1.2141359320446634], [2334.249425681256, -2.0], [2382.543906548445, -3.0], [2436.253472734357, -4.0], [2462.2888266898062, -4.443957674985299], [2495.3587474374804, -5.0], [2556.3776924356675, -6.0], [2624.640327131958, -7.0], [2639.0158215457564, -7.198985886204615], [2707.4400207680987, -8.0], [2799.826771288353, -9.0], [2828.427124746159, -9.292229671317374], [2934.3719940138535, -10.0], [3031.4331330207615, -10.616535843225964], [3185.980696615546, -11.0], [3249.0095854249043, -11.158985706881516], [3482.2022531844555, -11.01654294421366], [3488.587444180189, -11.0], [3732.1319661471844, -10.414733954436933], [3867.312640600204, -10.0], [3999.9999999999504, -9.61736673475615], [4245.325953594378, -9.0], [4287.093850145118, -8.901333283872237], [4594.793419988081, -8.430452675943659], [4924.577653379601, -8.141605081695147], [5098.866923812205, -8.0], [5278.031643091506, -7.865723548136044], [5656.854249492303, -7.373386595770592], [5822.429091385698, -7.0], [6062.866266041508, -6.48265352735268], [6220.205217517925, -6.0], [6498.019170849792, -5.164236381559692], [6545.91846511954, -5.0], [6840.843124734467, -4.0], [6964.404506368894, -3.586273708712961], [7159.880858175204, -3.0], [7464.2639322943505, -2.066776269567717], [7500.234126954377, -2.0], [7999.999999999892, -1.0451552793941272]], 'minus_line': [[125.0, 8.850443169273856], [131.17325705747362, 8.0], [133.9716828170366, 7.6424526878985475], [139.24486723530356, 7.0], [143.5872943746293, 6.492551493191395], [147.87554347414903, 6.0], [153.89305166811442, 5.327400626701693], [157.01637968497144, 5.0], [164.93848884661162, 4.191147533594613], [167.17724894645337, 4.0], [176.77669529663666, 3.209836934233855], [180.43255010493277, 3.0], [189.46457081379947, 2.5100962827500792], [203.0630990890585, 2.1804281170867776], [217.6376408240306, 2.2984646775842137], [233.25824788420132, 2.878034410059234], [235.23371201992236, 3.0], [249.99999999999937, 3.8767647286308917], [251.73633408797556, 4.0], [266.29011380417364, 5.0], [267.94336563407256, 5.109387075141285], [282.5485154223147, 6.0], [287.1745887492579, 6.2723364825114585], [307.74681900499775, 7.0], [307.78610333622805, 7.001391520834637], [329.87697769322244, 7.065410591313085], [332.13837155950773, 7.0], [353.55339059327247, 6.420809923744166], [362.67812774973953, 6.0], [378.929141627598, 5.2743858599803755], [384.89993090418267, 5.0], [406.12619817811606, 4.0507627048173], [407.88912875767744, 4.0], [435.2752816480601, 3.258639861100078], [466.5164957684015, 3.292358493109943], [488.6399924689729, 4.0], [499.9999999999975, 4.349209264940287], [511.2728013859668, 5.0], [529.6528001047537, 6.0], [535.8867312681438, 6.319892728925489], [545.8249034687543, 7.0], [561.0136644049022, 8.0], [574.3491774985143, 8.797292050190467], [577.6775179408074, 9.0], [594.0480421261631, 10.0], [611.9921445760871, 11.0], [615.5722066724546, 11.190833040165154], [635.6569503457043, 12.0], [659.7539553864432, 12.899392002420525], [666.8815545122527, 13.0], [707.1067811865431, 13.563458495241091], [757.8582832551951, 13.155948791352357], [765.3036403301963, 13.0], [812.2523963562301, 12.05675619863814], [814.9655282326311, 12.0], [864.3884046105376, 11.0], [870.5505632961181, 10.87956433467767], [933.0329915368008, 10.25716780967326], [999.9999999999926, 10.637410954534069], [1016.6318771314077, 11.0], [1063.6893820815621, 12.0], [1071.773462536285, 12.167504742160048], [1095.9706030416173, 13.0], [1126.3651968100844, 14.0], [1148.6983549970246, 14.681633499304304], [1156.8322063423639, 15.0], [1182.1022659969062, 16.0], [1209.1051394399433, 17.0], [1231.1444133449063, 17.74687662651133], [1238.052487394187, 18.000000000000004], [1265.01161148231, 19.0], [1293.7736830905526, 20.0], [1319.5079107728848, 20.815761789880927], [1326.1035453654922, 21.0], [1361.7524213202023, 22.0], [1400.3027301621908, 23.0], [1414.2135623730828, 23.343625289281647], [1456.4800910285585, 24.0], [1515.7165665103864, 24.872318573758072], [1566.7778540130585, 25.0], [1624.5047927124563, 25.148560945400423], [1640.687133898329, 25.0], [1741.1011265922318, 24.11267075571371], [1747.5487460543698, 24.0], [1805.1888887650969, 23.0], [1861.4107507821009, 22.0], [1866.065983073597, 21.920128828278624], [1908.229518066298, 21.0], [1951.6744258377928, 20.0], [1994.4206096227206, 19.0], [1999.9999999999827, 18.875003135756096], [2037.7727800680134, 18.0], [2078.170462622848, 17.0], [2117.2063668473934, 16.0], [2143.5469250725646, 15.34201098929983], [2158.9726777610936, 15.0], [2202.4413189008906, 14.0], [2243.1906152847296, 13.0], [2283.4239985362506, 12.0], [2297.3967099940432, 11.669345268083216], [2331.154083532727, 11.0], [2378.747619237707, 10.0], [2424.415592574152, 9.0], [2462.2888266898062, 8.189387017279882], [2473.960069141132, 8.0], [2534.59246448995, 7.0], [2592.3587942966788, 6.0], [2639.015821545763, 5.207022939579787], [2656.6559108174592, 5.0], [2741.679928676148, 4.0], [2825.464990740586, 3.0], [2828.427124746159, 2.9663512002198487], [2974.0513658922123, 2.0], [3031.433133020758, 1.629206491187664], [3249.0095854249043, 1.1438921385312695], [3482.2022531844555, 1.3390852415555612], [3732.1319661471844, 1.922169949345102], [3760.2485291745843, 2.0], [3999.9999999999504, 2.651737869649532], [4148.001438231314, 3.0], [4287.093850145118, 3.3246759846113676], [4594.793419988081, 3.8606770278054343], [4701.384531905059, 4.0], [4924.577653379601, 4.297677304723228], [5278.031643091506, 4.734370309097747], [5443.9072082047605, 5.0], [5656.854249492303, 5.342861364453869], [5945.76588487379, 6.0], [6062.866266041508, 6.261074160003865], [6305.501483721723, 7.0], [6498.019170849792, 7.557908022872984], [6619.590761864519, 8.0], [6906.205905613368, 9.0], [6964.404506368894, 9.195659665512359], [7170.076061028231, 10.0], [7438.483361378283, 11.0], [7464.2639322943505, 11.094504265192546], [7697.929685275481, 12.0], [7959.5387785275325, 13.0], [7999.999999999882, 13.154686108867]]}",,,nfsmrp,001,fr,0,2022-06-21_16h28.39.554,Continuous,2022.1.1,None,
18,0,18,0,6,0,6,0,,,,,,,,1.7061568037943988,frequency,707.0,2.295375497891875,5.7845843119858156e-05,0,86,"['both', 'frequency']",0.007079339935444295,None,['space'],592.6739577999106,592.6739577999106,0.2062134399311617,1.9123702437255605,592.8948408999713,592.6739577999106,[-1.5501380000496283],,,,,,,,nfsmrp,001,fr,0,2022-06-21_16h28.39.554,Continuous,2022.1.1,None,
18,0,18,0,7,0,7,0,,,,,,,,2.8871153451653138,frequency,472.0,3.3640532238228333,0.00010734545329607817,0,87,"['both', 'frequency']",0.011754739913158119,None,['space'],594.6404772999231,594.6404772999231,0.21629463997669518,3.103409985142009,594.8622187000001,594.6404772999231,[-1.4515712999273092],,,,,,,,nfsmrp,001,fr,0,2022-06-21_16h28.39.554,Continuous,2022.1.1,None,
18,0,18,0,8,0,8,0,,,,,,,,1.9816041394950805,frequency,,,,1,87,"['both', 'frequency']",0.008107039844617248,0.20585093984846026,['space'],597.7795256999088,597.7795256999088,0.20585093984846026,2.1874550793435406,597.997729799943,597.7795256999088,[-2.727672899956815],,,,,,,,nfsmrp,001,fr,0,2022-06-21_16h28.39.554,Continuous,2022.1.1,None,
19,0,19,0,0,0,0,0,,,,,,607.3265849999152,None,1.5985513907752151,time,,,,1,58,"['both', 'frequency']",0.024846739834174514,None,None,608.3402027999982,None,0.24874243990052491,1.84729383067574,608.5656518000178,None,,600.0136308999499,None,"[0.5833333333333334, 0.5833333333333334, 0.16666666666666666, 0.16666666666666666, 0.16666666666666666, 0.3333333333333333, 0.16666666666666666, 0.5833333333333334, 0.3333333333333333, 0.16666666666666666, 0.16666666666666666, 0.16666666666666666, 0.16666666666666666, 0.16666666666666666, 0.5833333333333334]",,,,,nfsmrp,001,fr,0,2022-06-21_16h28.39.554,Continuous,2022.1.1,None,
19,0,19,0,1,0,1,0,,,,,,,,1.5985513907752151,time,5657.0,-1.0,0.00011454206555191211,0,59,"['both', 'frequency']",0.011010439833626151,None,None,610.1902434999356,610.1902434999356,0.21041503979358822,1.8089664305688034,610.4123171999818,610.1902434999356,,,,,,,,,nfsmrp,001,fr,0,2022-06-21_16h28.39.554,Continuous,2022.1.1,None,
19,0,19,0,2,0,2,0,,,,,,,,1.5985513907752151,time,1682.0,4.73575064187657,0.00010428121322267635,0,60,"['both', 'frequency']",0.008758740033954382,None,['space'],612.0465376999928,612.0465376999928,0.20320843998342752,1.8017598307586427,612.2639892000007,612.0465376999928,[-0.8814902999438345],,,,,,,,nfsmrp,001,fr,0,2022-06-21_16h28.39.554,Continuous,2022.1.1,None,
19,0,19,0,3,0,3,0,,,,,,,,1.5985513907752151,time,1888.0,2.417209266798319,9.213688686073786e-05,0,61,"['both', 'frequency']",0.007249240064993501,None,['space'],613.9020011000102,613.9020011000102,0.20640924002509564,1.8049606308003108,614.1209392999299,613.9020011000102,[-1.473780700005591],,,,,,,,nfsmrp,001,fr,0,2022-06-21_16h28.39.554,Continuous,2022.1.1,None,
19,0,19,0,4,0,4,0,,,,,,,,1.5985513907752151,time,2119.0,1.7621162973731073,9.486925478932056e-05,0,62,"['both', 'frequency']",0.0061031399527564645,0.20392233994789422,['space'],615.758991300012,615.758991300012,0.20392233994789422,1.8024737307231093,615.9697480999166,615.758991300012,[-1.434620999963954],,,,,,,,nfsmrp,001,fr,0,2022-06-21_16h28.39.554,Continuous,2022.1.1,None,
19,0,19,0,5,0,5,0,,,,,,,,1.5985513907752151,time,7128.0,0.044659765148627795,0.00015590618743200534,0,63,"['both', 'frequency']",0.008676439989358187,None,['space'],617.6055004999507,617.6055004999507,0.21522723999805748,1.8137786307732726,617.8259740999201,617.6055004999507,[-1.409239700064063],,,,,,,,nfsmrp,001,fr,0,2022-06-21_16h28.39.554,Continuous,2022.1.1,None,
19,0,19,0,6,0,6,0,,,,,,,,1.5985513907752151,time,1000.0,-0.005162233915945613,4.4026269998165164e-05,0,64,"['both', 'frequency']",0.007359339972026646,None,['space'],619.461605599965,619.461605599965,0.20566043991129845,1.8042118306865136,619.6717205999885,619.461605599965,[-1.1383750999812037],,,,,,,,nfsmrp,001,fr,0,2022-06-21_16h28.39.554,Continuous,2022.1.1,None,
19,0,19,0,7,0,7,0,,,,,,,,1.5985513907752151,time,4490.0,-1.0,0.00010486019127831693,0,65,"['both', 'frequency']",0.0068918399047106504,None,None,621.3104092999129,621.3104092999129,0.21380383986979723,1.8123552306450124,621.5352165999357,621.3104092999129,,,,,,,,,nfsmrp,001,fr,0,2022-06-21_16h28.39.554,Continuous,2022.1.1,None,
19,0,19,0,8,0,8,0,,,,,,,,1.5985513907752151,time,2997.0,-1.9782225794407882,4.380595888879866e-05,0,66,"['both', 'frequency']",0.00801783986389637,None,['space'],623.1645637999754,623.1645637999754,0.20568673987872899,1.8042381306539441,623.3801372000016,623.1645637999754,[-1.4413184999721125],,,,,,,,nfsmrp,001,fr,0,2022-06-21_16h28.39.554,Continuous,2022.1.1,None,
19,0,19,0,9,0,9,0,,,,,,,,1.5985513907752151,time,1498.0,1.0123900738178992,5.432950139342113e-05,0,67,"['both', 'frequency']",0.005041939904913306,0.20268913987092674,None,625.0196878999704,625.0196878999704,0.20268913987092674,1.8012405306461419,625.2335776999826,625.0196878999704,,,,,,,,,nfsmrp,001,fr,0,2022-06-21_16h28.39.554,Continuous,2022.1.1,None,
19,0,19,0,10,0,10,0,,,,,,,,1.5985513907752151,time,2670.0,-1.1631634512652993,6.58894939112884e-05,0,68,"['both', 'frequency']",0.008470439817756414,None,['space'],626.8657576999394,626.8657576999394,0.20518673991318792,1.803738130688403,627.079793700017,626.8657576999394,[-1.3174203999806195],,,,,,,,nfsmrp,001,fr,0,2022-06-21_16h28.39.554,Continuous,2022.1.1,None,
20,0,20,0,0,0,0,0,,,,,,633.470358200022,None,2.9193009358520268,time,208.0,5.660872013046674,0.0004792715140389211,0,69,"['both', 'frequency']",0.024668939877301455,None,None,634.4770129999379,None,0.23606723989360034,3.155368175745627,634.6966760000214,None,,628.7141485000029,None,"[0.5833333333333334, 0.16666666666666666, 0.5833333333333334, 0.16666666666666666, 0.3333333333333333, 0.5833333333333334, 0.5833333333333334, 0.5833333333333334, 0.5833333333333334, 0.3333333333333333, 0.16666666666666666, 0.5833333333333334, 0.16666666666666666, 0.16666666666666666, 0.3333333333333333]",,,,,nfsmrp,001,fr,0,2022-06-21_16h28.39.554,Continuous,2022.1.1,None,
20,0,20,0,1,0,1,0,,,,,,,,2.9193009358520268,time,349.0,5.331769882730048,0.000165896757796917,0,70,"['both', 'frequency']",0.007867439882829785,None,['space'],637.6449927999638,637.6449927999638,0.2021483399439603,3.121449275795987,637.857866599923,637.6449927999638,[-2.696379099972546],,,,,,,,nfsmrp,001,fr,0,2022-06-21_16h28.39.554,Continuous,2022.1.1,None,
