tTrials.thisRepN,tTrials.thisTrialN,tTrials.thisN,tTrials.thisIndex,blocks.thisRepN,blocks.thisTrialN,blocks.thisN,blocks.thisIndex,trials.thisRepN,trials.thisTrialN,trials.thisN,trials.thisIndex,tStart_text.started,tStart_text.stopped,Prediction,practice_Frequency,practice_Level,practice_Psychopy_Level,practice_isCatchTrial,Practice_trial_detection,practice_Cue_Delays,practice_Cue_Frequencies,practice_Interval,practice_Cue_Intensities,tCue_visual_cue.started,tCue_visual_cue.stopped,tProbe_visual_cue.started,tProbe_visual_cue.stopped,tFeedback.keys,tFeedback.corr,tFeedback.rt,tFeedback.started,tFeedback.stopped,tToo_late.keys,tToo_late.corr,tToo_early.keys,tToo_early.corr,more_instructions.started,more_instructions.stopped,readyy.keys,readyy.rt,readyy.started,readyy.stopped,txt_rhythm.started,txt_rhythm.stopped,sound_1.started,sound_1.stopped,sound_2.started,sound_2.stopped,sound_3.started,sound_3.stopped,sound_4.started,sound_4.stopped,cross.started,cross.stopped,sound_5.started,sound_5.stopped,circle.started,circle.stopped,rhythm_ready.keys,rhythm_ready.rt,rhythm_ready.started,rhythm_ready.stopped,rhytm_ready_txt.started,rhytm_ready_txt.stopped,txt_freq.started,txt_freq.stopped,sound_6.started,sound_6.stopped,sound_7.started,sound_7.stopped,sound_8.started,sound_8.stopped,sound_9.started,sound_9.stopped,cross_2.started,cross_2.stopped,sound_10.started,sound_10.stopped,circle_2.started,circle_2.stopped,freq_ready.keys,freq_ready.rt,freq_ready.started,freq_ready.stopped,freq_ready_txt.started,freq_ready_txt.stopped,txt_freq_2.started,txt_freq_2.stopped,sound_11.started,sound_11.stopped,sound_12.started,sound_12.stopped,sound_13.started,sound_13.stopped,sound_14.started,sound_14.stopped,cross_3.started,cross_3.stopped,sound_15.started,sound_15.stopped,circle_3.started,circle_3.stopped,freq_ready_2.keys,freq_ready_2.rt,freq_ready_2.started,freq_ready_2.stopped,freq_ready_txt_2.started,freq_ready_txt_2.stopped,txt_freq_3.started,txt_freq_3.stopped,sound_16.started,sound_16.stopped,sound_17.started,sound_17.stopped,sound_18.started,sound_18.stopped,sound_19.started,sound_19.stopped,cross_4.started,cross_4.stopped,sound_20.started,sound_20.stopped,circle_4.started,circle_4.stopped,freq_ready_txt_3.started,freq_ready_txt_3.stopped,tStart_text_2.started,tStart_text_2.stopped,this_trial_is.started,this_trial_is.stopped,Frequency,Level,Psychopy_Level,Real trial detection,Cue Delays,Cue Frequencies,Interval,Cue Intensities,Catch trial,cue_visual_cue.started,cue_visual_cue.stopped,probe_visual_cue.started,probe_visual_cue.stopped,feedback.keys,feedback.corr,feedback.rt,feedback.started,feedback.stopped,answer_too_late.keys,answer_too_late.corr,answer_too_early.keys,answer_too_early.corr,Catch trial answer,Audiogram_both,Audiogram_frequency,Audiogram_none,Audiogram_time,goodbye_text.started,goodbye_text.stopped,key_resp.keys,key_resp.rt,key_resp.started,key_resp.stopped,participant,session,Language (english or french),Skip training? (1 for yes),Resume previous experiment,date,expName,psychopyVersion,frameRate,
0,0,0,0,,,,,,,,,16.095943899825215,None,none,1000,30,0.0013930605843148849,False,1,"[0.6450270939687504, 0.419551600493748, 0.7350645576445092, 0.6612010713860346]","[845.724790551694, 5582.164820362068, 2696.0243494841116, 351.42264039866694]",None,"[30, 30, 30, 30]",76.67965469998308,79.38242559996434,79.38242559996434,80.58871379983611,['space'],1,[0.42752929986454546],79.38242559996434,81.24827999994159,None,1,None,1,,,,,,,,,,,,,,,,,,,,,,,,,,,,,,,,,,,,,,,,,,,,,,,,,,,,,,,,,,,,,,,,,,,,,,,,,,,,,,,,,,,,,,,,,,,,,,,,,,,,,,,,,,,,,,,,,,,,,,,,,,,,,,,,klxufm,001,fr,0,0,2022-05-09_16h56.39.686,Cluster,2022.1.1,36.28772245089252,
1,0,1,0,,,,,,,,,,,frequency,2500,30,0.002716251657462167,False,1,"[0.7614772580780726, 0.6371644270596292, 0.5202428543688368, 0.6588631271503199]","[496.0628287400624, 743.2544468767007, 1113.6233976754243, 1668.549817712543]",Perfect_5th,"[30, 30, 30, 30]",91.84305169992149,94.68685800000094,94.68685800000094,95.9215013999492,['space'],1,[0.4833791998680681],94.68685800000094,96.55315079982392,None,1,None,1,,,,,,,,,,,,,,,,,,,,,,,,,,,,,,,,,,,,,,,,,,,,,,,,,,,,,,,,,,,,,,,,,,,,,,,,,,,,,,,,,,,,,,,,,,,,,,,,,,,,,,,,,,,,,,,,,,,,,,,,,,,,,,,,klxufm,001,fr,0,0,2022-05-09_16h56.39.686,Cluster,2022.1.1,36.28772245089252,
2,0,2,0,,,,,,,,,,,none,6000,30,0.003664122665694519,True,1,"[0.4223754159622613, 0.6895892554557621, 0.5764026655146092, 0.5570355996837267]","[157.9755332879509, 331.6393837183853, 729.9781576687246, 193.53002786826093]",None,"[30, 30, 30, 30]",100.34569909982383,102.9671341998037,102.9671341998037,104.1858469999861,None,1,,102.9671341998037,104.72854659985751,None,1,None,1,,,,,,,,,,,,,,,,,,,,,,,,,,,,,,,,,,,,,,,,,,,,,,,,,,,,,,,,,,,,,,,,,,,,,,,,,,,,,,,,,,,,,,,,,,,,,,,,,,,,,,,,,,,,,,,,,,,,,,,,,,,,,,,,klxufm,001,fr,0,0,2022-05-09_16h56.39.686,Cluster,2022.1.1,36.28772245089252,
3,0,3,0,,,,,,,,,,,none,440,30,0.0023562289915021436,False,1,"[0.5542747264889392, 0.6443103104988261, 0.6233824606948138, 0.5013858803828661]","[258.65137320158993, 531.9857282655989, 135.3871360143111, 209.23297598172294]",None,"[30, 30, 30, 30]",110.05180729995482,112.8055665998254,112.8055665998254,114.03865120001137,['space'],1,[0.860176800051704],112.8055665998254,114.52613509981893,None,1,None,1,,,,,,,,,,,,,,,,,,,,,,,,,,,,,,,,,,,,,,,,,,,,,,,,,,,,,,,,,,,,,,,,,,,,,,,,,,,,,,,,,,,,,,,,,,,,,,,,,,,,,,,,,,,,,,,,,,,,,,,,,,,,,,,,klxufm,001,fr,0,0,2022-05-09_16h56.39.686,Cluster,2022.1.1,36.28772245089252,
4,0,4,0,,,,,,,,,,,none,250,30,0.005296268625886445,True,1,"[0.6951718815775121, 0.6199358065753497, 0.5052527941233464, 0.4816740207065488]","[177.78728594250865, 3980.555514456321, 776.6968863529357, 3572.7053704354894]",None,"[30, 30, 30, 30]",118.23193909996189,120.97583729983307,120.97583729983307,122.21047769999132,None,1,,120.97583729983307,122.6746735998895,None,1,None,1,,,,,,,,,,,,,,,,,,,,,,,,,,,,,,,,,,,,,,,,,,,,,,,,,,,,,,,,,,,,,,,,,,,,,,,,,,,,,,,,,,,,,,,,,,,,,,,,,,,,,,,,,,,,,,,,,,,,,,,,,,,,,,,,klxufm,001,fr,0,0,2022-05-09_16h56.39.686,Cluster,2022.1.1,36.28772245089252,
,,,,,,,,,,,,,,,,,,,,,,,,,,,,,,,,,,,,,126.24102750001475,None,f,133.24904490006156,126.24102750001475,None,,,,,,,,,,,,,,,,,,,,,,,,,,,,,,,,,,,,,,,,,,,,,,,,,,,,,,,,,,,,,,,,,,,,,,,,,,,,,,,,,,,,,,,,,,,,,,,,,,,,,,,,,,,,,,,,,,,,,,,,,,klxufm,001,fr,0,0,2022-05-09_16h56.39.686,Cluster,2022.1.1,36.28772245089252,
,,,,,,,,,,,,,,,,,,,,,,,,,,,,,,,,,,,,,,,,,,,259.5604422998149,260.58555519999936,261.01685614991004,261.23669709987007,261.52628664989027,261.7484635999426,262.038989849994,262.2499207998626,262.5403954499867,262.7497886000201,260.93041719985195,262.71681050001644,263.0103708500043,263.23280429979786,262.71681050001644,263.5275739999488,l,1.4835759000852704,263.7345187999308,None,,,,,,,,,,,,,,,,,,,,,,,,,,,,,,,,,,,,,,,,,,,,,,,,,,,,,,,,,,,,,,,,,,,,,,,,,,,,,,,,,,,,,,,,,,,,,,,,,,,,,,klxufm,001,fr,0,0,2022-05-09_16h56.39.686,Cluster,2022.1.1,36.28772245089252,
,,,,,,,,,,,,,,,,,,,,,,,,,,,,,,,,,,,,,,,,,,,,,,,,,,,,,,,,,,,,,,,263.7345187999308,None,265.2728684998583,266.2978961998597,266.7570298499428,266.97534839995205,267.05950874988923,None,267.7477143499069,267.97174880001694,268.1494025498629,268.37273649987765,266.6408841998782,268.4613304999657,268.75124384989033,268.96904499991797,268.4613304999657,269.2622571999673,l,1.8115579998120666,269.439294999931,None,,,,,,,,,,,,,,,,,,,,,,,,,,,,,,,,,,,,,,,,,,,,,,,,,,,,,,,,,,,,,,,,,,,,,,,,,,,,,,,,klxufm,001,fr,0,0,2022-05-09_16h56.39.686,Cluster,2022.1.1,36.28772245089252,
,,,,,,,,,,,,,,,,,,,,,,,,,,,,,,,,,,,,,,,,,,,,,,,,,,,,,,,,,,,,,,,,,,,,,,,,,,,,,,,,,,,,,269.439294999931,None,271.3021337999962,272.31432669982314,272.75287274983714,272.9771564998664,273.2714481499512,273.4885078999214,273.7766148498282,None,274.2552360497881,274.4784891998861,272.6628534998745,274.4784891998861,274.77324354988525,274.9889875999652,274.4784891998861,275.27881419984624,l,0.9305813000537455,275.45483889989555,None,,,,,,,,,,,,,,,,,,,,,,,,,,,,,,,,,,,,,,,,,,,,,,,,,,,,,,,,,,klxufm,001,fr,0,0,2022-05-09_16h56.39.686,Cluster,2022.1.1,36.28772245089252,
,,,,0,0,0,0,0,0,0,0,,,both,,,,,,,,,,,,,,,,,,,,,,,,,,,,,,,,,,,,,,,,,,,,,,,,,,,,,,,,,,,,,,,,,,,,,,,,,,,,,,,,,,,,,,,,,,,,,275.45483889989555,None,276.4467384999152,277.4723443000112,277.90713694985027,278.1207340999972,278.20576025000776,278.4212847999297,278.9158404498827,279.12857259996235,279.29776124996135,None,277.8210797999054,279.60274419980124,279.8954955499154,280.1175643999595,279.60274419980124,280.41283369995654,280.61680419999175,None,281.6437159997877,None,323.40410499996506,None,3909.356915526799,-3.8490921623233767,5.2869347146830316e-05,1,"[0.6854468185940743, 0.6854468185940743, 0.6854468185940743, 0.6854468185940743]","[6205.717280226397, 5528.66557009505, 4925.481069424308, 4388.1047709746235]",Tone,"[-1.4269691556203679, -0.9694354748693517, 0.27134708569755706, 1.6083902085372372]",False,324.39988859998994,327.48521469999105,327.48521469999105,328.7089297999628,['space'],1,[0.3250085001345724],3.758047199808061,4.7874220996163785,None,1,None,1,,,,,,,,,,,,klxufm,001,fr,0,0,2022-05-09_16h56.39.686,Cluster,2022.1.1,36.28772245089252,
,,,,0,0,0,0,1,0,1,0,,,none,,,,,,,,,,,,,,,,,,,,,,,,,,,,,,,,,,,,,,,,,,,,,,,,,,,,,,,,,,,,,,,,,,,,,,,,,,,,,,,,,,,,,,,,,,,,,,,,,,,,,,,,,,,,,,,,,,,329.2360708999913,None,175.7089556556363,-3.5097456690800595,0.0002362681248110303,1,"[0.44365542994565155, 0.7244205413709911, 0.5871301762904197, 0.6462276410213025]","[994.3174834987304, 2313.2770830495247, 155.27043941759902, 371.5989518066303]",None,"[6.431302590161051, -0.4494547166917453, 4.371753608000451, 4.961109682929862]",False,330.2271404999774,333.01420550001785,333.01420550001785,334.2255932998378,['space'],1,[0.465668500168249],3.406671099830419,4.435258499812335,None,1,None,1,,,,,,,,,,,,klxufm,001,fr,0,0,2022-05-09_16h56.39.686,Cluster,2022.1.1,36.28772245089252,
,,,,0,0,0,0,2,0,2,0,,,both,,,,,,,,,,,,,,,,,,,,,,,,,,,,,,,,,,,,,,,,,,,,,,,,,,,,,,,,,,,,,,,,,,,,,,,,,,,,,,,,,,,,,,,,,,,,,,,,,,,,,,,,,,,,,,,,,,,334.7140235998668,None,353.5533905932738,-2.0,7.038727582816145e-05,1,"[0.7679898684505143, 0.7679898684505143, 0.7679898684505143, 0.7679898684505143]","[222.72467953508485, 250.00000000000003, 280.6155120773433, 314.9802624737183]",Tone,"[0.6961229588504807, 0.8324630595920937, 1.9331993152652034, 3.0]",False,335.73414509999566,339.06368969986215,339.06368969986215,340.2893045998644,['space'],1,[0.33433849993161857],4.084318649722263,5.107947449665517,None,1,None,1,,,,,,,,,,,,klxufm,001,fr,0,0,2022-05-09_16h56.39.686,Cluster,2022.1.1,36.28772245089252,
,,,,0,0,0,0,3,0,3,0,,,time,,,,,,,,,,,,,,,,,,,,,,,,,,,,,,,,,,,,,,,,,,,,,,,,,,,,,,,,,,,,,,,,,,,,,,,,,,,,,,,,,,,,,,,,,,,,,,,,,,,,,,,,,,,,,,,,,,,340.888445999939,None,1129.6292481511387,1.2434726372087108,5.708929954682196e-05,1,"[0.7520385883974701, 0.7520385883974701, 0.7520385883974701, 0.7520385883974701]","[700.184827909772, 138.98455224293716, 170.82626833045046, 3123.324071406203]",None,"[6.240015226198375, 6.0, 3.0, 2.015960844576941]",False,341.88401339994743,345.17184969992377,345.17184969992377,346.377129299799,['space'],1,[0.4934699998702854],4.026816499885172,5.048233199864626,None,1,None,1,,,,,,,,,,,,klxufm,001,fr,0,0,2022-05-09_16h56.39.686,Cluster,2022.1.1,36.28772245089252,
,,,,0,0,0,0,4,0,4,0,,,none,,,,,,,,,,,,,,,,,,,,,,,,,,,,,,,,,,,,,,,,,,,,,,,,,,,,,,,,,,,,,,,,,,,,,,,,,,,,,,,,,,,,,,,,,,,,,,,,,,,,,,,,,,,,,,,,,,,346.9803504999727,None,,,,,"[0.5815319960237777, 0.7471319306592108, 0.5163797709587681, 0.5830605071987482]","[586.637995004074, 2770.065331002155, 347.36034160899624, 385.73415380385114]",None,"[7.0, 1.0, 4.0, 5.0]",True,347.97379469987936,350.85920739988796,350.85920739988796,352.07907849992625,None,1,,3.456634899834171,4.488826599903405,None,1,None,1,0,,,,,,,,,,,klxufm,001,fr,0,0,2022-05-09_16h56.39.686,Cluster,2022.1.1,36.28772245089252,
,,,,0,0,0,0,5,0,5,0,,,time,,,,,,,,,,,,,,,,,,,,,,,,,,,,,,,,,,,,,,,,,,,,,,,,,,,,,,,,,,,,,,,,,,,,,,,,,,,,,,,,,,,,,,,,,,,,,,,,,,,,,,,,,,,,,,,,,,,352.5173304998316,None,378.9291416275994,-3.0,5.806893951290537e-05,1,"[0.45224123617363654, 0.45224123617363654, 0.45224123617363654, 0.45224123617363654]","[290.73542042805417, 4678.941596572166, 501.31535520597697, 432.26925155669494]",None,"[2.0, 0.9577883879131583, 6.908020731256669, 6.150099501374751]",False,353.5169793998357,355.9038201998919,355.9038201998919,357.1099839999806,['space'],1,[0.6715669000986964],2.8351924498565495,3.8621532497927547,None,1,None,1,,,,,,,,,,,,klxufm,001,fr,0,0,2022-05-09_16h56.39.686,Cluster,2022.1.1,36.28772245089252,
,,,,0,0,0,0,6,0,6,0,,,time,,,,,,,,,,,,,,,,,,,,,,,,,,,,,,,,,,,,,,,,,,,,,,,,,,,,,,,,,,,,,,,,,,,,,,,,,,,,,,,,,,,,,,,,,,,,,,,,,,,,,,,,,,,,,,,,,,,357.417275399901,None,6788.306146195247,-7.847718983824807,5.8669408032980644e-05,0,"[0.6666591892859375, 0.6666591892859375, 0.6666591892859375, 0.6666591892859375]","[2228.5596368050706, 7247.727181006607, 7346.71273734163, 1014.4138253469046]",None,"[-0.4494547166917453, -1.7816767057240748, -1.7816767057240748, 6.431302590161051]",False,358.4081441999879,361.4349095998332,361.4349095998332,362.65471199993044,None,0,,3.6929583000019193,4.719180200016126,None,1,None,1,,,,,,,,,,,,klxufm,001,fr,0,0,2022-05-09_16h56.39.686,Cluster,2022.1.1,36.28772245089252,
,,,,0,0,0,0,7,0,7,0,,,time,,,,,,,,,,,,,,,,,,,,,,,,,,,,,,,,,,,,,,,,,,,,,,,,,,,,,,,,,,,,,,,,,,,,,,,,,,,,,,,,,,,,,,,,,,,,,,,,,,,,,,,,,,,,,,,,,,,363.1801856998354,None,659.7539553864473,-4.0,3.0636414623792164e-05,0,"[0.6683896206786237, 0.6683896206786237, 0.6683896206786237, 0.6683896206786237]","[231.5710565709586, 2036.9416523633492, 6716.621454609006, 1878.6942817692704]",None,"[0.6222929191430779, -0.07449695470183038, -1.7244312477694326, 0.8193351004128218]",False,364.80678759980947,367.8497321999166,367.8497321999166,369.05791699979454,None,0,,3.711131549673155,4.734814049676061,None,1,None,1,,,,,,,,,,,,klxufm,001,fr,0,0,2022-05-09_16h56.39.686,Cluster,2022.1.1,36.28772245089252,
,,,,0,0,0,0,8,0,8,0,,,both,,,,,,,,,,,,,,,,,,,,,,,,,,,,,,,,,,,,,,,,,,,,,,,,,,,,,,,,,,,,,,,,,,,,,,,,,,,,,,,,,,,,,,,,,,,,,,,,,,,,,,,,,,,,,,,,,,,369.58460409985855,None,270.8505398166942,-4.7068501126929325,8.456728701141946e-05,1,"[0.7516728336409059, 0.7516728336409059, 0.7516728336409059, 0.7516728336409059]","[1365.00118596177, 911.0289920055666, 608.0389034166919, 405.8172805832223]",Perfect_5th,"[6.954440554421228, 6.0, 6.896055004427689, 5.597592726781405]",False,370.5801116998773,373.84579799999483,373.84579799999483,375.06830959999934,['space'],1,[0.4643549998290837],4.031681799795479,5.040890699950978,None,1,None,1,,,,,,,,,,,,klxufm,001,fr,0,0,2022-05-09_16h56.39.686,Cluster,2022.1.1,36.28772245089252,
,,,,0,0,0,0,9,0,9,0,,,none,,,,,,,,,,,,,,,,,,,,,,,,,,,,,,,,,,,,,,,,,,,,,,,,,,,,,,,,,,,,,,,,,,,,,,,,,,,,,,,,,,,,,,,,,,,,,,,,,,,,,,,,,,,,,,,,,,,375.6795039998833,None,,,,,"[0.664264778186191, 0.7231808369050561, 0.7954016878165426, 0.5545231299398603]","[2928.307526351322, 3332.30277976223, 164.77050861116211, 667.6424642888804]",None,"[2.0, 2.4515867102086832, 3.417677421301641, 6.595400128776029]",True,376.68632669979706,379.8941934998147,379.8941934998147,381.1015823998023,None,1,,3.7411155998706818,4.760896799853072,None,1,None,1,0,,,,,,,,,,,klxufm,001,fr,0,0,2022-05-09_16h56.39.686,Cluster,2022.1.1,36.28772245089252,
,,,,0,0,0,0,10,0,10,0,,,both,,,,,,,,,,,,,,,,,,,,,,,,,,,,,,,,,,,,,,,,,,,,,,,,,,,,,,,,,,,,,,,,,,,,,,,,,,,,,,,,,,,,,,,,,,,,,,,,,,,,,,,,,,,,,,,,,,,381.49607859994285,None,176.7766952966369,-1.0,0.0003119565241000184,1,"[0.451991374195487, 0.451991374195487, 0.451991374195487, 0.451991374195487]","[890.8987181403394, 594.6035575013606, 396.8502629920499, 264.86577358982385]",Perfect_5th,"[5.761142002011438, 7.0, 5.597592726781405, 1.2931498873070675]",False,382.5096434999723,384.88263329979964,384.88263329979964,386.10080199991353,['space'],1,[0.41429880005307496],2.837240349734202,3.865424749907106,None,1,None,1,,,,,,,,,,,,klxufm,001,fr,0,0,2022-05-09_16h56.39.686,Cluster,2022.1.1,36.28772245089252,
,,,,0,0,0,0,11,0,11,0,,,none,,,,,,,,,,,,,,,,,,,,,,,,,,,,,,,,,,,,,,,,,,,,,,,,,,,,,,,,,,,,,,,,,,,,,,,,,,,,,,,,,,,,,,,,,,,,,,,,,,,,,,,,,,,,,,,,,,,386.4146867999807,None,378.9291416275994,-2.0,6.515442175522428e-05,1,"[0.7788921077960012, 0.4137343890755082, 0.7664712180087675, 0.5419609978650562]","[1946.6601329978344, 172.85142390140237, 2818.945548962965, 588.6041462514011]",None,"[0.0, 3.0, 1.3796732531242775, 7.0]",False,387.4892034998629,390.48757039988413,390.48757039988413,391.71665550000034,['space'],1,[0.4506082001607865],3.5274531496688724,4.5510825496166945,None,1,None,1,,,,,,,,,,,,klxufm,001,fr,0,0,2022-05-09_16h56.39.686,Cluster,2022.1.1,36.28772245089252,
,,,,0,0,0,0,12,0,12,0,,,both,,,,,,,,,,,,,,,,,,,,,,,,,,,,,,,,,,,,,,,,,,,,,,,,,,,,,,,,,,,,,,,,,,,,,,,,,,,,,,,,,,,,,,,,,,,,,,,,,,,,,,,,,,,,,,,,,,,392.0813749998342,None,1174.8038044534576,1.2434726372087108,5.92696461124486e-05,1,"[0.6830926542943092, 0.6830926542943092, 0.6830926542943092, 0.6830926542943092]","[1864.8847950456616, 1661.4234733855892, 1480.1600427274916, 1318.6726847084722]",Tone,"[0.8193351004128218, 3.0, 5.0, 6.954440554421228]",False,393.10259619983844,396.18819119990803,396.18819119990803,397.4033337999135,['space'],1,[0.4432091999333352],3.779560849769041,4.8001967498566955,None,1,None,1,,,,,,,,,,,,klxufm,001,fr,0,0,2022-05-09_16h56.39.686,Cluster,2022.1.1,36.28772245089252,
,,,,0,0,0,0,13,0,13,0,,,frequency,,,,,,,,,,,,,,,,,,,,,,,,,,,,,,,,,,,,,,,,,,,,,,,,,,,,,,,,,,,,,,,,,,,,,,,,,,,,,,,,,,,,,,,,,,,,,,,,,,,,,,,,,,,,,,,,,,,397.9370085999835,None,,,,,"[0.5223172285914786, 0.5716997479757532, 0.7028107500571386, 0.43566303049618615]","[514.5172382191207, 458.38274799052226, 408.3726026024025, 363.81862818211454]",Tone,"[7.0, 6.59044577893951, 5.597592726781405, 4.2479600298789695]",True,398.94671539985575,401.7911332999356,401.7911332999356,402.9984005999286,None,1,,3.234415400074795,4.256584499962628,None,1,None,1,0,,,,,,,,,,,klxufm,001,fr,0,0,2022-05-09_16h56.39.686,Cluster,2022.1.1,36.28772245089252,
,,,,0,0,0,0,14,0,14,0,,,none,,,,,,,,,,,,,,,,,,,,,,,,,,,,,,,,,,,,,,,,,,,,,,,,,,,,,,,,,,,,,,,,,,,,,,,,,,,,,,,,,,,,,,,,,,,,,,,,,,,,,,,,,,,,,,,,,,,403.2477849998977,None,4544.143538654922,-5.0,6.825724996154673e-05,1,"[0.7413225158142991, 0.7264132124179234, 0.7625675858603409, 0.40415706544313423]","[145.51431634095186, 1901.104027014448, 1145.7635822388959, 490.8923397229682]",None,"[5.0, 0.8193351004128218, 7.243472637208711, 6.908020731256669]",False,404.26301349978894,407.53743859985843,407.53743859985843,408.7584015999455,['space'],1,[0.5473861000500619],3.641796999843791,4.660738099832088,None,1,None,1,,,,,,,,,,,,klxufm,001,fr,0,0,2022-05-09_16h56.39.686,Cluster,2022.1.1,36.28772245089252,
,,,,0,0,0,0,15,0,15,0,,,both,,,,,,,,,,,,,,,,,,,,,,,,,,,,,,,,,,,,,,,,,,,,,,,,,,,,,,,,,,,,,,,,,,,,,,,,,,,,,,,,,,,,,,,,,,,,,,,,,,,,,,,,,,,,,,,,,,,408.9858006997965,None,574.3491774985172,-4.0,3.7760398549436506e-05,1,"[0.6107284846741767, 0.6107284846741767, 0.6107284846741767, 0.6107284846741767]","[911.7224885582166, 812.2523963562353, 723.6346187201888, 644.6851542197893]",Tone,"[6.0, 5.735065782666709, 6.240015226198375, 6.595400128776029]",False,410.0106768999249,412.8734451998025,412.8734451998025,414.07883949996904,['space'],1,[0.569161499850452],3.4835801497101784,4.491526349680498,None,1,None,1,,,,,,,,,,,,klxufm,001,fr,0,0,2022-05-09_16h56.39.686,Cluster,2022.1.1,36.28772245089252,
,,,,0,0,0,0,16,0,16,0,,,both,,,,,,,,,,,,,,,,,,,,,,,,,,,,,,,,,,,,,,,,,,,,,,,,,,,,,,,,,,,,,,,,,,,,,,,,,,,,,,,,,,,,,,,,,,,,,,,,,,,,,,,,,,,,,,,,,,,414.5420855998527,None,3501.2875285779,-3.384767311581766,5.092102944712638e-05,1,"[0.450354484150046, 0.450354484150046, 0.450354484150046, 0.450354484150046]","[1389.4868765269243, 1750.6437642889505, 2205.6729294948473, 2778.973753053848]",Major_3rd,"[6.162415204904671, 2.0, -0.4963369915670208, 1.3796732531242775]",False,415.5491203998681,417.9152134999167,417.9152134999167,419.1431762999855,['space'],1,[0.46449919999577105],2.822248199954629,3.848352799890563,None,1,None,1,,,,,,,,,,,,klxufm,001,fr,0,0,2022-05-09_16h56.39.686,Cluster,2022.1.1,36.28772245089252,
,,,,0,0,0,0,17,0,17,0,,,none,,,,,,,,,,,,,,,,,,,,,,,,,,,,,,,,,,,,,,,,,,,,,,,,,,,,,,,,,,,,,,,,,,,,,,,,,,,,,,,,,,,,,,,,,,,,,,,,,,,,,,,,,,,,,,,,,,,419.45747999986634,None,615.5722066724584,-4.0,3.370283309245974e-05,0,"[0.4691749348477907, 0.570193968516564, 0.5109843077354956, 0.7464605634899335]","[860.7380981341178, 285.396908148906, 7222.824850869467, 178.8422918017298]",None,"[5.761142002011438, 1.9331993152652034, -1.7816767057240748, 2.4902543309199405]",False,420.48649229994044,423.0821701998357,423.0821701998357,424.30955070001073,None,0,,3.3261295498814434,4.358080249745399,None,1,None,1,,,,,,,,,,,,klxufm,001,fr,0,0,2022-05-09_16h56.39.686,Cluster,2022.1.1,36.28772245089252,
,,,,0,0,0,0,18,0,18,0,,,both,,,,,,,,,,,,,,,,,,,,,,,,,,,,,,,,,,,,,,,,,,,,,,,,,,,,,,,,,,,,,,,,,,,,,,,,,,,,,,,,,,,,,,,,,,,,,,,,,,,,,,,,,,,,,,,,,,,424.88291199994273,None,1000.0,-5.0,2.4772509540239506e-05,0,"[0.4230791290280207, 0.4230791290280207, 0.4230791290280207, 0.4230791290280207]","[5039.684199579493, 3363.5856610148585, 2244.9240966187463, 1498.3070768766815]",Perfect_5th,"[0.0, 2.4515867102086832, -0.4494547166917453, 5.0]",False,425.91300129983574,428.200579599943,428.200579599943,429.40822749980725,None,0,,2.7100277496501803,3.722943949745968,None,1,None,1,,,,,,,,,,,,klxufm,001,fr,0,0,2022-05-09_16h56.39.686,Cluster,2022.1.1,36.28772245089252,
,,,,0,0,0,0,19,0,19,0,,,both,,,,,,,,,,,,,,,,,,,,,,,,,,,,,,,,,,,,,,,,,,,,,,,,,,,,,,,,,,,,,,,,,,,,,,,,,,,,,,,,,,,,,,,,,,,,,,,,,,,,,,,,,,,,,,,,,,,429.675518799806,None,141.89299716717724,-0.7286194916501563,0.0005262734598712315,1,"[0.7041852663776431, 0.7041852663776431, 0.7041852663776431, 0.7041852663776431]","[715.0958958544009, 477.26925066993925, 318.53900848205166, 212.5992818148246]",Perfect_5th,"[6.240015226198375, 6.59044577893951, 3.0, 0.6961229588504807]",False,430.67220139992423,433.8242438000161,433.8242438000161,435.0304874998983,['space'],1,[0.40573860006406903],3.8383590998128057,4.859061499824747,None,1,None,1,,,,,,,,,,,,klxufm,001,fr,0,0,2022-05-09_16h56.39.686,Cluster,2022.1.1,36.28772245089252,
,,,,1,0,1,0,0,0,0,0,,,none,,,,,,,,,,,,,,,,,,,,,,,,,,,,,,,,,,,,,,,,,,,,,,,,,,,,,,,,,,,,,,,,,,,,,,,,,,,,,,,,,,,,,,,,,,,,,,,,,,,,,,,,,,,,,,,,,,,446.5090141999535,None,161.70313663254,-2.582322578698359,0.0003007817853525672,1,"[0.7482172482906652, 0.7837837664747676, 0.4659344650050075, 0.5816181093073655]","[299.1114913993641, 4622.960963003614, 7356.753046423383, 7978.227132469817]",None,"[2.683282694300539, 0.9577883879131583, -1.7816767057240748, -1.5246490448829233]",False,447.4986191999633,450.5165874999948,450.5165874999948,451.7551658998709,['space'],1,[0.3456386998295784],3.5841016999911517,4.613730699988082,None,1,None,1,,,,,,,,,,,,klxufm,001,fr,0,0,2022-05-09_16h56.39.686,Cluster,2022.1.1,36.28772245089252,
,,,,1,0,1,0,1,0,1,0,,,time,,,,,,,,,,,,,,,,,,,,,,,,,,,,,,,,,,,,,,,,,,,,,,,,,,,,,,,,,,,,,,,,,,,,,,,,,,,,,,,,,,,,,,,,,,,,,,,,,,,,,,,,,,,,,,,,,,,452.17084639985114,None,189.87582415014873,-4.3239836244267496,0.000183763573719519,1,"[0.7951301930745706, 0.7951301930745706, 0.7951301930745706, 0.7951301930745706]","[213.778433980339, 1796.3240288012066, 2010.730604988535, 552.8982852701353]",None,"[0.6961229588504807, 2.0, -0.07449695470183038, 7.075743009410166]",False,453.17144559998997,456.56946219992824,456.56946219992824,457.7895827998873,['space'],1,[0.41687679989263415],4.191717499867082,5.217202699976042,None,1,None,1,,,,,,,,,,,,klxufm,001,fr,0,0,2022-05-09_16h56.39.686,Cluster,2022.1.1,36.28772245089252,
,,,,1,0,1,0,2,0,2,0,,,none,,,,,,,,,,,,,,,,,,,,,,,,,,,,,,,,,,,,,,,,,,,,,,,,,,,,,,,,,,,,,,,,,,,,,,,,,,,,,,,,,,,,,,,,,,,,,,,,,,,,,,,,,,,,,,,,,,,458.44718289980665,None,,,,,"[0.7140991563706347, 0.6042903879388625, 0.7358568067594756, 0.4296105192192412]","[3644.3425733471277, 4550.91046931121, 197.98646335137448, 997.5324748274495]",None,"[2.5050615479466045, 1.0, 1.062109997243569, 6.431302590161051]",True,459.46039169980213,462.5534615998622,462.5534615998622,463.7703503998928,None,1,,3.4989646999165416,4.516093399841338,None,1,None,1,0,,,,,,,,,,,klxufm,001,fr,0,0,2022-05-09_16h56.39.686,Cluster,2022.1.1,36.28772245089252,
,,,,1,0,1,0,3,0,3,0,,,none,,,,,,,,,,,,,,,,,,,,,,,,,,,,,,,,,,,,,,,,,,,,,,,,,,,,,,,,,,,,,,,,,,,,,,,,,,,,,,,,,,,,,,,,,,,,,,,,,,,,,,,,,,,,,,,,,,,464.02393639995717,None,2143.5469250725882,-10.0,2.4663813579299878e-05,0,"[0.4169394749323867, 0.42809956494233714, 0.7565463968263159, 0.7736643139979453]","[288.3984814675059, 4622.191779968663, 1655.6888968509445, 1234.0655839993772]",None,"[2.0, 0.9577883879131583, 3.0, 7.305918379084402]",False,465.03963929996826,467.6755542999599,467.6755542999599,468.90048569999635,None,0,,3.407641549827531,4.413621549960226,None,1,None,1,,,,,,,,,,,,klxufm,001,fr,0,0,2022-05-09_16h56.39.686,Cluster,2022.1.1,36.28772245089252,
,,,,1,0,1,0,4,0,4,0,,,frequency,,,,,,,,,,,,,,,,,,,,,,,,,,,,,,,,,,,,,,,,,,,,,,,,,,,,,,,,,,,,,,,,,,,,,,,,,,,,,,,,,,,,,,,,,,,,,,,,,,,,,,,,,,,,,,,,,,,469.4933565999381,None,1520.2632229915935,-1.0294297313631149,4.442458774130796e-05,0,"[0.7055809028603589, 0.47183251434349693, 0.6961626325080206, 0.6738942036589166]","[2413.2674394454216, 2149.9768683317448, 1915.4116360281323, 1706.4377712485532]",Tone,"[-0.019749338496168, -0.4963369915670208, 0.8193351004128218, 2.0876797242856355]",False,470.50948809995316,473.4180207999889,473.4180207999889,474.64650179981254,None,0,,3.5553574997466058,4.556443699868396,None,1,None,1,,,,,,,,,,,,klxufm,001,fr,0,0,2022-05-09_16h56.39.686,Cluster,2022.1.1,36.28772245089252,
,,,,1,0,1,0,5,0,5,0,,,frequency,,,,,,,,,,,,,,,,,,,,,,,,,,,,,,,,,,,,,,,,,,,,,,,,,,,,,,,,,,,,,,,,,,,,,,,,,,,,,,,,,,,,,,,,,,,,,,,,,,,,,,,,,,,,,,,,,,,475.12359699979424,None,353.5533905932738,0.0,8.861233020703779e-05,1,"[0.6191231206048573, 0.6806669850334994, 0.5510536246507407, 0.6014540381277921]","[222.72467953508485, 250.00000000000003, 280.6155120773433, 314.9802624737183]",Tone,"[0.6961229588504807, 0.8324630595920937, 1.9331993152652034, 3.0]",False,477.48692979989573,480.34954969980754,480.34954969980754,481.5510600998532,['space'],1,[0.43774399999529123],3.47367314924486,4.502226149197668,None,1,None,1,,,,,,,,,,,,klxufm,001,fr,0,0,2022-05-09_16h56.39.686,Cluster,2022.1.1,36.28772245089252,
,,,,1,0,1,0,6,0,6,0,,,both,,,,,,,,,,,,,,,,,,,,,,,,,,,,,,,,,,,,,,,,,,,,,,,,,,,,,,,,,,,,,,,,,,,,,,,,,,,,,,,,,,,,,,,,,,,,,,,,,,,,,,,,,,,,,,,,,,,482.0431880999822,None,5656.85424949238,-5.0,7.227417995191064e-05,0,"[0.6372380413426296, 0.6372380413426296, 0.6372380413426296, 0.6372380413426296]","[1122.4620483093731, 1681.7928305074292, 2519.8420997897465, 3775.497250726774]",Perfect_5th,"[7.243472637208711, 3.0, 0.0, 2.5050615479466045]",False,483.0541358999908,486.0020663999021,486.0020663999021,487.21993629983626,None,0,,3.5707676496822387,4.571935249725357,None,1,None,1,,,,,,,,,,,,klxufm,001,fr,0,0,2022-05-09_16h56.39.686,Cluster,2022.1.1,36.28772245089252,
,,,,1,0,1,0,7,0,7,0,,,none,,,,,,,,,,,,,,,,,,,,,,,,,,,,,,,,,,,,,,,,,,,,,,,,,,,,,,,,,,,,,,,,,,,,,,,,,,,,,,,,,,,,,,,,,,,,,,,,,,,,,,,,,,,,,,,,,,,487.6611041999422,None,841.9566339309811,-0.23885799798856258,3.848748429729996e-05,0,"[0.7481545652817465, 0.6130154287545452, 0.5433004115298443, 0.6025306679637261]","[4358.9951697716115, 148.86501381077758, 2575.792672567824, 7989.137850260269]",None,"[1.6083902085372372, 5.0, 0.6462576101882194, -1.5246490448829233]",False,488.6838252998423,491.5958196998108,491.5958196998108,492.81878999993205,None,0,,3.558366749668494,4.560795749770477,None,1,None,1,,,,,,,,,,,,klxufm,001,fr,0,0,2022-05-09_16h56.39.686,Cluster,2022.1.1,36.28772245089252,
,,,,1,0,1,0,8,0,8,0,,,both,,,,,,,,,,,,,,,,,,,,,,,,,,,,,,,,,,,,,,,,,,,,,,,,,,,,,,,,,,,,,,,,,,,,,,,,,,,,,,,,,,,,,,,,,,,,,,,,,,,,,,,,,,,,,,,,,,,493.2873920998536,None,,,,,"[0.7548344598386887, 0.7548344598386887, 0.7548344598386887, 0.7548344598386887]","[216.4625717377112, 242.9710216550259, 272.7257506467214, 306.12430469763024]",Tone,"[0.6961229588504807, 0.8324630595920937, 1.2931498873070675, 2.683282694300539]",True,494.3007545999717,497.6016350998543,497.6016350998543,498.82804899988696,None,1,,4.038171099964529,5.067726999986917,None,1,None,1,0,,,,,,,,,,,klxufm,001,fr,0,0,2022-05-09_16h56.39.686,Cluster,2022.1.1,36.28772245089252,
,,,,1,0,1,0,9,0,9,0,,,none,,,,,,,,,,,,,,,,,,,,,,,,,,,,,,,,,,,,,,,,,,,,,,,,,,,,,,,,,,,,,,,,,,,,,,,,,,,,,,,,,,,,,,,,,,,,,,,,,,,,,,,,,,,,,,,,,,,499.41442769998685,None,500.0,-2.0,5.6750540783615774e-05,1,"[0.6982410230459812, 0.7803597333312493, 0.5575633214997184, 0.5872690514598592]","[164.76885890757265, 356.52062738781575, 5302.789593719233, 3190.518954116118]",None,"[3.417677421301641, 4.2479600298789695, -0.39302076275731945, 2.4515867102086832]",False,500.41551869991235,503.47030119993724,503.47030119993724,504.6888082998339,['space'],1,[0.430277899838984],3.652347049675882,4.661425149766728,None,1,None,1,,,,,,,,,,,,klxufm,001,fr,0,0,2022-05-09_16h56.39.686,Cluster,2022.1.1,36.28772245089252,
,,,,1,0,1,0,10,0,10,0,,,frequency,,,,,,,,,,,,,,,,,,,,,,,,,,,,,,,,,,,,,,,,,,,,,,,,,,,,,,,,,,,,,,,,,,,,,,,,,,,,,,,,,,,,,,,,,,,,,,,,,,,,,,,,,,,,,,,,,,,505.1098330998793,None,188.77150931940218,-4.3239836244267496,0.00018620830421770722,1,"[0.45206699142366946, 0.46646519945002674, 0.6420279798312714, 0.559869972741344]","[475.67439642388206, 377.54301863880437, 299.6560924752438, 237.83719821194103]",Major_3rd,"[6.59044577893951, 4.961109682929862, 2.683282694300539, 0.6222929191430779]",False,506.0996620999649,508.6889875999186,508.6889875999186,509.8962856999133,['space'],1,[0.5266770999878645],3.121339499950409,4.136641699820757,None,1,None,1,,,,,,,,,,,,klxufm,001,fr,0,0,2022-05-09_16h56.39.686,Cluster,2022.1.1,36.28772245089252,
,,,,1,0,1,0,11,0,11,0,,,frequency,,,,,,,,,,,,,,,,,,,,,,,,,,,,,,,,,,,,,,,,,,,,,,,,,,,,,,,,,,,,,,,,,,,,,,,,,,,,,,,,,,,,,,,,,,,,,,,,,,,,,,,,,,,,,,,,,,,510.2899356998969,None,2143.5469250725882,-7.0,3.483856267433761e-05,0,"[0.6746602068056529, 0.4378419465133352, 0.4384206033821418, 0.7187586398148371]","[5401.399784672766, 4287.093850145177, 3402.668643803426, 2700.6998923363826]",Major_3rd,"[-0.39302076275731945, 1.6083902085372372, 2.615232688418234, 1.0]",False,513.5896536998916,516.1554439999163,516.1554439999163,517.3790719998069,None,0,,3.2825501491315663,4.309176648966968,None,1,None,1,,,,,,,,,,,,klxufm,001,fr,0,0,2022-05-09_16h56.39.686,Cluster,2022.1.1,36.28772245089252,
,,,,1,0,1,0,12,0,12,0,,,none,,,,,,,,,,,,,,,,,,,,,,,,,,,,,,,,,,,,,,,,,,,,,,,,,,,,,,,,,,,,,,,,,,,,,,,,,,,,,,,,,,,,,,,,,,,,,,,,,,,,,,,,,,,,,,,,,,,517.946665499825,None,444.6746013797695,0.15009950137475014,7.556627672100931e-05,1,"[0.4378487929718744, 0.5413477414797839, 0.49386085443442096, 0.4602255103712926]","[545.4591166051375, 1327.5478613878784, 2906.9867912814148, 1817.517644935199]",None,"[7.075743009410166, 6.954440554421228, 1.3796732531242775, 1.0]",False,518.948604399804,521.4599165997934,521.4599165997934,522.6970590997953,['space'],1,[0.44740169984288514],2.9445791996549815,3.97195479972288,None,1,None,1,,,,,,,,,,,,klxufm,001,fr,0,0,2022-05-09_16h56.39.686,Cluster,2022.1.1,36.28772245089252,
,,,,1,0,1,0,13,0,13,0,,,time,,,,,,,,,,,,,,,,,,,,,,,,,,,,,,,,,,,,,,,,,,,,,,,,,,,,,,,,,,,,,,,,,,,,,,,,,,,,,,,,,,,,,,,,,,,,,,,,,,,,,,,,,,,,,,,,,,,522.9750693999231,None,2143.5469250725882,-10.0,2.4663813579299878e-05,1,"[0.6043631614271381, 0.6043631614271381, 0.6043631614271381, 0.6043631614271381]","[133.90116652983616, 544.8099232910774, 180.74418827694453, 2998.6177552985037]",None,"[6.048065125584764, 7.075743009410166, 2.0, 2.0]",False,524.0138179999776,526.8561147998553,526.8561147998553,528.0846555000171,['space'],1,[0.41917210002429783],3.4357115495949984,4.455823849653825,None,1,None,1,,,,,,,,,,,,klxufm,001,fr,0,0,2022-05-09_16h56.39.686,Cluster,2022.1.1,36.28772245089252,
,,,,1,0,1,0,14,0,14,0,,,frequency,,,,,,,,,,,,,,,,,,,,,,,,,,,,,,,,,,,,,,,,,,,,,,,,,,,,,,,,,,,,,,,,,,,,,,,,,,,,,,,,,,,,,,,,,,,,,,,,,,,,,,,,,,,,,,,,,,,528.5117581998929,None,1607.934632253122,-2.4544690794872377,4.305064748301149e-05,0,"[0.6503189933774522, 0.559997965944914, 0.46186167599561534, 0.44579747585113955]","[638.1092816836766, 803.9673161265612, 1012.9353450153403, 1276.218563367353]",Major_3rd,"[6.595400128776029, 5.735065782666709, 6.431302590161051, 7.0]",False,529.5290055999067,532.223376599839,532.223376599839,533.4394939998165,None,0,,3.141952899750322,4.142245499882847,None,1,None,1,,,,,,,,,,,,klxufm,001,fr,0,0,2022-05-09_16h56.39.686,Cluster,2022.1.1,36.28772245089252,
,,,,1,0,1,0,15,0,15,0,,,time,,,,,,,,,,,,,,,,,,,,,,,,,,,,,,,,,,,,,,,,,,,,,,,,,,,,,,,,,,,,,,,,,,,,,,,,,,,,,,,,,,,,,,,,,,,,,,,,,,,,,,,,,,,,,,,,,,,533.7287395999301,None,,,,,"[0.7305485709619611, 0.7305485709619611, 0.7305485709619611, 0.7305485709619611]","[1017.422301695815, 453.28920492720727, 125.7080599115255, 2238.0875911454723]",None,"[6.431302590161051, 6.59044577893951, 6.656789160322759, -0.4494547166917453]",True,534.7414530999959,537.9732976998203,537.9732976998203,539.1946539999917,None,1,,3.9368592998944223,4.95491709979251,None,1,None,1,0,,,,,,,,,,,klxufm,001,fr,0,0,2022-05-09_16h56.39.686,Cluster,2022.1.1,36.28772245089252,
,,,,1,0,1,0,16,0,16,0,,,both,,,,,,,,,,,,,,,,,,,,,,,,,,,,,,,,,,,,,,,,,,,,,,,,,,,,,,,,,,,,,,,,,,,,,,,,,,,,,,,,,,,,,,,,,,,,,,,,,,,,,,,,,,,,,,,,,,,539.7586880999152,None,178.80767412314736,-3.5097456690800595,0.0002287340122577935,0,"[0.43839552761190814, 0.43839552761190814, 0.43839552761190814, 0.43839552761190814]","[283.8394900030712, 252.87223780134377, 225.2835525104962, 200.70482814970288]",Tone,"[1.9331993152652034, 0.8324630595920937, 0.6961229588504807, 1.062109997243569]",False,540.7772750998847,543.121143899858,543.121143899858,544.3390750999097,None,0,,2.772886499762535,3.7877588998526335,None,1,None,1,,,,,,,,,,,,klxufm,001,fr,0,0,2022-05-09_16h56.39.686,Cluster,2022.1.1,36.28772245089252,
,,,,1,0,1,0,17,0,17,0,,,both,,,,,,,,,,,,,,,,,,,,,,,,,,,,,,,,,,,,,,,,,,,,,,,,,,,,,,,,,,,,,,,,,,,,,,,,,,,,,,,,,,,,,,,,,,,,,,,,,,,,,,,,,,,,,,,,,,,544.62010499998,None,378.9291416275994,-8.0,3.2654564398085426e-05,0,"[0.7260312603916095, 0.7260312603916095, 0.7260312603916095, 0.7260312603916095]","[238.71040097760402, 267.9433656340732, 300.75625902052906, 337.5874865420474]",Tone,"[0.6222929191430779, 1.2931498873070675, 2.683282694300539, 3.4747590406773865]",False,546.3725431999192,549.5703103998676,549.5703103998676,550.7859523999505,None,0,,3.954940799390897,4.98051599948667,None,1,None,1,,,,,,,,,,,,klxufm,001,fr,0,0,2022-05-09_16h56.39.686,Cluster,2022.1.1,36.28772245089252,
,,,,1,0,1,0,18,0,18,0,,,none,,,,,,,,,,,,,,,,,,,,,,,,,,,,,,,,,,,,,,,,,,,,,,,,,,,,,,,,,,,,,,,,,,,,,,,,,,,,,,,,,,,,,,,,,,,,,,,,,,,,,,,,,,,,,,,,,,,551.3809153998736,None,307.7861033362292,-6.0,5.32579615281957e-05,0,"[0.6929667897003636, 0.6727694484533713, 0.48524427048800023, 0.4220627640998418]","[6095.237706388006, 700.6128479773453, 782.1684424564913, 218.85761197656237]",None,"[-1.4269691556203679, 6.240015226198375, 5.917456052324865, 0.6961229588504807]",False,552.3886458999477,555.2531765999738,555.2531765999738,556.4663902998436,None,0,,3.316581649472937,4.317853549495339,None,1,None,1,,,,,,,,,,,,klxufm,001,fr,0,0,2022-05-09_16h56.39.686,Cluster,2022.1.1,36.28772245089252,
,,,,1,0,1,0,19,0,19,0,,,none,,,,,,,,,,,,,,,,,,,,,,,,,,,,,,,,,,,,,,,,,,,,,,,,,,,,,,,,,,,,,,,,,,,,,,,,,,,,,,,,,,,,,,,,,,,,,,,,,,,,,,,,,,,,,,,,,,,556.73695699987,None,,,,,"[0.4070031939668823, 0.4542235312592039, 0.7545977312289752, 0.6554731859097526]","[373.3507605738891, 5457.0356681614885, 1909.3581726085702, 2366.3558693100686]",None,"[4.961109682929862, -0.39302076275731945, 0.8193351004128218, -0.4494547166917453]",True,557.7511936998926,560.4037181998137,560.4037181998137,561.6178970998153,['space'],0,[0.6740740998648107],3.2907056999392807,4.291061699856073,None,1,None,1,0,,,,,,,,,,,klxufm,001,fr,0,0,2022-05-09_16h56.39.686,Cluster,2022.1.1,36.28772245089252,
,,,,2,0,2,0,0,0,0,0,,,none,,,,,,,,,,,,,,,,,,,,,,,,,,,,,,,,,,,,,,,,,,,,,,,,,,,,,,,,,,,,,,,,,,,,,,,,,,,,,,,,,,,,,,,,,,,,,,,,,,,,,,,,,,,,,,,,,,,565.5295677999966,None,2476.97612093374,-6.0,4.279389336533558e-05,0,"[0.6174741468265335, 0.5584891703396863, 0.43064890094432595, 0.759103501850348]","[2180.7766218184056, 540.9868092204827, 379.5764962005482, 775.7280242451895]",None,"[-0.4963369915670208, 7.075743009410166, 4.961109682929862, 5.917456052324865]",False,566.5150032998063,569.1340464998502,569.1340464998502,570.3413761998527,None,0,,3.3942319001071155,4.422506200149655,None,1,None,1,,,,,,,,,,,,klxufm,001,fr,0,0,2022-05-09_16h56.39.686,Cluster,2022.1.1,36.28772245089252,
,,,,2,0,2,0,1,0,1,0,,,frequency,,,,,,,,,,,,,,,,,,,,,,,,,,,,,,,,,,,,,,,,,,,,,,,,,,,,,,,,,,,,,,,,,,,,,,,,,,,,,,,,,,,,,,,,,,,,,,,,,,,,,,,,,,,,,,,,,,,570.994359599892,None,574.3491774985172,-1.0,5.333798065099765e-05,1,"[0.5545390936485997, 0.655850640008744, 0.5838333635014754, 0.4971930286491469]","[1447.2692374403773, 1148.6983549970344, 911.7224885582164, 723.6346187201887]",Major_3rd,"[6.0, 7.243472637208711, 6.0, 6.240015226198375]",False,572.0238020999823,574.8368879000191,574.8368879000191,576.0738706998527,['space'],1,[0.3842193998862058],3.3205645496491343,4.339572349563241,None,1,None,1,,,,,,,,,,,,klxufm,001,fr,0,0,2022-05-09_16h56.39.686,Cluster,2022.1.1,36.28772245089252,
,,,,2,0,2,0,2,0,2,0,,,frequency,,,,,,,,,,,,,,,,,,,,,,,,,,,,,,,,,,,,,,,,,,,,,,,,,,,,,,,,,,,,,,,,,,,,,,,,,,,,,,,,,,,,,,,,,,,,,,,,,,,,,,,,,,,,,,,,,,,576.4060103998054,None,725.1908244899915,0.24001522619837545,4.401676341434146e-05,1,"[0.6507252715241472, 0.6403827447430799, 0.521399564611938, 0.6468208230368719]","[456.8415924827794, 512.7873496511364, 575.5843388365493, 646.0715759452693]",Tone,"[6.59044577893951, 7.0, 7.070494605656956, 6.595400128776029]",False,577.4162661998998,580.266914999811,580.266914999811,581.495779799996,['space'],1,[0.4591696001589298],3.488850699737668,4.504526999779046,None,1,None,1,,,,,,,,,,,,klxufm,001,fr,0,0,2022-05-09_16h56.39.686,Cluster,2022.1.1,36.28772245089252,
,,,,2,0,2,0,3,0,3,0,,,time,,,,,,,,,,,,,,,,,,,,,,,,,,,,,,,,,,,,,,,,,,,,,,,,,,,,,,,,,,,,,,,,,,,,,,,,,,,,,,,,,,,,,,,,,,,,,,,,,,,,,,,,,,,,,,,,,,,581.9786190998275,None,,,,,"[0.4359421077760352, 0.4359421077760352, 0.4359421077760352, 0.4359421077760352]","[137.1031238343127, 407.5100691891657, 817.6286810086361, 450.1003119956182]",None,"[6.0, 5.597592726781405, 5.735065782666709, 6.150099501374751]",True,582.9908262998797,585.3393548999447,585.3393548999447,586.5608675999101,None,1,,2.751707599963993,3.759792699944228,None,1,None,1,0,,,,,,,,,,,klxufm,001,fr,0,0,2022-05-09_16h56.39.686,Cluster,2022.1.1,36.28772245089252,
,,,,2,0,2,0,4,0,4,0,,,both,,,,,,,,,,,,,,,,,,,,,,,,,,,,,,,,,,,,,,,,,,,,,,,,,,,,,,,,,,,,,,,,,,,,,,,,,,,,,,,,,,,,,,,,,,,,,,,,,,,,,,,,,,,,,,,,,,,586.8003059998155,None,3494.0833128205404,-3.384767311581766,5.083537952128076e-05,1,"[0.47258900681892846, 0.47258900681892846, 0.47258900681892846, 0.47258900681892846]","[5546.511526435857, 4941.380009052322, 4402.269115909012, 3921.9759122721434]",Tone,"[-0.9694354748693517, 0.27134708569755706, 1.6083902085372372, 2.1509078376766233]",False,587.8168565998785,590.2506712998729,590.2506712998729,591.4506582999602,['space'],1,[0.4265643998514861],2.896123699611053,3.9162703996989876,None,1,None,1,,,,,,,,,,,,klxufm,001,fr,0,0,2022-05-09_16h56.39.686,Cluster,2022.1.1,36.28772245089252,
,,,,2,0,2,0,5,0,5,0,,,none,,,,,,,,,,,,,,,,,,,,,,,,,,,,,,,,,,,,,,,,,,,,,,,,,,,,,,,,,,,,,,,,,,,,,,,,,,,,,,,,,,,,,,,,,,,,,,,,,,,,,,,,,,,,,,,,,,,591.7938588999677,None,233.2582478842019,-5.0,0.00011262740412183961,1,"[0.4935919384779132, 0.5178708570025456, 0.5184181693312642, 0.7942567588489574]","[191.81332194684106, 1269.5835175973953, 4629.125173858956, 231.83867637939596]",None,"[1.6760163755732504, 7.0, 0.9577883879131583, 0.6222929191430779]",False,592.8141709999181,595.3605266998056,595.3605266998056,596.5744441999123,['space'],1,[0.48578569991514087],3.3437651495914906,4.372468349756673,None,1,None,1,,,,,,,,,,,,klxufm,001,fr,0,0,2022-05-09_16h56.39.686,Cluster,2022.1.1,36.28772245089252,
,,,,2,0,2,0,6,0,6,0,,,none,,,,,,,,,,,,,,,,,,,,,,,,,,,,,,,,,,,,,,,,,,,,,,,,,,,,,,,,,,,,,,,,,,,,,,,,,,,,,,,,,,,,,,,,,,,,,,,,,,,,,,,,,,,,,,,,,,,597.2234840998426,None,7484.227188856291,-7.781676705724075,6.772903995346803e-05,0,"[0.4933220759169228, 0.4046797534502809, 0.4345205938512635, 0.5661789212775137]","[5001.223677234532, 258.7046095398907, 1963.3499263762558, 2115.364195270575]",None,"[0.0, 1.0, 0.0, -0.4963369915670208]",False,598.2393857999705,600.5974472998641,600.5974472998641,601.8203588998877,None,0,,2.9089471998158842,3.9171347997616976,None,1,None,1,,,,,,,,,,,,klxufm,001,fr,0,0,2022-05-09_16h56.39.686,Cluster,2022.1.1,36.28772245089252,
,,,,2,0,2,0,7,0,7,0,,,none,,,,,,,,,,,,,,,,,,,,,,,,,,,,,,,,,,,,,,,,,,,,,,,,,,,,,,,,,,,,,,,,,,,,,,,,,,,,,,,,,,,,,,,,,,,,,,,,,,,,,,,,,,,,,,,,,,,602.2102533997968,None,,,,,"[0.7519609098902732, 0.6502891309789501, 0.4872434062570031, 0.44235397472770677]","[5949.52368967996, 788.8960220684044, 2155.4148514808517, 2479.460243034267]",None,"[-1.4269691556203679, 5.735065782666709, -0.4963369915670208, 0.0]",True,603.2088732998818,606.1115067999344,606.1115067999344,607.3295320000034,None,1,,3.3642908497713506,4.367290449794382,None,1,None,1,0,,,,,,,,,,,klxufm,001,fr,0,0,2022-05-09_16h56.39.686,Cluster,2022.1.1,36.28772245089252,
,,,,2,0,2,0,8,0,8,0,,,both,,,,,,,,,,,,,,,,,,,,,,,,,,,,,,,,,,,,,,,,,,,,,,,,,,,,,,,,,,,,,,,,,,,,,,,,,,,,,,,,,,,,,,,,,,,,,,,,,,,,,,,,,,,,,,,,,,,607.6058481999207,None,2143.5469250725882,-10.0,2.4663813579299878e-05,0,"[0.5192654449430235, 0.5192654449430235, 0.5192654449430235, 0.5192654449430235]","[850.6671609508569, 1071.7734625362946, 1350.3499461681915, 1701.334321901713]",Major_3rd,"[5.761142002011438, 6.891968791479923, 6.954440554421228, 3.0]",False,608.6155300999526,611.2070575999096,611.2070575999096,612.4306907998398,None,0,,3.099519749870524,4.104469949845225,None,1,None,1,,,,,,,,,,,,klxufm,001,fr,0,0,2022-05-09_16h56.39.686,Cluster,2022.1.1,36.28772245089252,
,,,,2,0,2,0,9,0,9,0,,,frequency,,,,,,,,,,,,,,,,,,,,,,,,,,,,,,,,,,,,,,,,,,,,,,,,,,,,,,,,,,,,,,,,,,,,,,,,,,,,,,,,,,,,,,,,,,,,,,,,,,,,,,,,,,,,,,,,,,,612.7598541998304,None,5656.85424949238,-4.0,8.109296367558474e-05,0,"[0.5473789154727051, 0.43526277130201974, 0.6416432522593241, 0.5952469309458779]","[2244.9240966187467, 2828.427124746191, 3563.594872561358, 4489.8481932374925]",Major_3rd,"[-0.4494547166917453, 1.3796732531242775, 2.615232688418234, 1.0]",False,613.7771884999238,616.4149054998998,616.4149054998998,617.6418914999813,None,0,,3.2541359497699887,4.264094449812546,None,1,None,1,,,,,,,,,,,,klxufm,001,fr,0,0,2022-05-09_16h56.39.686,Cluster,2022.1.1,36.28772245089252,
,,,,2,0,2,0,10,0,10,0,,,both,,,,,,,,,,,,,,,,,,,,,,,,,,,,,,,,,,,,,,,,,,,,,,,,,,,,,,,,,,,,,,,,,,,,,,,,,,,,,,,,,,,,,,,,,,,,,,,,,,,,,,,,,,,,,,,,,,,618.0881541999988,None,665.6440583691609,0.5954001287760289,5.1447383854926764e-05,1,"[0.4556751800395147, 0.4556751800395147, 0.4556751800395147, 0.4556751800395147]","[1677.3179217535148, 1331.2881167383218, 1056.6440784915876, 838.6589608767574]",Major_3rd,"[3.0, 6.954440554421228, 6.891968791479923, 5.735065782666709]",False,619.0892730997875,621.4770946998615,621.4770946998615,622.711405399954,['space'],1,[0.40334149985574186],2.830892600119114,3.8423063999507576,None,1,None,1,,,,,,,,,,,,klxufm,001,fr,0,0,2022-05-09_16h56.39.686,Cluster,2022.1.1,36.28772245089252,
,,,,2,0,2,0,11,0,11,0,,,none,,,,,,,,,,,,,,,,,,,,,,,,,,,,,,,,,,,,,,,,,,,,,,,,,,,,,,,,,,,,,,,,,,,,,,,,,,,,,,,,,,,,,,,,,,,,,,,,,,,,,,,,,,,,,,,,,,,622.9916836000048,None,,,,,"[0.47763404294571465, 0.5125980186200373, 0.7387346447058725, 0.7825174991213422]","[3327.483975019667, 4897.061413213177, 870.4712571930091, 1082.7323486871996]",None,"[2.4515867102086832, 0.27134708569755706, 5.761142002011438, 6.891968791479923]",True,623.9893543999642,626.7515149000101,626.7515149000101,627.9739856999367,None,1,,3.535355200059712,4.551054500043392,None,1,None,1,0,,,,,,,,,,,klxufm,001,fr,0,0,2022-05-09_16h56.39.686,Cluster,2022.1.1,36.28772245089252,
,,,,2,0,2,0,12,0,12,0,,,none,,,,,,,,,,,,,,,,,,,,,,,,,,,,,,,,,,,,,,,,,,,,,,,,,,,,,,,,,,,,,,,,,,,,,,,,,,,,,,,,,,,,,,,,,,,,,,,,,,,,,,,,,,,,,,,,,,,628.5951934999321,None,1414.213562373095,-7.0,2.252729881236124e-05,0,"[0.5222645679857647, 0.6934297588391183, 0.6836126655213437, 0.719933994262142]","[325.5858153358776, 1861.46460861464, 479.6942894695453, 211.014309896716]",None,"[3.4747590406773865, 0.8193351004128218, 6.59044577893951, 1.0]",False,629.6572225999553,632.5850134999491,632.5850134999491,633.7892298998777,None,0,,3.6569028499070555,4.663651649840176,None,1,None,1,,,,,,,,,,,,klxufm,001,fr,0,0,2022-05-09_16h56.39.686,Cluster,2022.1.1,36.28772245089252,
,,,,2,0,2,0,13,0,13,0,,,none,,,,,,,,,,,,,,,,,,,,,,,,,,,,,,,,,,,,,,,,,,,,,,,,,,,,,,,,,,,,,,,,,,,,,,,,,,,,,,,,,,,,,,,,,,,,,,,,,,,,,,,,,,,,,,,,,,,634.3549829998519,None,1163.659015315555,1.2434726372087108,5.873174370209971e-05,1,"[0.49497632463334296, 0.7204165170145833, 0.6021417957096084, 0.43830344081619543]","[4112.654252550158, 755.9416265857385, 1125.6522032236956, 1125.4508627241812]",None,"[2.0, 5.917456052324865, 7.243472637208711, 7.243472637208711]",False,635.3651697998866,638.1968260998838,638.1968260998838,639.4265995998867,['space'],1,[0.3884198002051562],3.2748444001190364,4.280922800069675,None,1,None,1,,,,,,,,,,,,klxufm,001,fr,0,0,2022-05-09_16h56.39.686,Cluster,2022.1.1,36.28772245089252,
,,,,2,0,2,0,14,0,14,0,,,time,,,,,,,,,,,,,,,,,,,,,,,,,,,,,,,,,,,,,,,,,,,,,,,,,,,,,,,,,,,,,,,,,,,,,,,,,,,,,,,,,,,,,,,,,,,,,,,,,,,,,,,,,,,,,,,,,,,639.7045746999793,None,937.072179831531,0.012492611891717798,4.232474929597486e-05,1,"[0.6026868150544314, 0.6026868150544314, 0.6026868150544314, 0.6026868150544314]","[181.33175810033393, 3837.8848738960332, 5936.105986340944, 230.11193692980657]",None,"[2.0, 2.5050615479466045, -1.4269691556203679, 0.6222929191430779]",False,640.7234192998149,643.5664613000117,643.5664613000117,644.7807710999623,['space'],1,[0.410260200034827],3.429201799677685,4.452684999676421,None,1,None,1,,,,,,,,,,,,klxufm,001,fr,0,0,2022-05-09_16h56.39.686,Cluster,2022.1.1,36.28772245089252,
,,,,2,0,2,0,15,0,15,0,,,none,,,,,,,,,,,,,,,,,,,,,,,,,,,,,,,,,,,,,,,,,,,,,,,,,,,,,,,,,,,,,,,,,,,,,,,,,,,,,,,,,,,,,,,,,,,,,,,,,,,,,,,,,,,,,,,,,,,645.2352822998073,None,,,,,"[0.7391967016374533, 0.5195103232673002, 0.45005660302042755, 0.7966461367176584]","[2743.8601207305, 822.3647026575495, 205.1539566831122, 3575.296884740202]",None,"[1.0, 5.735065782666709, 1.0, 2.615232688418234]",True,646.2376694998238,648.9790605998132,648.9790605998132,650.2020036999602,None,1,,3.5230028997175395,4.540530199883506,None,1,None,1,0,,,,,,,,,,,klxufm,001,fr,0,0,2022-05-09_16h56.39.686,Cluster,2022.1.1,36.28772245089252,
,,,,2,0,2,0,16,0,16,0,,,none,,,,,,,,,,,,,,,,,,,,,,,,,,,,,,,,,,,,,,,,,,,,,,,,,,,,,,,,,,,,,,,,,,,,,,,,,,,,,,,,,,,,,,,,,,,,,,,,,,,,,,,,,,,,,,,,,,,650.8304603998549,None,125.0,1.0,0.0008109050486794653,1,"[0.6782276701747273, 0.7000383080381666, 0.4428106526995059, 0.4196188265878156]","[229.71726130128883, 2106.313560517461, 307.1508967623998, 2710.795536819236]",None,"[0.6222929191430779, -0.4963369915670208, 2.683282694300539, 1.0]",False,651.8392244998831,654.6769648999907,654.6769648999907,655.9100199998356,['space'],1,[0.5111831000540406],3.266382649773732,4.274775449652225,None,1,None,1,,,,,,,,,,,,klxufm,001,fr,0,0,2022-05-09_16h56.39.686,Cluster,2022.1.1,36.28772245089252,
,,,,2,0,2,0,17,0,17,0,,,frequency,,,,,,,,,,,,,,,,,,,,,,,,,,,,,,,,,,,,,,,,,,,,,,,,,,,,,,,,,,,,,,,,,,,,,,,,,,,,,,,,,,,,,,,,,,,,,,,,,,,,,,,,,,,,,,,,,,,656.1590703998227,None,1052.0217178036123,0.8919687914799227,5.122794676900794e-05,1,"[0.7519730690032891, 0.6012909944703848, 0.633010113425353, 0.48632177030306367]","[1669.9803815348469, 1487.7833812289098, 1325.4643072073354, 1180.854452231788]",Tone,"[3.0, 5.0, 6.954440554421228, 7.243472637208711]",False,657.1669095999096,660.1852751998231,660.1852751998231,661.4140962997917,['space'],1,[0.26303780009038746],3.5015216995961964,4.531607199693099,None,1,None,1,,,,,,,,,,,,klxufm,001,fr,0,0,2022-05-09_16h56.39.686,Cluster,2022.1.1,36.28772245089252,
,,,,2,0,2,0,18,0,18,0,,,none,,,,,,,,,,,,,,,,,,,,,,,,,,,,,,,,,,,,,,,,,,,,,,,,,,,,,,,,,,,,,,,,,,,,,,,,,,,,,,,,,,,,,,,,,,,,,,,,,,,,,,,,,,,,,,,,,,,661.7550307000056,None,2792.6242248701196,-4.6203267468757225,3.977791675711435e-05,0,"[0.6435433642886268, 0.5105156796961189, 0.4863250764652383, 0.41620819507165696]","[875.1356552949156, 4101.060795207194, 130.94413279459948, 6253.713851550043]",None,"[5.761142002011438, 2.0, 6.048065125584764, -1.4269691556203679]",False,662.7732156999409,665.45178569993,665.45178569993,666.6690863999538,None,0,,3.0661216997541487,4.091304799774662,None,1,None,1,,,,,,,,,,,,klxufm,001,fr,0,0,2022-05-09_16h56.39.686,Cluster,2022.1.1,36.28772245089252,
,,,,2,0,2,0,19,0,19,0,,,none,,,,,,,,,,,,,,,,,,,,,,,,,,,,,,,,,,,,,,,,,,,,,,,,,,,,,,,,,,,,,,,,,,,,,,,,,,,,,,,,,,,,,,,,,,,,,,,,,,,,,,,,,,,,,,,,,,,666.9242151000071,None,,,,,"[0.645413281952991, 0.4433956163344878, 0.5291293894129563, 0.7054160520551811]","[360.67861220462225, 153.16230778689777, 3870.831318569807, 3416.632570377317]",None,"[4.2479600298789695, 4.371753608000451, 2.1509078376766233, 2.615232688418234]",True,667.9422930998262,670.599821700016,670.599821700016,671.8080062998924,None,1,,3.3323211998213083,4.333490799879655,None,1,None,1,0,,,,,,,,,,,klxufm,001,fr,0,0,2022-05-09_16h56.39.686,Cluster,2022.1.1,36.28772245089252,
,,,,3,0,3,0,0,0,0,0,,,both,,,,,,,,,,,,,,,,,,,,,,,,,,,,,,,,,,,,,,,,,,,,,,,,,,,,,,,,,,,,,,,,,,,,,,,,,,,,,,,,,,,,,,,,,,,,,,,,,,,,,,,,,,,,,,,,,,,682.3126417999156,None,8000.0,-4.0,0.00011454338263838867,1,"[0.6788749224167867, 0.6788749224167867, 0.6788749224167867, 0.6788749224167867]","[5039.684199579492, 5656.8542494923795, 6349.604207872798, 7127.189745122714]",Tone,"[0.0, -0.9694354748693517, -1.7244312477694326, -1.847718983824807]",False,683.3108963998966,686.3682915999088,686.3682915999088,687.5769767998718,['space'],1,[0.31790150003507733],3.7313680497463793,4.735764549812302,None,1,None,1,,,,,,,,,,,,klxufm,001,fr,0,0,2022-05-09_16h56.39.686,Cluster,2022.1.1,36.28772245089252,
,,,,3,0,3,0,1,0,1,0,,,frequency,,,,,,,,,,,,,,,,,,,,,,,,,,,,,,,,,,,,,,,,,,,,,,,,,,,,,,,,,,,,,,,,,,,,,,,,,,,,,,,,,,,,,,,,,,,,,,,,,,,,,,,,,,,,,,,,,,,688.0945762000047,None,378.9291416275994,-5.0,4.6125798215597186e-05,0,"[0.4681282365317307, 0.5261995935602684, 0.48524210163860737, 0.793926405479987]","[601.5125180410581, 535.8867312681464, 477.4208019552081, 425.3335804754277]",Tone,"[7.0, 7.075743009410166, 6.59044577893951, 6.0]",False,689.1254795999266,691.6530906998087,691.6530906998087,692.8833912999835,None,0,,3.2910982496105134,4.298005549702793,None,1,None,1,,,,,,,,,,,,klxufm,001,fr,0,0,2022-05-09_16h56.39.686,Cluster,2022.1.1,36.28772245089252,
,,,,3,0,3,0,2,0,2,0,,,both,,,,,,,,,,,,,,,,,,,,,,,,,,,,,,,,,,,,,,,,,,,,,,,,,,,,,,,,,,,,,,,,,,,,,,,,,,,,,,,,,,,,,,,,,,,,,,,,,,,,,,,,,,,,,,,,,,,693.4683331998531,None,2165.480167030994,-6.496336991567021,3.7148586490423356e-05,0,"[0.6165598369735261, 0.6165598369735261, 0.6165598369735261, 0.6165598369735261]","[1364.1670227861073, 1531.225710632593, 1718.7427475806358, 1929.2235049662402]",Tone,"[6.954440554421228, 4.970570268636886, 2.0876797242856355, 0.0]",False,694.456937899813,697.3293225998059,697.3293225998059,698.5350081999786,None,0,,3.4822161998599768,4.516964199719951,None,1,None,1,,,,,,,,,,,,klxufm,001,fr,0,0,2022-05-09_16h56.39.686,Cluster,2022.1.1,36.28772245089252,
,,,,3,0,3,0,3,0,3,0,,,both,,,,,,,,,,,,,,,,,,,,,,,,,,,,,,,,,,,,,,,,,,,,,,,,,,,,,,,,,,,,,,,,,,,,,,,,,,,,,,,,,,,,,,,,,,,,,,,,,,,,,,,,,,,,,,,,,,,699.0374346999452,None,,,,,"[0.5917301979016326, 0.5917301979016326, 0.5917301979016326, 0.5917301979016326]","[632.5634568647077, 947.774303993969, 1420.056946956035, 2127.6813731921216]",Perfect_5th,"[6.896055004427689, 6.012492611891718, 6.162415204904671, -0.4963369915670208]",True,700.0507449000143,702.8618918999564,702.8618918999564,704.0855091998819,None,1,,3.3973410001490265,4.410024499986321,None,1,None,1,0,,,,,,,,,,,klxufm,001,fr,0,0,2022-05-09_16h56.39.686,Cluster,2022.1.1,36.28772245089252,
,,,,3,0,3,0,4,0,4,0,,,time,,,,,,,,,,,,,,,,,,,,,,,,,,,,,,,,,,,,,,,,,,,,,,,,,,,,,,,,,,,,,,,,,,,,,,,,,,,,,,,,,,,,,,,,,,,,,,,,,,,,,,,,,,,,,,,,,,,704.5131259998307,None,125.0,0.0,0.000722719885372964,1,"[0.5145018320978569, 0.5145018320978569, 0.5145018320978569, 0.5145018320978569]","[1385.3283088989276, 352.7590693015239, 352.6158149067653, 4261.843567328359]",None,"[6.162415204904671, 4.2479600298789695, 4.2479600298789695, 1.6083902085372372]",False,705.5274910000153,708.1031791998539,708.1031791998539,709.3308973999228,['space'],1,[0.41878710011951625],3.0808879497926682,4.106374549912289,None,1,None,1,,,,,,,,,,,,klxufm,001,fr,0,0,2022-05-09_16h56.39.686,Cluster,2022.1.1,36.28772245089252,
,,,,3,0,3,0,5,0,5,0,,,none,,,,,,,,,,,,,,,,,,,,,,,,,,,,,,,,,,,,,,,,,,,,,,,,,,,,,,,,,,,,,,,,,,,,,,,,,,,,,,,,,,,,,,,,,,,,,,,,,,,,,,,,,,,,,,,,,,,709.6783922999166,None,6062.8662660415985,-5.0,6.682440389904723e-05,0,"[0.6643968540422759, 0.43207025120968356, 0.6648483331736391, 0.6167003442875125]","[635.1217317234941, 1088.1790258956974, 1334.2500560826288, 1055.0097031120235]",None,"[6.896055004427689, 7.0, 6.954440554421228, 6.891968791479923]",False,710.6981220999733,713.5022099998314,713.5022099998314,714.7363554998301,None,0,,3.4126934497617185,4.423051149817184,None,1,None,1,,,,,,,,,,,,klxufm,001,fr,0,0,2022-05-09_16h56.39.686,Cluster,2022.1.1,36.28772245089252,
,,,,3,0,3,0,6,0,6,0,,,none,,,,,,,,,,,,,,,,,,,,,,,,,,,,,,,,,,,,,,,,,,,,,,,,,,,,,,,,,,,,,,,,,,,,,,,,,,,,,,,,,,,,,,,,,,,,,,,,,,,,,,,,,,,,,,,,,,,715.1547477999702,None,2485.1635943555666,-6.0,4.288485582076348e-05,0,"[0.6145355347795244, 0.7409747941213944, 0.757757933887626, 0.4432026305693771]","[754.862654714491, 229.55834006258814, 7328.5641905367465, 127.54348480984468]",None,"[5.917456052324865, 0.6222929191430779, -1.7816767057240748, 6.656789160322759]",False,716.1608707997948,719.2915590999182,719.2915590999182,720.5026987998281,None,0,,3.5842426996678114,4.602615499868989,None,1,None,1,,,,,,,,,,,,klxufm,001,fr,0,0,2022-05-09_16h56.39.686,Cluster,2022.1.1,36.28772245089252,
,,,,3,0,3,0,7,0,7,0,,,none,,,,,,,,,,,,,,,,,,,,,,,,,,,,,,,,,,,,,,,,,,,,,,,,,,,,,,,,,,,,,,,,,,,,,,,,,,,,,,,,,,,,,,,,,,,,,,,,,,,,,,,,,,,,,,,,,,,720.825569699984,None,1866.0659830736151,-7.0,3.0715860445343604e-05,0,"[0.672932630781531, 0.46866961297905546, 0.5202435804719481, 0.5224105627324593]","[3546.95419823034, 177.87438573413985, 792.3256424594756, 130.6070244218578]",None,"[2.615232688418234, 2.4902543309199405, 5.735065782666709, 6.048065125584764]",False,722.9471558998339,725.6508661999833,725.6508661999833,726.8563604999799,None,0,,3.2315633490215987,4.240294449031353,None,1,None,1,,,,,,,,,,,,klxufm,001,fr,0,0,2022-05-09_16h56.39.686,Cluster,2022.1.1,36.28772245089252,
,,,,3,0,3,0,8,0,8,0,,,time,,,,,,,,,,,,,,,,,,,,,,,,,,,,,,,,,,,,,,,,,,,,,,,,,,,,,,,,,,,,,,,,,,,,,,,,,,,,,,,,,,,,,,,,,,,,,,,,,,,,,,,,,,,,,,,,,,,727.2176169999875,None,293.57782030427677,-4.0,7.654521239549413e-05,0,"[0.686337012265392, 0.686337012265392, 0.686337012265392, 0.686337012265392]","[170.53376997186075, 1172.1628244918463, 1336.2880636060527, 1702.4996426000675]",None,"[3.0, 7.243472637208711, 6.954440554421228, 3.0]",False,728.2104537999257,731.3050381999929,731.3050381999929,732.5203273999505,None,0,,3.7648831999395043,4.795678999973461,None,1,None,1,,,,,,,,,,,,klxufm,001,fr,0,0,2022-05-09_16h56.39.686,Cluster,2022.1.1,36.28772245089252,
,,,,3,0,3,0,9,0,9,0,,,frequency,,,,,,,,,,,,,,,,,,,,,,,,,,,,,,,,,,,,,,,,,,,,,,,,,,,,,,,,,,,,,,,,,,,,,,,,,,,,,,,,,,,,,,,,,,,,,,,,,,,,,,,,,,,,,,,,,,,733.0708374998067,None,243.40009200795808,-5.167536940407906,9.951566452418293e-05,1,"[0.7673641601034491, 0.6226272549618547, 0.41676484848630185, 0.4283665532076697]","[153.33244973358762, 172.10985560025674, 193.1867810512946, 216.8448299651305]",Tone,"[4.371753608000451, 3.0, 1.6760163755732504, 0.6961229588504807]",False,734.0829201999586,736.9309256998822,736.9309256998822,738.1528431999031,['space'],1,[0.6582511998713017],3.262277500005439,4.29234219994396,None,1,None,1,,,,,,,,,,,,klxufm,001,fr,0,0,2022-05-09_16h56.39.686,Cluster,2022.1.1,36.28772245089252,
,,,,3,0,3,0,10,0,10,0,,,frequency,,,,,,,,,,,,,,,,,,,,,,,,,,,,,,,,,,,,,,,,,,,,,,,,,,,,,,,,,,,,,,,,,,,,,,,,,,,,,,,,,,,,,,,,,,,,,,,,,,,,,,,,,,,,,,,,,,,738.4352055999916,None,2462.2888266898335,-5.0,4.783245253797975e-05,0,"[0.568110820754987, 0.5113379796550672, 0.5033693341096905, 0.5915749307579412]","[3908.639873736986, 3482.202253184498, 3102.289523667471, 2763.8257599355534]",Tone,"[2.1509078376766233, 2.615232688418234, 2.015960844576941, 1.0]",False,740.9066086998209,743.5051845000125,743.5051845000125,744.7089207000099,None,0,,3.2127430494874716,4.232100249268115,None,1,None,1,,,,,,,,,,,,klxufm,001,fr,0,0,2022-05-09_16h56.39.686,Cluster,2022.1.1,36.28772245089252,
,,,,3,0,3,0,11,0,11,0,,,both,,,,,,,,,,,,,,,,,,,,,,,,,,,,,,,,,,,,,,,,,,,,,,,,,,,,,,,,,,,,,,,,,,,,,,,,,,,,,,,,,,,,,,,,,,,,,,,,,,,,,,,,,,,,,,,,,,,745.1694392999634,None,1515.7165665103996,-6.0,2.487406223150989e-05,0,"[0.7597979785002558, 0.7597979785002558, 0.7597979785002558, 0.7597979785002558]","[3819.3664156416708, 3031.4331330207997, 2406.050072164236, 1909.6832078208352]",Major_3rd,"[2.5050615479466045, 2.015960844576941, -0.019749338496168, 0.8193351004128218]",False,746.1852945999708,749.4856285999995,749.4856285999995,750.7122117998078,None,0,,4.075213149888441,5.086025749798864,None,1,None,1,,,,,,,,,,,,klxufm,001,fr,0,0,2022-05-09_16h56.39.686,Cluster,2022.1.1,36.28772245089252,
,,,,3,0,3,0,12,0,12,0,,,time,,,,,,,,,,,,,,,,,,,,,,,,,,,,,,,,,,,,,,,,,,,,,,,,,,,,,,,,,,,,,,,,,,,,,,,,,,,,,,,,,,,,,,,,,,,,,,,,,,,,,,,,,,,,,,,,,,,751.3214789999183,None,5278.031643091578,-4.0,8.990717583908555e-05,1,"[0.4523375205054431, 0.4523375205054431, 0.4523375205054431, 0.4523375205054431]","[4584.799244194967, 478.09405659805407, 1447.9539764628707, 127.3205531527456]",None,"[0.9577883879131583, 6.59044577893951, 6.0, 6.656789160322759]",False,752.3896529998165,754.7729226998053,754.7729226998053,755.9917721999809,['space'],1,[0.4930426001083106],2.8167844500858337,3.82440255000256,None,1,None,1,,,,,,,,,,,,klxufm,001,fr,0,0,2022-05-09_16h56.39.686,Cluster,2022.1.1,36.28772245089252,
,,,,3,0,3,0,13,0,13,0,,,time,,,,,,,,,,,,,,,,,,,,,,,,,,,,,,,,,,,,,,,,,,,,,,,,,,,,,,,,,,,,,,,,,,,,,,,,,,,,,,,,,,,,,,,,,,,,,,,,,,,,,,,,,,,,,,,,,,,756.2624288999941,None,,,,,"[0.7519901585208495, 0.7519901585208495, 0.7519901585208495, 0.7519901585208495]","[128.17544245072114, 3643.564378887875, 3320.8372854777926, 567.7928195163471]",None,"[6.656789160322759, 2.5050615479466045, 2.4515867102086832, 7.070494605656956]",True,757.2578002999071,760.5522303998005,760.5522303998005,761.7729942000005,None,1,,4.030479799956083,5.03635839978233,None,1,None,1,0,,,,,,,,,,,klxufm,001,fr,0,0,2022-05-09_16h56.39.686,Cluster,2022.1.1,36.28772245089252,
,,,,3,0,3,0,14,0,14,0,,,frequency,,,,,,,,,,,,,,,,,,,,,,,,,,,,,,,,,,,,,,,,,,,,,,,,,,,,,,,,,,,,,,,,,,,,,,,,,,,,,,,,,,,,,,,,,,,,,,,,,,,,,,,,,,,,,,,,,,,762.3514147999231,None,479.7193541260071,0.5904457789395101,7.757937991739099e-05,1,"[0.5296293768031526, 0.585917762455916, 0.6267386809706113, 0.45333041355056275]","[302.20425615266464, 339.2128083689304, 380.7535036945644, 427.3813576579712]",Tone,"[2.683282694300539, 4.0, 5.0, 6.0]",False,763.3429150998127,766.1031601999421,766.1031601999421,767.3275717999786,['space'],1,[0.6666974001564085],3.2093954998999834,4.235509399790317,None,1,None,1,,,,,,,,,,,,klxufm,001,fr,0,0,2022-05-09_16h56.39.686,Cluster,2022.1.1,36.28772245089252,
,,,,3,0,3,0,15,0,15,0,,,both,,,,,,,,,,,,,,,,,,,,,,,,,,,,,,,,,,,,,,,,,,,,,,,,,,,,,,,,,,,,,,,,,,,,,,,,,,,,,,,,,,,,,,,,,,,,,,,,,,,,,,,,,,,,,,,,,,,767.6410964999814,None,5076.406353152822,-6.0,7.514223526674182e-05,1,"[0.7680355454364349, 0.7680355454364349, 0.7680355454364349, 0.7680355454364349]","[2014.5731963032106, 2538.2031765764114, 3197.9356110786543, 4029.1463926064207]",Major_3rd,"[-0.07449695470183038, 0.0, 2.4515867102086832, 2.1509078376766233]",False,768.6532446998172,771.9787827997934,771.9787827997934,773.1968102999963,['space'],1,[0.3242522000800818],4.1242454496677965,5.137943249661475,None,1,None,1,,,,,,,,,,,,klxufm,001,fr,0,0,2022-05-09_16h56.39.686,Cluster,2022.1.1,36.28772245089252,
,,,,3,0,3,0,16,0,16,0,,,both,,,,,,,,,,,,,,,,,,,,,,,,,,,,,,,,,,,,,,,,,,,,,,,,,,,,,,,,,,,,,,,,,,,,,,,,,,,,,,,,,,,,,,,,,,,,,,,,,,,,,,,,,,,,,,,,,,,773.8258283999749,None,757.8582832551998,-5.0,2.26534801498785e-05,0,"[0.5611238141322098, 0.5611238141322098, 0.5611238141322098, 0.5611238141322098]","[150.37812951026473, 225.3126156527078, 337.5874865420478, 505.80972015096177]",Perfect_5th,"[4.371753608000451, 0.6961229588504807, 3.4747590406773865, 6.908020731256669]",False,776.2956478998531,779.0030562998727,779.0030562998727,780.2125966998283,None,0,,3.265422149328515,4.271170249208808,None,1,None,1,,,,,,,,,,,,klxufm,001,fr,0,0,2022-05-09_16h56.39.686,Cluster,2022.1.1,36.28772245089252,
,,,,3,0,3,0,17,0,17,0,,,frequency,,,,,,,,,,,,,,,,,,,,,,,,,,,,,,,,,,,,,,,,,,,,,,,,,,,,,,,,,,,,,,,,,,,,,,,,,,,,,,,,,,,,,,,,,,,,,,,,,,,,,,,,,,,,,,,,,,,780.6126983999275,None,2297.3967099940687,0.0,8.14042568960799e-05,0,"[0.7016872183607711, 0.6398233619142214, 0.7248169513354829, 0.7670566748158569]","[3646.8899542328663, 3249.009585424941, 2894.538474880755, 2578.740616879157]",Tone,"[2.5050615479466045, 2.4515867102086832, 1.3796732531242775, 0.6462576101882194]",False,781.6248292999808,784.7219390999526,784.7219390999526,785.9408750999719,None,0,,3.8606008496135473,4.868912649573758,None,1,None,1,,,,,,,,,,,,klxufm,001,fr,0,0,2022-05-09_16h56.39.686,Cluster,2022.1.1,36.28772245089252,
,,,,3,0,3,0,18,0,18,0,,,frequency,,,,,,,,,,,,,,,,,,,,,,,,,,,,,,,,,,,,,,,,,,,,,,,,,,,,,,,,,,,,,,,,,,,,,,,,,,,,,,,,,,,,,,,,,,,,,,,,,,,,,,,,,,,,,,,,,,,786.5355878998525,None,1048.2514068341309,0.8919687914799227,5.105319015809366e-05,1,"[0.42425177838211375, 0.40041367144122664, 0.6162023840764782, 0.7334911809083966]","[415.9988464839112, 524.1257034170656, 660.3570065261181, 831.9976929678222]",Major_3rd,"[5.597592726781405, 7.0, 6.595400128776029, 5.735065782666709]",False,787.5415980999824,790.0060194998514,790.0060194998514,791.219064099947,['space'],1,[0.3232461998704821],3.194097399711609,4.19381589978002,None,1,None,1,,,,,,,,,,,,klxufm,001,fr,0,0,2022-05-09_16h56.39.686,Cluster,2022.1.1,36.28772245089252,
,,,,3,0,3,0,19,0,19,0,,,frequency,,,,,,,,,,,,,,,,,,,,,,,,,,,,,,,,,,,,,,,,,,,,,,,,,,,,,,,,,,,,,,,,,,,,,,,,,,,,,,,,,,,,,,,,,,,,,,,,,,,,,,,,,,,,,,,,,,,791.7912264999468,None,2828.42712474619,-1.0,5.8364428873931735e-05,0,"[0.6406125874444795, 0.577552353937664, 0.45280049179330467, 0.6012420352424154]","[7127.189745122716, 5656.854249492381, 4489.8481932374925, 3563.5948725613575]",Major_3rd,"[-1.847718983824807, -0.9694354748693517, 1.0, 2.615232688418234]",False,794.4357296999078,797.1225527999923,797.1225527999923,798.3455868000165,None,0,,3.320551199140027,4.323494798969477,None,1,None,1,,,,,,,,,,,,klxufm,001,fr,0,0,2022-05-09_16h56.39.686,Cluster,2022.1.1,36.28772245089252,
,,,,4,0,4,0,0,0,0,0,,,both,,,,,,,,,,,,,,,,,,,,,,,,,,,,,,,,,,,,,,,,,,,,,,,,,,,,,,,,,,,,,,,,,,,,,,,,,,,,,,,,,,,,,,,,,,,,,,,,,,,,,,,,,,,,,,,,,,,805.8102356998716,None,188.96515829087173,-4.3239836244267496,0.00018577960441823577,1,"[0.4712779795240385, 0.4712779795240385, 0.4712779795240385, 0.4712779795240385]","[476.162361254772, 377.93031658174345, 299.9634910562671, 238.081180627386]",Major_3rd,"[6.59044577893951, 4.961109682929862, 2.683282694300539, 0.6222929191430779]",False,806.7997622999828,809.2517893998884,809.2517893998884,810.4478288998362,['space'],1,[0.3531299000605941],2.9145915997214615,3.9419260998256505,None,1,None,1,,,,,,,,,,,,klxufm,001,fr,0,0,2022-05-09_16h56.39.686,Cluster,2022.1.1,36.28772245089252,
,,,,4,0,4,0,1,0,1,0,,,none,,,,,,,,,,,,,,,,,,,,,,,,,,,,,,,,,,,,,,,,,,,,,,,,,,,,,,,,,,,,,,,,,,,,,,,,,,,,,,,,,,,,,,,,,,,,,,,,,,,,,,,,,,,,,,,,,,,810.7995886998251,None,,,,,"[0.5041661114420967, 0.47845776282884755, 0.6768521600533881, 0.5473644333992664]","[130.4702927118449, 531.3397173173915, 195.9785012292546, 146.2662080177529]",None,"[6.048065125584764, 7.075743009410166, 1.6760163755732504, 5.0]",True,811.8144090999849,814.5230803999584,814.5230803999584,815.7362168999389,None,1,,3.231791199883446,4.234852399909869,None,1,None,1,0,,,,,,,,,,,klxufm,001,fr,0,0,2022-05-09_16h56.39.686,Cluster,2022.1.1,36.28772245089252,
,,,,4,0,4,0,2,0,2,0,,,none,,,,,,,,,,,,,,,,,,,,,,,,,,,,,,,,,,,,,,,,,,,,,,,,,,,,,,,,,,,,,,,,,,,,,,,,,,,,,,,,,,,,,,,,,,,,,,,,,,,,,,,,,,,,,,,,,,,816.1000003998633,None,616.1090956621771,0.8960550044276885,5.9127246572455424e-05,1,"[0.7540740957031238, 0.7121225538827409, 0.47969331800552717, 0.42916352346452696]","[444.07805320704693, 335.51967320181797, 1749.6460997259217, 313.53211461323167]",None,"[6.150099501374751, 3.4747590406773865, 2.0, 3.0]",False,817.1210351998452,820.0989655999001,820.0989655999001,821.3111509999726,['space'],1,[0.5765602998435497],3.4035209498833865,4.4119155497755855,None,1,None,1,,,,,,,,,,,,klxufm,001,fr,0,0,2022-05-09_16h56.39.686,Cluster,2022.1.1,36.28772245089252,
,,,,4,0,4,0,3,0,3,0,,,time,,,,,,,,,,,,,,,,,,,,,,,,,,,,,,,,,,,,,,,,,,,,,,,,,,,,,,,,,,,,,,,,,,,,,,,,,,,,,,,,,,,,,,,,,,,,,,,,,,,,,,,,,,,,,,,,,,,821.5659497999586,None,625.675165928346,0.8960550044276885,5.747276494138451e-05,0,"[0.7821897146962646, 0.7821897146962646, 0.7821897146962646, 0.7821897146962646]","[590.3949365918145, 2909.921701220047, 5311.660819644768, 433.14663942239895]",None,"[7.0, 1.3796732531242775, -0.39302076275731945, 6.150099501374751]",False,822.5570064999629,825.9367956998758,825.9367956998758,827.1461190998089,None,0,,4.168892299756408,5.190534299938008,None,1,None,1,,,,,,,,,,,,klxufm,001,fr,0,0,2022-05-09_16h56.39.686,Cluster,2022.1.1,36.28772245089252,
,,,,4,0,4,0,4,0,4,0,,,both,,,,,,,,,,,,,,,,,,,,,,,,,,,,,,,,,,,,,,,,,,,,,,,,,,,,,,,,,,,,,,,,,,,,,,,,,,,,,,,,,,,,,,,,,,,,,,,,,,,,,,,,,,,,,,,,,,,827.8103904000018,None,435.2752816480623,-5.0,4.203609419229965e-05,0,"[0.6768092557717773, 0.6768092557717773, 0.6768092557717773, 0.6768092557717773]","[172.73910999597217, 217.63764082403122, 274.2062449236567, 345.47821999194423]",Major_3rd,"[3.0, 0.6961229588504807, 1.2931498873070675, 4.0]",False,828.8156450998504,831.8817193999421,831.8817193999421,833.0853513998445,None,0,,3.7408776495140046,4.768582349643111,None,1,None,1,,,,,,,,,,,,klxufm,001,fr,0,0,2022-05-09_16h56.39.686,Cluster,2022.1.1,36.28772245089252,
,,,,4,0,4,0,5,0,5,0,,,time,,,,,,,,,,,,,,,,,,,,,,,,,,,,,,,,,,,,,,,,,,,,,,,,,,,,,,,,,,,,,,,,,,,,,,,,,,,,,,,,,,,,,,,,,,,,,,,,,,,,,,,,,,,,,,,,,,,833.6202391998377,None,,,,,"[0.6659837888396729, 0.6659837888396729, 0.6659837888396729, 0.6659837888396729]","[155.1006935279971, 5527.474022817542, 453.46954726755627, 7862.144203818891]",None,"[4.371753608000451, -0.9694354748693517, 6.59044577893951, -1.5246490448829233]",True,834.6235092999414,837.6573220000137,837.6573220000137,838.8788655998651,None,1,,3.6913317998405546,4.7096766997128725,None,1,None,1,0,,,,,,,,,,,klxufm,001,fr,0,0,2022-05-09_16h56.39.686,Cluster,2022.1.1,36.28772245089252,
,,,,4,0,4,0,6,0,6,0,,,time,,,,,,,,,,,,,,,,,,,,,,,,,,,,,,,,,,,,,,,,,,,,,,,,,,,,,,,,,,,,,,,,,,,,,,,,,,,,,,,,,,,,,,,,,,,,,,,,,,,,,,,,,,,,,,,,,,,839.3847564999014,None,466.5164957684038,-2.0,5.810955560840543e-05,1,"[0.6400640169177609, 0.6400640169177609, 0.6400640169177609, 0.6400640169177609]","[900.9234223863269, 1324.4035325134462, 600.3669982852142, 574.1096397307309]",None,"[6.0, 6.954440554421228, 7.0, 7.070494605656956]",False,840.4194526998326,843.3646842997987,843.3646842997987,844.5812346998136,['space'],1,[0.6139422000851482],3.5751236497890204,4.603854549815878,None,1,None,1,,,,,,,,,,,,klxufm,001,fr,0,0,2022-05-09_16h56.39.686,Cluster,2022.1.1,36.28772245089252,
,,,,4,0,4,0,7,0,7,0,,,time,,,,,,,,,,,,,,,,,,,,,,,,,,,,,,,,,,,,,,,,,,,,,,,,,,,,,,,,,,,,,,,,,,,,,,,,,,,,,,,,,,,,,,,,,,,,,,,,,,,,,,,,,,,,,,,,,,,845.0595381997991,None,4927.905031796348,-5.728652914302443,7.641861790121152e-05,1,"[0.5360954504784774, 0.5360954504784774, 0.5360954504784774, 0.5360954504784774]","[241.36859011116007, 767.2827710492327, 224.28299980762034, 4374.121065774422]",None,"[0.6222929191430779, 5.917456052324865, 0.6961229588504807, 1.6083902085372372]",False,846.0740693998523,848.6977247998584,848.6977247998584,849.9073043998796,['space'],1,[0.37405609991401434],3.17096980009228,4.1758457000833005,None,1,None,1,,,,,,,,,,,,klxufm,001,fr,0,0,2022-05-09_16h56.39.686,Cluster,2022.1.1,36.28772245089252,
,,,,4,0,4,0,8,0,8,0,,,none,,,,,,,,,,,,,,,,,,,,,,,,,,,,,,,,,,,,,,,,,,,,,,,,,,,,,,,,,,,,,,,,,,,,,,,,,,,,,,,,,,,,,,,,,,,,,,,,,,,,,,,,,,,,,,,,,,,850.3076664998662,None,176.7766952966369,-8.0,0.00013934586077992474,0,"[0.6130314102230998, 0.4602805237810421, 0.6346419179118652, 0.6162513771171167]","[4380.502086499017, 5765.3315185277, 2719.8837334778955, 7820.664330966572]",None,"[1.6083902085372372, -1.0, 1.0, -1.5246490448829233]",False,851.3405838999897,854.0843556998298,854.0843556998298,855.2915562998969,None,0,,3.3601512496825308,4.382528849644586,None,1,None,1,,,,,,,,,,,,klxufm,001,fr,0,0,2022-05-09_16h56.39.686,Cluster,2022.1.1,36.28772245089252,
,,,,4,0,4,0,9,0,9,0,,,both,,,,,,,,,,,,,,,,,,,,,,,,,,,,,,,,,,,,,,,,,,,,,,,,,,,,,,,,,,,,,,,,,,,,,,,,,,,,,,,,,,,,,,,,,,,,,,,,,,,,,,,,,,,,,,,,,,,855.7676917999052,None,304.74197945328433,-3.316717305699461,7.473653194711633e-05,0,"[0.5229153833200927, 0.5229153833200927, 0.5229153833200927, 0.5229153833200927]","[191.9754173499119, 215.48512018362888, 241.8738693815075, 271.4942388584806]",Tone,"[1.6760163755732504, 0.6961229588504807, 0.8324630595920937, 1.2931498873070675]",False,856.7811422999948,859.3805774999782,859.3805774999782,860.5970118998084,None,0,,3.117347299819812,4.121646899962798,None,1,None,1,,,,,,,,,,,,klxufm,001,fr,0,0,2022-05-09_16h56.39.686,Cluster,2022.1.1,36.28772245089252,
,,,,4,0,4,0,10,0,10,0,,,none,,,,,,,,,,,,,,,,,,,,,,,,,,,,,,,,,,,,,,,,,,,,,,,,,,,,,,,,,,,,,,,,,,,,,,,,,,,,,,,,,,,,,,,,,,,,,,,,,,,,,,,,,,,,,,,,,,,860.9670900998171,None,384.9818008556352,-1.0,7.170401895925725e-05,1,"[0.4516181355504136, 0.4878351110508224, 0.4108934096449737, 0.747659789349145]","[1247.382923082088, 432.8694051863877, 4389.607891597748, 4954.368101127346]",None,"[7.305918379084402, 6.150099501374751, 1.6083902085372372, 0.27134708569755706]",False,861.957948199939,864.3230161999818,864.3230161999818,865.5267572999,['space'],1,[0.48365569999441504],3.1403206498362124,4.168723749695346,None,1,None,1,,,,,,,,,,,,klxufm,001,fr,0,0,2022-05-09_16h56.39.686,Cluster,2022.1.1,36.28772245089252,
,,,,4,0,4,0,11,0,11,0,,,frequency,,,,,,,,,,,,,,,,,,,,,,,,,,,,,,,,,,,,,,,,,,,,,,,,,,,,,,,,,,,,,,,,,,,,,,,,,,,,,,,,,,,,,,,,,,,,,,,,,,,,,,,,,,,,,,,,,,,866.1588325998746,None,512.987444611281,1.0,7.788900832471516e-05,1,"[0.5236443754636165, 0.4569328816770473, 0.7020104333874329, 0.5183189253043889]","[203.57920230560654, 256.4937223056406, 323.1618398987667, 407.15840461121303]",Major_3rd,"[1.062109997243569, 1.0, 3.4747590406773865, 5.597592726781405]",False,867.1648756999057,869.8747908999212,869.8747908999212,871.0897224999499,['space'],1,[0.4746662999968976],3.227582899853587,4.236405299976468,None,1,None,1,,,,,,,,,,,,klxufm,001,fr,0,0,2022-05-09_16h56.39.686,Cluster,2022.1.1,36.28772245089252,
,,,,4,0,4,0,12,0,12,0,,,none,,,,,,,,,,,,,,,,,,,,,,,,,,,,,,,,,,,,,,,,,,,,,,,,,,,,,,,,,,,,,,,,,,,,,,,,,,,,,,,,,,,,,,,,,,,,,,,,,,,,,,,,,,,,,,,,,,,871.4706336997915,None,,,,,"[0.640201346000052, 0.7790389994854094, 0.4940874509909313, 0.5335154875135488]","[184.7856995984944, 1714.604249485689, 353.42402928985496, 189.99724326755552]",None,"[2.0, 2.0876797242856355, 4.2479600298789695, 1.6760163755732504]",True,872.4619062999263,875.4061834998429,875.4061834998429,876.6135197998956,None,1,,3.4897701498121023,4.514457149896771,None,1,None,1,0,,,,,,,,,,,klxufm,001,fr,0,0,2022-05-09_16h56.39.686,Cluster,2022.1.1,36.28772245089252,
,,,,4,0,4,0,13,0,13,0,,,frequency,,,,,,,,,,,,,,,,,,,,,,,,,,,,,,,,,,,,,,,,,,,,,,,,,,,,,,,,,,,,,,,,,,,,,,,,,,,,,,,,,,,,,,,,,,,,,,,,,,,,,,,,,,,,,,,,,,,877.0101404997986,None,2000.0,5.0,0.0001330362529899405,0,"[0.6229544620486478, 0.6807806451183669, 0.46765102621434884, 0.5365013201028199]","[1259.921049894873, 1414.2135623730949, 1587.4010519681995, 1781.7974362806785]",Tone,"[7.305918379084402, 6.162415204904671, 4.0, 2.0]",False,878.0379962997977,880.8462776998058,880.8462776998058,882.0522199999541,None,0,,3.3372779495548457,4.362694649491459,None,1,None,1,,,,,,,,,,,,klxufm,001,fr,0,0,2022-05-09_16h56.39.686,Cluster,2022.1.1,36.28772245089252,
,,,,4,0,4,0,14,0,14,0,,,time,,,,,,,,,,,,,,,,,,,,,,,,,,,,,,,,,,,,,,,,,,,,,,,,,,,,,,,,,,,,,,,,,,,,,,,,,,,,,,,,,,,,,,,,,,,,,,,,,,,,,,,,,,,,,,,,,,,882.4506283998489,None,1231.1444133449168,-7.0,2.3996088094672076e-05,0,"[0.40080113371859954, 0.40080113371859954, 0.40080113371859954, 0.40080113371859954]","[1809.4504291441726, 277.570670491118, 3165.127549781639, 2344.6880512640187]",None,"[1.0, 1.9331993152652034, 2.4515867102086832, -0.4494547166917453]",False,883.5406609999482,885.7636204999872,885.7636204999872,886.9708996999543,None,0,,2.629337749676779,3.6558954496867955,None,1,None,1,,,,,,,,,,,,klxufm,001,fr,0,0,2022-05-09_16h56.39.686,Cluster,2022.1.1,36.28772245089252,
,,,,4,0,4,0,15,0,15,0,,,none,,,,,,,,,,,,,,,,,,,,,,,,,,,,,,,,,,,,,,,,,,,,,,,,,,,,,,,,,,,,,,,,,,,,,,,,,,,,,,,,,,,,,,,,,,,,,,,,,,,,,,,,,,,,,,,,,,,887.2458073999733,None,8000.0,-2.0,0.00014420157515633036,1,"[0.7759123093545806, 0.533722370335592, 0.5014498518650838, 0.6670664090735969]","[307.49433960883766, 1066.848638606088, 167.2831075063925, 262.2560764035105]",None,"[2.683282694300539, 6.891968791479923, 3.417677421301641, 1.2931498873070675]",False,888.2799847999122,891.1025533999782,891.1025533999782,892.3226262999233,['space'],1,[0.26439730008132756],3.4983888496644795,4.506248649675399,None,1,None,1,,,,,,,,,,,,klxufm,001,fr,0,0,2022-05-09_16h56.39.686,Cluster,2022.1.1,36.28772245089252,
,,,,4,0,4,0,16,0,16,0,,,both,,,,,,,,,,,,,,,,,,,,,,,,,,,,,,,,,,,,,,,,,,,,,,,,,,,,,,,,,,,,,,,,,,,,,,,,,,,,,,,,,,,,,,,,,,,,,,,,,,,,,,,,,,,,,,,,,,,892.8362355998252,None,2639.015821545789,-6.0,3.87199998338875e-05,0,"[0.7616178525738759, 0.7616178525738759, 0.7616178525738759, 0.7616178525738759]","[6649.903169142305, 5278.031643091579, 4189.176491282508, 3324.951584571152]",Major_3rd,"[-1.7244312477694326, -0.39302076275731945, 1.6083902085372372, 2.4515867102086832]",False,893.8710360999685,897.1871665997896,897.1871665997896,898.4001848998014,None,0,,4.06288784975186,5.078414949821308,None,1,None,1,,,,,,,,,,,,klxufm,001,fr,0,0,2022-05-09_16h56.39.686,Cluster,2022.1.1,36.28772245089252,
,,,,4,0,4,0,17,0,17,0,,,both,,,,,,,,,,,,,,,,,,,,,,,,,,,,,,,,,,,,,,,,,,,,,,,,,,,,,,,,,,,,,,,,,,,,,,,,,,,,,,,,,,,,,,,,,,,,,,,,,,,,,,,,,,,,,,,,,,,898.9987141999882,None,,,,,"[0.7719990245476421, 0.7719990245476421, 0.7719990245476421, 0.7719990245476421]","[3312.8888329037773, 3718.591985202422, 4173.9783765371285, 4685.132318126897]",Tone,"[2.4515867102086832, 2.5050615479466045, 2.0, 0.9577883879131583]",True,899.9938275997993,903.3502499000169,903.3502499000169,904.5697323000059,None,1,,4.090315499808639,5.117017799988389,None,1,None,1,0,,,,,,,,,,,klxufm,001,fr,0,0,2022-05-09_16h56.39.686,Cluster,2022.1.1,36.28772245089252,
,,,,4,0,4,0,18,0,18,0,,,time,,,,,,,,,,,,,,,,,,,,,,,,,,,,,,,,,,,,,,,,,,,,,,,,,,,,,,,,,,,,,,,,,,,,,,,,,,,,,,,,,,,,,,,,,,,,,,,,,,,,,,,,,,,,,,,,,,,905.1674201998394,None,1161.455918088413,1.2434726372087108,5.8625411379967e-05,1,"[0.704438251569931, 0.704438251569931, 0.704438251569931, 0.704438251569931]","[1430.5824318479972, 447.3988277276314, 1595.3722318830762, 185.95664368767734]",None,"[6.0, 6.150099501374751, 4.0, 2.0]",False,906.1847635000013,909.322604399873,909.322604399873,910.5283358998131,['space'],1,[0.362425799947232],3.824080499820411,4.828847199911252,None,1,None,1,,,,,,,,,,,,klxufm,001,fr,0,0,2022-05-09_16h56.39.686,Cluster,2022.1.1,36.28772245089252,
,,,,4,0,4,0,19,0,19,0,,,time,,,,,,,,,,,,,,,,,,,,,,,,,,,,,,,,,,,,,,,,,,,,,,,,,,,,,,,,,,,,,,,,,,,,,,,,,,,,,,,,,,,,,,,,,,,,,,,,,,,,,,,,,,,,,,,,,,,911.072186099831,None,8000.0,-4.0,0.00011454338263838867,1,"[0.6297383086646915, 0.6297383086646915, 0.6297383086646915, 0.6297383086646915]","[1435.9161078815712, 814.8327674462797, 2328.483916293831, 192.41617705618282]",None,"[6.0, 5.735065782666709, -0.4494547166917453, 1.6760163755732504]",False,913.0131630999967,915.9381765997969,915.9381765997969,917.1518204999156,['space'],1,[0.3511485999915749],3.534265999449417,4.5631478992290795,None,1,None,1,,,,,,,,,,,,klxufm,001,fr,0,0,2022-05-09_16h56.39.686,Cluster,2022.1.1,36.28772245089252,
,,,,5,0,5,0,0,0,0,0,,,frequency,,,,,,,,,,,,,,,,,,,,,,,,,,,,,,,,,,,,,,,,,,,,,,,,,,,,,,,,,,,,,,,,,,,,,,,,,,,,,,,,,,,,,,,,,,,,,,,,,,,,,,,,,,,,,,,,,,,924.1979213999584,None,146.91030546091574,-1.0,0.0004702743213157388,1,"[0.751012234670788, 0.4346849014260229, 0.7902441204453863, 0.7110694882334997]","[233.2055734336272, 207.76254643520122, 185.09538629669348, 164.90124238541515]",Tone,"[0.6222929191430779, 1.0, 2.0, 3.417677421301641]",False,925.1997736999765,928.2174019999802,928.2174019999802,929.4517353000119,['space'],1,[0.3491925001144409],3.7286019497551024,4.764210749650374,None,1,None,1,,,,,,,,,,,,klxufm,001,fr,0,0,2022-05-09_16h56.39.686,Cluster,2022.1.1,36.28772245089252,
,,,,5,0,5,0,1,0,1,0,,,time,,,,,,,,,,,,,,,,,,,,,,,,,,,,,,,,,,,,,,,,,,,,,,,,,,,,,,,,,,,,,,,,,,,,,,,,,,,,,,,,,,,,,,,,,,,,,,,,,,,,,,,,,,,,,,,,,,,930.010214000009,None,667.4097379205986,0.5954001287760289,5.12815606411762e-05,0,"[0.6762391196833879, 0.6762391196833879, 0.6762391196833879, 0.6762391196833879]","[165.81185531360384, 6674.922200673163, 171.02660142832698, 5259.313119575225]",None,"[3.417677421301641, -1.7244312477694326, 3.0, -0.39302076275731945]",False,931.0011473998893,934.0562443998642,934.0562443998642,935.2635262999684,None,0,,3.707485299790278,4.725610599853098,None,1,None,1,,,,,,,,,,,,klxufm,001,fr,0,0,2022-05-09_16h56.39.686,Cluster,2022.1.1,36.28772245089252,
,,,,5,0,5,0,2,0,2,0,,,frequency,,,,,,,,,,,,,,,,,,,,,,,,,,,,,,,,,,,,,,,,,,,,,,,,,,,,,,,,,,,,,,,,,,,,,,,,,,,,,,,,,,,,,,,,,,,,,,,,,,,,,,,,,,,,,,,,,,,935.7862354998942,None,,,,,"[0.5700378932898409, 0.74570107584761, 0.6126278277861701, 0.755758035346264]","[595.7731459333451, 472.8654592944978, 375.3135637617558, 297.88657296667253]",Major_3rd,"[7.0, 6.59044577893951, 4.961109682929862, 2.0]",True,936.7792612998746,939.7279595998116,939.7279595998116,940.9329307000153,None,1,,3.6878594998270273,4.704424900002778,None,1,None,1,0,,,,,,,,,,,klxufm,001,fr,0,0,2022-05-09_16h56.39.686,Cluster,2022.1.1,36.28772245089252,
,,,,5,0,5,0,3,0,3,0,,,frequency,,,,,,,,,,,,,,,,,,,,,,,,,,,,,,,,,,,,,,,,,,,,,,,,,,,,,,,,,,,,,,,,,,,,,,,,,,,,,,,,,,,,,,,,,,,,,,,,,,,,,,,,,,,,,,,,,,,941.5428404998966,None,8000.0,-3.0,0.00012851978913844324,1,"[0.7467512714125626, 0.5059779660541213, 0.59319513910981, 0.6469135806422326]","[5039.684199579492, 5656.8542494923795, 6349.604207872798, 7127.189745122714]",Tone,"[0.0, -0.9694354748693517, -1.7244312477694326, -1.847718983824807]",False,942.55053639994,945.4085601000115,945.4085601000115,946.6355240999255,['space'],1,[0.16928760008886456],3.5202675499022007,4.526112049818039,None,1,None,1,,,,,,,,,,,,klxufm,001,fr,0,0,2022-05-09_16h56.39.686,Cluster,2022.1.1,36.28772245089252,
,,,,5,0,5,0,4,0,4,0,,,both,,,,,,,,,,,,,,,,,,,,,,,,,,,,,,,,,,,,,,,,,,,,,,,,,,,,,,,,,,,,,,,,,,,,,,,,,,,,,,,,,,,,,,,,,,,,,,,,,,,,,,,,,,,,,,,,,,,947.1241088998504,None,2836.172543769772,-4.6203267468757225,3.81880987708846e-05,0,"[0.6097405701017508, 0.6097405701017508, 0.6097405701017508, 0.6097405701017508]","[1125.5358198858653, 1418.0862718848862, 1786.6767445147123, 2251.07163977173]",Major_3rd,"[7.243472637208711, 6.162415204904671, 2.0, -0.4494547166917453]",False,948.1357739998493,950.9972754998598,950.9972754998598,952.2079852998722,None,0,,3.4566825998481363,4.468954499810934,None,1,None,1,,,,,,,,,,,,klxufm,001,fr,0,0,2022-05-09_16h56.39.686,Cluster,2022.1.1,36.28772245089252,
,,,,5,0,5,0,5,0,5,0,,,none,,,,,,,,,,,,,,,,,,,,,,,,,,,,,,,,,,,,,,,,,,,,,,,,,,,,,,,,,,,,,,,,,,,,,,,,,,,,,,,,,,,,,,,,,,,,,,,,,,,,,,,,,,,,,,,,,,,952.6700168999378,None,7405.331583593059,-7.781676705724075,6.675272702377927e-05,1,"[0.7156508433416167, 0.6429582168659461, 0.7867948372215039, 0.7867203779364571]","[7324.727193968469, 824.8979347165816, 301.41332134242356, 1058.2497269990583]",None,"[-1.7816767057240748, 5.735065782666709, 2.683282694300539, 6.891968791479923]",False,953.6737208999693,956.8574302999768,956.8574302999768,958.0896734998096,['space'],1,[0.5226104999892414],3.9655636998359114,4.993648899719119,None,1,None,1,,,,,,,,,,,,klxufm,001,fr,0,0,2022-05-09_16h56.39.686,Cluster,2022.1.1,36.28772245089252,
,,,,5,0,5,0,6,0,6,0,,,time,,,,,,,,,,,,,,,,,,,,,,,,,,,,,,,,,,,,,,,,,,,,,,,,,,,,,,,,,,,,,,,,,,,,,,,,,,,,,,,,,,,,,,,,,,,,,,,,,,,,,,,,,,,,,,,,,,,958.7401754998136,None,125.0,-2.0,0.0005740768107484417,1,"[0.5220241506632373, 0.5220241506632373, 0.5220241506632373, 0.5220241506632373]","[7386.143471122373, 1044.9702338155894, 4921.7491871731045, 3882.567194263734]",None,"[-1.7816767057240748, 6.891968791479923, 0.27134708569755706, 2.1509078376766233]",False,959.7579083999153,962.3514175999444,962.3514175999444,963.5858136999886,['space'],1,[0.397346300072968],3.1066847497131675,4.122395049547777,None,1,None,1,,,,,,,,,,,,klxufm,001,fr,0,0,2022-05-09_16h56.39.686,Cluster,2022.1.1,36.28772245089252,
,,,,5,0,5,0,7,0,7,0,,,none,,,,,,,,,,,,,,,,,,,,,,,,,,,,,,,,,,,,,,,,,,,,,,,,,,,,,,,,,,,,,,,,,,,,,,,,,,,,,,,,,,,,,,,,,,,,,,,,,,,,,,,,,,,,,,,,,,,963.9256721998099,None,,,,,"[0.483504810965338, 0.7892506060444517, 0.6279087921814746, 0.41401542939383007]","[898.2950900158796, 562.9169187308198, 1430.9461420526907, 725.9233365039063]",None,"[5.761142002011438, 7.070494605656956, 6.0, 6.0]",True,964.9429826999549,967.8649549998809,967.8649549998809,969.0917416999582,None,1,,3.3373875997494906,4.3451476998161525,None,1,None,1,0,,,,,,,,,,,klxufm,001,fr,0,0,2022-05-09_16h56.39.686,Cluster,2022.1.1,36.28772245089252,
,,,,5,0,5,0,8,0,8,0,,,both,,,,,,,,,,,,,,,,,,,,,,,,,,,,,,,,,,,,,,,,,,,,,,,,,,,,,,,,,,,,,,,,,,,,,,,,,,,,,,,,,,,,,,,,,,,,,,,,,,,,,,,,,,,,,,,,,,,969.343478199793,None,1741.101126592249,-6.0,3.1635787586497645e-05,0,"[0.6133989122458818, 0.6133989122458818, 0.6133989122458818, 0.6133989122458818]","[4387.299918778506, 3482.2022531844987, 2763.825759935554, 2193.649959389253]",Major_3rd,"[1.6083902085372372, 2.615232688418234, 1.0, -0.4963369915670208]",False,970.3576681998093,973.2295243998524,973.2295243998524,974.4630159998778,None,0,,3.4815381495282054,4.497432849602774,None,1,None,1,,,,,,,,,,,,klxufm,001,fr,0,0,2022-05-09_16h56.39.686,Cluster,2022.1.1,36.28772245089252,
,,,,5,0,5,0,9,0,9,0,,,frequency,,,,,,,,,,,,,,,,,,,,,,,,,,,,,,,,,,,,,,,,,,,,,,,,,,,,,,,,,,,,,,,,,,,,,,,,,,,,,,,,,,,,,,,,,,,,,,,,,,,,,,,,,,,,,,,,,,,974.8952635999303,None,319.2822694711689,-3.0,6.903138365858237e-05,1,"[0.5701601557261441, 0.7102087520799181, 0.7588327173925757, 0.4519729247968824]","[804.5409043298658, 638.5645389423378, 506.82901043332765, 402.2704521649329]",Major_3rd,"[5.735065782666709, 6.595400128776029, 6.908020731256669, 5.597592726781405]",False,975.8869132997934,978.9608151998837,978.9608151998837,980.1606477999594,['space'],1,[0.32790779997594655],3.516966599971056,4.5341723000165075,None,1,None,1,,,,,,,,,,,,klxufm,001,fr,0,0,2022-05-09_16h56.39.686,Cluster,2022.1.1,36.28772245089252,
,,,,5,0,5,0,10,0,10,0,,,frequency,,,,,,,,,,,,,,,,,,,,,,,,,,,,,,,,,,,,,,,,,,,,,,,,,,,,,,,,,,,,,,,,,,,,,,,,,,,,,,,,,,,,,,,,,,,,,,,,,,,,,,,,,,,,,,,,,,,980.4863413998391,None,2297.3967099940687,7.0,0.00018224143068270158,0,"[0.6593939089224157, 0.5525907770454991, 0.614480920761908, 0.502760136615783]","[455.86124427910823, 683.0201283771975, 1023.3738919967744, 1533.3283446695998]",Perfect_5th,"[6.59044577893951, 6.595400128776029, 6.431302590161051, 4.970570268636886]",False,983.3053695999552,986.1741755998228,986.1741755998228,987.4094523999374,None,0,,3.3697856990620494,4.376656599109992,None,1,None,1,,,,,,,,,,,,klxufm,001,fr,0,0,2022-05-09_16h56.39.686,Cluster,2022.1.1,36.28772245089252,
,,,,5,0,5,0,11,0,11,0,,,both,,,,,,,,,,,,,,,,,,,,,,,,,,,,,,,,,,,,,,,,,,,,,,,,,,,,,,,,,,,,,,,,,,,,,,,,,,,,,,,,,,,,,,,,,,,,,,,,,,,,,,,,,,,,,,,,,,,987.7290140998084,None,,,,,"[0.5086808918408852, 0.5086808918408852, 0.5086808918408852, 0.5086808918408852]","[6950.779109137939, 6192.4401984076385, 5516.837034922073, 4914.943042601225]",Tone,"[-1.847718983824807, -1.4269691556203679, -0.9694354748693517, 0.27134708569755706]",True,988.7293398999609,991.2820587998722,991.2820587998722,992.490371799795,None,1,,3.045562599785626,4.0588565999642015,None,1,None,1,0,,,,,,,,,,,klxufm,001,fr,0,0,2022-05-09_16h56.39.686,Cluster,2022.1.1,36.28772245089252,
,,,,5,0,5,0,12,0,12,0,,,none,,,,,,,,,,,,,,,,,,,,,,,,,,,,,,,,,,,,,,,,,,,,,,,,,,,,,,,,,,,,,,,,,,,,,,,,,,,,,,,,,,,,,,,,,,,,,,,,,,,,,,,,,,,,,,,,,,,992.8445754998829,None,3249.0095854249403,-3.0,5.0092288148172966e-05,0,"[0.6522076669504607, 0.6964394166133079, 0.6820615328524007, 0.4170746072684712]","[942.828909392221, 321.6204986686171, 820.8386288576531, 424.0754319225843]",None,"[6.012492611891718, 3.0, 5.735065782666709, 6.0]",False,993.9326783998404,997.0034499999601,997.0034499999601,998.2031617998146,None,0,,3.4655719499569386,4.482775449752808,None,1,None,1,,,,,,,,,,,,klxufm,001,fr,0,0,2022-05-09_16h56.39.686,Cluster,2022.1.1,36.28772245089252,
,,,,5,0,5,0,13,0,13,0,,,frequency,,,,,,,,,,,,,,,,,,,,,,,,,,,,,,,,,,,,,,,,,,,,,,,,,,,,,,,,,,,,,,,,,,,,,,,,,,,,,,,,,,,,,,,,,,,,,,,,,,,,,,,,,,,,,,,,,,,998.4645374999382,None,3450.49770515023,-3.384767311581766,5.031719625322902e-05,0,"[0.6590928765865296, 0.5854138796862702, 0.41728467355749116, 0.4449953786386154]","[1369.3309217423339, 1725.2488525751155, 2173.6773456663645, 2738.661843484667]",Major_3rd,"[6.162415204904671, 2.0876797242856355, -0.4963369915670208, 1.0]",False,999.4616647998337,1002.1580950999632,1002.1580950999632,1003.3653686998878,None,0,,3.1180569999851286,4.13464259984903,None,1,None,1,,,,,,,,,,,,klxufm,001,fr,0,0,2022-05-09_16h56.39.686,Cluster,2022.1.1,36.28772245089252,
,,,,5,0,5,0,14,0,14,0,,,none,,,,,,,,,,,,,,,,,,,,,,,,,,,,,,,,,,,,,,,,,,,,,,,,,,,,,,,,,,,,,,,,,,,,,,,,,,,,,,,,,,,,,,,,,,,,,,,,,,,,,,,,,,,,,,,,,,,1003.6584673000034,None,328.89392805246763,-2.5252409593226135,7.104380793735e-05,1,"[0.6330929919281718, 0.7276876431873178, 0.45680532136020685, 0.5345200886482498]","[2221.6360632689584, 1787.671553003396, 6762.940213403498, 1363.7415942616587]",None,"[-0.4494547166917453, 2.0, -1.847718983824807, 6.954440554421228]",False,1004.6624314999208,1007.4959519999102,1007.4959519999102,1008.7118799998425,['space'],1,[0.4190499000251293],3.353124799672514,4.359495199751109,None,1,None,1,,,,,,,,,,,,klxufm,001,fr,0,0,2022-05-09_16h56.39.686,Cluster,2022.1.1,36.28772245089252,
,,,,5,0,5,0,15,0,15,0,,,time,,,,,,,,,,,,,,,,,,,,,,,,,,,,,,,,,,,,,,,,,,,,,,,,,,,,,,,,,,,,,,,,,,,,,,,,,,,,,,,,,,,,,,,,,,,,,,,,,,,,,,,,,,,,,,,,,,,1009.0932459998876,None,,,,,"[0.7575270184312028, 0.7575270184312028, 0.7575270184312028, 0.7575270184312028]","[649.4500602426589, 550.3331418056599, 246.22644272296972, 392.68190427583704]",None,"[6.595400128776029, 7.075743009410166, 0.8324630595920937, 5.0]",True,1010.105913599953,1013.403058799915,1013.403058799915,1014.6147372999694,None,1,,4.0567165997345,5.066283699823543,None,1,None,1,0,,,,,,,,,,,klxufm,001,fr,0,0,2022-05-09_16h56.39.686,Cluster,2022.1.1,36.28772245089252,
,,,,5,0,5,0,16,0,16,0,,,frequency,,,,,,,,,,,,,,,,,,,,,,,,,,,,,,,,,,,,,,,,,,,,,,,,,,,,,,,,,,,,,,,,,,,,,,,,,,,,,,,,,,,,,,,,,,,,,,,,,,,,,,,,,,,,,,,,,,,1015.2308610999025,None,812.2523963562351,-6.0,1.9404120400068268e-05,0,"[0.6293736926899107, 0.4777808320060862, 0.6277818473275114, 0.5859068812104823]","[2046.7477839935486, 1624.5047927124701, 1289.3703084395784, 1023.3738919967743]",Major_3rd,"[-0.07449695470183038, 3.5455309205127623, 7.0, 6.431302590161051]",False,1016.2471290999092,1019.0098562999628,1019.0098562999628,1020.2423063998576,None,0,,3.3544670497067273,4.359517449513078,None,1,None,1,,,,,,,,,,,,klxufm,001,fr,0,0,2022-05-09_16h56.39.686,Cluster,2022.1.1,36.28772245089252,
,,,,5,0,5,0,17,0,17,0,,,time,,,,,,,,,,,,,,,,,,,,,,,,,,,,,,,,,,,,,,,,,,,,,,,,,,,,,,,,,,,,,,,,,,,,,,,,,,,,,,,,,,,,,,,,,,,,,,,,,,,,,,,,,,,,,,,,,,,1020.6596742998809,None,1166.6381342642649,1.2434726372087108,5.8875530654315534e-05,1,"[0.7745293871242274, 0.7745293871242274, 0.7745293871242274, 0.7745293871242274]","[1457.0311483323499, 137.16138950633052, 502.90155347149977, 288.22489004994225]",None,"[6.0, 6.0, 6.908020731256669, 2.0]",False,1021.6585340998136,1025.0034439999145,1025.0034439999145,1026.2135901998263,['space'],1,[0.3932069002185017],4.110142500139773,5.131981200072914,None,1,None,1,,,,,,,,,,,,klxufm,001,fr,0,0,2022-05-09_16h56.39.686,Cluster,2022.1.1,36.28772245089252,
,,,,5,0,5,0,18,0,18,0,,,both,,,,,,,,,,,,,,,,,,,,,,,,,,,,,,,,,,,,,,,,,,,,,,,,,,,,,,,,,,,,,,,,,,,,,,,,,,,,,,,,,,,,,,,,,,,,,,,,,,,,,,,,,,,,,,,,,,,1026.85770019982,None,7976.388231303859,-7.524649044882923,7.603646794977653e-05,0,"[0.7219825365680095, 0.7219825365680095, 0.7219825365680095, 0.7219825365680095]","[3165.431767319629, 3988.1941156519306, 5024.8097173767355, 6330.863534639257]",Major_3rd,"[2.4515867102086832, 2.1509078376766233, 0.0, -1.7244312477694326]",False,1027.8757312998641,1031.0778621998616,1031.0778621998616,1032.305860699853,None,0,,3.904038799693808,4.918553399620578,None,1,None,1,,,,,,,,,,,,klxufm,001,fr,0,0,2022-05-09_16h56.39.686,Cluster,2022.1.1,36.28772245089252,
,,,,5,0,5,0,19,0,19,0,,,none,,,,,,,,,,,,,,,,,,,,,,,,,,,,,,,,,,,,,,,,,,,,,,,,,,,,,,,,,,,,,,,,,,,,,,,,,,,,,,,,,,,,,,,,,,,,,,,,,,,,,,,,,,,,,,,,,,,1032.8567229998298,None,,,,,"[0.771084610627165, 0.7155999177118816, 0.5555884972905847, 0.4539305441198406]","[385.92049180329417, 2363.3157925406617, 714.2191982538035, 996.6169550587051]",None,"[5.0, -0.4494547166917453, 6.240015226198375, 6.431302590161051]",True,1033.8482446998823,1036.9306044999976,1036.9306044999976,1038.1353731998242,None,1,,3.4983940995298326,4.505267799599096,None,1,None,1,0,,,,,,,,,,,klxufm,001,fr,0,0,2022-05-09_16h56.39.686,Cluster,2022.1.1,36.28772245089252,
,,,,6,0,6,0,0,0,0,0,,,frequency,,,,,,,,,,,,,,,,,,,,,,,,,,,,,,,,,,,,,,,,,,,,,,,,,,,,,,,,,,,,,,,,,,,,,,,,,,,,,,,,,,,,,,,,,,,,,,,,,,,,,,,,,,,,,,,,,,,1041.269777599955,None,621.2598928561342,0.8960550044276885,5.823640016367333e-05,1,"[0.5121597895869826, 0.547813740709993, 0.49605926604916123, 0.4832431945117173]","[246.54715186636966, 310.62994642806717, 391.36920823243855, 493.0943037327392]",Major_3rd,"[0.8324630595920937, 2.683282694300539, 5.0, 6.908020731256669]",False,1042.2363563999534,1044.8337091999128,1044.8337091999128,1046.0587127998006,['space'],1,[0.3409197998698801],3.057901300024241,4.0715924999676645,None,1,None,1,,,,,,,,,,,,klxufm,001,fr,0,0,2022-05-09_16h56.39.686,Cluster,2022.1.1,36.28772245089252,
,,,,6,0,6,0,1,0,1,0,,,time,,,,,,,,,,,,,,,,,,,,,,,,,,,,,,,,,,,,,,,,,,,,,,,,,,,,,,,,,,,,,,,,,,,,,,,,,,,,,,,,,,,,,,,,,,,,,,,,,,,,,,,,,,,,,,,,,,,1046.3733601998538,None,250.0,-4.0,0.00010567445199183233,1,"[0.43830428348298023, 0.43830428348298023, 0.43830428348298023, 0.43830428348298023]","[2416.7365461279737, 305.197885045758, 323.0057597708372, 807.2759294379463]",None,"[-0.019749338496168, 2.683282694300539, 3.0, 5.735065782666709]",False,1047.3801092999056,1049.7215734999627,1049.7215734999627,1050.923886399949,['space'],1,[0.32999909995123744],2.7684885498601943,3.7745713498443365,None,1,None,1,,,,,,,,,,,,klxufm,001,fr,0,0,2022-05-09_16h56.39.686,Cluster,2022.1.1,36.28772245089252,
,,,,6,0,6,0,2,0,2,0,,,time,,,,,,,,,,,,,,,,,,,,,,,,,,,,,,,,,,,,,,,,,,,,,,,,,,,,,,,,,,,,,,,,,,,,,,,,,,,,,,,,,,,,,,,,,,,,,,,,,,,,,,,,,,,,,,,,,,,1051.1995937998872,None,2600.6694602295556,-5.353742389811781,4.299732998766672e-05,0,"[0.4668980371753551, 0.4668980371753551, 0.4668980371753551, 0.4668980371753551]","[210.3464929909636, 6407.521079391536, 233.4613706714067, 153.63978955447396]",None,"[1.0, -1.7244312477694326, 0.6222929191430779, 4.371753608000451]",False,1052.2061754998285,1054.6450227999594,1054.6450227999594,1055.8614498998504,None,0,,2.903146349824965,3.9144428498111665,None,1,None,1,,,,,,,,,,,,klxufm,001,fr,0,0,2022-05-09_16h56.39.686,Cluster,2022.1.1,36.28772245089252,
,,,,6,0,6,0,3,0,3,0,,,time,,,,,,,,,,,,,,,,,,,,,,,,,,,,,,,,,,,,,,,,,,,,,,,,,,,,,,,,,,,,,,,,,,,,,,,,,,,,,,,,,,,,,,,,,,,,,,,,,,,,,,,,,,,,,,,,,,,1056.1625378997996,None,,,,,"[0.7591794950089883, 0.7591794950089883, 0.7591794950089883, 0.7591794950089883]","[254.49988128502372, 934.6152739400325, 876.0625335314786, 1986.0393698604134]",None,"[1.0, 6.012492611891718, 5.761142002011438, 0.0]",True,1057.1771156999748,1060.5040060998872,1060.5040060998872,1061.7254566999618,None,1,,4.062325699720532,5.090125599876046,None,1,None,1,0,,,,,,,,,,,klxufm,001,fr,0,0,2022-05-09_16h56.39.686,Cluster,2022.1.1,36.28772245089252,
,,,,6,0,6,0,4,0,4,0,,,time,,,,,,,,,,,,,,,,,,,,,,,,,,,,,,,,,,,,,,,,,,,,,,,,,,,,,,,,,,,,,,,,,,,,,,,,,,,,,,,,,,,,,,,,,,,,,,,,,,,,,,,,,,,,,,,,,,,1062.3237972999923,None,176.7766952966369,-9.0,0.0001241921291451622,1,"[0.5343072632425365, 0.5343072632425365, 0.5343072632425365, 0.5343072632425365]","[271.21142729636097, 2619.050178019266, 291.3346664110561, 211.6050328998462]",None,"[1.2931498873070675, 0.6462576101882194, 2.0, 0.6961229588504807]",False,1063.3571361999493,1066.0013551998418,1066.0013551998418,1067.1991254999302,['space'],1,[0.2942556000780314],3.18010124983266,4.199477149639279,None,1,None,1,,,,,,,,,,,,klxufm,001,fr,0,0,2022-05-09_16h56.39.686,Cluster,2022.1.1,36.28772245089252,
,,,,6,0,6,0,5,0,5,0,,,none,,,,,,,,,,,,,,,,,,,,,,,,,,,,,,,,,,,,,,,,,,,,,,,,,,,,,,,,,,,,,,,,,,,,,,,,,,,,,,,,,,,,,,,,,,,,,,,,,,,,,,,,,,,,,,,,,,,1067.6007532000076,None,435.2752816480623,-7.0,3.3390456494473004e-05,0,"[0.479887285703702, 0.6138324438718693, 0.4174581965263058, 0.7721453678817713]","[5950.078841025751, 1398.8082182000564, 247.51099979510514, 190.4066545696841]",None,"[-1.4269691556203679, 6.162415204904671, 0.8324630595920937, 1.6760163755732504]",False,1068.6457669998053,1071.1794491999317,1071.1794491999317,1072.40010349988,None,0,,3.3059489496517926,4.3342936497647315,None,1,None,1,,,,,,,,,,,,klxufm,001,fr,0,0,2022-05-09_16h56.39.686,Cluster,2022.1.1,36.28772245089252,
,,,,6,0,6,0,6,0,6,0,,,time,,,,,,,,,,,,,,,,,,,,,,,,,,,,,,,,,,,,,,,,,,,,,,,,,,,,,,,,,,,,,,,,,,,,,,,,,,,,,,,,,,,,,,,,,,,,,,,,,,,,,,,,,,,,,,,,,,,1073.0261658998206,None,3115.142800407494,-3.984039155423059,4.1543093517266656e-05,0,"[0.5716206404834124, 0.5716206404834124, 0.5716206404834124, 0.5716206404834124]","[3288.9349458496463, 387.5422834388523, 1298.0501447112504, 2796.902125064541]",None,"[2.4515867102086832, 5.0, 7.0, 1.3796732531242775]",False,1074.0404232,1076.7757664998062,1076.7757664998062,1077.9855243999045,None,0,,3.3175782999023795,4.342685299925506,None,1,None,1,,,,,,,,,,,,klxufm,001,fr,0,0,2022-05-09_16h56.39.686,Cluster,2022.1.1,36.28772245089252,
,,,,6,0,6,0,7,0,7,0,,,both,,,,,,,,,,,,,,,,,,,,,,,,,,,,,,,,,,,,,,,,,,,,,,,,,,,,,,,,,,,,,,,,,,,,,,,,,,,,,,,,,,,,,,,,,,,,,,,,,,,,,,,,,,,,,,,,,,,1078.453775699949,None,,,,,"[0.5534310724343179, 0.5534310724343179, 0.5534310724343179, 0.5534310724343179]","[941.4317072042845, 838.7203011649683, 747.2148411861496, 665.6927441881778]",Tone,"[6.012492611891718, 5.735065782666709, 6.0, 6.595400128776029]",True,1079.4466226999648,1082.1205857999157,1082.1205857999157,1083.3434679999482,None,1,,3.2233951999805868,4.2372027998790145,None,1,None,1,0,,,,,,,,,,,klxufm,001,fr,0,0,2022-05-09_16h56.39.686,Cluster,2022.1.1,36.28772245089252,
,,,,6,0,6,0,8,0,8,0,,,both,,,,,,,,,,,,,,,,,,,,,,,,,,,,,,,,,,,,,,,,,,,,,,,,,,,,,,,,,,,,,,,,,,,,,,,,,,,,,,,,,,,,,,,,,,,,,,,,,,,,,,,,,,,,,,,,,,,1083.7352495999075,None,2000.0,-3.0,5.296268625886443e-05,0,"[0.7039485789172735, 0.7039485789172735, 0.7039485789172735, 0.7039485789172735]","[3174.8021039364003, 2828.427124746191, 2519.842099789747, 2244.9240966187463]",Tone,"[2.4515867102086832, 1.3796732531242775, 0.0, -0.4494547166917453]",False,1084.764554399997,1087.9115942998324,1087.9115942998324,1089.1122835997958,None,0,,3.8379532496910542,4.863507049623877,None,1,None,1,,,,,,,,,,,,klxufm,001,fr,0,0,2022-05-09_16h56.39.686,Cluster,2022.1.1,36.28772245089252,
,,,,6,0,6,0,9,0,9,0,,,none,,,,,,,,,,,,,,,,,,,,,,,,,,,,,,,,,,,,,,,,,,,,,,,,,,,,,,,,,,,,,,,,,,,,,,,,,,,,,,,,,,,,,,,,,,,,,,,,,,,,,,,,,,,,,,,,,,,1089.6814602999948,None,3761.0102855176033,-3.4949384520533955,5.3328119790586625e-05,0,"[0.6488398280028378, 0.6387299310421123, 0.4121607581573712, 0.6359904476016105]","[3760.980132123826, 487.91862663843193, 2822.6204971618918, 631.5935050095825]",None,"[2.5050615479466045, 6.908020731256669, 1.3796732531242775, 6.896055004427689]",False,1090.6936946997885,1093.411275099963,1093.411275099963,1094.6407826999202,None,0,,3.3562189997173846,4.399605099810287,None,1,None,1,,,,,,,,,,,,klxufm,001,fr,0,0,2022-05-09_16h56.39.686,Cluster,2022.1.1,36.28772245089252,
,,,,6,0,6,0,10,0,10,0,,,frequency,,,,,,,,,,,,,,,,,,,,,,,,,,,,,,,,,,,,,,,,,,,,,,,,,,,,,,,,,,,,,,,,,,,,,,,,,,,,,,,,,,,,,,,,,,,,,,,,,,,,,,,,,,,,,,,,,,,1095.1565233999863,None,1741.101126592249,7.0,0.00014131187239661616,1,"[0.48770376491023204, 0.7768078055937968, 0.4586544992535094, 0.5712022037916602]","[4387.299918778506, 3482.2022531844987, 2763.825759935554, 2193.649959389253]",Major_3rd,"[1.6083902085372372, 2.615232688418234, 1.0, -0.4963369915670208]",False,1096.185957599897,1098.926194399828,1098.926194399828,1100.1505089998245,['space'],1,[0.35398580017499626],3.333097549621016,4.351187449647114,None,1,None,1,,,,,,,,,,,,klxufm,001,fr,0,0,2022-05-09_16h56.39.686,Cluster,2022.1.1,36.28772245089252,
,,,,6,0,6,0,11,0,11,0,,,time,,,,,,,,,,,,,,,,,,,,,,,,,,,,,,,,,,,,,,,,,,,,,,,,,,,,,,,,,,,,,,,,,,,,,,,,,,,,,,,,,,,,,,,,,,,,,,,,,,,,,,,,,,,,,,,,,,,1100.5819186000153,None,,,,,"[0.44437728217764527, 0.44437728217764527, 0.44437728217764527, 0.44437728217764527]","[485.43279349169114, 142.95262345509462, 312.7866209339255, 4819.880066514906]",None,"[6.908020731256669, 5.271380508349844, 3.0, 0.27134708569755706]",True,1101.5932012998965,1103.9597910000011,1103.9597910000011,1105.1706483999733,None,1,,2.8278585497755557,3.858396649826318,None,1,None,1,0,,,,,,,,,,,klxufm,001,fr,0,0,2022-05-09_16h56.39.686,Cluster,2022.1.1,36.28772245089252,
,,,,6,0,6,0,12,0,12,0,,,frequency,,,,,,,,,,,,,,,,,,,,,,,,,,,,,,,,,,,,,,,,,,,,,,,,,,,,,,,,,,,,,,,,,,,,,,,,,,,,,,,,,,,,,,,,,,,,,,,,,,,,,,,,,,,,,,,,,,,1105.4834914999083,None,533.8604133290089,1.0757430094101657,7.488568393351155e-05,1,"[0.7663593321037367, 0.7214480154062217, 0.7836765168406783, 0.4847163165571367]","[2690.487889835183, 1795.6852312569197, 1198.4761061131355, 799.8868353551643]",Perfect_5th,"[1.0, 2.0, 7.305918379084402, 5.735065782666709]",False,1106.499264499871,1109.804048899794,1109.804048899794,1111.017481799936,['space'],1,[0.28099449980072677],3.766910899663344,4.769289399730042,None,1,None,1,,,,,,,,,,,,klxufm,001,fr,0,0,2022-05-09_16h56.39.686,Cluster,2022.1.1,36.28772245089252,
