practice.thisRepN,practice.thisTrialN,practice.thisN,practice.thisIndex,trials.thisRepN,trials.thisTrialN,trials.thisN,trials.thisIndex,blank_txt.started,blank_txt.stopped,practice_frequency,practice_level,psychopy_volume,tProbe.started,tProbe.stopped,tFeedback.keys,tFeedback.corr,tFeedback.rt,tFeedback.started,tFeedback.stopped,tToo_early.keys,tToo_early.corr,tToo_early.started,tToo_early.stopped,tToo_late.keys,tToo_late.corr,tToo_late.started,tToo_late.stopped,you_done_goofed.started,you_done_goofed.stopped,Init_phase,Frequency,Level,Psychopy_Volume,Catch trial,probe.started,probe.stopped,feedback.keys,feedback.corr,feedback.rt,feedback.started,feedback.stopped,too_late.keys,too_late.corr,too_late.started,too_late.stopped,too_late.rt,Audiogram,participant,session,Language (english or french),Tone duration (ms),date,expName,psychopyVersion,frameRate,
0,0,0,0,,,,,132.8913845999632,None,567,40,0.006099267302654233,1.007362466538325,None,['space'],1,[0.798998000100255],134.93519579991698,135.938585099997,None,1,133.92281499993987,134.95897309994325,None,1,135.938585099997,None,136.9853821999859,None,,,,,,,,,,,,,,,,,,,nqnuwy,001,fr,200,2022-05-10_10h12.08.504,Bayesian,2022.1.1,None,
1,0,1,0,,,,,,,234,40,0.019882976039061955,1.0052040668670088,None,['space'],1,[0.4033029000274837],139.93907970003784,140.96862070006318,None,1,138.9647232000716,139.97992020007223,None,1,140.96862070006318,None,142.0030547999777,None,,,,,,,,,,,,,,,,,,,nqnuwy,001,fr,200,2022-05-10_10h12.08.504,Bayesian,2022.1.1,None,
2,0,2,0,,,,,,,2345,40,0.008245949202640053,1.0127098667435348,None,['space'],1,[0.3730615999083966],144.48221300006844,145.48185539990664,None,1,143.50478509999812,144.52925570006482,None,1,145.48185539990664,None,146.5079767999705,None,,,,,,,,,,,,,,,,,,,nqnuwy,001,fr,200,2022-05-10_10h12.08.504,Bayesian,2022.1.1,None,
,,,,0,0,0,0,152.2474613999948,None,,,,,,,,,,,,,,,,,,,,,"{'x': [], 'y': [], 'is_init_phase': True, 'is_exam_finished': False, 'threshold_uncertainty_db': 6}",1000,60,0.0440524436504007,False,0.012207699939608574,None,['space'],1,[0.3591219999361783],153.34322619996965,154.35058069997467,None,1,154.35058069997467,None,,,nqnuwy,001,fr,200,2022-05-10_10h12.08.504,Bayesian,2022.1.1,None,
,,,,1,0,1,0,,,,,,,,,,,,,,,,,,,,,,,"{'x': [[1000, 60]], 'y': [[1]], 'audiogram': {}, 'is_init_phase': True, 'is_exam_finished': False, 'threshold_uncertainty_db': 6}",1000,40,0.004405244365040069,False,0.015933033311739564,None,['space'],1,[0.38975120009854436],156.8479279000312,157.85452659986913,None,1,157.85452659986913,156.8479279000312,,,nqnuwy,001,fr,200,2022-05-10_10h12.08.504,Bayesian,2022.1.1,None,
,,,,2,0,2,0,,,,,,,,,,,,,,,,,,,,,,,"{'x': [[1000, 60], [1000, 40]], 'y': [[1], [1]], 'audiogram': {}, 'is_init_phase': True, 'is_exam_finished': False, 'threshold_uncertainty_db': 6}",1000,20,0.0004405244365040069,False,0.016524499747902155,None,['space'],1,[0.2553440001793206],159.95840470003895,160.9645593999885,None,1,160.9645593999885,159.95840470003895,,,nqnuwy,001,fr,200,2022-05-10_10h12.08.504,Bayesian,2022.1.1,None,
,,,,3,0,3,0,,,,,,,,,,,,,,,,,,,,,,,"{'x': [[1000, 60], [1000, 40], [1000, 20]], 'y': [[1], [1], [1]], 'audiogram': {}, 'is_init_phase': True, 'is_exam_finished': False, 'threshold_uncertainty_db': 6}",,,,True,0.013792133424431086,None,None,0,,163.08983070007525,164.10060800006613,None,1,164.10060800006613,163.08983070007525,,,nqnuwy,001,fr,200,2022-05-10_10h12.08.504,Bayesian,2022.1.1,None,
,,,,4,0,4,0,,,,,,,,,,,,,,,,,,,,,,,"{'x': [[1000, 60], [1000, 40], [1000, 20]], 'y': [[1], [1], [1]], 'audiogram': {}, 'is_init_phase': True, 'is_exam_finished': False, 'threshold_uncertainty_db': 6}",1000,0,4.405244365040069e-05,False,0.00519126676954329,0.19379656692035496,['space'],1,[0.7027696999721229],166.2156223000493,167.2267277999781,None,1,167.2267277999781,166.2156223000493,,,nqnuwy,001,fr,200,2022-05-10_10h12.08.504,Bayesian,2022.1.1,None,
,,,,5,0,5,0,,,,,,,,,,,,,,,,,,,,,,,"{'x': [[1000, 60], [1000, 40], [1000, 20], [1000, 0]], 'y': [[1], [1], [1], [1]], 'audiogram': {}, 'is_init_phase': True, 'is_exam_finished': False, 'threshold_uncertainty_db': 6}",1000,-20,4.405244365040069e-06,False,0.013540966669097543,0.20970686664804816,None,0,,169.84392430004664,170.838740499923,None,1,170.838740499923,169.84392430004664,,,nqnuwy,001,fr,200,2022-05-10_10h12.08.504,Bayesian,2022.1.1,None,
,,,,6,0,6,0,,,,,,,,,,,,,,,,,,,,,,,"{'x': [[1000, 60], [1000, 40], [1000, 20], [1000, 0], [1000, -20]], 'y': [[1], [1], [1], [1], [-1]], 'audiogram': {}, 'is_init_phase': True, 'is_exam_finished': False, 'threshold_uncertainty_db': 6}",1500,-10,1.527460556607758e-05,False,0.014093199977651238,None,None,0,,173.70543140009977,174.7276480998844,None,1,174.7276480998844,173.70543140009977,,,nqnuwy,001,fr,200,2022-05-10_10h12.08.504,Bayesian,2022.1.1,None,
,,,,7,0,7,0,,,,,,,,,,,,,,,,,,,,,,,"{'x': [[1000, 60], [1000, 40], [1000, 20], [1000, 0], [1000, -20], [1500, -10]], 'y': [[1], [1], [1], [1], [-1], [-1]], 'audiogram': {}, 'is_init_phase': True, 'is_exam_finished': False, 'threshold_uncertainty_db': 6}",1500,10,0.0001527460556607757,False,0.012314900057390332,None,['space'],1,[0.4109726999886334],176.0269937000703,177.04440169990994,None,1,177.04440169990994,176.0269937000703,,,nqnuwy,001,fr,200,2022-05-10_10h12.08.504,Bayesian,2022.1.1,None,
,,,,8,0,8,0,,,,,,,,,,,,,,,,,,,,,,,"{'x': [[1000, 60], [1000, 40], [1000, 20], [1000, 0], [1000, -20], [1500, -10], [1500, 10]], 'y': [[1], [1], [1], [1], [-1], [-1], [1]], 'audiogram': {}, 'is_init_phase': True, 'is_exam_finished': False, 'threshold_uncertainty_db': 6}",,,,True,0.012619233457371593,None,None,0,,178.73956070002168,179.74564810004085,None,1,179.74564810004085,178.73956070002168,,,nqnuwy,001,fr,200,2022-05-10_10h12.08.504,Bayesian,2022.1.1,None,
,,,,9,0,9,0,,,,,,,,,,,,,,,,,,,,,,,"{'x': [[1000, 60], [1000, 40], [1000, 20], [1000, 0], [1000, -20], [1500, -10], [1500, 10]], 'y': [[1], [1], [1], [1], [-1], [-1], [1]], 'audiogram': {}, 'is_init_phase': True, 'is_exam_finished': False, 'threshold_uncertainty_db': 6}",2000,-10,2.3657562948074015e-05,False,0.005668300203979015,None,None,0,,182.1396985000465,183.15354650001973,None,1,183.15354650001973,182.1396985000465,,,nqnuwy,001,fr,200,2022-05-10_10h12.08.504,Bayesian,2022.1.1,None,
,,,,10,0,10,0,,,,,,,,,,,,,,,,,,,,,,,"{'x': [[1000, 60], [1000, 40], [1000, 20], [1000, 0], [1000, -20], [1500, -10], [1500, 10], [2000, -10]], 'y': [[1], [1], [1], [1], [-1], [-1], [1], [-1]], 'audiogram': {}, 'is_init_phase': True, 'is_exam_finished': False, 'threshold_uncertainty_db': 6}",2000,10,0.00023657562948074026,False,0.005858400138095021,None,['space'],1,[0.4257740001194179],185.14796929992735,186.15723589994013,None,1,186.15723589994013,185.14796929992735,,,nqnuwy,001,fr,200,2022-05-10_10h12.08.504,Bayesian,2022.1.1,None,
,,,,11,0,11,0,,,,,,,,,,,,,,,,,,,,,,,"{'x': [[1000, 60], [1000, 40], [1000, 20], [1000, 0], [1000, -20], [1500, -10], [1500, 10], [2000, -10], [2000, 10]], 'y': [[1], [1], [1], [1], [-1], [-1], [1], [-1], [1]], 'audiogram': {}, 'is_init_phase': True, 'is_exam_finished': False, 'threshold_uncertainty_db': 6}",3000,-10,1.7336842522626584e-05,False,0.009018000215291977,None,None,0,,188.57679369999096,189.57809529989026,None,1,189.57809529989026,188.57679369999096,,,nqnuwy,001,fr,200,2022-05-10_10h12.08.504,Bayesian,2022.1.1,None,
,,,,12,0,12,0,,,,,,,,,,,,,,,,,,,,,,,"{'x': [[1000, 60], [1000, 40], [1000, 20], [1000, 0], [1000, -20], [1500, -10], [1500, 10], [2000, -10], [2000, 10], [3000, -10]], 'y': [[1], [1], [1], [1], [-1], [-1], [1], [-1], [1], [-1]], 'audiogram': {}, 'is_init_phase': True, 'is_exam_finished': False, 'threshold_uncertainty_db': 6}",3000,10,0.00017336842522626576,False,0.00954200024716556,None,['space'],1,[0.418036499992013],191.42818569997326,192.4302894999273,None,1,192.4302894999273,191.42818569997326,,,nqnuwy,001,fr,200,2022-05-10_10h12.08.504,Bayesian,2022.1.1,None,
,,,,13,0,13,0,,,,,,,,,,,,,,,,,,,,,,,"{'x': [[1000, 60], [1000, 40], [1000, 20], [1000, 0], [1000, -20], [1500, -10], [1500, 10], [2000, -10], [2000, 10], [3000, -10], [3000, 10]], 'y': [[1], [1], [1], [1], [-1], [-1], [1], [-1], [1], [-1], [1]], 'audiogram': {}, 'is_init_phase': True, 'is_exam_finished': False, 'threshold_uncertainty_db': 6}",4000,-10,2.6544222211549425e-05,False,0.006077999947592616,None,None,0,,195.230088399956,196.22773590008728,None,1,196.22773590008728,195.230088399956,,,nqnuwy,001,fr,200,2022-05-10_10h12.08.504,Bayesian,2022.1.1,None,
,,,,14,0,14,0,,,,,,,,,,,,,,,,,,,,,,,"{'x': [[1000, 60], [1000, 40], [1000, 20], [1000, 0], [1000, -20], [1500, -10], [1500, 10], [2000, -10], [2000, 10], [3000, -10], [3000, 10], [4000, -10]], 'y': [[1], [1], [1], [1], [-1], [-1], [1], [-1], [1], [-1], [1], [-1]], 'audiogram': {}, 'is_init_phase': True, 'is_exam_finished': False, 'threshold_uncertainty_db': 6}",4000,10,0.00026544222211549425,False,0.00291600008495152,0.19035550020635128,['space'],1,[0.33297549979761243],199.1301845998969,200.13761950004846,None,1,200.13761950004846,199.1301845998969,,,nqnuwy,001,fr,200,2022-05-10_10h12.08.504,Bayesian,2022.1.1,None,
,,,,15,0,15,0,,,,,,,,,,,,,,,,,,,,,,,"{'x': [[1000, 60], [1000, 40], [1000, 20], [1000, 0], [1000, -20], [1500, -10], [1500, 10], [2000, -10], [2000, 10], [3000, -10], [3000, 10], [4000, -10], [4000, 10]], 'y': [[1], [1], [1], [1], [-1], [-1], [1], [-1], [1], [-1], [1], [-1], [1]], 'audiogram': {}, 'is_init_phase': True, 'is_exam_finished': False, 'threshold_uncertainty_db': 6}",,,,True,0.014504933496937156,None,None,0,,201.764038000023,202.77555550006218,None,1,202.77555550006218,201.764038000023,,,nqnuwy,001,fr,200,2022-05-10_10h12.08.504,Bayesian,2022.1.1,None,
,,,,16,0,16,0,,,,,,,,,,,,,,,,,,,,,,,"{'x': [[1000, 60], [1000, 40], [1000, 20], [1000, 0], [1000, -20], [1500, -10], [1500, 10], [2000, -10], [2000, 10], [3000, -10], [3000, 10], [4000, -10], [4000, 10]], 'y': [[1], [1], [1], [1], [-1], [-1], [1], [-1], [1], [-1], [1], [-1], [1]], 'audiogram': {}, 'is_init_phase': True, 'is_exam_finished': False, 'threshold_uncertainty_db': 6}",6000,-10,3.664122665694518e-05,False,0.009971700143069029,None,None,0,,204.33217309997417,205.34051480004564,None,1,205.34051480004564,204.33217309997417,,,nqnuwy,001,fr,200,2022-05-10_10h12.08.504,Bayesian,2022.1.1,None,
,,,,17,0,17,0,,,,,,,,,,,,,,,,,,,,,,,"{'x': [[1000, 60], [1000, 40], [1000, 20], [1000, 0], [1000, -20], [1500, -10], [1500, 10], [2000, -10], [2000, 10], [3000, -10], [3000, 10], [4000, -10], [4000, 10], [6000, -10]], 'y': [[1], [1], [1], [1], [-1], [-1], [1], [-1], [1], [-1], [1], [-1], [1], [-1]], 'audiogram': {}, 'is_init_phase': True, 'is_exam_finished': False, 'threshold_uncertainty_db': 6}",6000,10,0.00036641226656945183,False,0.004375900141894817,None,['space'],1,[0.3952043999452144],208.07432799995877,209.08040450001135,None,1,209.08040450001135,208.07432799995877,,,nqnuwy,001,fr,200,2022-05-10_10h12.08.504,Bayesian,2022.1.1,None,
,,,,18,0,18,0,,,,,,,,,,,,,,,,,,,,,,,"{'x': [[1000, 60], [1000, 40], [1000, 20], [1000, 0], [1000, -20], [1500, -10], [1500, 10], [2000, -10], [2000, 10], [3000, -10], [3000, 10], [4000, -10], [4000, 10], [6000, -10], [6000, 10]], 'y': [[1], [1], [1], [1], [-1], [-1], [1], [-1], [1], [-1], [1], [-1], [1], [-1], [1]], 'audiogram': {}, 'is_init_phase': True, 'is_exam_finished': False, 'threshold_uncertainty_db': 6}",8000,-10,5.740768107484415e-05,False,0.005685766926035285,0.19627036689780653,None,0,,211.83042329992168,212.8404653999023,None,1,212.8404653999023,211.83042329992168,,,nqnuwy,001,fr,200,2022-05-10_10h12.08.504,Bayesian,2022.1.1,None,
,,,,19,0,19,0,,,,,,,,,,,,,,,,,,,,,,,"{'x': [[1000, 60], [1000, 40], [1000, 20], [1000, 0], [1000, -20], [1500, -10], [1500, 10], [2000, -10], [2000, 10], [3000, -10], [3000, 10], [4000, -10], [4000, 10], [6000, -10], [6000, 10], [8000, -10]], 'y': [[1], [1], [1], [1], [-1], [-1], [1], [-1], [1], [-1], [1], [-1], [1], [-1], [1], [-1]], 'audiogram': {}, 'is_init_phase': True, 'is_exam_finished': False, 'threshold_uncertainty_db': 6}",,,,True,0.00033446657471358776,0.1838520667515695,None,0,,214.94030919997022,215.9562252999749,None,1,215.9562252999749,214.94030919997022,,,nqnuwy,001,fr,200,2022-05-10_10h12.08.504,Bayesian,2022.1.1,None,
,,,,20,0,20,0,,,,,,,,,,,,,,,,,,,,,,,"{'x': [[1000, 60], [1000, 40], [1000, 20], [1000, 0], [1000, -20], [1500, -10], [1500, 10], [2000, -10], [2000, 10], [3000, -10], [3000, 10], [4000, -10], [4000, 10], [6000, -10], [6000, 10], [8000, -10]], 'y': [[1], [1], [1], [1], [-1], [-1], [1], [-1], [1], [-1], [1], [-1], [1], [-1], [1], [-1]], 'audiogram': {}, 'is_init_phase': True, 'is_exam_finished': False, 'threshold_uncertainty_db': 6}",8000,0,0.0001815390273850507,False,0.012625900097191334,0.2089016002137214,['space'],1,[0.4471822001505643],217.31889580003917,218.32551319990307,None,1,218.32551319990307,217.31889580003917,,,nqnuwy,001,fr,200,2022-05-10_10h12.08.504,Bayesian,2022.1.1,None,
,,,,21,0,21,0,,,,,,,,,,,,,,,,,,,,,,,"{'x': [[1000, 60], [1000, 40], [1000, 20], [1000, 0], [1000, -20], [1500, -10], [1500, 10], [2000, -10], [2000, 10], [3000, -10], [3000, 10], [4000, -10], [4000, 10], [6000, -10], [6000, 10], [8000, -10], [8000, 0]], 'y': [[1], [1], [1], [1], [-1], [-1], [1], [-1], [1], [-1], [1], [-1], [1], [-1], [1], [-1], [1]], 'audiogram': {}, 'is_init_phase': True, 'is_exam_finished': False, 'threshold_uncertainty_db': 6}",750,-10,1.2851978913844322e-05,False,0.004029400181025267,None,None,0,,220.6518466998823,221.65456350008026,None,1,221.65456350008026,220.6518466998823,,,nqnuwy,001,fr,200,2022-05-10_10h12.08.504,Bayesian,2022.1.1,None,
,,,,22,0,22,0,,,,,,,,,,,,,,,,,,,,,,,"{'x': [[1000, 60], [1000, 40], [1000, 20], [1000, 0], [1000, -20], [1500, -10], [1500, 10], [2000, -10], [2000, 10], [3000, -10], [3000, 10], [4000, -10], [4000, 10], [6000, -10], [6000, 10], [8000, -10], [8000, 0], [750, -10]], 'y': [[1], [1], [1], [1], [-1], [-1], [1], [-1], [1], [-1], [1], [-1], [1], [-1], [1], [-1], [1], [-1]], 'audiogram': {}, 'is_init_phase': True, 'is_exam_finished': False, 'threshold_uncertainty_db': 6}",750,10,0.00012851978913844324,False,0.013090600026771426,None,['space'],1,[0.4245126999448985],223.15033309999853,224.15950329997577,None,1,224.15950329997577,223.15033309999853,,,nqnuwy,001,fr,200,2022-05-10_10h12.08.504,Bayesian,2022.1.1,None,
,,,,23,0,23,0,,,,,,,,,,,,,,,,,,,,,,,"{'x': [[1000, 60], [1000, 40], [1000, 20], [1000, 0], [1000, -20], [1500, -10], [1500, 10], [2000, -10], [2000, 10], [3000, -10], [3000, 10], [4000, -10], [4000, 10], [6000, -10], [6000, 10], [8000, -10], [8000, 0], [750, -10], [750, 10]], 'y': [[1], [1], [1], [1], [-1], [-1], [1], [-1], [1], [-1], [1], [-1], [1], [-1], [1], [-1], [1], [-1], [1]], 'audiogram': {}, 'is_init_phase': True, 'is_exam_finished': False, 'threshold_uncertainty_db': 6}",,,,True,0.013055933406576514,None,None,0,,226.2900731000118,227.29597339988686,None,1,227.29597339988686,226.2900731000118,,,nqnuwy,001,fr,200,2022-05-10_10h12.08.504,Bayesian,2022.1.1,None,
,,,,24,0,24,0,,,,,,,,,,,,,,,,,,,,,,,"{'x': [[1000, 60], [1000, 40], [1000, 20], [1000, 0], [1000, -20], [1500, -10], [1500, 10], [2000, -10], [2000, 10], [3000, -10], [3000, 10], [4000, -10], [4000, 10], [6000, -10], [6000, 10], [8000, -10], [8000, 0], [750, -10], [750, 10]], 'y': [[1], [1], [1], [1], [-1], [-1], [1], [-1], [1], [-1], [1], [-1], [1], [-1], [1], [-1], [1], [-1], [1]], 'audiogram': {}, 'is_init_phase': True, 'is_exam_finished': False, 'threshold_uncertainty_db': 6}",500,-10,2.259279721874613e-05,False,0.007197600090876222,None,None,0,,228.88710689987056,229.888537599938,None,1,229.888537599938,228.88710689987056,,,nqnuwy,001,fr,200,2022-05-10_10h12.08.504,Bayesian,2022.1.1,None,
,,,,25,0,25,0,,,,,,,,,,,,,,,,,,,,,,,"{'x': [[1000, 60], [1000, 40], [1000, 20], [1000, 0], [1000, -20], [1500, -10], [1500, 10], [2000, -10], [2000, 10], [3000, -10], [3000, 10], [4000, -10], [4000, 10], [6000, -10], [6000, 10], [8000, -10], [8000, 0], [750, -10], [750, 10], [500, -10]], 'y': [[1], [1], [1], [1], [-1], [-1], [1], [-1], [1], [-1], [1], [-1], [1], [-1], [1], [-1], [1], [-1], [1], [-1]], 'audiogram': {}, 'is_init_phase': True, 'is_exam_finished': False, 'threshold_uncertainty_db': 6}",500,10,0.0002259279721874612,False,0.01293770014308393,None,['space'],1,[0.40741689992137253],232.7338407000061,233.74086889997125,None,1,233.74086889997125,232.7338407000061,,,nqnuwy,001,fr,200,2022-05-10_10h12.08.504,Bayesian,2022.1.1,None,
,,,,26,0,26,0,,,,,,,,,,,,,,,,,,,,,,,"{'x': [[1000, 60], [1000, 40], [1000, 20], [1000, 0], [1000, -20], [1500, -10], [1500, 10], [2000, -10], [2000, 10], [3000, -10], [3000, 10], [4000, -10], [4000, 10], [6000, -10], [6000, 10], [8000, -10], [8000, 0], [750, -10], [750, 10], [500, -10], [500, 10]], 'y': [[1], [1], [1], [1], [-1], [-1], [1], [-1], [1], [-1], [1], [-1], [1], [-1], [1], [-1], [1], [-1], [1], [-1], [1]], 'audiogram': {}, 'is_init_phase': True, 'is_exam_finished': False, 'threshold_uncertainty_db': 6}",250,-10,5.296268625886443e-05,False,0.006266399985179305,0.1957950999494642,None,0,,235.04735599993728,236.0427222000435,None,1,236.0427222000435,235.04735599993728,,,nqnuwy,001,fr,200,2022-05-10_10h12.08.504,Bayesian,2022.1.1,None,
,,,,27,0,27,0,,,,,,,,,,,,,,,,,,,,,,,"{'x': [[1000, 60], [1000, 40], [1000, 20], [1000, 0], [1000, -20], [1500, -10], [1500, 10], [2000, -10], [2000, 10], [3000, -10], [3000, 10], [4000, -10], [4000, 10], [6000, -10], [6000, 10], [8000, -10], [8000, 0], [750, -10], [750, 10], [500, -10], [500, 10], [250, -10]], 'y': [[1], [1], [1], [1], [-1], [-1], [1], [-1], [1], [-1], [1], [-1], [1], [-1], [1], [-1], [1], [-1], [1], [-1], [1], [-1]], 'audiogram': {}, 'is_init_phase': True, 'is_exam_finished': False, 'threshold_uncertainty_db': 6}",250,10,0.0005296268625886444,False,0.0098901002202183,None,['space'],1,[0.6143906000070274],237.87132239993662,238.89935870002955,None,1,238.89935870002955,237.87132239993662,,,nqnuwy,001,fr,200,2022-05-10_10h12.08.504,Bayesian,2022.1.1,None,
,,,,28,0,28,0,,,,,,,,,,,,,,,,,,,,,,,"{'x': [[1000, 60], [1000, 40], [1000, 20], [1000, 0], [1000, -20], [1500, -10], [1500, 10], [2000, -10], [2000, 10], [3000, -10], [3000, 10], [4000, -10], [4000, 10], [6000, -10], [6000, 10], [8000, -10], [8000, 0], [750, -10], [750, 10], [500, -10], [500, 10], [250, -10], [250, 10]], 'y': [[1], [1], [1], [1], [-1], [-1], [1], [-1], [1], [-1], [1], [-1], [1], [-1], [1], [-1], [1], [-1], [1], [-1], [1], [-1], [1]], 'audiogram': {}, 'is_init_phase': True, 'is_exam_finished': False, 'threshold_uncertainty_db': 6}",125,-10,0.0002285440948074376,False,0.005659500369802117,0.19383510039187968,None,0,,240.23348909989,241.2373293999117,None,1,241.2373293999117,240.23348909989,,,nqnuwy,001,fr,200,2022-05-10_10h12.08.504,Bayesian,2022.1.1,None,
,,,,29,0,29,0,,,,,,,,,,,,,,,,,,,,,,,"{'x': [[1000, 60], [1000, 40], [1000, 20], [1000, 0], [1000, -20], [1500, -10], [1500, 10], [2000, -10], [2000, 10], [3000, -10], [3000, 10], [4000, -10], [4000, 10], [6000, -10], [6000, 10], [8000, -10], [8000, 0], [750, -10], [750, 10], [500, -10], [500, 10], [250, -10], [250, 10], [125, -10]], 'y': [[1], [1], [1], [1], [-1], [-1], [1], [-1], [1], [-1], [1], [-1], [1], [-1], [1], [-1], [1], [-1], [1], [-1], [1], [-1], [1], [-1]], 'audiogram': {}, 'is_init_phase': True, 'is_exam_finished': False, 'threshold_uncertainty_db': 6}",,,,True,0.01107003353536129,None,None,0,,244.01133550005034,245.01979829999618,None,1,245.01979829999618,244.01133550005034,,,nqnuwy,001,fr,200,2022-05-10_10h12.08.504,Bayesian,2022.1.1,None,
,,,,30,0,30,0,,,,,,,,,,,,,,,,,,,,,,,"{'x': [[1000, 60], [1000, 40], [1000, 20], [1000, 0], [1000, -20], [1500, -10], [1500, 10], [2000, -10], [2000, 10], [3000, -10], [3000, 10], [4000, -10], [4000, 10], [6000, -10], [6000, 10], [8000, -10], [8000, 0], [750, -10], [750, 10], [500, -10], [500, 10], [250, -10], [250, 10], [125, -10]], 'y': [[1], [1], [1], [1], [-1], [-1], [1], [-1], [1], [-1], [1], [-1], [1], [-1], [1], [-1], [1], [-1], [1], [-1], [1], [-1], [1], [-1]], 'audiogram': {}, 'is_init_phase': True, 'is_exam_finished': False, 'threshold_uncertainty_db': 6}",125,0,0.000722719885372964,False,0.006463600089773536,None,None,0,,246.97822079993784,247.9826525999233,None,1,247.9826525999233,246.97822079993784,,,nqnuwy,001,fr,200,2022-05-10_10h12.08.504,Bayesian,2022.1.1,None,
,,,,31,0,31,0,,,,,,,,,,,,,,,,,,,,,,,"{'x': [[1000, 60], [1000, 40], [1000, 20], [1000, 0], [1000, -20], [1500, -10], [1500, 10], [2000, -10], [2000, 10], [3000, -10], [3000, 10], [4000, -10], [4000, 10], [6000, -10], [6000, 10], [8000, -10], [8000, 0], [750, -10], [750, 10], [500, -10], [500, 10], [250, -10], [250, 10], [125, -10], [125, 0]], 'y': [[1], [1], [1], [1], [-1], [-1], [1], [-1], [1], [-1], [1], [-1], [1], [-1], [1], [-1], [1], [-1], [1], [-1], [1], [-1], [1], [-1], [-1]], 'audiogram': {}, 'is_init_phase': True, 'is_exam_finished': False, 'threshold_uncertainty_db': 6}",125,10,0.002285440948074376,False,0.003924899967387319,None,['space'],1,[0.39809080003760755],250.9843991000671,251.9924830000382,None,1,251.9924830000382,250.9843991000671,,,nqnuwy,001,fr,200,2022-05-10_10h12.08.504,Bayesian,2022.1.1,None,
,,,,32,0,32,0,,,,,,,,,,,,,,,,,,,,,,,"{'x': [[1000, 60], [1000, 40], [1000, 20], [1000, 0], [1000, -20], [1500, -10], [1500, 10], [2000, -10], [2000, 10], [3000, -10], [3000, 10], [4000, -10], [4000, 10], [6000, -10], [6000, 10], [8000, -10], [8000, 0], [750, -10], [750, 10], [500, -10], [500, 10], [250, -10], [250, 10], [125, -10], [125, 0], [125, 10]], 'y': [[1], [1], [1], [1], [-1], [-1], [1], [-1], [1], [-1], [1], [-1], [1], [-1], [1], [-1], [1], [-1], [1], [-1], [1], [-1], [1], [-1], [-1], [1]], 'audiogram': {}, 'is_init_phase': True, 'is_exam_finished': False, 'threshold_uncertainty_db': 6}",353.5533905932738,-1.0,7.897582242723967e-05,False,0.003788033267483115,None,None,0,,255.88844099990092,256.892130299937,None,1,256.892130299937,255.88844099990092,,,nqnuwy,001,fr,200,2022-05-10_10h12.08.504,Bayesian,2022.1.1,None,
,,,,33,0,33,0,,,,,,,,,,,,,,,,,,,,,,,,203.0630990890589,2.0,0.00032661690408859664,False,0.008341699838638306,0.20326999993994832,['space'],1,[0.5330644999630749],259.8087140000425,260.82782140001655,None,1,260.82782140001655,259.8087140000425,,,nqnuwy,001,fr,200,2022-05-10_10h12.08.504,Bayesian,2022.1.1,None,
,,,,34,0,34,0,,,,,,,,,,,,,,,,,,,,,,,,,,,True,0.005676833679899573,None,None,0,,262.0026237999555,263.012057099957,None,1,263.012057099957,262.0026237999555,,,nqnuwy,001,fr,200,2022-05-10_10h12.08.504,Bayesian,2022.1.1,None,
,,,,35,0,35,0,,,,,,,,,,,,,,,,,,,,,,,,2462.2888266898335,0.0,8.505946547995337e-05,False,0.016600566683337092,None,None,0,,266.2200050998945,267.2313665000256,None,1,267.2313665000256,266.2200050998945,,,nqnuwy,001,fr,200,2022-05-10_10h12.08.504,Bayesian,2022.1.1,None,
,,,,36,0,36,0,,,,,,,,,,,,,,,,,,,,,,,,4594.793419988137,0.0,0.00012486547057085194,False,0.0074303001165390015,None,['space'],1,[0.424608499975875],270.73333549988456,271.7545594999101,None,1,271.7545594999101,270.73333549988456,,,nqnuwy,001,fr,200,2022-05-10_10h12.08.504,Bayesian,2022.1.1,None,
,,,,37,0,37,0,,,,,,,,,,,,,,,,,,,,,,,,574.3491774985172,0.0,5.984619860562044e-05,False,0.01249033329077065,None,['space'],1,[0.6382526999805123],275.3680277999956,276.3930102000013,None,1,276.3930102000013,275.3680277999956,,,nqnuwy,001,fr,200,2022-05-10_10h12.08.504,Bayesian,2022.1.1,None,
,,,,38,0,38,0,,,,,,,,,,,,,,,,,,,,,,,,,,,True,0.0101239331997931,None,None,0,,278.79427849990316,279.8087156000547,None,1,279.8087156000547,278.79427849990316,,,nqnuwy,001,fr,200,2022-05-10_10h12.08.504,Bayesian,2022.1.1,None,
,,,,39,0,39,0,,,,,,,,,,,,,,,,,,,,,,,,1515.7165665103996,-1.0,4.4233032710320856e-05,False,0.006896766368299723,None,None,0,,282.68394339992665,283.69079530006275,None,1,283.69079530006275,282.68394339992665,,,nqnuwy,001,fr,200,2022-05-10_10h12.08.504,Bayesian,2022.1.1,None,
,,,,40,0,40,0,,,,,,,,,,,,,,,,,,,,,,,,3249.0095854249403,0.0,7.075723770535575e-05,False,0.006011300021782517,0.19857360003516078,['space'],1,[0.4153160999994725],286.40594150009565,287.4377150000073,None,1,287.4377150000073,286.40594150009565,,,nqnuwy,001,fr,200,2022-05-10_10h12.08.504,Bayesian,2022.1.1,None,
,,,,41,0,41,0,,,,,,,,,,,,,,,,,,,,,,,,267.9433656340732,0.0,0.00014847335715060603,False,0.001244999933987856,None,['space'],1,[0.7492501998785883],291.481208599871,292.49949870002456,None,1,292.49949870002456,291.481208599871,,,nqnuwy,001,fr,200,2022-05-10_10h12.08.504,Bayesian,2022.1.1,None,
,,,,42,0,42,0,,,,,,,,,,,,,,,,,,,,,,,,,,,True,0.01021733321249485,None,None,0,,295.4777110000141,296.49373349989764,None,1,296.49373349989764,295.4777110000141,,,nqnuwy,001,fr,200,2022-05-10_10h12.08.504,Bayesian,2022.1.1,None,
,,,,43,0,43,0,,,,,,,,,,,,,,,,,,,,,,,,176.7766952966369,-1.0,0.0003119565241000184,False,0.00038149976171553135,None,['space'],1,[0.5013882999774069],299.280831299955,300.2980313000735,None,1,300.2980313000735,299.280831299955,,,nqnuwy,001,fr,200,2022-05-10_10h12.08.504,Bayesian,2022.1.1,None,
,,,,44,0,44,0,,,,,,,,,,,,,,,,,,,,,,,,5656.85424949238,-4.0,8.109296367558474e-05,False,0.013974400237202644,0.21271180012263358,None,0,,303.71000669989735,304.73474740004167,None,1,304.73474740004167,303.71000669989735,,,nqnuwy,001,fr,200,2022-05-10_10h12.08.504,Bayesian,2022.1.1,None,
,,,,45,0,45,0,,,,,,,,,,,,,,,,,,,,,,,,812.2523963562351,-4.0,2.4428340265159555e-05,False,0.014774500159546733,None,None,0,,307.4322482000571,308.4410242999438,['space'],0,308.4410242999438,307.4322482000571,[-0.018918300047516823],,nqnuwy,001,fr,200,2022-05-10_10h12.08.504,Bayesian,2022.1.1,None,
,,,,46,0,46,0,,,,,,,,,,,,,,,,,,,,,,,,,,,True,0.01321373344399035,None,None,0,,310.1068428000435,311.1139392000623,None,1,311.1139392000623,310.1068428000435,,,nqnuwy,001,fr,200,2022-05-10_10h12.08.504,Bayesian,2022.1.1,None,
,,,,47,0,47,0,,,,,,,,,,,,,,,,,,,,,,,,1741.101126592249,3.0,8.916176375089286e-05,False,0.015497033018618822,None,['space'],1,[0.6132929001469165],313.5528923999518,314.5633187999483,None,1,314.5633187999483,313.5528923999518,,,nqnuwy,001,fr,200,2022-05-10_10h12.08.504,Bayesian,2022.1.1,None,
,,,,48,0,48,0,,,,,,,,,,,,,,,,,,,,,,,,8000.0,-3.0,0.00012851978913844324,False,0.0039705999661237,None,['space'],1,[0.8275731999892741],317.01822119997814,318.03614049986936,None,1,318.03614049986936,317.01822119997814,,,nqnuwy,001,fr,200,2022-05-10_10h12.08.504,Bayesian,2022.1.1,None,
,,,,49,0,49,0,,,,,,,,,,,,,,,,,,,,,,,,435.2752816480623,0.0,7.47519207806232e-05,False,0.015556699829176068,None,['space'],1,[0.6158594000153244],321.1495429999195,322.1673153999727,None,1,322.1673153999727,321.1495429999195,,,nqnuwy,001,fr,200,2022-05-10_10h12.08.504,Bayesian,2022.1.1,None,
,,,,50,0,50,0,,,,,,,,,,,,,,,,,,,,,,,,203.0630990890589,-4.0,0.00016369622261606785,False,0.0054298334289342165,None,None,0,,325.42777150007896,326.4425790000241,None,1,326.4425790000241,325.42777150007896,,,nqnuwy,001,fr,200,2022-05-10_10h12.08.504,Bayesian,2022.1.1,None,
,,,,51,0,51,0,,,,,,,,,,,,,,,,,,,,,,,,,,,True,0.01592643349431455,None,None,0,,329.13137309998274,330.13292420003563,None,1,330.13292420003563,329.13137309998274,,,nqnuwy,001,fr,200,2022-05-10_10h12.08.504,Bayesian,2022.1.1,None,
,,,,52,0,52,0,,,,,,,,,,,,,,,,,,,,,,,,125.0,2.0,0.000909850429304992,False,0.006709466688334942,None,['space'],1,[0.5162522001191974],333.5704550000373,334.5624834999908,None,1,334.5624834999908,333.5704550000373,,,nqnuwy,001,fr,200,2022-05-10_10h12.08.504,Bayesian,2022.1.1,None,
,,,,53,0,53,0,,,,,,,,,,,,,,,,,,,,,,,,615.5722066724584,-3.0,3.781520069199877e-05,False,0.012787699932232499,None,None,0,,338.4868938000873,339.5049222998787,None,1,339.5049222998787,338.4868938000873,,,nqnuwy,001,fr,200,2022-05-10_10h12.08.504,Bayesian,2022.1.1,None,
,,,,54,0,54,0,,,,,,,,,,,,,,,,,,,,,,,,4000.0,-3.0,5.942511137185092e-05,False,0.004422466736286879,0.19560866663232446,['space'],1,[0.5006703999824822],343.84138770005666,344.8559715000447,None,1,344.8559715000447,343.84138770005666,,,nqnuwy,001,fr,200,2022-05-10_10h12.08.504,Bayesian,2022.1.1,None,
,,,,55,0,55,0,,,,,,,,,,,,,,,,,,,,,,,,,,,True,0.015332333510741591,None,None,0,,346.56884690001607,347.5767449999694,None,1,347.5767449999694,346.56884690001607,,,nqnuwy,001,fr,200,2022-05-10_10h12.08.504,Bayesian,2022.1.1,None,
,,,,56,0,56,0,,,,,,,,,,,,,,,,,,,,,,,,1231.1444133449168,-1.0,4.787849028197256e-05,False,0.011140866670757532,None,None,0,,350.1796202000696,351.20524819986895,None,1,351.20524819986895,350.1796202000696,,,nqnuwy,001,fr,200,2022-05-10_10h12.08.504,Bayesian,2022.1.1,None,
,,,,57,0,57,0,,,,,,,,,,,,,,,,,,,,,,,,2639.015821545789,0.0,7.725655650415703e-05,False,0.012814999790862203,None,None,0,,354.0591766999569,355.0526515999809,None,1,355.0526515999809,354.0591766999569,,,nqnuwy,001,fr,200,2022-05-10_10h12.08.504,Bayesian,2022.1.1,None,
,,,,58,0,58,0,,,,,,,,,,,,,,,,,,,,,,,,8000.0,-4.0,0.00011454338263838867,False,0.014633633429184556,None,None,0,,358.08415709994733,359.095770600019,None,1,359.095770600019,358.08415709994733,,,nqnuwy,001,fr,200,2022-05-10_10h12.08.504,Bayesian,2022.1.1,None,
,,,,59,0,59,0,,,,,,,,,,,,,,,,,,,,,,,,5278.031643091578,-3.0,0.00010087751046562562,False,0.0016569001600146294,0.18614360014908016,None,0,,363.740635599941,364.7528377000708,None,1,364.7528377000708,363.740635599941,,,nqnuwy,001,fr,200,2022-05-10_10h12.08.504,Bayesian,2022.1.1,None,
,,,,60,0,60,0,,,,,,,,,,,,,,,,,,,,,,,,812.2523963562351,-1.0,3.4505947777357636e-05,False,0.0035452665761113167,0.1968810665421188,['space'],1,[0.715967700118199],367.77013530000113,368.7908960999921,None,1,368.7908960999921,367.77013530000113,,,nqnuwy,001,fr,200,2022-05-10_10h12.08.504,Bayesian,2022.1.1,None,
,,,,61,0,61,0,,,,,,,,,,,,,,,,,,,,,,,,287.17458874925893,-1.0,0.0001141689127028708,False,0.004090533126145601,None,None,0,,372.14499889989384,373.1736669000238,None,1,373.1736669000238,372.14499889989384,,,nqnuwy,001,fr,200,2022-05-10_10h12.08.504,Bayesian,2022.1.1,None,
,,,,62,0,62,0,,,,,,,,,,,,,,,,,,,,,,,,1866.0659830736151,2.0,8.656905679825736e-05,False,0.006136266514658928,None,['space'],1,[0.49240210000425577],375.9131163000129,376.90962049993686,None,1,376.90962049993686,375.9131163000129,,,nqnuwy,001,fr,200,2022-05-10_10h12.08.504,Bayesian,2022.1.1,None,
,,,,63,0,63,0,,,,,,,,,,,,,,,,,,,,,,,,1866.0659830736151,2.0,8.656905679825736e-05,False,None,None,None,0,,None,None,None,1,None,None,,"{'estimation': [[125.0, 0.3931973329698537], [131.9941671465335, 0.0], [133.9716828170366, -0.10897450111737116], [143.5872943746293, -0.6706891886737969], [149.4544314443948, -1.0], [153.8930516681145, -1.2488766782312302], [164.93848884661162, -1.7327092609849706], [173.87346038794675, -2.0], [176.77669529663666, -2.086137017595813], [189.46457081379947, -2.2422097513719743], [203.0630990890584, -2.181639440034191], [212.83378935062868, -2.0], [217.6376408240306, -1.9148947264651799], [233.25824788420132, -1.5115496681731238], [249.99999999999937, -1.028453041474406], [250.97138286500342, -1.0], [267.94336563407256, -0.5461602485726618], [287.1745887492579, -0.1642384174769568], [300.7950617389338, 0.0], [307.78610333622805, 0.08426772941936211], [329.87697769322244, 0.14255033712347442], [353.55339059327247, 0.01414955254307404], [354.8107188824009, 0.0], [378.929141627598, -0.2580925120364845], [406.12619817811606, -0.6035563141808863], [435.2752816480601, -0.9787356260002518], [437.0862129847311, -1.0], [466.5164957684015, -1.3282557577622307], [499.9999999999975, -1.600715169637848], [535.8867312681438, -1.804767656068266], [574.3491774985143, -1.9556678924779036], [589.8136629731215, -2.0], [615.5722066724546, -2.070931961390106], [659.7539553864432, -2.1581762920072656], [707.1067811865431, -2.217290746591319], [757.8582832551941, -2.2313525336266786], [812.2523963562301, -2.171404234419763], [870.5505632961192, -2.004447597688503], [871.4808714358178, -2.0], [933.0329915368008, -1.724433886279531], [999.9999999999926, -1.3518758379179294], [1054.238637827359, -1.0], [1071.773462536285, -0.8860299198322282], [1148.698354997026, -0.40357090959295533], [1217.9252688665033, 0.0], [1231.1444133449063, 0.07745764118313903], [1319.5079107728816, 0.5079087569581331], [1414.2135623730828, 0.8815094717807009], [1448.5654038642795, 1.0], [1515.7165665103846, 1.2247317532293476], [1624.5047927124563, 1.5249893866534776], [1741.1011265922318, 1.8057970754078776], [1835.0694937932267, 2.0], [1866.065983073597, 2.064588523086202], [1999.9999999999802, 2.2462420058258665], [2143.5469250725646, 2.285997035684539], [2297.396709994046, 2.1156591485163303], [2338.3359309197976, 2.0], [2462.2888266898062, 1.6843626697860863], [2637.8471595667907, 1.0], [2639.01582154576, 0.9955747486750296], [2828.427124746159, 0.09680512153921006], [2847.2696688638894, 0.0], [3031.4331330207615, -0.9191513949080247], [3048.8215723713615, -1.0], [3249.0095854249043, -1.9070993552315758], [3274.5816823043924, -2.0], [3482.2022531844555, -2.7259091902781556], [3607.5278819979676, -3.0], [3732.1319661471844, -3.268773968778947], [3999.9999999999554, -3.4600345030139357], [4287.093850145118, -3.332184881168789], [4556.223560486415, -3.0], [4594.7934199880865, -2.9539969630354452], [4924.577653379601, -2.4771047314156234], [5278.031643091506, -2.03077316674293], [5315.412233962283, -2.0], [5656.854249492303, -1.7225525929351073], [6062.866266041508, -1.6447755366815153], [6498.019170849792, -1.797935006559971], [6757.744742922614, -2.0], [6964.4045063688845, -2.146904814682626], [7464.2639322943505, -2.5776310167066563], [7972.258484902882, -3.0], [7999.999999999892, -3.0232063344373064]], 'plus_line': [[125.0, -1.4115484449194136], [133.9716828170366, -1.86492267927579], [136.13597145490968, -2.0], [143.5872943746293, -2.5034040684706684], [152.42288169563267, -3.0], [153.89305166811442, -3.094155666962145], [164.93848884661162, -3.61912960311302], [176.77669529663666, -3.9259943244854982], [184.76092680243568, -4.0], [189.46457081379947, -4.053282866566716], [196.02784610578826, -4.0], [203.0630990890585, -3.958069840362456], [217.6376408240306, -3.690888092362024], [233.25824788420132, -3.243742387708853], [239.87718804600397, -3.0], [249.99999999999937, -2.6998874141235847], [267.94336563407256, -2.1755812879844383], [274.89623770144857, -2.0], [287.1745887492579, -1.755333541112108], [307.78610333622805, -1.5410797942543621], [329.87697769322244, -1.5198585136292104], [353.55339059327247, -1.6805665884656957], [378.929141627598, -1.972512557488679], [380.85444103918866, -2.0], [406.12619817811606, -2.4066843660914614], [435.2752816480601, -2.7951024064390375], [454.23748475766115, -3.0], [466.5164957684015, -3.1566207271981535], [499.9999999999981, -3.4428916590759133], [535.8867312681438, -3.618091221625599], [574.3491774985143, -3.7244259468656726], [615.5722066724546, -3.7965550970599002], [659.7539553864432, -3.8535310845798305], [707.1067811865431, -3.893549446723026], [757.8582832551941, -3.8979795230685053], [812.2523963562301, -3.841547604763777], [870.5505632961181, -3.701304996841728], [933.0329915368008, -3.4550950915189116], [999.9999999999926, -3.066308773162131], [1009.3827150547387, -3.0], [1071.773462536285, -2.6478081514426535], [1148.698354997026, -2.167249443372525], [1174.4570898943339, -2.0], [1231.1444133449063, -1.698083027880829], [1319.5079107728832, -1.2744065751736837], [1380.4940907319567, -1.0], [1414.2135623730828, -0.8737628360624465], [1515.7165665103846, -0.5723888634357026], [1624.5047927124563, -0.28928540939306974], [1741.1011265922318, -0.0004899438049995164], [1741.3232664723562, 0.0], [1866.065983073597, 0.21370610258864142], [1999.9999999999802, 0.38101198660692037], [2143.5469250725646, 0.44843013452670266], [2297.396709994046, 0.34002615615067455], [2458.8831142756776, 0.0], [2462.2888266898062, -0.008298210926918532], [2639.01582154576, -0.6935353883372425], [2701.8091466139117, -1.0], [2828.427124746159, -1.6203976177385417], [2900.6307768709426, -2.0], [3031.4331330207615, -2.6847926374337097], [3096.9783094703384, -3.0], [3249.0095854249043, -3.7344139791469515], [3321.5230471624036, -4.0], [3482.2022531844555, -4.609027228775487], [3672.8542755695153, -5.0], [3732.1319661471844, -5.138609481928753], [3999.9999999999504, -5.316238961168654], [4287.093850145118, -5.107232239741933], [4350.680440929091, -5.0], [4594.793419988081, -4.688358370158239], [4924.577653379601, -4.172102925590743], [5042.496374529455, -4.0], [5278.031643091506, -3.72407235897454], [5656.854249492303, -3.467281581547886], [6062.866266041501, -3.4098062507162474], [6498.019170849792, -3.545361804424619], [6964.404506368902, -3.813887200665574], [7207.508529073403, -4.0], [7464.2639322943505, -4.221315805922995], [7999.999999999892, -4.687590217603166]], 'minus_line': [[125.0, 2.158061399732372], [127.32511953906122, 2.0], [133.9716828170366, 1.6342276155832325], [143.5872943746293, 1.0722086856873827], [144.80238068066313, 1.0], [153.8930516681145, 0.5506799814412924], [164.93848884661162, 0.03341256510496293], [165.84915646660727, 0.0], [176.77669529663666, -0.3134590651039878], [189.46457081379947, -0.4776068350012601], [203.0630990890585, -0.433195154506658], [217.6376408240306, -0.20275730826924754], [226.02061360831843, 0.0], [233.25824788420132, 0.20086429345054113], [249.99999999999937, 0.6638481504160568], [264.0454573324335, 1.0], [267.94336563407256, 1.108937569700823], [287.17458874925757, 1.5157250852001836], [307.78610333622805, 1.7526351444735073], [329.87697769322244, 1.82792612138131], [353.55339059327247, 1.7401231933079502], [378.9291416275985, 1.509033599975183], [406.12619817811606, 1.1576398629717723], [416.9690970977485, 1.0], [435.2752816480601, 0.7859638493394361], [466.5164957684015, 0.46198809289176646], [499.9999999999975, 0.15866834649130357], [521.2823108697722, 0.0], [535.8867312681431, -0.0859220812777099], [574.3491774985137, -0.2429981514439547], [615.5722066724546, -0.3608288701815269], [659.7539553864432, -0.4533428089342594], [707.1067811865431, -0.5217967677661312], [757.8582832551941, -0.5475361453242495], [812.2523963562301, -0.49648551828813403], [870.550563296117, -0.33991643382224995], [933.0329915368008, -0.06741909905933154], [944.0901537794733, 0.0], [999.9999999999926, 0.3817100746674431], [1071.773462536285, 0.850707894255034], [1094.337722785158, 1.0], [1148.698354997026, 1.397979671799416], [1231.1444133449077, 1.869568767159151], [1257.7769329652497, 2.0], [1319.5079107728832, 2.3377714829936247], [1414.2135623730828, 2.710808590800325], [1506.6265771959927, 3.0], [1515.7165665103846, 3.0342522432600214], [1624.5047927124563, 3.394662801020894], [1741.101126592234, 3.705926669278755], [1866.065983073597, 3.972914470840078], [1885.272318776233, 4.0], [1999.9999999999802, 4.192782644857355], [2143.5469250725646, 4.221863445468011], [2282.6598313494155, 4.0], [2297.396709994046, 3.9816950516553407], [2462.2888266898062, 3.529960127893699], [2579.944026662861, 3.0], [2639.015821545763, 2.7678637652046603], [2790.881734979662, 2.0], [2828.427124746162, 1.8239100666065002], [2990.3539416470267, 1.0], [3031.4331330207656, 0.8007905723007036], [3206.5483617241566, 0.0], [3249.0095854249043, -0.18550157156627767], [3478.0532494773415, -1.0], [3482.2022531844555, -1.0140100974114605], [3732.1319661471844, -1.5244718987018027], [3999.9999999999504, -1.7423052386972973], [4287.093850145118, -1.628253583865179], [4594.793419988081, -1.2746504203528928], [4780.010581427792, -1.0], [4924.577653379601, -0.7508876102002464], [5278.031643091506, -0.24491899726379576], [5548.718720509656, 0.0], [5656.854249492303, 0.12124849284410566], [6062.866266041501, 0.2499174037232309], [6498.019170849792, 0.04732017254237919], [6540.428555640933, 0.0], [6964.404506368902, -0.3541478575125001], [7464.2639322943505, -0.9142556002799183], [7545.138870162009, -1.0], [7999.999999999892, -1.369858549394748]]}",nqnuwy,001,fr,200,2022-05-10_10h12.08.504,Bayesian,2022.1.1,None,
