frequencies,training_trials.thisRepN,training_trials.thisTrialN,training_trials.thisN,training_trials.thisIndex,frequencies.thisRepN,frequencies.thisTrialN,frequencies.thisN,frequencies.thisIndex,trials.thisRepN,trials.thisTrialN,trials.thisN,trials.thisIndex,tFrequency,tLevel,tCorrect,Tprobe.started,Tprobe.stopped,tTriangle_cue.started,tTriangle_cue.stopped,Tfeedback.keys,Tfeedback.corr,Tfeedback.rt,Tfeedback.started,Tfeedback.stopped,reversals_nTrials.routineEndVal,track_dir.routineEndVal,step_up.routineEndVal,Correct,Frequency,Level,Psychopy_Level,Direction,Reversals,Track_dir,Step,probe.started,probe.stopped,cross_cue.started,cross_cue.stopped,circle_cue.started,circle_cue.stopped,triangle_cue.started,triangle_cue.stopped,feedback.keys,feedback.corr,feedback.rt,feedback.started,feedback.stopped,memo.started,memo.stopped,key_resp.keys,key_resp.rt,key_resp.started,key_resp.stopped,text.started,text.stopped,participant,session,skip_training,language (english or french),date,expName,psychopyVersion,frameRate,
1300,0,0,0,3,,,,,,,,,1300,30,right,81.27674583008047,None,81.24340520007536,81.56290280004032,left,0,4.997048299759626,78.81675650016405,None,,,,,,,,,,,,,,,,,,,,,,,,,,,,,,,,,wxbjqe,001,0,fr,2022-05-16_18h11.55.766,3-AFC_adaptive_staircase_mess,2022.1.1,30.066037035562026,
200,0,1,1,0,,,,,,,,,200,30,right,93.41799133003224,93.64607460005209,93.3551543999929,93.67338350019418,right,1,2.9438047998119146,90.95910320011899,None,,,,,,,,,,,,,,,,,,,,,,,,,,,,,,,,,wxbjqe,001,0,fr,2022-05-16_18h11.55.766,3-AFC_adaptive_staircase_mess,2022.1.1,30.066037035562026,
450,0,2,2,1,,,,,,,,,450,30,right,101.16029553010594,101.37095620017499,101.09395100013353,101.40144350007176,right,1,3.0049514998681843,98.70542420004494,None,,,,,,,,,,,,,,,,,,,,,,,,,,,,,,,,,wxbjqe,001,0,fr,2022-05-16_18h11.55.766,3-AFC_adaptive_staircase_mess,2022.1.1,30.066037035562026,
5000,0,3,3,4,,,,,,,,,5000,30,right,112.52784852997866,None,112.49450789997354,112.81503619998693,right,1,2.8633198000025004,110.0867278999649,None,,,,,,,,,,,,,,,,,,,,,,,,,,,,,,,,,wxbjqe,001,0,fr,2022-05-16_18h11.55.766,3-AFC_adaptive_staircase_mess,2022.1.1,30.066037035562026,
850,0,4,4,2,,,,,,,,,850,30,up,117.5928374301875,None,None,None,up,1,1.8022841999772936,116.14761820016429,None,,,,,,,,,,,,,,,,,,,,,,,,,,,,,,,,,wxbjqe,001,0,fr,2022-05-16_18h11.55.766,3-AFC_adaptive_staircase_mess,2022.1.1,30.066037035562026,
,,,,,0,0,0,0,0,0,0,0,,,,,,,,,,,,,[],[],10,up,1000,30,0.0013930605843148849,0,0,-1,10,132.08245043002535,None,131.0038434001617,131.30397220002487,132.00349420006387,132.3354035001248,None,None,up,1,1.4055667999200523,131.06438660016283,None,None,None,,,,,,,wxbjqe,001,0,fr,2022-05-16_18h11.55.766,3-AFC_adaptive_staircase_mess,2022.1.1,30.066037035562026,
,,,,,0,0,0,0,1,0,1,0,,,,,,,,,,,,,,,,left,1000,30,0.0013930605843148849,0,0,-1,10,134.01498333003838,None,133.98164270003326,134.29938870016485,None,None,None,None,left,1,0.48884839983657,134.01275690016337,None,None,None,,,,,,,wxbjqe,001,0,fr,2022-05-16_18h11.55.766,3-AFC_adaptive_staircase_mess,2022.1.1,30.066037035562026,
,,,,,0,0,0,0,2,0,2,0,,,,,,,,,,,,,,,,up,1000,10,0.00013930605843148847,-1,0,-1,-10,137.04005453002173,None,135.99062290019356,136.32113900012337,136.97829140000977,137.30391210014932,None,None,up,1,1.6056385000701994,136.02482799999416,None,None,None,,,,,,,wxbjqe,001,0,fr,2022-05-16_18h11.55.766,3-AFC_adaptive_staircase_mess,2022.1.1,30.066037035562026,
,,,,,0,0,0,0,3,0,3,0,,,,,,,,,,,,,,,,up,1000,10,0.00013930605843148847,-1,0,-1,-10,140.1979413301451,None,139.12735690013506,139.42782300012186,140.12907200003974,140.43109520012513,None,None,up,1,1.730799799785018,139.19477970013395,None,None,None,,,,,,,wxbjqe,001,0,fr,2022-05-16_18h11.55.766,3-AFC_adaptive_staircase_mess,2022.1.1,30.066037035562026,
,,,,,0,0,0,0,4,0,4,0,,,,,,,,,,,,,,,,up,1000,0,4.405244365040069e-05,-1,0,-1,-10,None,None,142.3990277000703,None,None,None,None,None,up,1,-1.3938732999376953,142.4162653000094,None,None,None,,,,,,,wxbjqe,001,0,fr,2022-05-16_18h11.55.766,3-AFC_adaptive_staircase_mess,2022.1.1,30.066037035562026,
,,,,,0,0,0,0,5,0,5,0,,,,,,,,,,,,,,,,left,1000,0,4.405244365040069e-05,-1,0,-1,-10,143.9670700301649,144.18399210018106,143.90013540000655,144.21666719997302,144.9011725001037,145.23359440010972,145.89802010008134,146.20122630009428,up,0,6.1914247998502105,143.95069409999996,None,146.47008290002123,None,,,,,,,wxbjqe,001,0,fr,2022-05-16_18h11.55.766,3-AFC_adaptive_staircase_mess,2022.1.1,30.066037035562026,
,,,,,0,0,0,0,6,0,6,0,,,,,,,,,,,,,,,,left,1000,5,7.833755350540742e-05,1,1,1,5,151.7084120301297,None,151.64359050011262,151.95893490011804,152.64533239998855,None,None,None,left,1,1.009265499887988,151.6924298000522,None,None,None,,,,,,,wxbjqe,001,0,fr,2022-05-16_18h11.55.766,3-AFC_adaptive_staircase_mess,2022.1.1,30.066037035562026,
,,,,,0,0,0,0,7,0,7,0,,,,,,,,,,,,,,,,up,1000,5,7.833755350540742e-05,1,1,1,5,155.2787612300599,155.497080600122,154.1990004000254,154.5102451001294,155.21070180018432,155.5270893999841,None,None,up,1,1.4294176998082548,154.25599119998515,None,None,None,,,,,,,wxbjqe,001,0,fr,2022-05-16_18h11.55.766,3-AFC_adaptive_staircase_mess,2022.1.1,30.066037035562026,
,,,,,0,0,0,0,8,0,8,0,,,,,,,,,,,,,,,,right,1000,-5,2.4772509540239506e-05,-1,2,-1,-5.0,159.2504599300446,None,157.1652999999933,157.4830740999896,158.18184330011718,158.49959270004183,159.21711930003949,159.51736870012246,right,1,4.686657899990678,157.24722660006955,None,159.753122900147,None,,,,,,,wxbjqe,001,0,fr,2022-05-16_18h11.55.766,3-AFC_adaptive_staircase_mess,2022.1.1,30.066037035562026,
,,,,,0,0,0,0,9,0,9,0,,,,,,,,,,,,,,,,up,1000,-5,2.4772509540239506e-05,-1,2,-1,-5.0,164.45454673015047,164.67413359996863,163.40406360011548,163.72610810003243,164.42120610014535,164.72954800003208,165.4216158001218,165.75503520015627,right,0,5.342792399926111,163.45494380011223,None,165.95632950006984,None,,,,,,,wxbjqe,001,0,fr,2022-05-16_18h11.55.766,3-AFC_adaptive_staircase_mess,2022.1.1,30.066037035562026,
,,,,,0,0,0,0,10,0,10,0,,,,,,,,,,,,,,,,up,1000,-2.5,3.303467240037979e-05,1,3,1,2.5,171.3674883301137,None,170.30815000017174,170.62438539997675,171.3013572001364,171.61481180018745,172.29879210004583,172.63343130005524,right,0,4.380921900039539,170.3373269001022,None,172.83879090007395,None,,,,,,,wxbjqe,001,0,fr,2022-05-16_18h11.55.766,3-AFC_adaptive_staircase_mess,2022.1.1,30.066037035562026,
,,,,,0,0,0,0,11,0,11,0,,,,,,,,,,,,,,,,right,1000,0.0,4.405244365040069e-05,1,3,1,2.5,None,None,176.18394430004992,None,None,None,None,None,right,1,-1.4725388002116233,176.21552149998024,None,None,None,,,,,,,wxbjqe,001,0,fr,2022-05-16_18h11.55.766,3-AFC_adaptive_staircase_mess,2022.1.1,30.066037035562026,
,,,,,0,0,0,0,12,0,12,0,,,,,,,,,,,,,,,,up,1000,0.0,4.405244365040069e-05,1,3,1,2.5,178.71758653002325,None,177.67469630017877,177.9993982000742,178.65606130007654,178.97962660016492,179.6736481001135,179.96896570012905,left,0,6.411991399945691,177.73154340009205,None,180.2081844001077,None,,,,,,,wxbjqe,001,0,fr,2022-05-16_18h11.55.766,3-AFC_adaptive_staircase_mess,2022.1.1,30.066037035562026,
,,,,,0,0,0,0,13,0,13,0,,,,,,,,,,,,,,,,up,1000,2.5,5.874487774697646e-05,1,3,1,2.5,186.6846345301019,None,185.61939440015703,185.94157250015996,186.62211740016937,186.9497474001255,187.61921679996885,187.9154968999792,up,1,2.520380799891427,185.6775870001875,None,188.17954080016352,None,,,,,,,wxbjqe,001,0,fr,2022-05-16_18h11.55.766,3-AFC_adaptive_staircase_mess,2022.1.1,30.066037035562026,
,,,,,0,0,0,0,14,0,14,0,,,,,,,,,,,,,,,,left,1000,2.5,5.874487774697646e-05,1,3,1,2.5,189.7436657299986,None,189.67705020005815,189.99104290013202,190.67130880011246,None,None,None,left,1,0.9283779999241233,189.7412292000372,None,None,None,,,,,,,wxbjqe,001,0,fr,2022-05-16_18h11.55.766,3-AFC_adaptive_staircase_mess,2022.1.1,30.066037035562026,
,,,,,0,0,0,0,15,0,15,0,,,,,,,,,,,,,,,,up,1000,-2.5,3.303467240037979e-05,-1,4,-1,-5.0,193.16195133014116,193.37899420014583,192.10273590008728,192.42357830004767,193.12861070013605,193.4336233001668,194.13698350009508,194.43522940017283,up,1,2.5589217997621745,192.1588890000712,None,194.66949290013872,None,,,,,,,wxbjqe,001,0,fr,2022-05-16_18h11.55.766,3-AFC_adaptive_staircase_mess,2022.1.1,30.066037035562026,
,,,,,0,0,0,0,16,0,16,0,,,,,,,,,,,,,,,,left,1000,-2.5,3.303467240037979e-05,-1,4,-1,-5.0,196.23887563019525,196.4601344000548,196.20553500019014,196.5144134000875,197.1955314001534,197.5200094000902,198.2054942001123,198.5013555001933,right,0,3.756747599923983,196.23305260017514,None,198.7393408000935,None,,,,,,,wxbjqe,001,0,fr,2022-05-16_18h11.55.766,3-AFC_adaptive_staircase_mess,2022.1.1,30.066037035562026,
,,,,,0,0,0,0,17,0,17,0,,,,,,,,,,,,,,,,left,1000,0.0,4.405244365040069e-05,1,5,1,2.5,201.49375203007367,201.70989990001544,201.43192390003242,201.73723490000702,None,None,None,None,left,1,0.7248017999809235,201.4896807000041,None,None,None,,,,,,,wxbjqe,001,0,fr,2022-05-16_18h11.55.766,3-AFC_adaptive_staircase_mess,2022.1.1,30.066037035562026,
,,,,,0,0,0,0,18,0,18,0,,,,,,,,,,,,,,,,right,1000,0.0,4.405244365040069e-05,1,5,1,2.5,205.74635363009293,205.95897110016085,203.68864300008863,203.98268720018677,204.68761650007218,204.98085050005466,205.685136300046,205.98627950018272,right,1,3.025439899880439,203.7161682001315,None,206.22079930012114,None,,,,,,,wxbjqe,001,0,fr,2022-05-16_18h11.55.766,3-AFC_adaptive_staircase_mess,2022.1.1,30.066037035562026,
,,,,,0,0,0,0,19,0,19,0,,,,,,,,,,,,,,,,right,1000,-5.0,2.4772509540239506e-05,-1,6,-1,-5.0,210.3003126300173,210.5145906000398,208.2384140000213,208.5644806001801,209.23409650009125,209.52942989999428,210.23388640000485,210.54449390014634,right,1,3.3338250999804586,208.26590120000765,None,210.78115990012884,None,,,,,,,wxbjqe,001,0,fr,2022-05-16_18h11.55.766,3-AFC_adaptive_staircase_mess,2022.1.1,30.066037035562026,
,,,,,1,0,1,0,0,0,0,0,,,,,,,,,,,,,[],[],10,left,1500,30,0.001527460556607757,0,0,-1,10,216.14934842998628,None,216.08191120019183,216.40939830010757,None,None,None,None,left,1,0.8009392998646945,216.14891840005293,None,None,None,e,2.9657576999161392,212.65603910014033,None,212.65603910014033,None,wxbjqe,001,0,fr,2022-05-16_18h11.55.766,3-AFC_adaptive_staircase_mess,2022.1.1,30.066037035562026,
,,,,,1,0,1,0,1,0,1,0,,,,,,,,,,,,,,,,left,1500,30,0.001527460556607757,0,0,-1,10,218.48416633007582,None,218.4508257000707,218.76680260011926,None,None,None,None,left,1,0.48566499981097877,218.48023600014858,None,None,None,,,,,,,wxbjqe,001,0,fr,2022-05-16_18h11.55.766,3-AFC_adaptive_staircase_mess,2022.1.1,30.066037035562026,
,,,,,1,0,1,0,2,0,2,0,,,,,,,,,,,,,,,,up,1500,10,0.0001527460556607757,-1,0,-1,-10,221.510297729983,None,220.4646293001715,220.7725784999784,221.4491675000172,221.7672074001748,None,None,up,1,1.7197431998793036,220.49376620003022,None,None,None,,,,,,,wxbjqe,001,0,fr,2022-05-16_18h11.55.766,3-AFC_adaptive_staircase_mess,2022.1.1,30.066037035562026,
,,,,,1,0,1,0,3,0,3,0,,,,,,,,,,,,,,,,right,1500,10,0.0001527460556607757,-1,0,-1,-10,225.71113653003704,225.92628020001575,223.67692080000415,223.97602880001068,224.67727220011875,224.9700690000318,225.67779590003192,225.98820840008557,right,1,2.5786399997305125,223.7072440001648,None,226.2082170001231,None,,,,,,,wxbjqe,001,0,fr,2022-05-16_18h11.55.766,3-AFC_adaptive_staircase_mess,2022.1.1,30.066037035562026,
,,,,,1,0,1,0,4,0,4,0,,,,,,,,,,,,,,,,right,1500,0,4.830254394949071e-05,-1,0,-1,-10,229.82106153003406,None,227.7635100001935,228.09376420010813,228.7562765001785,229.04654730018228,229.75314610009082,230.08001619996503,right,1,2.620542199816555,227.79349000006914,None,230.28892920003273,None,,,,,,,wxbjqe,001,0,fr,2022-05-16_18h11.55.766,3-AFC_adaptive_staircase_mess,2022.1.1,30.066037035562026,
,,,,,1,0,1,0,5,0,5,0,,,,,,,,,,,,,,,,right,1500,0,4.830254394949071e-05,-1,0,-1,-10,233.9649999301182,234.17974380007945,231.8954535999801,232.1968328000512,232.8955636001192,233.19396130018868,233.8961527000647,234.19716950017028,right,1,2.4847007000353187,231.96046050009318,None,234.444406399969,None,,,,,,,wxbjqe,001,0,fr,2022-05-16_18h11.55.766,3-AFC_adaptive_staircase_mess,2022.1.1,30.066037035562026,
,,,,,1,0,1,0,6,0,6,0,,,,,,,,,,,,,,,,up,1500,-10,1.527460556607758e-05,-1,0,-1,-10,237.03118303010706,None,235.96239860006608,236.2656360999681,236.96363020013086,237.30009600007907,237.9678885000758,238.2677717001643,up,1,2.7767808998469263,236.03000230016187,None,238.501323700184,None,,,,,,,wxbjqe,001,0,fr,2022-05-16_18h11.55.766,3-AFC_adaptive_staircase_mess,2022.1.1,30.066037035562026,
,,,,,1,0,1,0,7,0,7,0,,,,,,,,,,,,,,,,right,1500,-10,1.527460556607758e-05,-1,0,-1,-10,242.33988113014493,242.55444310000166,240.28539960016496,240.58064409997314,241.28121220017783,241.60298540000804,242.2769826001022,242.57046200009063,left,0,3.645817899843678,240.34409900009632,None,242.831697500078,None,,,,,,,wxbjqe,001,0,fr,2022-05-16_18h11.55.766,3-AFC_adaptive_staircase_mess,2022.1.1,30.066037035562026,
,,,,,1,0,1,0,8,0,8,0,,,,,,,,,,,,,,,,right,1500,-5,2.716251657462168e-05,1,1,1,5,247.50743453006726,247.72507870011032,245.4640522999689,245.75912540010177,246.4665182000026,246.77057130006142,247.44602290005423,247.75287910015322,right,1,2.935871799942106,245.49441560008563,None,248.01966540003195,None,,,,,,,wxbjqe,001,0,fr,2022-05-16_18h11.55.766,3-AFC_adaptive_staircase_mess,2022.1.1,30.066037035562026,
,,,,,1,0,1,0,9,0,9,0,,,,,,,,,,,,,,,,left,1500,-5,2.716251657462168e-05,1,1,1,5,249.94637983001303,None,249.91303920000792,250.24331290018745,250.90009010001086,251.19953069998883,251.90065710013732,252.1982659001369,up,0,3.793560799676925,249.9406765999738,None,252.46292780013755,None,,,,,,,wxbjqe,001,0,fr,2022-05-16_18h11.55.766,3-AFC_adaptive_staircase_mess,2022.1.1,30.066037035562026,
,,,,,1,0,1,0,10,0,10,0,,,,,,,,,,,,,,,,right,1500,0,4.830254394949071e-05,1,1,1,5,257.2728928300785,257.482363200048,255.22180679999292,255.5176664001774,256.225103400182,256.54961020010523,257.211968800053,257.5075882000383,right,1,2.615931399865076,255.278361100005,None,257.783630900085,None,,,,,,,wxbjqe,001,0,fr,2022-05-16_18h11.55.766,3-AFC_adaptive_staircase_mess,2022.1.1,30.066037035562026,
,,,,,1,0,1,0,11,0,11,0,,,,,,,,,,,,,,,,up,1500,0,4.830254394949071e-05,1,1,1,5,260.4265265300637,260.63820890011266,259.39186860015616,259.7162158000283,260.3931859000586,260.6924624000676,None,None,up,1,1.737917599733919,259.41965090017766,None,None,None,,,,,,,wxbjqe,001,0,fr,2022-05-16_18h11.55.766,3-AFC_adaptive_staircase_mess,2022.1.1,30.066037035562026,
,,,,,1,0,1,0,12,0,12,0,,,,,,,,,,,,,,,,right,1500,-10,1.527460556607758e-05,-1,2,-1,-5.0,264.6690646301722,264.88125790003687,262.617993199965,262.91792210005224,263.63195400009863,263.92843160009943,264.6357240001671,264.93598169996403,left,0,2.4934067998547107,262.6794989001937,None,265.17088210000657,None,,,,,,,wxbjqe,001,0,fr,2022-05-16_18h11.55.766,3-AFC_adaptive_staircase_mess,2022.1.1,30.066037035562026,
,,,,,1,0,1,0,13,0,13,0,,,,,,,,,,,,,,,,up,1500,-7.5,2.036901389020565e-05,1,3,1,2.5,267.72130803007167,267.9333426000085,266.6525024001021,266.9460921001155,267.6571982000023,267.96541699999943,268.65825109998696,268.9560779000167,up,1,3.3339546998031437,266.7116972000804,None,269.21737790014595,None,,,,,,,wxbjqe,001,0,fr,2022-05-16_18h11.55.766,3-AFC_adaptive_staircase_mess,2022.1.1,30.066037035562026,
,,,,,1,0,1,0,14,0,14,0,,,,,,,,,,,,,,,,left,1500,-7.5,2.036901389020565e-05,1,3,1,2.5,271.56077743007336,271.77088119997643,271.52743680006824,271.83116940013133,272.520893300185,272.8173897000961,273.53026290005073,273.85512920003384,left,1,3.72826540004462,271.5577267999761,None,274.0642544000875,None,,,,,,,wxbjqe,001,0,fr,2022-05-16_18h11.55.766,3-AFC_adaptive_staircase_mess,2022.1.1,30.066037035562026,
,,,,,1,0,1,0,15,0,15,0,,,,,,,,,,,,,,,,right,1500,-12.5,1.1454338263838873e-05,-1,4,-1,-5.0,278.8327638300834,279.0497999000363,276.77985130017623,277.1016804999672,277.76200980017893,278.08469450008124,278.7683202000335,279.08060950017534,up,0,2.493008299963549,276.81036880007014,None,279.3270684001036,None,,,,,,,wxbjqe,001,0,fr,2022-05-16_18h11.55.766,3-AFC_adaptive_staircase_mess,2022.1.1,30.066037035562026,
,,,,,1,0,1,0,16,0,16,0,,,,,,,,,,,,,,,,right,1500,-10.0,1.527460556607758e-05,1,5,1,2.5,282.8417756300187,None,280.80347499996424,281.1066571001429,281.7850329000503,282.0849777001422,282.80843500001356,283.107658599969,right,1,3.351510100066662,280.8619072001893,None,283.352339199977,None,,,,,,,wxbjqe,001,0,fr,2022-05-16_18h11.55.766,3-AFC_adaptive_staircase_mess,2022.1.1,30.066037035562026,
,,,,,1,0,1,0,17,0,17,0,,,,,,,,,,,,,,,,up,1500,-10.0,1.527460556607758e-05,1,5,1,2.5,286.7331077301642,286.9576527001336,285.67546469997615,285.9790052000899,286.67245210008696,286.9883718001656,287.67699300008826,287.97996910009533,up,1,2.7069528999272734,285.7389193000272,None,288.22423700010404,None,,,,,,,wxbjqe,001,0,fr,2022-05-16_18h11.55.766,3-AFC_adaptive_staircase_mess,2022.1.1,30.066037035562026,
,,,,,1,0,1,0,18,0,18,0,,,,,,,,,,,,,,,,left,1500,-15.0,8.589541935787946e-06,-1,6,-1,-5.0,289.97944603010546,290.19478330016136,289.94610540010035,290.25921290018596,290.936484800186,291.25744220009074,291.94454449997284,292.2560376001056,left,1,2.91732389992103,289.97627990017645,None,292.4857843001373,None,,,,,,,wxbjqe,001,0,fr,2022-05-16_18h11.55.766,3-AFC_adaptive_staircase_mess,2022.1.1,30.066037035562026,
,,,,,2,0,2,0,0,0,0,0,,,,,,,,,,,,,[],[],10,up,2000,30,0.0023657562948074026,0,0,-1,10,296.39774673001375,None,295.337495499989,295.66077660000883,296.3341489001177,296.6466813001316,None,None,up,1,1.7463199999183416,295.395692500053,None,None,None,e,0.9352870997972786,293.95185380009934,None,293.95185380009934,None,wxbjqe,001,0,fr,2022-05-16_18h11.55.766,3-AFC_adaptive_staircase_mess,2022.1.1,30.066037035562026,
,,,,,2,0,2,0,1,0,1,0,,,,,,,,,,,,,,,,left,2000,30,0.0023657562948074026,0,0,-1,10,298.6780363301514,298.90153410006315,298.61549440003,298.93338820012286,None,None,None,None,left,1,0.48387669981457293,298.6740240000654,None,None,None,,,,,,,wxbjqe,001,0,fr,2022-05-16_18h11.55.766,3-AFC_adaptive_staircase_mess,2022.1.1,30.066037035562026,
,,,,,2,0,2,0,2,0,2,0,,,,,,,,,,,,,,,,left,2000,10,0.00023657562948074026,-1,0,-1,-10,300.6881636300823,300.90507890004665,300.6230811001733,300.93736720015295,None,None,None,None,left,1,0.41222729976288974,300.68177350005135,None,None,None,,,,,,,wxbjqe,001,0,fr,2022-05-16_18h11.55.766,3-AFC_adaptive_staircase_mess,2022.1.1,30.066037035562026,
,,,,,2,0,2,0,3,0,3,0,,,,,,,,,,,,,,,,right,2000,10,0.00023657562948074026,-1,0,-1,-10,304.6085607301211,None,302.55828700005077,302.86003340012394,303.5712489001453,303.8700100001879,304.575220100116,304.8740958000999,right,1,2.493414199911058,302.61624850006774,None,305.1144062001258,None,,,,,,,wxbjqe,001,0,fr,2022-05-16_18h11.55.766,3-AFC_adaptive_staircase_mess,2022.1.1,30.066037035562026,
,,,,,2,0,2,0,4,0,4,0,,,,,,,,,,,,,,,,up,2000,0,7.481178280472168e-05,-1,0,-1,-10,307.6080370299751,None,306.5669546001591,306.8949373001233,307.57469639997,307.87368299998343,None,None,up,1,1.7980530997738242,306.59924939996563,None,None,None,,,,,,,wxbjqe,001,0,fr,2022-05-16_18h11.55.766,3-AFC_adaptive_staircase_mess,2022.1.1,30.066037035562026,
,,,,,2,0,2,0,5,0,5,0,,,,,,,,,,,,,,,,left,2000,0,7.481178280472168e-05,-1,0,-1,-10,309.8855368300574,310.10972320009023,309.8521962000523,310.16941410000436,310.83394110016525,None,None,None,left,1,1.0518852998502553,309.8813939001411,None,None,None,,,,,,,wxbjqe,001,0,fr,2022-05-16_18h11.55.766,3-AFC_adaptive_staircase_mess,2022.1.1,30.066037035562026,
,,,,,2,0,2,0,6,0,6,0,,,,,,,,,,,,,,,,right,2000,-10,2.3657562948074015e-05,-1,0,-1,-10,314.4580867300974,None,312.40281840017997,312.71145709999837,313.4080686001107,313.73596920003183,314.3951467999723,314.7180841001682,up,0,2.6716544998344034,312.46987070003524,None,314.9553599001374,None,,,,,,,wxbjqe,001,0,fr,2022-05-16_18h11.55.766,3-AFC_adaptive_staircase_mess,2022.1.1,30.066037035562026,
,,,,,2,0,2,0,7,0,7,0,,,,,,,,,,,,,,,,right,2000,-5,4.206975708225974e-05,1,1,1,5,318.6484697301639,None,316.61165009997785,316.9434792001266,317.6097914001439,317.9197146000806,318.6151291001588,318.92360160010867,right,1,2.4327012998983264,316.67790580005385,None,319.1757775301812,None,,,,,,,wxbjqe,001,0,fr,2022-05-16_18h11.55.766,3-AFC_adaptive_staircase_mess,2022.1.1,30.066037035562026,
,,,,,2,0,2,0,8,0,8,0,,,,,,,,,,,,,,,,left,2000,-5,4.206975708225974e-05,1,1,1,5,320.6813569300575,None,320.61516540008597,320.94787720008753,321.62432100018486,None,None,None,left,1,0.9404100000392646,320.68127489998005,None,None,None,,,,,,,wxbjqe,001,0,fr,2022-05-16_18h11.55.766,3-AFC_adaptive_staircase_mess,2022.1.1,30.066037035562026,
,,,,,2,0,2,0,9,0,9,0,,,,,,,,,,,,,,,,left,2000,-15,1.3303625298994042e-05,-1,2,-1,-5.0,323.1365567300236,323.35928410012275,323.10321610001847,323.4242494001519,324.10048350016586,324.4132519001141,325.081153200008,325.385580400005,up,0,3.0077231999021024,323.13356139999814,None,325.6355242000427,None,,,,,,,wxbjqe,001,0,fr,2022-05-16_18h11.55.766,3-AFC_adaptive_staircase_mess,2022.1.1,30.066037035562026,
,,,,,2,0,2,0,10,0,10,0,,,,,,,,,,,,,,,,up,2000,-12.5,1.7740669461678767e-05,1,3,1,2.5,328.68517773004714,None,327.60430949996226,327.9180772001855,328.6192733000498,328.9329136000015,329.6266169999726,329.95597610017285,right,0,2.8694723998196423,327.66392090008594,None,330.1779312000144,None,,,,,,,wxbjqe,001,0,fr,2022-05-16_18h11.55.766,3-AFC_adaptive_staircase_mess,2022.1.1,30.066037035562026,
,,,,,2,0,2,0,11,0,11,0,,,,,,,,,,,,,,,,left,2000,-10.0,2.3657562948074015e-05,1,3,1,2.5,332.0756553300889,None,332.0127775000874,332.336110400036,333.02886710013263,333.3588415000122,334.0396147000138,334.35954720014706,up,0,2.925459899706766,332.072434599977,None,334.57594440015964,None,,,,,,,wxbjqe,001,0,fr,2022-05-16_18h11.55.766,3-AFC_adaptive_staircase_mess,2022.1.1,30.066037035562026,
,,,,,2,0,2,0,12,0,12,0,,,,,,,,,,,,,,,,left,2000,-7.5,3.154786722400965e-05,1,3,1,2.5,336.497609329992,None,336.46426869998686,336.76269690017216,337.4626705001574,337.7690725000575,338.4675141000189,338.7968766000122,left,1,2.7731178998947144,336.4966621999629,None,339.0131030001212,None,,,,,,,wxbjqe,001,0,fr,2022-05-16_18h11.55.766,3-AFC_adaptive_staircase_mess,2022.1.1,30.066037035562026,
,,,,,2,0,2,0,13,0,13,0,,,,,,,,,,,,,,,,right,2000,-7.5,3.154786722400965e-05,1,3,1,2.5,342.78168933012057,None,340.730622400064,341.0321833000053,341.7336373999715,342.0521611000877,342.71755100018345,343.04486980009824,up,0,2.745395499980077,340.7963930000551,None,343.268921200186,None,,,,,,,wxbjqe,001,0,fr,2022-05-16_18h11.55.766,3-AFC_adaptive_staircase_mess,2022.1.1,30.066037035562026,
,,,,,2,0,2,0,14,0,14,0,,,,,,,,,,,,,,,,up,2000,-5.0,4.206975708225974e-05,1,3,1,2.5,346.07371223007794,346.28495390014723,345.0091889000032,345.310449300101,346.00727290008217,346.317064500181,347.0111941001378,347.33854360016994,up,1,2.8894849999342114,345.06835640012287,None,347.5519606000744,None,,,,,,,wxbjqe,001,0,fr,2022-05-16_18h11.55.766,3-AFC_adaptive_staircase_mess,2022.1.1,30.066037035562026,
,,,,,2,0,2,0,15,0,15,0,,,,,,,,,,,,,,,,right,2000,-5.0,4.206975708225974e-05,1,3,1,2.5,351.5102184301941,None,349.44245170010254,349.7530175000429,350.4452836001292,350.7748381001875,351.44379679998383,351.7576239001937,right,1,3.0264023998752236,349.50717880018055,None,352.00588900013827,None,,,,,,,wxbjqe,001,0,fr,2022-05-16_18h11.55.766,3-AFC_adaptive_staircase_mess,2022.1.1,30.066037035562026,
,,,,,2,0,2,0,16,0,16,0,,,,,,,,,,,,,,,,right,2000,-10.0,2.3657562948074015e-05,-1,4,-1,-5.0,356.0578741299687,356.269529200159,354.0164268000517,354.34517520014197,355.0183107999619,355.33668070007116,356.0245334999636,356.331698999973,up,0,2.9830058999359608,354.04740909999236,None,356.5608894000761,None,,,,,,,wxbjqe,001,0,fr,2022-05-16_18h11.55.766,3-AFC_adaptive_staircase_mess,2022.1.1,30.066037035562026,
,,,,,2,0,2,0,17,0,17,0,,,,,,,,,,,,,,,,left,2000,-7.5,3.154786722400965e-05,1,5,1,2.5,358.5635687300237,358.7791695999913,358.4943856999744,358.80555910011753,359.4967106000986,359.79770900006406,360.4928145001177,360.7913451001514,left,1,3.1328177999239415,358.56069199997,None,361.058741300134,None,,,,,,,wxbjqe,001,0,fr,2022-05-16_18h11.55.766,3-AFC_adaptive_staircase_mess,2022.1.1,30.066037035562026,
,,,,,2,0,2,0,18,0,18,0,,,,,,,,,,,,,,,,right,2000,-7.5,3.154786722400965e-05,1,5,1,2.5,365.2248129301006,365.43809670000337,363.1592294999864,363.46117550018243,364.159466000041,364.4907095001545,365.1604806999676,365.4720328999683,right,1,3.46707889996469,363.2275165000465,None,365.704291800037,None,,,,,,,wxbjqe,001,0,fr,2022-05-16_18h11.55.766,3-AFC_adaptive_staircase_mess,2022.1.1,30.066037035562026,
,,,,,2,0,2,0,19,0,19,0,,,,,,,,,,,,,,,,left,2000,-12.5,1.7740669461678767e-05,-1,6,-1,-5.0,368.20641683007125,None,368.17307620006613,368.470814100001,369.16098850010894,369.46400280017406,370.16623620013706,370.46559450007044,right,0,4.122935999883339,368.20348090003245,None,370.7012126001064,None,,,,,,,wxbjqe,001,0,fr,2022-05-16_18h11.55.766,3-AFC_adaptive_staircase_mess,2022.1.1,30.066037035562026,
,,,,,3,0,3,0,0,0,0,0,,,,,,,,,,,,,[],[],10,up,3000,30,0.001733684252262658,0,0,-1,10,381.68807083007414,381.90190230007283,380.6353502001148,380.9326099001337,381.625954200048,381.91778260003775,None,None,up,1,1.3535646998789161,380.6915563000366,None,None,None,e,6.781065999995917,373.391751000192,None,373.391751000192,None,wxbjqe,001,0,fr,2022-05-16_18h11.55.766,3-AFC_adaptive_staircase_mess,2022.1.1,30.066037035562026,
,,,,,3,0,3,0,1,0,1,0,,,,,,,,,,,,,,,,right,3000,30,0.001733684252262658,0,0,-1,10,385.55887583002914,385.77385350014083,383.4927115000319,383.80555590009317,384.4986172001809,384.80242740013637,385.49568750010803,385.7898597000167,right,1,2.5277035997714847,383.55055889999494,None,386.0658394000493,None,,,,,,,wxbjqe,001,0,fr,2022-05-16_18h11.55.766,3-AFC_adaptive_staircase_mess,2022.1.1,30.066037035562026,
,,,,,3,0,3,0,2,0,2,0,,,,,,,,,,,,,,,,left,3000,10,0.00017336842522626576,-1,0,-1,-10,387.598076830036,387.8059247001074,387.53456289996393,387.8342121001333,388.5396067001857,None,None,None,left,1,1.0020987999159843,387.59595190011896,None,None,None,,,,,,,wxbjqe,001,0,fr,2022-05-16_18h11.55.766,3-AFC_adaptive_staircase_mess,2022.1.1,30.066037035562026,
,,,,,3,0,3,0,3,0,3,0,,,,,,,,,,,,,,,,up,3000,10,0.00017336842522626576,-1,0,-1,-10,391.12551953003276,None,390.05703220004216,390.3551752001513,391.0638405000791,391.38676130003296,392.06350630009547,392.36049910006113,up,1,2.678489799844101,390.119977200171,None,392.60279890010133,None,,,,,,,wxbjqe,001,0,fr,2022-05-16_18h11.55.766,3-AFC_adaptive_staircase_mess,2022.1.1,30.066037035562026,
,,,,,3,0,3,0,4,0,4,0,,,,,,,,,,,,,,,,left,3000,0,5.482390980715923e-05,-1,0,-1,-10,394.33997113013174,394.55408590007573,394.30663050012663,394.61492800014094,None,None,None,None,left,1,0.7737016000319272,394.3357851000037,None,None,None,,,,,,,wxbjqe,001,0,fr,2022-05-16_18h11.55.766,3-AFC_adaptive_staircase_mess,2022.1.1,30.066037035562026,
,,,,,3,0,3,0,5,0,5,0,,,,,,,,,,,,,,,,up,3000,0,5.482390980715923e-05,-1,0,-1,-10,397.62138203007635,397.83598780003376,396.5667713000439,396.8668579000514,397.58804140007123,397.8938149001915,None,None,up,1,1.6103302999399602,396.6275462000631,None,None,None,,,,,,,wxbjqe,001,0,fr,2022-05-16_18h11.55.766,3-AFC_adaptive_staircase_mess,2022.1.1,30.066037035562026,
,,,,,3,0,3,0,6,0,6,0,,,,,,,,,,,,,,,,left,3000,-10,1.7336842522626584e-05,-1,0,-1,-10,399.761506530107,399.9858329000417,399.6973523001652,400.01507480000146,400.6857187000569,401.0196403001901,401.695727000013,401.99441170017235,right,0,2.6707733999937773,399.7588257000316,None,402.26362680015154,None,,,,,,,wxbjqe,001,0,fr,2022-05-16_18h11.55.766,3-AFC_adaptive_staircase_mess,2022.1.1,30.066037035562026,
,,,,,3,0,3,0,7,0,7,0,,,,,,,,,,,,,,,,right,3000,-5,3.082975009307411e-05,1,1,1,5,405.94308203004766,None,403.8892171001062,404.18557010008954,404.9134817000013,405.2118512999732,405.89329500007443,406.2041591000743,up,0,2.5222083998378366,403.9473602999933,None,406.4405555999838,None,,,,,,,wxbjqe,001,0,fr,2022-05-16_18h11.55.766,3-AFC_adaptive_staircase_mess,2022.1.1,30.066037035562026,
,,,,,3,0,3,0,8,0,8,0,,,,,,,,,,,,,,,,left,3000,0,5.482390980715923e-05,1,1,1,5,407.9571538300952,408.1789281000383,407.9238132000901,408.24109640019014,None,None,None,None,left,1,0.682265100069344,407.95500820013694,None,None,None,,,,,,,wxbjqe,001,0,fr,2022-05-16_18h11.55.766,3-AFC_adaptive_staircase_mess,2022.1.1,30.066037035562026,
,,,,,3,0,3,0,9,0,9,0,,,,,,,,,,,,,,,,up,3000,0,5.482390980715923e-05,1,1,1,5,411.1677355301799,None,410.1047179000452,410.39923820015974,411.10493440018035,None,None,None,left,0,0.9880044998135418,410.1621057000011,None,None,None,,,,,,,wxbjqe,001,0,fr,2022-05-16_18h11.55.766,3-AFC_adaptive_staircase_mess,2022.1.1,30.066037035562026,
,,,,,3,0,3,0,10,0,10,0,,,,,,,,,,,,,,,,right,3000,5,9.749222998790222e-05,1,1,1,5,414.70019293006044,414.9186510001309,412.6251896000467,412.9268079001922,413.6659568999894,413.95332800014876,414.63802960002795,414.9470160000492,right,1,2.3507603998295963,412.6863379001152,None,None,None,,,,,,,wxbjqe,001,0,fr,2022-05-16_18h11.55.766,3-AFC_adaptive_staircase_mess,2022.1.1,30.066037035562026,
,,,,,3,0,3,0,11,0,11,0,,,,,,,,,,,,,,,,right,3000,5,9.749222998790222e-05,1,1,1,5,418.5581217299914,None,416.5141340000555,416.8141153000761,417.52369760000147,417.82353610009886,418.5030233999714,418.8141618000809,right,1,2.4072337998077273,416.5431856000796,None,None,None,,,,,,,wxbjqe,001,0,fr,2022-05-16_18h11.55.766,3-AFC_adaptive_staircase_mess,2022.1.1,30.066037035562026,
,,,,,3,0,3,0,12,0,12,0,,,,,,,,,,,,,,,,left,3000,-5,3.082975009307411e-05,-1,2,-1,-5.0,420.4720766301034,420.686219900148,420.4387360000983,420.7476089000702,421.4196580001153,421.7178535000421,422.4205897001084,422.7307091001421,left,1,3.8459333998616785,420.47201830009,None,422.9695427999832,None,,,,,,,wxbjqe,001,0,fr,2022-05-16_18h11.55.766,3-AFC_adaptive_staircase_mess,2022.1.1,30.066037035562026,
,,,,,3,0,3,0,13,0,13,0,,,,,,,,,,,,,,,,left,3000,-5,3.082975009307411e-05,-1,2,-1,-5.0,425.8674418301089,None,425.79588040011004,426.106938800076,426.8013922001701,427.10098590003327,427.7790483001154,428.0807960999664,up,0,3.9725919999182224,425.86661759996787,None,428.34530930011533,None,,,,,,,wxbjqe,001,0,fr,2022-05-16_18h11.55.766,3-AFC_adaptive_staircase_mess,2022.1.1,30.066037035562026,
,,,,,3,0,3,0,14,0,14,0,,,,,,,,,,,,,,,,left,3000,-2.5,4.1112132497353565e-05,1,3,1,2.5,431.3641329301754,431.58503730013035,431.3307923001703,431.6436997000128,432.3155871001072,432.60231190011837,433.3174163000658,433.6407818000298,left,1,3.019119099713862,431.362064300105,None,433.876316400012,None,,,,,,,wxbjqe,001,0,fr,2022-05-16_18h11.55.766,3-AFC_adaptive_staircase_mess,2022.1.1,30.066037035562026,
,,,,,3,0,3,0,15,0,15,0,,,,,,,,,,,,,,,,up,3000,-2.5,4.1112132497353565e-05,1,3,1,2.5,436.90780843014363,437.1253347999882,435.8562802001834,436.1547771000769,436.8462731000036,437.1525109000504,437.84391600009985,438.1568014000077,up,1,2.9554308999795467,435.9062104001641,None,438.39345169998705,None,,,,,,,wxbjqe,001,0,fr,2022-05-16_18h11.55.766,3-AFC_adaptive_staircase_mess,2022.1.1,30.066037035562026,
,,,,,3,0,3,0,16,0,16,0,,,,,,,,,,,,,,,,right,3000,-7.5,2.3119051069963017e-05,-1,4,-1,-5.0,442.36615683010314,None,440.33367349999025,440.643561600009,441.323995300103,441.6109509000089,442.332816200098,442.6476926000323,right,1,2.9781720000319183,440.3630630001426,None,442.89601880009286,None,,,,,,,wxbjqe,001,0,fr,2022-05-16_18h11.55.766,3-AFC_adaptive_staircase_mess,2022.1.1,30.066037035562026,
,,,,,3,0,3,0,17,0,17,0,,,,,,,,,,,,,,,,left,3000,-7.5,2.3119051069963017e-05,-1,4,-1,-5.0,444.87636323005427,None,444.81404109997675,445.135532299988,445.8266490001697,446.15014430019073,446.84105380019173,447.16334279999137,left,1,2.7418332998640835,444.87211720016785,None,447.36934390012175,None,,,,,,,wxbjqe,001,0,fr,2022-05-16_18h11.55.766,3-AFC_adaptive_staircase_mess,2022.1.1,30.066037035562026,
,,,,,3,0,3,0,18,0,18,0,,,,,,,,,,,,,,,,right,3000,-12.5,1.300079781582636e-05,-1,4,-1,-5.0,451.15486123005394,451.3723727001343,449.08456410001963,449.39088620012626,450.12317200005054,450.44561100006104,451.0927759001497,451.4000437001232,left,0,3.154009599937126,449.1554515999742,None,451.66167700011283,None,,,,,,,wxbjqe,001,0,fr,2022-05-16_18h11.55.766,3-AFC_adaptive_staircase_mess,2022.1.1,30.066037035562026,
,,,,,3,0,3,0,19,0,19,0,,,,,,,,,,,,,,,,left,3000,-10.0,1.7336842522626584e-05,1,5,1,2.5,453.82675363018643,454.03779119998217,453.7641410001088,454.06502630002797,454.7649272000417,455.05895090010017,455.76373280002736,456.0666769000236,left,1,2.812734799925238,453.82484710006975,None,456.3334235001821,None,,,,,,,wxbjqe,001,0,fr,2022-05-16_18h11.55.766,3-AFC_adaptive_staircase_mess,2022.1.1,30.066037035562026,
,,,,,3,0,3,0,20,0,20,0,,,,,,,,,,,,,,,,left,3000,-10.0,1.7336842522626584e-05,1,5,1,2.5,458.1766673299717,458.39249970018864,458.11466250009835,458.419712100178,459.12276430008933,459.41962890001014,460.1216250001453,460.41636839997955,right,0,2.482037899782881,458.16383970016614,None,460.6554136001505,None,,,,,,,wxbjqe,001,0,fr,2022-05-16_18h11.55.766,3-AFC_adaptive_staircase_mess,2022.1.1,30.066037035562026,
,,,,,3,0,3,0,21,0,21,0,,,,,,,,,,,,,,,,up,3000,-7.5,2.3119051069963017e-05,1,5,1,2.5,463.1558496301295,None,462.100311800139,462.41527680004947,463.1225090001244,463.45046990015544,464.1006408999674,464.4164504001383,up,1,3.474574599880725,462.1714761001058,None,464.6510286000557,None,,,,,,,wxbjqe,001,0,fr,2022-05-16_18h11.55.766,3-AFC_adaptive_staircase_mess,2022.1.1,30.066037035562026,
,,,,,3,0,3,0,22,0,22,0,,,,,,,,,,,,,,,,up,3000,-7.5,2.3119051069963017e-05,1,5,1,2.5,468.1741243301658,468.3860768000595,467.1049852001015,467.41448030015454,468.1130322001409,468.41255060001276,469.11414530011825,469.4396625000518,left,0,2.9332848999183625,467.1757273999974,None,469.6757158001419,None,,,,,,,wxbjqe,001,0,fr,2022-05-16_18h11.55.766,3-AFC_adaptive_staircase_mess,2022.1.1,30.066037035562026,
,,,,,3,0,3,0,23,0,23,0,,,,,,,,,,,,,,,,right,3000,-5.0,3.082975009307411e-05,1,5,1,2.5,473.6265722300159,473.83377130003646,471.58426810009405,471.9063236999791,472.59431670000777,472.89223670004867,473.59323160001077,473.91736140009016,left,0,3.865803799824789,471.6439373001922,None,474.11912350007333,None,,,,,,,wxbjqe,001,0,fr,2022-05-16_18h11.55.766,3-AFC_adaptive_staircase_mess,2022.1.1,30.066037035562026,
,,,,,3,0,3,0,24,0,24,0,,,,,,,,,,,,,,,,left,3000,-2.5,4.1112132497353565e-05,1,5,1,2.5,477.0596660299925,477.2774249999784,476.9819689001888,477.30765470000915,None,None,None,None,left,1,0.7837933998089284,477.0539826999884,None,None,None,,,,,,,wxbjqe,001,0,fr,2022-05-16_18h11.55.766,3-AFC_adaptive_staircase_mess,2022.1.1,30.066037035562026,
,,,,,3,0,3,0,25,0,25,0,,,,,,,,,,,,,,,,up,3000,-2.5,4.1112132497353565e-05,1,5,1,2.5,480.3862403301755,480.59831310017034,479.3373130001128,479.66249220003374,480.3251565999817,480.6251851001289,None,None,up,1,1.6481849998235703,479.3650564001873,None,None,None,,,,,,,wxbjqe,001,0,fr,2022-05-16_18h11.55.766,3-AFC_adaptive_staircase_mess,2022.1.1,30.066037035562026,
,,,,,3,0,3,0,26,0,26,0,,,,,,,,,,,,,,,,up,3000,-7.5,2.3119051069963017e-05,-1,6,-1,-5.0,483.5516150301555,483.7687284001149,482.49226010008715,482.7920695999637,483.4916432001628,483.7957107000984,484.49838470015675,484.81988340010867,right,0,2.6922512999735773,482.52125240000896,None,485.03051660000347,None,,,,,,,wxbjqe,001,0,fr,2022-05-16_18h11.55.766,3-AFC_adaptive_staircase_mess,2022.1.1,30.066037035562026,
,,,,,4,0,4,0,0,0,0,0,,,,,,,,,,,,,[],[],10,right,4000,30,0.0026544222211549416,0,0,-1,10,490.73057512997184,490.9382245000452,488.65942679997534,488.97544030006975,489.6751443000976,489.9737535000313,490.6654986999929,490.96719650016166,right,1,2.3561863999348134,488.7304167000111,None,None,None,e,1.931637000059709,486.30602320004255,None,486.30602320004255,None,wxbjqe,001,0,fr,2022-05-16_18h11.55.766,3-AFC_adaptive_staircase_mess,2022.1.1,30.066037035562026,
,,,,,4,0,4,0,1,0,1,0,,,,,,,,,,,,,,,,left,4000,30,0.0026544222211549416,0,0,-1,10,492.64333193015773,492.8566060999874,492.5791490999982,492.88580480008386,493.581512800185,493.8924607001245,494.57073360006325,None,left,1,2.0714719998650253,492.6377444001846,None,None,None,,,,,,,wxbjqe,001,0,fr,2022-05-16_18h11.55.766,3-AFC_adaptive_staircase_mess,2022.1.1,30.066037035562026,
,,,,,4,0,4,0,2,0,2,0,,,,,,,,,,,,,,,,up,4000,10,0.00026544222211549425,-1,0,-1,-10,497.2281567301834,None,496.1893383001443,496.4925720000174,497.1948161001783,497.493908100063,None,None,up,1,1.3637685999274254,496.25000480003655,None,None,None,,,,,,,wxbjqe,001,0,fr,2022-05-16_18h11.55.766,3-AFC_adaptive_staircase_mess,2022.1.1,30.066037035562026,
,,,,,4,0,4,0,3,0,3,0,,,,,,,,,,,,,,,,right,4000,10,0.00026544222211549425,-1,0,-1,-10,501.15271863003727,501.37147370004095,499.0959509999957,499.3895726001356,500.0891150000971,500.3880313001573,501.0888503000606,501.401384399971,right,1,2.3603524998761714,499.12540060002357,None,None,None,,,,,,,wxbjqe,001,0,fr,2022-05-16_18h11.55.766,3-AFC_adaptive_staircase_mess,2022.1.1,30.066037035562026,
,,,,,4,0,4,0,4,0,4,0,,,,,,,,,,,,,,,,right,4000,0,8.394020090612804e-05,-1,0,-1,-10,504.9889815301867,505.205164300045,502.9408128000796,503.25253210007213,503.93926680018194,504.25879580015317,504.9556409001816,505.2662247000262,right,1,2.665524600073695,503.01199600007385,None,505.50186690012924,None,,,,,,,wxbjqe,001,0,fr,2022-05-16_18h11.55.766,3-AFC_adaptive_staircase_mess,2022.1.1,30.066037035562026,
,,,,,4,0,4,0,5,0,5,0,,,,,,,,,,,,,,,,up,4000,0,8.394020090612804e-05,-1,0,-1,-10,508.23179323005024,508.44956009997986,507.16265830001794,507.4615117001813,508.170123900054,508.4767185000237,509.1552585000172,None,up,1,2.1760040000081062,507.2289516001474,None,None,None,,,,,,,wxbjqe,001,0,fr,2022-05-16_18h11.55.766,3-AFC_adaptive_staircase_mess,2022.1.1,30.066037035562026,
,,,,,4,0,4,0,6,0,6,0,,,,,,,,,,,,,,,,up,4000,-10,2.6544222211549425e-05,-1,0,-1,-10,511.9199234301923,512.1342760999687,510.8750072000548,511.2067352000158,511.85731210000813,512.1600695999805,512.8628155000042,513.1621524000075,left,0,2.7118296998087317,510.9410945000127,None,513.4277220000513,None,,,,,,,wxbjqe,001,0,fr,2022-05-16_18h11.55.766,3-AFC_adaptive_staircase_mess,2022.1.1,30.066037035562026,
,,,,,4,0,4,0,7,0,7,0,,,,,,,,,,,,,,,,right,4000,-5,4.720304381429618e-05,1,1,1,5,517.1707044300856,517.3879517000169,515.1376049001701,515.4660219000652,516.1230168000329,516.438098100014,517.1373638000805,517.4439105000347,left,0,2.777771799825132,515.1708456999622,None,517.6829330001492,None,,,,,,,wxbjqe,001,0,fr,2022-05-16_18h11.55.766,3-AFC_adaptive_staircase_mess,2022.1.1,30.066037035562026,
,,,,,4,0,4,0,8,0,8,0,,,,,,,,,,,,,,,,right,4000,0,8.394020090612804e-05,1,1,1,5,None,None,519.4420459000394,519.7496225000359,520.4543875001837,520.7492782999761,None,None,up,0,1.273477700073272,519.5083788000047,None,None,None,,,,,,,wxbjqe,001,0,fr,2022-05-16_18h11.55.766,3-AFC_adaptive_staircase_mess,2022.1.1,30.066037035562026,
,,,,,4,0,4,0,9,0,9,0,,,,,,,,,,,,,,,,left,4000,5,0.00014926913094589803,1,1,1,5,522.306892230059,522.5213693999685,522.2735516000539,522.5831497001927,523.253717500018,523.5758975001518,524.2702373000793,524.5959163999651,left,1,2.8862518998794258,522.3037460001651,None,524.8274622000754,None,,,,,,,wxbjqe,001,0,fr,2022-05-16_18h11.55.766,3-AFC_adaptive_staircase_mess,2022.1.1,30.066037035562026,
,,,,,4,0,4,0,10,0,10,0,,,,,,,,,,,,,,,,left,4000,5,0.00014926913094589803,1,1,1,5,526.7169774301583,526.922068899963,526.6836368001532,527.0040392000228,None,None,None,None,left,1,0.5611658997368068,526.7167840001639,None,None,None,,,,,,,wxbjqe,001,0,fr,2022-05-16_18h11.55.766,3-AFC_adaptive_staircase_mess,2022.1.1,30.066037035562026,
,,,,,4,0,4,0,11,0,11,0,,,,,,,,,,,,,,,,up,4000,-5,4.720304381429618e-05,-1,2,-1,-5.0,None,None,528.7321977000684,529.0493713000324,None,None,None,None,left,0,0.8554996000602841,528.7902347999625,None,None,None,,,,,,,wxbjqe,001,0,fr,2022-05-16_18h11.55.766,3-AFC_adaptive_staircase_mess,2022.1.1,30.066037035562026,
,,,,,4,0,4,0,12,0,12,0,,,,,,,,,,,,,,,,up,4000,-2.5,6.294627058970837e-05,1,3,1,2.5,532.1511387299979,532.3697578001302,531.1199392999988,531.4468994000927,532.1177980999928,532.4317634999752,533.1047811000608,533.4287600000389,up,1,3.495002299780026,531.1506397000048,None,533.662967100041,None,,,,,,,wxbjqe,001,0,fr,2022-05-16_18h11.55.766,3-AFC_adaptive_staircase_mess,2022.1.1,30.066037035562026,
,,,,,4,0,4,0,13,0,13,0,,,,,,,,,,,,,,,,left,4000,-2.5,6.294627058970837e-05,1,3,1,2.5,536.1574180301977,536.3676556001883,536.1240774001926,536.4293121001683,537.1060904001351,537.4295944999903,538.1171897000168,538.4119284001645,up,0,2.6832852999214083,536.1549188001081,None,538.6759427001234,None,,,,,,,wxbjqe,001,0,fr,2022-05-16_18h11.55.766,3-AFC_adaptive_staircase_mess,2022.1.1,30.066037035562026,
,,,,,4,0,4,0,14,0,14,0,,,,,,,,,,,,,,,,right,4000,0.0,8.394020090612804e-05,1,3,1,2.5,542.3796851300867,542.5983639000915,540.3227181001566,540.645311600063,541.315205699997,541.6390229000244,542.3169510001317,542.6250642000232,right,1,2.655181999783963,540.3504874999635,None,542.8586393999867,None,,,,,,,wxbjqe,001,0,fr,2022-05-16_18h11.55.766,3-AFC_adaptive_staircase_mess,2022.1.1,30.066037035562026,
,,,,,4,0,4,0,15,0,15,0,,,,,,,,,,,,,,,,up,4000,0.0,8.394020090612804e-05,1,3,1,2.5,545.530062030186,545.7485613001045,544.4629571000114,544.7563865999691,545.4661799999885,545.7787125001196,None,None,up,1,1.7562722000293434,544.5214117001742,None,None,None,,,,,,,wxbjqe,001,0,fr,2022-05-16_18h11.55.766,3-AFC_adaptive_staircase_mess,2022.1.1,30.066037035562026,
,,,,,4,0,4,0,16,0,16,0,,,,,,,,,,,,,,,,right,4000,-5.0,4.720304381429618e-05,-1,4,-1,-5.0,549.8319375301944,550.0490590999834,547.7628663000651,548.0860713000875,548.7590559001546,549.0588079001755,549.7682060999796,550.0816222000867,right,1,3.5708088998217136,547.8202124000527,None,550.321137699997,None,,,,,,,wxbjqe,001,0,fr,2022-05-16_18h11.55.766,3-AFC_adaptive_staircase_mess,2022.1.1,30.066037035562026,
,,,,,4,0,4,0,17,0,17,0,,,,,,,,,,,,,,,,left,4000,-5.0,4.720304381429618e-05,-1,4,-1,-5.0,552.9184198301518,553.1313678000588,552.8850792001467,553.1854911001865,553.8686308001634,554.1633598001208,554.8645623000339,555.1608764000703,left,1,4.395934099797159,552.9132438001689,None,555.4316750001162,None,,,,,,,wxbjqe,001,0,fr,2022-05-16_18h11.55.766,3-AFC_adaptive_staircase_mess,2022.1.1,30.066037035562026,
,,,,,4,0,4,0,18,0,18,0,,,,,,,,,,,,,,,,left,4000,-10.0,2.6544222211549425e-05,-1,4,-1,-5.0,558.8108361301711,559.0296300000045,558.777495500166,559.0911135000642,559.7654284001328,560.0645879001822,560.7784045001026,None,up,0,1.9525079000741243,558.8051762999967,None,None,None,,,,,,,wxbjqe,001,0,fr,2022-05-16_18h11.55.766,3-AFC_adaptive_staircase_mess,2022.1.1,30.066037035562026,
,,,,,4,0,4,0,19,0,19,0,,,,,,,,,,,,,,,,left,4000,-7.5,3.53972892192069e-05,1,5,1,2.5,562.2608219300164,562.4733310001902,562.2274813000113,562.5297048001084,563.2026442000642,563.4985532001592,564.2074670000002,564.5021304001566,right,0,2.7576804999262094,562.2557690001559,None,564.7651880001649,None,,,,,,,wxbjqe,001,0,fr,2022-05-16_18h11.55.766,3-AFC_adaptive_staircase_mess,2022.1.1,30.066037035562026,
,,,,,4,0,4,0,20,0,20,0,,,,,,,,,,,,,,,,up,4000,-5.0,4.720304381429618e-05,1,5,1,2.5,567.5431283301441,567.7698258000892,566.4848195000086,566.8065163001884,567.481036500074,567.8016676001716,568.4785052000079,568.7931288001128,left,0,2.956815999932587,566.5445881001651,None,569.0326273001265,None,,,,,,,wxbjqe,001,0,fr,2022-05-16_18h11.55.766,3-AFC_adaptive_staircase_mess,2022.1.1,30.066037035562026,
,,,,,4,0,4,0,21,0,21,0,,,,,,,,,,,,,,,,right,4000,-2.5,6.294627058970837e-05,1,5,1,2.5,573.0510105300928,573.2647428000346,570.987335300073,571.3112055000383,571.9987339000218,572.3324476000853,572.989952800097,573.2901122001931,right,1,2.7207810999825597,571.044381499989,None,573.5524648001883,None,,,,,,,wxbjqe,001,0,fr,2022-05-16_18h11.55.766,3-AFC_adaptive_staircase_mess,2022.1.1,30.066037035562026,
,,,,,4,0,4,0,22,0,22,0,,,,,,,,,,,,,,,,left,4000,-2.5,6.294627058970837e-05,1,5,1,2.5,575.2529384301743,575.465953100007,575.2195978001691,575.5201731000561,None,None,None,None,left,1,0.8447840998414904,575.2486326000653,None,None,None,,,,,,,wxbjqe,001,0,fr,2022-05-16_18h11.55.766,3-AFC_adaptive_staircase_mess,2022.1.1,30.066037035562026,
,,,,,4,0,4,0,23,0,23,0,,,,,,,,,,,,,,,,up,4000,-7.5,3.53972892192069e-05,-1,6,-1,-5.0,578.6549977300456,None,577.5975338001736,577.9034403001424,578.592833200004,578.9147819001228,579.5911851001438,579.9026689999737,right,0,2.931728499941528,577.6255446001887,None,580.1354303001426,None,,,,,,,wxbjqe,001,0,fr,2022-05-16_18h11.55.766,3-AFC_adaptive_staircase_mess,2022.1.1,30.066037035562026,
,,,,,5,0,5,0,0,0,0,0,,,,,,,,,,,,,[],[],10,left,6000,30,0.003664122665694519,0,0,-1,10,586.9422822300112,587.1564951001201,586.8755822000094,587.1888036001474,None,None,None,None,left,1,0.5623518999200314,586.9392056001816,None,None,None,up,4.792274299776182,581.6285208000336,None,581.6285208000336,None,wxbjqe,001,0,fr,2022-05-16_18h11.55.766,3-AFC_adaptive_staircase_mess,2022.1.1,30.066037035562026,
,,,,,5,0,5,0,1,0,1,0,,,,,,,,,,,,,,,,right,6000,30,0.003664122665694519,0,0,-1,10,591.0183197300648,591.2276672001462,588.9685747001786,589.2696856001858,589.9489612001926,590.2707568001933,590.9522423001472,591.2596250001807,right,1,2.2686081000138074,589.0008310000412,None,None,None,,,,,,,wxbjqe,001,0,fr,2022-05-16_18h11.55.766,3-AFC_adaptive_staircase_mess,2022.1.1,30.066037035562026,
,,,,,5,0,5,0,2,0,2,0,,,,,,,,,,,,,,,,up,6000,10,0.00036641226656945183,-1,0,-1,-10,593.779600230162,593.9967559999786,592.7402024001349,593.0485591001343,593.7462596001569,594.0586010001134,594.7189511000179,595.0497787001077,up,1,2.578034299891442,592.7718186001293,None,595.2887722000014,None,,,,,,,wxbjqe,001,0,fr,2022-05-16_18h11.55.766,3-AFC_adaptive_staircase_mess,2022.1.1,30.066037035562026,
,,,,,5,0,5,0,3,0,3,0,,,,,,,,,,,,,,,,left,6000,10,0.00036641226656945183,-1,0,-1,-10,596.8825159299886,597.1011883001775,596.8187104000244,597.1333479001187,597.8114041001536,598.1084623001516,598.811005000025,599.1142521000002,left,1,2.640829499810934,596.8765914000105,None,599.3809066000395,None,,,,,,,wxbjqe,001,0,fr,2022-05-16_18h11.55.766,3-AFC_adaptive_staircase_mess,2022.1.1,30.066037035562026,
,,,,,5,0,5,0,4,0,4,0,,,,,,,,,,,,,,,,left,6000,0,0.00011586973249842387,-1,0,-1,-10,601.0567046300275,601.2717226000968,600.9901231999975,601.3037628000602,601.9937321001198,602.3154033001047,603.0009703000542,603.3020951000508,right,0,2.647312699817121,601.0539146000519,None,603.5716364001855,None,,,,,,,wxbjqe,001,0,fr,2022-05-16_18h11.55.766,3-AFC_adaptive_staircase_mess,2022.1.1,30.066037035562026,
,,,,,5,0,5,0,5,0,5,0,,,,,,,,,,,,,,,,up,6000,5,0.000206048759548665,1,1,1,5,606.2381927300012,None,605.1747341000009,605.4718711001333,606.1675660000183,606.4728262000717,607.1717707000207,607.4718639000785,up,1,2.366840099915862,605.2393865000922,None,None,None,,,,,,,wxbjqe,001,0,fr,2022-05-16_18h11.55.766,3-AFC_adaptive_staircase_mess,2022.1.1,30.066037035562026,
,,,,,5,0,5,0,6,0,6,0,,,,,,,,,,,,,,,,left,6000,5,0.000206048759548665,1,1,1,5,609.1405151301296,609.3472420000471,609.0725614000112,609.3797864001244,610.0714819000568,610.3769716999959,611.0752797999885,611.406780899968,left,1,2.849327099742368,609.1406595001463,None,611.6399270000402,None,,,,,,,wxbjqe,001,0,fr,2022-05-16_18h11.55.766,3-AFC_adaptive_staircase_mess,2022.1.1,30.066037035562026,
,,,,,5,0,5,0,7,0,7,0,,,,,,,,,,,,,,,,left,6000,-5,6.515833892261494e-05,-1,2,-1,-5.0,613.5389291300671,None,613.4732715999708,613.8040466001257,614.4701837000903,614.7702039000578,615.4774119001813,615.8037550000008,right,0,2.8195930998772383,613.5381823000498,None,616.0132695001084,None,,,,,,,wxbjqe,001,0,fr,2022-05-16_18h11.55.766,3-AFC_adaptive_staircase_mess,2022.1.1,30.066037035562026,
,,,,,5,0,5,0,8,0,8,0,,,,,,,,,,,,,,,,left,6000,-2.5,8.689004143746872e-05,1,3,1,2.5,617.9113492300967,None,617.844929400133,618.176161200041,618.8413846001495,619.1414801999927,619.8385489999782,620.1446226001717,up,0,2.6617502998560667,617.9120453000069,None,620.3845495001879,None,,,,,,,wxbjqe,001,0,fr,2022-05-16_18h11.55.766,3-AFC_adaptive_staircase_mess,2022.1.1,30.066037035562026,
,,,,,5,0,5,0,9,0,9,0,,,,,,,,,,,,,,,,up,6000,0.0,0.00011586973249842387,1,3,1,2.5,623.1084320301889,623.3265214001294,622.0436361001339,622.3454960000236,623.0445163000841,623.3589000999928,624.0496924000327,624.3598728000652,left,0,2.8212434998713434,622.1032281999942,None,624.5979122000281,None,,,,,,,wxbjqe,001,0,fr,2022-05-16_18h11.55.766,3-AFC_adaptive_staircase_mess,2022.1.1,30.066037035562026,
,,,,,5,0,5,0,10,0,10,0,,,,,,,,,,,,,,,,up,6000,2.5,0.00015451477162567947,1,3,1,2.5,627.4634970301995,627.6932276000734,626.4169278000481,626.7293504001573,627.4301564001944,627.7578758001328,628.4085049000569,628.71936680004,right,0,3.034554800018668,626.4822904001921,None,628.962092900183,None,,,,,,,wxbjqe,001,0,fr,2022-05-16_18h11.55.766,3-AFC_adaptive_staircase_mess,2022.1.1,30.066037035562026,
,,,,,5,0,5,0,11,0,11,0,,,,,,,,,,,,,,,,left,6000,5.0,0.000206048759548665,1,3,1,2.5,631.0452543300344,631.2674720000941,631.0119137000293,631.3276368000079,631.993966500042,632.3245286000893,632.9961145999841,633.3244072000962,up,0,2.9965095999650657,631.0409139001276,None,633.5404028999619,None,,,,,,,wxbjqe,001,0,fr,2022-05-16_18h11.55.766,3-AFC_adaptive_staircase_mess,2022.1.1,30.066037035562026,
,,,,,5,0,5,0,12,0,12,0,,,,,,,,,,,,,,,,right,6000,7.5,0.00027477043692881217,1,3,1,2.5,637.5293912299676,None,635.4873931000475,635.7973019999918,636.4787592999637,636.7946232999675,637.4960505999625,637.7944575999863,left,0,2.7240313997026533,635.5448525999673,None,638.0415261001326,None,,,,,,,wxbjqe,001,0,fr,2022-05-16_18h11.55.766,3-AFC_adaptive_staircase_mess,2022.1.1,30.066037035562026,
,,,,,5,0,5,0,13,0,13,0,,,,,,,,,,,,,,,,left,6000,10.0,0.00036641226656945183,1,3,1,2.5,639.7863271300448,640.010247600032,639.7244212001096,640.0438171001151,640.7372234000359,641.0677275001071,641.727794200182,642.0324045000598,right,0,2.927719899918884,639.782251200173,None,642.2725216001272,None,,,,,,,wxbjqe,001,0,fr,2022-05-16_18h11.55.766,3-AFC_adaptive_staircase_mess,2022.1.1,30.066037035562026,
,,,,,5,0,5,0,14,0,14,0,,,,,,,,,,,,,,,,up,6000,12.5,0.0004886186104779051,1,3,1,2.5,645.2108650301816,645.4298396001104,644.1670880999882,644.4776245001704,645.1775244001765,645.4857578000519,646.1516195000149,646.479234999977,up,1,2.85375879984349,644.1988419999834,None,646.7133130000439,None,,,,,,,wxbjqe,001,0,fr,2022-05-16_18h11.55.766,3-AFC_adaptive_staircase_mess,2022.1.1,30.066037035562026,
,,,,,5,0,5,0,15,0,15,0,,,,,,,,,,,,,,,,right,6000,12.5,0.0004886186104779051,1,3,1,2.5,650.5751801301958,None,648.5126822001766,648.8104272000492,649.5048554001842,649.8133787000552,650.5093068999704,650.8454544001725,right,1,2.666561600053683,648.5784281000961,None,651.083187200129,None,,,,,,,wxbjqe,001,0,fr,2022-05-16_18h11.55.766,3-AFC_adaptive_staircase_mess,2022.1.1,30.066037035562026,
,,,,,5,0,5,0,16,0,16,0,,,,,,,,,,,,,,,,left,6000,7.5,0.00027477043692881217,-1,4,-1,-5.0,652.7751546300715,652.9910600001458,652.7418140000664,653.0514820001554,653.7343390001915,654.045548700029,654.7133770000655,655.0351258001756,right,0,4.5611843997612596,652.7725778999738,None,655.2817749001551,None,,,,,,,wxbjqe,001,0,fr,2022-05-16_18h11.55.766,3-AFC_adaptive_staircase_mess,2022.1.1,30.066037035562026,
,,,,,5,0,5,0,17,0,17,0,,,,,,,,,,,,,,,,up,6000,10.0,0.00036641226656945183,1,5,1,2.5,659.8578488301719,None,658.8108976001386,659.1268806001171,659.8245082001667,660.1258129000198,660.8202249000315,661.1499467999674,up,1,2.359160300111398,658.8698470999952,None,None,None,,,,,,,wxbjqe,001,0,fr,2022-05-16_18h11.55.766,3-AFC_adaptive_staircase_mess,2022.1.1,30.066037035562026,
,,,,,5,0,5,0,18,0,18,0,,,,,,,,,,,,,,,,right,6000,10.0,0.00036641226656945183,1,5,1,2.5,664.7533217301825,664.9685995001346,662.7020831000991,663.0190504000057,663.6913795999717,664.0053878000472,664.6867826001253,665.0006009000354,right,1,2.602235399885103,662.7313461999875,None,665.2482729000039,None,,,,,,,wxbjqe,001,0,fr,2022-05-16_18h11.55.766,3-AFC_adaptive_staircase_mess,2022.1.1,30.066037035562026,
,,,,,5,0,5,0,19,0,19,0,,,,,,,,,,,,,,,,left,6000,5.0,0.000206048759548665,-1,6,-1,-5.0,666.8269463301403,None,666.7625331999734,667.0825853000861,667.7920095000882,668.1199480001815,668.770551300142,669.0689535001293,up,0,2.8004382997751236,666.8292678000871,None,669.3234820000362,None,,,,,,,wxbjqe,001,0,fr,2022-05-16_18h11.55.766,3-AFC_adaptive_staircase_mess,2022.1.1,30.066037035562026,
,,,,,6,0,6,0,0,0,0,0,,,,,,,,,,,,,[],[],10,left,8000,30,0.005740768107484416,0,0,-1,10,672.3908571301727,672.6099034000654,672.3282817001455,672.6418910000939,None,None,None,None,left,1,0.5760033999104053,672.3896257001907,None,None,None,up,1.2087651998735964,670.6778512999881,None,670.6778512999881,None,wxbjqe,001,0,fr,2022-05-16_18h11.55.766,3-AFC_adaptive_staircase_mess,2022.1.1,30.066037035562026,
,,,,,6,0,6,0,1,0,1,0,,,,,,,,,,,,,,,,up,8000,30,0.005740768107484416,0,0,-1,10,675.4776529300725,None,674.4290311001241,674.7262433001306,675.4443123000674,675.7521677999757,None,None,up,1,1.2547037997283041,674.4865578000899,None,None,None,,,,,,,wxbjqe,001,0,fr,2022-05-16_18h11.55.766,3-AFC_adaptive_staircase_mess,2022.1.1,30.066037035562026,
,,,,,6,0,6,0,2,0,2,0,,,,,,,,,,,,,,,,left,8000,10,0.0005740768107484417,-1,0,-1,-10,677.2637877300149,677.483044099994,677.2304471000098,677.5402792000677,678.2246880000457,678.5324719999917,679.2095191001426,679.5076033000369,right,0,2.8234195997938514,677.2628536999691,None,679.7795167001896,None,,,,,,,wxbjqe,001,0,fr,2022-05-16_18h11.55.766,3-AFC_adaptive_staircase_mess,2022.1.1,30.066037035562026,
,,,,,6,0,6,0,3,0,3,0,,,,,,,,,,,,,,,,up,8000,15,0.001020868972334765,1,1,1,5,682.603892430081,682.8212633000221,681.562169500161,681.8593237001915,682.5410029001068,682.8493826000486,683.5476286001503,683.8456741000991,up,1,2.806903599994257,681.5921082000714,None,684.1142453001812,None,,,,,,,wxbjqe,001,0,fr,2022-05-16_18h11.55.766,3-AFC_adaptive_staircase_mess,2022.1.1,30.066037035562026,
,,,,,6,0,6,0,4,0,4,0,,,,,,,,,,,,,,,,up,8000,15,0.001020868972334765,1,1,1,5,686.9166365301935,687.1332795000635,685.852879300015,686.1602899001446,686.8540748001542,687.1600681000855,687.8641766000073,688.1644856999628,up,1,2.6900914998259395,685.9151745000854,None,688.4283655001782,None,,,,,,,wxbjqe,001,0,fr,2022-05-16_18h11.55.766,3-AFC_adaptive_staircase_mess,2022.1.1,30.066037035562026,
,,,,,6,0,6,0,5,0,5,0,,,,,,,,,,,,,,,,right,8000,5,0.00032282711451732784,-1,2,-1,-5.0,692.1397801301209,692.3640503999777,690.0777947001625,690.3796256000642,691.0771363000385,691.3870439999737,692.0788644000422,692.3967600001488,up,0,3.0163791000377387,690.1414602000732,None,692.6341318001505,None,,,,,,,wxbjqe,001,0,fr,2022-05-16_18h11.55.766,3-AFC_adaptive_staircase_mess,2022.1.1,30.066037035562026,
,,,,,6,0,6,0,6,0,6,0,,,,,,,,,,,,,,,,right,8000,7.5,0.00043049687609230037,1,3,1,2.5,696.6843917301157,696.9002235000953,694.6052584999707,694.9162374001462,695.6252455001231,695.9266143999994,696.6218415000476,696.9291771000717,right,1,2.8145362997893244,694.6628058999777,None,697.1619719001465,None,,,,,,,wxbjqe,001,0,fr,2022-05-16_18h11.55.766,3-AFC_adaptive_staircase_mess,2022.1.1,30.066037035562026,
,,,,,6,0,6,0,7,0,7,0,,,,,,,,,,,,,,,,right,8000,7.5,0.00043049687609230037,1,3,1,2.5,700.9690099301515,701.1886242001783,698.941271299962,699.2365113000851,699.9378768000752,700.260836499976,700.9356693001464,701.2415164001286,left,0,3.2735776999033988,698.9712641001679,None,701.4756453000009,None,,,,,,,wxbjqe,001,0,fr,2022-05-16_18h11.55.766,3-AFC_adaptive_staircase_mess,2022.1.1,30.066037035562026,
,,,,,6,0,6,0,8,0,8,0,,,,,,,,,,,,,,,,left,8000,10.0,0.0005740768107484417,1,3,1,2.5,703.7671438300749,703.9776577001903,703.7017042001244,704.004902300192,704.6851115999743,704.9841716999654,705.6965679000132,705.9903935000766,left,1,2.305604699999094,703.7642807001248,None,None,None,,,,,,,wxbjqe,001,0,fr,2022-05-16_18h11.55.766,3-AFC_adaptive_staircase_mess,2022.1.1,30.066037035562026,
,,,,,6,0,6,0,9,0,9,0,,,,,,,,,,,,,,,,up,8000,10.0,0.0005740768107484417,1,3,1,2.5,708.5927974301158,708.812099999981,707.5263899001293,707.8268206999637,708.5308403000236,708.8409182000905,None,None,up,1,1.7064724997617304,707.5868459001649,None,None,None,,,,,,,wxbjqe,001,0,fr,2022-05-16_18h11.55.766,3-AFC_adaptive_staircase_mess,2022.1.1,30.066037035562026,
,,,,,6,0,6,0,10,0,10,0,,,,,,,,,,,,,,,,left,8000,5.0,0.00032282711451732784,-1,4,-1,-5.0,710.821932130144,711.0473685001489,710.7885915001389,711.1121525999624,711.7875201001298,712.0894407001324,712.7885247999802,713.0899034000468,right,0,3.786341399885714,710.8189968001097,None,713.3255149000324,None,,,,,,,wxbjqe,001,0,fr,2022-05-16_18h11.55.766,3-AFC_adaptive_staircase_mess,2022.1.1,30.066037035562026,
,,,,,6,0,6,0,11,0,11,0,,,,,,,,,,,,,,,,right,8000,7.5,0.00043049687609230037,1,5,1,2.5,718.1468578301137,718.3660608001519,716.089201600058,716.3818785999902,717.0887268001679,717.412746499991,718.0828039001208,718.3930587000214,up,0,2.647874599788338,716.1177342000883,None,718.6305264001712,None,,,,,,,wxbjqe,001,0,fr,2022-05-16_18h11.55.766,3-AFC_adaptive_staircase_mess,2022.1.1,30.066037035562026,
,,,,,6,0,6,0,12,0,12,0,,,,,,,,,,,,,,,,left,8000,10.0,0.0005740768107484417,1,5,1,2.5,720.2949854301987,720.5112618000712,720.2616448001936,720.5724951999728,721.2529609999619,None,None,None,left,1,1.034264100017026,720.2908698001411,None,None,None,,,,,,,wxbjqe,001,0,fr,2022-05-16_18h11.55.766,3-AFC_adaptive_staircase_mess,2022.1.1,30.066037035562026,
,,,,,6,0,6,0,13,0,13,0,,,,,,,,,,,,,,,,right,8000,10.0,0.0005740768107484417,1,5,1,2.5,724.8571256300202,None,722.8272500999738,723.1265010000207,723.8302859000396,724.1304600001313,724.7970009001438,725.1169467000291,right,1,2.6876826998777688,722.8535949001089,None,725.3553739001509,None,,,,,,,wxbjqe,001,0,fr,2022-05-16_18h11.55.766,3-AFC_adaptive_staircase_mess,2022.1.1,30.066037035562026,
,,,,,6,0,6,0,14,0,14,0,,,,,,,,,,,,,,,,right,8000,5.0,0.00032282711451732784,-1,6,-1,-5.0,729.0598653299967,None,727.0259774001315,727.329173500184,728.0207899000961,728.3457758000586,729.0265246999916,729.3526384001598,up,0,4.389051500009373,727.0560029000044,None,729.5655634000432,None,,,,,,,wxbjqe,001,0,fr,2022-05-16_18h11.55.766,3-AFC_adaptive_staircase_mess,2022.1.1,30.066037035562026,
,,,,,7,0,7,0,0,0,0,0,,,,,,,,,,,,,[],[],10,left,750,30,0.0012851978913844323,0,0,-1,10,739.257060030126,739.4645819000434,739.1956305999774,739.4966598001774,None,None,None,None,left,1,0.8054096999112517,739.2568570000585,None,None,None,right,6.2379439999349415,732.5189495000523,None,732.5189495000523,None,wxbjqe,001,0,fr,2022-05-16_18h11.55.766,3-AFC_adaptive_staircase_mess,2022.1.1,30.066037035562026,
,,,,,7,0,7,0,1,0,1,0,,,,,,,,,,,,,,,,up,750,30,0.0012851978913844323,0,0,-1,10,742.5804592299974,742.7993781000841,741.5362911000848,741.8320442000404,742.5265326001681,742.832479499979,None,None,up,1,1.290953400079161,741.5945024001412,None,None,None,,,,,,,wxbjqe,001,0,fr,2022-05-16_18h11.55.766,3-AFC_adaptive_staircase_mess,2022.1.1,30.066037035562026,
,,,,,7,0,7,0,2,0,2,0,,,,,,,,,,,,,,,,left,750,10,0.00012851978913844324,-1,0,-1,-10,744.4434369300725,744.6650161000434,744.3809299999848,744.6920640000608,None,None,None,None,left,1,0.5096955997869372,744.4390718999784,None,None,None,,,,,,,wxbjqe,001,0,fr,2022-05-16_18h11.55.766,3-AFC_adaptive_staircase_mess,2022.1.1,30.066037035562026,
,,,,,7,0,7,0,3,0,3,0,,,,,,,,,,,,,,,,right,750,10,0.00012851978913844324,-1,0,-1,-10,748.4403128301492,748.6539018000476,746.4196238000877,746.7307800000999,747.4032897001598,747.723060999997,748.4069722001441,748.7075126999989,right,1,2.380679699825123,746.448333900189,None,None,None,,,,,,,wxbjqe,001,0,fr,2022-05-16_18h11.55.766,3-AFC_adaptive_staircase_mess,2022.1.1,30.066037035562026,
,,,,,7,0,7,0,4,0,4,0,,,,,,,,,,,,,,,,up,750,0,4.064152580820497e-05,-1,0,-1,-10,751.344421530026,751.5607875999995,750.3119954001158,750.6360389001202,751.3110809000209,751.6155024000909,752.3008491999935,752.6210024000611,left,0,3.135885799769312,750.3411126001738,None,752.8619015000295,None,,,,,,,wxbjqe,001,0,fr,2022-05-16_18h11.55.766,3-AFC_adaptive_staircase_mess,2022.1.1,30.066037035562026,
,,,,,7,0,7,0,5,0,5,0,,,,,,,,,,,,,,,,right,750,5,7.22719885372964e-05,1,1,1,5,None,None,754.9727149000391,755.260140000144,755.9744649000932,756.2761341000441,None,None,up,0,1.3364054998382926,755.0376188000664,None,None,None,,,,,,,wxbjqe,001,0,fr,2022-05-16_18h11.55.766,3-AFC_adaptive_staircase_mess,2022.1.1,30.066037035562026,
,,,,,7,0,7,0,6,0,6,0,,,,,,,,,,,,,,,,left,750,10,0.00012851978913844324,1,1,1,5,757.9116154300282,758.1312443001661,757.8502581000794,758.1471049000975,None,None,None,None,left,1,0.36788340006023645,757.9091998001095,None,None,None,,,,,,,wxbjqe,001,0,fr,2022-05-16_18h11.55.766,3-AFC_adaptive_staircase_mess,2022.1.1,30.066037035562026,
,,,,,7,0,7,0,7,0,7,0,,,,,,,,,,,,,,,,left,750,10,0.00012851978913844324,1,1,1,5,759.8103251300054,760.0262003999669,759.7475755000487,760.0540820001625,760.7696247000713,None,None,None,left,1,0.9838433999102563,759.7975523001514,None,None,None,,,,,,,wxbjqe,001,0,fr,2022-05-16_18h11.55.766,3-AFC_adaptive_staircase_mess,2022.1.1,30.066037035562026,
,,,,,7,0,7,0,8,0,8,0,,,,,,,,,,,,,,,,left,750,0,4.064152580820497e-05,-1,2,-1,-5.0,762.3010494300397,762.5132782000583,762.2677088000346,762.5733034000732,763.2542882000562,763.5558853000402,764.2581244001631,764.5851498001721,right,0,2.3056446998380125,762.3008346999995,None,None,None,,,,,,,wxbjqe,001,0,fr,2022-05-16_18h11.55.766,3-AFC_adaptive_staircase_mess,2022.1.1,30.066037035562026,
,,,,,7,0,7,0,9,0,9,0,,,,,,,,,,,,,,,,right,750,2.5,5.419634570106019e-05,1,3,1,2.5,None,None,766.0968170000706,766.3965324000455,767.1001709001139,767.418578900164,None,None,up,0,1.5403748999815434,766.1282926001586,None,None,None,,,,,,,wxbjqe,001,0,fr,2022-05-16_18h11.55.766,3-AFC_adaptive_staircase_mess,2022.1.1,30.066037035562026,
,,,,,7,0,7,0,10,0,10,0,,,,,,,,,,,,,,,,right,750,5.0,7.22719885372964e-05,1,3,1,2.5,771.1574873301433,771.3720117001794,769.1209727001842,769.4066026001237,770.1272864001803,770.4409289001487,771.1241467001382,771.4266966001596,right,1,2.5246191998012364,769.1846002000384,None,771.6606881001499,None,,,,,,,wxbjqe,001,0,fr,2022-05-16_18h11.55.766,3-AFC_adaptive_staircase_mess,2022.1.1,30.066037035562026,
,,,,,7,0,7,0,11,0,11,0,,,,,,,,,,,,,,,,right,750,5.0,7.22719885372964e-05,1,3,1,2.5,775.2408585300436,775.4540177001618,773.182126400061,773.4781926001888,774.1714343000203,774.4952200001571,775.1766220000573,775.4827782001812,right,1,2.3726170998997986,773.240899000084,None,None,None,,,,,,,wxbjqe,001,0,fr,2022-05-16_18h11.55.766,3-AFC_adaptive_staircase_mess,2022.1.1,30.066037035562026,
,,,,,7,0,7,0,12,0,12,0,,,,,,,,,,,,,,,,right,750,0.0,4.064152580820497e-05,-1,4,-1,-5.0,779.139891630155,779.3526849001646,777.0925333001651,777.418464000104,778.0899205000605,778.3981276999693,779.0768413001206,779.3794682000298,left,0,2.7429363999981433,777.119689000072,None,779.6183911999688,None,,,,,,,wxbjqe,001,0,fr,2022-05-16_18h11.55.766,3-AFC_adaptive_staircase_mess,2022.1.1,30.066037035562026,
,,,,,7,0,7,0,13,0,13,0,,,,,,,,,,,,,,,,up,750,2.5,5.419634570106019e-05,1,5,1,2.5,782.3751231300412,None,781.354893000098,781.6781220000703,782.3417825000361,782.671531900065,None,None,up,1,1.5621221999172121,781.3867220999673,None,None,None,,,,,,,wxbjqe,001,0,fr,2022-05-16_18h11.55.766,3-AFC_adaptive_staircase_mess,2022.1.1,30.066037035562026,
,,,,,7,0,7,0,14,0,14,0,,,,,,,,,,,,,,,,right,750,2.5,5.419634570106019e-05,1,5,1,2.5,786.4967705301242,786.7103148000315,784.4361358000897,784.7391868999694,785.4383094999939,785.7235638001002,786.4361690001097,786.7377649999689,right,1,2.4264363998081535,784.498732100008,None,786.9756538301008,None,,,,,,,wxbjqe,001,0,fr,2022-05-16_18h11.55.766,3-AFC_adaptive_staircase_mess,2022.1.1,30.066037035562026,
,,,,,7,0,7,0,15,0,15,0,,,,,,,,,,,,,,,,up,750,-2.5,3.0476844862008466e-05,-1,6,-1,-5.0,789.4657246301649,789.6817781000864,788.4075142000802,788.7314181001857,789.4323840001598,789.7348713001702,790.3959171001334,790.7044026001822,left,0,3.2163095998112112,788.4694575001486,None,790.9691253001802,None,,,,,,,wxbjqe,001,0,fr,2022-05-16_18h11.55.766,3-AFC_adaptive_staircase_mess,2022.1.1,30.066037035562026,
,,,,,8,0,8,0,0,0,0,0,,,,,,,,,,,,,[],[],10,right,500,30,0.002259279721874612,0,0,-1,10,796.5097341301152,796.7177485001739,794.4607710000128,794.7566682000179,795.4583002000581,795.7811811000574,796.4430193000007,796.7430639001541,right,1,2.3383412996772677,794.4901187000796,None,None,None,left,1.2280400998424739,792.7613544000778,None,792.7613544000778,None,wxbjqe,001,0,fr,2022-05-16_18h11.55.766,3-AFC_adaptive_staircase_mess,2022.1.1,30.066037035562026,
,,,,,8,0,8,0,1,0,1,0,,,,,,,,,,,,,,,,left,500,30,0.002259279721874612,0,0,-1,10,798.3368451300776,None,798.2835077000782,798.5979371001013,None,None,None,None,left,1,0.5314394996967167,798.346069799969,None,None,None,,,,,,,wxbjqe,001,0,fr,2022-05-16_18h11.55.766,3-AFC_adaptive_staircase_mess,2022.1.1,30.066037035562026,
,,,,,8,0,8,0,2,0,2,0,,,,,,,,,,,,,,,,up,500,10,0.0002259279721874612,-1,0,-1,-10,801.3867709300248,801.6010090000927,800.3511491999961,800.6772815000731,801.3534303000197,801.6610725000501,None,None,up,1,1.3259825999848545,800.4065402001143,None,None,None,,,,,,,wxbjqe,001,0,fr,2022-05-16_18h11.55.766,3-AFC_adaptive_staircase_mess,2022.1.1,30.066037035562026,
,,,,,8,0,8,0,3,0,3,0,,,,,,,,,,,,,,,,right,500,10,0.0002259279721874612,-1,0,-1,-10,805.2589971300913,805.4743014001288,803.1995351000223,803.5362086000387,804.1980998001527,804.4992343001068,805.1982140999753,805.5010886001401,right,1,2.3861348999198526,803.2269818000495,None,None,None,,,,,,,wxbjqe,001,0,fr,2022-05-16_18h11.55.766,3-AFC_adaptive_staircase_mess,2022.1.1,30.066037035562026,
,,,,,8,0,8,0,4,0,4,0,,,,,,,,,,,,,,,,left,500,0,7.144469792555515e-05,-1,0,-1,-10,807.1032540301094,None,807.0699134001043,807.3950877999887,None,None,None,None,left,1,0.6098550998140126,807.099016000051,None,None,None,,,,,,,wxbjqe,001,0,fr,2022-05-16_18h11.55.766,3-AFC_adaptive_staircase_mess,2022.1.1,30.066037035562026,
,,,,,8,0,8,0,5,0,5,0,,,,,,,,,,,,,,,,right,500,0,7.144469792555515e-05,-1,0,-1,-10,811.2293207301991,811.4471881999634,809.1681723000947,809.4887182000093,810.1615588001441,810.4540312001482,811.1655170000158,811.4776600999758,right,1,2.589625399792567,809.2320413000416,None,811.740942500066,None,,,,,,,wxbjqe,001,0,fr,2022-05-16_18h11.55.766,3-AFC_adaptive_staircase_mess,2022.1.1,30.066037035562026,
,,,,,8,0,8,0,6,0,6,0,,,,,,,,,,,,,,,,up,500,-10,2.259279721874613e-05,-1,0,-1,-10,814.3499249300221,814.5574282000307,813.2937787000556,813.6148566000629,814.2887620001566,814.5735584001523,815.29490980017,815.6169273001142,right,0,4.370970299933106,813.353880800074,None,815.8519066001754,None,,,,,,,wxbjqe,001,0,fr,2022-05-16_18h11.55.766,3-AFC_adaptive_staircase_mess,2022.1.1,30.066037035562026,
,,,,,8,0,8,0,7,0,7,0,,,,,,,,,,,,,,,,up,500,-5,4.017630610928089e-05,1,1,1,5,820.2620484301588,820.4758373000659,819.2056764001027,819.5029741001781,820.2006535001565,820.5012356999796,821.2057110001333,821.5278006000444,left,0,2.4208827998954803,819.2641180001665,None,None,None,,,,,,,wxbjqe,001,0,fr,2022-05-16_18h11.55.766,3-AFC_adaptive_staircase_mess,2022.1.1,30.066037035562026,
,,,,,8,0,8,0,8,0,8,0,,,,,,,,,,,,,,,,right,500,0,7.144469792555515e-05,1,1,1,5,825.2210287301568,825.4301853000652,823.1589283000212,823.4809509001207,824.1456398000009,824.4498259001411,825.1527231000364,825.4575676000677,right,1,2.948591399937868,823.216690100031,None,825.7184810000472,None,,,,,,,wxbjqe,001,0,fr,2022-05-16_18h11.55.766,3-AFC_adaptive_staircase_mess,2022.1.1,30.066037035562026,
,,,,,8,0,8,0,9,0,9,0,,,,,,,,,,,,,,,,right,500,0,7.144469792555515e-05,1,1,1,5,829.7151936300797,829.9339082001243,827.6508760000579,827.9526895000599,828.6499793000985,828.9495490000118,829.6512713001575,829.9638781000394,right,1,2.5214219999033958,827.7156144001056,None,830.2060579999816,None,,,,,,,wxbjqe,001,0,fr,2022-05-16_18h11.55.766,3-AFC_adaptive_staircase_mess,2022.1.1,30.066037035562026,
,,,,,8,0,8,0,10,0,10,0,,,,,,,,,,,,,,,,left,500,-10,2.259279721874613e-05,-1,2,-1,-5.0,831.7221871301299,None,831.6888465001248,831.9872702001594,832.6864110000897,832.9898373000324,833.6668978000525,833.9884042001795,up,0,2.651088299928233,831.7213791001122,None,834.2234651001636,None,,,,,,,wxbjqe,001,0,fr,2022-05-16_18h11.55.766,3-AFC_adaptive_staircase_mess,2022.1.1,30.066037035562026,
,,,,,8,0,8,0,11,0,11,0,,,,,,,,,,,,,,,,right,500,-7.5,3.0127979303717903e-05,1,3,1,2.5,837.9080800301163,838.1172946000006,835.854946800042,836.1476086999755,836.8487927999813,837.143807400018,837.8480391001794,838.13350180001,right,1,2.542761999880895,835.9106844000053,None,838.4040477001108,None,,,,,,,wxbjqe,001,0,fr,2022-05-16_18h11.55.766,3-AFC_adaptive_staircase_mess,2022.1.1,30.066037035562026,
,,,,,8,0,8,0,12,0,12,0,,,,,,,,,,,,,,,,right,500,-7.5,3.0127979303717903e-05,1,3,1,2.5,841.9676094300812,842.1849062000401,839.9267019000836,840.2250737000722,840.9305064000655,841.2521960001905,841.9342688000761,842.2395411999896,right,1,2.5676994998939335,839.9890468001831,None,842.4745116000995,None,,,,,,,wxbjqe,001,0,fr,2022-05-16_18h11.55.766,3-AFC_adaptive_staircase_mess,2022.1.1,30.066037035562026,
,,,,,8,0,8,0,13,0,13,0,,,,,,,,,,,,,,,,left,500,-12.5,1.6942207806960138e-05,-1,4,-1,-5.0,844.0820535301464,844.2981519000605,844.0184796000831,844.3256105000619,845.0315052999649,845.3241934999824,846.0333461000118,846.326097200159,left,1,2.8232150997500867,844.0779596001375,None,846.5638902001083,None,,,,,,,wxbjqe,001,0,fr,2022-05-16_18h11.55.766,3-AFC_adaptive_staircase_mess,2022.1.1,30.066037035562026,
,,,,,8,0,8,0,14,0,14,0,,,,,,,,,,,,,,,,left,500,-12.5,1.6942207806960138e-05,-1,4,-1,-5.0,848.4222776301904,None,848.3601295000408,848.6827128999867,849.3713678000495,849.6711518000811,850.3709168001078,850.6744378001895,left,1,2.8980797997210175,848.4180787999649,None,850.9176896000281,None,,,,,,,wxbjqe,001,0,fr,2022-05-16_18h11.55.766,3-AFC_adaptive_staircase_mess,2022.1.1,30.066037035562026,
,,,,,8,0,8,0,15,0,15,0,,,,,,,,,,,,,,,,up,500,-17.5,9.52730358981624e-06,-1,4,-1,-5.0,853.8773891300661,None,852.8043739001732,853.0990874001291,853.8111721000168,854.1321354000829,854.8071341000032,855.1008305000141,right,0,2.621614299947396,852.8627919000573,None,855.3647466001566,None,,,,,,,wxbjqe,001,0,fr,2022-05-16_18h11.55.766,3-AFC_adaptive_staircase_mess,2022.1.1,30.066037035562026,
,,,,,8,0,8,0,16,0,16,0,,,,,,,,,,,,,,,,left,500,-15.0,1.2704863527746532e-05,1,5,1,2.5,857.0417803301243,857.2608342000749,856.9774605000857,857.2926364000887,857.9692077999935,858.2637606000062,858.9961930001155,859.3160021000076,right,0,2.888899799901992,857.0359228001907,None,859.5314470999874,None,,,,,,,wxbjqe,001,0,fr,2022-05-16_18h11.55.766,3-AFC_adaptive_staircase_mess,2022.1.1,30.066037035562026,
,,,,,8,0,8,0,17,0,17,0,,,,,,,,,,,,,,,,left,500,-12.5,1.6942207806960138e-05,1,5,1,2.5,861.4667805301724,None,861.4042209000327,861.7282200001646,862.4314111999702,862.7523863001261,863.4028986000922,863.7050602000672,up,0,4.246610599802807,861.4624134001788,None,863.9709775000811,None,,,,,,,wxbjqe,001,0,fr,2022-05-16_18h11.55.766,3-AFC_adaptive_staircase_mess,2022.1.1,30.066037035562026,
,,,,,8,0,8,0,18,0,18,0,,,,,,,,,,,,,,,,left,500,-10.0,2.259279721874613e-05,1,5,1,2.5,867.2378799301805,867.4644808999728,867.1755602001213,867.4966053001117,868.1782484999858,868.490453600185,869.1957319001667,869.5216636001132,right,0,3.5401103999465704,867.2334875001106,None,869.7529830001295,None,,,,,,,wxbjqe,001,0,fr,2022-05-16_18h11.55.766,3-AFC_adaptive_staircase_mess,2022.1.1,30.066037035562026,
,,,,,8,0,8,0,19,0,19,0,,,,,,,,,,,,,,,,up,500,-7.5,3.0127979303717903e-05,1,5,1,2.5,873.328356830054,873.5390757999849,872.2443141001277,872.5611962999683,873.2628480000421,873.5711903001647,874.2551115001552,874.5629404000938,right,0,2.6149870997760445,872.3024679999799,None,874.7989606000483,None,,,,,,,wxbjqe,001,0,fr,2022-05-16_18h11.55.766,3-AFC_adaptive_staircase_mess,2022.1.1,30.066037035562026,
,,,,,8,0,8,0,20,0,20,0,,,,,,,,,,,,,,,,up,500,-5.0,4.017630610928089e-05,1,5,1,2.5,877.468836830114,877.6802606000565,876.3959456000011,876.710290200077,877.4028837000951,877.7108713001944,878.3980864000041,878.7200746000744,up,1,2.3913681998383254,876.4539141000714,None,None,None,,,,,,,wxbjqe,001,0,fr,2022-05-16_18h11.55.766,3-AFC_adaptive_staircase_mess,2022.1.1,30.066037035562026,
,,,,,8,0,8,0,21,0,21,0,,,,,,,,,,,,,,,,right,500,-5.0,4.017630610928089e-05,1,5,1,2.5,882.3846863299841,882.5946414000355,880.327863200102,880.6367540999781,881.333661200013,881.636520500062,882.3223401000723,882.621637500124,right,1,2.5229783998802304,880.3859270999674,None,882.8830411999952,None,,,,,,,wxbjqe,001,0,fr,2022-05-16_18h11.55.766,3-AFC_adaptive_staircase_mess,2022.1.1,30.066037035562026,
,,,,,8,0,8,0,22,0,22,0,,,,,,,,,,,,,,,,right,500,-10.0,2.259279721874613e-05,-1,6,-1,-5.0,886.424769030069,886.6433869001921,884.3581606000662,884.6734778999817,885.3635383001529,885.6739511000924,886.3633938001003,886.6699839001521,left,0,3.2028012997470796,884.4176044000778,None,886.9400083001237,None,,,,,,,wxbjqe,001,0,fr,2022-05-16_18h11.55.766,3-AFC_adaptive_staircase_mess,2022.1.1,30.066037035562026,
,,,,,9,0,9,0,0,0,0,0,,,,,,,,,,,,,[],[],10,up,250,30,0.005296268625886445,0,0,1,10,899.111102630035,899.3355570000131,898.0573024000041,898.387459800113,899.0501817001496,899.3679951000959,None,None,right,0,1.4820528998970985,898.1229887001682,None,None,None,right,8.907494499813765,888.713670300087,None,888.713670300087,None,wxbjqe,001,0,fr,2022-05-16_18h11.55.766,3-AFC_adaptive_staircase_mess,2022.1.1,30.066037035562026,
,,,,,9,0,9,0,1,0,1,0,,,,,,,,,,,,,,,,up,250,40,0.016748271957891383,1,0,1,10,902.1259786301525,None,901.0894614001736,901.3906031001825,902.0926380001474,902.4005031001288,None,None,up,1,1.389612999977544,901.1200372001622,None,None,None,,,,,,,wxbjqe,001,0,fr,2022-05-16_18h11.55.766,3-AFC_adaptive_staircase_mess,2022.1.1,30.066037035562026,
,,,,,9,0,9,0,2,0,2,0,,,,,,,,,,,,,,,,right,250,40,0.016748271957891383,1,0,1,10,906.0316451300168,None,903.9890533001162,904.2935340001713,904.9663972000126,905.2960202000104,905.9655383999925,906.2980786000844,right,1,2.277870199875906,904.0163946000393,None,None,None,,,,,,,wxbjqe,001,0,fr,2022-05-16_18h11.55.766,3-AFC_adaptive_staircase_mess,2022.1.1,30.066037035562026,
,,,,,9,0,9,0,3,0,3,0,,,,,,,,,,,,,,,,right,250,20,0.0016748271957891384,-1,1,-1,-10,909.8184389300877,910.0405149001162,907.7636166000739,908.0639196000993,908.7558191001881,909.0646152000409,909.7559850001708,910.0736553000752,right,1,2.4314430998638272,907.8303925001528,None,None,None,,,,,,,wxbjqe,001,0,fr,2022-05-16_18h11.55.766,3-AFC_adaptive_staircase_mess,2022.1.1,30.066037035562026,
,,,,,9,0,9,0,4,0,4,0,,,,,,,,,,,,,,,,right,250,20,0.0016748271957891384,-1,1,-1,-10,913.8028394301655,None,911.7299794000573,912.0348263001069,912.7250082001556,913.0357153001241,913.7366584001575,914.0547633999959,right,1,2.371814499842003,911.7869008001871,None,None,None,,,,,,,wxbjqe,001,0,fr,2022-05-16_18h11.55.766,3-AFC_adaptive_staircase_mess,2022.1.1,30.066037035562026,
,,,,,9,0,9,0,5,0,5,0,,,,,,,,,,,,,,,,right,250,10,0.0005296268625886444,-1,1,-1,-10,917.6741928301053,None,915.6284283001442,915.9384363000281,916.6126688001677,916.9122860000934,917.6093532000668,917.9251805001404,right,1,2.3157558997627348,915.6574387999717,None,None,None,,,,,,,wxbjqe,001,0,fr,2022-05-16_18h11.55.766,3-AFC_adaptive_staircase_mess,2022.1.1,30.066037035562026,
,,,,,9,0,9,0,6,0,6,0,,,,,,,,,,,,,,,,right,250,10,0.0005296268625886444,-1,1,-1,-10,921.4779739301885,None,919.4418002001476,919.7435475001112,920.4426316001918,920.744391300017,921.4446333001833,921.7572326001246,right,1,2.499695499893278,919.4743012001272,None,921.9692429001443,None,,,,,,,wxbjqe,001,0,fr,2022-05-16_18h11.55.766,3-AFC_adaptive_staircase_mess,2022.1.1,30.066037035562026,
,,,,,9,0,9,0,7,0,7,0,,,,,,,,,,,,,,,,up,250,0,0.0001674827195789138,-1,1,-1,-10,924.5151021300117,924.7278042000253,923.4783900000621,923.7804293001536,924.449169700034,924.7607361001428,925.4576114001684,925.7806251000147,right,0,3.15744400001131,923.5116799001116,None,926.0218060000334,None,,,,,,,wxbjqe,001,0,fr,2022-05-16_18h11.55.766,3-AFC_adaptive_staircase_mess,2022.1.1,30.066037035562026,
,,,,,9,0,9,0,8,0,8,0,,,,,,,,,,,,,,,,left,250,5,0.0002978310717645052,1,2,1,2.5,928.2170622301055,None,928.1511686001904,928.4677389001008,None,None,None,None,left,1,0.6604756996966898,928.2163766999729,None,None,None,,,,,,,wxbjqe,001,0,fr,2022-05-16_18h11.55.766,3-AFC_adaptive_staircase_mess,2022.1.1,30.066037035562026,
,,,,,9,0,9,0,9,0,9,0,,,,,,,,,,,,,,,,right,250,5,0.0002978310717645052,1,2,1,2.5,932.4041153300786,None,930.3300862000324,930.6524196001701,931.3538048001938,931.6584573001601,932.3415290999692,932.6675066000316,right,1,2.271453300025314,930.3899853001349,None,None,None,,,,,,,wxbjqe,001,0,fr,2022-05-16_18h11.55.766,3-AFC_adaptive_staircase_mess,2022.1.1,30.066037035562026,
,,,,,9,0,9,0,10,0,10,0,,,,,,,,,,,,,,,,left,250,0.0,0.0001674827195789138,-1,3,-1,-5.0,934.1909637300996,None,934.1249556001276,934.4517897001933,935.1147446001414,935.4236565001775,936.1265524001792,936.4332977000158,right,0,2.454581799916923,934.1902773000766,None,936.6801501301816,None,,,,,,,wxbjqe,001,0,fr,2022-05-16_18h11.55.766,3-AFC_adaptive_staircase_mess,2022.1.1,30.066037035562026,
,,,,,9,0,9,0,11,0,11,0,,,,,,,,,,,,,,,,left,250,2.5,0.0002233417960754815,1,4,1,2.5,938.14778123016,None,938.0849656001665,938.4073545001447,None,None,None,None,left,1,0.5652748998254538,938.1439171000384,None,None,None,,,,,,,wxbjqe,001,0,fr,2022-05-16_18h11.55.766,3-AFC_adaptive_staircase_mess,2022.1.1,30.066037035562026,
,,,,,9,0,9,0,12,0,12,0,,,,,,,,,,,,,,,,up,250,2.5,0.0002233417960754815,1,4,1,2.5,941.2094519300153,None,940.1732765000779,940.5007513000164,941.1761113000102,941.4745066000614,942.1758300000802,None,right,0,2.2526768997777253,940.2014219001867,None,None,None,,,,,,,wxbjqe,001,0,fr,2022-05-16_18h11.55.766,3-AFC_adaptive_staircase_mess,2022.1.1,30.066037035562026,
,,,,,9,0,9,0,13,0,13,0,,,,,,,,,,,,,,,,left,250,5.0,0.0002978310717645052,1,4,1,2.5,943.9994148301193,944.2206886999775,943.9332883001771,944.2497739000246,None,None,None,None,left,1,0.6940558997448534,943.998644700041,None,None,None,,,,,,,wxbjqe,001,0,fr,2022-05-16_18h11.55.766,3-AFC_adaptive_staircase_mess,2022.1.1,30.066037035562026,
,,,,,9,0,9,0,14,0,14,0,,,,,,,,,,,,,,,,right,250,5.0,0.0002978310717645052,1,4,1,2.5,948.2028710300801,None,946.1419975000899,946.4676516000181,947.1407942001242,947.4663434000686,948.169530400075,948.481461700052,left,0,2.639774000039324,946.2059914001729,None,948.7016051001847,None,,,,,,,wxbjqe,001,0,fr,2022-05-16_18h11.55.766,3-AFC_adaptive_staircase_mess,2022.1.1,30.066037035562026,
,,,,,9,0,9,0,15,0,15,0,,,,,,,,,,,,,,,,right,250,7.5,0.0003971641173621407,1,4,1,2.5,952.3752221300965,None,950.3020449001342,950.6055483000819,951.3028061001096,951.6070859001484,952.3092784001492,952.6284135000315,right,1,2.301457299850881,950.3594069001265,None,None,None,,,,,,,wxbjqe,001,0,fr,2022-05-16_18h11.55.766,3-AFC_adaptive_staircase_mess,2022.1.1,30.066037035562026,
,,,,,9,0,9,0,16,0,16,0,,,,,,,,,,,,,,,,right,250,7.5,0.0003971641173621407,1,4,1,2.5,956.2166218300117,None,954.1462577001657,954.4691310001072,955.1742114999797,955.4795586001128,956.1506286000367,956.4829021000769,right,1,2.418121899943799,954.2109062001109,None,None,None,,,,,,,wxbjqe,001,0,fr,2022-05-16_18h11.55.766,3-AFC_adaptive_staircase_mess,2022.1.1,30.066037035562026,
,,,,,9,0,9,0,17,0,17,0,,,,,,,,,,,,,,,,left,250,2.5,0.0002233417960754815,-1,5,-1,-5.0,958.1497085300507,None,958.1163679000456,958.4147240000311,959.0895313001238,959.4014964001253,960.1001123001333,960.4319098000415,left,1,2.264007299905643,958.1486361999996,None,None,None,,,,,,,wxbjqe,001,0,fr,2022-05-16_18h11.55.766,3-AFC_adaptive_staircase_mess,2022.1.1,30.066037035562026,
,,,,,9,0,9,0,18,0,18,0,,,,,,,,,,,,,,,,right,250,2.5,0.0002233417960754815,-1,5,-1,-5.0,963.9459137300728,None,961.8812979001086,962.1947406001855,962.8905981001444,963.1911754000466,963.881778200157,964.202631500084,right,1,2.258373500080779,961.9461735000368,None,None,None,,,,,,,wxbjqe,001,0,fr,2022-05-16_18h11.55.766,3-AFC_adaptive_staircase_mess,2022.1.1,30.066037035562026,
,,,,,9,0,9,0,19,0,19,0,,,,,,,,,,,,,,,,up,250,-2.5,0.00012559432157547898,-1,5,-1,-5.0,966.7559036301682,None,965.7070295000449,966.0291647000704,966.6920366999693,967.0120854000561,None,None,up,1,1.8907893998548388,965.7376545001753,None,None,None,,,,,,,wxbjqe,001,0,fr,2022-05-16_18h11.55.766,3-AFC_adaptive_staircase_mess,2022.1.1,30.066037035562026,
,,,,,9,0,9,0,20,0,20,0,,,,,,,,,,,,,,,,left,250,-2.5,0.00012559432157547898,-1,5,-1,-5.0,969.1340274299728,969.341486300109,969.1006867999677,969.4076016000472,970.0985640001018,970.4087539000902,971.1082295000087,971.4085798000451,left,1,2.7253618999384344,969.1354378999677,None,971.6440508000087,None,,,,,,,wxbjqe,001,0,fr,2022-05-16_18h11.55.766,3-AFC_adaptive_staircase_mess,2022.1.1,30.066037035562026,
,,,,,9,0,9,0,21,0,21,0,,,,,,,,,,,,,,,,right,250,-7.5,7.06268772311377e-05,-1,5,-1,-5.0,975.3944494301686,975.6226021000184,973.3671230000909,973.6633917000145,974.3623795001768,974.6757196001709,975.3611088001635,975.6834742000792,right,1,4.463454499840736,973.3974075000733,None,975.9009980000556,None,,,,,,,wxbjqe,001,0,fr,2022-05-16_18h11.55.766,3-AFC_adaptive_staircase_mess,2022.1.1,30.066037035562026,
,,,,,9,0,9,0,22,0,22,0,,,,,,,,,,,,,,,,right,250,-7.5,7.06268772311377e-05,-1,5,-1,-5.0,981.4102072300157,None,979.3477682999801,979.6490194001235,980.3679903000593,980.6850591001566,981.3447452001274,981.6696664001793,right,1,2.4474430999252945,979.4136050001252,None,981.9158469300019,None,,,,,,,wxbjqe,001,0,fr,2022-05-16_18h11.55.766,3-AFC_adaptive_staircase_mess,2022.1.1,30.066037035562026,
,,,,,9,0,9,0,23,0,23,0,,,,,,,,,,,,,,,,left,250,-12.5,3.971641173621407e-05,-1,5,-1,-5.0,983.3982725300593,983.6217748001218,983.33285970008,983.6558416001499,984.3476844001561,984.6599206000101,985.3406969001517,985.6540461000986,left,1,2.6248896999750286,983.3956834001001,None,985.8741641000379,None,,,,,,,wxbjqe,001,0,fr,2022-05-16_18h11.55.766,3-AFC_adaptive_staircase_mess,2022.1.1,30.066037035562026,
,,,,,9,0,9,0,24,0,24,0,,,,,,,,,,,,,,,,left,250,-12.5,3.971641173621407e-05,-1,5,-1,-5.0,987.5698458299739,None,987.4922888001893,987.8230324001051,988.5210522999987,988.8369541000575,989.5169411001261,989.8272463001776,right,0,2.3494771998375654,987.5685795000754,None,None,None,,,,,,,wxbjqe,001,0,fr,2022-05-16_18h11.55.766,3-AFC_adaptive_staircase_mess,2022.1.1,30.066037035562026,
,,,,,9,0,9,0,25,0,25,0,,,,,,,,,,,,,,,,right,250,-10.0,5.296268625886443e-05,1,6,1,2.5,993.4378391300561,None,991.3686848001089,991.6876320000738,992.3712485001888,992.6854746001773,993.3733553001657,993.6999139999971,right,1,2.2944078997243196,991.4300932001788,None,None,None,,,,,,,wxbjqe,001,0,fr,2022-05-16_18h11.55.766,3-AFC_adaptive_staircase_mess,2022.1.1,30.066037035562026,
,,,,,10,0,10,0,0,0,0,0,,,,,,,,,,,,,[],[],10,right,125,30,0.02285440948074376,0,0,-1,10,1004.9872323301388,1005.203153599985,1002.9424612000585,1003.2413025000133,1003.9457428001333,1004.2488647999708,1004.9094104999676,1005.2327941001859,right,1,2.2744312998838723,1002.9704595999792,None,None,None,right,7.7080860999412835,994.7763076000847,None,994.7763076000847,None,wxbjqe,001,0,fr,2022-05-16_18h11.55.766,3-AFC_adaptive_staircase_mess,2022.1.1,30.066037035562026,
,,,,,10,0,10,0,1,0,1,0,,,,,,,,,,,,,,,,up,125,30,0.02285440948074376,0,0,-1,10,1007.7621034301119,1007.9774245000444,1006.711877600057,1007.0105983000249,1007.7287628001068,1008.043588800123,None,None,up,1,1.5643114999402314,1006.7844795000274,None,None,None,,,,,,,wxbjqe,001,0,fr,2022-05-16_18h11.55.766,3-AFC_adaptive_staircase_mess,2022.1.1,30.066037035562026,
,,,,,10,0,10,0,2,0,2,0,,,,,,,,,,,,,,,,right,125,10,0.002285440948074376,-1,0,-1,-10,1011.885566830053,1012.1011636999901,1009.8382497001439,1010.1369521000888,1010.8177263999823,1011.121339000063,1011.8224204001017,1012.1295762001537,right,1,2.2493850998580456,1009.8669018000364,None,None,None,,,,,,,wxbjqe,001,0,fr,2022-05-16_18h11.55.766,3-AFC_adaptive_staircase_mess,2022.1.1,30.066037035562026,
,,,,,10,0,10,0,3,0,3,0,,,,,,,,,,,,,,,,right,125,10,0.002285440948074376,-1,0,-1,-10,1015.6168805301422,None,1013.586670299992,1013.881671700161,1014.5908729999792,1014.9138805000111,1015.563363000052,1015.8747146001551,right,1,2.4944422997068614,1013.6146450999659,None,1016.111099800095,None,,,,,,,wxbjqe,001,0,fr,2022-05-16_18h11.55.766,3-AFC_adaptive_staircase_mess,2022.1.1,30.066037035562026,
,,,,,10,0,10,0,4,0,4,0,,,,,,,,,,,,,,,,left,125,0,0.000722719885372964,-1,0,-1,-10,1017.6301124301972,1017.8471618001349,1017.5538167001214,1017.8789868999738,1018.5556346999947,1018.8578061000444,None,None,left,1,1.832895299885422,1017.6277280000504,None,None,None,,,,,,,wxbjqe,001,0,fr,2022-05-16_18h11.55.766,3-AFC_adaptive_staircase_mess,2022.1.1,30.066037035562026,
,,,,,10,0,10,0,5,0,5,0,,,,,,,,,,,,,,,,up,125,0,0.000722719885372964,-1,0,-1,-10,1021.9922650301596,None,1020.9288155001123,1021.2494880000595,1021.9253893999849,1022.2291523001622,1022.9208707001526,1023.2430633001495,up,1,2.8358177999034524,1020.9854447999969,None,1023.4815704000648,None,,,,,,,wxbjqe,001,0,fr,2022-05-16_18h11.55.766,3-AFC_adaptive_staircase_mess,2022.1.1,30.066037035562026,
,,,,,10,0,10,0,6,0,6,0,,,,,,,,,,,,,,,,left,125,-10,0.0002285440948074376,-1,0,-1,-10,1025.3335275301943,None,1025.3001869001891,1025.5940923001617,1026.2762635999825,1026.576661300147,1027.2824060001876,1027.5975134000182,up,0,10.042788099963218,1025.329701300012,None,1027.81134200003,None,,,,,,,wxbjqe,001,0,fr,2022-05-16_18h11.55.766,3-AFC_adaptive_staircase_mess,2022.1.1,30.066037035562026,
,,,,,10,0,10,0,7,0,7,0,,,,,,,,,,,,,,,,right,125,-5,0.00040641525808204974,1,1,1,5,1038.9220974299824,1039.1375446000602,1036.8684809000697,1037.1899176000152,1037.862049400108,1038.1567885000259,1038.855565099977,1039.16601549997,left,0,2.6853715998586267,1036.8959190000314,None,1039.425353600178,None,,,,,,,wxbjqe,001,0,fr,2022-05-16_18h11.55.766,3-AFC_adaptive_staircase_mess,2022.1.1,30.066037035562026,
,,,,,10,0,10,0,8,0,8,0,,,,,,,,,,,,,,,,up,125,0,0.000722719885372964,1,1,1,5,1042.134184030001,1042.346231300151,1041.076894900063,1041.4004809001926,1042.070891099982,1042.3753100000322,1043.0752179000992,1043.369250500109,up,1,2.561952999792993,1041.1061881000642,None,1043.6297989001032,None,,,,,,,wxbjqe,001,0,fr,2022-05-16_18h11.55.766,3-AFC_adaptive_staircase_mess,2022.1.1,30.066037035562026,
,,,,,10,0,10,0,9,0,9,0,,,,,,,,,,,,,,,,right,125,0,0.000722719885372964,1,1,1,5,1047.2171375300968,1047.4303244000766,1045.1831565999892,1045.5071593001485,1046.1828775000758,1046.5040769001935,1047.1837969000917,1047.4864986001048,right,1,2.790085199987516,1045.2147689000703,None,1047.7290188001934,None,,,,,,,wxbjqe,001,0,fr,2022-05-16_18h11.55.766,3-AFC_adaptive_staircase_mess,2022.1.1,30.066037035562026,
,,,,,10,0,10,0,10,0,10,0,,,,,,,,,,,,,,,,left,125,-10,0.0002285440948074376,-1,2,-1,-5.0,1049.5554394301726,1049.7782613001764,1049.4945901001338,1049.807158900192,1050.5021222000942,1050.8117102000397,1051.4971154001541,1051.8018241000827,left,1,2.719327999977395,1049.5510893000755,None,1052.036933500087,None,,,,,,,wxbjqe,001,0,fr,2022-05-16_18h11.55.766,3-AFC_adaptive_staircase_mess,2022.1.1,30.066037035562026,
,,,,,10,0,10,0,11,0,11,0,,,,,,,,,,,,,,,,up,125,-10,0.0002285440948074376,-1,2,-1,-5.0,1054.773177330033,1054.9887118001934,1053.7339877001941,1054.0396698999684,1054.7398367000278,1055.048642900074,1055.7187473999802,1056.0152019001544,right,0,2.3108344997745007,1053.7898728,None,None,None,,,,,,,wxbjqe,001,0,fr,2022-05-16_18h11.55.766,3-AFC_adaptive_staircase_mess,2022.1.1,30.066037035562026,
,,,,,10,0,10,0,12,0,12,0,,,,,,,,,,,,,,,,left,125,-7.5,0.0003047684486200847,1,3,1,2.5,1057.6346811301773,None,1057.6013405001722,1057.924199800007,1058.6021627001464,1058.9232379000168,1059.599734300049,1059.9191897001583,right,0,2.4239451999310404,1057.628995800158,None,None,None,,,,,,,wxbjqe,001,0,fr,2022-05-16_18h11.55.766,3-AFC_adaptive_staircase_mess,2022.1.1,30.066037035562026,
,,,,,10,0,10,0,13,0,13,0,,,,,,,,,,,,,,,,up,125,-5.0,0.00040641525808204974,1,3,1,2.5,1062.5720753300702,None,1061.5374440001324,1061.8603573001456,1062.538734700065,1062.8331453001592,1063.5247971001081,1063.8474493001122,right,0,2.6872731999028474,1061.5654527000152,None,1064.0787562001497,None,,,,,,,wxbjqe,001,0,fr,2022-05-16_18h11.55.766,3-AFC_adaptive_staircase_mess,2022.1.1,30.066037035562026,
,,,,,10,0,10,0,14,0,14,0,,,,,,,,,,,,,,,,left,125,-2.5,0.000541963457010602,1,3,1,2.5,1065.769425530103,1066.0005352001172,1065.7076942999847,1066.0304765000474,1066.7181290001608,1067.0033452999778,1067.7202932999935,1068.0267507000826,right,0,2.680152699816972,1065.7651386000216,None,1068.2624381000642,None,,,,,,,wxbjqe,001,0,fr,2022-05-16_18h11.55.766,3-AFC_adaptive_staircase_mess,2022.1.1,30.066037035562026,
,,,,,10,0,10,0,15,0,15,0,,,,,,,,,,,,,,,,left,125,0.0,0.000722719885372964,1,3,1,2.5,1069.984366030083,1070.2045456999913,1069.9073962999973,1070.234567800071,1070.9085760000162,1071.202868500026,1071.9042721001897,1072.2267795000225,left,1,2.67459539975971,1069.9782658000477,None,1072.4615269000642,None,,,,,,,wxbjqe,001,0,fr,2022-05-16_18h11.55.766,3-AFC_adaptive_staircase_mess,2022.1.1,30.066037035562026,
,,,,,10,0,10,0,16,0,16,0,,,,,,,,,,,,,,,,right,125,0.0,0.000722719885372964,1,3,1,2.5,None,None,1074.124985500006,1074.4271893000696,None,None,None,None,left,0,0.5522090999875218,1074.1883322000504,None,None,None,,,,,,,wxbjqe,001,0,fr,2022-05-16_18h11.55.766,3-AFC_adaptive_staircase_mess,2022.1.1,30.066037035562026,
,,,,,10,0,10,0,17,0,17,0,,,,,,,,,,,,,,,,left,125,2.5,0.0009637624565954683,1,3,1,2.5,1076.236910230131,1076.444731200114,1076.2035696001258,1076.504053800134,None,None,None,None,left,1,0.7232822999358177,1076.2331114001572,None,None,None,,,,,,,wxbjqe,001,0,fr,2022-05-16_18h11.55.766,3-AFC_adaptive_staircase_mess,2022.1.1,30.066037035562026,
,,,,,10,0,10,0,18,0,18,0,,,,,,,,,,,,,,,,up,125,2.5,0.0009637624565954683,1,3,1,2.5,1079.4993680299958,None,1078.4170004001353,1078.7365119000897,1079.4332435000688,1079.746799300192,None,None,up,1,1.5414264998398721,1078.47161600017,None,None,None,,,,,,,wxbjqe,001,0,fr,2022-05-16_18h11.55.766,3-AFC_adaptive_staircase_mess,2022.1.1,30.066037035562026,
,,,,,10,0,10,0,19,0,19,0,,,,,,,,,,,,,,,,up,125,-2.5,0.000541963457010602,-1,4,-1,-5.0,1082.5465168299852,1082.7572794000152,1081.4970557000488,1081.7904482001904,1082.483194099972,1082.7733838001732,1083.4991286001168,1083.8206134000793,right,0,3.3605178999714553,1081.5242357000243,None,1084.0225025999825,None,,,,,,,wxbjqe,001,0,fr,2022-05-16_18h11.55.766,3-AFC_adaptive_staircase_mess,2022.1.1,30.066037035562026,
,,,,,10,0,10,0,20,0,20,0,,,,,,,,,,,,,,,,right,125,0.0,0.000722719885372964,1,5,1,2.5,1088.4325168301584,1088.6454727000091,1086.3577825000975,1086.6724336000625,1087.3733010999858,1087.669314000057,1088.3711930999998,1088.6721863001585,right,1,2.484199799830094,1086.4160134000704,None,1088.939802829991,None,,,,,,,wxbjqe,001,0,fr,2022-05-16_18h11.55.766,3-AFC_adaptive_staircase_mess,2022.1.1,30.066037035562026,
,,,,,10,0,10,0,21,0,21,0,,,,,,,,,,,,,,,,up,125,0.0,0.000722719885372964,1,5,1,2.5,1091.429288430023,1091.6566529001575,1090.373223300092,1090.6948632001877,1091.3665275000967,1091.687281300081,None,None,up,1,1.527237999951467,1090.4291171999648,None,None,None,,,,,,,wxbjqe,001,0,fr,2022-05-16_18h11.55.766,3-AFC_adaptive_staircase_mess,2022.1.1,30.066037035562026,
,,,,,10,0,10,0,22,0,22,0,,,,,,,,,,,,,,,,left,125,-5.0,0.00040641525808204974,-1,6,-1,-5.0,1093.4794677301543,1093.6913590000477,1093.4183802001644,1093.7221437999979,1094.4201601999812,1094.74066700018,1095.4154329001904,1095.7137017999776,left,1,3.023782999953255,1093.476816000184,None,1095.9811654000077,None,,,,,,,wxbjqe,001,0,fr,2022-05-16_18h11.55.766,3-AFC_adaptive_staircase_mess,2022.1.1,30.066037035562026,
,,,,,,,,,,,,,,,,,,,,,,,,,,,,,,,,,,,,,,,,,,,,,,,,,,,left,1.0945735999848694,1097.5756316001061,None,1097.5756316001061,None,,,,,,,,,
