sweeps.thisRepN,sweeps.thisTrialN,sweeps.thisN,sweeps.thisIndex,trials.thisRepN,trials.thisTrialN,trials.thisN,trials.thisIndex,instructions.started,instructions.stopped,blank_text.started,blank_text.stopped,,text.started,text.stopped,Delay,Prediction,Frequency,Volume,Psychopy_level,isCatchTrial,len(y),finished_audiograms,probe.started,probe.stopped,feedback.keys,feedback.started,feedback.stopped,ISI.started,ISI.stopped,text_2.started,text_2.stopped,feedback.rt,break_txt.started,break_txt.stopped,Intervals,Audiogram_time,Audiogram_none,Audiogram_frequency,Audiogram_both,participant,session,language (english or french),Resume previous experiment,date,expName,psychopyVersion,frameRate,
0,0,0,0,0,0,0,0,20.953589399927296,None,96.63825119996909,None,0.5833333333333334,98.59104289999232,None,1.6991891881869097,both,177.0,-1.0,0.0003112316958067494,0,24,[],0.012205966748297215,None,None,99.6275794999674,None,0.2220168667845428,1.9212060549714525,99.84282649995293,None,,,,,,,,,nefynm,001,english,0,2022-05-06_09h33.12.972,Continuous,2022.1.1,36.15696316197544,
0,0,0,0,1,0,1,0,,,,,,,,1.6991891881869097,both,265.0,0.17962311172959344,0.00015475911934122294,0,25,[],0.0116942668100819,None,None,101.53051299997605,101.53051299997605,0.2169207667466253,1.916109954933535,101.7510943999514,101.53051299997605,,,,,,,,,nefynm,001,english,0,2022-05-06_09h33.12.972,Continuous,2022.1.1,36.15696316197544,
0,0,0,0,2,0,2,0,,,,,,,,1.6991891881869097,both,397.0,-1.2261807686308712,6.715168941018556e-05,0,26,[],0.012197566800750792,None,None,103.43930139997974,103.43930139997974,0.21766836673486978,1.9168575549217794,103.65063649998046,103.43930139997974,,,,,,,,,nefynm,001,english,0,2022-05-06_09h33.12.972,Continuous,2022.1.1,36.15696316197544,
0,0,0,0,3,0,3,0,,,,,,,,1.6991891881869097,both,595.0,-1.0,5.046678368245945e-05,0,27,[],0.012277066707611084,None,None,105.3528568999609,105.3528568999609,0.21592176670674235,1.915110954893652,105.56751959992107,105.3528568999609,,,,,,,,,nefynm,001,english,0,2022-05-06_09h33.12.972,Continuous,2022.1.1,36.15696316197544,
0,0,0,0,4,0,4,0,,,,,,,,1.6991891881869097,both,891.0,5.66826480766195,7.865285114266697e-05,0,28,[],0.012018966721370816,None,['space'],107.25990339997225,107.25990339997225,0.2100317666772753,1.909220954864185,107.47171870002057,107.25990339997225,[-0.6559925000183284],,,,,,,,nefynm,001,english,0,2022-05-06_09h33.12.972,Continuous,2022.1.1,36.15696316197544,
0,0,0,0,5,0,5,0,,,,,,,,1.6991891881869097,both,1335.0,-5.949886578619434,2.6413641675345728e-05,0,29,[],0.004747866652905941,0.19764236663468182,['space'],109.17264929995872,109.17264929995872,0.19764236663468182,1.8968315548215915,109.38345520000439,109.17264929995872,[-1.113840900012292],,,,,,,,nefynm,001,english,0,2022-05-06_09h33.12.972,Continuous,2022.1.1,36.15696316197544,
0,0,0,0,6,0,6,0,,,,,,,,1.6991891881869097,both,2000.0,-2.8016596434032737,5.41859912044326e-05,0,30,[],0.011963066761381924,None,None,111.08030069991946,111.08030069991946,0.21415266674011946,1.9133418549270291,111.29504959995393,111.08030069991946,,,,,,,,,nefynm,001,english,0,2022-05-06_09h33.12.972,Continuous,2022.1.1,36.15696316197544,
0,0,0,0,7,0,7,0,,,,,,,,1.6991891881869097,both,2997.0,0.964277838734044,6.146929216781761e-05,0,31,[],0.011811766657046974,None,['space'],112.99206620000768,112.99206620000768,0.21810286666732281,1.9172920548542325,113.20880319993012,112.99206620000768,[-1.3482517000520602],,,,,,,,nefynm,001,english,0,2022-05-06_09h33.12.972,Continuous,2022.1.1,36.15696316197544,
0,0,0,0,8,0,8,0,,,,,,,,1.6991891881869097,both,4490.0,-2.719063318181,8.603149694552552e-05,0,32,[],0.0118583666626364,None,['space'],114.90116739994846,114.90116739994846,0.2155063666868955,1.9146955548738052,115.11035199998878,114.90116739994846,[-1.2891222999896854],,,,,,,,nefynm,001,english,0,2022-05-06_09h33.12.972,Continuous,2022.1.1,36.15696316197544,
0,0,0,0,9,0,9,0,,,,,,,,1.6991891881869097,both,6727.0,-1.1916379109319113,0.0001246253559714241,0,33,[],0.00987306667957455,None,['space'],116.80953430000227,116.80953430000227,0.20870366657618433,1.907892854763094,117.02471489994787,116.80953430000227,[-1.5022026000078768],,,,,,,,nefynm,001,english,0,2022-05-06_09h33.12.972,Continuous,2022.1.1,36.15696316197544,
0,0,0,0,10,0,10,0,,,,,,,,1.6991891881869097,both,,,,1,33,[],0.011778766638599336,None,['space'],118.72032510000281,118.72032510000281,0.22057456662878394,1.9197637548156936,118.93879539996851,118.72032510000281,[-1.4931355000007898],,,,,,,,nefynm,001,english,0,2022-05-06_09h33.12.972,Continuous,2022.1.1,36.15696316197544,
1,0,1,0,0,0,0,0,,,,,,122.91009020002093,None,2.4250547763207253,time,281.0,-0.2170253147821115,0.00013131858581960667,0,24,[],0.012907966738566756,None,None,123.93785799993202,None,0.23374406667426229,2.6587988429949876,124.16427369997837,None,,120.6311744999839,None,"[0.5833333333333334, 0.16666666666666666, 0.16666666666666666, 0.16666666666666666, 0.3333333333333333, 0.16666666666666666, 0.5833333333333334, 0.16666666666666666, 0.3333333333333333, 0.5833333333333334, 0.5833333333333334, 0.3333333333333333, 0.16666666666666666, 0.5833333333333334, 0.5833333333333334]",,,,,nefynm,001,english,0,2022-05-06_09h33.12.972,Continuous,2022.1.1,36.15696316197544,
1,0,1,0,1,0,1,0,,,,,,,,2.4250547763207253,time,4762.0,-2.3597784260929986,0.0001039275655573515,0,25,[],0.010992766823619604,None,None,126.57984869997017,126.57984869997017,0.21358326682820916,2.6386380431489345,126.79118659999222,126.57984869997017,,,,,,,,,nefynm,001,english,0,2022-05-06_09h33.12.972,Continuous,2022.1.1,36.15696316197544,
1,0,1,0,2,0,2,0,,,,,,,,2.4250547763207253,time,177.0,-1.0,0.0003112316958067494,0,26,[],0.011558866710402071,None,['space'],129.21584540000185,129.21584540000185,0.21403866668697447,2.6390934430076998,129.4279948999174,129.21584540000185,[-2.03643680003006],,,,,,,,nefynm,001,english,0,2022-05-06_09h33.12.972,Continuous,2022.1.1,36.15696316197544,
1,0,1,0,3,0,3,0,,,,,,,,2.4250547763207253,time,315.0,-0.5421202257999941,9.265396157662404e-05,0,27,[],0.011433666688390076,None,['space'],131.85297789995093,131.85297789995093,0.21568966668564826,2.6407444430063736,132.0669619999826,131.85297789995093,[-0.9610449000028893],,,,,,,,nefynm,001,english,0,2022-05-06_09h33.12.972,Continuous,2022.1.1,36.15696316197544,
1,0,1,0,4,0,4,0,,,,,,,,2.4250547763207253,time,2121.0,-1.0219624662530078,6.889220467039657e-05,0,28,[],0.011442966642789543,None,None,134.49377049994655,134.49377049994655,0.21333726670127362,2.638392043021999,134.7078667000169,134.49377049994655,,,,,,,,,nefynm,001,english,0,2022-05-06_09h33.12.972,Continuous,2022.1.1,36.15696316197544,
1,0,1,0,5,0,5,0,,,,,,,,2.4250547763207253,time,223.0,1.5580986293670271,0.00026368096967966287,0,29,[],0.0044658666010946035,None,['space'],137.1334580000257,137.1334580000257,0.2096087665995583,2.6346635429202836,137.35309999994934,137.1334580000257,[-1.8893630999373272],,,,,,,,nefynm,001,english,0,2022-05-06_09h33.12.972,Continuous,2022.1.1,36.15696316197544,
1,0,1,0,6,0,6,0,,,,,,,,2.4250547763207253,time,1001.0,2.4758652369093292,5.863749737782413e-05,0,30,[],0.01103336678352207,None,['space'],139.7761748000048,139.7761748000048,0.21433566673658788,2.639390443057313,139.99229419999756,139.7761748000048,[-1.9082596000516787],,,,,,,,nefynm,001,english,0,2022-05-06_09h33.12.972,Continuous,2022.1.1,36.15696316197544,
1,0,1,0,7,0,7,0,,,,,,,,2.4250547763207253,time,1890.0,-1.7457315907873632,5.7127915387942296e-05,0,31,[],0.011219166684895754,None,['space'],142.4166314000031,142.4166314000031,0.2135671665892005,2.638621942909926,142.62825389998034,142.4166314000031,[-1.4290907999966294],,,,,,,,nefynm,001,english,0,2022-05-06_09h33.12.972,Continuous,2022.1.1,36.15696316197544,
1,0,1,0,8,0,8,0,,,,,,,,2.4250547763207253,time,199.0,1.048485286390561,0.00030360747612817585,0,32,[],0.011196966748684645,None,None,145.05487859994173,145.05487859994173,0.21416136668995023,2.6392161430106755,145.27183119999245,145.05487859994173,,,,,,,,,nefynm,001,english,0,2022-05-06_09h33.12.972,Continuous,2022.1.1,36.15696316197544,
1,0,1,0,9,0,9,0,,,,,,,,2.4250547763207253,time,472.0,-2.9084830083128312,5.21382971215711e-05,0,33,[],0.004554866696707904,0.1974613667698577,['space'],147.69613609998487,147.69613609998487,0.1974613667698577,2.622516143090583,147.9118500999175,147.69613609998487,[-2.1328021000372246],,,,,,,,nefynm,001,english,0,2022-05-06_09h33.12.972,Continuous,2022.1.1,36.15696316197544,
1,0,1,0,10,0,10,0,,,,,,,,2.4250547763207253,time,668.0,1.7780850005304965,5.869833197764476e-05,0,34,[],0.010986666660755873,None,['space'],150.3357529999921,150.3357529999921,0.216509566642344,2.6415643429630693,150.5457199999364,150.3357529999921,[0.10823170002549887],,,,,,,,nefynm,001,english,0,2022-05-06_09h33.12.972,Continuous,2022.1.1,36.15696316197544,
1,0,1,0,11,0,11,0,,,,,,,,2.4250547763207253,time,158.0,1.520433648755711,0.0005109813199912363,0,35,[],0.010765866609290242,None,None,152.97415459994227,152.97415459994227,0.21462306671310216,2.6396778430338275,153.18754169996828,152.97415459994227,,,,,,,,,nefynm,001,english,0,2022-05-06_09h33.12.972,Continuous,2022.1.1,36.15696316197544,
1,0,1,0,12,0,12,0,,,,,,,,2.4250547763207253,time,1500.0,-1.1709657586519207,4.221061855936569e-05,0,36,[],0.010959666687995195,None,['space'],155.61560709995683,155.61560709995683,0.21236606675665826,2.6374208430773836,155.82694870000705,155.61560709995683,[-1.924011699971743],,,,,,,,nefynm,001,english,0,2022-05-06_09h33.12.972,Continuous,2022.1.1,36.15696316197544,
1,0,1,0,13,0,13,0,,,,,,,,2.4250547763207253,time,530.0,-1.706530282373461,5.485551563830856e-05,0,37,[],0.008099066675640643,None,None,158.2534373999806,158.2534373999806,0.2032750666840002,2.6283298430047255,158.46737219998613,158.2534373999806,,,,,,,,,nefynm,001,english,0,2022-05-06_09h33.12.972,Continuous,2022.1.1,36.15696316197544,
1,0,1,0,14,0,14,0,,,,,,,,2.4250547763207253,time,,,,1,37,[],0.0037887668004259467,0.19988776685204357,['space'],160.89568690001033,160.89568690001033,0.19988776685204357,2.624942543172769,161.11320719996002,160.89568690001033,[-1.011597599950619],,,,,,,,nefynm,001,english,0,2022-05-06_09h33.12.972,Continuous,2022.1.1,36.15696316197544,
2,0,2,0,0,0,0,0,,,,,,190.3670728999423,None,2.5099187875574307,time,561.0,-5.68629835998262,3.217932069610399e-05,0,38,[],0.012784266727976501,None,None,191.385665699956,None,0.2190996666904539,2.7290184542478846,191.60323569993488,None,,163.5352982999757,None,"[0.16666666666666666, 0.5833333333333334, 0.3333333333333333, 0.5833333333333334, 0.3333333333333333, 0.16666666666666666, 0.5833333333333334, 0.5833333333333334, 0.16666666666666666, 0.5833333333333334, 0.3333333333333333, 0.5833333333333334, 0.5833333333333334, 0.16666666666666666, 0.16666666666666666]",,,,,nefynm,001,english,0,2022-05-06_09h33.12.972,Continuous,2022.1.1,36.15696316197544,
2,0,2,0,1,0,1,0,,,,,,,,2.5099187875574307,time,1059.0,1.475538242084322,5.513392303761252e-05,0,39,[],0.010313766775652766,None,None,194.10843020002358,194.10843020002358,0.22608746669720858,2.7360062542546393,194.32976509991568,194.10843020002358,,,,,,,,,nefynm,001,english,0,2022-05-06_09h33.12.972,Continuous,2022.1.1,36.15696316197544,
2,0,2,0,2,0,2,0,,,,,,,,2.5099187875574307,time,,,,1,39,[],0.011049966560676694,None,None,196.8348365999991,196.8348365999991,0.21372056659311056,2.7236393541505413,197.04774800001178,196.8348365999991,,,,,,,,,nefynm,001,english,0,2022-05-06_09h33.12.972,Continuous,2022.1.1,36.15696316197544,
2,0,2,0,3,0,3,0,,,,,,,,2.5099187875574307,time,5657.0,-6.0,6.441173693250209e-05,0,40,[],0.012112066731788218,None,None,199.55544050002936,199.55544050002936,0.21831996669061482,2.7282387542480455,199.76687419996597,199.55544050002936,,,,,,,,,nefynm,001,english,0,2022-05-06_09h33.12.972,Continuous,2022.1.1,36.15696316197544,
2,0,2,0,4,0,4,0,,,,,,,,2.5099187875574307,time,3364.0,-1.4664484923633823,6.147018379792234e-05,0,41,[],0.010722966748289764,None,['space'],202.27673459996004,202.27673459996004,0.21027866669464856,2.7201974542520793,202.49124769994523,202.27673459996004,[-2.1855481999227777],,,,,,,,nefynm,001,english,0,2022-05-06_09h33.12.972,Continuous,2022.1.1,36.15696316197544,
2,0,2,0,5,0,5,0,,,,,,,,2.5099187875574307,time,841.0,0.3332151672392296,4.107944780513208e-05,0,42,[],0.009849566733464599,None,None,205.00273039995227,205.00273039995227,0.2120305667631328,2.7219493543205635,205.21806749992538,205.00273039995227,,,,,,,,,nefynm,001,english,0,2022-05-06_09h33.12.972,Continuous,2022.1.1,36.15696316197544,
2,0,2,0,6,0,6,0,,,,,,,,2.5099187875574307,time,5040.0,-7.255735745909323,6.560982787929432e-05,0,43,[],0.0003640666836872697,None,None,207.72931780002546,207.72931780002546,0.1950311667751521,2.704949954332583,207.94331799994688,207.72931780002546,,,,,,,,,nefynm,001,english,0,2022-05-06_09h33.12.972,Continuous,2022.1.1,36.15696316197544,
2,0,2,0,7,0,7,0,,,,,,,,2.5099187875574307,time,2245.0,-2.686818165482376,5.889317595930763e-05,0,44,[],0.010377466795034707,None,['space'],210.45579689997248,210.45579689997248,0.21356496680527925,2.72348375436271,210.66268099995796,210.45579689997248,[-2.2202940999995917],,,,,,,,nefynm,001,english,0,2022-05-06_09h33.12.972,Continuous,2022.1.1,36.15696316197544,
2,0,2,0,8,0,8,0,,,,,,,,2.5099187875574307,time,2000.0,-4.817954271831589,4.296079314554617e-05,0,45,[],0.01038126670755446,None,None,213.17873039992992,213.17873039992992,0.21599436667747796,2.7259131542349087,213.39933769998606,213.17873039992992,,,,,,,,,nefynm,001,english,0,2022-05-06_09h33.12.972,Continuous,2022.1.1,36.15696316197544,
3,0,3,0,0,0,0,0,,,,,0.5833333333333334,217.52849749999586,None,2.060401829924857,frequency,177.0,-1.0,0.0003112316958067494,0,24,[],0.012970066745765507,None,None,218.55423210002482,None,0.2284745667129755,2.2888763966378325,218.78143650002312,None,,215.90400919993408,None,,,,,,nefynm,001,english,0,2022-05-06_09h33.12.972,Continuous,2022.1.1,36.15696316197544,
3,0,3,0,1,0,1,0,,,,,,,,2.353120468486473,frequency,265.0,1.4184441056293213,0.00017848318177049658,0,25,[],0.00999566656537354,None,None,220.82932189991698,220.82932189991698,0.22532336658332497,2.578443835069798,221.05074959993362,220.82932189991698,,,,,,,,,nefynm,001,english,0,2022-05-06_09h33.12.972,Continuous,2022.1.1,36.15696316197544,
3,0,3,0,2,0,2,0,,,,,,,,1.121481236875314,frequency,397.0,-2.941998843303965,5.5114521269756785e-05,0,26,[],0.01021226670127362,None,['space'],223.39948759996332,223.39948759996332,0.21439926675520837,1.3358805036305224,223.6116589999292,223.39948759996332,[-1.9483778999419883],,,,,,,,nefynm,001,english,0,2022-05-06_09h33.12.972,Continuous,2022.1.1,36.15696316197544,
3,0,3,0,3,0,3,0,,,,,,,,1.9037224523256917,frequency,595.0,-1.0,5.046678368245945e-05,0,27,[],0.010269966791383922,None,['space'],224.7348719999427,224.7348719999427,0.21387636673171073,2.1175988190574024,224.94484899996314,224.7348719999427,[-0.7882429999299347],,,,,,,,nefynm,001,english,0,2022-05-06_09h33.12.972,Continuous,2022.1.1,36.15696316197544,
3,0,3,0,4,0,4,0,,,,,,,,1.1171684996516489,frequency,891.0,0.6342471640604312,4.4056864770716766e-05,0,28,[],0.0030179667519405484,None,['space'],226.84901260002516,226.84901260002516,0.19674146675970405,1.313909966411353,227.06240459997207,226.84901260002516,[-1.349037399981171],,,,,,,,nefynm,001,english,0,2022-05-06_09h33.12.972,Continuous,2022.1.1,36.15696316197544,
3,0,3,0,5,0,5,0,,,,,,,,1.3379986142764666,frequency,1335.0,-5.194147635920561,2.881477475731053e-05,0,29,[],0.003520366852171719,0.19591536687221378,['space'],228.18265159998555,228.18265159998555,0.19591536687221378,1.5339139811486804,228.3967431000201,228.18265159998555,[-0.49169560009613633],,,,,,,,nefynm,001,english,0,2022-05-06_09h33.12.972,Continuous,2022.1.1,36.15696316197544,
3,0,3,0,6,0,6,0,,,,,,,,1.0310325058832137,frequency,2000.0,-3.254950568042077,5.143070480643367e-05,0,30,[],0.0036751667503267527,0.19651216675993055,None,229.7338173999451,229.7338173999451,0.19651216675993055,1.2275446726431443,229.9483498999616,229.7338173999451,,,,,,,,,nefynm,001,english,0,2022-05-06_09h33.12.972,Continuous,2022.1.1,36.15696316197544,
3,0,3,0,7,0,7,0,,,,,,,,1.0669656510189143,frequency,2997.0,0.3407088519252497,5.7211029492612926e-05,0,31,[],0.010055666789412498,None,None,230.97290109994356,230.97290109994356,0.20887846674304456,1.2758441177619588,231.1835763999261,230.97290109994356,,,,,,,,,nefynm,001,english,0,2022-05-06_09h33.12.972,Continuous,2022.1.1,36.15696316197544,
3,0,3,0,8,0,8,0,,,,,,,,2.989222304485117,frequency,,,,1,31,[],0.006603366695344448,None,None,232.24906409997493,232.24906409997493,0.2001775667304173,3.1893998712155343,232.45949859998655,232.24906409997493,,,,,,,,,nefynm,001,english,0,2022-05-06_09h33.12.972,Continuous,2022.1.1,36.15696316197544,
3,0,3,0,9,0,9,0,,,,,,,,2.6742943311073706,frequency,6727.0,-6.9993253776802336,6.385898897945584e-05,0,32,[],0.011236166581511497,None,None,235.45113940001465,235.45113940001465,0.2126495665870607,2.8869438976944313,235.66018939996138,235.45113940001465,,,,,,,,,nefynm,001,english,0,2022-05-06_09h33.12.972,Continuous,2022.1.1,36.15696316197544,
4,0,4,0,0,0,0,0,,,,,0.3333333333333333,240.50204529997427,None,1.9535560139926913,frequency,776.0,-0.27185136988506997,3.82434576496812e-05,0,33,[],0.012283866759389639,None,None,241.52996600000188,None,0.2058314667083323,2.1593874807010236,241.73974939994514,None,,238.33832310000435,None,,,,,,nefynm,001,english,0,2022-05-06_09h33.12.972,Continuous,2022.1.1,36.15696316197544,
4,0,4,0,1,0,1,0,,,,,,,,2.475969382963221,frequency,978.0,-1.300521563731036,3.738827092282205e-05,0,34,[],0.004946266766637564,0.1985986668150872,None,243.69500890001655,243.69500890001655,0.1985986668150872,2.6745680497783084,243.90437589993235,243.69500890001655,,,,,,,,,nefynm,001,english,0,2022-05-06_09h33.12.972,Continuous,2022.1.1,36.15696316197544,
4,0,4,0,2,0,2,0,,,,,,,,2.5827382486304025,frequency,1232.0,-4.652310202251958,3.146401589756761e-05,0,35,[],0.009743266738951206,None,None,246.37870190001559,246.37870190001559,0.21233846677932888,2.7950767154097313,246.5952940999996,246.37870190001559,,,,,,,,,nefynm,001,english,0,2022-05-06_09h33.12.972,Continuous,2022.1.1,36.15696316197544,
4,0,4,0,3,0,3,0,,,,,,,,1.7798783249300092,frequency,1552.0,-8.453198270146629,1.9911942759098306e-05,0,36,[],0.009645466809161007,None,None,249.176021900028,249.176021900028,0.21018406678922474,1.990062391719234,249.39819340000395,249.176021900028,,,,,,,,,nefynm,001,english,0,2022-05-06_09h33.12.972,Continuous,2022.1.1,36.15696316197544,
4,0,4,0,4,0,4,0,,,,,,,,1.3435981312861816,frequency,1955.0,-4.161577676277987,4.507466725466935e-05,0,37,[],0.005681866547092795,0.20148816658183932,None,251.16887319996022,251.16887319996022,0.20148816658183932,1.5450862978680209,251.3846993999323,251.16887319996022,,,,,,,,,nefynm,001,english,0,2022-05-06_09h33.12.972,Continuous,2022.1.1,36.15696316197544,
4,0,4,0,5,0,5,0,,,,,,,,2.8253578867346327,frequency,2463.0,-5.896110388869262,4.315167058118388e-05,0,38,[],0.009528866736218333,None,None,252.72783839993645,252.72783839993645,0.21007616678252816,3.035434053517161,252.94074310001452,252.72783839993645,,,,,,,,,nefynm,001,english,0,2022-05-06_09h33.12.972,Continuous,2022.1.1,36.15696316197544,
4,0,4,0,6,0,6,0,,,,,,,,1.407457548547758,frequency,3103.0,-1.490323508271353,5.439058137361714e-05,0,39,[],0.009572566603310406,None,['space'],255.7705883999588,255.7705883999588,0.21500316669698805,1.622460715244746,255.9874434999656,255.7705883999588,[-1.2631150999804959],,,,,,,,nefynm,001,english,0,2022-05-06_09h33.12.972,Continuous,2022.1.1,36.15696316197544,
4,0,4,0,7,0,7,0,,,,,,,,1.8192576703788832,frequency,3909.0,-6.638922545083046,3.834240806486094e-05,0,40,[],0.009265866712667048,None,None,257.3901706999168,257.3901706999168,0.20899846672546118,2.0282561371043446,257.60381300002337,257.3901706999168,,,,,,,,,nefynm,001,english,0,2022-05-06_09h33.12.972,Continuous,2022.1.1,36.15696316197544,
4,0,4,0,8,0,8,0,,,,,,,,2.0440940098383478,frequency,4925.0,-7.0,6.592407335223451e-05,0,41,[],0.009544766740873456,None,['space'],259.42430269997567,259.42430269997567,0.21123936667572707,2.255333376514075,259.63361649995204,259.42430269997567,[-1.3004992000060156],,,,,,,,nefynm,001,english,0,2022-05-06_09h33.12.972,Continuous,2022.1.1,36.15696316197544,
4,0,4,0,9,0,9,0,,,,,,,,1.5403196235881849,frequency,6205.0,-9.468856064027491,4.219954081176927e-05,0,42,[],0.009106666664592922,None,['space'],261.6761430000188,261.6761430000188,0.21180236665531993,1.7521219902435048,261.8878915000241,261.6761430000188,[-1.8253496000543237],,,,,,,,nefynm,001,english,0,2022-05-06_09h33.12.972,Continuous,2022.1.1,36.15696316197544,
4,0,4,0,10,0,10,0,,,,,,,,1.16295692910521,frequency,7818.0,-9.591720838037073,5.834200341388329e-05,0,43,[],0.008412866853177547,0.20771766686812043,None,263.43075820000377,263.43075820000377,0.20771766686812043,1.3706745959733304,263.6465802999446,263.43075820000377,,,,,,,,,nefynm,001,english,0,2022-05-06_09h33.12.972,Continuous,2022.1.1,36.15696316197544,
4,0,4,0,11,0,11,0,,,,,,,,1.7778684669620795,frequency,,,,1,43,[],0.009436866734176874,None,['space'],264.80634969996754,264.80634969996754,0.21498246677219868,1.9928509337342781,265.01834459998645,264.80634969996754,[-0.7465517999371514],,,,,,,,nefynm,001,english,0,2022-05-06_09h33.12.972,Continuous,2022.1.1,36.15696316197544,
5,0,5,0,0,0,0,0,,,,,,274.577804200002,None,1.8662190863576078,time,1991.0,-2.44152074092637,5.6173107157520154e-05,0,46,[],0.01281226659193635,None,['space'],275.60257759992965,None,0.21493146661669016,2.081150552974298,275.8260302999988,None,[-1.9745980999432504],266.8006720999256,None,"[0.3333333333333333, 0.16666666666666666, 0.16666666666666666, 0.16666666666666666, 0.5833333333333334, 0.5833333333333334, 0.5833333333333334, 0.16666666666666666, 0.3333333333333333, 0.16666666666666666, 0.16666666666666666, 0.5833333333333334, 0.16666666666666666, 0.3333333333333333, 0.5833333333333334]",,,,,nefynm,001,english,0,2022-05-06_09h33.12.972,Continuous,2022.1.1,36.15696316197544,
5,0,5,0,1,0,1,0,,,,,,,,1.8662190863576078,time,746.0,2.2390447700142655,5.304622571841967e-05,0,47,[],0.0014880667440593243,None,None,277.68709959997796,277.68709959997796,0.20327556668780744,2.0694946530454152,277.9061595000094,277.68709959997796,,,,,,,,,nefynm,001,english,0,2022-05-06_09h33.12.972,Continuous,2022.1.1,36.15696316197544,
5,0,5,0,2,0,2,0,,,,,,,,1.8662190863576078,time,125.0,2.0,0.000909850429304992,0,48,[],0.009285966749303043,None,None,279.77857199998107,279.77857199998107,0.21156036667525768,2.0777794530328655,279.99257959995884,279.77857199998107,,,,,,,,,nefynm,001,english,0,2022-05-06_09h33.12.972,Continuous,2022.1.1,36.15696316197544,
5,0,5,0,3,0,3,0,,,,,,,,1.8662190863576078,time,527.0,-2.514932030148586,5.0330804546912776e-05,0,49,[],0.008562966831959784,None,['space'],281.85852569993585,281.85852569993585,0.21047766681294888,2.0766967531705567,282.07174990000203,281.85852569993585,[-1.479544600006193],,,,,,,,nefynm,001,english,0,2022-05-06_09h33.12.972,Continuous,2022.1.1,36.15696316197544,
5,0,5,0,4,0,4,0,,,,,,,,1.8662190863576078,time,2983.0,2.5404100197719632,7.48651242448409e-05,0,50,[],0.005054966663010418,0.20025606674607843,['space'],283.9369102999335,283.9369102999335,0.20025606674607843,2.0664751531036862,284.1513132000109,283.9369102999335,[-1.7813079999759793],,,,,,,,nefynm,001,english,0,2022-05-06_09h33.12.972,Continuous,2022.1.1,36.15696316197544,
5,0,5,0,5,0,5,0,,,,,,,,1.8662190863576078,time,1580.0,-0.5157676442724819,5.188660441641128e-05,0,51,[],0.00858876679558307,None,None,286.0198954999214,286.0198954999214,0.21509016677737236,2.08130925313498,286.23237929993775,286.0198954999214,,,,,,,,,nefynm,001,english,0,2022-05-06_09h33.12.972,Continuous,2022.1.1,36.15696316197544,
5,0,5,0,6,0,6,0,,,,,,,,1.8662190863576078,time,235.0,3.1739855310326943,0.00028371354873130134,0,52,[],0.00892186677083373,None,None,288.09663179994095,288.09663179994095,0.21291626675520092,2.0791353531128087,288.3105622000294,288.09663179994095,,,,,,,,,nefynm,001,english,0,2022-05-06_09h33.12.972,Continuous,2022.1.1,36.15696316197544,
5,0,5,0,7,0,7,0,,,,,,,,1.8662190863576078,time,,,,1,52,[],0.005850366782397032,0.20000286679714918,['space'],290.17633889999706,290.17633889999706,0.20000286679714918,2.066221953154757,290.39097279997077,290.17633889999706,[-1.5091435998911038],,,,,,,,nefynm,001,english,0,2022-05-06_09h33.12.972,Continuous,2022.1.1,36.15696316197544,
5,0,5,0,8,0,8,0,,,,,,,,1.8662190863576078,time,837.0,5.761942466374366,7.652621758597522e-05,0,53,[],0.009961066767573357,None,['space'],292.25967649999075,292.25967649999075,0.213065666728653,2.079284753086261,292.47557379992213,292.25967649999075,[-1.2093675000360236],,,,,,,,nefynm,001,english,0,2022-05-06_09h33.12.972,Continuous,2022.1.1,36.15696316197544,
5,0,5,0,9,0,9,0,,,,,,,,1.8662190863576078,time,352.0,0.7495059193359839,9.703791147800357e-05,0,54,[],0.008344566798768938,None,['space'],294.33887179999147,294.33887179999147,0.2097802667412907,2.0759993530988985,294.5508484999882,294.33887179999147,[-1.4476407000329345],,,,,,,,nefynm,001,english,0,2022-05-06_09h33.12.972,Continuous,2022.1.1,36.15696316197544,
5,0,5,0,10,0,10,0,,,,,,,,1.8662190863576078,time,140.0,3.6355321522322774,0.000895411912543093,0,55,[],0.002881866763345897,0.19752626668196172,['space'],296.41870809998363,296.41870809998363,0.19752626668196172,2.0637453530395695,296.63163359998725,296.41870809998363,[-1.5428934999508783],,,,,,,,nefynm,001,english,0,2022-05-06_09h33.12.972,Continuous,2022.1.1,36.15696316197544,
5,0,5,0,11,0,11,0,,,,,,,,1.8662190863576078,time,940.0,4.881524201378788,7.428484506815586e-05,0,56,[],0.008017266751267016,None,['space'],298.5001274999231,298.5001274999231,0.2090486667584628,2.0752677531160706,298.7159689000109,298.5001274999231,[-1.2247491999296471],,,,,,,,nefynm,001,english,0,2022-05-06_09h33.12.972,Continuous,2022.1.1,36.15696316197544,
5,0,5,0,12,0,12,0,,,,,,,,1.8662190863576078,time,157.0,2.809333921202301,0.0006050231423655523,0,57,[],0.006320066750049591,None,['space'],300.58794889994897,300.58794889994897,0.20743416680488735,2.073653253162495,300.8074501999654,300.58794889994897,[-1.5208264000248164],,,,,,,,nefynm,001,english,0,2022-05-06_09h33.12.972,Continuous,2022.1.1,36.15696316197544,
5,0,5,0,13,0,13,0,,,,,,,,1.8662190863576078,time,1408.0,-7.267042689699008,2.1912068516924173e-05,0,58,[],0.004325066693127155,0.20008226670324802,['space'],302.67424640001263,302.67424640001263,0.20008226670324802,2.066301353060856,302.8879256999353,302.67424640001263,[-1.5433514000615105],,,,,,,,nefynm,001,english,0,2022-05-06_09h33.12.972,Continuous,2022.1.1,36.15696316197544,
6,0,6,0,0,0,0,0,,,,,,314.15064379991964,None,2.278519056084276,none,250.0,3.372535584415391,0.00024694303620122177,0,24,[],0.009757766616530716,None,None,315.1723800000036,None,0.21106946666259319,2.4895885227468693,315.38489689992275,None,,304.75720260001253,None,"[0.3333333333333333, 0.16666666666666666, 0.16666666666666666, 0.16666666666666666, 0.16666666666666666, 0.16666666666666666, 0.16666666666666666, 0.5833333333333334, 0.16666666666666666, 0.3333333333333333, 0.16666666666666666, 0.16666666666666666, 0.3333333333333333, 0.16666666666666666, 0.16666666666666666]",,,,,nefynm,001,english,0,2022-05-06_09h33.12.972,Continuous,2022.1.1,36.15696316197544,
6,0,6,0,1,0,1,0,,,,,,,,1.195258126689129,none,158.0,2.366802781782496,0.0005632788965233891,0,25,[],0.007902466808445752,None,['space'],317.6684357000049,317.6684357000049,0.21207476675044745,1.4073328934395763,317.87403639999684,317.6684357000049,[-1.9131681000581011],,,,,,,,nefynm,001,english,0,2022-05-06_09h33.12.972,Continuous,2022.1.1,36.15696316197544,
6,0,6,0,2,0,2,0,,,,,,,,2.238624244441633,none,446.0,-1.4568885892022485,6.274547823563162e-05,0,26,[],0.005519266705960035,None,['space'],319.07450139999855,319.07450139999855,0.20514626672957093,2.443770511171204,319.2923171999864,319.07450139999855,[-0.7114745000144467],,,,,,,,nefynm,001,english,0,2022-05-06_09h33.12.972,Continuous,2022.1.1,36.15696316197544,
6,0,6,0,3,0,3,0,,,,,,,,2.567128956870425,none,223.0,2.670999689913028,0.00029972560131091754,0,27,[],0.005963466712273657,None,None,321.5248934000265,321.5248934000265,0.2044202667893842,2.771549223659809,321.74242169992067,321.5248934000265,,,,,,,,,nefynm,001,english,0,2022-05-06_09h33.12.972,Continuous,2022.1.1,36.15696316197544,
6,0,6,0,4,0,4,0,,,,,,,,1.4446657482289829,none,,,,1,27,[],0.004209366743452847,0.19957186677493155,"['space', 'space']",324.3129795999266,324.3129795999266,0.19957186677493155,1.6442376150039144,324.53155590000097,324.3129795999266,"[-1.997808299958706, 0.01830510003492236]",,,,,,,,nefynm,001,english,0,2022-05-06_09h33.12.972,Continuous,2022.1.1,36.15696316197544,
6,0,6,0,5,0,5,0,,,,,,,,1.6120521964192835,none,354.0,-1.2342918012996913,7.677343058332455e-05,0,28,[],0.009623066755011678,None,None,325.97371639998164,325.97371639998164,0.209820166695863,1.8218723631151466,326.1847177000018,325.97371639998164,,,,,,,,,nefynm,001,english,0,2022-05-06_09h33.12.972,Continuous,2022.1.1,36.15696316197544,
6,0,6,0,6,0,6,0,,,,,,,,1.9785018020383665,none,177.0,-1.0,0.0003112316958067494,0,29,[],0.006310666678473353,None,None,327.79813719994854,327.79813719994854,0.20214636670425534,2.180648168742622,328.0091274000006,327.79813719994854,,,,,,,,,nefynm,001,english,0,2022-05-06_09h33.12.972,Continuous,2022.1.1,36.15696316197544,
6,0,6,0,7,0,7,0,,,,,,,,1.6573814340552058,none,281.0,0.5166243785332343,0.00014289225232074664,0,30,[],0.0075291667599231005,None,['space'],329.99596349999774,329.99596349999774,0.21095796674489975,1.8683394008001055,330.21022769995034,329.99596349999774,[-1.2648658000398427],,,,,,,,nefynm,001,english,0,2022-05-06_09h33.12.972,Continuous,2022.1.1,36.15696316197544,
7,0,7,0,0,0,0,0,,,,,,337.6168537000194,None,2.783050831638544,none,187.0,3.539375075722904,0.00047013083913623557,0,31,[],0.008093866752460599,None,None,338.63955500000156,None,0.20458336675073951,2.9876341983892836,338.8512820999604,None,,331.8629784999648,None,"[0.16666666666666666, 0.5833333333333334, 0.5833333333333334, 0.5833333333333334, 0.5833333333333334, 0.16666666666666666, 0.3333333333333333, 0.3333333333333333, 0.3333333333333333, 0.3333333333333333, 0.3333333333333333, 0.16666666666666666, 0.16666666666666666, 0.3333333333333333, 0.5833333333333334]",,,,,nefynm,001,english,0,2022-05-06_09h33.12.972,Continuous,2022.1.1,36.15696316197544,
7,0,7,0,1,0,1,0,,,,,,,,2.9620986114668586,none,1414.0,-7.0,2.2529667152803553e-05,0,32,[],0.00772906665224582,None,"['space', 'space']",341.6410570999142,341.6410570999142,0.21172856667544693,3.1738271781423055,341.8545193999307,341.6410570999142,"[-2.141369800083339, -0.589606299996376]",,,,,,,,nefynm,001,english,0,2022-05-06_09h33.12.972,Continuous,2022.1.1,36.15696316197544,
7,0,7,0,2,0,2,0,,,,,,,,1.0029561019339956,none,3564.0,-1.5046846989527338,6.415257489278822e-05,0,33,[],0.0043115668231621385,None,['space'],344.8172552000033,344.8172552000033,0.2011660668067634,1.204122168740759,345.03234499995597,344.8172552000033,[-1.5254925999324769],,,,,,,,nefynm,001,english,0,2022-05-06_09h33.12.972,Continuous,2022.1.1,36.15696316197544,
7,0,7,0,3,0,3,0,,,,,,,,2.3885408326916244,none,2520.0,-4.6367026120485075,4.963693542541236e-05,0,34,[],0.0037232667673379183,None,['space'],346.0374913000269,346.0374913000269,0.19731226679868996,2.5858530994903144,346.254848600016,346.0374913000269,[-0.45772399997804314],,,,,,,,nefynm,001,english,0,2022-05-06_09h33.12.972,Continuous,2022.1.1,36.15696316197544,
7,0,7,0,4,0,4,0,,,,,,,,2.147339081729412,none,1122.0,-0.782286091356144,4.492173407348891e-05,0,35,[],0.0076208667596802115,None,None,348.64741199999116,348.64741199999116,0.20816146675497293,2.3555005484843847,348.8619894000003,348.64741199999116,,,,,,,,,nefynm,001,english,0,2022-05-06_09h33.12.972,Continuous,2022.1.1,36.15696316197544,
7,0,7,0,5,0,5,0,,,,,,,,1.5819181913176694,none,707.0,-4.713668728600519,2.5811898228626844e-05,0,36,[],0.007743266643956304,None,None,351.0053118999349,351.0053118999349,0.21330356667749584,1.7952217579951653,351.21693539991975,351.0053118999349,,,,,,,,,nefynm,001,english,0,2022-05-06_09h33.12.972,Continuous,2022.1.1,36.15696316197544,
7,0,7,0,6,0,6,0,,,,,,,,2.887676736969131,none,125.0,0.21906175789765925,0.0007411789767524078,0,37,[],0.0005822667153552175,0.1955294667277485,None,352.8011764999246,352.8011764999246,0.1955294667277485,3.0832062036968795,353.01278330001514,352.8011764999246,,,,,,,,,nefynm,001,english,0,2022-05-06_09h33.12.972,Continuous,2022.1.1,36.15696316197544,
7,0,7,0,7,0,7,0,,,,,,,,2.2338879131735223,none,891.0,5.968143539299014,8.141574605050442e-05,0,38,[],0.007455666782334447,None,['space'],355.90538749995176,355.90538749995176,0.21179736673366278,2.445685279907185,356.1188833999913,355.90538749995176,[-2.3741012000245973],,,,,,,,nefynm,001,english,0,2022-05-06_09h33.12.972,Continuous,2022.1.1,36.15696316197544,
7,0,7,0,8,0,8,0,,,,,,,,1.143020902909891,none,280.0,-4.684104876374415,7.91363555578635e-05,0,39,[],0.007176266750320792,None,['space'],358.35756379994564,358.35756379994564,0.2171374667668715,1.3601583696767625,358.58186139992904,358.35756379994564,[-1.6583144000032917],,,,,,,,nefynm,001,english,0,2022-05-06_09h33.12.972,Continuous,2022.1.1,36.15696316197544,
7,0,7,0,9,0,9,0,,,,,,,,2.472538852126619,none,5340.0,-8.290448416010726,5.398221508055234e-05,0,40,[],0.002756466739811003,None,None,359.7196772999596,359.7196772999596,0.20472856669221073,2.67726741881883,359.9398260000162,359.7196772999596,,,,,,,,,nefynm,001,english,0,2022-05-06_09h33.12.972,Continuous,2022.1.1,36.15696316197544,
7,0,7,0,10,0,10,0,,,,,,,,2.681122154749504,none,2829.0,-1.7834426214955954,5.330156355835244e-05,0,41,[],0.0074182667303830385,None,['space'],362.41790130001027,362.41790130001027,0.20897296664770693,2.890095121397211,362.6325047999853,362.41790130001027,[-1.3348068000050262],,,,,,,,nefynm,001,english,0,2022-05-06_09h33.12.972,Continuous,2022.1.1,36.15696316197544,
7,0,7,0,11,0,11,0,,,,,,,,2.553110224782922,none,420.0,-4.150686345795302,4.683809098370407e-05,0,42,[],0.007118466775864363,None,None,365.3200691000093,365.3200691000093,0.20902626670431346,2.7621364914872353,365.5302158999257,365.3200691000093,,,,,,,,,nefynm,001,english,0,2022-05-06_09h33.12.972,Continuous,2022.1.1,36.15696316197544,
7,0,7,0,12,0,12,0,,,,,,,,1.0705600868324838,none,,,,1,42,[],0.01635173335671425,None,['space'],368.09138609992806,368.09138609992806,0.23662483331281692,1.3071849201453007,368.3217569999397,368.09138609992806,[-0.1762090000556782],,,,,,,,nefynm,001,english,0,2022-05-06_09h33.12.972,Continuous,2022.1.1,36.15696316197544,
7,0,7,0,13,0,13,0,,,,,,,,2.0915124569438746,none,1782.0,-7.0,2.9020320925171684e-05,0,43,[],0.00854116678237915,None,None,369.3866237999173,369.3866237999173,0.21200516668614,2.3035176236300146,369.60023360000923,369.3866237999173,,,,,,,,,nefynm,001,english,0,2022-05-06_09h33.12.972,Continuous,2022.1.1,36.15696316197544,
7,0,7,0,14,0,14,0,,,,,,,,1.8863605277340172,none,2245.0,-5.367351647126228,4.325519769447232e-05,0,44,[],0.006164966733194888,None,None,371.6941682000179,371.6941682000179,0.20537256670650095,2.091733094440518,371.91170299996156,371.6941682000179,,,,,,,,,nefynm,001,english,0,2022-05-06_09h33.12.972,Continuous,2022.1.1,36.15696316197544,
8,0,8,0,0,0,0,0,,,,,0.5833333333333334,376.2278669999214,None,1.916708990108254,frequency,125.0,1.0,0.0008109050486794653,0,44,[],0.012861666735261679,None,None,377.24995849991683,None,0.2328744666883722,2.149583456796626,377.4704151999904,None,,373.80358990002424,None,,,,,,nefynm,001,english,0,2022-05-06_09h33.12.972,Continuous,2022.1.1,36.15696316197544,
8,0,8,0,1,0,1,0,,,,,,,,2.583427116414926,frequency,187.0,2.302930126854295,0.0004077523691258961,0,45,[],0.007033566711470485,None,None,379.3808657999616,379.3808657999616,0.2104429667815566,2.7938700831964827,379.59170609992,379.3808657999616,,,,,,,,,nefynm,001,english,0,2022-05-06_09h33.12.972,Continuous,2022.1.1,36.15696316197544,
8,0,8,0,2,0,2,0,,,,,,,,2.3092456984482808,frequency,280.0,1.2583574675300941,0.00015685528752262603,0,46,[],0.0034964667866006494,None,['space'],382.17516969994176,382.17516969994176,0.1998014667769894,2.50904716522527,382.3888669000007,382.17516969994176,[-2.3085909999208525],,,,,,,,nefynm,001,english,0,2022-05-06_09h33.12.972,Continuous,2022.1.1,36.15696316197544,
8,0,8,0,3,0,3,0,,,,,,,,2.191872256903544,frequency,420.0,-2.9235313890411465,5.3945712526138595e-05,0,47,[],0.007181666675023735,None,['space'],384.7035961999791,384.7035961999791,0.22539786668494344,2.4172701235884873,384.9233426999999,384.7035961999791,[-1.9892110999207944],,,,,,,,nefynm,001,english,0,2022-05-06_09h33.12.972,Continuous,2022.1.1,36.15696316197544,
8,0,8,0,4,0,4,0,,,,,,,,2.674403974119059,frequency,629.0,0.6645509962633823,5.540126713097039e-05,0,48,[],0.0028997667832300067,None,['space'],387.1124263999518,387.1124263999518,0.19808576675131917,2.8724897408703782,387.3310105999699,387.1124263999518,[-1.7410496999509633],,,,,,,,nefynm,001,english,0,2022-05-06_09h33.12.972,Continuous,2022.1.1,36.15696316197544,
8,0,8,0,5,0,5,0,,,,,,,,2.197337069423841,frequency,942.0,6.617175149518881,9.08375356255477e-05,0,49,[],0.007020766730420291,None,None,390.008570099948,390.008570099948,0.21084946673363447,2.4081865361574755,390.21921659994405,390.008570099948,,,,,,,,,nefynm,001,english,0,2022-05-06_09h33.12.972,Continuous,2022.1.1,36.15696316197544,
8,0,8,0,6,0,6,0,,,,,,,,2.695308722202771,frequency,1411.0,-6.568387557663817,2.3712439612858082e-05,0,50,[],0.001622266718186438,None,['space'],392.4234196000034,392.4234196000034,0.20078336668666452,2.8960920888894357,392.6437736999942,392.4234196000034,[-1.9006205999758095],,,,,,,,nefynm,001,english,0,2022-05-06_09h33.12.972,Continuous,2022.1.1,36.15696316197544,
8,0,8,0,7,0,7,0,,,,,,,,2.202640565217867,frequency,2114.0,-1.3380082693105768,6.629752372649643e-05,0,51,[],0.003384166629984975,0.19718586665112525,None,395.339813199942,395.339813199942,0.19718586665112525,2.399826431868992,395.5562292999821,395.339813199942,,,,,,,,,nefynm,001,english,0,2022-05-06_09h33.12.972,Continuous,2022.1.1,36.15696316197544,
8,0,8,0,8,0,8,0,,,,,,,,2.104168706129414,frequency,3167.0,1.3433652343684772,8.091182295314074e-05,0,52,[],0.004624966764822602,None,['space'],397.7548783000093,397.7548783000093,0.20457606681156904,2.308744772940983,397.9710517999483,397.7548783000093,[-1.3757847999222577],,,,,,,,nefynm,001,english,0,2022-05-06_09h33.12.972,Continuous,2022.1.1,36.15696316197544,
8,0,8,0,9,0,9,0,,,,,,,,2.864943745062643,frequency,,,,1,52,[],0.002830066834576428,0.19808856677263975,['space'],400.0765741999494,400.0765741999494,0.19808856677263975,3.0630323118352827,400.2904863000149,400.0765741999494,[-1.7774221000727266],,,,,,,,nefynm,001,english,0,2022-05-06_09h33.12.972,Continuous,2022.1.1,36.15696316197544,
8,0,8,0,10,0,10,0,,,,,,,,1.688396281694211,frequency,7109.0,-0.648471608576445,0.00014341387739742168,0,53,[],0.008012066828086972,None,['space'],403.15869870001916,403.15869870001916,0.21134646679274738,1.8997427484869585,403.3669191999361,403.15869870001916,[-2.283693899982609],,,,,,,,nefynm,001,english,0,2022-05-06_09h33.12.972,Continuous,2022.1.1,36.15696316197544,
9,0,9,0,0,0,0,0,,,,,,421.6382630999433,None,2.807287015192162,time,1588.0,-7.898932698391329,2.2448909512542194e-05,0,59,[],0.012618066743016243,None,['space'],422.6661821999587,None,0.23766786674968898,3.044954881941851,422.8924909000052,None,[-1.7591457000235096],405.06406080001034,None,"[0.5833333333333334, 0.16666666666666666, 0.16666666666666666, 0.3333333333333333, 0.5833333333333334, 0.16666666666666666, 0.16666666666666666, 0.3333333333333333, 0.5833333333333334, 0.5833333333333334, 0.3333333333333333, 0.16666666666666666, 0.5833333333333334, 0.16666666666666666, 0.3333333333333333]",,,,,nefynm,001,english,0,2022-05-06_09h33.12.972,Continuous,2022.1.1,36.15696316197544,
9,0,9,0,1,0,1,0,,,,,,,,2.807287015192162,time,8000.0,-7.0,8.109050486794653e-05,0,60,[],0.006327566807158291,None,None,425.69520499999635,425.69520499999635,0.20828856679145247,3.0155755819836143,425.91044639993925,425.69520499999635,,,,,,,,,nefynm,001,english,0,2022-05-06_09h33.12.972,Continuous,2022.1.1,36.15696316197544,
9,0,9,0,2,0,2,0,,,,,,,,2.807287015192162,time,5339.0,-7.10075801899091,6.192263525462711e-05,0,61,[],0.006747566629201174,None,['space'],428.71976669994183,428.71976669994183,0.20859956671483815,3.015886581907,428.9259753000224,428.71976669994183,[-2.2761646999279037],,,,,,,,nefynm,001,english,0,2022-05-06_09h33.12.972,Continuous,2022.1.1,36.15696316197544,
9,0,9,0,3,0,3,0,,,,,,,,2.807287015192162,time,1415.0,-7.235049780450261,2.191737119244433e-05,0,62,[],0.00660606671590358,None,None,431.7393143000081,431.7393143000081,0.20996516675222665,3.0172521819443885,431.948963599978,431.7393143000081,,,,,,,,,nefynm,001,english,0,2022-05-06_09h33.12.972,Continuous,2022.1.1,36.15696316197544,
9,0,9,0,4,0,4,0,,,,,,,,2.807287015192162,time,3364.0,-3.084114056617806,5.1024790878348933e-05,0,63,[],0.00669516681227833,None,['space'],434.75886249996256,434.75886249996256,0.2078666667221114,3.0151536819142732,434.9655102000106,434.75886249996256,[-0.8270678999833763],,,,,,,,nefynm,001,english,0,2022-05-06_09h33.12.972,Continuous,2022.1.1,36.15696316197544,
9,0,9,0,5,0,5,0,,,,,,,,2.807287015192162,time,4238.0,-7.0,4.4809508700974774e-05,0,64,[],0.00648886663839221,None,None,437.7807585999835,437.7807585999835,0.20888026664033532,3.016167281832497,437.9897201999556,437.7807585999835,,,,,,,,,nefynm,001,english,0,2022-05-06_09h33.12.972,Continuous,2022.1.1,36.15696316197544,
9,0,9,0,6,0,6,0,,,,,,,,2.807287015192162,time,,,,1,64,[],0.006727666710503399,None,['space'],440.7963238999946,440.7963238999946,0.21954696672037244,3.0268339819125343,441.0168972000247,440.7963238999946,[-2.3693967000581324],,,,,,,,nefynm,001,english,0,2022-05-06_09h33.12.972,Continuous,2022.1.1,36.15696316197544,
9,0,9,0,7,0,7,0,,,,,,,,2.807287015192162,time,3776.0,-4.95684118850091,4.5215964466200826e-05,0,65,[],0.006605066708289087,None,None,443.82082329993136,443.82082329993136,0.20616246678400785,3.0134494819761697,444.036996299983,443.82082329993136,,,,,,,,,nefynm,001,english,0,2022-05-06_09h33.12.972,Continuous,2022.1.1,36.15696316197544,
9,0,9,0,8,0,8,0,,,,,,,,2.807287015192162,time,2245.0,-6.406779403089194,3.837663693398284e-05,0,66,[],0.015638633398339152,None,"['space', 'space']",446.85061470000073,446.85061470000073,0.21027583337854594,3.017562848570708,447.06590679998044,446.85061470000073,"[-2.3435232000192627, 0.008891399949789047]",,,,,,,,nefynm,001,english,0,2022-05-06_09h33.12.972,Continuous,2022.1.1,36.15696316197544,
9,0,9,0,9,0,9,0,,,,,,,,2.807287015192162,time,1782.0,-7.0,2.9020320925171684e-05,0,67,[],0.0048722667852416635,None,None,449.8769476999296,449.8769476999296,0.20303186681121588,3.0103188820033777,450.09176159999333,449.8769476999296,,,,,,,,,nefynm,001,english,0,2022-05-06_09h33.12.972,Continuous,2022.1.1,36.15696316197544,
10,0,10,0,0,0,0,0,,,,,,458.4668101000134,None,1.0118594750567245,time,,,,1,67,[],0.011205866816453636,None,['space'],459.5097261000192,None,0.22746476682368666,1.2393242418804111,459.7328157000011,None,[-0.7940837999340147],452.9055555999512,None,"[0.5833333333333334, 0.5833333333333334, 0.16666666666666666, 0.16666666666666666, 0.5833333333333334, 0.5833333333333334, 0.5833333333333334, 0.5833333333333334, 0.16666666666666666, 0.16666666666666666, 0.3333333333333333, 0.3333333333333333, 0.3333333333333333, 0.5833333333333334, 0.16666666666666666]",,,,,nefynm,001,english,0,2022-05-06_09h33.12.972,Continuous,2022.1.1,36.15696316197544,
10,0,10,0,1,0,1,0,,,,,,,,1.0118594750567245,time,674.0,-2.938622437433004,3.3727695971809546e-05,0,68,[],0.0037007667124271393,None,None,460.73891650000587,460.73891650000587,0.20028186670970172,1.2121413417664262,460.9543438999681,460.73891650000587,,,,,,,,,nefynm,001,english,0,2022-05-06_09h33.12.972,Continuous,2022.1.1,36.15696316197544,
10,0,10,0,2,0,2,0,,,,,,,,1.0118594750567245,time,849.0,6.0192001117241425,7.950867533513616e-05,0,69,[],0.006167466752231121,None,None,461.9724832000211,461.9724832000211,0.20760366681497544,1.2194631418717,462.1828188999789,461.9724832000211,,,,,,,,,nefynm,001,english,0,2022-05-06_09h33.12.972,Continuous,2022.1.1,36.15696316197544,
10,0,10,0,3,0,3,0,,,,,,,,1.0118594750567245,time,338.0,-2.5257880265511155,6.927182546607632e-05,0,70,[],0.015387133345939219,None,['space'],463.2018693999853,463.2018693999853,0.24097133334726095,1.2528308084039854,463.43820209999103,463.2018693999853,[-0.6944271000102162],,,,,,,,nefynm,001,english,0,2022-05-06_09h33.12.972,Continuous,2022.1.1,36.15696316197544,
10,0,10,0,4,0,4,0,,,,,,,,1.0118594750567245,time,1272.0,-6.9449683471480235,2.4257607454027365e-05,0,71,[],0.0018874667584896088,0.1970452667446807,None,464.444493399933,464.444493399933,0.1970452667446807,1.2089047418014052,464.6588604999706,464.444493399933,,,,,,,,,nefynm,001,english,0,2022-05-06_09h33.12.972,Continuous,2022.1.1,36.15696316197544,
10,0,10,0,5,0,5,0,,,,,,,,1.0118594750567245,time,425.0,-4.911895665503403,4.2762910475181415e-05,0,72,[],0.016292533255182207,None,None,465.6694287999999,465.6694287999999,0.2149674332467839,1.2268269083035084,465.88333340000827,465.6694287999999,,,,,,,,,nefynm,001,english,0,2022-05-06_09h33.12.972,Continuous,2022.1.1,36.15696316197544,
10,0,10,0,6,0,6,0,,,,,,,,1.0118594750567245,time,151.0,-1.012190039601773,0.0004372100301513242,0,73,[],0.002555866725742817,None,['space'],466.8989647999406,466.8989647999406,0.1952818667050451,1.2071413417617696,467.11542699998245,466.8989647999406,[-0.648287000018172],,,,,,,,nefynm,001,english,0,2022-05-06_09h33.12.972,Continuous,2022.1.1,36.15696316197544,
10,0,10,0,7,0,7,0,,,,,,,,1.0118594750567245,time,535.0,-5.536667401919235,3.488267463622637e-05,0,74,[],0.004348566755652428,None,None,468.12951639993116,468.12951639993116,0.20167986676096916,1.2135393418176936,468.3435440999456,468.12951639993116,,,,,,,,,nefynm,001,english,0,2022-05-06_09h33.12.972,Continuous,2022.1.1,36.15696316197544,
10,0,10,0,8,0,8,0,,,,,,,,1.0118594750567245,time,1428.0,-7.81767777017656,2.0364217768918214e-05,0,75,[],0.005492866737768054,None,['space'],469.362317699939,469.362317699939,0.20834056672174484,1.2202000417784693,469.57131779997144,469.362317699939,[-0.999970700009726],,,,,,,,nefynm,001,english,0,2022-05-06_09h33.12.972,Continuous,2022.1.1,36.15696316197544,
10,0,10,0,9,0,9,0,,,,,,,,1.0118594750567245,time,379.0,-8.0,3.264724102951903e-05,0,76,[],0.0021260667126625776,None,None,470.5884604000021,470.5884604000021,0.19675066671334207,1.2086101417700665,470.8045335999923,470.5884604000021,,,,,,,,,nefynm,001,english,0,2022-05-06_09h33.12.972,Continuous,2022.1.1,36.15696316197544,
11,0,11,0,0,0,0,0,,,,,,485.2562105000252,None,1.5137515743652579,time,1682.0,-6.432065238145777,2.8828050964574557e-05,0,77,[],0.013062466750852764,None,['space'],486.2928620999446,None,0.21962426672689617,1.733375841092154,486.50330069998745,None,[-1.2101201999466866],471.8189590999391,None,"[0.5833333333333334, 0.16666666666666666, 0.5833333333333334, 0.16666666666666666, 0.3333333333333333, 0.16666666666666666, 0.3333333333333333, 0.3333333333333333, 0.16666666666666666, 0.16666666666666666, 0.16666666666666666, 0.16666666666666666, 0.16666666666666666, 0.3333333333333333, 0.5833333333333334]",,,,,nefynm,001,english,0,2022-05-06_09h33.12.972,Continuous,2022.1.1,36.15696316197544,
11,0,11,0,1,0,1,0,,,,,,,,1.5137515743652579,time,4490.0,-6.508924984791143,5.561147271986481e-05,0,78,[],0.0015569666866213083,0.1971790665993467,['space'],488.0183952000225,488.0183952000225,0.1971790665993467,1.7109306409646046,488.2382803999353,488.0183952000225,[0.16922399995382875],,,,,,,,nefynm,001,english,0,2022-05-06_09h33.12.972,Continuous,2022.1.1,36.15696316197544,
11,0,11,0,2,0,2,0,,,,,,,,1.5137515743652579,time,5657.0,-5.621117128837935,6.728358974623051e-05,0,79,[],0.004477266571484506,None,None,489.7522880999604,489.7522880999604,0.2032917665783316,1.7170433409435895,489.9697903000051,489.7522880999604,,,,,,,,,nefynm,001,english,0,2022-05-06_09h33.12.972,Continuous,2022.1.1,36.15696316197544,
11,0,11,0,3,0,3,0,,,,,,,,1.5137515743652579,time,2829.0,-2.6303369131158725,4.8349861493617506e-05,0,80,[],0.015531233395449817,None,['space'],491.4809726999374,491.4809726999374,0.24030433339066803,1.754055907755926,491.7151699999813,491.4809726999374,[-0.5583144999109209],,,,,,,,nefynm,001,english,0,2022-05-06_09h33.12.972,Continuous,2022.1.1,36.15696316197544,
11,0,11,0,4,0,4,0,,,,,,,,1.5137515743652579,time,8000.0,-4.0,0.00011454338263838867,0,81,[],0.0018314667977392673,None,None,493.2259404999204,493.2259404999204,0.19577236683107913,1.709523941196337,493.43960279994644,493.2259404999204,,,,,,,,,nefynm,001,english,0,2022-05-06_09h33.12.972,Continuous,2022.1.1,36.15696316197544,
11,0,11,0,5,0,5,0,,,,,,,,1.5137515743652579,time,7127.0,-9.901545117172839,4.959846375840961e-05,0,82,[],0.0022794667165726423,0.19737776671536267,['space'],494.95873479999136,494.95873479999136,0.19737776671536267,1.7111293410806205,495.174308000016,494.95873479999136,[-1.2358128000050783],,,,,,,,nefynm,001,english,0,2022-05-06_09h33.12.972,Continuous,2022.1.1,36.15696316197544,
11,0,11,0,6,0,6,0,,,,,,,,1.5137515743652579,time,1888.0,-4.506736641459213,4.1517982233981246e-05,0,83,['time'],0.0037144667003303766,None,None,496.6937367999926,496.6937367999926,0.2042680666781962,1.718019641043454,496.91081079992,496.6937367999926,,,,,"{'estimation': [[125.0, 1.900730959566816], [130.2931418017859, 1.0], [133.9716828170366, 0.445823244457334], [137.54255448180183, 0.0], [143.5872943746293, -0.7010728922015774], [148.5051500674695, -1.0], [153.89305166811442, -1.315069329437193], [164.93848884661162, -1.2876728302451685], [170.37699423243043, -1.0], [176.77669529663666, -0.6719580456239689], [185.26087185702997, 0.0], [189.46457081379947, 0.3230791886105985], [198.01546036639533, 1.0], [203.0630990890585, 1.3863949800182211], [214.1995713627653, 2.0], [217.6376408240306, 2.1834465591629577], [233.25824788420132, 2.4458968550196456], [249.99999999999937, 2.047068239838965], [250.80608518800923, 2.0], [267.94336563407256, 1.0313245090588774], [268.35106934086474, 1.0], [281.6044749781254, 0.0], [287.1745887492579, -0.4041397337709854], [294.8630253288362, -1.0], [307.78610333622805, -1.9656186505829876], [308.31560300013507, -2.0], [324.04379882652864, -3.0], [329.87697769322284, -3.3550370154351863], [345.3076095135574, -4.0], [353.55339059327247, -4.332782558683343], [378.929141627598, -4.776783464717383], [406.12619817811606, -4.689179379953316], [435.2752816480601, -4.160825151371116], [441.0183616858574, -4.0], [466.5164957684015, -3.3216074702880807], [476.6979824081559, -3.0], [499.9999999999975, -2.2965634951747873], [509.2027380097589, -2.0], [535.8867312681438, -1.1692196489726663], [541.2477359235097, -1.0], [573.6790236153631, 0.0], [574.3491774985143, 0.020127444228983937], [606.9926858430528, 1.0], [615.5722066724546, 1.2496987729497586], [642.1957788411713, 2.0], [659.7539553864432, 2.477542798692202], [680.9572446571385, 3.0], [707.1067811865431, 3.6173084156020665], [727.9511782200491, 4.0], [757.8582832551941, 4.5228660165053345], [811.6969268858584, 5.0], [812.2523963562301, 5.004721356251655], [814.3676712144975, 5.0], [870.5505632961181, 4.880370084101849], [933.0329915368008, 4.034120372261236], [934.4770302084079, 4.0], [976.8984977165306, 3.0], [999.9999999999926, 2.4694493105008313], [1015.8180279305824, 2.0], [1049.129596616514, 1.0], [1071.773462536285, 0.3440509572024276], [1082.8132199448098, 0.0], [1114.3792939692785, -1.0], [1147.0907034561774, -2.0], [1148.698354997026, -2.0471398417352704], [1182.45804104354, -3.0], [1218.6959566937528, -4.0], [1231.1444133449063, -4.325307277120698], [1263.3431208020695, -5.0], [1312.9950949928143, -6.0], [1319.5079107728832, -6.124794602639399], [1396.6052222468222, -7.0], [1414.2135623730828, -7.190079874998653], [1515.7165665103828, -7.448333250048156], [1624.5047927124563, -7.033942232459336], [1629.344176518198, -6.999999999999999], [1741.1011265922318, -6.244114893327292], [1778.1794252507361, -6.0], [1866.065983073597, -5.4433651288001], [1986.0722092055773, -5.0], [1999.9999999999802, -4.950075353194148], [2143.5469250725646, -4.932052961595609], [2168.2250177728333, -5.0], [2297.396709994049, -5.356254893130575], [2462.2888266898062, -5.999486067918533], [2462.4547006468224, -6.0], [2639.01582154576, -6.543807213677428], [2828.427124746159, -6.671674281224299], [3031.4331330207615, -6.197336670650446], [3069.657683129564, -6.0], [3249.0095854249043, -5.1284354942361094], [3268.895378511275, -5.0], [3428.829932252314, -4.0], [3482.2022531844596, -3.6820984335283944], [3597.3312951973912, -3.0], [3732.1319661471844, -2.2260773527531654], [3787.9608517729653, -2.0], [3999.9999999999504, -1.161189776303487], [4127.969799384521, -1.0], [4287.093850145118, -0.8037969128486288], [4408.300094006663, -1.0], [4594.793419988081, -1.2865267267306586], [4784.343502587556, -2.0], [4924.577653379601, -2.5027460543328868], [5029.3355871022995, -3.0], [5245.084608834065, -4.0], [5278.031643091506, -4.1470551656603885], [5473.757294621982, -5.0], [5656.854249492303, -5.786276447718341], [5728.430266275346, -6.0], [6062.866266041508, -6.997172880590417], [6065.4691522931325, -7.0], [6498.019170849792, -7.463754088301921], [6964.404506368894, -7.061703568138285], [6989.567138046798, -7.0], [7408.3494750750315, -6.0], [7464.2639322943505, -5.8707014425272135], [7732.608953962932, -5.0], [7999.999999999892, -4.137891716059173]], 'plus_line': [[125.0, -3.7977163106058414], [126.58243728138972, -4.0], [133.9716828170366, -4.851459321004953], [135.34207443660148, -5.0], [143.5872943746293, -5.8441337802834985], [146.2890457426106, -6.0], [153.89305166811442, -6.441127532031713], [164.93848884661162, -6.427821800518336], [172.91138979353846, -6.0], [176.77669529663666, -5.808528833520369], [186.7475113884156, -5.0], [189.46457081379947, -4.789489832938314], [199.11620227953668, -4.0], [203.0630990890585, -3.690028533179385], [215.04456610726643, -3.0], [217.6376408240306, -2.859495660437156], [233.25824788420132, -2.6041386302479115], [249.0213112266794, -3.0], [249.99999999999923, -3.0255168488523716], [266.3611029863463, -4.0], [267.94336563407256, -4.09176228223536], [279.40774267601216, -5.0], [287.1745887492579, -5.57254038171337], [292.51051981961245, -6.0], [305.7420313476341, -7.0], [307.78610333622805, -7.147625546469607], [320.87965745098285, -8.0], [329.87697769322244, -8.54351196103266], [340.83458886402394, -9.0], [353.55339059327247, -9.511995891755578], [378.929141627598, -9.918998871473786], [406.12619817811606, -9.772337726467839], [435.2752816480601, -9.138972156018502], [439.56728353014984, -9.0], [466.5164957684015, -8.18817142690084], [471.9930501094387, -8.0], [499.99999999999693, -7.079740781141606], [502.44115556701416, -7.0], [533.8820885729169, -6.0], [535.8867312681438, -5.9383995425109175], [567.5250989092189, -5.0], [574.3491774985143, -4.800181956247221], [602.6449946621302, -4.0], [615.5722066724546, -3.6360286704399334], [638.9820211839829, -3.0], [659.753955386444, -2.4385268192836422], [677.4186795919471, -2.0], [707.1067811865431, -1.2757027788502122], [721.1565587708321, -1.0], [757.8582832551941, -0.31343435817049636], [787.7144761901435, 0.0], [812.2523963562301, 0.23463214681195343], [870.5505632961181, 0.14550955403172183], [880.8201302824068, 0.0], [933.0329915368008, -0.7266745021949751], [943.8146114290198, -1.0], [984.2709902037108, -2.0], [999.9999999999926, -2.362423359966769], [1019.5213982071871, -3.0], [1051.631493003576, -4.0], [1071.773462536285, -4.565912942453526], [1084.6213029771277, -5.0], [1114.5939421463559, -6.0], [1148.698354997026, -6.9836029105140485], [1149.260433939031, -7.0], [1182.8762941909054, -8.0], [1220.994513493123, -9.0], [1231.1444133449063, -9.24621350136988], [1267.2814288637403, -10.0], [1319.5079107728832, -10.965080532750804], [1322.6735731419815, -11.0], [1414.2135623730828, -11.961637303122941], [1431.0759892003794, -12.0], [1515.7165665103828, -12.200301980013707], [1566.0922013805894, -12.0], [1624.5047927124563, -11.79004608114327], [1740.1880354768748, -11.0], [1741.1011265922318, -10.994090519722366], [1866.0659830735992, -10.192241597791446], [1918.0310675414044, -10.0], [1999.9999999999802, -9.721680009999943], [2143.5469250725646, -9.81928055340698], [2187.479344412575, -10.0], [2297.396709994046, -10.477841248352593], [2393.3739323782356, -11.0], [2462.2888266898062, -11.38758864692867], [2613.222747797452, -12.0], [2639.01582154576, -12.1082795855742], [2828.427124746159, -12.266592447042322], [2912.86251709308, -12.0], [3031.4331330207615, -11.662551440456822], [3142.2541547615865, -11.0], [3249.0095854249043, -10.39613896664414], [3305.158815633796, -10.0], [3449.662695994013, -9.0], [3482.2022531844555, -8.78633740773808], [3610.645360191226, -8.0], [3732.131966147189, -7.265702224280293], [3796.444712075367, -7.0], [3999.9999999999504, -6.194489103247695], [4143.757001925067, -6.0], [4287.093850145118, -5.82512845318828], [4411.260207190797, -6.0], [4594.793419988081, -6.25981701057883], [4799.953442432796, -7.0], [4924.577653379601, -7.425104544355969], [5041.751952538889, -8.0], [5259.290013682679, -9.0], [5278.031643091506, -9.083040100107446], [5465.7081241296455, -10.0], [5656.854249492303, -10.868811000556013], [5694.291919042309, -11.0], [5976.8015946309515, -12.0], [6062.866266041501, -12.297587252470551], [6498.019170849792, -12.921472698952826], [6964.404506368894, -12.571395574070774], [7197.353646056125, -12.0], [7464.2639322943505, -11.361138164186595], [7585.927525422323, -11.0], [7915.253952914489, -10.0], [7999.999999999882, -9.743903472882003]], 'minus_line': [[125.0, 7.568134423358769], [127.47283118795242, 7.0], [131.99002615921586, 6.0], [133.9716828170366, 5.5980422794839235], [138.00518367947993, 5.0], [143.5872943746293, 4.213052015782338], [146.71019673138795, 4.0], [153.89305166811442, 3.549557675294139], [164.93848884661162, 3.612155463488603], [171.7413691039232, 4.0], [176.77669529663666, 4.292307629777078], [185.2010584695242, 5.0], [189.46457081379947, 5.351328995588453], [197.3133945182645, 6.0], [203.0630990890585, 6.461794434450689], [212.56802628272723, 7.0], [217.6376408240306, 7.285921566584928], [233.25824788420132, 7.567145527165782], [249.99999999999937, 7.168179642350547], [252.82674751337265, 7.0], [267.94336563407256, 6.1363989055363986], [269.7004462121606, 6.0], [282.76719626357277, 5.0], [287.1745887492579, 4.669309923648708], [295.78873522092397, 4.0], [307.78610333622805, 3.0540537495815507], [308.61639068295233, 3.0], [324.2450800931199, 2.0], [329.87697769322244, 1.6446132595161624], [345.32809094400477, 1.0], [353.55339059327247, 0.668728796104343], [378.929141627598, 0.2476114352478087], [406.12619817811606, 0.35628028511242205], [435.2752816480601, 0.8701991345422099], [440.185691668002, 1.0], [466.5164957684015, 1.6854507584194756], [476.75094563255914, 2.0], [499.9999999999975, 2.6910563359305226], [509.4326046015795, 3.0000000000000004], [535.8867312681438, 3.829921373924634], [541.0294284592757, 4.0], [572.4890161813274, 5.0], [574.3491774985143, 5.057103137100294], [604.4240547517381, 6.0], [615.5722066724546, 6.3280313688663945], [639.185500111542, 7.0], [659.7539553864432, 7.548799071806291], [678.8259703154376, 8.0], [707.1067811865431, 8.63131658954168], [729.420578446093, 9.0], [757.8582832551941, 9.453616503920724], [812.2523963562301, 9.851159413412592], [870.5505632961181, 9.694390766952631], [922.0819183959029, 9.0], [933.0329915368008, 8.859279258367835], [971.8730148214335, 8.0], [999.9999999999926, 7.359620835294722], [1013.1317718002538, 7.0], [1047.9537014236114, 6.0], [1071.773462536285, 5.290894460897223], [1081.81193953029, 5.0], [1114.7874635811318, 4.0], [1145.6227493928839, 2.9999999999999996], [1148.698354997026, 2.9048894316907936], [1182.1948147473781, 2.0], [1216.4400419886715, 1.0], [1231.1444133449063, 0.5818113865232046], [1258.7873289176478, 0.0], [1304.7196160705882, -1.0], [1319.5079107728832, -1.311733959623664], [1376.0144510966188, -2.0], [1414.2135623730828, -2.4484753699182846], [1515.7165665103846, -2.7254403637729823], [1624.5047927124563, -2.2862356638951375], [1665.3496208386093, -2.0], [1741.1011265922298, -1.4741487036857266], [1816.263215082949, -1.0], [1866.065983073597, -0.6900857262336808], [1999.9999999999802, -0.21714541597900067], [2143.5469250725646, -0.15388871712803773], [2297.396709994046, -0.43405988072500745], [2462.2888266898062, -0.913176086321852], [2497.094994521945, -1.0], [2639.01582154576, -1.3288812132243921], [2828.427124746159, -1.439292556208391], [3031.4331330207615, -1.0437887341310539], [3040.6643429748447, -1.0], [3249.0095854249043, -0.050210001990843224], [3256.810611262816, 0.0], [3413.440333134871, 1.0], [3482.2022531844555, 1.4124690275456777], [3573.734856911966, 2.0], [3732.1319661471844, 2.9665640990863706], [3739.538082192173, 3.0], [3960.056566110585, 4.0], [3999.9999999999504, 4.178220358296954], [4287.093850145118, 4.610595175708151], [4594.793419988081, 4.076663417506787], [4613.076216608632, 4.0], [4860.101485239357, 3.0], [4924.577653379601, 2.7483650276248976], [5078.495105514141, 2.0], [5278.031643091506, 1.0098845047029212], [5280.342582328076, 1.0], [5517.8658300984725, 0.0], [5656.854249492303, -0.5950328094536744], [5805.638099362235, -1.0], [6062.866266041501, -1.6912711543964223], [6435.123162036323, -2.0], [6498.019170849792, -2.048364213906098], [6547.03344959103, -2.0], [6964.404506368894, -1.5781928218692869], [7192.483372380556, -1.0], [7464.2639322943505, -0.33912885485515704], [7555.037232942629, 0.0], [7823.123662069946, 1.0], [7999.999999999872, 1.620508416241658]]}",,,,nefynm,001,english,0,2022-05-06_09h33.12.972,Continuous,2022.1.1,36.15696316197544,
11,0,11,0,7,0,7,0,,,,,,,,1.5137515743652579,time,4000.0,-4.211662946133416,5.168765830581191e-05,0,84,['time'],0.0008463667472824454,None,['space'],498.4317634999752,498.4317634999752,0.21106726676225662,1.7248188411275145,498.65615619998425,498.4317634999752,[-0.2938576000742614],,,,,,,,nefynm,001,english,0,2022-05-06_09h33.12.972,Continuous,2022.1.1,36.15696316197544,
11,0,11,0,8,0,8,0,,,,,,,,1.5137515743652579,time,3175.0,1.5865017063315456,8.337728913605708e-05,0,85,['time'],0.014982533175498247,None,['space'],500.17361870000605,500.17361870000605,0.21255623328033835,1.7263078076455962,500.39029419992585,500.17361870000605,[-0.17933960002847016],,,,,,,,nefynm,001,english,0,2022-05-06_09h33.12.972,Continuous,2022.1.1,36.15696316197544,
11,0,11,0,9,0,9,0,,,,,,,,1.5137515743652579,time,,,,1,85,['time'],0.004361266735941172,None,None,501.9147452999605,501.9147452999605,0.20441836677491665,1.7181699411401745,502.12585730000865,501.9147452999605,,,,,,,,,nefynm,001,english,0,2022-05-06_09h33.12.972,Continuous,2022.1.1,36.15696316197544,
12,0,12,0,0,0,0,0,,,,,0.16666666666666666,506.89643540000543,None,1.6714214512374959,frequency,126.0,5.702131236401683,0.001376237827483467,0,54,['time'],0.010250066756270826,None,None,507.92490199999884,None,0.21402236679568887,1.8854438180331847,508.13883009995334,None,,503.647518999991,None,,,,,,nefynm,001,english,0,2022-05-06_09h33.12.972,Continuous,2022.1.1,36.15696316197544,
12,0,12,0,1,0,1,0,,,,,,,,2.610535652586944,frequency,141.0,6.869827273845745,0.0012797498758849246,0,55,['time'],0.010091533185914159,None,['space'],509.82479460001923,509.82479460001923,0.21181993326172233,2.8223555858486664,510.0394737999886,509.82479460001923,[-0.2144251000136137],,,,,,,,nefynm,001,english,0,2022-05-06_09h33.12.972,Continuous,2022.1.1,36.15696316197544,
12,0,12,0,2,0,2,0,,,,,,,,2.9671713950129033,frequency,158.0,4.4712110034649815,0.0007177015622869355,0,56,['time'],0.004194466629996896,None,['space'],512.6593780999538,512.6593780999538,0.20555796660482883,3.172729361617732,512.8667290000012,512.6593780999538,[-1.8803088999120519],,,,,,,,nefynm,001,english,0,2022-05-06_09h33.12.972,Continuous,2022.1.1,36.15696316197544,
12,0,12,0,3,0,3,0,,,,,,,,2.086032113065567,frequency,177.0,10.0,0.0011042917282610592,0,57,['time'],0.004292766796424985,None,['space'],515.8439436999615,515.8439436999615,0.2066083668032661,2.292640479868833,516.0508035999956,515.8439436999615,[-2.664788999943994],,,,,,,,nefynm,001,english,0,2022-05-06_09h33.12.972,Continuous,2022.1.1,36.15696316197544,
12,0,12,0,4,0,4,0,,,,,,,,2.563212744116246,frequency,,,,1,57,['time'],0.013568433234468102,None,['space'],518.1438510000007,518.1438510000007,0.20895543333608657,2.7721681774523326,518.3584283000091,518.1438510000007,[-1.8448911000741646],,,,,,,,nefynm,001,english,0,2022-05-06_09h33.12.972,Continuous,2022.1.1,36.15696316197544,
12,0,12,0,5,0,5,0,,,,,,,,1.7083721484563046,frequency,223.0,5.654299273524462,0.00042256042370517424,0,58,['time'],0.0008689668029546738,0.19636636681389064,None,520.9275724999607,520.9275724999607,0.19636636681389064,1.9047385152701952,521.1421367999865,520.9275724999607,,,,,,,,,nefynm,001,english,0,2022-05-06_09h33.12.972,Continuous,2022.1.1,36.15696316197544,
12,0,12,0,6,0,6,0,,,,,,,,1.6061145417256195,frequency,250.0,9.222059884483215,0.00048425375672844084,0,59,['time'],0.00016546668484807014,None,['space'],522.8552641000133,522.8552641000133,0.19586476671975106,1.8019793084453706,523.0744144999189,522.8552641000133,[-1.148021100088954],,,,,,,,nefynm,001,english,0,2022-05-06_09h33.12.972,Continuous,2022.1.1,36.15696316197544,
12,0,12,0,7,0,7,0,,,,,,,,1.190079302057334,frequency,281.0,9.949546336922058,0.00042330634645228307,0,60,['time'],0.013350733323022723,None,['space'],524.6846392999869,524.6846392999869,0.20845283335074782,1.3985321354080817,524.8986272999318,524.6846392999869,[-1.041287999949418],,,,,,,,nefynm,001,english,0,2022-05-06_09h33.12.972,Continuous,2022.1.1,36.15696316197544,
12,0,12,0,8,0,8,0,,,,,,,,1.750295794912072,frequency,315.0,5.080067169905008,0.00017700003931686323,0,61,['time'],0.0009412667714059353,0.19529836671426892,['space'],526.0955485999584,526.0955485999584,0.19529836671426892,1.945594161626341,526.3113648999715,526.0955485999584,[-0.9809895999496803],,,,,,,,nefynm,001,english,0,2022-05-06_09h33.12.972,Continuous,2022.1.1,36.15696316197544,
12,0,12,0,9,0,9,0,,,,,,,,1.973024705256792,frequency,354.0,3.519308892919465,0.00013270612926796413,0,62,['time'],0.0006673667812719941,None,['space'],528.0657976999646,528.0657976999646,0.1929370667785406,2.165961772035333,528.2798112999881,528.0657976999646,[-1.174446600023657],,,,,,,,nefynm,001,english,0,2022-05-06_09h33.12.972,Continuous,2022.1.1,36.15696316197544,
13,0,13,0,0,0,0,0,,,,,,536.6053231999977,None,1.4434844015739852,none,616.0,0.0,5.334865481681654e-05,0,45,['time'],0.012941166758537292,None,None,537.6302386999596,None,0.2165223667398095,1.6600067683137947,537.8413154999726,None,,530.2597535999957,None,"[0.3333333333333333, 0.5833333333333334, 0.3333333333333333, 0.5833333333333334, 0.3333333333333333, 0.5833333333333334, 0.16666666666666666, 0.5833333333333334, 0.3333333333333333, 0.16666666666666666, 0.5833333333333334, 0.3333333333333333, 0.16666666666666666, 0.3333333333333333, 0.16666666666666666]",,,,,nefynm,001,english,0,2022-05-06_09h33.12.972,Continuous,2022.1.1,36.15696316197544,
13,0,13,0,1,0,1,0,,,,,,,,1.3221163148612471,none,1035.0,1.7884431450071272,5.592294006120192e-05,0,46,['time'],0.0031190665904432535,None,None,539.28794379998,539.28794379998,0.2067096666432917,1.5288259815045389,539.5034269000171,539.28794379998,,,,,,,,,nefynm,001,english,0,2022-05-06_09h33.12.972,Continuous,2022.1.1,36.15696316197544,
13,0,13,0,2,0,2,0,,,,,,,,1.6550526100092082,none,1464.0,-3.7188721720779085,3.2061872685577147e-05,0,47,['time'],0.01637943333480507,None,None,540.8242193999467,540.8242193999467,0.2125138333067298,1.867566443315938,541.0388411999447,540.8242193999467,,,,,,,,,nefynm,001,english,0,2022-05-06_09h33.12.972,Continuous,2022.1.1,36.15696316197544,
13,0,13,0,3,0,3,0,,,,,,,,1.1858591489632577,none,489.0,-2.2871378440836168,5.5337099392499076e-05,0,48,['time'],0.0007055667228996754,0.19340126670431346,None,542.696909799939,542.696909799939,0.19340126670431346,1.3792604156675712,542.9116445999825,542.696909799939,,,,,,,,,nefynm,001,english,0,2022-05-06_09h33.12.972,Continuous,2022.1.1,36.15696316197544,
13,0,13,0,4,0,4,0,,,,,,,,2.3302486679372674,none,1304.0,-3.853068732438321,3.411941984408095e-05,0,49,['time'],0.01620923343580216,None,None,544.1015243999427,544.1015243999427,0.2152944334084168,2.545543101345684,544.3139780999627,544.1015243999427,,,,,,,,,nefynm,001,english,0,2022-05-06_09h33.12.972,Continuous,2022.1.1,36.15696316197544,
13,0,13,0,5,0,5,0,,,,,,,,2.63220001301777,none,2071.0,-1.5785305935423788,6.369206082682384e-05,0,50,['time'],0.00039316678885370493,0.19161136669572443,None,546.6523102999199,546.6523102999199,0.19161136669572443,2.8238113797134945,546.86307880003,546.6523102999199,,,,,,,,,nefynm,001,english,0,2022-05-06_09h33.12.972,Continuous,2022.1.1,36.15696316197544,
13,0,13,0,6,0,6,0,,,,,,,,1.1291706571408977,none,290.0,1.7994343439763851,0.00015390442577595102,0,51,['time'],0.0031126666581258178,None,None,549.4983883999521,549.4983883999521,0.202667266712524,1.3318379238534217,549.7063966999995,549.4983883999521,,,,,,,,,nefynm,001,english,0,2022-05-06_09h33.12.972,Continuous,2022.1.1,36.15696316197544,
13,0,13,0,7,0,7,0,,,,,,,,1.7314974839518313,none,154.0,2.708181419811708,0.0006344983885626207,0,52,['time'],0.0034976666793227196,None,None,550.8470729999244,550.8470729999244,0.2117819666163996,1.943279450568231,551.0604834000114,550.8470729999244,,,,,,,,,nefynm,001,english,0,2022-05-06_09h33.12.972,Continuous,2022.1.1,36.15696316197544,
13,0,13,0,8,0,8,0,,,,,,,,2.868057141602721,none,691.0,1.8808390029443462,5.689228611659701e-05,0,53,['time'],0.01659433334134519,None,None,552.7930298999418,552.7930298999418,0.21063683333341032,3.0786939749361313,553.0063187999185,552.7930298999418,,,,,,,,,nefynm,001,english,0,2022-05-06_09h33.12.972,Continuous,2022.1.1,36.15696316197544,
13,0,13,0,9,0,9,0,,,,,,,,2.2778134180941745,none,,,,1,53,['time'],0.016573933302424848,None,None,555.8797188999597,555.8797188999597,0.2106107333675027,2.488424151461677,556.0947193999309,555.8797188999597,,,,,,,,,nefynm,001,english,0,2022-05-06_09h33.12.972,Continuous,2022.1.1,36.15696316197544,
13,0,13,0,10,0,10,0,,,,,,,,1.949271343385997,none,1845.0,-4.372301637819859,4.099191483339129e-05,0,54,['time'],0.0011350668501108885,0.1949622668325901,None,558.3784494999563,558.3784494999563,0.1949622668325901,2.144233610218587,558.5908821999328,558.3784494999563,,,,,,,,,nefynm,001,english,0,2022-05-06_09h33.12.972,Continuous,2022.1.1,36.15696316197544,
13,0,13,0,11,0,11,0,,,,,,,,1.285333609081682,none,326.0,0.0,9.576543797117735e-05,0,55,['time'],0.003226666827686131,None,None,560.5430773999542,560.5430773999542,0.20503526681568474,1.4903688758973668,560.7552668999415,560.5430773999542,,,,,,,,,nefynm,001,english,0,2022-05-06_09h33.12.972,Continuous,2022.1.1,36.15696316197544,
14,0,14,0,0,0,0,0,,,,,,566.1101945999544,None,2.66524997178795,none,707.0,3.4372803265475196,6.597317675924674e-05,0,56,['time'],0.01268066675402224,None,None,567.1363165000221,None,0.22904236672911793,2.894292338517068,567.350918799988,None,,562.0478758999379,None,"[0.16666666666666666, 0.16666666666666666, 0.5833333333333334, 0.5833333333333334, 0.3333333333333333, 0.3333333333333333, 0.5833333333333334, 0.5833333333333334, 0.3333333333333333, 0.5833333333333334, 0.16666666666666666, 0.5833333333333334, 0.16666666666666666, 0.3333333333333333, 0.3333333333333333]",,,,,nefynm,001,english,0,2022-05-06_09h33.12.972,Continuous,2022.1.1,36.15696316197544,
14,0,14,0,1,0,1,0,,,,,,,,1.7593116489331402,none,1782.0,-6.960551337593422,2.915242212913661e-05,0,57,['time'],0.0029845667304471135,None,None,570.0201012999751,570.0201012999751,0.20557946665212512,1.9648911155852653,570.2227170999395,570.0201012999751,,,,,,,,,nefynm,001,english,0,2022-05-06_09h33.12.972,Continuous,2022.1.1,36.15696316197544,
14,0,14,0,2,0,2,0,,,,,,,,2.7678498508825053,none,1189.0,-3.5983446512130834,3.433470110560367e-05,0,58,['time'],0.015122533310204744,None,None,571.9909436999587,571.9909436999587,0.2098446332383901,2.9776944841208954,572.2047478000168,571.9909436999587,,,,,,,,,nefynm,001,english,0,2022-05-06_09h33.12.972,Continuous,2022.1.1,36.15696316197544,
14,0,14,0,3,0,3,0,,,,,,,,1.1815907705471176,none,,,,1,58,['time'],0.00010846671648323536,0.1944890667218715,None,574.9785021999851,574.9785021999851,0.1944890667218715,1.376079837268989,575.1897651000181,574.9785021999851,,,,,,,,,nefynm,001,english,0,2022-05-06_09h33.12.972,Continuous,2022.1.1,36.15696316197544,
14,0,14,0,4,0,4,0,,,,,,,,2.6650087228397457,none,2829.0,-5.868855593009478,3.330192208025497e-05,0,59,['time'],0.004167166771367192,None,['space'],576.3725923999446,576.3725923999446,0.20836786669678986,2.8733765895365355,576.5925480999285,576.3725923999446,[-0.5694026999408379],,,,,,,,nefynm,001,english,0,2022-05-06_09h33.12.972,Continuous,2022.1.1,36.15696316197544,
14,0,14,0,5,0,5,0,,,,,,,,2.7648315713179263,none,8000.0,-6.0,9.098504293049921e-05,0,60,['time'],0.015748333418741822,None,['space'],579.2565552999731,579.2565552999731,0.2154072334524244,2.9802388047703507,579.4716313999379,579.2565552999731,[-0.8292737000156194],,,,,,,,nefynm,001,english,0,2022-05-06_09h33.12.972,Continuous,2022.1.1,36.15696316197544,
14,0,14,0,6,0,6,0,,,,,,,,2.9679865054386605,none,4238.0,-6.053522974975003,4.996823777742373e-05,0,61,['time'],0.013159533380530775,None,['space'],582.2449082999956,582.2449082999956,0.2356226333649829,3.2036091388036434,582.4771472000284,582.2449082999956,[-2.426220400026068],,,,,,,,nefynm,001,english,0,2022-05-06_09h33.12.972,Continuous,2022.1.1,36.15696316197544,
14,0,14,0,7,0,7,0,,,,,,,,1.131734066465002,none,6350.0,-8.764898331774923,4.7946704460088426e-05,0,62,['time'],0.016036433400586247,None,['space'],585.4446766999317,585.4446766999317,0.21422813332173973,1.3459621997867417,585.6687292000279,585.4446766999317,[-2.6491387999849394],,,,,,,,nefynm,001,english,0,2022-05-06_09h33.12.972,Continuous,2022.1.1,36.15696316197544,
14,0,14,0,8,0,8,0,,,,,,,,1.1402889932175386,none,2245.0,-1.6384165307099676,6.644848093679462e-05,0,63,['time'],0.0014559667324647307,0.19940086675342172,None,586.8052153999452,586.8052153999452,0.19940086675342172,1.3396898599709604,587.0110745999264,586.8052153999452,,,,,,,,,nefynm,001,english,0,2022-05-06_09h33.12.972,Continuous,2022.1.1,36.15696316197544,
15,0,15,0,0,0,0,0,,,,,,653.96806679992,None,2.3517387563564194,none,140.0,3.888487283134046,0.0009218720002501269,0,64,['time'],0.012820866657420993,None,None,655.0126859999727,None,0.2355375667102635,2.587276323066683,655.2371646999381,None,,588.1584128999384,None,"[0.5833333333333334, 0.16666666666666666, 0.3333333333333333, 0.16666666666666666, 0.16666666666666666, 0.16666666666666666, 0.5833333333333334, 0.5833333333333334, 0.3333333333333333, 0.3333333333333333, 0.5833333333333334, 0.3333333333333333, 0.5833333333333334, 0.3333333333333333, 0.3333333333333333]",,,,,nefynm,001,english,0,2022-05-06_09h33.12.972,Continuous,2022.1.1,36.15696316197544,
15,0,15,0,1,0,1,0,,,,,,,,1.2722486202188903,none,887.0,6.278778185464653,8.414588542682825e-05,0,65,['time'],0.014512233436107635,None,None,657.5878750999691,657.5878750999691,0.22409673337824643,1.4963453535971367,657.8191850000294,657.5878750999691,,,,,,,,,nefynm,001,english,0,2022-05-06_09h33.12.972,Continuous,2022.1.1,36.15696316197544,
15,0,15,0,2,0,2,0,,,,,,,,2.3654700455547713,none,559.0,-0.7781441734558316,5.690718357510273e-05,0,66,['time'],0.01369943330064416,None,['space'],659.092081699986,659.092081699986,0.2264547332888469,2.591924778843618,659.3184790000087,659.092081699986,[-1.0484595999587327],,,,,,,,nefynm,001,english,0,2022-05-06_09h33.12.972,Continuous,2022.1.1,36.15696316197544,
15,0,15,0,3,0,3,0,,,,,,,,1.6773157981294706,none,,,,1,66,['time'],0.01085463329218328,None,['space'],661.6942319999216,661.6942319999216,0.20980593329295516,1.8871217314224258,661.909638299956,661.6942319999216,[-2.003941599978134],,,,,,,,nefynm,001,english,0,2022-05-06_09h33.12.972,Continuous,2022.1.1,36.15696316197544,
15,0,15,0,4,0,4,0,,,,,,,,1.348736729504807,none,249.0,3.8996821865076137,0.00026546357984141513,0,67,['time'],0.014312933315522969,None,None,663.6048008999787,663.6048008999787,0.23229493328835815,1.581031662793165,663.8233016999438,663.6048008999787,,,,,,,,,nefynm,001,english,0,2022-05-06_09h33.12.972,Continuous,2022.1.1,36.15696316197544,
15,0,15,0,5,0,5,0,,,,,,,,2.4664639040093608,none,2508.0,3.8066104962637874,0.00013236696894430863,0,68,['time'],0.01397943333722651,None,['space'],665.1751645000186,665.1751645000186,0.22598473331891,2.6924486373282708,665.404892200022,665.1751645000186,[-1.0360552000347525],,,,,,,,nefynm,001,english,0,2022-05-06_09h33.12.972,Continuous,2022.1.1,36.15696316197544,
15,0,15,0,6,0,6,0,,,,,,,,1.0930993124079926,none,1674.0,-7.368255543910836,2.572781746796302e-05,0,69,['time'],0.01623273326549679,None,['space'],667.8772126999684,667.8772126999684,0.24089513334911317,1.3339944457571058,668.1077738999156,667.8772126999684,[-2.139301599934697],,,,,,,,nefynm,001,english,0,2022-05-06_09h33.12.972,Continuous,2022.1.1,36.15696316197544,
15,0,15,0,7,0,7,0,,,,,,,,2.3671237954963535,none,222.0,4.306590646354306,0.00036504568035206336,0,70,['time'],0.012536933412775397,None,None,669.2047888999805,669.2047888999805,0.2311202334240079,2.5982440289203614,669.4329741999973,669.2047888999805,,,,,,,,,nefynm,001,english,0,2022-05-06_09h33.12.972,Continuous,2022.1.1,36.15696316197544,
15,0,15,0,8,0,8,0,,,,,,,,2.619631488228227,none,1329.0,3.4748987951119368,7.839717552822532e-05,0,71,['time'],0.013812933233566582,None,['space'],671.8043370000087,671.8043370000087,0.23405603331048042,2.853687521538707,672.0317252000095,671.8043370000087,[-2.081092699896544],,,,,,,,nefynm,001,english,0,2022-05-06_09h33.12.972,Continuous,2022.1.1,36.15696316197544,
15,0,15,0,9,0,9,0,,,,,,,,2.8613845207880795,none,3160.0,3.5473601346046006,0.00010409771054685874,0,72,['time'],0.015820633270777762,None,None,674.6514832000248,674.6514832000248,0.21071053331252187,3.0720950541006014,674.869903499959,674.6514832000248,,,,,,,,,nefynm,001,english,0,2022-05-06_09h33.12.972,Continuous,2022.1.1,36.15696316197544,
15,0,15,0,10,0,10,0,,,,,,,,1.2684394974693698,none,373.0,0.5903180589601971,8.944048908643641e-05,0,73,['time'],0.015028633293695748,None,['space'],677.7389481000137,677.7389481000137,0.21395253331866115,1.482392030788031,677.9548836000031,677.7389481000137,[-2.4316677000606433],,,,,,,,nefynm,001,english,0,2022-05-06_09h33.12.972,Continuous,2022.1.1,36.15696316197544,
15,0,15,0,11,0,11,0,,,,,,,,2.4373652375874766,none,176.0,4.094052198461991,0.0005653173865355349,0,74,['time'],0.002134166774339974,None,['space'],679.2351571000181,679.2351571000181,0.20717496669385582,2.6445402042813324,679.4496380999917,679.2351571000181,[-0.679768200032413],,,,,,,,nefynm,001,english,0,2022-05-06_09h33.12.972,Continuous,2022.1.1,36.15696316197544,
15,0,15,0,12,0,12,0,,,,,,,,1.7414392951858855,none,198.0,4.049446081702897,0.00043470949797728395,0,75,['time'],0.015529433265328407,None,['space'],681.8889295000117,681.8889295000117,0.20989723328966647,1.951336528475552,682.1028658000287,681.8889295000117,[-1.8297213000478223],,,,,,,,nefynm,001,english,0,2022-05-06_09h33.12.972,Continuous,2022.1.1,36.15696316197544,
15,0,15,0,13,0,13,0,,,,,,,,1.9627599855848368,none,704.0,3.9578529649550407,7.046297898458611e-05,0,76,['time'],0.01078333321493119,0.20408433326520026,['space'],683.8545454000123,683.8545454000123,0.20408433326520026,2.1668443188500373,684.0629116999917,683.8545454000123,[-1.411075699958019],,,,,,,,nefynm,001,english,0,2022-05-06_09h33.12.972,Continuous,2022.1.1,36.15696316197544,
15,0,15,0,14,0,14,0,,,,,,,,1.932628645606843,none,125.0,4.0,0.0011454338263838868,0,77,['time'],0.012607133365236223,None,['space'],686.037563299993,686.037563299993,0.20949523337185383,2.1421238789786967,686.2535430999706,686.037563299993,[-1.6753190999152139],,,,,,,,nefynm,001,english,0,2022-05-06_09h33.12.972,Continuous,2022.1.1,36.15696316197544,
16,0,16,0,0,0,0,0,,,,,0.3333333333333333,690.4150531999767,None,2.480692593569832,both,125.0,1.0,0.0008109050486794653,0,34,['time'],0.012882866780273616,None,None,691.4534589999821,None,0.2178149666870013,2.698507560256833,691.6739110000199,None,,688.1967029999942,None,,,,,,nefynm,001,english,0,2022-05-06_09h33.12.972,Continuous,2022.1.1,36.15696316197544,
16,0,16,0,1,0,1,0,,,,,,,,2.480692593569832,both,157.0,1.4185926709209897,0.0005155074243518129,0,35,['time'],0.01437043328769505,None,None,694.1526521999622,694.1526521999622,0.24000003328546882,2.7206926268553007,694.3843104999978,694.1526521999622,,,,,,,,,nefynm,001,english,0,2022-05-06_09h33.12.972,Continuous,2022.1.1,36.15696316197544,
16,0,16,0,2,0,2,0,,,,,,,,2.480692593569832,both,198.0,4.245776571388794,0.0004446472940248981,0,36,['time'],0.01589073333889246,None,None,696.8704933000263,696.8704933000263,0.21012223337311298,2.690814826942945,697.083181999973,696.8704933000263,,,,,,,,,nefynm,001,english,0,2022-05-06_09h33.12.972,Continuous,2022.1.1,36.15696316197544,
16,0,16,0,3,0,3,0,,,,,,,,2.480692593569832,both,249.0,3.2969383532634318,0.0002476667784184082,0,37,['time'],0.00029416673351079226,None,['space'],699.5731000999222,699.5731000999222,0.19816586666274816,2.67885846023258,699.78316240001,699.5731000999222,[-2.186709100031294],,,,,,,,nefynm,001,english,0,2022-05-06_09h33.12.972,Continuous,2022.1.1,36.15696316197544,
16,0,16,0,4,0,4,0,,,,,,,,2.480692593569832,both,314.0,0.9504753630083322,0.00011120752499728412,0,38,['time'],0.0014494667993858457,None,['space'],702.2755996999331,702.2755996999331,0.20304326678160578,2.6837358603514376,702.4836766999215,702.2755996999331,[-2.2806926999473944],,,,,,,,nefynm,001,english,0,2022-05-06_09h33.12.972,Continuous,2022.1.1,36.15696316197544,
16,0,16,0,5,0,5,0,,,,,,,,2.480692593569832,both,396.0,-2.6456328967688365,5.7218942845911994e-05,0,39,['time'],0.011694533401168883,None,['space'],704.9753911999287,704.9753911999287,0.23447043332271278,2.7151630268925446,705.2117387999315,704.9753911999287,[-2.1480416000122204],,,,,,,,nefynm,001,english,0,2022-05-06_09h33.12.972,Continuous,2022.1.1,36.15696316197544,
16,0,16,0,6,0,6,0,,,,,,,,2.480692593569832,both,499.0,-0.7960109780195368,6.523489216375348e-05,0,40,['time'],0.01520443323533982,None,None,707.690026300028,707.690026300028,0.23906973330304027,2.719762326872872,707.9214585999725,707.690026300028,,,,,,,,,nefynm,001,english,0,2022-05-06_09h33.12.972,Continuous,2022.1.1,36.15696316197544,
16,0,16,0,7,0,7,0,,,,,,,,2.480692593569832,both,629.0,0.8473499373926258,5.657957032526954e-05,0,41,['time'],0.014193733339197934,None,['space'],710.4044573999709,710.4044573999709,0.23747113335411996,2.718163726923952,710.6392154999776,710.4044573999709,[-2.3296509999781847],,,,,,,,nefynm,001,english,0,2022-05-06_09h33.12.972,Continuous,2022.1.1,36.15696316197544,
16,0,16,0,8,0,8,0,,,,,,,,2.480692593569832,both,,,,1,41,['time'],0.001376466709189117,None,['space'],713.1203379000071,713.1203379000071,0.2008847666438669,2.6815773602136987,713.3312273999909,713.1203379000071,[-2.021482100011781],,,,,,,,nefynm,001,english,0,2022-05-06_09h33.12.972,Continuous,2022.1.1,36.15696316197544,
16,0,16,0,9,0,9,0,,,,,,,,2.480692593569832,both,998.0,1.9197248407889131,5.487764759788858e-05,0,42,['time'],0.002471566665917635,None,None,715.8225637000287,715.8225637000287,0.207124866778031,2.687817460347863,716.0363091999898,715.8225637000287,,,,,,,,,nefynm,001,english,0,2022-05-06_09h33.12.972,Continuous,2022.1.1,36.15696316197544,
16,0,16,0,10,0,10,0,,,,,,,,2.480692593569832,both,1257.0,0.34142383990630787,5.6513780535963214e-05,0,43,['time'],0.009511633310467005,None,None,718.5253596999682,718.5253596999682,0.21160023333504796,2.69229282690488,718.7482465999201,718.5253596999682,,,,,,,,,nefynm,001,english,0,2022-05-06_09h33.12.972,Continuous,2022.1.1,36.15696316197544,
16,0,16,0,11,0,11,0,,,,,,,,2.480692593569832,both,1584.0,-6.492540933223543,2.6234560400822237e-05,0,44,['time'],0.014774933457374573,None,None,721.2332950999262,721.2332950999262,0.2359435334801674,2.7166361270499992,721.4638785999268,721.2332950999262,,,,,,,,,nefynm,001,english,0,2022-05-06_09h33.12.972,Continuous,2022.1.1,36.15696316197544,
16,0,16,0,12,0,12,0,,,,,,,,2.480692593569832,both,1996.0,-0.028115481090838834,7.438998623255088e-05,0,45,['time'],0.01073923334479332,None,None,723.9472267000237,723.9472267000237,0.22109313332475722,2.701785726894589,724.1653388999403,723.9472267000237,,,,,,,,,nefynm,001,english,0,2022-05-06_09h33.12.972,Continuous,2022.1.1,36.15696316197544,
16,0,16,0,13,0,13,0,,,,,,,,2.480692593569832,both,2515.0,2.3377026411033413,0.00011120296621270685,0,46,['time'],0.014623533235862851,None,None,726.6576187999453,726.6576187999453,0.20854943327140063,2.6892420268412325,726.8728803999256,726.6576187999453,,,,,,,,,nefynm,001,english,0,2022-05-06_09h33.12.972,Continuous,2022.1.1,36.15696316197544,
17,0,17,0,0,0,0,0,,,,,,734.9424390000058,None,1.5091911023173379,none,841.0,-10.452470196711836,1.1866983237990475e-05,0,78,['time'],0.012715966789983213,None,['space'],735.9806127999909,None,0.2036360667552799,1.7128271690726178,736.1852266999194,None,[-0.8182960000121966],729.3620467999717,None,"[0.3333333333333333, 0.5833333333333334, 0.3333333333333333, 0.16666666666666666, 0.5833333333333334, 0.5833333333333334, 0.3333333333333333, 0.3333333333333333, 0.3333333333333333, 0.16666666666666666, 0.5833333333333334, 0.5833333333333334, 0.3333333333333333, 0.16666666666666666, 0.3333333333333333]",,,,,nefynm,001,english,0,2022-05-06_09h33.12.972,Continuous,2022.1.1,36.15696316197544,
17,0,17,0,1,0,1,0,,,,,,,,1.0283879750371345,none,4000.0,-6.5323336949723005,3.95688400829602e-05,0,79,['time'],0.013756633386947215,None,None,737.699127699947,737.699127699947,0.24260633334051818,1.2709943083776527,737.937220599968,737.699127699947,,,,,,,,,nefynm,001,english,0,2022-05-06_09h33.12.972,Continuous,2022.1.1,36.15696316197544,
17,0,17,0,2,0,2,0,,,,,,,,2.952450743245851,none,1588.0,-9.64910140114934,1.835214425297885e-05,0,80,['time'],0.013778033433482051,None,None,738.9673538999632,738.9673538999632,0.20863833336625248,3.1610890766121034,739.1817455999553,738.9673538999632,,,,,,,,,nefynm,001,english,0,2022-05-06_09h33.12.972,Continuous,2022.1.1,36.15696316197544,
17,0,17,0,3,0,3,0,,,,,,,,2.7420272955433727,none,2670.0,-10.658804945744338,2.208178093411024e-05,0,81,['time'],0.013903733342885971,None,None,742.1425481999759,742.1425481999759,0.21301743341609836,2.955044728959471,742.3605265999213,742.1425481999759,,,,,,,,,nefynm,001,english,0,2022-05-06_09h33.12.972,Continuous,2022.1.1,36.15696316197544,
17,0,17,0,4,0,4,0,,,,,,,,2.9190856110216115,none,6350.0,-11.64548177544109,3.441355906096237e-05,0,82,['time'],0.014415633399039507,None,['space'],745.1098911999725,745.1098911999725,0.2400219333358109,3.1591075443574224,745.3434264999814,745.1098911999725,[-1.9948467999929562],,,,,,,,nefynm,001,english,0,2022-05-06_09h33.12.972,Continuous,2022.1.1,36.15696316197544,
17,0,17,0,5,0,5,0,,,,,,,,2.805021757406743,none,,,,1,82,['time'],0.01431413332466036,None,['space'],748.2659442999866,748.2659442999866,0.21070763329043984,3.015729390697183,748.4797801999375,748.2659442999866,[-0.9908520999597386],,,,,,,,nefynm,001,english,0,2022-05-06_09h33.12.972,Continuous,2022.1.1,36.15696316197544,
