practice.thisRepN,practice.thisTrialN,practice.thisN,practice.thisIndex,trials.thisRepN,trials.thisTrialN,trials.thisN,trials.thisIndex,blank_txt.started,blank_txt.stopped,practice_frequency,practice_level,psychopy_volume,tProbe.started,tProbe.stopped,tFeedback.keys,tFeedback.corr,tFeedback.started,tFeedback.stopped,tToo_early.keys,tToo_early.corr,tToo_early.started,tToo_early.stopped,tToo_late.keys,tToo_late.corr,tToo_late.rt,tToo_late.started,tToo_late.stopped,you_done_goofed.started,you_done_goofed.stopped,tFeedback.rt,Init_phase,Frequency,Level,Psychopy_Volume,Catch trial,probe.started,probe.stopped,feedback.keys,feedback.corr,feedback.rt,feedback.started,feedback.stopped,too_late.keys,too_late.corr,too_late.started,too_late.stopped,too_late.rt,Audiogram,participant,session,Language (english or french),Tone duration (ms),date,expName,psychopyVersion,frameRate,
0,0,0,0,,,,,78.9202819999773,None,567,40,0.006099267302654233,1.0008949667681009,None,None,0,80.91667270008475,81.93456750013866,None,1,79.92465019994415,80.94681470002979,['space'],0,[0.004331399919465184],81.93456750013866,None,82.9863156999927,None,,,,,,,,,,,,,,,,,,,,erfnpg,001,fr,200,2022-05-10_14h10.09.143,Bayesian,2022.1.1,None,
1,0,1,0,,,,,,,234,40,0.019882976039061955,1.008913766592741,None,['space'],1,89.52163249999285,90.52712260000408,None,1,88.51810280000791,89.5427522000391,None,1,,90.52712260000408,None,91.56119220005348,None,[0.3529630000703037],,,,,,,,,,,,,,,,,,,erfnpg,001,fr,200,2022-05-10_14h10.09.143,Bayesian,2022.1.1,None,
2,0,2,0,,,,,,,2345,40,0.008245949202640053,1.0091346667613834,None,['space'],1,94.59792730002664,95.60067449999042,None,1,93.59865609998815,94.59792730002664,None,1,,95.60067449999042,None,96.62882550014183,None,[0.3644667000044137],,,,,,,,,,,,,,,,,,,erfnpg,001,fr,200,2022-05-10_14h10.09.143,Bayesian,2022.1.1,None,
,,,,0,0,0,0,103.78668970009312,None,,,,,,,,,,,,,,,,,,,,,,"{'x': [], 'y': [], 'is_init_phase': True, 'is_exam_finished': False, 'threshold_uncertainty_db': 6}",1000,60,0.0440524436504007,False,0.0078112001065164804,None,['space'],1,[0.28137129987590015],104.87271140003577,105.87377679999918,None,1,105.87377679999918,None,,,erfnpg,001,fr,200,2022-05-10_14h10.09.143,Bayesian,2022.1.1,None,
,,,,1,0,1,0,,,,,,,,,,,,,,,,,,,,,,,,"{'x': [[1000, 60]], 'y': [[1]], 'audiogram': {}, 'is_init_phase': True, 'is_exam_finished': False, 'threshold_uncertainty_db': 6}",1000,40,0.004405244365040069,False,0.010407200315967202,None,['space'],1,[0.2681332000065595],107.23862840002403,108.24226880003698,None,1,108.24226880003698,107.23862840002403,,,erfnpg,001,fr,200,2022-05-10_14h10.09.143,Bayesian,2022.1.1,None,
,,,,2,0,2,0,,,,,,,,,,,,,,,,,,,,,,,,"{'x': [[1000, 60], [1000, 40]], 'y': [[1], [1]], 'audiogram': {}, 'is_init_phase': True, 'is_exam_finished': False, 'threshold_uncertainty_db': 6}",1000,20,0.0004405244365040069,False,0.009112200001254678,None,['space'],1,[0.2844920998904854],110.62924060015939,111.66416879999451,None,1,111.66416879999451,110.62924060015939,,,erfnpg,001,fr,200,2022-05-10_14h10.09.143,Bayesian,2022.1.1,None,
,,,,3,0,3,0,,,,,,,,,,,,,,,,,,,,,,,,"{'x': [[1000, 60], [1000, 40], [1000, 20]], 'y': [[1], [1], [1]], 'audiogram': {}, 'is_init_phase': True, 'is_exam_finished': False, 'threshold_uncertainty_db': 6}",1000,0,4.405244365040069e-05,False,0.007682200288400054,None,['space'],1,[0.5899043998215348],113.65294119995087,114.66000779997557,None,1,114.66000779997557,113.65294119995087,,,erfnpg,001,fr,200,2022-05-10_14h10.09.143,Bayesian,2022.1.1,None,
,,,,4,0,4,0,,,,,,,,,,,,,,,,,,,,,,,,"{'x': [[1000, 60], [1000, 40], [1000, 20], [1000, 0]], 'y': [[1], [1], [1], [1]], 'audiogram': {}, 'is_init_phase': True, 'is_exam_finished': False, 'threshold_uncertainty_db': 6}",,,,True,0.011667933315038681,0.20647703320719302,None,0,,115.83680259995162,116.85017590015195,None,1,116.85017590015195,115.83680259995162,,,erfnpg,001,fr,200,2022-05-10_14h10.09.143,Bayesian,2022.1.1,None,
,,,,5,0,5,0,,,,,,,,,,,,,,,,,,,,,,,,"{'x': [[1000, 60], [1000, 40], [1000, 20], [1000, 0]], 'y': [[1], [1], [1], [1]], 'audiogram': {}, 'is_init_phase': True, 'is_exam_finished': False, 'threshold_uncertainty_db': 6}",1000,-20,4.405244365040069e-06,False,0.010635300073772669,None,None,0,,118.17157669994049,119.18258580006659,None,1,119.18258580006659,118.17157669994049,,,erfnpg,001,fr,200,2022-05-10_14h10.09.143,Bayesian,2022.1.1,None,
,,,,6,0,6,0,,,,,,,,,,,,,,,,,,,,,,,,"{'x': [[1000, 60], [1000, 40], [1000, 20], [1000, 0], [1000, -20]], 'y': [[1], [1], [1], [1], [-1]], 'audiogram': {}, 'is_init_phase': True, 'is_exam_finished': False, 'threshold_uncertainty_db': 6}",1500,-10,1.527460556607758e-05,False,0.013739199843257666,None,None,0,,121.13810899993405,122.15584230003878,None,1,122.15584230003878,121.13810899993405,,,erfnpg,001,fr,200,2022-05-10_14h10.09.143,Bayesian,2022.1.1,None,
,,,,7,0,7,0,,,,,,,,,,,,,,,,,,,,,,,,"{'x': [[1000, 60], [1000, 40], [1000, 20], [1000, 0], [1000, -20], [1500, -10]], 'y': [[1], [1], [1], [1], [-1], [-1]], 'audiogram': {}, 'is_init_phase': True, 'is_exam_finished': False, 'threshold_uncertainty_db': 6}",1500,10,0.0001527460556607757,False,0.004541866946965456,None,None,0,,125.13711290014908,126.1454257001169,None,1,126.1454257001169,125.13711290014908,,,erfnpg,001,fr,200,2022-05-10_14h10.09.143,Bayesian,2022.1.1,None,
,,,,8,0,8,0,,,,,,,,,,,,,,,,,,,,,,,,"{'x': [[1000, 60], [1000, 40], [1000, 20], [1000, 0], [1000, -20], [1500, -10], [1500, 10]], 'y': [[1], [1], [1], [1], [-1], [-1], [-1]], 'audiogram': {}, 'is_init_phase': True, 'is_exam_finished': False, 'threshold_uncertainty_db': 6}",,,,True,0.010824833298102021,None,None,0,,128.88228350016288,129.89746480016038,None,1,129.89746480016038,128.88228350016288,,,erfnpg,001,fr,200,2022-05-10_14h10.09.143,Bayesian,2022.1.1,None,
,,,,9,0,9,0,,,,,,,,,,,,,,,,,,,,,,,,"{'x': [[1000, 60], [1000, 40], [1000, 20], [1000, 0], [1000, -20], [1500, -10], [1500, 10]], 'y': [[1], [1], [1], [1], [-1], [-1], [-1]], 'audiogram': {}, 'is_init_phase': True, 'is_exam_finished': False, 'threshold_uncertainty_db': 6}",1500,30,0.001527460556607757,False,0.008490800159052014,None,['space'],1,[0.5135806000325829],132.75230589997955,133.77332590008155,None,1,133.77332590008155,132.75230589997955,,,erfnpg,001,fr,200,2022-05-10_14h10.09.143,Bayesian,2022.1.1,None,
,,,,10,0,10,0,,,,,,,,,,,,,,,,,,,,,,,,"{'x': [[1000, 60], [1000, 40], [1000, 20], [1000, 0], [1000, -20], [1500, -10], [1500, 10], [1500, 30]], 'y': [[1], [1], [1], [1], [-1], [-1], [-1], [1]], 'audiogram': {}, 'is_init_phase': True, 'is_exam_finished': False, 'threshold_uncertainty_db': 6}",2000,10,0.00023657562948074026,False,0.00830559991300106,None,['space'],1,[0.4916495999787003],136.39158220007084,137.41183110000566,None,1,137.41183110000566,136.39158220007084,,,erfnpg,001,fr,200,2022-05-10_14h10.09.143,Bayesian,2022.1.1,None,
,,,,11,0,11,0,,,,,,,,,,,,,,,,,,,,,,,,"{'x': [[1000, 60], [1000, 40], [1000, 20], [1000, 0], [1000, -20], [1500, -10], [1500, 10], [1500, 30], [2000, 10]], 'y': [[1], [1], [1], [1], [-1], [-1], [-1], [1], [1]], 'audiogram': {}, 'is_init_phase': True, 'is_exam_finished': False, 'threshold_uncertainty_db': 6}",2000,-10,2.3657562948074015e-05,False,0.007162900175899267,0.19875840027816594,None,0,,139.31125489994884,140.32920869998634,None,1,140.32920869998634,139.31125489994884,,,erfnpg,001,fr,200,2022-05-10_14h10.09.143,Bayesian,2022.1.1,None,
,,,,12,0,12,0,,,,,,,,,,,,,,,,,,,,,,,,"{'x': [[1000, 60], [1000, 40], [1000, 20], [1000, 0], [1000, -20], [1500, -10], [1500, 10], [1500, 30], [2000, 10], [2000, -10]], 'y': [[1], [1], [1], [1], [-1], [-1], [-1], [1], [1], [-1]], 'audiogram': {}, 'is_init_phase': True, 'is_exam_finished': False, 'threshold_uncertainty_db': 6}",,,,True,0.015341433230787516,None,None,0,,142.9707857000176,143.9938964000903,None,1,143.9938964000903,142.9707857000176,,,erfnpg,001,fr,200,2022-05-10_14h10.09.143,Bayesian,2022.1.1,None,
,,,,13,0,13,0,,,,,,,,,,,,,,,,,,,,,,,,"{'x': [[1000, 60], [1000, 40], [1000, 20], [1000, 0], [1000, -20], [1500, -10], [1500, 10], [1500, 30], [2000, 10], [2000, -10]], 'y': [[1], [1], [1], [1], [-1], [-1], [-1], [1], [1], [-1]], 'audiogram': {}, 'is_init_phase': True, 'is_exam_finished': False, 'threshold_uncertainty_db': 6}",3000,10,0.00017336842522626576,False,0.010497900424525142,None,['space'],1,[0.547380100004375],146.7347405999899,147.7497215999756,None,1,147.7497215999756,146.7347405999899,,,erfnpg,001,fr,200,2022-05-10_14h10.09.143,Bayesian,2022.1.1,None,
,,,,14,0,14,0,,,,,,,,,,,,,,,,,,,,,,,,"{'x': [[1000, 60], [1000, 40], [1000, 20], [1000, 0], [1000, -20], [1500, -10], [1500, 10], [1500, 30], [2000, 10], [2000, -10], [3000, 10]], 'y': [[1], [1], [1], [1], [-1], [-1], [-1], [1], [1], [-1], [1]], 'audiogram': {}, 'is_init_phase': True, 'is_exam_finished': False, 'threshold_uncertainty_db': 6}",3000,-10,1.7336842522626584e-05,False,0.01006050012074411,0.2035401000175625,None,0,,150.6510952000972,151.65674440003932,None,1,151.65674440003932,150.6510952000972,,,erfnpg,001,fr,200,2022-05-10_14h10.09.143,Bayesian,2022.1.1,None,
,,,,15,0,15,0,,,,,,,,,,,,,,,,,,,,,,,,"{'x': [[1000, 60], [1000, 40], [1000, 20], [1000, 0], [1000, -20], [1500, -10], [1500, 10], [1500, 30], [2000, 10], [2000, -10], [3000, 10], [3000, -10]], 'y': [[1], [1], [1], [1], [-1], [-1], [-1], [1], [1], [-1], [1], [-1]], 'audiogram': {}, 'is_init_phase': True, 'is_exam_finished': False, 'threshold_uncertainty_db': 6}",4000,10,0.00026544222211549425,False,0.008962700143456459,0.20473550027236342,['space'],1,[0.5958660999312997],154.1581473001279,155.1608476000838,None,1,155.1608476000838,154.1581473001279,,,erfnpg,001,fr,200,2022-05-10_14h10.09.143,Bayesian,2022.1.1,None,
,,,,16,0,16,0,,,,,,,,,,,,,,,,,,,,,,,,"{'x': [[1000, 60], [1000, 40], [1000, 20], [1000, 0], [1000, -20], [1500, -10], [1500, 10], [1500, 30], [2000, 10], [2000, -10], [3000, 10], [3000, -10], [4000, 10]], 'y': [[1], [1], [1], [1], [-1], [-1], [-1], [1], [1], [-1], [1], [-1], [1]], 'audiogram': {}, 'is_init_phase': True, 'is_exam_finished': False, 'threshold_uncertainty_db': 6}",,,,True,0.013174433493986726,None,None,0,,157.7554320001509,158.75938150007278,None,1,158.75938150007278,157.7554320001509,,,erfnpg,001,fr,200,2022-05-10_14h10.09.143,Bayesian,2022.1.1,None,
,,,,17,0,17,0,,,,,,,,,,,,,,,,,,,,,,,,"{'x': [[1000, 60], [1000, 40], [1000, 20], [1000, 0], [1000, -20], [1500, -10], [1500, 10], [1500, 30], [2000, 10], [2000, -10], [3000, 10], [3000, -10], [4000, 10]], 'y': [[1], [1], [1], [1], [-1], [-1], [-1], [1], [1], [-1], [1], [-1], [1]], 'audiogram': {}, 'is_init_phase': True, 'is_exam_finished': False, 'threshold_uncertainty_db': 6}",4000,-10,2.6544222211549425e-05,False,0.007889800239354372,0.1989822001196444,None,0,,160.5858263000846,161.60319940000772,None,1,161.60319940000772,160.5858263000846,,,erfnpg,001,fr,200,2022-05-10_14h10.09.143,Bayesian,2022.1.1,None,
,,,,18,0,18,0,,,,,,,,,,,,,,,,,,,,,,,,"{'x': [[1000, 60], [1000, 40], [1000, 20], [1000, 0], [1000, -20], [1500, -10], [1500, 10], [1500, 30], [2000, 10], [2000, -10], [3000, 10], [3000, -10], [4000, 10], [4000, -10]], 'y': [[1], [1], [1], [1], [-1], [-1], [-1], [1], [1], [-1], [1], [-1], [1], [-1]], 'audiogram': {}, 'is_init_phase': True, 'is_exam_finished': False, 'threshold_uncertainty_db': 6}",6000,10,0.00036641226656945183,False,0.010156100383028388,None,['space'],1,[0.5196319001261145],164.61856670002453,165.64083679998294,None,1,165.64083679998294,164.61856670002453,,,erfnpg,001,fr,200,2022-05-10_14h10.09.143,Bayesian,2022.1.1,None,
,,,,19,0,19,0,,,,,,,,,,,,,,,,,,,,,,,,"{'x': [[1000, 60], [1000, 40], [1000, 20], [1000, 0], [1000, -20], [1500, -10], [1500, 10], [1500, 30], [2000, 10], [2000, -10], [3000, 10], [3000, -10], [4000, 10], [4000, -10], [6000, 10]], 'y': [[1], [1], [1], [1], [-1], [-1], [-1], [1], [1], [-1], [1], [-1], [1], [-1], [1]], 'audiogram': {}, 'is_init_phase': True, 'is_exam_finished': False, 'threshold_uncertainty_db': 6}",6000,-10,3.664122665694518e-05,False,0.00763630005531013,None,None,0,,167.30513160000555,168.31612990004942,None,1,168.31612990004942,167.30513160000555,,,erfnpg,001,fr,200,2022-05-10_14h10.09.143,Bayesian,2022.1.1,None,
,,,,20,0,20,0,,,,,,,,,,,,,,,,,,,,,,,,"{'x': [[1000, 60], [1000, 40], [1000, 20], [1000, 0], [1000, -20], [1500, -10], [1500, 10], [1500, 30], [2000, 10], [2000, -10], [3000, 10], [3000, -10], [4000, 10], [4000, -10], [6000, 10], [6000, -10]], 'y': [[1], [1], [1], [1], [-1], [-1], [-1], [1], [1], [-1], [1], [-1], [1], [-1], [1], [-1]], 'audiogram': {}, 'is_init_phase': True, 'is_exam_finished': False, 'threshold_uncertainty_db': 6}",,,,True,0.015761333284899592,None,None,0,,171.03041190002114,172.04892420000397,None,1,172.04892420000397,171.03041190002114,,,erfnpg,001,fr,200,2022-05-10_14h10.09.143,Bayesian,2022.1.1,None,
,,,,21,0,21,0,,,,,,,,,,,,,,,,,,,,,,,,"{'x': [[1000, 60], [1000, 40], [1000, 20], [1000, 0], [1000, -20], [1500, -10], [1500, 10], [1500, 30], [2000, 10], [2000, -10], [3000, 10], [3000, -10], [4000, 10], [4000, -10], [6000, 10], [6000, -10]], 'y': [[1], [1], [1], [1], [-1], [-1], [-1], [1], [1], [-1], [1], [-1], [1], [-1], [1], [-1]], 'audiogram': {}, 'is_init_phase': True, 'is_exam_finished': False, 'threshold_uncertainty_db': 6}",8000,10,0.0005740768107484417,False,0.014014200307428837,None,['space'],1,[0.454795999918133],174.57178640016355,175.58453490003012,None,1,175.58453490003012,174.57178640016355,,,erfnpg,001,fr,200,2022-05-10_14h10.09.143,Bayesian,2022.1.1,None,
,,,,22,0,22,0,,,,,,,,,,,,,,,,,,,,,,,,"{'x': [[1000, 60], [1000, 40], [1000, 20], [1000, 0], [1000, -20], [1500, -10], [1500, 10], [1500, 30], [2000, 10], [2000, -10], [3000, 10], [3000, -10], [4000, 10], [4000, -10], [6000, 10], [6000, -10], [8000, 10]], 'y': [[1], [1], [1], [1], [-1], [-1], [-1], [1], [1], [-1], [1], [-1], [1], [-1], [1], [-1], [1]], 'audiogram': {}, 'is_init_phase': True, 'is_exam_finished': False, 'threshold_uncertainty_db': 6}",8000,-10,5.740768107484415e-05,False,0.01431049988605082,None,['space'],1,[0.5126930000260472],176.7056118999608,177.7323301001452,None,1,177.7323301001452,176.7056118999608,,,erfnpg,001,fr,200,2022-05-10_14h10.09.143,Bayesian,2022.1.1,None,
,,,,23,0,23,0,,,,,,,,,,,,,,,,,,,,,,,,"{'x': [[1000, 60], [1000, 40], [1000, 20], [1000, 0], [1000, -20], [1500, -10], [1500, 10], [1500, 30], [2000, 10], [2000, -10], [3000, 10], [3000, -10], [4000, 10], [4000, -10], [6000, 10], [6000, -10], [8000, 10], [8000, -10]], 'y': [[1], [1], [1], [1], [-1], [-1], [-1], [1], [1], [-1], [1], [-1], [1], [-1], [1], [-1], [1], [1]], 'audiogram': {}, 'is_init_phase': True, 'is_exam_finished': False, 'threshold_uncertainty_db': 6}",750,-10,1.2851978913844322e-05,False,0.0066413001623004675,0.19697060016915202,None,0,,179.789699499961,180.80235430016182,None,1,180.80235430016182,179.789699499961,,,erfnpg,001,fr,200,2022-05-10_14h10.09.143,Bayesian,2022.1.1,None,
,,,,24,0,24,0,,,,,,,,,,,,,,,,,,,,,,,,"{'x': [[1000, 60], [1000, 40], [1000, 20], [1000, 0], [1000, -20], [1500, -10], [1500, 10], [1500, 30], [2000, 10], [2000, -10], [3000, 10], [3000, -10], [4000, 10], [4000, -10], [6000, 10], [6000, -10], [8000, 10], [8000, -10], [750, -10]], 'y': [[1], [1], [1], [1], [-1], [-1], [-1], [1], [1], [-1], [1], [-1], [1], [-1], [1], [-1], [1], [1], [-1]], 'audiogram': {}, 'is_init_phase': True, 'is_exam_finished': False, 'threshold_uncertainty_db': 6}",,,,True,0.01412743330001831,None,None,0,,182.2421037000604,183.25285289995372,None,1,183.25285289995372,182.2421037000604,,,erfnpg,001,fr,200,2022-05-10_14h10.09.143,Bayesian,2022.1.1,None,
,,,,25,0,25,0,,,,,,,,,,,,,,,,,,,,,,,,"{'x': [[1000, 60], [1000, 40], [1000, 20], [1000, 0], [1000, -20], [1500, -10], [1500, 10], [1500, 30], [2000, 10], [2000, -10], [3000, 10], [3000, -10], [4000, 10], [4000, -10], [6000, 10], [6000, -10], [8000, 10], [8000, -10], [750, -10]], 'y': [[1], [1], [1], [1], [-1], [-1], [-1], [1], [1], [-1], [1], [-1], [1], [-1], [1], [-1], [1], [1], [-1]], 'audiogram': {}, 'is_init_phase': True, 'is_exam_finished': False, 'threshold_uncertainty_db': 6}",750,10,0.00012851978913844324,False,0.002518200082704425,0.1936783001292497,None,0,,185.09268800006248,186.1242949999869,None,1,186.1242949999869,185.09268800006248,,,erfnpg,001,fr,200,2022-05-10_14h10.09.143,Bayesian,2022.1.1,None,
,,,,26,0,26,0,,,,,,,,,,,,,,,,,,,,,,,,"{'x': [[1000, 60], [1000, 40], [1000, 20], [1000, 0], [1000, -20], [1500, -10], [1500, 10], [1500, 30], [2000, 10], [2000, -10], [3000, 10], [3000, -10], [4000, 10], [4000, -10], [6000, 10], [6000, -10], [8000, 10], [8000, -10], [750, -10], [750, 10]], 'y': [[1], [1], [1], [1], [-1], [-1], [-1], [1], [1], [-1], [1], [-1], [1], [-1], [1], [-1], [1], [1], [-1], [-1]], 'audiogram': {}, 'is_init_phase': True, 'is_exam_finished': False, 'threshold_uncertainty_db': 6}",750,30,0.0012851978913844323,False,0.01004389999434352,None,['space'],1,[0.4859591000713408],187.30788740003482,188.3228607000783,None,1,188.3228607000783,187.30788740003482,,,erfnpg,001,fr,200,2022-05-10_14h10.09.143,Bayesian,2022.1.1,None,
,,,,27,0,27,0,,,,,,,,,,,,,,,,,,,,,,,,"{'x': [[1000, 60], [1000, 40], [1000, 20], [1000, 0], [1000, -20], [1500, -10], [1500, 10], [1500, 30], [2000, 10], [2000, -10], [3000, 10], [3000, -10], [4000, 10], [4000, -10], [6000, 10], [6000, -10], [8000, 10], [8000, -10], [750, -10], [750, 10], [750, 30]], 'y': [[1], [1], [1], [1], [-1], [-1], [-1], [1], [1], [-1], [1], [-1], [1], [-1], [1], [-1], [1], [1], [-1], [-1], [1]], 'audiogram': {}, 'is_init_phase': True, 'is_exam_finished': False, 'threshold_uncertainty_db': 6}",500,10,0.0002259279721874612,False,0.010847600176930428,0.20601700013503432,['space'],1,[0.6567558001261204],190.72143160016276,191.72530580009334,None,1,191.72530580009334,190.72143160016276,,,erfnpg,001,fr,200,2022-05-10_14h10.09.143,Bayesian,2022.1.1,None,
,,,,28,0,28,0,,,,,,,,,,,,,,,,,,,,,,,,"{'x': [[1000, 60], [1000, 40], [1000, 20], [1000, 0], [1000, -20], [1500, -10], [1500, 10], [1500, 30], [2000, 10], [2000, -10], [3000, 10], [3000, -10], [4000, 10], [4000, -10], [6000, 10], [6000, -10], [8000, 10], [8000, -10], [750, -10], [750, 10], [750, 30], [500, 10]], 'y': [[1], [1], [1], [1], [-1], [-1], [-1], [1], [1], [-1], [1], [-1], [1], [-1], [1], [-1], [1], [1], [-1], [-1], [1], [1]], 'audiogram': {}, 'is_init_phase': True, 'is_exam_finished': False, 'threshold_uncertainty_db': 6}",,,,True,0.014166933484375477,None,None,0,,192.95651470008306,193.96802860009484,None,1,193.96802860009484,192.95651470008306,,,erfnpg,001,fr,200,2022-05-10_14h10.09.143,Bayesian,2022.1.1,None,
,,,,29,0,29,0,,,,,,,,,,,,,,,,,,,,,,,,"{'x': [[1000, 60], [1000, 40], [1000, 20], [1000, 0], [1000, -20], [1500, -10], [1500, 10], [1500, 30], [2000, 10], [2000, -10], [3000, 10], [3000, -10], [4000, 10], [4000, -10], [6000, 10], [6000, -10], [8000, 10], [8000, -10], [750, -10], [750, 10], [750, 30], [500, 10]], 'y': [[1], [1], [1], [1], [-1], [-1], [-1], [1], [1], [-1], [1], [-1], [1], [-1], [1], [-1], [1], [1], [-1], [-1], [1], [1]], 'audiogram': {}, 'is_init_phase': True, 'is_exam_finished': False, 'threshold_uncertainty_db': 6}",500,-10,2.259279721874613e-05,False,0.00043033319525420666,None,None,0,,195.28964500012808,196.31817240011878,None,1,196.31817240011878,195.28964500012808,,,erfnpg,001,fr,200,2022-05-10_14h10.09.143,Bayesian,2022.1.1,None,
,,,,30,0,30,0,,,,,,,,,,,,,,,,,,,,,,,,"{'x': [[1000, 60], [1000, 40], [1000, 20], [1000, 0], [1000, -20], [1500, -10], [1500, 10], [1500, 30], [2000, 10], [2000, -10], [3000, 10], [3000, -10], [4000, 10], [4000, -10], [6000, 10], [6000, -10], [8000, 10], [8000, -10], [750, -10], [750, 10], [750, 30], [500, 10], [500, -10]], 'y': [[1], [1], [1], [1], [-1], [-1], [-1], [1], [1], [-1], [1], [-1], [1], [-1], [1], [-1], [1], [1], [-1], [-1], [1], [1], [-1]], 'audiogram': {}, 'is_init_phase': True, 'is_exam_finished': False, 'threshold_uncertainty_db': 6}",250,10,0.0005296268625886444,False,0.00771726667881012,None,['space'],1,[0.6629660001490265],198.77941740001552,199.78935850015841,None,1,199.78935850015841,198.77941740001552,,,erfnpg,001,fr,200,2022-05-10_14h10.09.143,Bayesian,2022.1.1,None,
,,,,31,0,31,0,,,,,,,,,,,,,,,,,,,,,,,,"{'x': [[1000, 60], [1000, 40], [1000, 20], [1000, 0], [1000, -20], [1500, -10], [1500, 10], [1500, 30], [2000, 10], [2000, -10], [3000, 10], [3000, -10], [4000, 10], [4000, -10], [6000, 10], [6000, -10], [8000, 10], [8000, -10], [750, -10], [750, 10], [750, 30], [500, 10], [500, -10], [250, 10]], 'y': [[1], [1], [1], [1], [-1], [-1], [-1], [1], [1], [-1], [1], [-1], [1], [-1], [1], [-1], [1], [1], [-1], [-1], [1], [1], [-1], [1]], 'audiogram': {}, 'is_init_phase': True, 'is_exam_finished': False, 'threshold_uncertainty_db': 6}",250,-10,5.296268625886443e-05,False,0.012995899887755513,None,None,0,,202.39683880005032,203.43519620015286,None,1,203.43519620015286,202.39683880005032,,,erfnpg,001,fr,200,2022-05-10_14h10.09.143,Bayesian,2022.1.1,None,
,,,,32,0,32,0,,,,,,,,,,,,,,,,,,,,,,,,"{'x': [[1000, 60], [1000, 40], [1000, 20], [1000, 0], [1000, -20], [1500, -10], [1500, 10], [1500, 30], [2000, 10], [2000, -10], [3000, 10], [3000, -10], [4000, 10], [4000, -10], [6000, 10], [6000, -10], [8000, 10], [8000, -10], [750, -10], [750, 10], [750, 30], [500, 10], [500, -10], [250, 10], [250, -10]], 'y': [[1], [1], [1], [1], [-1], [-1], [-1], [1], [1], [-1], [1], [-1], [1], [-1], [1], [-1], [1], [1], [-1], [-1], [1], [1], [-1], [1], [-1]], 'audiogram': {}, 'is_init_phase': True, 'is_exam_finished': False, 'threshold_uncertainty_db': 6}",125,10,0.002285440948074376,False,0.011761300265789032,None,None,0,,205.16382070002146,206.1681610001251,None,1,206.1681610001251,205.16382070002146,,,erfnpg,001,fr,200,2022-05-10_14h10.09.143,Bayesian,2022.1.1,None,
,,,,33,0,33,0,,,,,,,,,,,,,,,,,,,,,,,,"{'x': [[1000, 60], [1000, 40], [1000, 20], [1000, 0], [1000, -20], [1500, -10], [1500, 10], [1500, 30], [2000, 10], [2000, -10], [3000, 10], [3000, -10], [4000, 10], [4000, -10], [6000, 10], [6000, -10], [8000, 10], [8000, -10], [750, -10], [750, 10], [750, 30], [500, 10], [500, -10], [250, 10], [250, -10], [125, 10]], 'y': [[1], [1], [1], [1], [-1], [-1], [-1], [1], [1], [-1], [1], [-1], [1], [-1], [1], [-1], [1], [1], [-1], [-1], [1], [1], [-1], [1], [-1], [-1]], 'audiogram': {}, 'is_init_phase': True, 'is_exam_finished': False, 'threshold_uncertainty_db': 6}",,,,True,0.0009410667698830366,0.1852963666897267,None,0,,208.49391119997017,209.50474030012265,None,1,209.50474030012265,208.49391119997017,,,erfnpg,001,fr,200,2022-05-10_14h10.09.143,Bayesian,2022.1.1,None,
,,,,34,0,34,0,,,,,,,,,,,,,,,,,,,,,,,,"{'x': [[1000, 60], [1000, 40], [1000, 20], [1000, 0], [1000, -20], [1500, -10], [1500, 10], [1500, 30], [2000, 10], [2000, -10], [3000, 10], [3000, -10], [4000, 10], [4000, -10], [6000, 10], [6000, -10], [8000, 10], [8000, -10], [750, -10], [750, 10], [750, 30], [500, 10], [500, -10], [250, 10], [250, -10], [125, 10]], 'y': [[1], [1], [1], [1], [-1], [-1], [-1], [1], [1], [-1], [1], [-1], [1], [-1], [1], [-1], [1], [1], [-1], [-1], [1], [1], [-1], [1], [-1], [-1]], 'audiogram': {}, 'is_init_phase': True, 'is_exam_finished': False, 'threshold_uncertainty_db': 6}",125,20,0.00722719885372964,False,0.01233129994943738,None,['space'],1,[0.49794270005077124],211.13608049997129,212.16420940007083,None,1,212.16420940007083,211.13608049997129,,,erfnpg,001,fr,200,2022-05-10_14h10.09.143,Bayesian,2022.1.1,None,
,,,,35,0,35,0,,,,,,,,,,,,,,,,,,,,,,,,"{'x': [[1000, 60], [1000, 40], [1000, 20], [1000, 0], [1000, -20], [1500, -10], [1500, 10], [1500, 30], [2000, 10], [2000, -10], [3000, 10], [3000, -10], [4000, 10], [4000, -10], [6000, 10], [6000, -10], [8000, 10], [8000, -10], [750, -10], [750, 10], [750, 30], [500, 10], [500, -10], [250, 10], [250, -10], [125, 10], [125, 20]], 'y': [[1], [1], [1], [1], [-1], [-1], [-1], [1], [1], [-1], [1], [-1], [1], [-1], [1], [-1], [1], [1], [-1], [-1], [1], [1], [-1], [1], [-1], [-1], [1]], 'audiogram': {}, 'is_init_phase': True, 'is_exam_finished': False, 'threshold_uncertainty_db': 6}",353.5533905932738,-1.0,7.897582242723967e-05,False,0.015308466739952564,None,None,0,,216.14468530006707,217.1561432001181,None,1,217.1561432001181,216.14468530006707,,,erfnpg,001,fr,200,2022-05-10_14h10.09.143,Bayesian,2022.1.1,None,
,,,,36,0,36,0,,,,,,,,,,,,,,,,,,,,,,,,,933.0329915368076,4.0,6.680184963918049e-05,False,0.005640999646857381,None,['space'],1,[0.53894880018197],219.99103419994935,220.9932266001124,None,1,220.9932266001124,219.99103419994935,,,erfnpg,001,fr,200,2022-05-10_14h10.09.143,Bayesian,2022.1.1,None,
,,,,37,0,37,0,,,,,,,,,,,,,,,,,,,,,,,,,,,,True,0.012237133458256721,None,None,0,,222.4215931999497,223.44390420010313,None,1,223.44390420010313,222.4215931999497,,,erfnpg,001,fr,200,2022-05-10_14h10.09.143,Bayesian,2022.1.1,None,
,,,,38,0,38,0,,,,,,,,,,,,,,,,,,,,,,,,,176.7766952966369,6.0,0.000698383664817015,False,0.0005147000774741173,0.19400110002607107,['space'],1,[0.6831796998158097],226.24665939994156,227.26619520015083,None,1,227.26619520015083,226.24665939994156,,,erfnpg,001,fr,200,2022-05-10_14h10.09.143,Bayesian,2022.1.1,None,
,,,,39,0,39,0,,,,,,,,,,,,,,,,,,,,,,,,,659.7539553864473,8.0,0.00012196576341781687,False,0.014998233644291759,None,['space'],1,[0.576609899988398],229.80958020011894,230.81708670011722,None,1,230.81708670011722,229.80958020011894,,,erfnpg,001,fr,200,2022-05-10_14h10.09.143,Bayesian,2022.1.1,None,
,,,,40,0,40,0,,,,,,,,,,,,,,,,,,,,,,,,,1414.213562373095,7.0,0.00011290394572862267,False,0.015464166644960642,None,None,0,,234.87405680003576,235.8747185000684,None,1,235.8747185000684,234.87405680003576,,,erfnpg,001,fr,200,2022-05-10_14h10.09.143,Bayesian,2022.1.1,None,
,,,,41,0,41,0,,,,,,,,,,,,,,,,,,,,,,,,,8000.0,-14.0,3.622179800374953e-05,False,0.010959033155813813,None,['space'],1,[0.5847926000133157],239.89763369993307,240.90546209993772,None,1,240.90546209993772,239.89763369993307,,,erfnpg,001,fr,200,2022-05-10_14h10.09.143,Bayesian,2022.1.1,None,
,,,,42,0,42,0,,,,,,,,,,,,,,,,,,,,,,,,,189.4645708137998,-3.0,0.0002150824380376982,False,0.0013795001432299614,None,None,0,,244.08300029998645,245.08544720010832,None,1,245.08544720010832,244.08300029998645,,,erfnpg,001,fr,200,2022-05-10_14h10.09.143,Bayesian,2022.1.1,None,
,,,,43,0,43,0,,,,,,,,,,,,,,,,,,,,,,,,,,,,True,0.01413533347658813,None,None,0,,246.43975750007667,247.44791470002383,None,1,247.44791470002383,246.43975750007667,,,erfnpg,001,fr,200,2022-05-10_14h10.09.143,Bayesian,2022.1.1,None,
,,,,44,0,44,0,,,,,,,,,,,,,,,,,,,,,,,,,329.87697769322364,6.0,0.00018906894144473833,False,0.01193483336828649,0.20944973337464035,['space'],1,[0.7308799000456929],251.89522029994987,252.9141532999929,None,1,252.9141532999929,251.89522029994987,,,erfnpg,001,fr,200,2022-05-10_14h10.09.143,Bayesian,2022.1.1,None,
,,,,45,0,45,0,,,,,,,,,,,,,,,,,,,,,,,,,4924.577653379667,1.0,0.0001655611795965586,False,0.0011677001602947712,0.18649570015259087,['space'],1,[0.46613379986956716],257.00888610002585,258.02292870008387,None,1,258.02292870008387,257.00888610002585,,,erfnpg,001,fr,200,2022-05-10_14h10.09.143,Bayesian,2022.1.1,None,
,,,,46,0,46,0,,,,,,,,,,,,,,,,,,,,,,,,,2639.015821545789,-1.0,6.885497846131265e-05,False,0.011912433430552483,None,['space'],1,[0.7546441999729723],260.68812229996547,261.70166960009374,None,1,261.70166960009374,260.68812229996547,,,erfnpg,001,fr,200,2022-05-10_14h10.09.143,Bayesian,2022.1.1,None,
,,,,47,0,47,0,,,,,,,,,,,,,,,,,,,,,,,,,,,,True,0.013982233591377735,None,None,0,,263.8261708000209,264.83760299999267,None,1,264.83760299999267,263.8261708000209,,,erfnpg,001,fr,200,2022-05-10_14h10.09.143,Bayesian,2022.1.1,None,
,,,,48,0,48,0,,,,,,,,,,,,,,,,,,,,,,,,,466.5164957684038,2.0,9.209743910070227e-05,False,0.014137266669422388,None,['space'],1,[0.6987978001125157],267.784118300071,268.79642240004614,None,1,268.79642240004614,267.784118300071,,,erfnpg,001,fr,200,2022-05-10_14h10.09.143,Bayesian,2022.1.1,None,
,,,,49,0,49,0,,,,,,,,,,,,,,,,,,,,,,,,,250.0,1.0,0.00018791870214422208,False,0.001380200032144785,0.1882588998414576,None,0,,272.2888537000399,273.3052217999939,None,1,273.3052217999939,272.2888537000399,,,erfnpg,001,fr,200,2022-05-10_14h10.09.143,Bayesian,2022.1.1,None,
,,,,50,0,50,0,,,,,,,,,,,,,,,,,,,,,,,,,125.0,11.0,0.0025643069199568253,False,0.010245800018310547,None,['space'],1,[0.552986399969086],276.80933080008253,277.81618930003606,None,1,277.81618930003606,276.80933080008253,,,erfnpg,001,fr,200,2022-05-10_14h10.09.143,Bayesian,2022.1.1,None,
,,,,51,0,51,0,,,,,,,,,,,,,,,,,,,,,,,,,,,,True,0.011557033518329263,None,None,0,,279.74560520006344,280.74750600010157,None,1,280.74750600010157,279.74560520006344,,,erfnpg,001,fr,200,2022-05-10_14h10.09.143,Bayesian,2022.1.1,None,
,,,,52,0,52,0,,,,,,,,,,,,,,,,,,,,,,,,,8000.0,-18.0,2.285440948074376e-05,False,0.00040466664358973503,0.18469656677916646,None,0,,284.9074148000218,285.9126256001182,None,1,285.9126256001182,284.9074148000218,,,erfnpg,001,fr,200,2022-05-10_14h10.09.143,Bayesian,2022.1.1,None,
,,,,53,0,53,0,,,,,,,,,,,,,,,,,,,,,,,,,3732.1319661472303,-3.0,5.609622067137951e-05,False,0.0046628667041659355,0.19176226668059826,['space'],1,[0.5521170999854803],290.5543285999447,291.56406470015645,None,1,291.56406470015645,290.5543285999447,,,erfnpg,001,fr,200,2022-05-10_14h10.09.143,Bayesian,2022.1.1,None,
,,,,54,0,54,0,,,,,,,,,,,,,,,,,,,,,,,,,659.7539553864473,5.0,8.634514805083658e-05,False,0.005243066698312759,0.20029886672273278,None,0,,294.5124795001466,295.5253093999345,None,1,295.5253093999345,294.5124795001466,,,erfnpg,001,fr,200,2022-05-10_14h10.09.143,Bayesian,2022.1.1,None,
,,,,55,0,55,0,,,,,,,,,,,,,,,,,,,,,,,,,,,,True,0.01607253379188478,None,None,0,,297.7533181000035,298.7587359000463,None,1,298.7587359000463,297.7533181000035,,,erfnpg,001,fr,200,2022-05-10_14h10.09.143,Bayesian,2022.1.1,None,
,,,,56,0,56,0,,,,,,,,,,,,,,,,,,,,,,,,,2143.5469250725882,2.0,9.818841039113999e-05,False,0.01043483312241733,None,None,0,,302.00010409997776,303.01252710004337,None,1,303.01252710004337,302.00010409997776,,,erfnpg,001,fr,200,2022-05-10_14h10.09.143,Bayesian,2022.1.1,None,
,,,,57,0,57,0,,,,,,,,,,,,,,,,,,,,,,,,,5656.85424949238,-6.0,6.441443068498752e-05,False,0.0009614001028239727,0.1869401002768427,['space'],1,[0.5698523998726159],306.07297570002265,307.0812326001469,None,1,307.0812326001469,306.07297570002265,,,erfnpg,001,fr,200,2022-05-10_14h10.09.143,Bayesian,2022.1.1,None,
,,,,58,0,58,0,,,,,,,,,,,,,,,,,,,,,,,,,164.93848884661182,4.0,0.0006230777132504799,False,0.012126966612413526,None,None,0,,310.18451809999533,311.18499380000867,None,1,311.18499380000867,310.18451809999533,,,erfnpg,001,fr,200,2022-05-10_14h10.09.143,Bayesian,2022.1.1,None,
,,,,59,0,59,0,,,,,,,,,,,,,,,,,,,,,,,,,1148.6983549970344,3.0,7.101118372880253e-05,False,0.014200400095432997,None,None,0,,315.476198800141,316.4764614000451,None,1,316.4764614000451,315.476198800141,,,erfnpg,001,fr,200,2022-05-10_14h10.09.143,Bayesian,2022.1.1,None,
,,,,60,0,60,0,,,,,,,,,,,,,,,,,,,,,,,,,466.5164957684038,-1.0,6.519999376391703e-05,False,0.01526929996907711,None,None,0,,319.76256259996444,320.7566827000119,None,1,320.7566827000119,319.76256259996444,,,erfnpg,001,fr,200,2022-05-10_14h10.09.143,Bayesian,2022.1.1,None,
,,,,61,0,61,0,,,,,,,,,,,,,,,,,,,,,,,,,1515.7165665103996,14.0,0.00024874062231509893,False,0.01395823317579925,None,['space'],1,[0.4746876999270171],324.23234160011634,325.23388019995764,None,1,325.23388019995764,324.23234160011634,,,erfnpg,001,fr,200,2022-05-10_14h10.09.143,Bayesian,2022.1.1,None,
,,,,62,0,62,0,,,,,,,,,,,,,,,,,,,,,,,,,,,,True,0.012835233472287655,None,None,0,,326.63293029996566,327.6377628999762,None,1,327.6377628999762,326.63293029996566,,,erfnpg,001,fr,200,2022-05-10_14h10.09.143,Bayesian,2022.1.1,None,
,,,,63,0,63,0,,,,,,,,,,,,,,,,,,,,,,,,,233.2582478842019,4.0,0.0003174271533696166,False,0.015465466771274805,None,None,0,,331.498918000143,332.5040780000854,None,1,332.5040780000854,331.498918000143,,,erfnpg,001,fr,200,2022-05-10_14h10.09.143,Bayesian,2022.1.1,None,
,,,,64,0,64,0,,,,,,,,,,,,,,,,,,,,,,,,,4287.0938501451765,-6.0,5.197007826100645e-05,False,0.015698066679760814,None,None,0,,336.5265870001167,337.54905110015534,None,1,337.54905110015534,336.5265870001167,,,erfnpg,001,fr,200,2022-05-10_14h10.09.143,Bayesian,2022.1.1,None,
,,,,65,0,65,0,,,,,,,,,,,,,,,,,,,,,,,,,125.0,9.0,0.0020369013890205647,False,0.014622533461079001,None,['space'],1,[0.7244603000581264],341.67731719999574,342.68720649997704,None,1,342.68720649997704,341.67731719999574,,,erfnpg,001,fr,200,2022-05-10_14h10.09.143,Bayesian,2022.1.1,None,
,,,,66,0,66,0,,,,,,,,,,,,,,,,,,,,,,,,,3031.4331330207992,-5.0,3.250253881325064e-05,False,0.00644496688619256,None,None,0,,346.3398370000068,347.3410211999435,None,1,347.3410211999435,346.3398370000068,,,erfnpg,001,fr,200,2022-05-10_14h10.09.143,Bayesian,2022.1.1,None,
,,,,67,0,67,0,,,,,,,,,,,,,,,,,,,,,,,,,812.2523963562351,4.0,6.136121645635344e-05,False,0.006514966953545809,None,None,0,,350.84523289999925,351.8621362000704,None,1,351.8621362000704,350.84523289999925,,,erfnpg,001,fr,200,2022-05-10_14h10.09.143,Bayesian,2022.1.1,None,
,,,,68,0,68,0,,,,,,,,,,,,,,,,,,,,,,,,,,,,True,0.01299973321147263,None,None,0,,353.52597029996105,354.5314861999359,None,1,354.5314861999359,353.52597029996105,,,erfnpg,001,fr,200,2022-05-10_14h10.09.143,Bayesian,2022.1.1,None,
,,,,69,0,69,0,,,,,,,,,,,,,,,,,,,,,,,,,329.87697769322364,3.0,0.00013385056005377387,False,0.0002916664816439152,None,None,0,,358.1086907000281,359.10328959999606,None,1,359.10328959999606,358.1086907000281,,,erfnpg,001,fr,200,2022-05-10_14h10.09.143,Bayesian,2022.1.1,None,
,,,,70,0,70,0,,,,,,,,,,,,,,,,,,,,,,,,,2000.0,7.0,0.0001674827195789138,False,0.008920266525819898,None,['space'],1,[0.6696985999587923],363.8604518000502,364.87439190014265,None,1,364.87439190014265,363.8604518000502,,,erfnpg,001,fr,200,2022-05-10_14h10.09.143,Bayesian,2022.1.1,None,
,,,,71,0,71,0,,,,,,,,,,,,,,,,,,,,,,,,,125.0,7.0,0.0016179682846481417,False,0.009038333548232913,0.2073960336856544,['space'],1,[0.6194276998285204],368.21443639998324,369.2125460000243,None,1,369.2125460000243,368.21443639998324,,,erfnpg,001,fr,200,2022-05-10_14h10.09.143,Bayesian,2022.1.1,None,
,,,,72,0,72,0,,,,,,,,,,,,,,,,,,,,,,,,,125.0,5.0,0.0012851978913844323,False,0.016044999938458204,None,None,0,,372.6117237000726,373.61700209998526,None,1,373.61700209998526,372.6117237000726,,,erfnpg,001,fr,200,2022-05-10_14h10.09.143,Bayesian,2022.1.1,None,
,,,,73,0,73,0,,,,,,,,,,,,,,,,,,,,,,,,,,,,True,0.013210133416578174,None,None,0,,375.96756280004047,376.9715045001358,None,1,376.9715045001358,375.96756280004047,,,erfnpg,001,fr,200,2022-05-10_14h10.09.143,Bayesian,2022.1.1,None,
,,,,74,0,74,0,,,,,,,,,,,,,,,,,,,,,,,,,8000.0,-15.0,3.228271145173278e-05,False,0.008205866673961282,None,['space'],1,[0.7499706000089645],381.70022660004906,382.7137509000022,None,1,382.7137509000022,381.70022660004906,,,erfnpg,001,fr,200,2022-05-10_14h10.09.143,Bayesian,2022.1.1,None,
,,,,75,0,75,0,,,,,,,,,,,,,,,,,,,,,,,,,189.4645708137998,6.0,0.000606184672180193,False,0.006015666760504246,0.1950367665849626,None,0,,386.80296889995225,387.8225281999912,None,1,387.8225281999912,386.80296889995225,,,erfnpg,001,fr,200,2022-05-10_14h10.09.143,Bayesian,2022.1.1,None,
,,,,76,0,76,0,,,,,,,,,,,,,,,,,,,,,,,,,6062.8662660415985,-10.0,3.7578123843645346e-05,False,0.0028267332818359137,None,None,0,,390.65793079999276,391.6775328000076,None,1,391.6775328000076,390.65793079999276,,,erfnpg,001,fr,200,2022-05-10_14h10.09.143,Bayesian,2022.1.1,None,
,,,,77,0,77,0,,,,,,,,,,,,,,,,,,,,,,,,,1148.6983549970344,5.0,8.9397783717774e-05,False,0.006014400161802769,None,['space'],1,[0.9092085000593215],395.7812932000961,396.8163819001056,None,1,396.8163819001056,395.7812932000961,,,erfnpg,001,fr,200,2022-05-10_14h10.09.143,Bayesian,2022.1.1,None,
,,,,78,0,78,0,,,,,,,,,,,,,,,,,,,,,,,,,250.0,8.0,0.0004206975708225976,False,0.0026545999571681023,0.1886088999453932,None,0,,400.7742888000794,401.788102600025,None,1,401.788102600025,400.7742888000794,,,erfnpg,001,fr,200,2022-05-10_14h10.09.143,Bayesian,2022.1.1,None,
,,,,79,0,79,0,,,,,,,,,,,,,,,,,,,,,,,,,,,,True,0.011076333234086633,0.2055522333830595,None,0,,404.52503220015205,405.5405495001469,None,1,405.5405495001469,404.52503220015205,,,erfnpg,001,fr,200,2022-05-10_14h10.09.143,Bayesian,2022.1.1,None,
,,,,80,0,80,0,,,,,,,,,,,,,,,,,,,,,,,,,535.8867312681471,4.0,0.00010435943901325153,False,0.009363099932670593,None,None,0,,409.1934976000339,410.2123312000185,None,1,410.2123312000185,409.1934976000339,,,erfnpg,001,fr,200,2022-05-10_14h10.09.143,Bayesian,2022.1.1,None,
,,,,81,0,81,0,,,,,,,,,,,,,,,,,,,,,,,,,4287.0938501451765,-3.0,7.340968674065446e-05,False,0.008426733314990997,None,['space'],1,[0.9240213001612574],413.84574769996107,414.86893040011637,None,1,414.86893040011637,413.84574769996107,,,erfnpg,001,fr,200,2022-05-10_14h10.09.143,Bayesian,2022.1.1,None,
,,,,82,0,82,0,,,,,,,,,,,,,,,,,,,,,,,,,164.93848884661182,8.0,0.0009875116261049233,False,0.005478966748341918,None,None,0,,419.75615600007586,420.760377000086,None,1,420.760377000086,419.75615600007586,,,erfnpg,001,fr,200,2022-05-10_14h10.09.143,Bayesian,2022.1.1,None,
,,,,83,0,83,0,,,,,,,,,,,,,,,,,,,,,,,,,,,,True,0.013735233573243022,None,None,0,,423.28986160014756,424.2961917000357,None,1,424.2961917000357,423.28986160014756,,,erfnpg,001,fr,200,2022-05-10_14h10.09.143,Bayesian,2022.1.1,None,
,,,,84,0,84,0,,,,,,,,,,,,,,,,,,,,,,,,,2828.42712474619,-3.0,4.636051375812108e-05,False,0.016015533357858658,None,None,0,,428.9927342000883,430.0021850001067,None,1,430.0021850001067,428.9927342000883,,,erfnpg,001,fr,200,2022-05-10_14h10.09.143,Bayesian,2022.1.1,None,
,,,,85,0,85,0,,,,,,,,,,,,,,,,,,,,,,,,,378.9291416275994,3.0,0.00011586276668030738,False,0.00517853326164186,None,None,0,,434.4556786001194,435.4755119001493,None,1,435.4755119001493,434.4556786001194,,,erfnpg,001,fr,200,2022-05-10_14h10.09.143,Bayesian,2022.1.1,None,
,,,,86,0,86,0,,,,,,,,,,,,,,,,,,,,,,,,,203.0630990890589,11.0,0.0009205315075457401,False,0.005766500253230333,None,None,0,,439.4612712999806,440.4771817999426,None,1,440.4771817999426,439.4612712999806,,,erfnpg,001,fr,200,2022-05-10_14h10.09.143,Bayesian,2022.1.1,None,
,,,,87,0,87,0,,,,,,,,,,,,,,,,,,,,,,,,,164.93848884661182,11.0,0.0013948972476246718,False,0.010565833421424031,None,['space'],1,[0.7197217000648379],444.3072208999656,445.33497650013305,None,1,445.33497650013305,444.3072208999656,,,erfnpg,001,fr,200,2022-05-10_14h10.09.143,Bayesian,2022.1.1,None,
,,,,88,0,88,0,,,,,,,,,,,,,,,,,,,,,,,,,,,,True,0.008760233176872134,None,None,0,,446.55049209995195,447.54555219993927,None,1,447.54555219993927,446.55049209995195,,,erfnpg,001,fr,200,2022-05-10_14h10.09.143,Bayesian,2022.1.1,None,
,,,,89,0,89,0,,,,,,,,,,,,,,,,,,,,,,,,,1866.0659830736151,7.0,0.0001539439712508311,False,0.0009117333684116602,None,['space'],1,[0.5153402998112142],452.12653700006194,453.1402636000421,None,1,453.1402636000421,452.12653700006194,,,erfnpg,001,fr,200,2022-05-10_14h10.09.143,Bayesian,2022.1.1,None,
,,,,90,0,90,0,,,,,,,,,,,,,,,,,,,,,,,,,267.9433656340732,11.0,0.0005268033506149364,False,0.010334200225770473,0.2037620001938194,['space'],1,[0.5048247000668198],457.529661500128,458.5526173999533,None,1,458.5526173999533,457.529661500128,,,erfnpg,001,fr,200,2022-05-10_14h10.09.143,Bayesian,2022.1.1,None,
,,,,91,0,91,0,,,,,,,,,,,,,,,,,,,,,,,,,615.5722066724584,9.0,0.00015054502551404273,False,0.0016924331430345774,0.1892693331465125,None,0,,462.9205169000197,463.94457840011455,None,1,463.94457840011455,462.9205169000197,,,erfnpg,001,fr,200,2022-05-10_14h10.09.143,Bayesian,2022.1.1,None,
,,,,92,0,92,0,,,,,,,,,,,,,,,,,,,,,,,,,,,,True,0.008240433409810066,None,None,0,,465.0218279999681,466.0444855000824,None,1,466.0444855000824,465.0218279999681,,,erfnpg,001,fr,200,2022-05-10_14h10.09.143,Bayesian,2022.1.1,None,
,,,,93,0,93,0,,,,,,,,,,,,,,,,,,,,,,,,,8000.0,-17.0,2.564306919956824e-05,False,0.012356133433058858,None,None,0,,470.10058680013753,471.10361100011505,None,1,471.10361100011505,470.10058680013753,,,erfnpg,001,fr,200,2022-05-10_14h10.09.143,Bayesian,2022.1.1,None,
,,,,94,0,94,0,,,,,,,,,,,,,,,,,,,,,,,,,3249.0095854249403,-2.0,5.62044717204616e-05,False,0.0075085998978465796,0.20187129988335073,None,0,,475.9578347001225,476.9680075000506,None,1,476.9680075000506,475.9578347001225,,,erfnpg,001,fr,200,2022-05-10_14h10.09.143,Bayesian,2022.1.1,None,
,,,,95,0,95,0,,,,,,,,,,,,,,,,,,,,,,,,,435.2752816480623,4.0,0.00011847381036860221,False,0.014791666530072689,None,None,0,,481.6925729000941,482.71943160006776,None,1,482.71943160006776,481.6925729000941,,,erfnpg,001,fr,200,2022-05-10_14h10.09.143,Bayesian,2022.1.1,None,
,,,,96,0,96,0,,,,,,,,,,,,,,,,,,,,,,,,,6062.8662660415985,-8.0,4.7308055034313446e-05,False,0.015391033375635743,None,None,0,,487.6463447001297,488.66284040012397,None,1,488.66284040012397,487.6463447001297,,,erfnpg,001,fr,200,2022-05-10_14h10.09.143,Bayesian,2022.1.1,None,
,,,,97,0,97,0,,,,,,,,,,,,,,,,,,,,,,,,,,,,True,0.014789433451369405,None,None,0,,490.6346221000422,491.6474097999744,None,1,491.6474097999744,490.6346221000422,,,erfnpg,001,fr,200,2022-05-10_14h10.09.143,Bayesian,2022.1.1,None,
,,,,98,0,98,0,,,,,,,,,,,,,,,,,,,,,,,,,2297.3967099940687,1.0,9.133707849613953e-05,False,0.013451133156195283,None,None,0,,495.6779215999413,496.6870850000996,None,1,496.6870850000996,495.6779215999413,,,erfnpg,001,fr,200,2022-05-10_14h10.09.143,Bayesian,2022.1.1,None,
,,,,99,0,99,0,,,,,,,,,,,,,,,,,,,,,,,,,1515.7165665103996,9.0,0.00013987713118134484,False,0.006986199878156185,None,['space'],1,[0.5853874001186341],501.5610343001317,502.5689318999648,None,1,502.5689318999648,501.5610343001317,,,erfnpg,001,fr,200,2022-05-10_14h10.09.143,Bayesian,2022.1.1,None,
,,,,100,0,100,0,,,,,,,,,,,,,,,,,,,,,,,,,3031.4331330207992,1.0,6.485109083489232e-05,False,0.004570233402773738,0.19459583330899477,None,0,,507.5892070000991,508.6031883000396,None,1,508.6031883000396,507.5892070000991,,,erfnpg,001,fr,200,2022-05-10_14h10.09.143,Bayesian,2022.1.1,None,
,,,,101,0,101,0,,,,,,,,,,,,,,,,,,,,,,,,,,,,True,0.014609533594921231,None,None,0,,510.3367262999527,511.3642277000472,None,1,511.3642277000472,510.3367262999527,,,erfnpg,001,fr,200,2022-05-10_14h10.09.143,Bayesian,2022.1.1,None,
,,,,102,0,102,0,,,,,,,,,,,,,,,,,,,,,,,,,870.5505632961246,4.0,6.398729178804854e-05,False,0.005404133349657059,None,None,0,,516.679956200067,517.7144782000687,None,1,517.7144782000687,516.679956200067,,,erfnpg,001,fr,200,2022-05-10_14h10.09.143,Bayesian,2022.1.1,None,
,,,,103,0,103,0,,,,,,,,,,,,,,,,,,,,,,,,,574.3491774985172,10.0,0.0001892502968965535,False,0.012236766517162323,None,['space'],1,[0.5569118999410421],522.1818007000256,523.1877894001082,None,1,523.1877894001082,522.1818007000256,,,erfnpg,001,fr,200,2022-05-10_14h10.09.143,Bayesian,2022.1.1,None,
,,,,104,0,104,0,,,,,,,,,,,,,,,,,,,,,,,,,353.5533905932738,6.0,0.00017680484310368102,False,0.006284699775278568,None,None,0,,527.2419456001371,528.2585355001502,None,1,528.2585355001502,527.2419456001371,,,erfnpg,001,fr,200,2022-05-10_14h10.09.143,Bayesian,2022.1.1,None,
,,,,105,0,105,0,,,,,,,,,,,,,,,,,,,,,,,,,,,,True,0.00997463334351778,None,None,0,,531.2043516000267,532.2005783000495,None,1,532.2005783000495,531.2043516000267,,,erfnpg,001,fr,200,2022-05-10_14h10.09.143,Bayesian,2022.1.1,None,
,,,,106,0,106,0,,,,,,,,,,,,,,,,,,,,,,,,,4594.793419988137,-5.0,7.021701419132942e-05,False,0.003260266501456499,None,None,0,,536.5542477001436,537.5682570000645,None,1,537.5682570000645,536.5542477001436,,,erfnpg,001,fr,200,2022-05-10_14h10.09.143,Bayesian,2022.1.1,None,
,,,,107,0,107,0,,,,,,,,,,,,,,,,,,,,,,,,,2639.015821545789,3.0,0.00010912778663039106,False,0.009587733307853341,None,None,0,,541.7663072999567,542.7957532999571,None,1,542.7957532999571,541.7663072999567,,,erfnpg,001,fr,200,2022-05-10_14h10.09.143,Bayesian,2022.1.1,None,
,,,,108,0,108,0,,,,,,,,,,,,,,,,,,,,,,,,,1148.6983549970344,3.0,7.101118372880253e-05,False,0.015583666507154703,None,['space'],1,[0.891887100180611],547.4621755999979,548.4787576999515,None,1,548.4787576999515,547.4621755999979,,,erfnpg,001,fr,200,2022-05-10_14h10.09.143,Bayesian,2022.1.1,None,
,,,,109,0,109,0,,,,,,,,,,,,,,,,,,,,,,,,,6498.0191708498805,-8.0,5.4146719844524754e-05,False,0.0007544334512203932,0.18601303338073194,['space'],1,[0.6380713998805732],553.9396999001037,554.9480171999894,None,1,554.9480171999894,553.9396999001037,,,erfnpg,001,fr,200,2022-05-10_14h10.09.143,Bayesian,2022.1.1,None,
,,,,110,0,110,0,,,,,,,,,,,,,,,,,,,,,,,,,,,,True,0.01227793307043612,None,None,0,,556.7188756000251,557.7274776999839,None,1,557.7274776999839,556.7188756000251,,,erfnpg,001,fr,200,2022-05-10_14h10.09.143,Bayesian,2022.1.1,None,
,,,,111,0,111,0,,,,,,,,,,,,,,,,,,,,,,,,,406.12619817811805,7.0,0.00017068310902242423,False,0.010002166731283069,None,['space'],1,[0.5938788999337703],562.0644476001617,563.0635703001171,None,1,563.0635703001171,562.0644476001617,,,erfnpg,001,fr,200,2022-05-10_14h10.09.143,Bayesian,2022.1.1,None,
,,,,112,0,112,0,,,,,,,,,,,,,,,,,,,,,,,,,1741.101126592249,6.0,0.00012594433884292031,False,0.015371400164440274,None,['space'],1,[0.6362074001226574],568.1668132001068,569.1752518001013,None,1,569.1752518001013,568.1668132001068,,,erfnpg,001,fr,200,2022-05-10_14h10.09.143,Bayesian,2022.1.1,None,
,,,,113,0,113,0,,,,,,,,,,,,,,,,,,,,,,,,,3249.0095854249403,3.0,9.994725481261178e-05,False,0.0043768000323325396,0.19139809999614954,['space'],1,[0.5554847000166774],574.4543900000863,575.4738797000609,None,1,575.4738797000609,574.4543900000863,,,erfnpg,001,fr,200,2022-05-10_14h10.09.143,Bayesian,2022.1.1,None,
,,,,114,0,114,0,,,,,,,,,,,,,,,,,,,,,,,,,,,,True,0.013857433572411537,None,None,0,,577.0369460000657,578.0426934999414,None,1,578.0426934999414,577.0369460000657,,,erfnpg,001,fr,200,2022-05-10_14h10.09.143,Bayesian,2022.1.1,None,
,,,,115,0,115,0,,,,,,,,,,,,,,,,,,,,,,,,,217.63764082403114,11.0,0.0008192170380165073,False,0.0009626667015254498,0.1936080667655915,None,0,,581.8376460000873,582.839491300052,None,1,582.839491300052,581.8376460000873,,,erfnpg,001,fr,200,2022-05-10_14h10.09.143,Bayesian,2022.1.1,None,
,,,,116,0,116,0,,,,,,,,,,,,,,,,,,,,,,,,,153.8930516681146,9.0,0.0013119300919534284,False,0.00990373338572681,0.2051788333337754,None,0,,586.607336099958,587.6270703999326,None,1,587.6270703999326,586.607336099958,,,erfnpg,001,fr,200,2022-05-10_14h10.09.143,Bayesian,2022.1.1,None,
,,,,117,0,117,0,,,,,,,,,,,,,,,,,,,,,,,,,189.4645708137998,13.0,0.0013570784394859173,False,0.00020766654051840305,0.18445966648869216,['space'],1,[0.571561599848792],591.9423644000199,592.9487099000253,None,1,592.9487099000253,591.9423644000199,,,erfnpg,001,fr,200,2022-05-10_14h10.09.143,Bayesian,2022.1.1,None,
,,,,118,0,118,0,,,,,,,,,,,,,,,,,,,,,,,,,1414.213562373095,5.0,8.968279190402293e-05,False,0.0030900335405021906,0.18899633339606225,None,0,,597.5639486999717,598.5705687000882,None,1,598.5705687000882,597.5639486999717,,,erfnpg,001,fr,200,2022-05-10_14h10.09.143,Bayesian,2022.1.1,None,
,,,,119,0,119,0,,,,,,,,,,,,,,,,,,,,,,,,,,,,True,0.014338833512738347,None,None,0,,599.6351044001058,600.6436187000945,None,1,600.6436187000945,599.6351044001058,,,erfnpg,001,fr,200,2022-05-10_14h10.09.143,Bayesian,2022.1.1,None,
,,,,120,0,120,0,,,,,,,,,,,,,,,,,,,,,,,,,287.17458874925893,9.0,0.00036103380212600225,False,0.005787200061604381,None,['space'],1,[0.7667060999665409],606.1474597000051,607.159075200092,None,1,607.159075200092,606.1474597000051,,,erfnpg,001,fr,200,2022-05-10_14h10.09.143,Bayesian,2022.1.1,None,
,,,,121,0,121,0,,,,,,,,,,,,,,,,,,,,,,,,,8000.0,-16.0,2.8771996866857863e-05,False,0.00700186681933701,None,None,0,,611.8439597000834,612.853493800154,None,1,612.853493800154,611.8439597000834,,,erfnpg,001,fr,200,2022-05-10_14h10.09.143,Bayesian,2022.1.1,None,
,,,,122,0,122,0,,,,,,,,,,,,,,,,,,,,,,,,,757.8582832551998,9.0,0.0001135363504834793,False,0.01272730017080903,None,['space'],1,[0.4067013000603765],618.9082943999674,619.9272648000624,None,1,619.9272648000624,618.9082943999674,,,erfnpg,001,fr,200,2022-05-10_14h10.09.143,Bayesian,2022.1.1,None,
,,,,123,0,123,0,,,,,,,,,,,,,,,,,,,,,,,,,4594.793419988137,-4.0,7.878478572865447e-05,False,0.0011804667301476002,0.19083056668750942,['space'],1,[0.6189949000254273],625.2552352999337,626.261719299946,None,1,626.261719299946,625.2552352999337,,,erfnpg,001,fr,200,2022-05-10_14h10.09.143,Bayesian,2022.1.1,None,
,,,,124,0,124,0,,,,,,,,,,,,,,,,,,,,,,,,,,,,True,0.012953633442521095,None,None,0,,627.2939410000108,628.304357400164,None,1,628.304357400164,627.2939410000108,,,erfnpg,001,fr,200,2022-05-10_14h10.09.143,Bayesian,2022.1.1,None,
,,,,125,0,125,0,,,,,,,,,,,,,,,,,,,,,,,,,2297.3967099940687,4.0,0.0001290170525919527,False,0.0024481667205691338,0.19268246670253575,None,0,,632.3451946999412,633.3455173000693,None,1,633.3455173000693,632.3451946999412,,,erfnpg,001,fr,200,2022-05-10_14h10.09.143,Bayesian,2022.1.1,None,
,,,,126,0,126,0,,,,,,,,,,,,,,,,,,,,,,,,,125.0,7.0,0.0016179682846481417,False,0.015058299992233515,None,['space'],1,[0.9152345999609679],638.6388408001512,639.6429709000513,None,1,639.6429709000513,638.6388408001512,,,erfnpg,001,fr,200,2022-05-10_14h10.09.143,Bayesian,2022.1.1,None,
,,,,127,0,127,0,,,,,,,,,,,,,,,,,,,,,,,,,2639.015821545789,5.0,0.00013738374372185104,False,0.005318466806784272,0.19688926683738828,None,0,,644.404092800105,645.4091429000255,['space'],0,645.4091429000255,644.404092800105,[0.018016499932855368],,erfnpg,001,fr,200,2022-05-10_14h10.09.143,Bayesian,2022.1.1,None,
,,,,128,0,128,0,,,,,,,,,,,,,,,,,,,,,,,,,2639.015821545789,5.0,0.00013738374372185104,False,None,None,None,0,,None,None,None,1,None,None,,"{'estimation': [[124.99999999999991, 6.205513201591328], [132.70951259880826, 7.0], [133.9716828170366, 7.123578963893807], [142.80263965146213, 8.0], [143.5872943746293, 8.076201654991149], [153.75066755383094, 9.0], [153.89305166811442, 9.012629847538882], [164.9384888466115, 9.859123638179048], [167.3493567410345, 10.0], [176.77669529663666, 10.527847294224271], [189.46457081379958, 10.92647431956996], [203.0630990890585, 10.99713759880897], [217.6376408240306, 10.724762615813447], [233.25824788420132, 10.154954319725805], [236.48119930330967, 10.0], [249.99999999999937, 9.374246423189199], [257.4788980326599, 9.0], [267.94336563407256, 8.493412712397877], [278.54023026438614, 8.0], [287.1745887492579, 7.610719943769128], [302.4010905344045, 7.0], [307.78610333622805, 6.791048065320805], [329.87697769322244, 6.066948376372189], [332.3552191661511, 6.0], [353.55339059327247, 5.451989258060116], [377.5943015899858, 5.0], [378.929141627598, 4.9756693720350365], [406.12619817811606, 4.700237411251342], [435.2752816480601, 4.708379153641956], [460.14960743847377, 5.0], [466.5164957684015, 5.072853677646805], [499.9999999999975, 5.799043759888197], [507.0395984453785, 6.0], [535.8867312681438, 6.794656797784549], [543.1571435560927, 7.0], [574.3491774985143, 7.848357461997388], [581.6603304892772, 8.0], [615.5722066724546, 8.674375146019564], [659.7539553864424, 8.99047554663435], [707.1067811865431, 8.615812472103315], [735.9787363303442, 8.0], [757.8582832551941, 7.5490516061981285], [776.745599739492, 7.0], [811.9724394437367, 6.000000000000001], [812.2523963562301, 5.992328866716447], [846.1266985088021, 5.0], [870.5505632961181, 4.310203727946159], [884.2083958920517, 4.0], [929.2375024649932, 3.0], [933.0329915368008, 2.918622628549925], [999.9999999999926, 2.166790330870342], [1071.773462536285, 2.2094174192956766], [1148.698354997026, 2.9703930716564946], [1150.6651154637673, 3.0], [1218.9151302342364, 4.0], [1231.1444133449063, 4.1720348811987], [1288.6266439674796, 5.0], [1319.5079107728832, 5.427159523082366], [1375.4110325402871, 6.0], [1414.2135623730828, 6.383259996261702], [1515.7165665103846, 6.82490779588479], [1624.5047927124563, 6.736149923435164], [1741.1011265922318, 6.269729749629114], [1795.2264921077326, 6.0], [1866.065983073597, 5.65840783469982], [1999.9999999999802, 5.124027332513001], [2048.4480062280354, 5.0], [2143.5469250725646, 4.7648620110596305], [2297.396709994046, 4.548725781685574], [2462.2888266898062, 4.31997286291719], [2590.196474655243, 4.0], [2639.015821545763, 3.882036581094879], [2828.427124746159, 3.0946397182759626], [2844.2641723561246, 3.0], [3016.601217326303, 2.0], [3031.4331330207615, 1.9170715728987358], [3165.5989603827825, 1.0], [3249.0095854249043, 0.45006569176901], [3314.7793747133173, 0.0], [3463.89965572723, -1.0], [3482.2022531844555, -1.118036929426447], [3632.925174657806, -2.0], [3732.1319661471844, -2.5578498987265306], [3833.617841132275, -3.0], [3999.9999999999504, -3.6976204842047022], [4109.20880195227, -4.0], [4287.093850145118, -4.473920505689122], [4594.793419988081, -4.952135410360404], [4636.9043602928205, -5.0], [4924.577653379601, -5.315193555292746], [5278.031643091506, -5.785783903873483], [5379.06653203192, -6.0], [5656.854249492303, -6.568858905857484], [5800.754394790417, -7.0], [6062.866266041508, -7.762614467257164], [6127.455123357926, -8.0], [6402.310415696469, -9.0], [6498.019170849792, -9.333318609220552], [6670.055470169395, -10.0], [6935.207336574476, -11.0], [6964.404506368894, -11.104803491737723], [7221.380927487533, -12.0], [7464.2639322943505, -12.80905497359132], [7539.566622351993, -13.0], [7935.9974291491235, -14.0], [7999.999999999882, -14.15782973120085]], 'plus_line': [[125.0, 2.0214287022868302], [133.61482269005083, 3.0], [133.9716828170366, 3.038096804605899], [143.58729437462938, 3.974409370233453], [143.85644670248257, 4.0], [153.89305166811442, 4.906064695100204], [155.00467387366015, 5.0], [164.9384888466115, 5.785396853541715], [168.33006958568177, 6.0], [176.77669529663666, 6.490388762022787], [189.46457081379947, 6.914272968013424], [203.0630990890585, 6.977921838868272], [217.6376408240306, 6.674450893507545], [233.25824788420132, 6.094279832509944], [235.20146229643166, 6.0], [249.99999999999937, 5.288017764729386], [255.66691407007582, 5.0], [267.94336563407256, 4.3868159780276645], [276.1789164067088, 4.0], [287.1745887492579, 3.493725795838296], [299.6609752818482, 3.0], [307.78610333622805, 2.683457394836631], [329.6542965078558, 2.0], [329.87697769322284, 1.9930437562951313], [353.55339059327247, 1.3863365888282977], [374.91536669859784, 1.0], [378.929141627598, 0.9251328499009268], [406.12619817811606, 0.6252478152959948], [435.2752816480601, 0.6051022911585895], [466.5164957684015, 0.9512504767980362], [468.70339781443903, 1.0], [499.9999999999975, 1.6511687771419208], [512.2585944758405, 2.0], [535.8867312681438, 2.6490823622191964], [548.1711577534522, 3.0], [574.3491774985143, 3.724746368457699], [587.0859299421377, 4.0], [615.5722066724546, 4.578169170059849], [659.7539553864432, 4.930327695596146], [707.1067811865431, 4.555757949060388], [732.815018438893, 4.0], [757.8582832551941, 3.4795159695700275], [773.6388226873702, 3.0], [808.7716693189851, 2.0], [812.2523963562301, 1.905676861623407], [841.3920899421315, 1.0], [870.5505632961181, 0.18713063768115257], [878.4987550902181, 0.0], [922.1238067337652, -1.0], [933.0329915368008, -1.2351995138546084], [999.9999999999926, -1.9919245828272052], [1071.773462536285, -1.9500366018111914], [1148.698354997026, -1.1812205955124409], [1160.705088471332, -1.0], [1227.8078762999423, 0.0], [1231.1444133449063, 0.04786129617000212], [1297.467346191129, 1.0], [1319.5079107728832, 1.3120410524519182], [1386.515430066577, 2.0], [1414.2135623730828, 2.273561944529531], [1515.7165665103828, 2.6989718390447366], [1624.5047927124563, 2.581363083320741], [1741.1011265922318, 2.1031829366025407], [1762.0844816349056, 2.0], [1866.065983073597, 1.4857625228112497], [1996.94911169774, 1.0], [1999.9999999999802, 0.9884238047067738], [2143.5469250725646, 0.6474842669830031], [2297.396709994046, 0.4520383620447884], [2462.2888266898062, 0.240231227462541], [2563.218644375555, 0.0], [2639.015821545763, -0.1845297397373239], [2828.427124746159, -0.9567212656764232], [2835.6170647349677, -1.0], [3005.8600332955493, -2.0], [3031.4331330207615, -2.142855827115902], [3151.7868096680886, -3.0], [3249.0095854249043, -3.6379294878241653], [3299.8939674169574, -4.0], [3445.9035665669608, -5.0], [3482.2022531844555, -5.233552639985577], [3608.3804880984076, -6.0], [3732.1319661471844, -6.695706291199946], [3801.3836163430287, -7.0], [3999.9999999999504, -7.83566352848597], [4060.3326398276754, -8.0], [4287.093850145118, -8.611110425976332], [4547.952220997244, -9.0], [4594.793419988081, -9.072100030472217], [4924.577653379601, -9.434245014255822], [5278.031643091506, -9.884610545853523], [5333.038436381385, -10.0], [5656.854249492303, -10.666575297827016], [5766.229077684125, -11.0], [6062.866266041501, -11.85542714189792], [6101.140608207733, -12.0], [6370.6430694981145, -13.0], [6498.019170849792, -13.42858344985051], [6641.894171380518, -14.0], [6915.949847179874, -15.0], [6964.404506368894, -15.164257564868269], [7199.183458104149, -16.0], [7464.2639322943505, -16.837989753639604], [7523.261310272681, -17.0], [7890.302854522432, -18.0], [7999.999999999872, -18.282751248137174]], 'minus_line': [[125.0, 10.28452377439663], [132.44869825356307, 11.0], [133.9716828170366, 11.143007326283481], [142.00232696472094, 12.0], [143.5872943746293, 12.166779432286482], [152.21546137166735, 13.0], [153.89305166811442, 13.159887700524205], [164.8047671751544, 14.0], [164.93848884661162, 14.010251770310525], [176.77669529663666, 14.682606793153585], [187.15963271283994, 15.0], [189.46457081379947, 15.073772649920107], [203.0630990890585, 15.151817906919332], [210.51516957521065, 15.0], [217.63764082403046, 14.872094896285793], [233.25824788420132, 14.29423596223829], [239.22918248515208, 14.0], [249.99999999999937, 13.504064484390852], [260.03913115992424, 13.0], [267.94336563407256, 12.622686763225808], [281.41735242841855, 12.0], [287.1745887492579, 11.745875061269798], [305.85202831143476, 11.0], [307.78610333622805, 10.926439969892249], [329.87697769322244, 10.209380726503447], [337.54795730688943, 10.0], [353.55339059327247, 9.597257976681611], [378.929141627598, 9.119297179069905], [390.3206177318223, 9.0], [406.12619817811606, 8.85353580863542], [435.2752816480601, 8.872187758210483], [446.1156146754073, 9.0], [466.5164957684015, 9.249545732987077], [499.9999999999975, 9.968227970187018], [501.1112777074187, 10.0], [535.8867312681438, 10.959595211042796], [537.3219791108868, 11.0], [574.2709305158178, 12.0], [574.3491774985143, 12.002044147875377], [615.5722066724546, 12.823953796612106], [641.5966873285466, 13.0], [659.7539553864432, 13.129041666945463], [674.6344575134133, 13.0], [707.1067811865431, 12.748687330608501], [742.2259582542813, 12.0], [757.8582832551941, 11.676705085076343], [781.7426761041552, 11.0], [812.2523963562301, 10.10772134003443], [816.0394984634665, 10.0], [850.8908063981078, 9.0], [870.5505632961181, 8.42680710254013], [889.6503066930231, 8.0], [933.0329915368008, 7.016891391105423], [934.4453046234016, 7.0], [999.9999999999926, 6.271140718541762], [1071.773462536285, 6.313729801443697], [1141.9275865543473, 7.0], [1148.698354997026, 7.066276621575521], [1211.6843726684722, 8.0], [1231.1444133449063, 8.271389851605207], [1281.3187273160922, 9.0], [1319.5079107728832, 9.518548350302165], [1367.1310326304163, 10.0], [1414.2135623730828, 10.46086613359413], [1515.7165665103846, 10.884484026247954], [1624.5047927124563, 10.797092563123336], [1741.1011265922318, 10.336270182000597], [1807.657785792453, 10.0], [1866.065983073597, 9.726872107771392], [1999.9999999999802, 9.20380687322775], [2085.950994481766, 9.0], [2143.5469250725646, 8.875900379059157], [2297.396709994046, 8.720236870690659], [2462.2888266898062, 8.551388059421296], [2639.01582154576, 8.142645901271122], [2671.8344259491623, 8.0], [2828.427124746159, 7.360841443759985], [2888.472916505607, 7.0], [3031.4331330207615, 6.15447779878904], [3053.7120233252863, 6.0], [3198.5251865518235, 5.0], [3249.0095854249043, 4.656699133827853], [3345.4075125271024, 4.0], [3482.2022531844555, 3.04260663440277], [3489.3132312511807, 3.0], [3658.951563893954, 2.0], [3732.1319661471844, 1.572576038283819], [3860.5186762426824, 1.0], [3999.9999999999504, 0.39502780989492203], [4137.420299448355, 0.0], [4287.093850145118, -0.4028866167934651], [4594.793419988081, -0.8867904127446476], [4697.156014415116, -1.0], [4924.577653379601, -1.2261528426694033], [5278.0316430915, -1.6681656467837522], [5439.248026048356, -2.0], [5656.854249492303, -2.4242784268978594], [5855.729526483615, -3.0], [6062.866266041508, -3.5960505431719954], [6176.723177016383, -4.0], [6449.480928996242, -5.0], [6498.019170849792, -5.173172826627896], [6716.277011837204, -6.0], [6964.404506368894, -6.994335119536973], [6966.039899793677, -7.0], [7255.810557214869, -8.0], [7464.2639322943505, -8.743246925361767], [7571.548502187664, -9.0], [7983.699617919466, -10.0], [7999.999999999882, -10.038614812228031]]}",erfnpg,001,fr,200,2022-05-10_14h10.09.143,Bayesian,2022.1.1,None,
