sweeps.thisRepN,sweeps.thisTrialN,sweeps.thisN,sweeps.thisIndex,trials.thisRepN,trials.thisTrialN,trials.thisN,trials.thisIndex,instructions.started,instructions.stopped,blank_text.started,blank_text.stopped,,text.started,text.stopped,Delay,Prediction,Frequency,Volume,Psychopy_level,isCatchTrial,len(y),finished_audiograms,probe.started,probe.stopped,feedback.keys,feedback.started,feedback.stopped,ISI.started,ISI.stopped,text_2.started,text_2.stopped,break_txt.started,break_txt.stopped,Intervals,feedback.rt,participant,session,language (english or french),Resume previous experiment,date,expName,psychopyVersion,frameRate,
0,0,0,0,0,0,0,0,22.48004200006835,None,62.56059540016577,None,0.3333333333333333,64.66196719999425,None,1.6103075381088336,frequency,1416.0,2.005755354040159,6.347676575036794e-05,0,28,[],0.02415092010051012,None,None,65.6748636001721,None,0.2306669200770557,1.8409744581858893,65.90015440015122,None,,,,,wxbjqe,001,fr,0,2022-05-16_17h49.14.043,Continuous,2022.1.1,None,
0,0,0,0,1,0,1,0,,,,,,,,2.5459145310351885,frequency,1124.0,2.0886005002651333,6.262378472704668e-05,0,29,[],0.028757419902831316,None,None,67.52865030011162,67.52865030011162,0.23745461995713413,2.7833691509923226,67.7469983000774,67.52865030011162,,,,,wxbjqe,001,fr,0,2022-05-16_17h49.14.043,Continuous,2022.1.1,None,
0,0,0,0,2,0,2,0,,,,,,,,2.191169906857949,frequency,892.0,2.799231166637322,5.656712132231085e-05,0,30,[],0.02139672008343041,None,None,70.31655140011571,70.31655140011571,0.23151202010922134,2.4226819269671704,70.53853670018725,70.31655140011571,,,,,wxbjqe,001,fr,0,2022-05-16_17h49.14.043,Continuous,2022.1.1,None,
0,0,0,0,3,0,3,0,,,,,,,,1.5017863719042854,frequency,708.0,3.2031242590442863,6.409161652815158e-05,0,31,[],0.02615061984397471,None,None,72.74956120015122,72.74956120015122,0.22577381995506585,1.7275601918593513,72.97072520013899,72.74956120015122,,,,,wxbjqe,001,fr,0,2022-05-16_17h49.14.043,Continuous,2022.1.1,None,
0,0,0,0,4,0,4,0,,,,,,,,2.037269424277742,frequency,562.0,2.767069706939687,8.494736128338599e-05,0,32,[],0.02794612036086619,None,None,74.49893880006857,74.49893880006857,0.23036372032947838,2.2676331446072204,74.717688200064,74.49893880006857,,,,,wxbjqe,001,fr,0,2022-05-16_17h49.14.043,Continuous,2022.1.1,None,
0,0,0,0,5,0,5,0,,,,,,,,1.928103454809449,frequency,446.0,1.9645200706942787,9.303639347488085e-05,0,33,[],0.020608120365068316,None,None,76.77528699999675,76.77528699999675,0.21384862018749118,2.14195207499694,76.98996500018984,76.77528699999675,,,,,wxbjqe,001,fr,0,2022-05-16_17h49.14.043,Continuous,2022.1.1,None,
0,0,0,0,6,0,6,0,,,,,,,,1.445814794519099,frequency,354.0,2.0,0.00011141034968120162,0,34,[],0.02859102003276348,None,None,78.94272410008125,78.94272410008125,0.23126771999523044,1.6770825145143293,79.15751560009085,78.94272410008125,,,,,wxbjqe,001,fr,0,2022-05-16_17h49.14.043,Continuous,2022.1.1,None,
0,0,0,0,7,0,7,0,,,,,,,,1.7683522916523342,frequency,,,,1,34,[],0.02864932012744248,None,None,80.63288700021803,80.63288700021803,0.23143352009356022,1.9997858117458944,80.85263640014455,80.63288700021803,,,,,wxbjqe,001,fr,0,2022-05-16_17h49.14.043,Continuous,2022.1.1,None,
0,0,0,0,8,0,8,0,,,,,,,,1.442743808059572,frequency,223.0,2.0936060799419574,0.0002804491703994566,0,35,[],0.028510220116004348,None,None,82.64277900010347,82.64277900010347,0.23073962004855275,1.6734834281081248,82.86248270003125,82.64277900010347,,,,,wxbjqe,001,fr,0,2022-05-16_17h49.14.043,Continuous,2022.1.1,None,
0,0,0,0,9,0,9,0,,,,,,,,2.28542879645404,frequency,177.0,3.368033942883491,0.0005146186441298983,0,36,[],0.02765362011268735,None,None,84.33145160018466,84.33145160018466,0.22881562006659806,2.514244416520638,84.54881900013424,84.33145160018466,,,,,wxbjqe,001,fr,0,2022-05-16_17h49.14.043,Continuous,2022.1.1,None,
0,0,0,0,10,0,10,0,,,,,,,,1.3682313915466278,frequency,140.0,3.27578934900378,0.0008590841922166822,0,37,[],0.02526662009768188,None,None,86.86489720013924,86.86489720013924,0.22495982004329562,1.5931912115899234,87.0846191002056,86.86489720013924,,,,,wxbjqe,001,fr,0,2022-05-16_17h49.14.043,Continuous,2022.1.1,None,
1,0,1,0,0,0,0,0,,,,,,105.827678500209,None,1.7426980589810197,time,132.0,2.793060397016913,0.0009108779696047996,0,28,[],0.02965952013619244,0.22651832015253603,None,106.83758060005493,None,0.22651832015253603,1.9692163791335557,107.04632210009731,None,88.47874720022082,None,"[0.5833333333333334, 0.16666666666666666, 0.16666666666666666, 0.16666666666666666, 0.5833333333333334, 0.5833333333333334, 0.3333333333333333, 0.3333333333333333, 0.16666666666666666, 0.5833333333333334, 0.16666666666666666, 0.5833333333333334, 0.5833333333333334, 0.16666666666666666, 0.5833333333333334]",,wxbjqe,001,fr,0,2022-05-16_17h49.14.043,Continuous,2022.1.1,None,
1,0,1,0,1,0,1,0,,,,,,,,1.7426980589810197,time,354.0,2.0,0.00011141034968120162,0,29,[],0.020157220074906945,0.21412782021798193,None,108.80918229999952,108.80918229999952,0.21412782021798193,1.9568258791990016,109.0233788001351,108.80918229999952,,,,,wxbjqe,001,fr,0,2022-05-16_17h49.14.043,Continuous,2022.1.1,None,
1,0,1,0,2,0,2,0,,,,,,,,1.7426980589810197,time,315.0,1.6369525245249017,0.0001190741885328324,0,30,[],0.025926820002496243,0.22449272009544075,None,110.78856310015544,110.78856310015544,0.22449272009544075,1.9671907790764604,110.999313400127,110.78856310015544,,,,,wxbjqe,001,fr,0,2022-05-16_17h49.14.043,Continuous,2022.1.1,None,
1,0,1,0,3,0,3,0,,,,,,,,1.7426980589810197,time,250.0,1.9413218736812863,0.0002094286523121687,0,31,[],0.028287220047786832,None,None,112.76632620021701,112.76632620021701,0.23322052019648254,1.9759185791775022,112.98108460009098,112.76632620021701,,,,,wxbjqe,001,fr,0,2022-05-16_17h49.14.043,Continuous,2022.1.1,None,
1,0,1,0,4,0,4,0,,,,,,,,1.7426980589810197,time,595.0,2.0091590199047094,7.136143562205772e-05,0,32,[],0.020577620016410947,0.21714322012849152,None,114.74861340015195,114.74861340015195,0.21714322012849152,1.9598412791095112,114.9585151001811,114.74861340015195,,,,,wxbjqe,001,fr,0,2022-05-16_17h49.14.043,Continuous,2022.1.1,None,
1,0,1,0,5,0,5,0,,,,,,,,1.7426980589810197,time,2244.0,2.416357676122019,0.00010595068670352461,0,33,[],0.028049519984051585,None,None,116.72620840021409,116.72620840021409,0.22870712005533278,1.9714051790363525,116.93501990009099,116.72620840021409,,,,,wxbjqe,001,fr,0,2022-05-16_17h49.14.043,Continuous,2022.1.1,None,
1,0,1,0,6,0,6,0,,,,,,,,1.7426980589810197,time,1335.0,2.1873796299996764,6.740491919233684e-05,0,34,[],0.028032019967213273,None,None,118.7064481000416,118.7064481000416,0.23139622015878558,1.9740942791398053,118.92692750017159,118.7064481000416,,,,,wxbjqe,001,fr,0,2022-05-16_17h49.14.043,Continuous,2022.1.1,None,
1,0,1,0,7,0,7,0,,,,,,,,1.7426980589810197,time,1498.0,2.6387127022047054,6.551667531332422e-05,0,35,[],0.027669420232996345,None,None,120.68501850008033,120.68501850008033,0.23322382010519505,1.9759218790862147,120.89791610022075,120.68501850008033,,,,,wxbjqe,001,fr,0,2022-05-16_17h49.14.043,Continuous,2022.1.1,None,
1,0,1,0,8,0,8,0,,,,,,,,1.7426980589810197,time,198.0,3.0966075119196925,0.00038954461105622057,0,36,[],0.02575181983411312,0.22113611991517246,None,122.66698630014434,122.66698630014434,0.22113611991517246,1.9638341788961922,122.87468690006062,122.66698630014434,,,,,wxbjqe,001,fr,0,2022-05-16_17h49.14.043,Continuous,2022.1.1,None,
1,0,1,0,9,0,9,0,,,,,,,,1.7426980589810197,time,891.0,3.201551431086042,5.920778326902256e-05,0,37,[],0.02732912008650601,None,None,124.64531570021063,124.64531570021063,0.22954382025636733,1.972241879237387,124.86743320012465,124.64531570021063,,,,,wxbjqe,001,fr,0,2022-05-16_17h49.14.043,Continuous,2022.1.1,None,
1,0,1,0,10,0,10,0,,,,,,,,1.7426980589810197,time,530.0,2.149156206058954,8.550758212413026e-05,0,38,[],0.02762501989491284,None,None,126.62965620006435,126.62965620006435,0.2281172201037407,1.9708152790847604,126.84400220005773,126.62965620006435,,,,,wxbjqe,001,fr,0,2022-05-16_17h49.14.043,Continuous,2022.1.1,None,
1,0,1,0,11,0,11,0,,,,,,,,1.7426980589810197,time,,,,1,38,[],0.027236920315772295,None,None,128.61611520010047,128.61611520010047,0.22812802041880786,1.9708260793998276,128.83550140005536,128.61611520010047,,,,,wxbjqe,001,fr,0,2022-05-16_17h49.14.043,Continuous,2022.1.1,None,
2,0,2,0,0,0,0,0,,,,,,136.46640330017544,None,1.368309098227493,time,236.0,6.594886394028276,0.0004164678843596942,0,39,[],0.028920020209625363,None,None,137.48691320000216,None,0.2405864200554788,1.6088955182829718,137.70617550006136,None,130.59416350000538,None,"[0.5833333333333334, 0.16666666666666666, 0.5833333333333334, 0.16666666666666666, 0.5833333333333334, 0.3333333333333333, 0.16666666666666666, 0.5833333333333334, 0.5833333333333334, 0.16666666666666666, 0.5833333333333334, 0.5833333333333334, 0.3333333333333333, 0.3333333333333333, 0.16666666666666666]",,wxbjqe,001,fr,0,2022-05-16_17h49.14.043,Continuous,2022.1.1,None,
2,0,2,0,1,0,1,0,,,,,,,,1.368309098227493,time,1588.0,3.5669951870925214,8.404108364422111e-05,0,40,[],0.027174620190635324,None,None,139.09336550021544,139.09336550021544,0.22907952032983303,1.597388618557326,139.3140451000072,139.09336550021544,,,,,wxbjqe,001,fr,0,2022-05-16_17h49.14.043,Continuous,2022.1.1,None,
2,0,2,0,2,0,2,0,,,,,,,,1.368309098227493,time,354.0,7.0,0.00019811873090331728,0,41,[],0.02753632003441453,None,None,140.70133820013143,140.70133820013143,0.22851882013492286,1.5968279183624159,140.91302950005047,140.70133820013143,,,,,wxbjqe,001,fr,0,2022-05-16_17h49.14.043,Continuous,2022.1.1,None,
2,0,2,0,3,0,3,0,,,,,,,,1.368309098227493,time,397.0,2.158287031251144,9.914717244345065e-05,0,42,[],0.027441920014098287,None,None,142.31431310018525,142.31431310018525,0.22692051995545626,1.5952296181829493,142.52589240018278,142.31431310018525,,,,,wxbjqe,001,fr,0,2022-05-16_17h49.14.043,Continuous,2022.1.1,None,
2,0,2,0,4,0,4,0,,,,,,,,1.368309098227493,time,1415.0,5.205365829298698,9.179293227727325e-05,0,43,[],0.026475020218640566,None,None,143.92255270015448,143.92255270015448,0.22682882007211447,1.5951379182996075,144.13852020003833,143.92255270015448,,,,,wxbjqe,001,fr,0,2022-05-16_17h49.14.043,Continuous,2022.1.1,None,
2,0,2,0,5,0,5,0,,,,,,,,1.368309098227493,time,595.0,4.104123855757846,9.0826341318349e-05,0,44,[],0.027144619962200522,None,None,145.53468909999356,145.53468909999356,0.23117062007077038,1.5994797182982634,145.75526870018803,145.53468909999356,,,,,wxbjqe,001,fr,0,2022-05-16_17h49.14.043,Continuous,2022.1.1,None,
2,0,2,0,6,0,6,0,,,,,,,,1.368309098227493,time,1123.0,6.379893710768168,0.00010254981803890534,0,45,[],0.027136020129546523,None,['space'],147.14081630017608,147.14081630017608,0.23033872013911605,1.598647818366609,147.35658300016075,147.14081630017608,,,,[-0.2633765998762101],wxbjqe,001,fr,0,2022-05-16_17h49.14.043,Continuous,2022.1.1,None,
2,0,2,0,7,0,7,0,,,,,,,,1.368309098227493,time,891.0,6.759082027918119,8.917750782787467e-05,0,46,[],0.026385820005089045,None,None,148.75500750006177,148.75500750006177,0.22576121985912323,1.5940703180866163,148.96638700016774,148.75500750006177,,,,,wxbjqe,001,fr,0,2022-05-16_17h49.14.043,Continuous,2022.1.1,None,
2,0,2,0,8,0,8,0,,,,,,,,1.368309098227493,time,141.0,4.862902278509699,0.0010157313252372854,0,47,[],0.026361120166257024,None,None,150.36239110003226,150.36239110003226,0.22557112015783787,1.593880218385331,150.5705459001474,150.36239110003226,,,,,wxbjqe,001,fr,0,2022-05-16_17h49.14.043,Continuous,2022.1.1,None,
2,0,2,0,9,0,9,0,,,,,,,,1.368309098227493,time,,,,1,47,[],0.020916220033541322,None,None,151.96800340013579,151.96800340013579,0.21382511989213526,1.5821342181196283,152.18150520022027,151.96800340013579,,,,,wxbjqe,001,fr,0,2022-05-16_17h49.14.043,Continuous,2022.1.1,None,
,,,,,,,,,,,,,,,,,,,,,,,,,,,,,,,,153.58038060017861,None,"[0.3333333333333333, 0.16666666666666666, 0.3333333333333333, 0.5833333333333334, 0.5833333333333334, 0.3333333333333333, 0.3333333333333333, 0.3333333333333333, 0.3333333333333333, 0.16666666666666666, 0.3333333333333333, 0.5833333333333334, 0.3333333333333333, 0.5833333333333334, 0.5833333333333334]",,,,,,,,,,
