sweeps.thisRepN,sweeps.thisTrialN,sweeps.thisN,sweeps.thisIndex,trials.thisRepN,trials.thisTrialN,trials.thisN,trials.thisIndex,instructions.started,instructions.stopped,blank_text.started,blank_text.stopped,Intervals,text.started,text.stopped,Delay,Prediction,Frequency,Volume,Psychopy_level,isCatchTrial,len(y),finished_audiograms,probe.started,probe.stopped,feedback.keys,feedback.started,feedback.stopped,ISI.started,ISI.stopped,text_2.started,text_2.stopped,feedback.rt,break_txt.started,break_txt.stopped,,participant,session,language (english or french),Resume previous experiment,date,expName,psychopyVersion,frameRate,
0,0,0,0,0,0,0,0,22.312151599908248,None,25.056441999971867,None,"[0.3333333333333333, 0.3333333333333333, 0.3333333333333333, 0.3333333333333333, 0.16666666666666666, 0.3333333333333333, 0.16666666666666666, 0.3333333333333333, 0.16666666666666666, 0.3333333333333333, 0.3333333333333333, 0.16666666666666666, 0.3333333333333333, 0.16666666666666666, 0.16666666666666666]",27.09476669994183,None,2.467954741760799,time,1001.0,2.0264007277384612,5.5680381352382224e-05,0,28,[],0.025587910087779164,None,None,28.110707399901003,None,0.24029380991123617,2.7082485516720354,28.325012099929154,None,,,,,wxbjqe,002,fr,0,2022-05-16_17h53.52.996,Continuous,2022.1.1,None,
0,0,0,0,1,0,1,0,,,,,,,,2.467954741760799,time,446.0,1.5192489641538849,8.838718682137173e-05,0,29,[],0.02524031000211835,None,['space'],30.81537999981083,30.81537999981083,0.24526361003518105,2.7132183517959803,31.039155999897048,30.81537999981083,[-1.6445480997208506],,,,wxbjqe,002,fr,0,2022-05-16_17h53.52.996,Continuous,2022.1.1,None,
0,0,0,0,2,0,2,0,,,,,,,,2.467954741760799,time,125.0,2.4324009991833786,0.0009562909687367587,0,30,[],0.025365510024130344,None,None,33.527506299782544,33.527506299782544,0.24258991004899144,2.7105446518097907,33.74687589984387,33.527506299782544,,,,,wxbjqe,002,fr,0,2022-05-16_17h53.52.996,Continuous,2022.1.1,None,
0,0,0,0,3,0,3,0,,,,,,,,2.467954741760799,time,158.0,3.8028480488620042,0.0006645470643994059,0,31,[],0.025165109895169735,None,None,36.23670369992033,36.23670369992033,0.23655370995402336,2.7045084517148226,36.45176689978689,36.23670369992033,,,,,wxbjqe,002,fr,0,2022-05-16_17h53.52.996,Continuous,2022.1.1,None,
0,0,0,0,4,0,4,0,,,,,,,,2.467954741760799,time,795.0,3.140370309413731,5.540567909938814e-05,0,32,[],0.025426809675991535,None,None,38.943511499790475,38.943511499790475,0.23541890969499946,2.7033736514557987,39.162152000004426,38.943511499790475,,,,,wxbjqe,002,fr,0,2022-05-16_17h53.52.996,Continuous,2022.1.1,None,
0,0,0,0,5,0,5,0,,,,,,,,2.467954741760799,time,177.0,2.3256317014784615,0.0004564207750885281,0,33,[],0.017018310027197003,None,['space'],41.6525899998378,41.6525899998378,0.21698270994238555,2.6849374517031848,41.8710833999794,41.6525899998378,[-2.1851512999273837],,,,wxbjqe,002,fr,0,2022-05-16_17h53.52.996,Continuous,2022.1.1,None,
0,0,0,0,6,0,6,0,,,,,,,,2.467954741760799,time,892.0,2.675727698811502,5.5768492471368615e-05,0,34,[],0.02507840981706977,None,['space'],44.371935199946165,44.371935199946165,0.24839820992201567,2.716352951682815,44.60022269980982,44.371935199946165,[-2.263631099835038],,,,wxbjqe,002,fr,0,2022-05-16_17h53.52.996,Continuous,2022.1.1,None,
0,0,0,0,7,0,7,0,,,,,,,,2.467954741760799,time,562.0,2.759162926335038,8.487006873620657e-05,0,35,[],0.024594709975644946,None,['space'],47.0852806000039,47.0852806000039,0.23480410990305245,2.7027588516638517,47.30009389994666,47.0852806000039,[-2.267003199784085],,,,wxbjqe,002,fr,0,2022-05-16_17h53.52.996,Continuous,2022.1.1,None,
0,0,0,0,8,0,8,0,,,,,,,,2.467954741760799,time,250.0,1.8919031913968936,0.00020824048371264234,0,36,[],0.024694310035556555,None,['space'],49.791273299837485,49.791273299837485,0.22492831014096737,2.6928830519017666,50.008598499931395,49.791273299837485,[-2.2206460000015795],,,,wxbjqe,002,fr,0,2022-05-16_17h53.52.996,Continuous,2022.1.1,None,
0,0,0,0,9,0,9,0,,,,,,,,2.467954741760799,time,223.0,2.3548966406436076,0.0002890138715332713,0,37,[],0.025077809812501073,None,['space'],52.49865969992243,52.49865969992243,0.2389673099387437,2.706922051699543,52.718528599943966,52.49865969992243,[-2.2565332998055965],,,,wxbjqe,002,fr,0,2022-05-16_17h53.52.996,Continuous,2022.1.1,None,
0,0,0,0,10,0,10,0,,,,,,,,2.467954741760799,time,315.0,1.7957775704456043,0.00012127153727613416,0,38,[],0.024977609980851412,None,"['space', 'space']",55.210351599846035,55.210351599846035,0.2383393100462854,2.7062940518070846,55.43124579987489,55.210351599846035,"[-2.327885099919513, -0.08028869982808828]",,,,wxbjqe,002,fr,0,2022-05-16_17h53.52.996,Continuous,2022.1.1,None,
0,0,0,0,11,0,11,0,,,,,,,,2.467954741760799,time,,,,1,38,[],0.025012409780174494,None,None,57.91913519985974,57.91913519985974,0.24861790984869003,2.7165726516094892,58.147442099871114,57.91913519985974,,,,,wxbjqe,002,fr,0,2022-05-16_17h53.52.996,Continuous,2022.1.1,None,
0,0,0,0,12,0,12,0,,,,,,,,2.467954741760799,time,354.0,2.0,0.00011141034968120162,0,39,[],0.026480909902602434,None,['space'],60.63187319994904,60.63187319994904,0.23417511000297964,2.702129851763779,60.8507580999285,60.63187319994904,[-0.8133173999376595],,,,wxbjqe,002,fr,0,2022-05-16_17h53.52.996,Continuous,2022.1.1,None,
1,0,1,0,0,0,0,0,,,,,"[0.3333333333333333, 0.5833333333333334, 0.5833333333333334, 0.5833333333333334, 0.3333333333333333, 0.5833333333333334, 0.16666666666666666, 0.3333333333333333, 0.16666666666666666, 0.16666666666666666, 0.16666666666666666, 0.3333333333333333, 0.5833333333333334, 0.5833333333333334, 0.5833333333333334]",82.5447396999225,None,2.7011674873608,time,244.0,1.8693398088093605,0.00022227813293582927,0,40,[],0.026098110247403383,None,None,83.58312259986997,None,0.2278181102592498,2.92898559762005,83.79909409978427,None,,63.33586999983527,None,,wxbjqe,002,fr,0,2022-05-16_17h53.52.996,Continuous,2022.1.1,None,
1,0,1,0,1,0,1,0,,,,,,,,2.7011674873608,time,3102.0,0.9523578630267274,7.194834416660733e-05,0,41,[],0.024285010062158108,None,['space'],86.52355049992912,86.52355049992912,0.21534831007011235,2.9165157974309124,86.73051689984277,86.52355049992912,[-2.1521422998048365],,,,wxbjqe,002,fr,0,2022-05-16_17h53.52.996,Continuous,2022.1.1,None,
1,0,1,0,2,0,2,0,,,,,,,,2.7011674873608,time,5855.0,12.809603188614247,0.0005297158549522362,0,42,[],0.024188409792259336,None,['space'],89.46168269985355,89.46168269985355,0.22254950972273946,2.9237169970835395,89.66831319988705,89.46168269985355,[-2.4583222998771816],,,,wxbjqe,002,fr,0,2022-05-16_17h53.52.996,Continuous,2022.1.1,None,
1,0,1,0,3,0,3,0,,,,,,,,2.7011674873608,time,548.0,1.5914860422894668,7.681750795815657e-05,0,43,[],0.02407410996966064,None,['space'],92.39893739996478,92.39893739996478,0.22581721004098654,2.9269846974017866,92.6137305998709,92.39893739996478,[-2.4446686001028866],,,,wxbjqe,002,fr,0,2022-05-16_17h53.52.996,Continuous,2022.1.1,None,
1,0,1,0,4,0,4,0,,,,,,,,2.7011674873608,time,2462.0,1.0,9.543110625828702e-05,0,44,[],0.022376710083335638,None,['space'],95.33717149985023,95.33717149985023,0.21817941009067,2.91934689745147,95.54850899986923,95.33717149985023,[-2.5029266998171806],,,,wxbjqe,002,fr,0,2022-05-16_17h53.52.996,Continuous,2022.1.1,None,
1,0,1,0,5,0,5,0,,,,,,,,2.7011674873608,time,3908.0,1.8029287455086398,0.00010131630792771739,0,45,[],0.016727009788155556,None,['space'],98.27870549983345,98.27870549983345,0.22171880980022252,2.9228862971610226,98.50234289979562,98.27870549983345,[-2.5960619999095798],,,,wxbjqe,002,fr,0,2022-05-16_17h53.52.996,Continuous,2022.1.1,None,
1,0,1,0,6,0,6,0,,,,,,,,2.7011674873608,time,2764.0,1.4038868271291791,8.167977685080454e-05,0,46,[],0.023511609993875027,None,['space'],101.22447539982386,101.22447539982386,0.22070260997861624,2.9218700973394163,101.43790809996426,101.22447539982386,[-2.542382099898532],,,,wxbjqe,002,fr,0,2022-05-16_17h53.52.996,Continuous,2022.1.1,None,
1,0,1,0,7,0,7,0,,,,,,,,2.7011674873608,time,,,,1,46,[],0.023378410143777728,None,['space'],104.17259109998122,104.17259109998122,0.2312551101204008,2.932422597481201,104.37796929990873,104.17259109998122,[-2.673750299960375],,,,wxbjqe,002,fr,0,2022-05-16_17h53.52.996,Continuous,2022.1.1,None,
1,0,1,0,8,0,8,0,,,,,,,,2.7011674873608,time,1741.0,1.3898571361235565,7.406961546204823e-05,0,47,[],0.025728509994223714,None,['space'],107.10333379986696,107.10333379986696,0.2264587099198252,2.9276261972806252,107.31925239996053,107.10333379986696,[-2.020772999851033],,,,wxbjqe,002,fr,0,2022-05-16_17h53.52.996,Continuous,2022.1.1,None,
1,0,1,0,9,0,9,0,,,,,,,,2.7011674873608,time,1551.0,2.9765565504731955,7.41147364473067e-05,0,48,[],0.02425870974548161,None,['space'],110.04882779996842,110.04882779996842,0.22557880962267518,2.926746296983475,110.25672419997863,110.04882779996842,[-2.5501589998602867],,,,wxbjqe,002,fr,0,2022-05-16_17h53.52.996,Continuous,2022.1.1,None,
1,0,1,0,10,0,10,0,,,,,,,,2.7011674873608,time,1035.0,1.360489876207903,5.3234396165042644e-05,0,49,[],0.023429909721016884,None,['space'],112.98720919992775,112.98720919992775,0.22026100987568498,2.921428497236485,113.1955783998128,112.98720919992775,[-2.5193800998385996],,,,wxbjqe,002,fr,0,2022-05-16_17h53.52.996,Continuous,2022.1.1,None,
1,0,1,0,11,0,11,0,,,,,,,,2.7011674873608,time,366.0,1.5707675599944588,0.00010230574321349966,0,50,[],0.022357309935614467,None,['space'],115.92399769998156,115.92399769998156,0.21776680974289775,2.918934297103698,116.1339228998404,115.92399769998156,[-2.3612296998035163],,,,wxbjqe,002,fr,0,2022-05-16_17h53.52.996,Continuous,2022.1.1,None,
1,0,1,0,12,0,12,0,,,,,,,,2.7011674873608,time,2193.0,2.794623507129599,0.00010910712599978137,0,51,[],0.016479810001328588,0.2095431098714471,['space'],118.86744189984165,118.86744189984165,0.2095431098714471,2.910710597232247,119.08131899987347,118.86744189984165,[-2.5212689999025315],,,,wxbjqe,002,fr,0,2022-05-16_17h53.52.996,Continuous,2022.1.1,None,
2,0,2,0,0,0,0,0,,,,,,124.18918519979343,None,2.2225254060244195,frequency,158.0,2.142983692422344,0.0005489496671026132,0,28,[],0.02627720986492932,None,None,125.20650899992324,None,0.23220521002076566,2.454730616045185,125.42792419996113,None,,121.80482419999316,None,0.5833333333333334,wxbjqe,002,fr,0,2022-05-16_17h53.52.996,Continuous,2022.1.1,None,
2,0,2,0,1,0,1,0,,,,,,,,1.6396109531090735,frequency,236.0,2.1730749196534562,0.0002503173445311388,0,29,[],0.023547909688204527,0.2219293098896742,['space'],127.66900949995033,127.66900949995033,0.2219293098896742,1.8615402629987476,127.87594969989732,127.66900949995033,[-1.4909252999350429],,,,wxbjqe,002,fr,0,2022-05-16_17h53.52.996,Continuous,2022.1.1,None,
2,0,2,0,2,0,2,0,,,,,,,,1.7340087484716844,frequency,354.0,2.0,0.00011141034968120162,0,30,[],0.02410411019809544,None,['space'],129.54373449995182,129.54373449995182,0.23035291023552418,1.9643616587072086,129.7669214999769,129.54373449995182,[-1.5011805999092758],,,,wxbjqe,002,fr,0,2022-05-16_17h53.52.996,Continuous,2022.1.1,None,
2,0,2,0,3,0,3,0,,,,,,,,2.2243411096235572,frequency,530.0,2.135702667804788,8.537524230336388e-05,0,31,[],0.024350609863176942,None,['space'],131.51769959996454,131.51769959996454,0.2249208097346127,2.44926191935817,131.7356473999098,131.51769959996454,[-1.5552077998872846],,,,wxbjqe,002,fr,0,2022-05-16_17h53.52.996,Continuous,2022.1.1,None,
2,0,2,0,4,0,4,0,,,,,,,,1.0993816815947066,frequency,794.0,3.469947742569493,5.761618420390442e-05,0,32,[],0.021650810027495027,0.2181400100234896,['space'],133.9765828999225,133.9765828999225,0.2181400100234896,1.3175216916181962,134.1831160997972,133.9765828999225,[-2.142356799915433],,,,wxbjqe,002,fr,0,2022-05-16_17h53.52.996,Continuous,2022.1.1,None,
2,0,2,0,5,0,5,0,,,,,,,,1.5161372535782436,frequency,,,,1,32,[],0.023484609555453062,None,['space'],135.310889699962,135.310889699962,0.22240320965647697,1.7385404632347206,135.52288879989646,135.310889699962,[-0.8449744998943061],,,,wxbjqe,002,fr,0,2022-05-16_17h53.52.996,Continuous,2022.1.1,None,
2,0,2,0,6,0,6,0,,,,,,,,2.9220180212801927,frequency,1783.0,3.3963588278890775,9.612179724726691e-05,0,33,[],0.019560110056772828,0.213954710168764,None,137.06582649983466,137.06582649983466,0.213954710168764,3.1359727314489567,137.28400359977968,137.06582649983466,,,,,wxbjqe,002,fr,0,2022-05-16_17h53.52.996,Continuous,2022.1.1,None,
2,0,2,0,7,0,7,0,,,,,,,,2.11455094045617,frequency,2671.0,2.0,9.475801035532833e-05,0,34,[],0.024205209920182824,None,['space'],140.22640819987282,140.22640819987282,0.22533741011284292,2.339888350569013,140.4472699998878,140.22640819987282,[-2.6555581998545676],,,,wxbjqe,002,fr,0,2022-05-16_17h53.52.996,Continuous,2022.1.1,None,
2,0,2,0,8,0,8,0,,,,,,,,2.064226026678429,frequency,4002.0,2.041813089198934,0.00010635846453809317,0,35,[],0.023830309975892305,None,['space'],142.57883729995228,142.57883729995228,0.22814940987154841,2.2923754365499773,142.78550509992056,142.57883729995228,[-1.7929795999079943],,,,wxbjqe,002,fr,0,2022-05-16_17h53.52.996,Continuous,2022.1.1,None,
3,0,3,0,0,0,0,0,,,,,,147.02120399987325,None,2.908077966714517,both,236.0,2.0806101086061948,0.00024766674844143037,0,28,[],0.026358109898865223,None,None,148.03029269981198,None,0.2307547100353986,3.1388326767499155,148.25505399983376,None,,144.87535170000046,None,0.5833333333333334,wxbjqe,002,fr,0,2022-05-16_17h53.52.996,Continuous,2022.1.1,None,
3,0,3,0,1,0,1,0,,,,,,,,2.908077966714517,both,354.0,2.0,0.00011141034968120162,0,29,[],0.017084609949961305,0.2098431100603193,None,151.18378329998814,151.18378329998814,0.2098431100603193,3.117921076774836,151.3998883999884,151.18378329998814,,,,,wxbjqe,002,fr,0,2022-05-16_17h53.52.996,Continuous,2022.1.1,None,
3,0,3,0,2,0,2,0,,,,,,,,2.908077966714517,both,530.0,2.017572017938237,8.42219741053616e-05,0,30,[],0.022564809769392014,None,['space'],154.33083909982815,154.33083909982815,0.2203580099157989,3.128435976630316,154.54195839981548,154.33083909982815,[-2.616565599804744],,,,wxbjqe,002,fr,0,2022-05-16_17h53.52.996,Continuous,2022.1.1,None,
3,0,3,0,3,0,3,0,,,,,,,,2.908077966714517,both,794.0,2.9410661635487285,5.4212622132533704e-05,0,31,[],0.02335180970840156,None,['space'],157.4830114999786,157.4830114999786,0.22544760978780687,3.1335255765023238,157.6969470998738,157.4830114999786,[-2.72064709989354],,,,wxbjqe,002,fr,0,2022-05-16_17h53.52.996,Continuous,2022.1.1,None,
3,0,3,0,4,0,4,0,,,,,,,,2.908077966714517,both,1190.0,2.1128099772058753,6.631938317431204e-05,0,32,[],0.023264209739863873,None,['space'],160.6316439998336,160.6316439998336,0.22893900983035564,3.1370169765448725,160.8423631999176,160.6316439998336,[-2.6857775999233127],,,,wxbjqe,002,fr,0,2022-05-16_17h53.52.996,Continuous,2022.1.1,None,
3,0,3,0,5,0,5,0,,,,,,,,2.908077966714517,both,1783.0,2.255766718807258,8.429314873362588e-05,0,33,[],0.02352310996502638,None,['space'],163.78066269983537,163.78066269983537,0.22688960982486606,3.134967576539383,164.00258430000395,163.78066269983537,[-2.7622624998912215],,,,wxbjqe,002,fr,0,2022-05-16_17h53.52.996,Continuous,2022.1.1,None,
3,0,3,0,6,0,6,0,,,,,,,,2.908077966714517,both,2671.0,2.0,9.475801035532833e-05,0,34,[],0.021318509941920638,0.21585860988125205,['space'],166.92744669993408,166.92744669993408,0.21585860988125205,3.123936576595769,167.13629379984923,166.92744669993408,[-2.733548399992287],,,,wxbjqe,002,fr,0,2022-05-16_17h53.52.996,Continuous,2022.1.1,None,
3,0,3,0,7,0,7,0,,,,,,,,2.908077966714517,both,,,,1,34,[],0.016137710073962808,0.21269231010228395,['space'],170.07256319979206,170.07256319979206,0.21269231010228395,3.120770276816801,170.28157839993946,170.07256319979206,[-2.7580910997930914],,,,wxbjqe,002,fr,0,2022-05-16_17h53.52.996,Continuous,2022.1.1,None,
4,0,4,0,0,0,0,0,,,,,,175.8554050999228,None,2.2260278507098374,frequency,177.0,-0.05262070957660647,0.000347098537360431,0,36,[],0.026421010261401534,None,None,176.87401049979962,None,0.22496121027506888,2.4509890609849063,177.08505759993568,None,,173.22015049983747,None,0.3333333333333333,wxbjqe,002,fr,0,2022-05-16_17h53.52.996,Continuous,2022.1.1,None,
4,0,4,0,1,0,1,0,,,,,,,,2.1218323381113704,frequency,223.0,-3.0206571248580896,0.00015564708783229506,0,37,[],0.023005010094493628,None,None,179.33837899984792,179.33837899984792,0.22696800995618105,2.3488003480675514,179.55259349988773,179.33837899984792,,,,,wxbjqe,002,fr,0,2022-05-16_17h53.52.996,Continuous,2022.1.1,None,
4,0,4,0,2,0,2,0,,,,,,,,1.264729615397249,frequency,,,,1,37,[],0.023415309842675924,None,['space'],181.7035722997971,181.7035722997971,0.22575950995087624,1.4904891253481252,181.92335589998402,181.7035722997971,[-1.9239226998761296],,,,wxbjqe,002,fr,0,2022-05-16_17h53.52.996,Continuous,2022.1.1,None,
4,0,4,0,3,0,3,0,,,,,,,,2.553633191122599,frequency,354.0,-4.0,5.583744495416851e-05,0,38,[],0.02039330988191068,0.21686500986106694,None,183.21500169998035,183.21500169998035,0.21686500986106694,2.770498200983666,183.42666619992815,183.21500169998035,,,,,wxbjqe,002,fr,0,2022-05-16_17h53.52.996,Continuous,2022.1.1,None,
4,0,4,0,4,0,4,0,,,,,,,,1.6970717315290567,frequency,446.0,-0.5010648817628727,7.004443220292324e-05,0,39,[],0.016514210030436516,None,None,186.00395079981536,186.00395079981536,0.21651921002194285,1.9135909415509995,186.22699199989438,186.00395079981536,,,,,wxbjqe,002,fr,0,2022-05-16_17h53.52.996,Continuous,2022.1.1,None,
4,0,4,0,5,0,5,0,,,,,,,,2.0766087579513672,frequency,562.0,-3.7391035752562503,4.0164394935383425e-05,0,40,[],0.022950210142880678,None,None,187.94793109991588,187.94793109991588,0.22394220996648073,2.300550967917848,188.15849589998834,187.94793109991588,,,,,wxbjqe,002,fr,0,2022-05-16_17h53.52.996,Continuous,2022.1.1,None,
4,0,4,0,6,0,6,0,,,,,,,,1.1460656035010435,frequency,708.0,1.8658121682788216,5.4945941701530655e-05,0,41,[],0.022291110130026937,None,None,190.26847929996438,190.26847929996438,0.2223781100474298,1.3684437135484733,190.47944609983824,190.26847929996438,,,,,wxbjqe,002,fr,0,2022-05-16_17h53.52.996,Continuous,2022.1.1,None,
4,0,4,0,7,0,7,0,,,,,,,,2.8492995152735427,frequency,892.0,-3.431073317970616,2.760888412472035e-05,0,42,[],0.019408709835261106,None,['space'],191.65461759991013,191.65461759991013,0.2174181097652763,3.066717625038819,191.87644669995643,191.65461759991013,[-0.14868689980357885],,,,wxbjqe,002,fr,0,2022-05-16_17h53.52.996,Continuous,2022.1.1,None,
4,0,4,0,8,0,8,0,,,,,,,,1.0500002627218001,frequency,1124.0,-3.750090994809738,3.197457173733338e-05,0,43,[],0.023295709863305092,None,['space'],194.75373199977912,194.75373199977912,0.22493930999189615,1.2749395727136963,194.96432719985023,194.75373199977912,[-1.3598027999978513],,,,wxbjqe,002,fr,0,2022-05-16_17h53.52.996,Continuous,2022.1.1,None,
4,0,4,0,9,0,9,0,,,,,,,,2.0041924286556556,frequency,1416.0,2.339233165410342,6.59612202331676e-05,0,44,[],0.022908009821549058,None,None,196.03919479995966,196.03919479995966,0.22421060991473496,2.2284030385703906,196.2522073998116,196.03919479995966,,,,,wxbjqe,002,fr,0,2022-05-16_17h53.52.996,Continuous,2022.1.1,None,
,,,,,,,,,,,,"[0.5833333333333334, 0.5833333333333334, 0.3333333333333333, 0.16666666666666666, 0.3333333333333333, 0.3333333333333333, 0.5833333333333334, 0.3333333333333333, 0.5833333333333334, 0.5833333333333334, 0.5833333333333334, 0.16666666666666666, 0.3333333333333333, 0.16666666666666666, 0.5833333333333334]",,,,,,,,,,,,,,,,,,,,,198.28471129992977,None,,,,,,,,,,
