sweeps.thisRepN,sweeps.thisTrialN,sweeps.thisN,sweeps.thisIndex,trials.thisRepN,trials.thisTrialN,trials.thisN,trials.thisIndex,instructions.started,instructions.stopped,blank_text.started,blank_text.stopped,Intervals,text.started,text.stopped,Delay,Prediction,Frequency,Volume,Psychopy_level,isCatchTrial,Audiogram_none,len(y),finished_audiograms,probe.started,probe.stopped,feedback.keys,feedback.started,feedback.stopped,ISI.started,ISI.stopped,text_2.started,text_2.stopped,feedback.rt,break_txt.started,break_txt.stopped,,Audiogram_frequency,Audiogram_time,Audiogram_both,end_txt.started,end_txt.stopped,participant,session,language (english or french),Resume previous experiment,date,expName,psychopyVersion,frameRate,
0,0,0,0,0,0,0,0,26.918850800022483,None,28.8839554998558,None,"[0.5833333333333334, 0.3333333333333333, 0.3333333333333333, 0.16666666666666666, 0.16666666666666666, 0.16666666666666666, 0.3333333333333333, 0.3333333333333333, 0.16666666666666666, 0.3333333333333333, 0.16666666666666666, 0.16666666666666666, 0.5833333333333334, 0.16666666666666666, 0.5833333333333334]",38.62992009986192,None,1.3507771751668836,none,2000.0,1.7718700991202017,9.174100835482363e-05,0,"{'estimation': [[125.0, -0.4676867941293189], [126.67917324559164, 0.0], [130.38903787594347, 1.0], [133.9716828170366, 1.9081523140171395], [134.32599802925535, 2.0], [138.1919608973357, 3.0], [142.12112139092733, 4.0], [143.5872943746293, 4.364185321278242], [146.51077187924056, 5.0], [151.1432953900042, 6.0], [153.89305166811442, 6.581056197223626], [156.590050523559, 7.0], [163.19108704097002, 8.0], [164.93848884661162, 8.25717862036283], [174.41655595113542, 9.0], [176.77669529663666, 9.17657196450585], [189.46457081379947, 9.271874362061858], [195.2570721327169, 9.0], [203.0630990890585, 8.652477055190941], [211.8831472188904, 8.0], [217.6376408240306, 7.5928877917302025], [225.72549178019094, 7.0], [233.25824788420132, 6.468854811371102], [242.83984421023266, 6.0], [249.99999999999937, 5.661768174069063], [267.94336563407256, 5.454622949007334], [287.1745887492579, 5.948393864792029], [288.1300147023649, 6.0], [307.0949426944486, 7.0], [307.78610333622805, 7.035580424247362], [322.90729826283587, 8.0], [329.87697769322244, 8.433531235614634], [339.72025128604645, 9.0], [353.55339059327247, 9.773707536542535], [359.486722218827, 10.0], [378.929141627598, 10.714058292274181], [402.89762597356537, 11.0], [406.12619817811606, 11.036917702998938], [409.2257824133754, 11.0], [435.2752816480601, 10.704997920330284], [461.08778210744117, 10.0], [466.5164957684015, 9.85770541936413], [492.3407148450724, 9.0], [499.99999999999693, 8.753472120360799], [525.0217673927345, 8.0], [535.8867312681438, 7.680468966844105], [567.910306779982, 7.0], [574.3491774985143, 6.866238382322675], [615.5722066724546, 6.413326134912053], [659.7539553864432, 6.278827003145237], [707.1067811865431, 6.30463363682134], [757.8582832551941, 6.285067963412871], [812.2523963562301, 6.04852590333474], [817.463667031047, 6.0], [870.5505632961181, 5.525463723103888], [913.8823357868091, 5.0], [933.0329915368008, 4.775302236821103], [996.7912459259397, 4.0], [999.9999999999926, 3.9619565178275407], [1071.773462536285, 3.2837984536667455], [1126.5910191190694, 3.0], [1148.698354997026, 2.887521426355753], [1231.1444133449063, 2.8013845498656833], [1319.5079107728832, 2.910852785017051], [1414.2135623730828, 2.9950426569222555], [1515.7165665103846, 2.806203077322535], [1624.5047927124563, 2.1670050894503308], [1641.5332553111455, 2.0], [1741.1011265922318, 1.0364900878136551], [1744.1184453808073, 1.0], [1827.1887456282595, 0.0], [1866.065983073597, -0.4611194148164066], [1910.5755967666187, -1.0], [1994.7286314276082, -2.0], [1999.9999999999827, -2.061623108434939], [2097.1310875384715, -3.0], [2143.5469250725646, -3.4330022726646128], [2249.274704568974, -4.0], [2297.396709994049, -4.246834055337137], [2462.2888266898062, -4.254822740439233], [2509.224943500666, -4.0], [2639.01582154576, -3.3351413530419087], [2672.7091221951796, -2.9999999999999996], [2776.2758003048366, -2.0], [2828.427124746159, -1.5174556363472023], [2869.1275033173324, -1.0], [2948.43206282818, 0.0], [3030.3078887379343, 1.0], [3031.4331330207615, 1.0134511926016558], [3104.074414084992, 2.0], [3177.9376177709028, 3.0], [3249.0095854249043, 3.9368281664521], [3254.071457718781, 4.0], [3333.7027262275533, 5.0], [3413.721116440362, 6.0], [3482.2022531844555, 6.834355666767624], [3499.0763624242863, 7.0], [3601.0600145990315, 8.0], [3705.1989221230597, 9.0], [3732.1319661471844, 9.253241325457841], [3860.329581920326, 10.0], [3999.9999999999504, 10.787799888771856], [4155.889973496278, 11.0], [4287.093850145118, 11.172718531730222], [4349.033523069838, 11.0], [4594.793419988081, 10.346295988090757], [4653.821024855725, 10.0], [4829.182058457311, 9.0], [4924.577653379601, 8.478387939550174], [4989.186629481603, 8.0], [5126.229176360684, 7.0], [5268.640332054569, 6.0], [5278.031643091506, 5.935981043081599], [5404.99848079677, 5.0], [5542.571957960542, 4.0], [5656.854249492303, 3.197590936369286], [5688.93050096176, 3.0], [5851.641471745693, 2.0], [6017.399651674803, 1.0], [6062.866266041508, 0.7322051478858275], [6234.627907087686, 0.0], [6473.189719626347, -1.0], [6498.019170849792, -1.1021862911149154], [6903.306509378261, -2.0], [6964.404506368902, -2.131921550729854], [7464.2639322943505, -2.3773613344591755], [7999.999999999882, -2.0129240558697528]], 'plus_line': [[125.0, -9.25769125345021], [125.83879966125951, -9.0], [129.11206637034203, -8.0], [132.37514663160044, -7.0], [133.9716828170366, -6.52719464203013], [136.09488322689006, -6.0], [140.04617750878126, -5.0], [143.5872943746292, -4.090964123134624], [144.02938929397052, -4.0], [148.90247738002375, -3.0], [153.64957760590173, -2.0], [153.89305166811442, -1.949842211559283], [160.04852026835195, -1.0], [164.93848884661162, -0.24950524388238002], [167.6303642202876, 0.0], [176.77669529663666, 0.8058119388724962], [185.89288703432558, 1.0], [189.46457081379947, 1.0691514927769679], [191.2948715261667, 1.0], [203.0630990890585, 0.5645981748867862], [211.04864269108973, 0.0], [217.6376408240306, -0.44914207067069445], [225.0894414221515, -1.0], [233.25824788420132, -1.5826118027454532], [241.52109195350144, -2.0], [249.99999999999937, -2.421446249327391], [267.94336563407256, -2.664760817146703], [287.1745887492579, -2.2156854114717413], [291.39602407720815, -2.0], [307.78610333622805, -1.1861612444100103], [310.7905791654846, -1.0], [327.18336397776676, 0.0], [329.87697769322244, 0.16089810936062965], [344.7521407353296, 1.0], [353.55339059327247, 1.4867405315388131], [366.37814366404484, 2.0], [378.929141627598, 2.480081507456285], [406.12619817811606, 2.9108257131999014], [435.2752816480601, 2.676697610494077], [461.39804478202456, 2.0], [466.5164957684015, 1.8706167146407493], [491.37815236883364, 1.0], [499.9999999999975, 0.7082279597915604], [521.0344656034207, 0.0], [535.8867312681438, -0.48641950296656133], [557.0010127713053, -1.0], [574.3491774985143, -1.4164358536365103], [615.5722066724546, -1.9099989958247525], [659.7539553864432, -1.995420926639164], [707.1067811865431, -1.8619420959131385], [757.8582832551941, -1.7615883184361014], [812.2523963562301, -1.9029742933638485], [823.9022865402684, -2.0], [870.5505632961181, -2.3840048623791166], [921.4848330043576, -3.0], [933.0329915368019, -3.137180689484375], [998.5014138866402, -4.0], [999.9999999999926, -4.0194224598265365], [1071.773462536285, -4.834537347006805], [1095.0816707783308, -5.0], [1148.698354997026, -5.385373601013275], [1231.1444133449063, -5.573838842854753], [1319.5079107728832, -5.480482311978396], [1414.2135623730828, -5.358736320776323], [1515.7165665103846, -5.545308091386479], [1582.1599418102696, -6.0], [1624.5047927124563, -6.288814398036215], [1685.7891250926086, -7.0], [1741.1011265922318, -7.623422640773445], [1767.825369721162, -8.0], [1840.4568693748356, -9.0], [1866.065983073597, -9.341350001140583], [1914.9699055569859, -10.0], [1993.2597251805673, -11.0], [1999.9999999999802, -11.08418191240167], [2092.710195726155, -12.0], [2143.5469250725646, -12.474054896266072], [2260.844550993534, -12.999999999999998], [2297.3967099940432, -13.158633918619872], [2411.1197006234006, -13.0], [2462.2888266898062, -12.936030598964887], [2602.164156368394, -12.0], [2639.01582154576, -11.76816118633036], [2711.239532928601, -11.0], [2805.9401420675267, -10.0], [2828.427124746159, -9.770911170359577], [2890.132591080437, -9.0], [2968.268064808121, -8.0], [3031.4331330207615, -7.19294874419542], [3046.679049842369, -7.0], [3124.678388779659, -6.0], [3199.6033839127053, -5.0], [3249.0095854249043, -4.342870666541902], [3278.829820083687, -4.0], [3363.8818749013612, -3.0], [3445.927783092666, -2.0], [3482.2022531844555, -1.5626157587102538], [3543.7326194009042, -1.0], [3650.7155880246282, 0.0], [3732.1319661471844, 0.7669656691793558], [3773.127580146535, 1.0], [3951.0324142014733, 2.0], [3999.9999999999504, 2.270239417172163], [4287.093850145118, 2.6775345437615425], [4561.594136241077, 2.0], [4594.793419988081, 1.9201017219246892], [4758.348155878086, 1.0], [4924.577653379601, 0.13814530835606742], [4943.1359904288765, 0.0], [5078.565645015587, -1.0], [5225.273511726094, -2.0], [5278.031643091506, -2.3407971586021277], [5363.5764006947875, -3.0], [5497.793042028157, -4.0], [5644.232976939246, -5.0], [5656.854249492303, -5.083457492559024], [5794.66507303221, -6.0], [5953.213428009334, -7.0], [6062.866266041516, -7.6484010905603865], [6138.240927738559, -8.0], [6357.526427296747, -9.0], [6498.019170849792, -9.605631797326161], [6661.939369971339, -10.0], [6964.404506368894, -10.704406774535425], [7464.2639322943505, -10.999260932756902], [7999.999999999882, -10.922285763503906]], 'minus_line': [[125.0, 8.095289607926851], [128.61597348040897, 9.0], [133.04505912592435, 10.0], [133.9716828170366, 10.197731190802273], [136.81746926636922, 11.0], [140.51047866235731, 12.0], [143.5872943746293, 12.77858665926563], [144.50575070517934, 13.0], [148.66042054327772, 14.0], [153.08777426533544, 15.0], [153.89305166811442, 15.177094755187012], [158.96015510475104, 16.0], [164.93848884661162, 16.910814276832525], [166.15618039475757, 17.0], [176.77669529663666, 17.752736870103373], [189.46457081379947, 17.692231596899703], [201.41597217410984, 17.0], [203.0630990890585, 16.910857717737017], [214.23334193827856, 16.0], [217.6376408240306, 15.734326593746179], [227.03913520059504, 15.0], [233.25824788420132, 14.532425261480993], [243.46866841588758, 14.0], [249.99999999999937, 13.677237297512711], [267.94336563407256, 13.46097111958068], [287.1745887492579, 13.990575963896541], [287.33460626346147, 14.000000000000002], [304.5842823375545, 15.0], [307.78610333622805, 15.179837711443364], [319.44771809143907, 16.0], [329.87697769322244, 16.700178204404352], [334.718209661409, 17.0], [351.39430573048895, 18.0], [353.55339059327247, 18.126101107946504], [376.8835830302594, 19.0], [378.929141627598, 19.074650717851288], [406.12619817811606, 19.330410444958922], [427.4051715529069, 19.0], [435.2752816480601, 18.88724416863571], [465.15317167686476, 18.000000000000004], [466.5164957684015, 17.961497772814756], [495.50305171050536, 17.0], [499.9999999999975, 16.855639674487836], [530.0818993660554, 16.0], [535.8867312681438, 15.839804968353471], [574.3491774985143, 15.087889088327456], [582.2429065110842, 15.0], [615.5722066724546, 14.653522029004746], [659.7539553864432, 14.467546010640389], [707.1067811865431, 14.398884008473953], [757.8582832551941, 14.285484163858884], [808.5274347371413, 13.999999999999998], [812.2523963562301, 13.980639158544662], [870.5505632961181, 13.43797974662197], [906.7257073769445, 13.0], [933.0329915368008, 12.696610211971581], [994.0477603168509, 12.0], [999.9999999999926, 11.934794573587562], [1071.773462536285, 11.362582763656647], [1148.698354997026, 11.068510651588706], [1231.1444133449063, 11.031891031691618], [1319.5079107728832, 11.103326416651223], [1414.2135623730828, 11.093084800944581], [1450.6346946170786, 11.0], [1515.7165665103846, 10.84771046814464], [1624.5047927124563, 10.262944998044809], [1655.6198192109368, 10.0], [1741.1011265922318, 9.291598703557337], [1768.981705202408, 9.0], [1864.2203065811486, 8.0], [1866.0659830735992, 7.980836444237137], [1956.3786917394066, 6.999999999999999], [1999.9999999999802, 6.524553047295738], [2055.931262979169, 6.0], [2143.5469250725646, 5.187329448860536], [2175.0054806924977, 5.0], [2297.396709994046, 4.304177531797007], [2462.2888266898062, 4.1552163589665545], [2639.01582154576, 4.94009214358436], [2645.1028985504895, 5.0], [2748.219939475568, 6.0], [2828.427124746159, 6.722724963151689], [2848.8235106626666, 7.0], [2922.732100859961, 8.0], [3001.7893243483063, 9.0], [3031.4331330207615, 9.358807851486063], [3073.6636883001747, 10.0], [3140.4754629194226, 11.0], [3211.5815005455056, 12.0], [3249.0095854249043, 12.499939501807658], [3284.4184684844276, 13.0], [3355.7025469449004, 14.0], [3431.1673348062072, 15.0], [3482.2022531844596, 15.638135004216874], [3515.485640704442, 16.0], [3608.504645074199, 17.0], [3708.0898575712167, 18.0], [3732.1319661471844, 18.233905462204653], [3855.9002397174895, 19.0], [3999.9999999999504, 19.840482972895188], [4129.925512423642, 20.0], [4287.093850145118, 20.19271685691809], [4347.046745832946, 20.0], [4594.793419988081, 19.24568557684107], [4633.839707560354, 19.0], [4794.901378050541, 18.0], [4924.577653379601, 17.202451925536206], [4951.213062583325, 17.0], [5082.831333290426, 16.0], [5211.82491065956, 15.0], [5278.031643091506, 14.496779734133629], [5346.30745736105, 14.0], [5481.078527734771, 13.0], [5612.9780131450025, 12.0], [5656.854249492303, 11.674806020034357], [5772.073798287161, 11.0], [5938.266391190182, 10.0], [6062.866266041508, 9.243966268944291], [6124.283280283515, 9.0], [6375.54368640299, 8.0], [6498.019170849792, 7.511253386802281], [6747.439624847351, 7.0], [6964.404506368894, 6.567125564110761], [7464.2639322943505, 6.420638259087153], [7906.87877532619, 7.0], [7999.999999999882, 7.124772427030911]]}",132,['none'],0.011753366561606526,None,None,39.676442799856886,None,0.22131946659646928,1.5720966417633528,39.89383259997703,None,,,,,,,,,,wxbjqe,002,fr,1,2022-05-16_17h57.54.371,Continuous,2022.1.1,None,
0,0,0,0,1,0,1,0,,,,,,,,1.7715198550859066,none,3175.0,-0.987456495666822,6.199402878378589e-05,0,,133,['none'],0.010391333373263478,None,['space'],41.28383810003288,41.28383810003288,0.21306093339808285,1.9845807884839894,41.50686439988203,41.28383810003288,[-0.8177923001348972],,,,,,,,,wxbjqe,002,fr,1,2022-05-16_17h57.54.371,Continuous,2022.1.1,None,
0,0,0,0,2,0,2,0,,,,,,,,2.8625617591755077,none,3564.0,-0.5078575279520454,7.195408434037039e-05,0,,134,['none'],0.015233933227136731,None,['space'],43.31334949983284,43.31334949983284,0.21810823329724371,3.0806699924727514,43.53202229994349,43.31334949983284,[-1.2714621000923216],,,,,,,,,wxbjqe,002,fr,1,2022-05-16_17h57.54.371,Continuous,2022.1.1,None,
0,0,0,0,3,0,3,0,,,,,,,,2.2449177780040808,none,4000.0,0.14524542524177364,8.53556503280654e-05,0,,135,['none'],0.0075189664494246244,None,None,46.42733209999278,46.42733209999278,0.22436136635951698,2.4692791443635977,46.652754300041124,46.42733209999278,,,,,,,,,,wxbjqe,002,fr,1,2022-05-16_17h57.54.371,Continuous,2022.1.1,None,
0,0,0,0,4,0,4,0,,,,,,,,1.6011833243628122,none,7127.0,2.749205469845352,0.00021281672439928579,0,,136,['none'],0.010694766649976373,None,['space'],48.91966509982012,48.91966509982012,0.22005296661518514,1.8212362909779973,49.13879100000486,48.91966509982012,[-1.9659835000056773],,,,,,,,,wxbjqe,002,fr,1,2022-05-16_17h57.54.371,Continuous,2022.1.1,None,
0,0,0,0,5,0,5,0,,,,,,,,2.9275721777354704,none,2520.0,0.902210222097354,9.391838200947291e-05,0,,137,['none'],0.010076666483655572,None,None,50.761662899982184,50.761662899982184,0.22002156637609005,3.1475937441115605,50.97900729998946,50.761662899982184,,,,,,,,,,wxbjqe,002,fr,1,2022-05-16_17h57.54.371,Continuous,2022.1.1,None,
0,0,0,0,6,0,6,0,,,,,,,,1.061847382345059,none,4490.0,3.377852616998415,0.0001735814358281643,0,,138,['none'],0.010829566745087504,None,['space'],53.930433499859646,53.930433499859646,0.21762556675821543,1.2794729491032744,54.15070559992455,53.930433499859646,[-2.7130578998476267],,,,,,,,,wxbjqe,002,fr,1,2022-05-16_17h57.54.371,Continuous,2022.1.1,None,
0,0,0,0,7,0,7,0,,,,,,,,2.5429452488653363,none,,,,1,,138,['none'],0.011069066356867552,None,['space'],55.23109819996171,55.23109819996171,0.22229446657001972,2.765239715435356,55.44874279992655,55.23109819996171,[-0.87747299997136],,,,,,,,,wxbjqe,002,fr,1,2022-05-16_17h57.54.371,Continuous,2022.1.1,None,
0,0,0,0,8,0,8,0,,,,,,,,1.78708961505875,none,8000.0,-1.0,0.00016179682846481421,0,,139,['none'],0.012237666640430689,None,None,58.011903799837455,58.011903799837455,0.2268945665564388,2.013984181615189,58.23003039998002,58.011903799837455,,,,,,,,,,wxbjqe,002,fr,1,2022-05-16_17h57.54.371,Continuous,2022.1.1,None,
1,0,1,0,0,0,0,0,,,,,,62.46379299997352,None,2.9700970382198193,both,126.0,4.530398432744544,0.0012025602671853098,0,,35,['none'],0.01296056667342782,None,None,63.486923399847,None,0.2327612666413188,3.202858304861138,63.70803189999424,None,,60.03931219992228,None,0.16666666666666666,,,,,,wxbjqe,002,fr,1,2022-05-16_17h57.54.371,Continuous,2022.1.1,None,
1,0,1,0,1,0,1,0,,,,,,,,2.9700970382198193,both,141.0,4.425520358112754,0.0009658501471550715,0,,36,['none'],0.010270566446706653,None,None,66.70533509994857,66.70533509994857,0.2291168663650751,3.1992139045848944,66.92201850004494,66.70533509994857,,,,,,,,,,wxbjqe,002,fr,1,2022-05-16_17h57.54.371,Continuous,2022.1.1,None,
1,0,1,0,2,0,2,0,,,,,,,,2.9700970382198193,both,158.0,4.676444179518792,0.0007348615938684467,0,,37,['none'],0.002300566527992487,None,['space'],69.92245099996217,69.92245099996217,0.2047642667312175,3.174861304951037,70.13894589990377,69.92245099996217,[-2.583430099999532],,,,,,,,,wxbjqe,002,fr,1,2022-05-16_17h57.54.371,Continuous,2022.1.1,None,
1,0,1,0,3,0,3,0,,,,,,,,2.9700970382198193,both,177.0,5.0,0.000620988873867065,0,,38,['none'],0.0024761667009443045,None,['space'],73.14396369992755,73.14396369992755,0.2186934668570757,3.188790505076895,73.36974999983795,73.14396369992755,[-2.7261328999884427],,,,,,,,,wxbjqe,002,fr,1,2022-05-16_17h57.54.371,Continuous,2022.1.1,None,
1,0,1,0,4,0,4,0,,,,,,,,2.9700970382198193,both,199.0,3.614565903662358,0.00040795897545120927,0,,39,['none'],0.0015411667991429567,None,['space'],76.36310769990087,76.36310769990087,0.20354756666347384,3.173644604883293,76.58119029994123,76.36310769990087,[-2.905598900048062],,,,,,,,,wxbjqe,002,fr,1,2022-05-16_17h57.54.371,Continuous,2022.1.1,None,
1,0,1,0,5,0,5,0,,,,,,,,2.9700970382198193,both,223.0,3.36700021509728,0.00032473108709451533,0,,40,['none'],0.004922566469758749,None,['space'],79.57830199995078,79.57830199995078,0.2128349666018039,3.182932004821623,79.8079327000305,79.57830199995078,[-2.9524834000039846],,,,,,,,,wxbjqe,002,fr,1,2022-05-16_17h57.54.371,Continuous,2022.1.1,None,
1,0,1,0,6,0,6,0,,,,,,,,2.9700970382198193,both,250.0,1.9026076986339537,0.00020849727789299316,0,,41,['none'],0.00665906653739512,None,['space'],82.79692059988156,82.79692059988156,0.21227996656671166,3.182377004786531,83.01674519991502,82.79692059988156,[-2.93161499989219],,,,,,,,,wxbjqe,002,fr,1,2022-05-16_17h57.54.371,Continuous,2022.1.1,None,
1,0,1,0,7,0,7,0,,,,,,,,2.9700970382198193,both,281.0,4.449283092073852,0.0002247199437440683,0,,42,['none'],0.010274966713041067,None,['space'],86.01761809992604,86.01761809992604,0.23365116654895246,3.2037482047687718,86.24165869993158,86.01761809992604,[-2.855724300025031],,,,,,,,,wxbjqe,002,fr,1,2022-05-16_17h57.54.371,Continuous,2022.1.1,None,
1,0,1,0,8,0,8,0,,,,,,,,2.9700970382198193,both,,,,1,,42,['none'],0.010493166744709015,None,['space'],89.23692729999311,89.23692729999311,0.2244482666719705,3.19454530489179,89.45677859988064,89.23692729999311,[-2.9633441001642495],,,,,,,,,wxbjqe,002,fr,1,2022-05-16_17h57.54.371,Continuous,2022.1.1,None,
1,0,1,0,9,0,9,0,,,,,,,,2.9700970382198193,both,354.0,2.726026737352602,0.00012112307118091953,0,,43,['none'],0.011489666532725096,None,None,92.44959819992073,92.44959819992073,0.2229099664837122,3.1930070047035315,92.66809699987061,92.44959819992073,,,,,,,,,,wxbjqe,002,fr,1,2022-05-16_17h57.54.371,Continuous,2022.1.1,None,
2,0,2,0,0,0,0,0,,,,,,97.94622669997625,None,2.4270355939070907,both,168.0,4.537062936745383,0.0006440210007938865,0,,44,['none'],0.012344066752120852,None,None,98.99227529997006,None,0.22524176677688956,2.6522773606839802,99.2076347998809,None,,95.6608027999755,None,0.5833333333333334,,,,,,wxbjqe,002,fr,1,2022-05-16_17h57.54.371,Continuous,2022.1.1,None,
2,0,2,0,1,0,1,0,,,,,,,,2.4270355939070907,both,252.0,2.6846844273033796,0.00022525525526998218,0,,45,['none'],0.0094264664221555,None,['space'],101.65719769988209,101.65719769988209,0.21836486645042896,2.6454004603575196,101.86917539988644,101.65719769988209,[-1.8800736998673528],,,,,,,,,wxbjqe,002,fr,1,2022-05-16_17h57.54.371,Continuous,2022.1.1,None,
2,0,2,0,2,0,2,0,,,,,,,,2.4270355939070907,both,378.0,4.099202861244414,0.00013188011405191683,0,,46,['none'],0.010037666419520974,None,['space'],104.32445880002342,104.32445880002342,0.22311656642705202,2.6501521603341427,104.54472319991328,104.32445880002342,[-2.22648339997977],,,,,,,,,wxbjqe,002,fr,1,2022-05-16_17h57.54.371,Continuous,2022.1.1,None,
2,0,2,0,3,0,3,0,,,,,,,,2.4270355939070907,both,567.0,3.334428589301963,8.953629025523175e-05,0,,47,['none'],0.0035040664952248335,None,['space'],106.99287449987605,106.99287449987605,0.20694046653807163,2.6339760604451623,107.21013509994373,106.99287449987605,[-2.182584600057453],,,,,,,,,wxbjqe,002,fr,1,2022-05-16_17h57.54.371,Continuous,2022.1.1,None,
2,0,2,0,4,0,4,0,,,,,,,,2.4270355939070907,both,850.0,4.043269961458068,6.337651331614738e-05,0,,48,['none'],0.009898466523736715,None,['space'],109.66682719998062,109.66682719998062,0.22190136648714542,2.648936960394236,109.8834367999807,109.66682719998062,[-2.232744500041008],,,,,,,,,wxbjqe,002,fr,1,2022-05-16_17h57.54.371,Continuous,2022.1.1,None,
2,0,2,0,5,0,5,0,,,,,,,,2.4270355939070907,both,1274.0,3.3546559988264537,7.932852628186558e-05,0,,49,['none'],0.001420566812157631,None,['space'],112.3363953998778,112.3363953998778,0.21555846673436463,2.6425940606414553,112.56718360004015,112.3363953998778,[-2.2054793999996036],,,,,,,,,wxbjqe,002,fr,1,2022-05-16_17h57.54.371,Continuous,2022.1.1,None,
2,0,2,0,6,0,6,0,,,,,,,,2.4270355939070907,both,1909.0,4.347350535553742,0.0001166284351723091,0,,50,['none'],0.007826766232028604,None,['space'],115.0129684000276,115.0129684000276,0.21398766641505063,2.6410232603221413,115.23407349991612,115.0129684000276,[-2.2355964998714626],,,,,,,,,wxbjqe,002,fr,1,2022-05-16_17h57.54.371,Continuous,2022.1.1,None,
2,0,2,0,7,0,7,0,,,,,,,,2.4270355939070907,both,,,,1,,50,['none'],0.005093466490507126,None,['space'],117.68731359997764,117.68731359997764,0.20832946663722396,2.6353650605443146,117.90334199997596,117.68731359997764,[-2.3091443001758307],,,,,,,,,wxbjqe,002,fr,1,2022-05-16_17h57.54.371,Continuous,2022.1.1,None,
2,0,2,0,8,0,8,0,,,,,,,,2.4270355939070907,both,4287.0,5.0,0.00018438531293358946,0,,51,['none'],0.010175866540521383,None,None,120.35737399989739,120.35737399989739,0.23432456655427814,2.661360160461369,120.58227310003713,120.35737399989739,,,,,,,,,,wxbjqe,002,fr,1,2022-05-16_17h57.54.371,Continuous,2022.1.1,None,
2,0,2,0,9,0,9,0,,,,,,,,2.4270355939070907,both,6423.0,11.054307915160596,0.0004774908215094396,0,,52,['none'],0.00984436646103859,None,['space'],123.02933039981872,123.02933039981872,0.22208016645163298,2.6491157603587236,123.24721809988841,123.02933039981872,[-2.203662500018254],,,,,,,,,wxbjqe,002,fr,1,2022-05-16_17h57.54.371,Continuous,2022.1.1,None,
3,0,3,0,0,0,0,0,,,,,,128.49960820004344,None,1.7177146046175125,frequency,832.0,6.892328571191234,8.684825143197336e-05,0,,45,['none'],0.012520566815510392,None,None,129.53716239985079,None,0.24242356675677001,1.9601381713742825,129.7681233000476,None,,125.69890289986506,None,0.3333333333333333,,,,,,wxbjqe,002,fr,1,2022-05-16_17h57.54.371,Continuous,2022.1.1,None,
3,0,3,0,1,0,1,0,,,,,,,,2.0106382820242743,frequency,1048.0,6.207296547340122,9.412178043121636e-05,0,,46,['none'],0.00915096653625369,None,['space'],131.5033144999761,131.5033144999761,0.2224706665147096,2.233108948538984,131.72130919992924,131.5033144999761,[-1.2376085000578314],,,,,,,,,wxbjqe,002,fr,1,2022-05-16_17h57.54.371,Continuous,2022.1.1,None,
3,0,3,0,2,0,2,0,,,,,,,,2.78828245577375,frequency,1320.0,6.20738619095108,0.00010783693787606362,0,,47,['none'],0.0044746664352715015,0.2008947664871812,['space'],133.7698116998654,133.7698116998654,0.2008947664871812,2.989177222260931,133.97532079997472,133.7698116998654,[-1.8323933000210673],,,,,,,,,wxbjqe,002,fr,1,2022-05-16_17h57.54.371,Continuous,2022.1.1,None,
3,0,3,0,3,0,3,0,,,,,,,,1.7405994620418102,frequency,1663.0,7.506386125443416,0.000141426400715133,0,,48,['none'],0.009398466674610972,None,['space'],136.79287009988911,136.79287009988911,0.22143266652710736,1.9620321285689175,137.0130785999354,136.79287009988911,[-2.63930970011279],,,,,,,,,wxbjqe,002,fr,1,2022-05-16_17h57.54.371,Continuous,2022.1.1,None,
3,0,3,0,4,0,4,0,,,,,,,,2.6427373955656246,frequency,2095.0,6.6564410224923325,0.00016551912902003027,0,,49,['none'],0.0024790666066110134,None,['space'],138.7778375998605,138.7778375998605,0.20690996665507555,2.8496473622207,138.99895429983735,138.7778375998605,[-1.6481967999134213],,,,,,,,,wxbjqe,002,fr,1,2022-05-16_17h57.54.371,Continuous,2022.1.1,None,
3,0,3,0,5,0,5,0,,,,,,,,2.1303831052247295,frequency,2639.0,4.675714413882453,0.00013235080721803912,0,,50,['none'],0.00917176646180451,None,['space'],141.6698405998759,141.6698405998759,0.22545816656202078,2.3558412717867503,141.89216759987175,141.6698405998759,[-2.459759599994868],,,,,,,,,wxbjqe,002,fr,1,2022-05-16_17h57.54.371,Continuous,2022.1.1,None,
3,0,3,0,6,0,6,0,,,,,,,,1.9746964370556754,frequency,3325.0,1.7972694204798496,8.866365144409246e-05,0,,51,['none'],0.008772366680204868,None,['space'],144.043890299974,144.043890299974,0.21972696669399738,2.194423403749673,144.2614428999368,144.043890299974,[-1.9782710999716073],,,,,,,,,wxbjqe,002,fr,1,2022-05-16_17h57.54.371,Continuous,2022.1.1,None,
3,0,3,0,7,0,7,0,,,,,,,,1.2323398801802614,frequency,4189.0,4.544521286802879,0.0001635871826096362,0,,52,['none'],0.006852766498923302,None,['space'],146.26314729987644,146.26314729987644,0.21286916639655828,1.4452090465768197,146.4793411998544,146.26314729987644,[-1.7728892001323402],,,,,,,,,wxbjqe,002,fr,1,2022-05-16_17h57.54.371,Continuous,2022.1.1,None,
3,0,3,0,8,0,8,0,,,,,,,,2.270030123925224,frequency,5278.0,9.0,0.0004016038913566396,0,,53,['none'],0.008751966524869204,None,['space'],147.74096910003573,147.74096910003573,0.22068066662177444,2.4907107905469985,147.96465400001034,147.74096910003573,[-1.0835581000428647],,,,,,,,,wxbjqe,002,fr,1,2022-05-16_17h57.54.371,Continuous,2022.1.1,None,
3,0,3,0,9,0,9,0,,,,,,,,1.819615952406529,frequency,6650.0,11.053184802636807,0.0005019934279201085,0,,54,['none'],0.00030686636455357075,0.18684716639108956,['space'],150.25985619984567,150.25985619984567,0.18684716639108956,2.0064631187976185,150.46978059993125,150.25985619984567,[-2.090252500027418],,,,,,,,,wxbjqe,002,fr,1,2022-05-16_17h57.54.371,Continuous,2022.1.1,None,
3,0,3,0,10,0,10,0,,,,,,,,1.94218688039119,frequency,,,,1,,54,['none'],0.009002066683024168,None,['space'],152.3179264999926,152.3179264999926,0.21599126677028835,2.158178147161478,152.54381439997815,152.3179264999926,[-1.6111584000755101],,,,,,,,,wxbjqe,002,fr,1,2022-05-16_17h57.54.371,Continuous,2022.1.1,None,
4,0,4,0,0,0,0,0,,,,,"[0.3333333333333333, 0.5833333333333334, 0.5833333333333334, 0.16666666666666666, 0.16666666666666666, 0.16666666666666666, 0.3333333333333333, 0.3333333333333333, 0.3333333333333333, 0.3333333333333333, 0.16666666666666666, 0.16666666666666666, 0.16666666666666666, 0.5833333333333334, 0.16666666666666666]",159.4913095999509,None,2.2797442178838065,time,151.0,-1.752365529566688,0.00040149611027658473,0,,52,['none'],0.012586366618052125,None,None,160.53690969990566,None,0.2390652666799724,2.518809484563779,160.76931729982607,None,,154.50989690003917,None,,,,,,,wxbjqe,002,fr,1,2022-05-16_17h57.54.371,Continuous,2022.1.1,None,
4,0,4,0,1,0,1,0,,,,,,,,2.2797442178838065,time,,,,1,,52,['none'],0.008501466596499085,None,['space'],163.06323540001176,163.06323540001176,0.21311806654557586,2.4928622844293824,163.28151510003954,163.06323540001176,[-1.9323591999709606],,,,,,,,,wxbjqe,002,fr,1,2022-05-16_17h57.54.371,Continuous,2022.1.1,None,
4,0,4,0,2,0,2,0,,,,,,,,2.2797442178838065,time,478.0,-5.834005297781871,3.7072325967155524e-05,0,,53,['none'],0.01007176679559052,None,None,165.5824575999286,165.5824575999286,0.22336586681194603,2.5031100846957526,165.79939039982855,165.5824575999286,,,,,,,,,,wxbjqe,002,fr,1,2022-05-16_17h57.54.371,Continuous,2022.1.1,None,
4,0,4,0,3,0,3,0,,,,,,,,2.2797442178838065,time,301.0,1.610186377460086,0.000136560398721952,0,,54,['none'],0.005418066633865237,None,None,168.10346929985099,168.10346929985099,0.21110066678375006,2.4908448846675566,168.3222306999378,168.10346929985099,,,,,,,,,,wxbjqe,002,fr,1,2022-05-16_17h57.54.371,Continuous,2022.1.1,None,
4,0,4,0,4,0,4,0,,,,,,,,2.2797442178838065,time,677.0,-2.245706967533259,3.6325409411485124e-05,0,,55,['none'],0.008940266445279121,None,['space'],170.63568810001016,170.63568810001016,0.22217216645367444,2.501916384337481,170.85082209995016,170.63568810001016,[-2.1060216000769287],,,,,,,,,wxbjqe,002,fr,1,2022-05-16_17h57.54.371,Continuous,2022.1.1,None,
4,0,4,0,5,0,5,0,,,,,,,,2.2797442178838065,time,190.0,0.07756246588794102,0.00030456960869091525,0,,56,['none'],0.008100466569885612,None,None,173.1598226998467,173.1598226998467,0.23116376670077443,2.510907984584581,173.38429689989425,173.1598226998467,,,,,,,,,,wxbjqe,002,fr,1,2022-05-16_17h57.54.371,Continuous,2022.1.1,None,
4,0,4,0,6,0,6,0,,,,,,,,2.2797442178838065,time,379.0,-6.0,4.110044135703069e-05,0,,57,['none'],0.008578466717153788,None,['space'],175.6849452999886,175.6849452999886,0.22172216675244272,2.5014663846362493,175.9037468000315,175.6849452999886,[-1.9863776001147926],,,,,,,,,wxbjqe,002,fr,1,2022-05-16_17h57.54.371,Continuous,2022.1.1,None,
4,0,4,0,7,0,7,0,,,,,,,,2.2797442178838065,time,169.0,-2.577265136293148,0.00028120500819862437,0,,58,['none'],0.008031066507101059,None,None,178.20532969990745,178.20532969990745,0.21829286660067737,2.498037084484484,178.42785069998354,178.20532969990745,,,,,,,,,,wxbjqe,002,fr,1,2022-05-16_17h57.54.371,Continuous,2022.1.1,None,
4,0,4,0,8,0,8,0,,,,,,,,2.2797442178838065,time,135.0,-4.672394274925694,0.00037004822246096235,0,,59,['none'],0.008320966502651572,None,['space'],180.73395069991238,180.73395069991238,0.22280256659723818,2.5025467844810447,180.94820749992505,180.73395069991238,[-1.7564813001081347],,,,,,,,,wxbjqe,002,fr,1,2022-05-16_17h57.54.371,Continuous,2022.1.1,None,
4,0,4,0,9,0,9,0,,,,,,,,2.2797442178838065,time,239.0,1.1056839435905497,0.00021469586751421199,0,,60,['none'],0.007251466624438763,None,None,183.2510505998507,183.2510505998507,0.21488606673665345,2.49463028462046,183.46744319982827,183.2510505998507,,,,,,,,,,wxbjqe,002,fr,1,2022-05-16_17h57.54.371,Continuous,2022.1.1,None,
4,0,4,0,10,0,10,0,,,,,,,,2.2797442178838065,time,1014.0,1.2984657049146067,5.183561321660699e-05,0,,61,['none'],0.004023566609248519,None,['space'],185.7751486999914,185.7751486999914,0.22048986656591296,2.5002340844497195,186.00018780003302,185.7751486999914,[-1.910060599911958],,,,,,,,,wxbjqe,002,fr,1,2022-05-16_17h57.54.371,Continuous,2022.1.1,None,
4,0,4,0,11,0,11,0,,,,,,,,2.2797442178838065,time,537.0,-4.753515380009487,3.79934733258959e-05,0,,62,['none'],0.00825566635467112,None,None,188.30591659992933,188.30591659992933,0.22137666656635702,2.5011208844501636,188.5266401998233,188.30591659992933,,,,,,,,,,wxbjqe,002,fr,1,2022-05-16_17h57.54.371,Continuous,2022.1.1,None,
4,0,4,0,12,0,12,0,,,,,,,,2.2797442178838065,time,1138.0,0.4342398207728486,5.2378818308190854e-05,0,,63,['none'],0.003962066723033786,None,None,190.82960970001295,190.82960970001295,0.20682506659068167,2.486569284474488,191.050699000014,190.82960970001295,,,,,,,,,,wxbjqe,002,fr,1,2022-05-16_17h57.54.371,Continuous,2022.1.1,None,
5,0,5,0,0,0,0,0,,,,,,197.5204594999086,None,1.2525238469534414,both,222.0,-2.2241072025114605,0.0001721124636753759,0,,53,['none'],0.012446366716176271,None,None,198.54278539982624,None,0.2083388667088002,1.4608627136622416,198.7519652999472,None,,193.36158559983596,None,0.3333333333333333,,,,,,wxbjqe,002,fr,1,2022-05-16_17h57.54.371,Continuous,2022.1.1,None,
5,0,5,0,1,0,1,0,,,,,,,,1.2525238469534414,both,280.0,-0.38471636784216257,0.00012982115581312604,0,,54,['none'],0.0005452665500342846,0.19518256676383317,None,200.04530190001242,200.04530190001242,0.19518256676383317,1.4477064137172746,200.26117970002815,200.04530190001242,,,,,,,,,,wxbjqe,002,fr,1,2022-05-16_17h57.54.371,Continuous,2022.1.1,None,
5,0,5,0,2,0,2,0,,,,,,,,1.2525238469534414,both,353.0,-2.4122012818282093,6.723379641703749e-05,0,,55,['none'],0.004520466551184654,0.19908626656979322,['space'],201.54352899990045,201.54352899990045,0.19908626656979322,1.4516101135232347,201.7513339999132,201.54352899990045,[-0.7581631001085043],,,,,,,,,wxbjqe,002,fr,1,2022-05-16_17h57.54.371,Continuous,2022.1.1,None,
5,0,5,0,3,0,3,0,,,,,,,,1.2525238469534414,both,445.0,-2.1807335970871318,5.7768239860476465e-05,0,,56,['none'],0.0029950665775686502,None,['space'],203.04136569984257,203.04136569984257,0.21772996662184596,1.4702538135752874,203.26592329982668,203.04136569984257,[-1.1119983000680804],,,,,,,,,wxbjqe,002,fr,1,2022-05-16_17h57.54.371,Continuous,2022.1.1,None,
5,0,5,0,4,0,4,0,,,,,,,,1.2525238469534414,both,561.0,-2.9094520830642794,4.430157697175496e-05,0,,57,['none'],0.015858333557844162,None,['space'],204.55214269994758,204.55214269994758,0.21920383349061012,1.4717276804440516,204.7803376999218,204.55214269994758,[-1.1427108999341726],,,,,,,,,wxbjqe,002,fr,1,2022-05-16_17h57.54.371,Continuous,2022.1.1,None,
5,0,5,0,5,0,5,0,,,,,,,,1.2525238469534414,both,707.0,0.1939044036246642,4.5414924936815916e-05,0,,58,['none'],0.0080700668040663,None,['space'],206.05206410004757,206.05206410004757,0.21783206681720912,1.4703559137706506,206.2781964999158,206.05206410004757,[-1.210448500001803],,,,,,,,,wxbjqe,002,fr,1,2022-05-16_17h57.54.371,Continuous,2022.1.1,None,
5,0,5,0,6,0,6,0,,,,,,,,1.2525238469534414,both,891.0,-1.6273500651850727,3.3957344971797134e-05,0,,59,['none'],0.008139866637066007,None,"['space', 'space']",207.5613022998441,207.5613022998441,0.22952686669304967,1.482050713646491,207.78206530003808,207.5613022998441,"[-1.2078527000267059, 0.0966395998839289]",,,,,,,,,wxbjqe,002,fr,1,2022-05-16_17h57.54.371,Continuous,2022.1.1,None,
5,0,5,0,7,0,7,0,,,,,,,,1.2525238469534414,both,1122.0,-2.2481122319019615,3.794593037944271e-05,0,,60,['none'],0.007855466334149241,None,['space'],209.06443229992874,209.06443229992874,0.22921426640823483,1.4817381133616763,209.2883192000445,209.06443229992874,[-0.014130499912425876],,,,,,,,,wxbjqe,002,fr,1,2022-05-16_17h57.54.371,Continuous,2022.1.1,None,
5,0,5,0,8,0,8,0,,,,,,,,1.2525238469534414,both,1414.0,-3.0,3.57071160988931e-05,0,,61,['none'],0.007285166531801224,None,['space'],210.56624109996483,210.56624109996483,0.21845496632158756,1.470978813275029,210.78656399995089,210.56624109996483,[-0.052640900015830994],,,,,,,,,wxbjqe,002,fr,1,2022-05-16_17h57.54.371,Continuous,2022.1.1,None,
5,0,5,0,9,0,9,0,,,,,,,,1.2525238469534414,both,1782.0,0.3013258923780491,6.726180311580984e-05,0,,62,['none'],0.007049366598948836,None,['space'],212.06511409999803,212.06511409999803,0.21787996659986675,1.4704038135533082,212.28173629986122,212.06511409999803,[-0.03192079998552799],,,,,,,,,wxbjqe,002,fr,1,2022-05-16_17h57.54.371,Continuous,2022.1.1,None,
5,0,5,0,10,0,10,0,,,,,,,,1.2525238469534414,both,2245.0,3.202831583013998,0.00011602390083472985,0,,63,['none'],0.007842766353860497,None,['space'],213.56684869993478,213.56684869993478,0.2119052663911134,1.4644291133445548,213.78722830000333,213.56684869993478,[0.16412340011447668],,,,,,,,,wxbjqe,002,fr,1,2022-05-16_17h57.54.371,Continuous,2022.1.1,None,
5,0,5,0,11,0,11,0,,,,,,,,1.2525238469534414,both,2829.0,-1.106892198739843,5.7619232624455253e-05,0,,64,['none'],0.007796366466209292,None,None,215.07028009998612,215.07028009998612,0.2261674664914608,1.4786913134449022,215.284969399916,215.07028009998612,,,,,,,,,,wxbjqe,002,fr,1,2022-05-16_17h57.54.371,Continuous,2022.1.1,None,
5,0,5,0,12,0,12,0,,,,,,,,1.2525238469534414,both,,,,1,,64,['none'],0.007532566320151091,0.19829076644964516,"['space', 'space']",216.57223809999414,216.57223809999414,0.19829076644964516,1.4508146134030866,216.7714188999962,216.57223809999414,"[-1.2428230999503285, 0.07910299999639392]",,,,,,,,,wxbjqe,002,fr,1,2022-05-16_17h57.54.371,Continuous,2022.1.1,None,
5,0,5,0,13,0,13,0,,,,,,,,1.2525238469534414,both,4490.0,2.3511032693107223,0.00015422891702966874,0,,65,['none'],0.008794366614893079,None,['space'],218.05876079993322,218.05876079993322,0.23042596643790603,1.4829498133913475,218.27708519995213,218.05876079993322,[0.08003600011579692],,,,,,,,,wxbjqe,002,fr,1,2022-05-16_17h57.54.371,Continuous,2022.1.1,None,
5,0,5,0,14,0,14,0,,,,,,,,1.2525238469534414,both,5657.0,-1.6094107485939322,0.00010678112033359966,0,,66,['none'],0.00495856674388051,None,['space'],219.55867399997078,219.55867399997078,0.2111773667857051,1.4637012137391465,219.77739369985647,219.55867399997078,[0.0991760001052171],,,,,,,,,wxbjqe,002,fr,1,2022-05-16_17h57.54.371,Continuous,2022.1.1,None,
6,0,6,0,0,0,0,0,,,,,,225.07494399999268,None,1.3485756233442487,frequency,131.0,5.62460092574417,0.0012789477758069947,0,,55,['none'],0.012851066654548049,None,None,226.10221719997935,None,0.2100319666787982,1.558607590023047,226.31227139988914,None,,221.05429959995672,None,0.3333333333333333,,,,,,wxbjqe,002,fr,1,2022-05-16_17h57.54.371,Continuous,2022.1.1,None,
6,0,6,0,1,0,1,0,,,,,,,,2.035731302870052,frequency,165.0,8.0,0.0009869489076773142,0,,56,['none'],0.006913366494700313,0.1972122665029019,['space'],227.69337500003166,227.69337500003166,0.1972122665029019,2.232943569372954,227.9005324000027,227.69337500003166,[-0.6277756998315454],,,,,,,,,wxbjqe,002,fr,1,2022-05-16_17h57.54.371,Continuous,2022.1.1,None,
6,0,6,0,2,0,2,0,,,,,,,,2.0053433520329484,frequency,208.0,6.294136330528815,0.0005155191859194193,0,,57,['none'],0.007108866702765226,None,['space'],229.96639680000953,229.96639680000953,0.2132561665493995,2.218599518582348,230.1863994000014,229.96639680000953,[-1.8613179998937994],,,,,,,,,wxbjqe,002,fr,1,2022-05-16_17h57.54.371,Continuous,2022.1.1,None,
6,0,6,0,3,0,3,0,,,,,,,,1.8350982223827215,frequency,262.0,2.646671889003393,0.00020990358180833428,0,,58,['none'],0.007272266549989581,None,['space'],232.21239549992606,232.21239549992606,0.2233866665046662,2.0584848888873877,232.43552549998276,232.21239549992606,[-1.8660122000146657],,,,,,,,,wxbjqe,002,fr,1,2022-05-16_17h57.54.371,Continuous,2022.1.1,None,
6,0,6,0,4,0,4,0,,,,,,,,1.9476493869327387,frequency,330.0,3.4191111281253193,0.00014042012301256163,0,,59,['none'],0.0005915667861700058,None,['space'],234.2961644998286,234.2961644998286,0.21158586675301194,2.1592352536857504,234.5287154999096,234.2961644998286,[-1.6710169001016766],,,,,,,,,wxbjqe,002,fr,1,2022-05-16_17h57.54.371,Continuous,2022.1.1,None,
6,0,6,0,5,0,5,0,,,,,,,,1.3534447508530871,frequency,416.0,6.094271199600104,0.00015276387116020744,0,,60,['none'],0.0007381667383015156,None,['space'],236.4983856000472,236.4983856000472,0.20404926664195955,1.5574940174950467,236.72438149992377,236.4983856000472,[-1.8091971999965608],,,,,,,,,wxbjqe,002,fr,1,2022-05-16_17h57.54.371,Continuous,2022.1.1,None,
6,0,6,0,6,0,6,0,,,,,,,,2.9762213899475847,frequency,,,,1,,60,['none'],0.006992466747760773,None,['space'],238.10221339995041,238.10221339995041,0.21612436673603952,3.192345756683624,238.32461779983714,238.10221339995041,[-1.3166017001494765],,,,,,,,,wxbjqe,002,fr,1,2022-05-16_17h57.54.371,Continuous,2022.1.1,None,
6,0,6,0,7,0,7,0,,,,,,,,2.0978461032419276,frequency,660.0,6.8083271406356705,0.0001062823791459124,0,,61,['none'],0.008540366310626268,None,None,241.32236430002376,241.32236430002376,0.2267762664705515,2.324622369712479,241.5459620000329,241.32236430002376,,,,,,,,,,wxbjqe,002,fr,1,2022-05-16_17h57.54.371,Continuous,2022.1.1,None,
6,0,6,0,8,0,8,0,,,,,,,,1.3616288899433977,frequency,832.0,7.498135395246756,9.312181245140687e-05,0,,62,['none'],0.005294866627082229,None,['space'],243.6648925000336,243.6648925000336,0.208610066678375,1.5702389566217727,243.8882350998465,243.6648925000336,[-1.935814900090918],,,,,,,,,wxbjqe,002,fr,1,2022-05-16_17h57.54.371,Continuous,2022.1.1,None,
6,0,6,0,9,0,9,0,,,,,,,,1.9156156239465238,frequency,1048.0,2.389301950602171,6.064435815788941e-05,0,,63,['none'],0.002513866638764739,None,['space'],245.26881000003777,245.26881000003777,0.21260516648180783,2.1282207904283315,245.49494789983146,245.26881000003777,[-1.2590197001118213],,,,,,,,,wxbjqe,002,fr,1,2022-05-16_17h57.54.371,Continuous,2022.1.1,None,
6,0,6,0,10,0,10,0,,,,,,,,1.867242703424382,frequency,1320.0,3.400260976600098,7.80568976688638e-05,0,,64,['none'],0.00511946645565331,None,['space'],247.43817700003274,247.43817700003274,0.22136086644604802,2.08860356987043,247.6586102999281,247.43817700003274,[-1.6604265000205487],,,,,,,,,wxbjqe,002,fr,1,2022-05-16_17h57.54.371,Continuous,2022.1.1,None,
6,0,6,0,11,0,11,0,,,,,,,,1.8407891597661417,frequency,1663.0,7.015074549209245,0.00013364875269302305,0,,65,['none'],0.0025559666100889444,None,['space'],249.56002749991603,249.56002749991603,0.2063319666776806,2.0471211264438223,249.77362789981999,249.56002749991603,[-1.7267305999994278],,,,,,,,,wxbjqe,002,fr,1,2022-05-16_17h57.54.371,Continuous,2022.1.1,None,
6,0,6,0,12,0,12,0,,,,,,,,2.4390089023311416,frequency,2095.0,4.178657677972709,0.0001244397199696315,0,,66,['none'],0.0066350665874779224,None,['space'],251.6495844000019,251.6495844000019,0.21547576668672264,2.6544846690178643,251.8620066998992,251.6495844000019,[-1.7444617000874132],,,,,,,,,wxbjqe,002,fr,1,2022-05-16_17h57.54.371,Continuous,2022.1.1,None,
6,0,6,0,13,0,13,0,,,,,,,,2.1244418830801743,frequency,2640.0,6.190993297043958,0.00015744942107096362,0,,67,['none'],0.0032648665364831686,0.19040526659227908,['space'],254.32878219988197,254.32878219988197,0.19040526659227908,2.3148471496724534,254.53329900000244,254.32878219988197,[-2.34313779999502],,,,,,,,,wxbjqe,002,fr,1,2022-05-16_17h57.54.371,Continuous,2022.1.1,None,
6,0,6,0,14,0,14,0,,,,,,,,1.3164120258922671,frequency,3326.0,1.1255244489256526,8.208505652444327e-05,0,,68,['none'],0.0022500664927065372,0.20150036667473614,['space'],256.68106999993324,256.68106999993324,0.20150036667473614,1.5179123925670033,256.903102299897,256.68106999993324,[-1.9437150000594556],,,,,,,,,wxbjqe,002,fr,1,2022-05-16_17h57.54.371,Continuous,2022.1.1,None,
7,0,7,0,0,0,0,0,,,,,,262.1349539998919,None,2.4144213018684253,frequency,3174.0,10.500527733198041,0.0002326158477233932,0,,69,['none'],0.012647366616874933,None,None,263.1796593000181,None,0.21261316677555442,2.6270344686439797,263.38540969998576,None,,258.24683919991367,None,0.16666666666666666,,,,,,wxbjqe,002,fr,1,2022-05-16_17h57.54.371,Continuous,2022.1.1,None,
7,0,7,0,1,0,1,0,,,,,,,,2.5742276127876176,frequency,3563.0,10.28774217064252,0.0002493075839763417,0,,70,['none'],0.01566863339394331,None,['space'],265.83432339993306,265.83432339993306,0.219291033456102,2.7935186462437196,266.0504858000204,265.83432339993306,[-2.177029100013897],,,,,,,,,wxbjqe,002,fr,1,2022-05-16_17h57.54.371,Continuous,2022.1.1,None,
7,0,7,0,2,0,2,0,,,,,,,,1.4683844000429631,frequency,3999.0,11.9623730324232,0.0003326578865810966,0,,71,['none'],0.004664466716349125,None,['space'],268.6592939000111,268.6592939000111,0.20931506669148803,1.6776994667344511,268.8795912999194,268.6592939000111,[-2.4890834998805076],,,,,,,,,wxbjqe,002,fr,1,2022-05-16_17h57.54.371,Continuous,2022.1.1,None,
7,0,7,0,3,0,3,0,,,,,,,,2.04999934305913,frequency,4489.0,5.787737550562239,0.00022895148728966128,0,,72,['none'],0.0023163664154708385,None,['space'],270.3810983998701,270.3810983998701,0.21229196642525494,2.262291309484385,270.59942169999704,270.3810983998701,[-1.3952598997857422],,,,,,,,,wxbjqe,002,fr,1,2022-05-16_17h57.54.371,Continuous,2022.1.1,None,
7,0,7,0,4,0,4,0,,,,,,,,1.7605870086010549,frequency,5039.0,10.0716226254586,0.0004824392958466067,0,,73,['none'],0.006557966582477093,None,['space'],272.68127619987354,272.68127619987354,0.2173094665631652,1.97789647516422,272.8918341000099,272.68127619987354,[-1.5442089999560267],,,,,,,,,wxbjqe,002,fr,1,2022-05-16_17h57.54.371,Continuous,2022.1.1,None,
7,0,7,0,5,0,5,0,,,,,,,,2.0664296055451814,frequency,5656.0,12.25859246182383,0.0005272532067254446,0,,74,['none'],0.0065951666329056025,None,['space'],274.68104509986006,274.68104509986006,0.22017166670411825,2.2866012722492997,274.89659400004894,274.68104509986006,[-1.655021599959582],,,,,,,,,wxbjqe,002,fr,1,2022-05-16_17h57.54.371,Continuous,2022.1.1,None,
7,0,7,0,6,0,6,0,,,,,,,,1.8233355109441591,frequency,,,,1,,74,['none'],0.0030700666829943657,None,['space'],276.98594069993123,276.98594069993123,0.20570806646719575,2.029043577411355,277.20251039997675,276.98594069993123,[-1.8889031999278814],,,,,,,,,wxbjqe,002,fr,1,2022-05-16_17h57.54.371,Continuous,2022.1.1,None,
7,0,7,0,7,0,7,0,,,,,,,,1.8634668767672407,frequency,7127.0,13.564867316759187,0.0007392457676040687,0,,75,['none'],0.0073080665897578,None,None,279.06123029999435,279.06123029999435,0.21429986669681966,2.0777667434640605,279.27446959982626,279.06123029999435,,,,,,,,,,wxbjqe,002,fr,1,2022-05-16_17h57.54.371,Continuous,2022.1.1,None,
7,0,7,0,8,0,8,0,,,,,,,,1.1306544298256722,frequency,8000.0,12.0,0.000722719885372964,0,,76,['none'],0.006796266650781035,None,['space'],281.17049920000136,281.17049920000136,0.2168396667111665,1.3474940965368387,281.3962618999649,281.17049920000136,[-1.672919400036335],,,,,,,,,wxbjqe,002,fr,1,2022-05-16_17h57.54.371,Continuous,2022.1.1,None,
8,0,8,0,0,0,0,0,,,,,"[0.16666666666666666, 0.16666666666666666, 0.16666666666666666, 0.5833333333333334, 0.3333333333333333, 0.16666666666666666, 0.3333333333333333, 0.16666666666666666, 0.5833333333333334, 0.16666666666666666, 0.3333333333333333, 0.3333333333333333, 0.5833333333333334, 0.16666666666666666, 0.3333333333333333]",286.14275210001506,None,2.0762552500868385,time,1415.0,6.263053814415446,0.00010367967869548876,0,,64,['none'],0.012697766534984112,None,None,287.16726149991155,None,0.2052521666046232,2.2815074166914617,287.37662520003505,None,,282.55140019999817,None,,,,,,,wxbjqe,002,fr,1,2022-05-16_17h57.54.371,Continuous,2022.1.1,None,
8,0,8,0,1,0,1,0,,,,,,,,2.0762552500868385,time,8000.0,14.0,0.000909850429304992,0,,65,['none'],0.004838266409933567,None,['space'],289.4948442999739,289.4948442999739,0.20034966641105711,2.2766049164978956,289.70749239996076,289.4948442999739,[-1.7730921001639217],,,,,,,,,wxbjqe,002,fr,1,2022-05-16_17h57.54.371,Continuous,2022.1.1,None,
8,0,8,0,2,0,2,0,,,,,,,,2.0762552500868385,time,1782.0,4.207358116877927,0.00010545571404921754,0,,66,['none'],0.003948266617953777,None,['space'],291.815981999971,291.815981999971,0.2096061664633453,2.285861416550184,292.04024939984083,291.815981999971,[-1.8227119001094252],,,,,,,,,wxbjqe,002,fr,1,2022-05-16_17h57.54.371,Continuous,2022.1.1,None,
8,0,8,0,3,0,3,0,,,,,,,,2.0762552500868385,time,5339.0,11.659834251487926,0.0005368822476178353,0,,67,['none'],0.016361833550035954,None,['space'],294.14351590001024,294.14351590001024,0.21872373344376683,2.2949789835306054,294.3708331999369,294.14351590001024,[-1.9501372000668198],,,,,,,,,wxbjqe,002,fr,1,2022-05-16_17h57.54.371,Continuous,2022.1.1,None,
8,0,8,0,4,0,4,0,,,,,,,,2.0762552500868385,time,,,,1,,67,['none'],0.002755766734480858,None,['space'],296.4740178999491,296.4740178999491,0.20732966670766473,2.2835849167945033,296.6928727000486,296.4740178999491,[-2.0410667001269758],,,,,,,,,wxbjqe,002,fr,1,2022-05-16_17h57.54.371,Continuous,2022.1.1,None,
8,0,8,0,5,0,5,0,,,,,,,,2.0762552500868385,time,3364.0,8.772581782691693,0.00019980945049286343,0,,68,['none'],0.007432566490024328,None,['space'],298.79955530003645,298.79955530003645,0.215196666540578,2.2914519166274165,299.0155370000284,298.79955530003645,[-1.8608047000598162],,,,,,,,,wxbjqe,002,fr,1,2022-05-16_17h57.54.371,Continuous,2022.1.1,None,
8,0,8,0,6,0,6,0,,,,,,,,2.0762552500868385,time,4757.0,10.950423494829337,0.0004798923709498701,0,,69,['none'],0.005917066475376487,None,['space'],301.1279946998693,301.1279946998693,0.21442266646772623,2.2906779165545648,301.34198949998245,301.1279946998693,[-2.013668900122866],,,,,,,,,wxbjqe,002,fr,1,2022-05-16_17h57.54.371,Continuous,2022.1.1,None,
8,0,8,0,7,0,7,0,,,,,,,,2.0762552500868385,time,1588.0,12.140489254006019,0.0002255102814569141,0,,70,['none'],0.00577876647002995,0.19496696651913226,['space'],303.44752239994705,303.44752239994705,0.19496696651913226,2.271222216605971,303.6520330000203,303.44752239994705,[-2.0863016000948846],,,,,,,,,wxbjqe,002,fr,1,2022-05-16_17h57.54.371,Continuous,2022.1.1,None,
8,0,8,0,8,0,8,0,,,,,,,,2.0762552500868385,time,2670.0,13.272460891622599,0.00034721412865321713,0,,71,['none'],0.0016782667953521013,None,"['space', 'space']",305.7492493998725,305.7492493998725,0.20744516677223146,2.28370041685907,305.9709959998727,305.7492493998725,"[-2.07531480002217, 0.21243419987149537]",,,,,,,,,wxbjqe,002,fr,1,2022-05-16_17h57.54.371,Continuous,2022.1.1,None,
9,0,9,0,0,0,0,0,,,,,,310.7544527000282,None,2.7021899267023786,both,223.0,3.5688071029627797,0.0003323641788839614,0,,67,['none'],0.012907566735520959,None,None,311.7918682999443,None,0.23583966656588018,2.9380295932682587,312.02149359998293,None,,308.0818963998463,None,0.5833333333333334,,,,,,wxbjqe,002,fr,1,2022-05-16_17h57.54.371,Continuous,2022.1.1,None,
9,0,9,0,1,0,1,0,,,,,,,,2.7021899267023786,both,334.0,3.207056405920812,0.00013553124019084477,0,,68,['none'],0.0009460663422942162,None,None,314.7462132999208,314.7462132999208,0.20187246636487544,2.904062393067254,314.9653967998456,314.7462132999208,,,,,,,,,,wxbjqe,002,fr,1,2022-05-16_17h57.54.371,Continuous,2022.1.1,None,
9,0,9,0,2,0,2,0,,,,,,,,2.7021899267023786,both,501.0,2.0265467572823677,9.002186749222348e-05,0,,69,['none'],0.0007750664371997118,None,"['space', 'space']",317.69633740000427,317.69633740000427,0.20015366654843092,2.9023435932508095,317.91691969987005,317.69633740000427,"[-2.463311000028625, -0.29498030012473464]",,,,,,,,,wxbjqe,002,fr,1,2022-05-16_17h57.54.371,Continuous,2022.1.1,None,
9,0,9,0,3,0,3,0,,,,,,,,2.7021899267023786,both,750.0,4.003785963277886,6.444055950137774e-05,0,,70,['none'],0.0017325668595731258,None,None,320.64787689992227,320.64787689992227,0.2070594667457044,2.909249393448083,320.8676148999948,320.64787689992227,,,,,,,,,,wxbjqe,002,fr,1,2022-05-16_17h57.54.371,Continuous,2022.1.1,None,
9,0,9,0,4,0,4,0,,,,,,,,2.7021899267023786,both,1123.0,3.2717131875963865,7.17011081748761e-05,0,,71,['none'],0.005702966591343284,None,None,323.60246319998987,323.60246319998987,0.2162845665588975,2.918474493261276,323.82244349992834,323.60246319998987,,,,,,,,,,wxbjqe,002,fr,1,2022-05-16_17h57.54.371,Continuous,2022.1.1,None,
9,0,9,0,5,0,5,0,,,,,,,,2.7021899267023786,both,,,,1,,71,['none'],0.006006466690450907,None,['space'],326.5508347998839,326.5508347998839,0.21983876661397517,2.9220286933163537,326.76364529994316,326.5508347998839,[-2.325755099998787],,,,,,,,,wxbjqe,002,fr,1,2022-05-16_17h57.54.371,Continuous,2022.1.1,None,
9,0,9,0,6,0,6,0,,,,,,,,2.7021899267023786,both,2520.0,3.5887862787489238,0.00012796152433070744,0,,72,['none'],0.002530466765165329,None,['space'],329.4941870998591,329.4941870998591,0.21283986675553024,2.915029793457909,329.7157453999389,329.4941870998591,[-0.7565682001877576],,,,,,,,,wxbjqe,002,fr,1,2022-05-16_17h57.54.371,Continuous,2022.1.1,None,
9,0,9,0,7,0,7,0,,,,,,,,2.7021899267023786,both,3776.0,3.326586352307936,0.0001173446181068314,0,,73,['none'],0.003056466579437256,None,['space'],332.444907899946,332.444907899946,0.20757846650667489,2.9097683932090534,332.66347679984756,332.444907899946,[-2.3956801998429],,,,,,,,,wxbjqe,002,fr,1,2022-05-16_17h57.54.371,Continuous,2022.1.1,None,
9,0,9,0,8,0,8,0,,,,,,,,2.7021899267023786,both,5657.0,4.0,0.00020368779675429387,0,,74,['none'],0.0011302665807306767,None,['space'],335.3971680998802,335.3971680998802,0.2096335666719824,2.911823493374361,335.6207103000488,335.3971680998802,[-2.498392299981788],,,,,,,,,wxbjqe,002,fr,1,2022-05-16_17h57.54.371,Continuous,2022.1.1,None,
10,0,10,0,0,0,0,0,,,,,,343.25699919997714,None,2.1432608716577395,frequency,125.0,8.0,0.0018153902738505074,0,,77,['none'],0.012933366699144244,None,None,344.2967781999614,None,0.2214473665226251,2.3647082381803646,344.51165049988776,None,,338.36071709985845,None,0.3333333333333333,,,,,,wxbjqe,002,fr,1,2022-05-16_17h57.54.371,Continuous,2022.1.1,None,
10,0,10,0,1,0,1,0,,,,,,,,1.917028174199686,frequency,157.0,6.430632742821476,0.0009179878390770662,0,,78,['none'],0.016549233347177505,None,['space'],346.67867129994556,346.67867129994556,0.24464633339084685,2.161674507590533,346.91480210004374,346.67867129994556,[-1.621652300003916],,,,,,,,,wxbjqe,002,fr,1,2022-05-16_17h57.54.371,Continuous,2022.1.1,None,
10,0,10,0,2,0,2,0,,,,,,,,1.6997971507018759,frequency,,,,1,,78,['none'],0.005077566718682647,None,['space'],348.85920479986817,348.85920479986817,0.21536846668459475,1.9151656173864706,349.0745918999892,348.85920479986817,[-1.7622388999443501],,,,,,,,,wxbjqe,002,fr,1,2022-05-16_17h57.54.371,Continuous,2022.1.1,None,
10,0,10,0,3,0,3,0,,,,,,,,1.7006473439725647,frequency,249.0,5.934370652456609,0.0003355361908778555,0,,79,['none'],0.0033003666903823614,None,None,350.7979178999085,350.7979178999085,0.20498426677659154,1.9056316107491562,351.01860799989663,350.7979178999085,,,,,,,,,,wxbjqe,002,fr,1,2022-05-16_17h57.54.371,Continuous,2022.1.1,None,
10,0,10,0,4,0,4,0,,,,,,,,2.3287471430618822,frequency,314.0,2.9908118378922657,0.00014065364752626627,0,,80,['none'],0.0014458666555583477,None,['space'],352.75258450000547,352.75258450000547,0.20288466662168503,2.5316318096835673,352.9714428000152,352.75258450000547,[-1.6154195999260992],,,,,,,,,wxbjqe,002,fr,1,2022-05-16_17h57.54.371,Continuous,2022.1.1,None,
10,0,10,0,5,0,5,0,,,,,,,,2.305781897826937,frequency,396.0,6.9013455272316175,0.00017174683831870652,0,,81,['none'],0.004586666822433472,0.1919515668414533,['space'],355.3345258999616,355.3345258999616,0.1919515668414533,2.49773346466839,355.5376935999375,355.3345258999616,[-2.1736641000024974],,,,,,,,,wxbjqe,002,fr,1,2022-05-16_17h57.54.371,Continuous,2022.1.1,None,
10,0,10,0,6,0,6,0,,,,,,,,2.052382273901411,frequency,499.0,5.330024383492219,0.0001320631697468741,0,,82,['none'],0.013534733327105641,None,['space'],357.88257479993626,357.88257479993626,0.22307513328269124,2.2754574071841023,358.1060654998291,357.88257479993626,[-2.2652704999782145],,,,,,,,,wxbjqe,002,fr,1,2022-05-16_17h57.54.371,Continuous,2022.1.1,None,
10,0,10,0,7,0,7,0,,,,,,,,1.0818919649441459,frequency,629.0,4.528043183546666,8.643592964661356e-05,0,,83,['none'],0.005069466773420572,None,['space'],360.18169859983027,360.18169859983027,0.2258016667328775,1.3076936316770233,360.4088659998961,360.18169859983027,[-2.066880499944091],,,,,,,,,wxbjqe,002,fr,1,2022-05-16_17h57.54.371,Continuous,2022.1.1,None,
10,0,10,0,8,0,8,0,,,,,,,,2.441771291068908,frequency,792.0,6.428470103982005,8.118793306581377e-05,0,,84,['none'],0.004655566764995456,0.19277846673503518,['space'],361.51730680000037,361.51730680000037,0.19277846673503518,2.634549757803943,361.72309589991346,361.51730680000037,[-1.0757977000903338],,,,,,,,,wxbjqe,002,fr,1,2022-05-16_17h57.54.371,Continuous,2022.1.1,None,
10,0,10,0,9,0,9,0,,,,,,,,1.9370171005579409,frequency,998.0,4.071295468942209,7.030302591475515e-05,0,,85,['none'],0.014567233389243484,None,['space'],364.20042819995433,364.20042819995433,0.239587533287704,2.1766046338456446,364.4312288998626,364.20042819995433,[-2.263255500001833],,,,,,,,,wxbjqe,002,fr,1,2022-05-16_17h57.54.371,Continuous,2022.1.1,None,
10,0,10,0,10,0,10,0,,,,,,,,1.3834474038504048,frequency,1257.0,4.828659439672396,9.47362392990298e-05,0,,86,['none'],0.016488633351400495,None,['space'],366.4020320000127,366.4020320000127,0.21249633328989148,1.5959437371402962,366.61835929984227,366.4020320000127,[-1.8809024000074714],,,,,,,,,wxbjqe,002,fr,1,2022-05-16_17h57.54.371,Continuous,2022.1.1,None,
10,0,10,0,11,0,11,0,,,,,,,,2.943705170324952,frequency,1584.0,7.904202453807424,0.00013762931891601735,0,,87,['none'],0.0006758666131645441,None,['space'],368.0319864999037,368.0319864999037,0.2032452665735036,3.1469504368984555,368.25227579986677,368.0319864999037,[-1.2551148999482393],,,,,,,,,wxbjqe,002,fr,1,2022-05-16_17h57.54.371,Continuous,2022.1.1,None,
10,0,10,0,12,0,12,0,,,,,,,,1.501114920045538,frequency,1996.0,7.527746257318736,0.0001775446398325989,0,,88,['none'],0.00449276645667851,0.19330646633170545,['space'],371.23102919990197,371.23102919990197,0.19330646633170545,1.6944213863772435,371.4381387999747,371.23102919990197,[-2.869290800066665],,,,,,,,,wxbjqe,002,fr,1,2022-05-16_17h57.54.371,Continuous,2022.1.1,None,
10,0,10,0,13,0,13,0,,,,,,,,1.0450122528489152,frequency,2515.0,4.692426820359427,0.00014583191563157327,0,,89,['none'],0.004716466646641493,None,['space'],372.967136999825,372.967136999825,0.22051096661016345,1.2655232194590786,373.1881611000281,372.967136999825,[-1.4529367999639362],,,,,,,,,wxbjqe,002,fr,1,2022-05-16_17h57.54.371,Continuous,2022.1.1,None,
11,0,11,0,0,0,0,0,,,,,"[0.3333333333333333, 0.5833333333333334, 0.5833333333333334, 0.3333333333333333, 0.5833333333333334, 0.16666666666666666, 0.16666666666666666, 0.16666666666666666, 0.16666666666666666, 0.5833333333333334, 0.5833333333333334, 0.3333333333333333, 0.3333333333333333, 0.3333333333333333, 0.3333333333333333]",379.46684919996187,None,1.4856391960750162,time,512.0,-0.7518414101407385,6.3803829619563e-05,0,,72,['none'],0.012851866427809,None,None,380.4850633998867,None,0.23640806647017598,1.7220472625451921,380.71263069985434,None,,374.2564021998551,None,,,,,,,wxbjqe,002,fr,1,2022-05-16_17h57.54.371,Continuous,2022.1.1,None,
11,0,11,0,1,0,1,0,,,,,,,,1.4856391960750162,time,1447.0,-0.5466711552564179,4.659173146215994e-05,0,,73,['none'],0.004111966583877802,None,['space'],382.23393839993514,382.23393839993514,0.20659456658177078,1.692233762656787,382.4467044000048,382.23393839993514,[-1.3127917000092566],,,,,,,,,wxbjqe,002,fr,1,2022-05-16_17h57.54.371,Continuous,2022.1.1,None,
11,0,11,0,2,0,2,0,,,,,,,,1.4856391960750162,time,2297.0,-8.0,3.240411743789736e-05,0,,74,['none'],0.00015836674720048904,None,['space'],383.9656578998547,383.9656578998547,0.20320216682739556,1.6888413629024117,384.181216099998,383.9656578998547,[-0.5164921998512],,,,,,,,,wxbjqe,002,fr,1,2022-05-16_17h57.54.371,Continuous,2022.1.1,None,
11,0,11,0,3,0,3,0,,,,,,,,1.4856391960750162,time,342.0,1.1804093791633086,0.00010494732751766662,0,,75,['none'],0.0008908663876354694,None,None,385.70311759994365,385.70311759994365,0.20232626632787287,1.687965462402889,385.923694799887,385.70311759994365,,,,,,,,,,wxbjqe,002,fr,1,2022-05-16_17h57.54.371,Continuous,2022.1.1,None,
11,0,11,0,4,0,4,0,,,,,,,,1.4856391960750162,time,966.0,0.8954623658310421,4.7765058319125456e-05,0,,76,['none'],0.013527833390980959,None,['space'],387.444995299913,387.444995299913,0.21588563336990774,1.701524829444924,387.6679030000232,387.444995299913,[-0.8834150000475347],,,,,,,,,wxbjqe,002,fr,1,2022-05-16_17h57.54.371,Continuous,2022.1.1,None,
11,0,11,0,5,0,5,0,,,,,,,,1.4856391960750162,time,1823.0,2.213277159097921,8.621210918927896e-05,0,,77,['none'],0.0003808666951954365,None,None,389.1893780999817,389.1893780999817,0.2180060667451471,1.7036452628201633,389.4162552000489,389.1893780999817,,,,,,,,,,wxbjqe,002,fr,1,2022-05-16_17h57.54.371,Continuous,2022.1.1,None,
11,0,11,0,6,0,6,0,,,,,,,,1.4856391960750162,time,2046.0,-7.079513012372609,3.356401190666328e-05,0,,78,['none'],0.00025026663206517696,None,['space'],390.9255613000132,390.9255613000132,0.19966226653195918,1.6853014626069753,391.14336499990895,390.9255613000132,[-1.3883801000192761],,,,,,,,,wxbjqe,002,fr,1,2022-05-16_17h57.54.371,Continuous,2022.1.1,None,
11,0,11,0,7,0,7,0,,,,,,,,1.4856391960750162,time,1624.0,-6.515219589536578,2.7316425436619995e-05,0,,79,['none'],0.000737066613510251,None,None,392.66355109983124,392.66355109983124,0.204236866440624,1.6898760625156402,392.8819134000223,392.66355109983124,,,,,,,,,,wxbjqe,002,fr,1,2022-05-16_17h57.54.371,Continuous,2022.1.1,None,
11,0,11,0,8,0,8,0,,,,,,,,1.4856391960750162,time,5157.0,-0.2053016480486285,0.00014352370520997234,0,,80,['none'],0.00408416660502553,None,None,394.40662189992145,394.40662189992145,0.21292106644250453,1.6985602625175207,394.628936199937,394.40662189992145,,,,,,,,,,wxbjqe,002,fr,1,2022-05-16_17h57.54.371,Continuous,2022.1.1,None,
11,0,11,0,9,0,9,0,,,,,,,,1.4856391960750162,time,6497.0,-5.090536999107105,7.567399213690839e-05,0,,81,['none'],0.014035033527761698,None,None,396.1529007998761,396.1529007998761,0.23530323337763548,1.7209424294526516,396.3836282999255,396.1529007998761,,,,,,,,,,wxbjqe,002,fr,1,2022-05-16_17h57.54.371,Continuous,2022.1.1,None,
11,0,11,0,10,0,10,0,,,,,,,,1.4856391960750162,time,767.0,3.249843455933214,5.7959234289741184e-05,0,,82,['none'],0.0008557667024433613,None,None,397.89704049983993,397.89704049983993,0.21352516673505306,1.6991643628100692,398.12155279982835,397.89704049983993,,,,,,,,,,wxbjqe,002,fr,1,2022-05-16_17h57.54.371,Continuous,2022.1.1,None,
11,0,11,0,11,0,11,0,,,,,,,,1.4856391960750162,time,,,,1,,82,['none'],0.00036116689443588257,None,['space'],399.6342390999198,399.6342390999198,0.20047396677546203,1.6861131628504782,399.8542206999846,399.6342390999198,[-0.6169994999654591],,,,,,,,,wxbjqe,002,fr,1,2022-05-16_17h57.54.371,Continuous,2022.1.1,None,
11,0,11,0,12,0,12,0,,,,,,,,1.4856391960750162,time,3442.0,-2.3849817132114177,5.634207667738804e-05,0,,83,['none'],0.004742566496133804,None,None,401.38251139991917,401.38251139991917,0.21899326657876372,1.7046324626537799,401.5962624999229,401.38251139991917,,,,,,,,,,wxbjqe,002,fr,1,2022-05-16_17h57.54.371,Continuous,2022.1.1,None,
12,0,12,0,0,0,0,0,,,,,"[0.3333333333333333, 0.5833333333333334, 0.5833333333333334, 0.16666666666666666, 0.3333333333333333, 0.3333333333333333, 0.3333333333333333, 0.5833333333333334, 0.16666666666666666, 0.16666666666666666, 0.5833333333333334, 0.3333333333333333, 0.16666666666666666, 0.16666666666666666, 0.5833333333333334]",407.47791749984026,None,2.754999487002715,time,3776.0,7.985394726046989,0.00020063356708953722,0,,84,['none'],0.012840366456657648,None,None,408.5118862998206,None,0.24007066641934216,2.995070153422057,408.7425846999977,None,,403.10698949988,None,,,,,,,wxbjqe,002,fr,1,2022-05-16_17h57.54.371,Continuous,2022.1.1,None,
12,0,12,0,1,0,1,0,,,,,,,,2.754999487002715,time,8000.0,11.0,0.000644124775846567,0,,85,['none'],0.0038315667770802975,None,['space'],411.525651599979,411.525651599979,0.21759506687521935,2.972594553877934,411.7361927998718,411.525651599979,[-2.532405799953267],,,,,,,,,wxbjqe,002,fr,1,2022-05-16_17h57.54.371,Continuous,2022.1.1,None,
12,0,12,0,2,0,2,0,,,,,,,,2.754999487002715,time,1414.0,7.434405910920251,0.00011870665605695625,0,,86,['none'],0.0031406665220856667,None,None,414.52676769997925,414.52676769997925,0.21038246667012572,2.9653819536728405,414.73828399996273,414.52676769997925,,,,,,,,,,wxbjqe,002,fr,1,2022-05-16_17h57.54.371,Continuous,2022.1.1,None,
12,0,12,0,3,0,3,0,,,,,,,,2.754999487002715,time,,,,1,,86,['none'],0.000695366645231843,0.19836546666920185,['space'],417.52153799985535,417.52153799985535,0.19836546666920185,2.9533649536719166,417.7386492998339,417.52153799985535,[-2.4880165001377463],,,,,,,,,wxbjqe,002,fr,1,2022-05-16_17h57.54.371,Continuous,2022.1.1,None,
12,0,12,0,4,0,4,0,,,,,,,,2.754999487002715,time,944.0,3.8717987173701562,6.630989125602428e-05,0,,87,['none'],0.0003684666007757187,None,None,420.5236940998584,420.5236940998584,0.21135236648842692,2.9663518534911417,420.7537489000242,420.5236940998584,,,,,,,,,,wxbjqe,002,fr,1,2022-05-16_17h57.54.371,Continuous,2022.1.1,None,
12,0,12,0,5,0,5,0,,,,,,,,2.754999487002715,time,4757.0,8.365262840926437,0.00035635742583765964,0,,88,['none'],0.0033257666509598494,None,['space'],423.53832419984974,423.53832419984974,0.21463726670481265,2.9696367537075274,423.76003040000796,423.53832419984974,[-2.4886445000302047],,,,,,,,,wxbjqe,002,fr,1,2022-05-16_17h57.54.371,Continuous,2022.1.1,None,
12,0,12,0,6,0,6,0,,,,,,,,2.754999487002715,time,2379.0,9.492123737598229,0.0002481980140745627,0,,89,['none'],0.016322933370247483,None,['space'],426.54247909993865,426.54247909993865,0.2189083332195878,2.9739078202223026,426.76236129994504,426.54247909993865,[-2.4533782000653446],,,,,,,,,wxbjqe,002,fr,1,2022-05-16_17h57.54.371,Continuous,2022.1.1,None,
12,0,12,0,7,0,7,0,,,,,,,,2.754999487002715,time,2997.0,8.063686970387607,0.00013919661325639292,0,,90,['none'],0.01647193357348442,None,"['space', 'space']",429.5516399999615,429.5516399999615,0.22173813357949257,2.9767376205822074,429.777697699843,429.5516399999615,"[-2.6629500000271946, 0.21759089990518987]",,,,,,,,,wxbjqe,002,fr,1,2022-05-16_17h57.54.371,Continuous,2022.1.1,None,
12,0,12,0,8,0,8,0,,,,,,,,2.754999487002715,time,7127.0,14.253933303472827,0.0008002803365035649,0,,91,['none'],0.0011861666571348906,None,None,432.56717319996096,432.56717319996096,0.21360446652397513,2.96860395352669,432.7876128000207,432.56717319996096,,,,,,,,,,wxbjqe,002,fr,1,2022-05-16_17h57.54.371,Continuous,2022.1.1,None,
13,0,13,0,0,0,0,0,,,,,,440.69893969991244,None,1.5400373224523511,frequency,181.0,3.18779406959212,0.00048302242089700946,0,,90,['none'],0.006320766638964415,None,None,441.74392419983633,None,0.21289396658539772,1.7529312890377489,441.96395819983445,None,,435.569947599899,None,0.5833333333333334,,,,,,wxbjqe,002,fr,1,2022-05-16_17h57.54.371,Continuous,2022.1.1,None,
13,0,13,0,1,0,1,0,,,,,,,,1.8323011588704812,frequency,271.0,0.09025237193742641,0.0001467520917628665,0,,91,['none'],0.0030551666859537363,0.19015126675367355,None,443.54469170002267,443.54469170002267,0.19015126675367355,2.022452425624155,443.746045100037,443.54469170002267,,,,,,,,,,wxbjqe,002,fr,1,2022-05-16_17h57.54.371,Continuous,2022.1.1,None,
13,0,13,0,2,0,2,0,,,,,,,,2.4988967003050933,frequency,406.0,0.7464753790294764,8.3090437183517e-05,0,,92,['none'],0.003487766720354557,None,['space'],445.6107546000276,445.6107546000276,0.21546116680838168,2.714357867113475,445.82363360002637,445.6107546000276,[-1.2259043999947608],,,,,,,,,wxbjqe,002,fr,1,2022-05-16_17h57.54.371,Continuous,2022.1.1,None,
13,0,13,0,3,0,3,0,,,,,,,,2.8302070217214936,frequency,609.0,1.4268120290279191,6.415994197329718e-05,0,,93,['none'],0.016484133433550596,None,['space'],448.3546793998685,448.3546793998685,0.2236783334519714,3.053885355173465,448.5733354999684,448.3546793998685,[-2.393332100007683],,,,,,,,,wxbjqe,002,fr,1,2022-05-16_17h57.54.371,Continuous,2022.1.1,None,
13,0,13,0,4,0,4,0,,,,,,,,2.3971714316981023,frequency,912.0,-0.19892482159784786,4.0610524308327446e-05,0,,94,['none'],0.014684233581647277,None,['space'],451.4422488999553,451.4422488999553,0.2304738333914429,2.627645265089545,451.6689334998373,451.4422488999553,[-2.67280640010722],,,,,,,,,wxbjqe,002,fr,1,2022-05-16_17h57.54.371,Continuous,2022.1.1,None,
13,0,13,0,5,0,5,0,,,,,,,,1.2267502360623175,frequency,1366.0,-1.7942167868201357,4.199384162551064e-05,0,,95,['none'],0.015493233455345035,None,['space'],454.09115529991686,454.09115529991686,0.21486943354830146,1.441619669610619,454.31169749982655,454.09115529991686,[-1.0888622000347823],,,,,,,,,wxbjqe,002,fr,1,2022-05-16_17h57.54.371,Continuous,2022.1.1,None,
13,0,13,0,6,0,6,0,,,,,,,,2.9619448901272643,frequency,2047.0,-0.8571543824248797,6.872563062735866e-05,0,,96,['none'],0.015935733448714018,None,None,455.5733936999459,455.5733936999459,0.2204409334808588,3.182385823608123,455.788074699929,455.5733936999459,,,,,,,,,,wxbjqe,002,fr,1,2022-05-16_17h57.54.371,Continuous,2022.1.1,None,
13,0,13,0,7,0,7,0,,,,,,,,1.2082063566585122,frequency,3067.0,-1.3610182011229666,5.2293579260814786e-05,0,,97,['none'],0.012235333444550633,None,['space'],458.7874233999755,458.7874233999755,0.21593623352237046,1.4241425901808826,459.01310099987313,458.7874233999755,[-2.7306429999880493],,,,,,,,,wxbjqe,002,fr,1,2022-05-16_17h57.54.371,Continuous,2022.1.1,None,
13,0,13,0,8,0,8,0,,,,,,,,2.6959177661834963,frequency,4595.0,-2.0,9.919545933000921e-05,0,,98,['none'],0.01573103340342641,None,['space'],460.2520001998637,460.2520001998637,0.2276489334180951,2.9235666996015914,460.47479450004175,460.2520001998637,[-0.283120300155133],,,,,,,,,wxbjqe,002,fr,1,2022-05-16_17h57.54.371,Continuous,2022.1.1,None,
13,0,13,0,9,0,9,0,,,,,,,,2.024382751660861,frequency,6885.0,15.337265768210079,0.0008637011626315219,0,,99,['none'],0.015298633370548487,None,None,463.19966669986024,463.19966669986024,0.2227689332794398,2.2471516849403006,463.42047409992665,463.19966669986024,,,,,,,,,,wxbjqe,002,fr,1,2022-05-16_17h57.54.371,Continuous,2022.1.1,None,
13,0,13,0,10,0,10,0,,,,,,,,1.8727088412719635,frequency,,,,1,,99,['none'],0.0034295665100216866,None,['space'],465.4834509999491,465.4834509999491,0.2060691665392369,2.0787780078112004,465.6952048998792,465.4834509999491,[-1.7544362999033183],,,,,,,,,wxbjqe,002,fr,1,2022-05-16_17h57.54.371,Continuous,2022.1.1,None,
14,0,14,0,0,0,0,0,,,,,,473.4722810999956,None,1.275067450485609,frequency,181.0,0.402371708882594,0.0003505065775110934,0,,100,['none'],0.01253836671821773,None,None,474.51498039998114,None,0.21606446662917733,1.4911319171147863,474.73137880000286,None,,467.5966103998944,None,0.3333333333333333,,,,,,wxbjqe,002,fr,1,2022-05-16_17h57.54.371,Continuous,2022.1.1,None,
14,0,14,0,1,0,1,0,,,,,,,,1.5124912614541899,frequency,228.0,1.8492102460088333,0.0002605479980673424,0,,101,['none'],0.01442623371258378,None,['space'],476.0312057000119,476.0312057000119,0.21541433362290263,1.7279055950770925,476.24994649994187,476.0312057000119,[-1.1422701999545097],,,,,,,,,wxbjqe,002,fr,1,2022-05-16_17h57.54.371,Continuous,2022.1.1,None,
14,0,14,0,2,0,2,0,,,,,,,,1.5178532069326929,frequency,287.0,-8.088323437956046,5.055432444718668e-05,0,,102,['none'],0.013852433767169714,None,['space'],477.80159349995665,477.80159349995665,0.22319863364100456,1.7410518405736974,478.0228450000286,477.80159349995665,[-1.3209214000962675],,,,,,,,,wxbjqe,002,fr,1,2022-05-16_17h57.54.371,Continuous,2022.1.1,None,
14,0,14,0,3,0,3,0,,,,,,,,1.5438266998642591,frequency,362.0,1.0256384209791962,9.725092554920263e-05,0,,103,['none'],0.015199533430859447,None,None,479.5699382999446,479.5699382999446,0.2265353335533291,1.7703620334175882,479.7972418998834,479.5699382999446,,,,,,,,,,wxbjqe,002,fr,1,2022-05-16_17h57.54.371,Continuous,2022.1.1,None,
14,0,14,0,4,0,4,0,,,,,,,,1.2910706082219348,frequency,456.0,-8.771118331714792,2.684541085198537e-05,0,,104,['none'],0.0001163664273917675,None,['space'],481.3701174999587,481.3701174999587,0.21291936631314456,1.5039899745350793,481.5926260999404,481.3701174999587,[-1.4170307000167668],,,,,,,,,wxbjqe,002,fr,1,2022-05-16_17h57.54.371,Continuous,2022.1.1,None,
14,0,14,0,5,0,5,0,,,,,,,,2.751849744751147,frequency,575.0,-2.503418458158016,4.478455303075127e-05,0,,105,['none'],0.0019225666765123606,None,None,482.91722219996154,482.91722219996154,0.2073122668080032,2.95916201155915,483.1353618998546,482.91722219996154,,,,,,,,,,wxbjqe,002,fr,1,2022-05-16_17h57.54.371,Continuous,2022.1.1,None,
14,0,14,0,6,0,6,0,,,,,,,,2.227492370461756,frequency,724.0,-0.14359446114440022,4.2217793561980186e-05,0,,106,['none'],0.01096593332476914,None,['space'],485.91681630001403,485.91681630001403,0.21514143329113722,2.4426338037528934,486.1431368999183,485.91681630001403,[-2.5400515999644995],,,,,,,,,wxbjqe,002,fr,1,2022-05-16_17h57.54.371,Continuous,2022.1.1,None,
14,0,14,0,7,0,7,0,,,,,,,,2.4402540867068474,frequency,912.0,-6.491327626391297,1.9679699211946632e-05,0,,107,['none'],0.002293166471645236,None,None,488.40579089988023,488.40579089988023,0.21286726649850607,2.6531213532053535,488.623299599858,488.40579089988023,,,,,,,,,,wxbjqe,002,fr,1,2022-05-16_17h57.54.371,Continuous,2022.1.1,None,
14,0,14,0,8,0,8,0,,,,,,,,2.173673838185984,frequency,1149.0,-10.0,1.5901413636511987e-05,0,,108,['none'],0.0021809665486216545,None,None,491.0929222998675,491.0929222998675,0.21422856650315225,2.3879024046891364,491.3151906998828,491.0929222998675,,,,,,,,,,wxbjqe,002,fr,1,2022-05-16_17h57.54.371,Continuous,2022.1.1,None,
14,0,14,0,9,0,9,0,,,,,,,,1.112338042035282,frequency,1448.0,-7.4309103958533065,2.1080433280917724e-05,0,,109,['none'],0.014529433567076921,None,None,493.52075819997117,493.52075819997117,0.2231850337702781,1.33552307580556,493.7448246998247,493.52075819997117,,,,,,,,,,wxbjqe,002,fr,1,2022-05-16_17h57.54.371,Continuous,2022.1.1,None,
14,0,14,0,10,0,10,0,,,,,,,,2.587535366214569,frequency,1824.0,1.1068507172058681,7.595219364803453e-05,0,,110,['none'],0.01556053338572383,None,None,494.88374169985764,494.88374169985764,0.21991713345050812,2.807452499665077,495.1013700000476,494.88374169985764,,,,,,,,,,wxbjqe,002,fr,1,2022-05-16_17h57.54.371,Continuous,2022.1.1,None,
14,0,14,0,11,0,11,0,,,,,,,,1.2388944183849726,frequency,2298.0,-2.0127887631217942,6.457717153976171e-05,0,,111,"['none', 'frequency']",0.014497533440589905,None,['space'],497.7203124000225,497.7203124000225,0.2146744334604591,1.4535688518454317,497.9380260000471,497.7203124000225,[-2.2796225000638515],,,,"{'estimation': [[125.0, 9.241286219629018], [127.96499226344862, 9.0], [133.9716828170366, 8.552711423334468], [139.69255840333707, 8.0], [143.5872943746293, 7.641719931167264], [150.16546737577693, 7.000000000000001], [153.89305166811442, 6.649452694743542], [161.39052695427608, 6.0], [164.93848884661162, 5.7029900266220785], [175.08211156621428, 5.0], [176.77669529663666, 4.886102991666441], [189.46457081379947, 4.223048022795172], [194.87266122336516, 4.0], [203.0630990890585, 3.67466836499344], [217.6376408240306, 3.169619619759033], [222.28093523026928, 3.0], [233.25824788420132, 2.6177510151456325], [248.83066619838652, 2.0], [249.99999999999937, 1.955232548109762], [267.94336563407256, 1.154868514140516], [271.12307983942867, 1.0], [287.1745887492579, 0.23635465380370468], [292.0961835044448, 0.0], [307.78610333622805, -0.7363008701711988], [313.88978744361555, -1.0], [329.87697769322244, -1.6716427538218817], [339.50034177061764, -2.0], [353.55339059327247, -2.4648507892878504], [378.602570946852, -3.0], [378.929141627598, -3.006806547865635], [406.12619817811606, -3.2037388906384505], [431.8137869864938, -3.0], [435.2752816480601, -2.973592204069754], [466.5164957684015, -2.286132386015461], [474.8333876726307, -2.0], [499.9999999999975, -1.1700185393817577], [504.1562033558371, -1.0], [529.3715132233626, 0.0], [535.8867312681438, 0.24664561801309082], [554.9900575151582, 1.0], [574.3491774985143, 1.729720785379942], [583.0563920156966, 2.0], [615.5722066724546, 2.970167575862538], [617.4907580400405, 3.0], [659.7539553864424, 3.6301593226855124], [707.1067811865431, 3.440440347436237], [726.0790664106934, 3.0], [757.8582832551941, 2.285048948793309], [765.4441112313308, 2.0], [792.0176169221392, 1.0], [812.2523963562301, 0.2672940804527232], [818.3660452560165, 0.0], [840.7930311110232, -1.0], [863.7173645526816, -2.0], [870.5505632961181, -2.285555701466547], [887.6969283984774, -3.0], [911.3652796604476, -4.0], [933.0329915368008, -4.877713906675766], [936.9399586056014, -5.0], [968.4837738886325, -6.0], [999.9999999999926, -6.974029433363272], [1001.5954008987899, -7.0], [1063.7301214047054, -8.0], [1071.773462536285, -8.12720713110547], [1148.698354997026, -8.097594746051639], [1155.3002909122995, -8.0], [1225.5536366191134, -7.0], [1231.1444133449063, -6.92365367339322], [1270.7439216168916, -6.0], [1315.1249171100512, -5.0], [1319.5079107728832, -4.90556926182321], [1354.6618357492514, -4.0], [1394.1649401625855, -3.0], [1414.2135623730828, -2.5195772811875328], [1437.3062004371322, -2.0], [1482.1139691988842, -1.0], [1515.7165665103846, -0.28782770176896355], [1534.27082125654, 0.0], [1600.251092991583, 1.0], [1624.5047927124563, 1.3509559303745606], [1719.423312894137, 2.0], [1741.1011265922318, 2.142311618349515], [1866.065983073597, 2.059453591384128], [1875.9517306947916, 2.0], [1999.9999999999802, 1.2743541280259025], [2032.4621654966143, 1.0], [2143.5469250725646, 0.07786381837654288], [2152.5967248277225, 0.0], [2269.9353800067183, -1.0], [2297.396709994046, -1.228933654305107], [2403.496103038201, -2.0], [2462.2888266898062, -2.4163251634221057], [2567.345912748604, -3.0], [2639.0158215457564, -3.3858417428690246], [2788.8581665557367, -4.0], [2828.427124746159, -4.156924389244534], [3031.4331330207615, -4.812401583979222], [3097.314363979605, -5.0], [3249.0095854249043, -5.420092477715297], [3482.2022531844555, -5.951444674016449], [3519.7963406326535, -6.0], [3732.1319661471844, -6.267814887509603], [3999.9999999999504, -6.126302021273203], [4041.197025878498, -6.0], [4287.093850145118, -5.273150483401943], [4334.480528075406, -5.0], [4509.7542035685865, -4.0], [4594.793419988081, -3.5317016910669494], [4661.056709840958, -3.0], [4784.003014147643, -2.0], [4910.906497764269, -1.0], [4924.577653379601, -0.896935910917471], [5020.028780466616, 0.0], [5123.5116531380345, 1.0], [5230.28151524891, 2.0], [5278.031643091506, 2.42021739043825], [5339.400005688314, 3.0], [5441.388167071076, 4.0], [5543.819331217645, 5.0], [5653.782370900344, 6.0], [5656.854249492303, 6.026389122325955], [5772.011866489178, 7.0], [5887.846573900732, 8.0], [6009.116186661091, 9.0], [6062.866266041508, 9.412685132934484], [6156.308497811335, 10.0], [6314.967922293054, 11.0], [6482.959338955436, 12.0], [6498.019170849792, 12.085056215091779], [6761.50688813846, 13.0], [6964.404506368894, 13.670306327521725], [7456.568321739463, 14.0], [7464.2639322943505, 14.005085542249212], [7467.548109489705, 14.0], [7999.999999999882, 13.151595044780406]], 'plus_line': [[125.0, 3.958733838497614], [133.9716828170366, 3.514720417108424], [139.71223561574251, 3.0], [143.5872943746293, 2.6624799449756003], [150.38309638448794, 2.0], [153.89305166811442, 1.6682071038947521], [161.5504686903434, 1.0], [164.93848884661162, 0.7118979599124545], [175.07445413503132, 0.0], [176.77669529663666, -0.11818530534539445], [189.46457081379947, -0.8034904592135643], [194.33505213862935, -1.0], [203.0630990890585, -1.354517310309736], [217.6376408240306, -1.8225007825561454], [223.05489517629618, -2.0], [233.25824788420132, -2.335672886286642], [249.99999999999937, -2.9780912517283333], [250.45634506995626, -3.0], [267.94336563407256, -3.8312976613187595], [271.1382274281462, -4.0], [287.1745887492579, -4.835329490768106], [290.34139633718485, -5.0], [307.78610333622805, -5.890332973003175], [310.1886844584963, -6.0], [329.87697769322244, -6.880881457931547], [333.2662669579729, -7.0], [353.55339059327247, -7.704340895440774], [367.1479578286659, -8.0], [378.929141627598, -8.259431275545136], [406.12619817811606, -8.462913327854634], [435.2752816480607, -8.222262980769845], [444.4129867499479, -8.0], [466.5164957684015, -7.500230416767528], [480.3690423922022, -7.0], [499.99999999999693, -6.314387964282427], [507.3879565975267, -6.0], [531.1047989061049, -5.0], [535.8867312681438, -4.805983848876121], [555.6554287570716, -4.0], [574.3491774985143, -3.23933479368461], [581.7688366721843, -3.0], [613.3735394761771, -2.0], [615.5722066724546, -1.933347440712911], [659.7539553864432, -1.256591031436399], [707.1067811865431, -1.45799861971385], [729.6505232864197, -2.0], [757.8582832551941, -2.6514920565591273], [766.5085500444238, -3.0], [791.5663096073586, -4.0], [812.2523963562301, -4.746170329984103], [817.5393353782731, -5.0], [837.8404204415637, -6.0], [860.0670185159695, -7.000000000000001], [870.550563296117, -7.433411110783451], [882.6463673187236, -8.0], [904.0449136927053, -9.0], [927.8995014987943, -10.0], [933.0329915368008, -10.203793849519165], [955.1863853744873, -11.0], [984.4782857665305, -12.0], [999.9999999999926, -12.494298236648135], [1027.6811774881444, -13.0], [1071.773462536285, -13.77976654050607], [1148.698354997026, -13.786029080281066], [1200.2617872948301, -13.0], [1231.1444133449063, -12.542662738481038], [1253.6318062758714, -12.0], [1294.055604329581, -11.0], [1319.5079107728816, -10.377018567315467], [1334.0157533466067, -10.0], [1371.3584067018535, -9.0], [1407.4659833128958, -8.0], [1414.2135623730828, -7.822936862000273], [1450.6528648115964, -7.0], [1492.6914724720302, -6.0], [1515.7165665103846, -5.465271644397852], [1545.1093720609024, -5.0], [1607.578247993879, -4.0], [1624.5047927124563, -3.7378063091596534], [1726.5762788233824, -3.0], [1741.1011265922318, -2.9008896062028215], [1866.065983073597, -2.98998584359207], [1867.6199234127532, -3.0], [1999.9999999999802, -3.848425224931295], [2016.3041546005425, -4.0], [2125.5276858676307, -5.0], [2143.5469250725646, -5.160206254467977], [2232.1837177953525, -6.0], [2297.396709994046, -6.585883598583305], [2350.361239638802, -7.0], [2462.2888266898062, -7.838222583266256], [2490.721102553059, -8.0], [2639.01582154576, -8.816898270970539], [2684.662376103984, -9.0], [2828.427124746159, -9.565291532237541], [2967.6300687828248, -10.0], [3031.4331330207615, -10.198294582225003], [3249.0095854249043, -10.819142531662068], [3321.793420470185, -11.0], [3482.2022531844555, -11.40333111168238], [3732.1319661471844, -11.768609015671856], [3999.9999999999504, -11.673354747211546], [4230.225911844526, -11.0], [4287.093850145118, -10.840390968146306], [4438.130759905417, -10.0], [4594.793419988081, -9.095449291185886], [4607.343308356435, -9.0], [4736.364858450188, -8.0], [4855.548925491655, -7.0], [4924.577653379601, -6.426824190576513], [4973.585145352847, -6.0], [5081.091195868363, -5.0], [5179.918384095999, -4.0], [5278.031643091506, -3.004653528252325], [5278.567776153679, -3.0], [5390.895074580287, -2.0], [5490.277962795017, -1.0], [5584.837081852891, 0.0], [5656.854249492303, 0.727993059513081], [5691.558867725155, 1.0], [5812.320026416155, 2.0], [5921.884755774541, 3.0], [6030.428486611837, 4.0], [6062.866266041508, 4.276494263707952], [6180.534993745729, 5.0], [6331.941649670006, 6.0], [6481.1422951943705, 7.0], [6498.019170849792, 7.105336787016791], [6748.226823207874, 8.0], [6964.404506368894, 8.776141022798697], [7366.497641123346, 9.0], [7464.2639322943505, 9.04983328938267], [7487.010197197161, 9.0], [7927.778115290124, 8.0], [7999.999999999872, 7.833887375656217]], 'minus_line': [[125.0, 14.709949430710967], [131.38811683592104, 14.0], [133.9716828170366, 13.738346683963812], [140.97538723206722, 13.0], [143.5872943746292, 12.739313831271225], [150.9983546068962, 12.0], [153.8930516681143, 11.722698060371686], [162.14433140911618, 11.0], [164.93848884661162, 10.765366286682463], [175.9653865558933, 10.0], [176.77669529663666, 9.946409100947], [189.46457081379947, 9.299788635526863], [196.4530647874524, 9.0], [203.0630990890585, 8.738153689822468], [217.6376408240306, 8.181486755618328], [221.9591902858899, 8.0], [233.25824788420132, 7.566239950644093], [246.3352569711413, 7.0], [249.99999999999937, 6.852316252225027], [267.94336563407256, 6.052426234642353], [269.0474533274203, 6.0], [287.1745887492579, 5.178016666865103], [290.9915996136802, 5.0], [307.78610333622805, 4.246650030121143], [313.544979618125, 4.0], [329.87697769322244, 3.330304797067864], [339.42188003332245, 3.0], [353.55339059327247, 2.5378153456266856], [378.1347657452912, 2.0], [378.929141627598, 1.9837775670916409], [406.12619817811606, 1.8020614786180655], [430.91964963744476, 2.0], [435.2752816480601, 2.036154744105549], [466.5164957684015, 2.72752139556701], [474.62509276327614, 3.0], [499.9999999999975, 3.817115879167961], [504.55406941925935, 4.0], [530.4554863202192, 5.0], [535.8867312681438, 5.197860655267759], [556.3516247645641, 6.0], [574.3491774985143, 6.651049002780286], [585.7325436692847, 7.0], [615.5722066724554, 7.867726763484597], [624.3612714136793, 8.0], [659.7539553864432, 8.530424410642683], [707.1067811865431, 8.335366767658272], [721.4023357751366, 8.0], [757.8582832551941, 7.165096858459424], [762.4178591160569, 7.0], [789.6016899362502, 6.0], [812.2523963562301, 5.141600908839459], [815.7446000241728, 5.0], [839.6085943977084, 4.0], [861.7936997324086, 3.0], [870.5505632961181, 2.6199488720232913], [886.8897306781197, 2.0], [911.3177802434418, 1.0], [933.0329915368008, 0.09185741999542996], [936.2339747269781, 0.0], [970.4354775613073, -1.0], [999.9999999999926, -1.9051273645722429], [1006.2670885635397, -2.0], [1071.773462536285, -2.9750174627148533], [1148.698354997026, -2.9124372928673052], [1213.7391413994726, -2.0], [1231.1444133449063, -1.767771815226256], [1263.9804168236099, -1.0], [1310.6524457368519, 0.0], [1319.5079107728832, 0.1779425191800601], [1350.7724543335833, 1.0], [1391.672548754981, 2.0], [1414.2135623730828, 2.4967180026980573], [1436.201741945886, 3.0], [1481.4636284961748, 4.0], [1515.7165665103846, 4.674800595977314], [1536.7519647504612, 5.0], [1604.4062528927032, 6.0], [1624.5047927124563, 6.2772821893537305], [1736.3147485279626, 7.0], [1741.1011265922318, 7.030549718012425], [1777.2427119379784, 7.0], [1866.065983073597, 6.933652776848405], [1999.9999999999802, 6.173752884692258], [2021.5834493874547, 6.0], [2143.5469250725646, 5.031457070163218], [2147.4433139269704, 5.0], [2272.846996858592, 4.0], [2297.396709994046, 3.806163312552379], [2414.5944180875977, 3.0], [2462.2888266898062, 2.6768738842131543], [2586.8990602729896, 2.0], [2639.01582154576, 1.7261493341849343], [2815.581994444571, 1.0], [2828.427124746162, 0.9495920848206423], [3031.4331330207615, 0.3127332127289949], [3146.4319011414896, 0.0], [3249.0095854249084, -0.26217179707710186], [3482.2022531844555, -0.7530045235210212], [3687.0226193893855, -1.0], [3732.1319661471844, -1.04981583819174], [3825.9994153442385, -1.0], [3999.9999999999504, -0.9047292272502068], [4287.093850145118, -0.0653343674021675], [4298.174197717966, 0.0], [4469.070751221536, 1.0], [4594.793419988076, 1.6661466488323655], [4634.477696203107, 2.0], [4752.422643297346, 3.0], [4884.385848252977, 4.0], [4924.577653379601, 4.2796845988444465], [4996.1435330365985, 5.0], [5095.295944395375, 6.0], [5206.263607597773, 7.0], [5278.031643091506, 7.566976166620344], [5321.234206753309, 8.0], [5416.982644701243, 9.0], [5519.578556318429, 10.0], [5641.152676064067, 11.0], [5656.854249492303, 11.119168772324239], [5754.414765061566, 12.0], [5867.619840036835, 13.0], [5997.041955435282, 14.0], [6062.866266041508, 14.450527181379556], [6147.570985324413, 15.0], [6305.449348364107, 16.0], [6488.5895754659805, 17.0], [6498.019170849792, 17.048703597771222], [6771.643190808295, 18.0], [6964.404506368894, 18.610509509894662], [7442.058638080806, 19.0], [7464.2639322943505, 19.018947682209774], [7483.66974792641, 19.0], [7999.999999999882, 18.508343923617474]]}",,,,,wxbjqe,002,fr,1,2022-05-16_17h57.54.371,Continuous,2022.1.1,None,
14,0,14,0,12,0,12,0,,,,,,,,2.701231535073801,frequency,2895.0,-0.6501225529251506,5.692471203088116e-05,0,,112,"['none', 'frequency']",0.000435766763985157,0.18985406681895256,None,499.21913299988955,499.21913299988955,0.18985406681895256,2.8910856018927538,499.42467499990016,499.21913299988955,,,,,,,,,,wxbjqe,002,fr,1,2022-05-16_17h57.54.371,Continuous,2022.1.1,None,
14,0,14,0,13,0,13,0,,,,,,,,1.6121760922984785,frequency,3647.0,0.21295478838486237,7.967322568988358e-05,0,,113,"['none', 'frequency']",0.01369223347865045,None,['space'],502.15829189983197,502.15829189983197,0.21905493340454996,1.8312310257030284,502.3790129998233,502.15829189983197,[-2.373383400030434],,,,,,,,,wxbjqe,002,fr,1,2022-05-16_17h57.54.371,Continuous,2022.1.1,None,
14,0,14,0,14,0,14,0,,,,,,,,2.665500629766523,frequency,,,,1,,113,"['none', 'frequency']",0.013740733498707414,None,['space'],504.0261647000443,504.0261647000443,0.21728543331846595,2.882786063084989,504.24556139996275,504.0261647000443,[-1.3049737000837922],,,,,,,,,wxbjqe,002,fr,1,2022-05-16_17h57.54.371,Continuous,2022.1.1,None,
15,0,15,0,0,0,0,0,,,,,,510.3246773998253,None,1.4534125844471597,both,315.0,10.976826654127281,0.00034898867749557006,0,,75,"['none', 'frequency']",0.012935366714373231,None,None,511.3528583999723,None,0.24400106677785516,1.6974136512250149,511.58984589995816,None,,506.94878829992376,None,0.5833333333333334,,,,,,wxbjqe,002,fr,1,2022-05-16_17h57.54.371,Continuous,2022.1.1,None,
15,0,15,0,1,0,1,0,,,,,,,,1.4534125844471597,both,,,,1,,75,"['none', 'frequency']",0.013099733274430037,None,['space'],513.0677377998363,513.0677377998363,0.21691463328897953,1.6703272177361392,513.2868914999999,513.0677377998363,[-1.0187169997952878],,,,,,,,,wxbjqe,002,fr,1,2022-05-16_17h57.54.371,Continuous,2022.1.1,None,
15,0,15,0,2,0,2,0,,,,,,,,1.4534125844471597,both,707.0,10.508398666773195,0.0001489098114990614,0,,76,"['none', 'frequency']",0.015582433436065912,None,None,514.7748596998863,514.7748596998863,0.21829973347485065,1.6717123179220104,515.0003408999182,514.7748596998863,,,,,,,,,,wxbjqe,002,fr,1,2022-05-16_17h57.54.371,Continuous,2022.1.1,None,
15,0,15,0,3,0,3,0,,,,,,,,1.4534125844471597,both,1059.0,4.500642258442695,7.810414750332665e-05,0,,77,"['none', 'frequency']",0.013704033335670829,None,['space'],516.4902174000163,516.4902174000163,0.21616103337146342,1.6695736178186231,516.7048708999064,516.4902174000163,[-1.241223999997601],,,,,,,,,wxbjqe,002,fr,1,2022-05-16_17h57.54.371,Continuous,2022.1.1,None,
15,0,15,0,4,0,4,0,,,,,,,,1.4534125844471597,both,1587.0,8.485488243777453,0.00014782828518411764,0,,78,"['none', 'frequency']",0.014078033389523625,None,['space'],518.1960223000497,518.1960223000497,0.2229306334629655,1.6763432179101252,518.4251155999955,518.1960223000497,[-1.058011299930513],,,,,,,,,wxbjqe,002,fr,1,2022-05-16_17h57.54.371,Continuous,2022.1.1,None,
15,0,15,0,5,0,5,0,,,,,,,,1.4534125844471597,both,2378.0,5.60616285936224,0.00015862971742248573,0,,79,"['none', 'frequency']",0.01399473357014358,None,['space'],519.9080845999997,519.9080845999997,0.2257474334910512,1.679160017938211,520.1285639000125,519.9080845999997,[-1.3146776999346912],,,,,,,,,wxbjqe,002,fr,1,2022-05-16_17h57.54.371,Continuous,2022.1.1,None,
15,0,15,0,6,0,6,0,,,,,,,,1.4534125844471597,both,3563.0,4.355718909722394,0.0001259314856728522,0,,80,"['none', 'frequency']",0.013215833343565464,None,"['space', 'space']",521.6163073000498,521.6163073000498,0.22372313332743943,1.6771357177745991,521.8481695998926,521.6163073000498,"[-1.4710835998412222, 0.2098455000668764]",,,,,,,,,wxbjqe,002,fr,1,2022-05-16_17h57.54.371,Continuous,2022.1.1,None,
15,0,15,0,7,0,7,0,,,,,,,,1.4534125844471597,both,5339.0,10.601997821173272,0.0004753212411094625,0,,81,"['none', 'frequency']",0.016626033233478665,None,None,523.3273044999223,523.3273044999223,0.23842393327504396,1.6918365177222037,523.55326649989,523.3273044999223,,,,,,,,,,wxbjqe,002,fr,1,2022-05-16_17h57.54.371,Continuous,2022.1.1,None,
15,0,15,0,8,0,8,0,,,,,,,,1.4534125844471597,both,8000.0,12.0,0.000722719885372964,0,,82,"['none', 'frequency']",0.014550433494150639,None,['space'],525.0368530999403,525.0368530999403,0.21927223354578018,1.6726848179929399,525.2611040000338,525.0368530999403,[-1.4744812999852002],,,,,,,,,wxbjqe,002,fr,1,2022-05-16_17h57.54.371,Continuous,2022.1.1,None,
16,0,16,0,0,0,0,0,,,,,,533.3725351998582,None,1.9790818494223645,both,3174.0,2.412079114794953,9.166781259907291e-05,0,,83,"['none', 'frequency']",0.01290166680701077,None,None,534.4158930999693,None,0.23311566677875817,2.2121975162011225,534.6406151999254,None,,526.749007999897,None,0.16666666666666666,,,,,,wxbjqe,002,fr,1,2022-05-16_17h57.54.371,Continuous,2022.1.1,None,
16,0,16,0,1,0,1,0,,,,,,,,1.9790818494223645,both,,,,1,,83,"['none', 'frequency']",0.013190233381465077,None,['space'],536.648399699945,536.648399699945,0.2251492333598435,2.204231082782208,536.8728117998689,536.648399699945,[-1.5991154999937862],,,,,,,,,wxbjqe,002,fr,1,2022-05-16_17h57.54.371,Continuous,2022.1.1,None,
16,0,16,0,2,0,2,0,,,,,,,,1.9790818494223645,both,3999.0,5.193493989918627,0.00015259976750253405,0,,84,"['none', 'frequency']",0.013721233466640115,None,None,538.8795530998614,538.8795530998614,0.2150147333741188,2.194096582796483,539.0973910000175,538.8795530998614,,,,,,,,,,wxbjqe,002,fr,1,2022-05-16_17h57.54.371,Continuous,2022.1.1,None,
16,0,16,0,3,0,3,0,,,,,,,,1.9790818494223645,both,4489.0,5.249508986043401,0.0002151949328449357,0,,85,"['none', 'frequency']",0.0006315663922578096,None,['space'],541.1140060999896,541.1140060999896,0.21124816639348865,2.190330015815853,541.3341261998285,541.1140060999896,[-1.8572440999560058],,,,,,,,,wxbjqe,002,fr,1,2022-05-16_17h57.54.371,Continuous,2022.1.1,None,
16,0,16,0,4,0,4,0,,,,,,,,1.9790818494223645,both,5039.0,8.76881710519286,0.00041524307541189166,0,,86,"['none', 'frequency']",0.012823733501136303,None,"['space', 'space']",543.3424128999468,543.3424128999468,0.21788243344053626,2.1969642828629006,543.5720014998224,543.3424128999468,"[-1.821306300116703, 0.21152219991199672]",,,,,,,,,wxbjqe,002,fr,1,2022-05-16_17h57.54.371,Continuous,2022.1.1,None,
16,0,16,0,5,0,5,0,,,,,,,,1.9790818494223645,both,5656.0,9.24729151411091,0.00037278135482791546,0,,87,"['none', 'frequency']",0.014526733430102468,None,['space'],545.5845500000287,545.5845500000287,0.21896043349988759,2.198042282922252,545.8053712998517,545.5845500000287,[0.21705990005284548],,,,,,,,,wxbjqe,002,fr,1,2022-05-16_17h57.54.371,Continuous,2022.1.1,None,
16,0,16,0,6,0,6,0,,,,,,,,1.9790818494223645,both,6349.0,10.889670056240359,0.00046066697346747214,0,,88,"['none', 'frequency']",0.012805333593860269,None,['space'],547.8211367998738,547.8211367998738,0.2171805335674435,2.196262382989808,548.0426395998802,547.8211367998738,[-0.05165000003762543],,,,,,,,,wxbjqe,002,fr,1,2022-05-16_17h57.54.371,Continuous,2022.1.1,None,
16,0,16,0,7,0,7,0,,,,,,,,1.9790818494223645,both,7127.0,13.013982629608051,0.0006938164817577227,0,,89,"['none', 'frequency']",0.013689133571460843,None,['space'],550.0628584998194,550.0628584998194,0.2272270335815847,2.206308883003949,550.2852631998248,550.0628584998194,[0.17974609998054802],,,,,,,,,wxbjqe,002,fr,1,2022-05-16_17h57.54.371,Continuous,2022.1.1,None,
16,0,16,0,8,0,8,0,,,,,,,,1.9790818494223645,both,8000.0,7.0,0.00040641525808204974,0,,90,"['none', 'frequency']",0.013551733456552029,None,None,552.2919152998365,552.2919152998365,0.21799683338031173,2.197078682802676,552.5133715998381,552.2919152998365,,,,,,,,,,wxbjqe,002,fr,1,2022-05-16_17h57.54.371,Continuous,2022.1.1,None,
17,0,17,0,0,0,0,0,,,,,"[0.3333333333333333, 0.5833333333333334, 0.3333333333333333, 0.3333333333333333, 0.5833333333333334, 0.5833333333333334, 0.16666666666666666, 0.5833333333333334, 0.5833333333333334, 0.16666666666666666, 0.16666666666666666, 0.16666666666666666, 0.3333333333333333, 0.16666666666666666, 0.3333333333333333]",559.2072627998423,None,1.072135847362128,time,749.0,4.02849661605922,6.476358898616338e-05,0,,92,"['none', 'frequency']",0.01252906653098762,None,None,560.2440763998311,None,0.21251086657866836,1.2846467139407964,560.4529238999821,None,,554.5299729998223,None,,,,,,,wxbjqe,002,fr,1,2022-05-16_17h57.54.371,Continuous,2022.1.1,None,
17,0,17,0,1,0,1,0,,,,,,,,1.072135847362128,time,1122.0,3.258245163770396,7.152915183028752e-05,0,,93,"['none', 'frequency']",0.010585033567622304,None,['space'],561.5629022000358,561.5629022000358,0.21067523350939155,1.2828110808715196,561.7912256999407,561.5629022000358,[-0.905836199875921],,,,,,,,,wxbjqe,002,fr,1,2022-05-16_17h57.54.371,Continuous,2022.1.1,None,
17,0,17,0,2,0,2,0,,,,,,,,1.072135847362128,time,1887.0,3.9433021737701814,0.00010976325156555063,0,,94,"['none', 'frequency']",0.013184333452954888,None,"['space', 'space']",562.8915380998515,562.8915380998515,0.2224706334527582,1.2946064808148863,563.1183215000201,562.8915380998515,"[-0.8412120998837054, 0.1657683001831174]",,,,,,,,,wxbjqe,002,fr,1,2022-05-16_17h57.54.371,Continuous,2022.1.1,None,
17,0,17,0,3,0,3,0,,,,,,,,1.072135847362128,time,187.0,3.7706358198313765,0.0004828161378499295,0,,95,"['none', 'frequency']",0.012263433542102575,None,['space'],564.2218349999748,564.2218349999748,0.21857203356921673,1.2907078809313448,564.4381269998848,564.2218349999748,[0.0028485001530498266],,,,,,,,,wxbjqe,002,fr,1,2022-05-16_17h57.54.371,Continuous,2022.1.1,None,
17,0,17,0,4,0,4,0,,,,,,,,1.072135847362128,time,2118.0,3.7515651981998395,0.00011925418116260245,0,,96,"['none', 'frequency']",0.012369133532047272,None,['space'],565.5506066000089,565.5506066000089,0.21785983350127935,1.2899956808634074,565.7754436999094,565.5506066000089,[-0.10025930008850992],,,,,,,,,wxbjqe,002,fr,1,2022-05-16_17h57.54.371,Continuous,2022.1.1,None,
17,0,17,0,5,0,5,0,,,,,,,,1.072135847362128,time,297.0,2.27152681975106,0.00015286840780678914,0,,97,"['none', 'frequency']",0.010681133484467864,None,['space'],566.8852415999863,566.8852415999863,0.2106255334801972,1.2827613808423253,567.105503299972,566.8852415999863,[-0.18763449997641146],,,,,,,,,wxbjqe,002,fr,1,2022-05-16_17h57.54.371,Continuous,2022.1.1,None,
17,0,17,0,6,0,6,0,,,,,,,,1.072135847362128,time,,,,1,,97,"['none', 'frequency']",0.012335933512076735,None,['space'],568.2101056999527,568.2101056999527,0.22202843334525824,1.2941642807073863,568.4353058999404,568.2101056999527,[-0.08132799994200468],,,,,,,,,wxbjqe,002,fr,1,2022-05-16_17h57.54.371,Continuous,2022.1.1,None,
17,0,17,0,7,0,7,0,,,,,,,,1.072135847362128,time,667.0,4.0,7.59481131222655e-05,0,,98,"['none', 'frequency']",0.016639033565297723,None,None,569.5449522000272,569.5449522000272,0.23555843345820904,1.3076942808203371,569.7663820998278,569.5449522000272,,,,,,,,,,wxbjqe,002,fr,1,2022-05-16_17h57.54.371,Continuous,2022.1.1,None,
17,0,17,0,8,0,8,0,,,,,,,,1.072135847362128,time,2377.0,3.8178793854188173,0.0001290787165060182,0,,99,"['none', 'frequency']",0.013155233347788453,None,['space'],570.8679943999741,570.8679943999741,0.22138753347098827,1.2935233808331164,571.0862968999427,570.8679943999741,[-0.8585502998903394],,,,,,,,,wxbjqe,002,fr,1,2022-05-16_17h57.54.371,Continuous,2022.1.1,None,
17,0,17,0,9,0,9,0,,,,,,,,1.072135847362128,time,4236.0,3.613106824231446,0.0001518550912048704,0,,100,"['none', 'frequency']",0.01225333334878087,None,"['space', 'space']",572.1895287998486,572.1895287998486,0.21549113327637315,1.2876269806385012,572.4160479998682,572.1895287998486,"[-0.9801906000357121, 0.19584230007603765]",,,,,,,,,wxbjqe,002,fr,1,2022-05-16_17h57.54.371,Continuous,2022.1.1,None,
17,0,17,0,10,0,10,0,,,,,,,,1.072135847362128,time,2995.0,2.715353192278946,7.536888387030914e-05,0,,101,"['none', 'frequency']",0.012469633249565959,None,['space'],573.5234991998877,573.5234991998877,0.21696613333187997,1.289101980694008,573.7458939000499,573.5234991998877,[0.2221906001213938],,,,,,,,,wxbjqe,002,fr,1,2022-05-16_17h57.54.371,Continuous,2022.1.1,None,
17,0,17,0,11,0,11,0,,,,,,,,1.072135847362128,time,445.0,3.949886628796711,0.00011700923676846569,0,,102,"['none', 'frequency']",0.011878233402967453,None,['space'],574.8490402000025,574.8490402000025,0.21731063327752054,1.2894464806396486,575.0705474000424,574.8490402000025,[0.19228400010615587],,,,,,,,,wxbjqe,002,fr,1,2022-05-16_17h57.54.371,Continuous,2022.1.1,None,
