frequencies,training_trials.thisRepN,training_trials.thisTrialN,training_trials.thisN,training_trials.thisIndex,frequencies.thisRepN,frequencies.thisTrialN,frequencies.thisN,frequencies.thisIndex,trials.thisRepN,trials.thisTrialN,trials.thisN,trials.thisIndex,tFrequency,tLevel,tCorrect,Tprobe.started,Tprobe.stopped,tTriangle_cue.started,tTriangle_cue.stopped,Tfeedback.keys,Tfeedback.corr,Tfeedback.rt,Tfeedback.started,Tfeedback.stopped,reversals_nTrials.routineEndVal,track_dir.routineEndVal,step_up.routineEndVal,Correct,Frequency,Level,Psychopy_Level,Direction,Reversals,Track_dir,Step,probe.started,probe.stopped,cross_cue.started,cross_cue.stopped,circle_cue.started,circle_cue.stopped,triangle_cue.started,triangle_cue.stopped,feedback.keys,feedback.corr,feedback.rt,feedback.started,feedback.stopped,memo.started,memo.stopped,key_resp.keys,key_resp.rt,key_resp.started,key_resp.stopped,text.started,text.stopped,participant,session,skip_training,language (english or french),date,expName,psychopyVersion,frameRate,
450,0,0,0,1,,,,,,,,,450,30,up,53.34956246667231,None,None,None,up,1,2.223064100020565,51.85364009998739,None,,,,,,,,,,,,,,,,,,,,,,,,,,,,,,,,,tlvjds,001,0,fr,2022-05-06_11h19.43.838,3-AFC_adaptive_staircase_mess,2022.1.1,None,
200,0,1,1,0,,,,,,,,,200,30,up,61.532762466642694,None,None,None,up,1,1.9543455999810249,60.05868969997391,None,,,,,,,,,,,,,,,,,,,,,,,,,,,,,,,,,tlvjds,001,0,fr,2022-05-06_11h19.43.838,3-AFC_adaptive_staircase_mess,2022.1.1,None,
5000,0,2,2,4,,,,,,,,,5000,30,right,71.76487336663219,None,71.74820669996552,72.07895639992785,right,1,2.8964994000270963,69.2911692999769,None,,,,,,,,,,,,,,,,,,,,,,,,,,,,,,,,,tlvjds,001,0,fr,2022-05-06_11h19.43.838,3-AFC_adaptive_staircase_mess,2022.1.1,None,
1300,0,3,3,3,,,,,,,,,1300,30,left,75.40706926660302,None,None,None,left,1,1.0394122999859974,74.9566376999719,None,,,,,,,,,,,,,,,,,,,,,,,,,,,,,,,,,tlvjds,001,0,fr,2022-05-06_11h19.43.838,3-AFC_adaptive_staircase_mess,2022.1.1,None,
850,0,4,4,2,,,,,,,,,850,30,up,79.00344536669242,None,None,None,up,1,1.7851689000381157,77.53891839995049,None,,,,,,,,,,,,,,,,,,,,,,,,,,,,,,,,,tlvjds,001,0,fr,2022-05-06_11h19.43.838,3-AFC_adaptive_staircase_mess,2022.1.1,None,
,,,,,0,0,0,0,0,0,0,0,,,,,,,,,,,,,[],[],10,left,1000,30,0.0013930605843148849,0,0,-1,10,88.97040696657884,None,88.92314680002164,89.24801079998724,None,None,None,None,left,1,0.3571505999425426,88.98307419999037,None,None,None,,,,,,,tlvjds,001,0,fr,2022-05-06_11h19.43.838,3-AFC_adaptive_staircase_mess,2022.1.1,None,
,,,,,0,0,0,0,1,0,1,0,,,,,,,,,,,,,,,,right,1000,30,0.0013930605843148849,0,1,-1,10,None,None,90.85573339997791,91.17729000002146,None,None,None,None,left,0,0.47522589995060116,90.91215509991162,None,None,None,,,,,,,tlvjds,001,0,fr,2022-05-06_11h19.43.838,3-AFC_adaptive_staircase_mess,2022.1.1,None,
,,,,,0,0,0,0,2,0,2,0,,,,,,,,,,,,,,,,left,1000,40,0.004405244365040069,1,2,1,2.5,92.95054886659297,None,92.90505619999021,93.23446409997996,None,None,None,None,left,1,0.5050795000279322,92.96299839997664,None,None,None,,,,,,,tlvjds,001,0,fr,2022-05-06_11h19.43.838,3-AFC_adaptive_staircase_mess,2022.1.1,None,
,,,,,0,0,0,0,3,0,3,0,,,,,,,,,,,,,,,,left,1000,40,0.004405244365040069,1,2,1,2.5,95.03515346668816,None,94.98894299997482,95.31858439999633,None,None,None,None,left,1,0.4971394999884069,95.05057239998132,None,None,None,,,,,,,tlvjds,001,0,fr,2022-05-06_11h19.43.838,3-AFC_adaptive_staircase_mess,2022.1.1,None,
,,,,,0,0,0,0,4,0,4,0,,,,,,,,,,,,,,,,up,1000,35.0,0.002477250954023951,-1,3,-1,-10,98.0944955666239,None,97.06188960000873,97.38312859996222,98.07782889995724,98.40253790002316,None,None,up,1,1.3887041000416502,97.11878389993217,None,None,None,,,,,,,tlvjds,001,0,fr,2022-05-06_11h19.43.838,3-AFC_adaptive_staircase_mess,2022.1.1,None,
,,,,,0,0,0,0,5,0,5,0,,,,,,,,,,,,,,,,left,1000,35.0,0.002477250954023951,-1,3,-1,-10,100.05754596664725,100.27675039996393,100.04087929998059,100.36107729992364,None,None,None,None,left,1,0.42505229997914284,100.06699740001932,None,None,None,,,,,,,tlvjds,001,0,fr,2022-05-06_11h19.43.838,3-AFC_adaptive_staircase_mess,2022.1.1,None,
,,,,,0,0,0,0,6,0,6,0,,,,,,,,,,,,,,,,up,1000,25.0,0.0007833755350540744,-1,3,-1,-10,103.03019636666092,None,101.99479639995843,102.31816209992394,103.01352969999425,103.34210849995725,None,None,up,1,1.5577786000212654,102.05460799997672,None,None,None,,,,,,,tlvjds,001,0,fr,2022-05-06_11h19.43.838,3-AFC_adaptive_staircase_mess,2022.1.1,None,
,,,,,0,0,0,0,7,0,7,0,,,,,,,,,,,,,,,,right,1000,25.0,0.0007833755350540744,-1,3,-1,-10,107.16651846660922,107.38784450001549,105.13008989999071,105.4556322999997,106.1258727000095,106.44966799998656,107.11824869993143,107.44324809999671,right,1,2.2443368000676855,105.19142029993236,None,None,None,,,,,,,tlvjds,001,0,fr,2022-05-06_11h19.43.838,3-AFC_adaptive_staircase_mess,2022.1.1,None,
,,,,,0,0,0,0,8,0,8,0,,,,,,,,,,,,,,,,left,1000,15.0,0.000247725095402395,-1,3,-1,-10,108.98063086666322,None,108.93485700001474,109.26878239994403,None,None,None,None,left,1,0.3922981000505388,108.99492959992494,None,None,None,,,,,,,tlvjds,001,0,fr,2022-05-06_11h19.43.838,3-AFC_adaptive_staircase_mess,2022.1.1,None,
,,,,,0,0,0,0,9,0,9,0,,,,,,,,,,,,,,,,right,1000,15.0,0.000247725095402395,-1,3,-1,-10,112.95438736660095,None,110.90584859997034,111.22846140002366,111.89710810000543,112.22092569991946,112.9095347999828,113.24206119996961,right,1,2.3894032000098377,110.96568819996901,None,None,None,,,,,,,tlvjds,001,0,fr,2022-05-06_11h19.43.838,3-AFC_adaptive_staircase_mess,2022.1.1,None,
,,,,,0,0,0,0,10,0,10,0,,,,,,,,,,,,,,,,right,1000,5.0,7.833755350540742e-05,-1,3,-1,-10,116.90510056662994,None,114.85712689999491,115.17550789995585,115.87274339993019,116.19540129997768,116.85985379992053,117.1823798000114,right,1,2.2986311999848112,114.91281889996026,None,None,None,,,,,,,tlvjds,001,0,fr,2022-05-06_11h19.43.838,3-AFC_adaptive_staircase_mess,2022.1.1,None,
,,,,,0,0,0,0,11,0,11,0,,,,,,,,,,,,,,,,left,1000,5.0,7.833755350540742e-05,-1,3,-1,-10,118.79214676662038,None,118.74672249995638,119.08177139994223,None,None,None,None,left,1,0.5332636999664828,118.80677419994026,None,None,None,,,,,,,tlvjds,001,0,fr,2022-05-06_11h19.43.838,3-AFC_adaptive_staircase_mess,2022.1.1,None,
,,,,,0,0,0,0,12,0,12,0,,,,,,,,,,,,,,,,up,1000,-5.0,2.4772509540239506e-05,-1,3,-1,-10,121.88168286666429,None,120.84332250000443,121.17376739997417,121.86501619999763,122.19849949993659,122.83631619997323,123.15748109994456,up,1,4.934738299925812,120.90163470001426,None,123.39472029998433,None,,,,,,,tlvjds,001,0,fr,2022-05-06_11h19.43.838,3-AFC_adaptive_staircase_mess,2022.1.1,None,
,,,,,0,0,0,0,13,0,13,0,,,,,,,,,,,,,,,,right,1000,-5.0,2.4772509540239506e-05,-1,3,-1,-10,129.40393526660435,None,127.35394259996247,127.6794090999756,128.34249479998834,128.66704059997573,129.35955769999418,129.69087419996504,up,0,4.612244699965231,127.41465769999195,None,129.89639439992607,None,,,,,,,tlvjds,001,0,fr,2022-05-06_11h19.43.838,3-AFC_adaptive_staircase_mess,2022.1.1,None,
,,,,,0,0,0,0,14,0,14,0,,,,,,,,,,,,,,,,left,1000,0.0,4.405244365040069e-05,1,4,1,5,133.60832646658335,None,133.56421779992525,133.89586619997863,None,None,None,None,left,1,0.5487077999860048,133.62393100000918,None,None,None,,,,,,,tlvjds,001,0,fr,2022-05-06_11h19.43.838,3-AFC_adaptive_staircase_mess,2022.1.1,None,
,,,,,0,0,0,0,15,0,15,0,,,,,,,,,,,,,,,,up,1000,0.0,4.405244365040069e-05,1,4,1,5,136.70931416663032,None,135.6756955999881,135.99663129996043,136.69264749996364,137.0265898000216,137.69556509994436,None,up,1,1.941960999974981,135.7339053999167,None,None,None,,,,,,,tlvjds,001,0,fr,2022-05-06_11h19.43.838,3-AFC_adaptive_staircase_mess,2022.1.1,None,
,,,,,0,0,0,0,16,0,16,0,,,,,,,,,,,,,,,,right,1000,-10.0,1.3930605843148848e-05,-1,5,-1,-10,None,None,139.18424309999682,139.5057944,None,None,None,None,left,0,0.43180369993206114,139.24339979991782,None,None,None,,,,,,,tlvjds,001,0,fr,2022-05-06_11h19.43.838,3-AFC_adaptive_staircase_mess,2022.1.1,None,
,,,,,0,0,0,0,17,0,17,0,,,,,,,,,,,,,,,,left,1000,-5.0,2.4772509540239506e-05,1,6,1,5,141.22437096661113,None,141.17805300001055,141.50351339997724,142.17445910000242,142.49671659991145,143.1658466999652,143.4860675999662,up,0,3.0644295000238344,141.2357658999972,None,143.72188139997888,None,,,,,,,tlvjds,001,0,fr,2022-05-06_11h19.43.838,3-AFC_adaptive_staircase_mess,2022.1.1,None,
,,,,,1,0,1,0,0,0,0,0,,,,,,,,,,,,,[],[],10,up,1500,30,0.001527460556607757,0,0,-1,10,150.84934006660868,None,149.80356009991374,150.1364346999908,150.80383330001496,151.12873180001043,None,None,up,1,1.4958280000137165,149.85989049996715,None,None,None,up,3.9284142999676988,145.37957440002356,None,145.37957440002356,None,tlvjds,001,0,fr,2022-05-06_11h19.43.838,3-AFC_adaptive_staircase_mess,2022.1.1,None,
,,,,,1,0,1,0,1,0,1,0,,,,,,,,,,,,,,,,left,1500,30,0.001527460556607757,0,0,-1,10,152.90724176663596,None,152.89057509996928,153.21474610001314,None,None,None,None,left,1,0.4658750999951735,152.92257739999332,None,None,None,,,,,,,tlvjds,001,0,fr,2022-05-06_11h19.43.838,3-AFC_adaptive_staircase_mess,2022.1.1,None,
,,,,,1,0,1,0,2,0,2,0,,,,,,,,,,,,,,,,right,1500,10,0.0001527460556607757,-1,0,-1,-10,156.9402828666537,None,154.92514930001926,155.24751479993574,155.90097929991316,156.22703710000496,156.923616199987,157.25414370000362,right,1,2.4289600000483915,154.95886859996244,None,None,None,,,,,,,tlvjds,001,0,fr,2022-05-06_11h19.43.838,3-AFC_adaptive_staircase_mess,2022.1.1,None,
,,,,,1,0,1,0,3,0,3,0,,,,,,,,,,,,,,,,left,1500,10,0.0001527460556607757,-1,0,-1,-10,158.95691706665482,None,158.9128800999606,159.23623129993211,None,None,None,None,left,1,0.448691500001587,158.97140679997392,None,None,None,,,,,,,tlvjds,001,0,fr,2022-05-06_11h19.43.838,3-AFC_adaptive_staircase_mess,2022.1.1,None,
,,,,,1,0,1,0,4,0,4,0,,,,,,,,,,,,,,,,left,1500,0,4.830254394949071e-05,-1,0,-1,-10,160.98416096665122,None,160.93942159996368,161.25932650000323,None,None,None,None,left,1,0.44146889995317906,160.99492819991428,None,None,None,,,,,,,tlvjds,001,0,fr,2022-05-06_11h19.43.838,3-AFC_adaptive_staircase_mess,2022.1.1,None,
,,,,,1,0,1,0,5,0,5,0,,,,,,,,,,,,,,,,left,1500,0,4.830254394949071e-05,-1,0,-1,-10,162.98418496660113,None,162.93847880000249,163.26039840001613,None,None,None,None,left,1,0.42335960001219064,162.99685919994954,None,None,None,,,,,,,tlvjds,001,0,fr,2022-05-06_11h19.43.838,3-AFC_adaptive_staircase_mess,2022.1.1,None,
,,,,,1,0,1,0,6,0,6,0,,,,,,,,,,,,,,,,up,1500,-10,1.527460556607758e-05,-1,0,-1,-10,165.98749636667006,None,164.93926859996282,165.27289579994977,165.94142339995597,166.25602989993058,166.95614219992422,167.2797733999323,up,1,3.894565400085412,164.99728889996186,None,167.48469019995537,None,,,,,,,tlvjds,001,0,fr,2022-05-06_11h19.43.838,3-AFC_adaptive_staircase_mess,2022.1.1,None,
,,,,,1,0,1,0,7,0,7,0,,,,,,,,,,,,,,,,left,1500,-10,1.527460556607758e-05,-1,0,-1,-10,170.45861726667889,None,170.4128179999534,170.73789889994077,171.41377989994362,171.73968350002542,172.418301000027,172.74058729992248,right,0,3.7646198000293225,170.4710875999881,None,172.9454265999375,None,,,,,,,tlvjds,001,0,fr,2022-05-06_11h19.43.838,3-AFC_adaptive_staircase_mess,2022.1.1,None,
,,,,,1,0,1,0,8,0,8,0,,,,,,,,,,,,,,,,right,1500,-5,2.716251657462168e-05,1,1,1,5,177.78647686663706,None,175.74762709997594,176.06987619993743,176.74815340002533,177.06938300002366,177.7405887999339,178.0721434999723,right,1,2.7821742000523955,175.80540119996294,None,178.28591769991908,None,,,,,,,tlvjds,001,0,fr,2022-05-06_11h19.43.838,3-AFC_adaptive_staircase_mess,2022.1.1,None,
,,,,,1,0,1,0,9,0,9,0,,,,,,,,,,,,,,,,up,1500,-5,2.716251657462168e-05,1,1,1,5,181.14468936663278,None,180.1032979999436,180.42657829995733,181.0993773000082,181.42799959995318,None,None,up,1,1.739250099984929,180.16131629992742,None,None,None,,,,,,,tlvjds,001,0,fr,2022-05-06_11h19.43.838,3-AFC_adaptive_staircase_mess,2022.1.1,None,
,,,,,1,0,1,0,10,0,10,0,,,,,,,,,,,,,,,,up,1500,-15,8.589541935787946e-06,-1,2,-1,-5.0,184.4255884666384,None,183.40709969995078,183.73627439991105,184.40892179997172,184.74123389995657,185.39550979994237,185.71623469993938,left,0,2.9151975999120623,183.46481279993895,None,185.95021449995693,None,,,,,,,tlvjds,001,0,fr,2022-05-06_11h19.43.838,3-AFC_adaptive_staircase_mess,2022.1.1,None,
,,,,,1,0,1,0,11,0,11,0,,,,,,,,,,,,,,,,right,1500,-12.5,1.1454338263838873e-05,1,3,1,2.5,189.92107156658702,None,187.90196409996133,188.22704439994413,188.8994757999899,189.22815049998462,189.90440489992034,190.2474447999848,up,0,4.753178699989803,187.93075479997788,None,190.45362839999143,None,,,,,,,tlvjds,001,0,fr,2022-05-06_11h19.43.838,3-AFC_adaptive_staircase_mess,2022.1.1,None,
,,,,,1,0,1,0,12,0,12,0,,,,,,,,,,,,,,,,left,1500,-10.0,1.527460556607758e-05,1,3,1,2.5,194.23442986660328,None,194.18475090002175,194.52188219991513,195.18177779996768,195.50916179991327,196.18919329997152,196.51991859998088,right,0,3.3139968001050875,194.2500871999655,None,196.75702429993544,None,,,,,,,tlvjds,001,0,fr,2022-05-06_11h19.43.838,3-AFC_adaptive_staircase_mess,2022.1.1,None,
,,,,,1,0,1,0,13,0,13,0,,,,,,,,,,,,,,,,up,1500,-7.5,2.036901389020565e-05,1,3,1,2.5,200.10626186657854,None,199.05299959995318,199.38011339993682,200.0566232999554,200.39775170001667,201.04586369998287,201.37449479999486,left,0,3.8299794000340626,199.11005479993764,None,201.61051159992348,None,,,,,,,tlvjds,001,0,fr,2022-05-06_11h19.43.838,3-AFC_adaptive_staircase_mess,2022.1.1,None,
,,,,,1,0,1,0,14,0,14,0,,,,,,,,,,,,,,,,up,1500,-5.0,2.716251657462168e-05,1,3,1,2.5,205.51742406661313,None,204.48448889993597,204.81907339999452,205.4688205999555,205.77863650000654,None,None,up,1,1.8678869999712333,204.51340549997985,None,None,None,,,,,,,tlvjds,001,0,fr,2022-05-06_11h19.43.838,3-AFC_adaptive_staircase_mess,2022.1.1,None,
,,,,,1,0,1,0,15,0,15,0,,,,,,,,,,,,,,,,up,1500,-5.0,2.716251657462168e-05,1,3,1,2.5,208.96984046668902,None,207.92654040001798,208.26908979995642,208.92333749996033,209.2678067999659,None,None,up,1,1.7687639000359923,207.95536729996093,None,None,None,,,,,,,tlvjds,001,0,fr,2022-05-06_11h19.43.838,3-AFC_adaptive_staircase_mess,2022.1.1,None,
,,,,,1,0,1,0,16,0,16,0,,,,,,,,,,,,,,,,right,1500,-10.0,1.527460556607758e-05,-1,4,-1,-5.0,213.27817416662973,None,211.25782609998714,211.60136680002324,212.25246380001772,212.58265729993582,213.26150749996305,213.60725739994086,right,1,2.8273080999497324,211.3133437000215,None,213.79182419995777,None,,,,,,,tlvjds,001,0,fr,2022-05-06_11h19.43.838,3-AFC_adaptive_staircase_mess,2022.1.1,None,
,,,,,1,0,1,0,17,0,17,0,,,,,,,,,,,,,,,,up,1500,-10.0,1.527460556607758e-05,-1,4,-1,-5.0,216.6924364666377,None,215.6303938999772,215.9689439999638,216.64485659997445,216.98271909996402,217.6405007999856,217.97299689997453,up,1,3.106674899929203,215.68936089996714,None,218.1806918999646,None,,,,,,,tlvjds,001,0,fr,2022-05-06_11h19.43.838,3-AFC_adaptive_staircase_mess,2022.1.1,None,
,,,,,1,0,1,0,18,0,18,0,,,,,,,,,,,,,,,,right,1500,-15.0,8.589541935787946e-06,-1,4,-1,-5.0,222.34542176669154,None,220.310469500022,220.6453741999576,221.3073370999191,221.64204529998824,222.32875510002486,222.66148010001052,right,1,2.87152749998495,220.37225110002328,None,222.87175259995274,None,,,,,,,tlvjds,001,0,fr,2022-05-06_11h19.43.838,3-AFC_adaptive_staircase_mess,2022.1.1,None,
,,,,,1,0,1,0,19,0,19,0,,,,,,,,,,,,,,,,right,1500,-15.0,8.589541935787946e-06,-1,4,-1,-5.0,226.8124655666218,None,224.77243729995098,225.1153903999366,225.75939839996863,226.0902247999329,226.7662145999493,227.07978269993328,right,1,3.3722001999849454,224.83111289993394,None,227.3147539999336,None,,,,,,,tlvjds,001,0,fr,2022-05-06_11h19.43.838,3-AFC_adaptive_staircase_mess,2022.1.1,None,
,,,,,1,0,1,0,20,0,20,0,,,,,,,,,,,,,,,,up,1500,-20.0,4.8302543949490704e-06,-1,4,-1,-5.0,230.77102416666847,None,229.71549360000063,230.05480739998166,230.72201009991113,231.05754189996514,231.73951789992861,232.06789119995665,up,1,3.5820917999371886,229.77404960000422,None,232.2815131000243,None,,,,,,,tlvjds,001,0,fr,2022-05-06_11h19.43.838,3-AFC_adaptive_staircase_mess,2022.1.1,None,
,,,,,1,0,1,0,21,0,21,0,,,,,,,,,,,,,,,,left,1500,-20.0,4.8302543949490704e-06,-1,4,-1,-5.0,234.91015386669122,None,234.86324390000664,235.19597469992004,235.8794487999985,236.22633660002612,236.8899672999978,237.22740159998648,up,0,3.710795299964957,234.92545440001413,None,237.43621559999883,None,,,,,,,tlvjds,001,0,fr,2022-05-06_11h19.43.838,3-AFC_adaptive_staircase_mess,2022.1.1,None,
,,,,,1,0,1,0,22,0,22,0,,,,,,,,,,,,,,,,right,1500,-17.5,6.441247758465675e-06,1,5,1,2.5,242.17396306660183,None,240.1501921999734,240.48454709991347,241.16432290000375,241.501355699962,242.15729639993515,242.50207279995084,up,0,3.084244200028479,240.20774949993938,None,242.7127274000086,None,,,,,,,tlvjds,001,0,fr,2022-05-06_11h19.43.838,3-AFC_adaptive_staircase_mess,2022.1.1,None,
,,,,,1,0,1,0,23,0,23,0,,,,,,,,,,,,,,,,left,1500,-15.0,8.589541935787946e-06,1,5,1,2.5,244.85149766662315,None,244.83483099995647,245.1747936999891,245.8321474000113,246.16808279999532,246.81390159996226,247.14685259992257,up,0,3.914814099902287,244.86509590002242,None,247.35978499997873,None,,,,,,,tlvjds,001,0,fr,2022-05-06_11h19.43.838,3-AFC_adaptive_staircase_mess,2022.1.1,None,
,,,,,1,0,1,0,24,0,24,0,,,,,,,,,,,,,,,,right,1500,-12.5,1.1454338263838873e-05,1,5,1,2.5,252.3263330666271,None,250.26890579995234,250.6041227999376,251.28033350000624,251.61622289998922,252.2761421999894,252.6165595999919,up,0,3.0911594999488443,250.32862079993356,None,252.83711319998838,None,,,,,,,tlvjds,001,0,fr,2022-05-06_11h19.43.838,3-AFC_adaptive_staircase_mess,2022.1.1,None,
,,,,,1,0,1,0,25,0,25,0,,,,,,,,,,,,,,,,left,1500,-10.0,1.527460556607758e-05,1,5,1,2.5,254.95469396660727,None,254.90839320002124,255.24979049991816,255.91385439992882,256.2494971000124,256.9025689000264,257.24419220001437,up,0,2.948796799988486,254.96715379995294,None,257.4548693000106,None,,,,,,,tlvjds,001,0,fr,2022-05-06_11h19.43.838,3-AFC_adaptive_staircase_mess,2022.1.1,None,
,,,,,1,0,1,0,26,0,26,0,,,,,,,,,,,,,,,,right,1500,-7.5,2.036901389020565e-05,1,5,1,2.5,261.4720090666708,None,259.43760079995263,259.7532383999787,260.43606269999873,260.7722658999264,261.4248536999803,261.75678519997746,right,1,2.801192699931562,259.4664296999108,None,261.97001679998357,None,,,,,,,tlvjds,001,0,fr,2022-05-06_11h19.43.838,3-AFC_adaptive_staircase_mess,2022.1.1,None,
,,,,,1,0,1,0,27,0,27,0,,,,,,,,,,,,,,,,right,1500,-7.5,2.036901389020565e-05,1,5,1,2.5,265.81483066658643,None,263.7959337999346,264.11823339993134,264.7904839999974,265.1248037000187,265.7981639999198,266.13004889991134,left,0,3.193816200015135,263.8256227999227,None,266.33535780000966,None,,,,,,,tlvjds,001,0,fr,2022-05-06_11h19.43.838,3-AFC_adaptive_staircase_mess,2022.1.1,None,
,,,,,1,0,1,0,28,0,28,0,,,,,,,,,,,,,,,,left,1500,-5.0,2.716251657462168e-05,1,5,1,2.5,268.5752917666143,None,268.5284655999858,268.86564670002554,269.5376655999571,269.85055620002095,270.5290000999812,270.8588431000244,up,0,3.407372499932535,268.58837349992245,None,271.06986109993886,None,,,,,,,tlvjds,001,0,fr,2022-05-06_11h19.43.838,3-AFC_adaptive_staircase_mess,2022.1.1,None,
,,,,,1,0,1,0,29,0,29,0,,,,,,,,,,,,,,,,left,1500,-2.5,3.622179800374953e-05,1,5,1,2.5,273.5236000666084,None,273.5069333999418,273.83938199991826,None,None,None,None,left,1,0.7119624000042677,273.539004500024,None,None,None,,,,,,,tlvjds,001,0,fr,2022-05-06_11h19.43.838,3-AFC_adaptive_staircase_mess,2022.1.1,None,
,,,,,1,0,1,0,30,0,30,0,,,,,,,,,,,,,,,,left,1500,-2.5,3.622179800374953e-05,1,5,1,2.5,275.82015856664316,None,275.77250949991867,276.10774849995505,None,None,None,None,left,1,0.4663870999356732,275.83291100000497,None,None,None,,,,,,,tlvjds,001,0,fr,2022-05-06_11h19.43.838,3-AFC_adaptive_staircase_mess,2022.1.1,None,
,,,,,1,0,1,0,31,0,31,0,,,,,,,,,,,,,,,,right,1500,-7.5,2.036901389020565e-05,-1,6,-1,-5.0,279.85376456665495,None,277.81862049992196,278.15955899993423,278.83311879995745,279.1671964999987,279.8370978999883,280.17535389994737,right,1,2.489429199951701,277.8900623000227,None,280.3800593999913,None,,,,,,,tlvjds,001,0,fr,2022-05-06_11h19.43.838,3-AFC_adaptive_staircase_mess,2022.1.1,None,
,,,,,2,0,2,0,0,0,0,0,,,,,,,,,,,,,[],[],10,right,2000,30,0.0023657562948074026,0,0,-1,10,289.06168966665086,None,287.0229386999272,287.35529029997997,288.01928299991414,288.3488610999193,289.0450229999842,289.38338909996673,right,1,2.5121646999614313,287.08460029994603,None,289.58577769994736,None,up,5.1176171998959035,281.4389593999367,None,281.4389593999367,None,tlvjds,001,0,fr,2022-05-06_11h19.43.838,3-AFC_adaptive_staircase_mess,2022.1.1,None,
,,,,,2,0,2,0,1,0,1,0,,,,,,,,,,,,,,,,up,2000,30,0.0023657562948074026,0,0,-1,10,292.1417249666449,None,291.1163219999289,291.4476774999639,292.12505829997826,292.45747689995915,None,None,up,1,1.3464565000031143,291.17773759993725,None,None,None,,,,,,,tlvjds,001,0,fr,2022-05-06_11h19.43.838,3-AFC_adaptive_staircase_mess,2022.1.1,None,
,,,,,2,0,2,0,2,0,2,0,,,,,,,,,,,,,,,,right,2000,10,0.00023657562948074026,-1,0,-1,-10,296.0914096666422,None,294.0724208999891,294.40086729999166,295.07303799991496,295.39988549996633,296.04434089991264,296.3838970999932,right,1,2.342090000049211,294.1019393999595,None,None,None,,,,,,,tlvjds,001,0,fr,2022-05-06_11h19.43.838,3-AFC_adaptive_staircase_mess,2022.1.1,None,
,,,,,2,0,2,0,3,0,3,0,,,,,,,,,,,,,,,,up,2000,10,0.00023657562948074026,-1,0,-1,-10,298.9859957666524,None,297.94195819995366,298.2679105999414,298.94109659991227,299.27384509996045,None,None,up,1,1.3336601000046358,298.005415200023,None,None,None,,,,,,,tlvjds,001,0,fr,2022-05-06_11h19.43.838,3-AFC_adaptive_staircase_mess,2022.1.1,None,
,,,,,2,0,2,0,4,0,4,0,,,,,,,,,,,,,,,,right,2000,0,7.481178280472168e-05,-1,0,-1,-10,302.9147324666303,None,300.86760829994455,301.19537129998207,301.8672394999303,302.19508849992417,302.8709336000029,303.19961010001134,right,1,2.363842200022191,300.92919529997744,None,None,None,,,,,,,tlvjds,001,0,fr,2022-05-06_11h19.43.838,3-AFC_adaptive_staircase_mess,2022.1.1,None,
,,,,,2,0,2,0,5,0,5,0,,,,,,,,,,,,,,,,up,2000,0,7.481178280472168e-05,-1,0,-1,-10,305.8555915665968,None,304.8183186999522,305.1418313999893,305.8098805999616,306.1464781999821,None,None,up,1,1.4851697999984026,304.8787744999863,None,None,None,,,,,,,tlvjds,001,0,fr,2022-05-06_11h19.43.838,3-AFC_adaptive_staircase_mess,2022.1.1,None,
,,,,,2,0,2,0,6,0,6,0,,,,,,,,,,,,,,,,left,2000,-10,2.3657562948074015e-05,-1,0,-1,-10,307.9148946665848,None,307.8688812999753,308.2100463999668,308.8795785999391,309.21630819991697,309.8790138999466,310.21217640000395,left,1,3.8454580999678,307.926421299926,None,310.4199508000165,None,,,,,,,tlvjds,001,0,fr,2022-05-06_11h19.43.838,3-AFC_adaptive_staircase_mess,2022.1.1,None,
,,,,,2,0,2,0,7,0,7,0,,,,,,,,,,,,,,,,right,2000,-10,2.3657562948074015e-05,-1,0,-1,-10,315.32397046668143,None,313.2856568999123,313.6131706999149,314.2884463999653,314.611224399996,315.27783279994037,315.61077349993866,right,1,2.5503681999398395,313.3490104000084,None,315.84133620001376,None,,,,,,,tlvjds,001,0,fr,2022-05-06_11h19.43.838,3-AFC_adaptive_staircase_mess,2022.1.1,None,
,,,,,2,0,2,0,8,0,8,0,,,,,,,,,,,,,,,,up,2000,-20,7.481178280472164e-06,-1,0,-1,-10,318.43032946664994,None,317.3958104000194,317.71819619997405,318.38451399991754,318.7119405999547,319.3996058999328,319.7218260000227,right,0,2.7210514000616968,317.45073919999413,None,319.96108899998944,None,,,,,,,tlvjds,001,0,fr,2022-05-06_11h19.43.838,3-AFC_adaptive_staircase_mess,2022.1.1,None,
,,,,,2,0,2,0,9,0,9,0,,,,,,,,,,,,,,,,up,2000,-15,1.3303625298994042e-05,1,1,1,5,322.7020187666096,None,321.6711283000186,321.989200299955,322.6583792999154,322.9818777999608,323.6783350999467,323.9991336999228,up,1,3.228213800000958,321.72724249993917,None,324.23038510000333,None,,,,,,,tlvjds,001,0,fr,2022-05-06_11h19.43.838,3-AFC_adaptive_staircase_mess,2022.1.1,None,
,,,,,2,0,2,0,10,0,10,0,,,,,,,,,,,,,,,,up,2000,-15,1.3303625298994042e-05,1,1,1,5,327.5151019666266,None,326.4893073999556,326.8000974999741,327.49843529995997,327.81440739997197,328.4872847999213,328.8159247000003,up,1,3.4814189999597147,326.5475510000251,None,329.0518963999348,None,,,,,,,tlvjds,001,0,fr,2022-05-06_11h19.43.838,3-AFC_adaptive_staircase_mess,2022.1.1,None,
,,,,,2,0,2,0,11,0,11,0,,,,,,,,,,,,,,,,up,2000,-25,4.206975708225973e-06,-1,2,-1,-5.0,332.56831366668143,None,331.53273470001295,331.8567445999943,332.5516470000148,332.8712420000229,333.5509293000214,333.8782668999629,up,1,3.045640500029549,331.5907105000224,None,334.07824179995805,None,,,,,,,tlvjds,001,0,fr,2022-05-06_11h19.43.838,3-AFC_adaptive_staircase_mess,2022.1.1,None,
,,,,,2,0,2,0,12,0,12,0,,,,,,,,,,,,,,,,right,2000,-25,4.206975708225973e-06,-1,2,-1,-5.0,338.1920190666026,None,336.1644398999633,336.48876600002404,337.1580377999926,337.4888597999234,338.15529769996647,338.4866478999611,up,0,2.734421500004828,336.22200049995445,None,338.7205556000117,None,,,,,,,tlvjds,001,0,fr,2022-05-06_11h19.43.838,3-AFC_adaptive_staircase_mess,2022.1.1,None,
,,,,,2,0,2,0,13,0,13,0,,,,,,,,,,,,,,,,up,2000,-22.5,5.610092271509815e-06,1,3,1,2.5,341.49123276659907,None,340.4561724999221,340.7795343999751,341.4469508000184,341.76976059994195,342.44227669993415,342.76377840002533,up,1,2.7470824000192806,340.51246419991367,None,342.9924481000053,None,,,,,,,tlvjds,001,0,fr,2022-05-06_11h19.43.838,3-AFC_adaptive_staircase_mess,2022.1.1,None,
,,,,,2,0,2,0,14,0,14,0,,,,,,,,,,,,,,,,up,2000,-22.5,5.610092271509815e-06,1,3,1,2.5,345.81589136663047,None,344.7752146999119,345.09832519991323,345.76647139992565,346.10600109992083,346.787064599921,347.1115278999787,up,1,2.939652799977921,344.83323320001364,None,347.3117302999599,None,,,,,,,tlvjds,001,0,fr,2022-05-06_11h19.43.838,3-AFC_adaptive_staircase_mess,2022.1.1,None,
,,,,,2,0,2,0,15,0,15,0,,,,,,,,,,,,,,,,right,2000,-27.5,3.154786722400965e-06,-1,4,-1,-5.0,351.3306684666934,None,349.2826791999396,349.6015213999199,350.28756750002503,350.62351820000913,351.28457839996554,351.60804580000695,up,0,3.2976575000211596,349.3386646999279,None,351.8418561000144,None,,,,,,,tlvjds,001,0,fr,2022-05-06_11h19.43.838,3-AFC_adaptive_staircase_mess,2022.1.1,None,
,,,,,2,0,2,0,16,0,16,0,,,,,,,,,,,,,,,,up,2000,-25.0,4.206975708225973e-06,1,5,1,2.5,355.1824044666175,None,354.146146700019,354.4957751999609,355.1380451999139,355.4600927999709,356.1575301999692,356.47988539992366,up,1,3.391432400094345,354.20423429994844,None,356.6858691999223,None,,,,,,,tlvjds,001,0,fr,2022-05-06_11h19.43.838,3-AFC_adaptive_staircase_mess,2022.1.1,None,
,,,,,2,0,2,0,17,0,17,0,,,,,,,,,,,,,,,,right,2000,-25.0,4.206975708225973e-06,1,5,1,2.5,361.15905926662185,None,359.12636489991564,359.44625699997414,360.11631109996233,360.4479723999975,361.10061720001977,361.4344047999475,up,0,3.118107800022699,359.1821438999614,None,361.668591799913,None,,,,,,,tlvjds,001,0,fr,2022-05-06_11h19.43.838,3-AFC_adaptive_staircase_mess,2022.1.1,None,
,,,,,2,0,2,0,18,0,18,0,,,,,,,,,,,,,,,,right,2000,-22.5,5.610092271509815e-06,1,5,1,2.5,365.87027156661884,None,363.8205308999168,364.14648419991136,364.810300800018,365.1367323999293,365.8254221000243,366.1541203999659,up,0,2.7821226998930797,363.8692890999373,None,366.3913471000269,None,,,,,,,tlvjds,001,0,fr,2022-05-06_11h19.43.838,3-AFC_adaptive_staircase_mess,2022.1.1,None,
,,,,,2,0,2,0,19,0,19,0,,,,,,,,,,,,,,,,right,2000,-20.0,7.481178280472164e-06,1,5,1,2.5,370.21009436663394,None,368.1587301000254,368.48369849997107,369.1748587000184,369.50098329992034,370.16547090001404,370.49379739991855,up,0,2.8617651000386104,368.20708570000716,None,370.7277799999574,None,,,,,,,tlvjds,001,0,fr,2022-05-06_11h19.43.838,3-AFC_adaptive_staircase_mess,2022.1.1,None,
,,,,,2,0,2,0,20,0,20,0,,,,,,,,,,,,,,,,right,2000,-17.5,9.976311574844395e-06,1,5,1,2.5,374.6269429666611,None,372.5965909999795,372.91136149992235,373.5803217999637,373.9125498000067,374.61027629999444,374.9291167999618,up,0,2.9506398999365047,372.6455890999641,None,375.16614180000033,None,,,,,,,tlvjds,001,0,fr,2022-05-06_11h19.43.838,3-AFC_adaptive_staircase_mess,2022.1.1,None,
,,,,,2,0,2,0,21,0,21,0,,,,,,,,,,,,,,,,right,2000,-15.0,1.3303625298994042e-05,1,5,1,2.5,379.1503829666801,None,377.096238899976,377.4196770999115,378.11567179998383,378.43607449997216,379.105688199983,379.43405989999883,up,0,2.8380063000367954,377.1583923000144,None,379.6684087999165,None,,,,,,,tlvjds,001,0,fr,2022-05-06_11h19.43.838,3-AFC_adaptive_staircase_mess,2022.1.1,None,
,,,,,2,0,2,0,22,0,22,0,,,,,,,,,,,,,,,,up,2000,-12.5,1.7740669461678767e-05,1,5,1,2.5,382.53987646667906,None,381.50860459997784,381.82089660002384,382.5232098000124,382.8534772999119,383.51839089998975,383.8374284999445,up,1,2.940038900007494,381.5684863999486,None,384.07127850002144,None,,,,,,,tlvjds,001,0,fr,2022-05-06_11h19.43.838,3-AFC_adaptive_staircase_mess,2022.1.1,None,
,,,,,2,0,2,0,23,0,23,0,,,,,,,,,,,,,,,,left,2000,-12.5,1.7740669461678767e-05,1,5,1,2.5,386.06242396665425,None,386.01576590002514,386.35004409996327,387.01793969993014,387.3410455000121,388.008495499962,388.3433766999515,up,0,2.9603184000588953,386.0751542999642,None,388.5766973999562,None,,,,,,,tlvjds,001,0,fr,2022-05-06_11h19.43.838,3-AFC_adaptive_staircase_mess,2022.1.1,None,
,,,,,2,0,2,0,24,0,24,0,,,,,,,,,,,,,,,,up,2000,-10.0,2.3657562948074015e-05,1,5,1,2.5,391.58902096661427,None,390.54815429996233,390.8730853999732,391.53202969999984,391.86703449999914,392.5582795999944,392.87948260002304,up,1,2.855115699931048,390.59693200001493,None,393.1161778999958,None,,,,,,,tlvjds,001,0,fr,2022-05-06_11h19.43.838,3-AFC_adaptive_staircase_mess,2022.1.1,None,
,,,,,2,0,2,0,25,0,25,0,,,,,,,,,,,,,,,,left,2000,-10.0,2.3657562948074015e-05,1,5,1,2.5,395.0010254666597,None,394.95060229999945,395.2870991999516,395.9536030999152,396.27871919993777,396.9733009999618,397.2930989000015,up,0,2.8190743000013754,395.01802690001205,None,397.5229323999956,None,,,,,,,tlvjds,001,0,fr,2022-05-06_11h19.43.838,3-AFC_adaptive_staircase_mess,2022.1.1,None,
,,,,,2,0,2,0,26,0,26,0,,,,,,,,,,,,,,,,up,2000,-7.5,3.154786722400965e-05,1,5,1,2.5,400.3807337666551,None,399.35344919993076,399.6766641999129,400.36406709998846,400.692115199985,401.36673899996094,401.6930793999927,up,1,4.38813370000571,399.4155270999763,None,401.89983369992115,None,,,,,,,tlvjds,001,0,fr,2022-05-06_11h19.43.838,3-AFC_adaptive_staircase_mess,2022.1.1,None,
,,,,,2,0,2,0,27,0,27,0,,,,,,,,,,,,,,,,left,2000,-7.5,3.154786722400965e-05,1,5,1,2.5,405.3832586666724,None,405.337366099935,405.6706708999118,406.3389384999173,406.6612272999482,407.32740639999975,407.6480910999235,up,0,3.064019799930975,405.3952170999255,None,407.8834651999641,None,,,,,,,tlvjds,001,0,fr,2022-05-06_11h19.43.838,3-AFC_adaptive_staircase_mess,2022.1.1,None,
,,,,,2,0,2,0,28,0,28,0,,,,,,,,,,,,,,,,up,2000,-5.0,4.206975708225974e-05,1,5,1,2.5,411.0001077666568,None,409.96478539996315,410.28775599994697,410.98344109999016,411.30509619996883,None,None,up,1,1.7282876999815926,410.02717409993056,None,None,None,,,,,,,tlvjds,001,0,fr,2022-05-06_11h19.43.838,3-AFC_adaptive_staircase_mess,2022.1.1,None,
,,,,,2,0,2,0,29,0,29,0,,,,,,,,,,,,,,,,left,2000,-5.0,4.206975708225974e-05,1,5,1,2.5,413.3180193666524,None,413.27138879999984,413.6058960999362,None,None,None,None,up,0,0.5988482999382541,413.3325601000106,None,None,None,,,,,,,tlvjds,001,0,fr,2022-05-06_11h19.43.838,3-AFC_adaptive_staircase_mess,2022.1.1,None,
,,,,,2,0,2,0,30,0,30,0,,,,,,,,,,,,,,,,left,2000,-2.5,5.610092271509818e-05,1,5,1,2.5,415.4905172666224,None,415.4452630999731,None,None,None,None,None,left,1,-1.3155370999593288,415.50306729995646,None,None,None,,,,,,,tlvjds,001,0,fr,2022-05-06_11h19.43.838,3-AFC_adaptive_staircase_mess,2022.1.1,None,
,,,,,2,0,2,0,31,0,31,0,,,,,,,,,,,,,,,,up,2000,-2.5,5.610092271509818e-05,1,5,1,2.5,None,None,417.0530734999338,None,None,None,None,None,left,0,-1.083352400106378,417.1113052999135,None,None,None,,,,,,,tlvjds,001,0,fr,2022-05-06_11h19.43.838,3-AFC_adaptive_staircase_mess,2022.1.1,None,
,,,,,2,0,2,0,32,0,32,0,,,,,,,,,,,,,,,,up,2000,0.0,7.481178280472168e-05,1,5,1,2.5,419.65487046662406,419.8822051999159,418.6086760999169,418.93980069993995,419.6088202999672,419.94625359994825,None,None,up,1,1.3896040000254288,418.6702227999922,None,None,None,,,,,,,tlvjds,001,0,fr,2022-05-06_11h19.43.838,3-AFC_adaptive_staircase_mess,2022.1.1,None,
,,,,,2,0,2,0,33,0,33,0,,,,,,,,,,,,,,,,left,2000,0.0,7.481178280472168e-05,1,5,1,2.5,421.6008853666174,None,421.5551001999993,421.8869168999372,None,None,None,None,left,1,0.5436235000379384,421.61207309993915,None,None,None,,,,,,,tlvjds,001,0,fr,2022-05-06_11h19.43.838,3-AFC_adaptive_staircase_mess,2022.1.1,None,
,,,,,2,0,2,0,34,0,34,0,,,,,,,,,,,,,,,,left,2000,-5.0,4.206975708225974e-05,-1,6,-1,-5.0,423.7141932666457,None,423.66791189997457,423.99555699992925,None,None,None,None,left,1,0.5715999000240117,423.72727439994924,None,None,None,,,,,,,tlvjds,001,0,fr,2022-05-06_11h19.43.838,3-AFC_adaptive_staircase_mess,2022.1.1,None,
,,,,,3,0,3,0,0,0,0,0,,,,,,,,,,,,,[],[],10,right,3000,30,0.001733684252262658,0,0,-1,10,429.154609366615,None,427.12472119997256,427.4475010000169,428.1112990999827,428.43370439996943,429.10877930000424,429.4388295999961,right,1,2.457985099987127,427.15329649997875,None,None,None,up,1.2547945999540389,425.38016770000104,None,425.38016770000104,None,tlvjds,001,0,fr,2022-05-06_11h19.43.838,3-AFC_adaptive_staircase_mess,2022.1.1,None,
,,,,,3,0,3,0,1,0,1,0,,,,,,,,,,,,,,,,right,3000,30,0.001733684252262658,0,0,-1,10,433.1397447665843,None,431.1089931000024,431.4304022999713,432.09919320000336,432.42353789997287,433.1230780999176,433.4550591999432,right,1,2.316342500038445,431.16762189997826,None,None,None,,,,,,,tlvjds,001,0,fr,2022-05-06_11h19.43.838,3-AFC_adaptive_staircase_mess,2022.1.1,None,
,,,,,3,0,3,0,2,0,2,0,,,,,,,,,,,,,,,,right,3000,10,0.00017336842522626576,-1,0,-1,-10,437.02070276666586,None,434.9708135999972,435.2917709000176,435.9892263999209,436.31296299991664,436.9748749999562,437.3040206999285,right,1,2.294640199979767,435.0285616000183,None,None,None,,,,,,,tlvjds,001,0,fr,2022-05-06_11h19.43.838,3-AFC_adaptive_staircase_mess,2022.1.1,None,
,,,,,3,0,3,0,3,0,3,0,,,,,,,,,,,,,,,,right,3000,10,0.00017336842522626576,-1,0,-1,-10,440.8684483665895,None,438.83094439993147,439.16236459999345,439.83101299998816,440.15843199996743,440.82329959992785,441.15344219992403,right,1,2.3159113000147045,438.89508709998336,None,None,None,,,,,,,tlvjds,001,0,fr,2022-05-06_11h19.43.838,3-AFC_adaptive_staircase_mess,2022.1.1,None,
,,,,,3,0,3,0,4,0,4,0,,,,,,,,,,,,,,,,up,3000,0,5.482390980715923e-05,-1,0,-1,-10,443.7879736666257,None,442.7528994999593,443.0703154000221,443.74136280000675,444.07177599996794,None,None,up,1,1.5991900999797508,442.7809444000013,None,None,None,,,,,,,tlvjds,001,0,fr,2022-05-06_11h19.43.838,3-AFC_adaptive_staircase_mess,2022.1.1,None,
,,,,,3,0,3,0,5,0,5,0,,,,,,,,,,,,,,,,up,3000,0,5.482390980715923e-05,-1,0,-1,-10,446.93347886664947,None,445.8894293999765,446.2090055999579,446.8877313999692,447.2102637999924,None,None,up,1,1.3633690000278875,445.94459159998223,None,None,None,,,,,,,tlvjds,001,0,fr,2022-05-06_11h19.43.838,3-AFC_adaptive_staircase_mess,2022.1.1,None,
,,,,,3,0,3,0,6,0,6,0,,,,,,,,,,,,,,,,left,3000,-10,1.7336842522626584e-05,-1,0,-1,-10,448.882673966644,None,448.8333921999438,449.15937419992406,449.839103300008,450.1695609999588,450.8330322999973,451.1637773999246,up,0,4.573024299927056,448.8944983999245,None,451.3989435000112,None,,,,,,,tlvjds,001,0,fr,2022-05-06_11h19.43.838,3-AFC_adaptive_staircase_mess,2022.1.1,None,
,,,,,3,0,3,0,7,0,7,0,,,,,,,,,,,,,,,,right,3000,-5,3.082975009307411e-05,1,1,1,5,None,None,454.9865520999301,455.30952120001893,455.98027399997227,456.3090603000019,None,None,up,0,1.7508511999621987,455.0446341999341,None,None,None,,,,,,,tlvjds,001,0,fr,2022-05-06_11h19.43.838,3-AFC_adaptive_staircase_mess,2022.1.1,None,
,,,,,3,0,3,0,8,0,8,0,,,,,,,,,,,,,,,,left,3000,0,5.482390980715923e-05,1,1,1,5,458.3444613665963,None,458.30099379993044,458.6318193000043,None,None,None,None,left,1,0.5028096999740228,458.3568202999886,None,None,None,,,,,,,tlvjds,001,0,fr,2022-05-06_11h19.43.838,3-AFC_adaptive_staircase_mess,2022.1.1,None,
,,,,,3,0,3,0,9,0,9,0,,,,,,,,,,,,,,,,left,3000,0,5.482390980715923e-05,1,1,1,5,460.4218029666847,None,460.37369389995,460.7064016999211,None,None,None,None,left,1,0.39500100002624094,460.4333723000018,None,None,None,,,,,,,tlvjds,001,0,fr,2022-05-06_11h19.43.838,3-AFC_adaptive_staircase_mess,2022.1.1,None,
,,,,,3,0,3,0,10,0,10,0,,,,,,,,,,,,,,,,up,3000,-10,1.7336842522626584e-05,-1,2,-1,-5.0,463.3956509666207,None,462.35452709998935,462.6847482000012,463.3492833999917,463.67550479993224,464.3636185999494,464.69332429999486,right,0,3.3537552000489086,462.41855409997515,None,464.9006337999599,None,,,,,,,tlvjds,001,0,fr,2022-05-06_11h19.43.838,3-AFC_adaptive_staircase_mess,2022.1.1,None,
,,,,,3,0,3,0,11,0,11,0,,,,,,,,,,,,,,,,left,3000,-7.5,2.3119051069963017e-05,1,3,1,2.5,467.3491608666411,None,467.3034843999194,467.6363936999114,468.3141006999649,468.6375089000212,469.32043239998166,469.6470413999632,up,0,3.068606900051236,467.36002269992605,None,469.8523712999886,None,,,,,,,tlvjds,001,0,fr,2022-05-06_11h19.43.838,3-AFC_adaptive_staircase_mess,2022.1.1,None,
,,,,,3,0,3,0,12,0,12,0,,,,,,,,,,,,,,,,up,3000,-5.0,3.082975009307411e-05,1,3,1,2.5,472.98426096659773,None,471.9368146000197,472.26834489998873,472.93936059996486,473.2539276999887,None,None,up,1,1.391564500052482,471.9960633999435,None,None,None,,,,,,,tlvjds,001,0,fr,2022-05-06_11h19.43.838,3-AFC_adaptive_staircase_mess,2022.1.1,None,
,,,,,3,0,3,0,13,0,13,0,,,,,,,,,,,,,,,,right,3000,-5.0,3.082975009307411e-05,1,3,1,2.5,476.9170741666496,None,474.88178910000715,475.2179336999543,475.88984009996057,476.22294639993925,476.900407499983,477.2349555999972,right,1,2.3982942000729963,474.94089799991343,None,None,None,,,,,,,tlvjds,001,0,fr,2022-05-06_11h19.43.838,3-AFC_adaptive_staircase_mess,2022.1.1,None,
,,,,,3,0,3,0,14,0,14,0,,,,,,,,,,,,,,,,left,3000,-10.0,1.7336842522626584e-05,-1,4,-1,-5.0,478.9051526666774,None,478.85828559997026,479.20093009993434,479.873956299969,480.21530699997675,480.86109229992144,481.186096200021,left,1,2.422025899984874,478.91777349996846,None,None,None,,,,,,,tlvjds,001,0,fr,2022-05-06_11h19.43.838,3-AFC_adaptive_staircase_mess,2022.1.1,None,
,,,,,3,0,3,0,15,0,15,0,,,,,,,,,,,,,,,,up,3000,-10.0,1.7336842522626584e-05,-1,4,-1,-5.0,483.8847347666199,None,482.86301799991634,483.1898484999547,483.86806809995323,484.179243999999,484.86124519992154,485.1966605000198,up,1,3.250936400028877,482.92114290001336,None,485.4041050999658,None,,,,,,,tlvjds,001,0,fr,2022-05-06_11h19.43.838,3-AFC_adaptive_staircase_mess,2022.1.1,None,
,,,,,3,0,3,0,16,0,16,0,,,,,,,,,,,,,,,,right,3000,-15.0,9.749222998790228e-06,-1,4,-1,-5.0,489.70770676661436,None,487.6728757999372,487.9973250000039,488.68105889996514,489.0105994999176,489.6910400999477,490.0200601000106,up,0,3.625694299931638,487.73062069993466,None,490.225214599981,None,,,,,,,tlvjds,001,0,fr,2022-05-06_11h19.43.838,3-AFC_adaptive_staircase_mess,2022.1.1,None,
,,,,,3,0,3,0,17,0,17,0,,,,,,,,,,,,,,,,left,3000,-12.5,1.300079781582636e-05,1,5,1,2.5,492.89943156665345,None,492.8501594000263,493.1895940999966,493.8649005999323,494.20294300001115,494.85362229996826,495.1839523999952,up,0,3.0190068000229076,492.91283289995044,None,495.41950620000716,None,,,,,,,tlvjds,001,0,fr,2022-05-06_11h19.43.838,3-AFC_adaptive_staircase_mess,2022.1.1,None,
,,,,,3,0,3,0,18,0,18,0,,,,,,,,,,,,,,,,right,3000,-10.0,1.7336842522626584e-05,1,5,1,2.5,499.4877197666249,None,497.4539111999329,497.78981400001794,498.4449080999475,498.787406599964,499.4417243999196,499.7695616999408,up,0,2.8147533999290317,497.51622300001327,None,500.0011712999549,None,,,,,,,tlvjds,001,0,fr,2022-05-06_11h19.43.838,3-AFC_adaptive_staircase_mess,2022.1.1,None,
,,,,,3,0,3,0,19,0,19,0,,,,,,,,,,,,,,,,up,3000,-7.5,2.3119051069963017e-05,1,5,1,2.5,502.8757543666909,None,501.8146168999374,502.1475130999461,502.8270520999795,503.1662685999181,None,None,up,1,1.8188885001000017,501.8725014999509,None,None,None,,,,,,,tlvjds,001,0,fr,2022-05-06_11h19.43.838,3-AFC_adaptive_staircase_mess,2022.1.1,None,
,,,,,3,0,3,0,20,0,20,0,,,,,,,,,,,,,,,,up,3000,-7.5,2.3119051069963017e-05,1,5,1,2.5,506.2513300666508,None,505.2142845999915,505.55685860000085,506.2055894000223,506.5460074999137,None,None,up,1,1.5706334999995306,505.2722995999502,None,None,None,,,,,,,tlvjds,001,0,fr,2022-05-06_11h19.43.838,3-AFC_adaptive_staircase_mess,2022.1.1,None,
,,,,,3,0,3,0,21,0,21,0,,,,,,,,,,,,,,,,right,3000,-12.5,1.300079781582636e-05,-1,6,-1,-5.0,510.4152083666452,None,508.3656787999207,508.6977890999988,509.3571472999174,509.685752499965,510.3661418999545,510.7083882999141,right,1,3.6964220999507234,508.4270872999914,None,510.9262763999868,None,,,,,,,tlvjds,001,0,fr,2022-05-06_11h19.43.838,3-AFC_adaptive_staircase_mess,2022.1.1,None,
,,,,,4,0,4,0,0,0,0,0,,,,,,,,,,,,,[],[],10,up,4000,30,0.0026544222211549416,0,0,-1,10,519.8506416666244,None,518.8133738000179,519.1492155999877,519.8050701000029,520.1473105999175,None,None,up,1,1.4401713999686763,518.8439246999333,None,None,None,up,5.116977300029248,513.2138871999923,None,513.2138871999923,None,tlvjds,001,0,fr,2022-05-06_11h19.43.838,3-AFC_adaptive_staircase_mess,2022.1.1,None,
,,,,,4,0,4,0,1,0,1,0,,,,,,,,,,,,,,,,right,4000,30,0.0026544222211549416,0,0,-1,10,523.8419251666094,None,521.8108180999989,522.1360332999611,522.8134010999929,523.1469115000218,523.7960307999747,524.1098907999694,right,1,2.2667158000404015,521.8406380999368,None,None,None,,,,,,,tlvjds,001,0,fr,2022-05-06_11h19.43.838,3-AFC_adaptive_staircase_mess,2022.1.1,None,
,,,,,4,0,4,0,2,0,2,0,,,,,,,,,,,,,,,,right,4000,10,0.00026544222211549425,-1,0,-1,-10,527.6407977666861,None,525.611439100001,525.9401839999482,526.6193612000206,526.9499948999146,527.5955919999396,527.9139889000216,right,1,2.3081862000981346,525.6398971999297,None,None,None,,,,,,,tlvjds,001,0,fr,2022-05-06_11h19.43.838,3-AFC_adaptive_staircase_mess,2022.1.1,None,
,,,,,4,0,4,0,3,0,3,0,,,,,,,,,,,,,,,,up,4000,10,0.00026544222211549425,-1,0,-1,-10,530.5389538666388,None,529.495042399969,529.8256353000179,530.4903208999895,530.8274113999214,None,None,up,1,1.4635597999440506,529.5240856999299,None,None,None,,,,,,,tlvjds,001,0,fr,2022-05-06_11h19.43.838,3-AFC_adaptive_staircase_mess,2022.1.1,None,
,,,,,4,0,4,0,4,0,4,0,,,,,,,,,,,,,,,,left,4000,0,8.394020090612804e-05,-1,0,-1,-10,532.5540281666365,None,532.5090841000201,532.8470386000117,None,None,None,None,left,1,0.4858187000500038,532.5660296999849,None,None,None,,,,,,,tlvjds,001,0,fr,2022-05-06_11h19.43.838,3-AFC_adaptive_staircase_mess,2022.1.1,None,
,,,,,4,0,4,0,5,0,5,0,,,,,,,,,,,,,,,,right,4000,0,8.394020090612804e-05,-1,0,-1,-10,536.5822368666452,None,534.5446531999623,534.8873784999596,535.5657979999669,535.8801666999934,536.5655701999785,536.901753299986,right,1,2.35343640006613,534.6025378999766,None,None,None,,,,,,,tlvjds,001,0,fr,2022-05-06_11h19.43.838,3-AFC_adaptive_staircase_mess,2022.1.1,None,
,,,,,4,0,4,0,6,0,6,0,,,,,,,,,,,,,,,,up,4000,-10,2.6544222211549425e-05,-1,0,-1,-10,539.4864209666305,None,538.4718971999828,538.8082227000268,539.4697542999638,539.7946808999404,540.4510155000025,540.7662592999404,up,1,2.390083699952811,538.5004954999313,None,None,None,,,,,,,tlvjds,001,0,fr,2022-05-06_11h19.43.838,3-AFC_adaptive_staircase_mess,2022.1.1,None,
,,,,,4,0,4,0,7,0,7,0,,,,,,,,,,,,,,,,up,4000,-10,2.6544222211549425e-05,-1,0,-1,-10,543.4620411666731,None,542.4360957000172,542.7679455999751,543.415839000023,543.7341389999492,544.4210550999269,544.7570927999914,up,1,2.504823499941267,542.499650600017,None,544.9719261999708,None,,,,,,,tlvjds,001,0,fr,2022-05-06_11h19.43.838,3-AFC_adaptive_staircase_mess,2022.1.1,None,
,,,,,4,0,4,0,8,0,8,0,,,,,,,,,,,,,,,,up,4000,-20,8.394020090612804e-06,-1,0,-1,-10,547.5252882666575,None,546.5071198999649,546.8445443999954,547.5086215999909,547.8200945999706,548.5042713999283,548.8388581000036,up,1,2.8794797000009567,546.5389464999316,None,549.0462215999141,None,,,,,,,tlvjds,001,0,fr,2022-05-06_11h19.43.838,3-AFC_adaptive_staircase_mess,2022.1.1,None,
,,,,,4,0,4,0,9,0,9,0,,,,,,,,,,,,,,,,up,4000,-20,8.394020090612804e-06,-1,0,-1,-10,551.9738591666721,None,550.9426171999658,551.2752106999978,551.9276968999766,552.2542726999382,552.9434932000004,553.2786468999693,left,0,2.413139299955219,551.0063484999118,None,None,None,,,,,,,tlvjds,001,0,fr,2022-05-06_11h19.43.838,3-AFC_adaptive_staircase_mess,2022.1.1,None,
,,,,,4,0,4,0,10,0,10,0,,,,,,,,,,,,,,,,up,4000,-15,1.4926913094589802e-05,1,1,1,5,555.9571272666255,None,554.9320292000193,555.2592878999421,555.9104882000247,556.2551010999596,556.9119984999998,557.2468181999866,up,1,3.097575300023891,554.9620938999578,None,557.4857868999243,None,,,,,,,tlvjds,001,0,fr,2022-05-06_11h19.43.838,3-AFC_adaptive_staircase_mess,2022.1.1,None,
,,,,,4,0,4,0,11,0,11,0,,,,,,,,,,,,,,,,up,4000,-15,1.4926913094589802e-05,1,1,1,5,560.6240283665868,None,559.5950368000194,559.9072101999773,560.6073616999201,560.9353710999712,561.5852111999411,561.9135596000124,up,1,2.692071700002998,559.6549863999244,None,562.1463850999717,None,,,,,,,tlvjds,001,0,fr,2022-05-06_11h19.43.838,3-AFC_adaptive_staircase_mess,2022.1.1,None,
,,,,,4,0,4,0,12,0,12,0,,,,,,,,,,,,,,,,right,4000,-25,4.720304381429618e-06,-1,2,-1,-5.0,565.8963368666048,None,563.8490897999145,564.1767456999514,564.8538432000205,565.1740240999497,565.8498175999848,566.1783803999424,right,1,2.6291290000081062,563.9095986000029,None,566.4176424000179,None,,,,,,,tlvjds,001,0,fr,2022-05-06_11h19.43.838,3-AFC_adaptive_staircase_mess,2022.1.1,None,
,,,,,4,0,4,0,13,0,13,0,,,,,,,,,,,,,,,,right,4000,-25,4.720304381429618e-06,-1,2,-1,-5.0,570.1138067666363,None,568.0886144000106,568.4206275999313,569.0933303999482,569.421928399941,570.0971400999697,570.4331763000228,right,1,2.8870326000032946,568.1487819999456,None,570.6412627999671,None,,,,,,,tlvjds,001,0,fr,2022-05-06_11h19.43.838,3-AFC_adaptive_staircase_mess,2022.1.1,None,
,,,,,4,0,4,0,14,0,14,0,,,,,,,,,,,,,,,,left,4000,-30.0,2.6544222211549426e-06,-1,2,-1,-5.0,572.6039176666566,None,572.5612024000147,572.8946733999765,573.5717544999206,573.8980035999557,574.5721953000175,574.9024392999709,left,1,3.106175000080839,572.6173673999729,None,575.112059499952,None,,,,,,,tlvjds,001,0,fr,2022-05-06_11h19.43.838,3-AFC_adaptive_staircase_mess,2022.1.1,None,
,,,,,4,0,4,0,15,0,15,0,,,,,,,,,,,,,,,,right,4000,-30.0,2.6544222211549426e-06,-1,2,-1,-5.0,579.3003027666748,None,577.2566828000126,577.5860558999702,578.2859342999291,578.6112991999835,579.2836361000082,579.6148283999646,up,0,2.98546500003431,577.3146900999127,None,579.8278892999515,None,,,,,,,tlvjds,001,0,fr,2022-05-06_11h19.43.838,3-AFC_adaptive_staircase_mess,2022.1.1,None,
,,,,,4,0,4,0,16,0,16,0,,,,,,,,,,,,,,,,right,4000,-27.5,3.53972892192069e-06,1,3,1,2.5,583.8528921666477,None,581.805765899946,582.1336618999485,582.827247499954,583.1526539999759,583.8080862999195,584.1429019999923,up,0,2.929705600021407,581.8661793000065,None,584.3498473999789,None,,,,,,,tlvjds,001,0,fr,2022-05-06_11h19.43.838,3-AFC_adaptive_staircase_mess,2022.1.1,None,
,,,,,4,0,4,0,17,0,17,0,,,,,,,,,,,,,,,,left,4000,-25.0,4.720304381429618e-06,1,3,1,2.5,586.3499212666104,None,586.3332545999438,586.6639686999843,587.3087557000108,587.6442975000245,588.3155998999719,588.6618449999951,left,1,2.8962705999147147,586.3640290999319,None,588.8697336999467,None,,,,,,,tlvjds,001,0,fr,2022-05-06_11h19.43.838,3-AFC_adaptive_staircase_mess,2022.1.1,None,
,,,,,4,0,4,0,18,0,18,0,,,,,,,,,,,,,,,,left,4000,-25.0,4.720304381429618e-06,1,3,1,2.5,590.8212332666774,None,590.763025399996,591.0769801000133,591.7763684999663,592.102520299959,592.7739126000088,593.1038263000082,up,0,2.7604748000157997,590.8351189999375,None,593.3386326999171,None,,,,,,,tlvjds,001,0,fr,2022-05-06_11h19.43.838,3-AFC_adaptive_staircase_mess,2022.1.1,None,
,,,,,4,0,4,0,19,0,19,0,,,,,,,,,,,,,,,,left,4000,-22.5,6.294627058970837e-06,1,3,1,2.5,595.1510803666354,None,595.1049405999947,595.4361266000196,596.1059486999875,596.4442928999197,597.1039517999161,597.4414068999467,right,0,3.857711200020276,595.1614434999647,None,597.649349299958,None,,,,,,,tlvjds,001,0,fr,2022-05-06_11h19.43.838,3-AFC_adaptive_staircase_mess,2022.1.1,None,
,,,,,4,0,4,0,20,0,20,0,,,,,,,,,,,,,,,,left,4000,-20.0,8.394020090612804e-06,1,3,1,2.5,600.5942040666162,None,600.5473665000172,600.8763968999265,601.5464006999973,601.8703119999263,602.5386735999491,602.8641283999896,right,0,3.2131373999873176,600.6067970999284,None,603.0985335999867,None,,,,,,,tlvjds,001,0,fr,2022-05-06_11h19.43.838,3-AFC_adaptive_staircase_mess,2022.1.1,None,
,,,,,4,0,4,0,21,0,21,0,,,,,,,,,,,,,,,,left,4000,-17.5,1.11936056928417e-05,1,3,1,2.5,605.3963496665858,None,605.3475154999178,605.6796423000051,606.3507127999328,606.6764021000126,607.3437469999772,607.6656461999519,up,0,2.7764317999826744,605.4118163000094,None,607.902626199997,None,,,,,,,tlvjds,001,0,fr,2022-05-06_11h19.43.838,3-AFC_adaptive_staircase_mess,2022.1.1,None,
,,,,,4,0,4,0,22,0,22,0,,,,,,,,,,,,,,,,right,4000,-15.0,1.4926913094589802e-05,1,3,1,2.5,611.7498949666663,None,609.7278056999203,610.0509647999424,610.710226599942,611.0296875999775,611.7332282999996,612.0677267999854,left,0,2.5345403000246733,609.7488631999586,None,612.2716982999118,None,,,,,,,tlvjds,001,0,fr,2022-05-06_11h19.43.838,3-AFC_adaptive_staircase_mess,2022.1.1,None,
,,,,,4,0,4,0,23,0,23,0,,,,,,,,,,,,,,,,up,4000,-12.5,1.9905358527674868e-05,1,3,1,2.5,614.8473092666284,None,613.8171062999172,614.1350067999447,614.8009660999523,615.1387175999116,615.8181333999382,616.1452079999726,up,1,2.7316921999445185,613.8721919999225,None,616.3747317999369,None,,,,,,,tlvjds,001,0,fr,2022-05-06_11h19.43.838,3-AFC_adaptive_staircase_mess,2022.1.1,None,
,,,,,4,0,4,0,24,0,24,0,,,,,,,,,,,,,,,,left,4000,-12.5,1.9905358527674868e-05,1,3,1,2.5,618.1555357666841,None,618.1108369999565,618.4379937999183,None,None,None,None,left,1,0.7872756000142545,618.168227499933,None,None,None,,,,,,,tlvjds,001,0,fr,2022-05-06_11h19.43.838,3-AFC_adaptive_staircase_mess,2022.1.1,None,
,,,,,4,0,4,0,25,0,25,0,,,,,,,,,,,,,,,,left,4000,-17.5,1.11936056928417e-05,-1,4,-1,-5.0,620.4974501666768,620.7243614000035,620.4510172000155,620.780293299933,621.4582520999247,621.7791304999264,622.461601799936,622.7845025999704,up,0,2.494679900002666,620.5090652999934,None,622.9892397000222,None,,,,,,,tlvjds,001,0,fr,2022-05-06_11h19.43.838,3-AFC_adaptive_staircase_mess,2022.1.1,None,
,,,,,4,0,4,0,26,0,26,0,,,,,,,,,,,,,,,,up,4000,-15.0,1.4926913094589802e-05,1,5,1,2.5,625.5481430666443,None,624.510214400012,624.8334809999214,625.5314763999777,625.8631076000165,None,None,up,1,1.4342496999306604,624.5617402999196,None,None,None,,,,,,,tlvjds,001,0,fr,2022-05-06_11h19.43.838,3-AFC_adaptive_staircase_mess,2022.1.1,None,
,,,,,4,0,4,0,27,0,27,0,,,,,,,,,,,,,,,,right,4000,-15.0,1.4926913094589802e-05,1,5,1,2.5,629.53074006661,None,627.4938565000193,627.8141593999462,628.4930876999861,628.8126307999482,629.4850403999444,629.8178772999672,right,1,2.38986630004365,627.5578786999686,None,None,None,,,,,,,tlvjds,001,0,fr,2022-05-06_11h19.43.838,3-AFC_adaptive_staircase_mess,2022.1.1,None,
,,,,,4,0,4,0,28,0,28,0,,,,,,,,,,,,,,,,left,4000,-20.0,8.394020090612804e-06,-1,6,-1,-5.0,631.499419666656,None,631.454913900001,631.7902014999418,632.4584194999188,632.7839300999185,633.4508535999339,633.7748302000109,right,0,2.6585129000013694,631.5125916999532,None,634.0097801999655,None,,,,,,,tlvjds,001,0,fr,2022-05-06_11h19.43.838,3-AFC_adaptive_staircase_mess,2022.1.1,None,
,,,,,5,0,5,0,0,0,0,0,,,,,,,,,,,,,[],[],10,right,6000,30,0.003664122665694519,0,0,-1,10,659.4500517666495,None,657.398449899978,657.7210151000181,658.3885527999373,658.7146059999941,659.4054337999551,659.7376608999912,right,1,2.3454444999806583,657.4575391999679,None,None,None,up,21.665887500043027,635.2573938999558,None,635.2573938999558,None,tlvjds,001,0,fr,2022-05-06_11h19.43.838,3-AFC_adaptive_staircase_mess,2022.1.1,None,
,,,,,5,0,5,0,1,0,1,0,,,,,,,,,,,,,,,,left,6000,30,0.003664122665694519,0,0,-1,10,661.365751666661,None,661.3210677999305,661.6523674000055,None,None,None,None,left,1,0.5814933000365272,661.3811511999229,None,None,None,,,,,,,tlvjds,001,0,fr,2022-05-06_11h19.43.838,3-AFC_adaptive_staircase_mess,2022.1.1,None,
,,,,,5,0,5,0,2,0,2,0,,,,,,,,,,,,,,,,right,6000,10,0.00036641226656945183,-1,0,-1,-10,665.5239085666292,None,663.4637287999503,663.7870709999697,664.4825760999229,664.8076494999696,665.4779456999386,665.8056899999501,right,1,2.3772647000150755,663.52220389992,None,None,None,,,,,,,tlvjds,001,0,fr,2022-05-06_11h19.43.838,3-AFC_adaptive_staircase_mess,2022.1.1,None,
,,,,,5,0,5,0,3,0,3,0,,,,,,,,,,,,,,,,up,6000,10,0.00036641226656945183,-1,0,-1,-10,668.4603560666476,None,667.4251442999812,667.7404311000137,668.4436893999809,668.7716014999896,None,None,up,1,1.3402930999873206,667.4866344999755,None,None,None,,,,,,,tlvjds,001,0,fr,2022-05-06_11h19.43.838,3-AFC_adaptive_staircase_mess,2022.1.1,None,
,,,,,5,0,5,0,4,0,4,0,,,,,,,,,,,,,,,,right,6000,0,0.00011586973249842387,-1,0,-1,-10,672.369346066673,None,670.3298637999687,670.6543766999384,671.3128072000109,671.6331624999875,672.3106985000195,672.6464521000162,right,1,2.261659700074233,670.389642199967,None,None,None,,,,,,,tlvjds,001,0,fr,2022-05-06_11h19.43.838,3-AFC_adaptive_staircase_mess,2022.1.1,None,
,,,,,5,0,5,0,5,0,5,0,,,,,,,,,,,,,,,,up,6000,0,0.00011586973249842387,-1,0,-1,-10,675.2186519666031,None,674.1615373999812,674.4872549999272,675.1724744000239,675.5035166000016,None,None,up,1,1.4028079999843612,674.2239988999208,None,None,None,,,,,,,tlvjds,001,0,fr,2022-05-06_11h19.43.838,3-AFC_adaptive_staircase_mess,2022.1.1,None,
,,,,,5,0,5,0,6,0,6,0,,,,,,,,,,,,,,,,left,6000,-10,3.664122665694518e-05,-1,0,-1,-10,677.1877006666657,None,677.1418214999139,677.4733173999703,678.1420688999351,678.4656686999369,679.1340679000132,679.465352499974,right,0,3.964904599939473,677.1987246000208,None,679.6925406999653,None,,,,,,,tlvjds,001,0,fr,2022-05-06_11h19.43.838,3-AFC_adaptive_staircase_mess,2022.1.1,None,
,,,,,5,0,5,0,7,0,7,0,,,,,,,,,,,,,,,,up,6000,-5,6.515833892261494e-05,1,1,1,5,683.7212351665987,None,682.6722119000042,683.0036045999732,683.6719774999656,684.0051826999988,None,None,up,1,1.4344583000056446,682.737682399922,None,None,None,,,,,,,tlvjds,001,0,fr,2022-05-06_11h19.43.838,3-AFC_adaptive_staircase_mess,2022.1.1,None,
,,,,,5,0,5,0,8,0,8,0,,,,,,,,,,,,,,,,right,6000,-5,6.515833892261494e-05,1,1,1,5,687.712827766609,None,685.6576837999746,685.9915505999234,686.6867964999983,687.0104751000181,687.6961610999424,688.0240989999147,right,1,2.316957199946046,685.7271174999187,None,None,None,,,,,,,tlvjds,001,0,fr,2022-05-06_11h19.43.838,3-AFC_adaptive_staircase_mess,2022.1.1,None,
,,,,,5,0,5,0,9,0,9,0,,,,,,,,,,,,,,,,right,6000,-15,2.0604875954866497e-05,-1,2,-1,-5.0,691.5876833666737,None,689.5412057000212,689.8637406999478,690.5532054000068,690.8789907000028,691.5431878999807,691.8822605999885,up,0,2.4923973999684677,689.5980623000069,None,692.0892519999761,None,,,,,,,tlvjds,001,0,fr,2022-05-06_11h19.43.838,3-AFC_adaptive_staircase_mess,2022.1.1,None,
,,,,,5,0,5,0,10,0,10,0,,,,,,,,,,,,,,,,left,6000,-12.5,2.7477043692881217e-05,1,3,1,2.5,693.6630312665986,None,693.6169828999555,693.9513250999153,None,None,None,None,left,1,0.745613000006415,693.6658372000093,None,None,None,,,,,,,tlvjds,001,0,fr,2022-05-06_11h19.43.838,3-AFC_adaptive_staircase_mess,2022.1.1,None,
,,,,,5,0,5,0,11,0,11,0,,,,,,,,,,,,,,,,right,6000,-12.5,2.7477043692881217e-05,1,3,1,2.5,697.968557066579,698.1965764999622,695.9153688999359,696.2379001999507,696.9346947999438,697.2562537000049,697.9230872999178,698.2560880000237,right,1,2.435531900031492,695.9763924999861,None,698.4475935666744,None,,,,,,,tlvjds,001,0,fr,2022-05-06_11h19.43.838,3-AFC_adaptive_staircase_mess,2022.1.1,None,
,,,,,5,0,5,0,12,0,12,0,,,,,,,,,,,,,,,,right,6000,-17.5,1.5451477162567947e-05,-1,4,-1,-5.0,701.972590066671,None,699.9291949999752,700.2522293999791,700.9153399999486,701.2378060999326,701.9269288999494,702.260602699942,up,0,3.527900999994017,699.9868585999357,None,702.4673639999237,None,,,,,,,tlvjds,001,0,fr,2022-05-06_11h19.43.838,3-AFC_adaptive_staircase_mess,2022.1.1,None,
,,,,,5,0,5,0,13,0,13,0,,,,,,,,,,,,,,,,right,6000,-15.0,2.0604875954866497e-05,1,5,1,2.5,707.0820112666736,None,705.0257520999294,705.3483318999643,706.0175649999874,706.3429888000246,707.0358583999332,707.3652816999238,up,0,3.0691196999978274,705.0863292999566,None,707.5711724999128,None,,,,,,,tlvjds,001,0,fr,2022-05-06_11h19.43.838,3-AFC_adaptive_staircase_mess,2022.1.1,None,
,,,,,5,0,5,0,14,0,14,0,,,,,,,,,,,,,,,,up,6000,-12.5,2.7477043692881217e-05,1,5,1,2.5,710.7045867666059,None,709.6650406999979,709.9928931000177,710.6599062000168,710.9768483999651,711.6815727999201,711.9998778000008,right,0,3.099309799959883,709.7275763999205,None,712.2339812999126,None,,,,,,,tlvjds,001,0,fr,2022-05-06_11h19.43.838,3-AFC_adaptive_staircase_mess,2022.1.1,None,
,,,,,5,0,5,0,15,0,15,0,,,,,,,,,,,,,,,,right,6000,-10.0,3.664122665694518e-05,1,5,1,2.5,716.3912519666521,None,714.3458467000164,714.666481699911,715.3577132999199,715.6799285999732,716.34588909999,716.6766953999177,right,1,2.6808332999935374,714.4024622999132,None,716.9096819999395,None,,,,,,,tlvjds,001,0,fr,2022-05-06_11h19.43.838,3-AFC_adaptive_staircase_mess,2022.1.1,None,
,,,,,5,0,5,0,16,0,16,0,,,,,,,,,,,,,,,,right,6000,-10.0,3.664122665694518e-05,1,5,1,2.5,720.6597233666728,None,718.6127916999394,718.9379452000139,719.6023261999944,719.9224868000019,720.6102333000163,720.9464367999462,right,1,2.7290847999975085,718.6738922999939,None,721.1551845999202,None,,,,,,,tlvjds,001,0,fr,2022-05-06_11h19.43.838,3-AFC_adaptive_staircase_mess,2022.1.1,None,
,,,,,5,0,5,0,17,0,17,0,,,,,,,,,,,,,,,,right,6000,-15.0,2.0604875954866497e-05,-1,6,-1,-5.0,724.9504634666412,725.1688204000238,722.9187010999303,723.2439931000117,723.9116501000244,724.2352087999461,724.9023143999511,725.2239193000132,right,1,4.153064199956134,722.9785449999617,None,725.4580500000156,None,,,,,,,tlvjds,001,0,fr,2022-05-06_11h19.43.838,3-AFC_adaptive_staircase_mess,2022.1.1,None,
,,,,,6,0,6,0,0,0,0,0,,,,,,,,,,,,,[],[],10,left,8000,30,0.005740768107484416,0,0,-1,10,730.7250522666766,None,730.7083856000099,731.0378727000207,None,None,None,None,left,1,0.47121749992948025,730.7400066999253,None,None,None,up,1.975838900078088,728.22772049997,None,728.22772049997,None,tlvjds,001,0,fr,2022-05-06_11h19.43.838,3-AFC_adaptive_staircase_mess,2022.1.1,None,
,,,,,6,0,6,0,1,0,1,0,,,,,,,,,,,,,,,,left,8000,30,0.005740768107484416,0,0,-1,10,732.7555177666402,None,732.7096396000125,733.0322216999484,None,None,None,None,left,1,0.41150010004639626,732.7681377999252,None,None,None,,,,,,,tlvjds,001,0,fr,2022-05-06_11h19.43.838,3-AFC_adaptive_staircase_mess,2022.1.1,None,
,,,,,6,0,6,0,2,0,2,0,,,,,,,,,,,,,,,,right,8000,10,0.0005740768107484417,-1,0,-1,-10,736.742236366674,None,734.6970153999282,735.0314027999993,735.6916869999841,736.014083600021,736.6924153999425,737.0272386999568,right,1,2.269458999973722,734.7657163999975,None,None,None,,,,,,,tlvjds,001,0,fr,2022-05-06_11h19.43.838,3-AFC_adaptive_staircase_mess,2022.1.1,None,
,,,,,6,0,6,0,3,0,3,0,,,,,,,,,,,,,,,,left,8000,10,0.0005740768107484417,-1,0,-1,-10,738.5961340666438,None,738.5495331999846,738.8783194000134,None,None,None,None,left,1,0.4583686999976635,738.6087507000193,None,None,None,,,,,,,tlvjds,001,0,fr,2022-05-06_11h19.43.838,3-AFC_adaptive_staircase_mess,2022.1.1,None,
,,,,,6,0,6,0,4,0,4,0,,,,,,,,,,,,,,,,left,8000,0,0.0001815390273850507,-1,0,-1,-10,740.6163357666849,None,740.5716035999358,740.899130799924,None,None,None,None,left,1,0.42018020001705736,740.6315619000234,None,None,None,,,,,,,tlvjds,001,0,fr,2022-05-06_11h19.43.838,3-AFC_adaptive_staircase_mess,2022.1.1,None,
,,,,,6,0,6,0,5,0,5,0,,,,,,,,,,,,,,,,left,8000,0,0.0001815390273850507,-1,0,-1,-10,742.6295837666296,None,742.5853514999617,742.9051589999581,None,None,None,None,left,1,0.3786128999199718,742.6403258999344,None,None,None,,,,,,,tlvjds,001,0,fr,2022-05-06_11h19.43.838,3-AFC_adaptive_staircase_mess,2022.1.1,None,
,,,,,6,0,6,0,6,0,6,0,,,,,,,,,,,,,,,,left,8000,-10,5.740768107484415e-05,-1,0,-1,-10,744.5666082666178,None,744.5206937999465,744.8535316999769,None,None,None,None,left,1,0.7122326999669895,744.5789034999907,None,None,None,,,,,,,tlvjds,001,0,fr,2022-05-06_11h19.43.838,3-AFC_adaptive_staircase_mess,2022.1.1,None,
,,,,,6,0,6,0,7,0,7,0,,,,,,,,,,,,,,,,left,8000,-10,5.740768107484415e-05,-1,0,-1,-10,746.8576377665779,None,746.8100371999899,747.1259700999362,747.8200020999648,None,None,None,left,1,0.9948434999678284,746.872704999987,None,None,None,,,,,,,tlvjds,001,0,fr,2022-05-06_11h19.43.838,3-AFC_adaptive_staircase_mess,2022.1.1,None,
,,,,,6,0,6,0,8,0,8,0,,,,,,,,,,,,,,,,up,8000,-20,1.815390273850507e-05,-1,0,-1,-10,750.4392261666401,None,749.3882481999462,749.7175987999653,750.3942455999786,750.724206599989,751.3972588999895,751.7168367999839,left,0,4.0857052999781445,749.4461056999862,None,751.9526084000245,None,,,,,,,tlvjds,001,0,fr,2022-05-06_11h19.43.838,3-AFC_adaptive_staircase_mess,2022.1.1,None,
,,,,,6,0,6,0,9,0,9,0,,,,,,,,,,,,,,,,left,8000,-15,3.228271145173278e-05,1,1,1,5,755.079673466684,None,755.0340481000021,755.366842999938,756.0358773999615,756.3576164999977,757.0268814999145,757.3477625999367,up,0,4.551122899982147,755.0919396999525,None,757.5828365000198,None,,,,,,,tlvjds,001,0,fr,2022-05-06_11h19.43.838,3-AFC_adaptive_staircase_mess,2022.1.1,None,
,,,,,6,0,6,0,10,0,10,0,,,,,,,,,,,,,,,,right,8000,-10,5.740768107484415e-05,1,1,1,5,763.2170648666254,None,761.1685986999655,761.5065984999528,762.1791058999952,762.506558299996,763.1710383999161,763.4962912999326,right,1,2.7510955999605358,761.2275234999834,None,763.7306033999193,None,,,,,,,tlvjds,001,0,fr,2022-05-06_11h19.43.838,3-AFC_adaptive_staircase_mess,2022.1.1,None,
,,,,,6,0,6,0,11,0,11,0,,,,,,,,,,,,,,,,left,8000,-10,5.740768107484415e-05,1,1,1,5,765.5495067666673,None,765.5025587999262,765.8284043999156,None,None,None,None,left,1,0.8659292999655008,765.5611429999117,None,None,None,,,,,,,tlvjds,001,0,fr,2022-05-06_11h19.43.838,3-AFC_adaptive_staircase_mess,2022.1.1,None,
,,,,,6,0,6,0,12,0,12,0,,,,,,,,,,,,,,,,right,8000,-20,1.815390273850507e-05,-1,2,-1,-5.0,769.9857736665911,None,767.952478799969,768.2739547999809,768.939372099936,769.2601049999939,769.9399369999301,770.266516399919,up,0,2.689500299980864,768.0097957999678,None,770.5006316999206,None,,,,,,,tlvjds,001,0,fr,2022-05-06_11h19.43.838,3-AFC_adaptive_staircase_mess,2022.1.1,None,
,,,,,6,0,6,0,13,0,13,0,,,,,,,,,,,,,,,,right,8000,-17.5,2.420861837920497e-05,1,3,1,2.5,774.2818987665853,None,772.2430319999112,772.563845800003,773.232856699964,773.5693411999382,774.2333635999821,774.5661295999307,left,0,3.5989136999705806,772.3007353999419,None,774.8041791999713,None,,,,,,,tlvjds,001,0,fr,2022-05-06_11h19.43.838,3-AFC_adaptive_staircase_mess,2022.1.1,None,
,,,,,6,0,6,0,14,0,14,0,,,,,,,,,,,,,,,,right,8000,-15.0,3.228271145173278e-05,1,3,1,2.5,779.4552235666818,779.6867909999564,777.4036429999396,777.7358523999574,778.4052778999321,778.7407062000129,779.4038031999953,779.7201907999115,up,0,2.415470500010997,777.4681033999659,None,None,None,,,,,,,tlvjds,001,0,fr,2022-05-06_11h19.43.838,3-AFC_adaptive_staircase_mess,2022.1.1,None,
,,,,,6,0,6,0,15,0,15,0,,,,,,,,,,,,,,,,up,8000,-12.5,4.304968760923004e-05,1,3,1,2.5,782.4294358665977,None,781.4170996999601,781.7445233999752,782.4127691999311,782.7363229999319,783.4166222999338,783.7550469000125,up,1,2.7388969999738038,781.4484823999228,None,783.9627396999858,None,,,,,,,tlvjds,001,0,fr,2022-05-06_11h19.43.838,3-AFC_adaptive_staircase_mess,2022.1.1,None,
,,,,,6,0,6,0,16,0,16,0,,,,,,,,,,,,,,,,left,8000,-12.5,4.304968760923004e-05,1,3,1,2.5,785.7537935666662,None,785.7074379000114,786.0450502999593,786.6958858999424,787.02697180002,787.7094752999255,788.0394098999677,left,1,2.7587067000567913,785.7655617999844,None,788.2783403999638,None,,,,,,,tlvjds,001,0,fr,2022-05-06_11h19.43.838,3-AFC_adaptive_staircase_mess,2022.1.1,None,
,,,,,6,0,6,0,17,0,17,0,,,,,,,,,,,,,,,,up,8000,-17.5,2.420861837920497e-05,-1,4,-1,-5.0,791.0795541665905,None,790.0592936999165,790.3820270999568,791.0334826000035,791.3659526000265,792.0499322999967,792.3831072999164,up,1,3.0452535999938846,790.0869197999127,None,792.5875738000032,None,,,,,,,tlvjds,001,0,fr,2022-05-06_11h19.43.838,3-AFC_adaptive_staircase_mess,2022.1.1,None,
,,,,,6,0,6,0,18,0,18,0,,,,,,,,,,,,,,,,right,8000,-17.5,2.420861837920497e-05,-1,4,-1,-5.0,796.6737322665906,None,794.6548251999775,794.9879048999865,795.6385978999315,795.9721914000111,796.657065599924,796.9942446999485,up,0,2.7969580000499263,794.7183498999802,None,797.2040344999405,None,,,,,,,tlvjds,001,0,fr,2022-05-06_11h19.43.838,3-AFC_adaptive_staircase_mess,2022.1.1,None,
,,,,,6,0,6,0,19,0,19,0,,,,,,,,,,,,,,,,right,8000,-15.0,3.228271145173278e-05,1,5,1,2.5,801.0569833666707,None,799.0360156999668,799.3777166999644,800.0276294000214,800.3588245999999,801.0109564999584,801.343678999925,right,1,3.4262983000371605,799.0649570999667,None,801.5868215999799,None,,,,,,,tlvjds,001,0,fr,2022-05-06_11h19.43.838,3-AFC_adaptive_staircase_mess,2022.1.1,None,
,,,,,6,0,6,0,20,0,20,0,,,,,,,,,,,,,,,,right,8000,-15.0,3.228271145173278e-05,1,5,1,2.5,806.0464273666187,None,803.9902221999364,804.3222168999491,804.9991117999889,805.314360099961,805.9978041999275,806.3313286999473,left,0,2.5398302000248805,804.0474181999452,None,806.5662669999292,None,,,,,,,tlvjds,001,0,fr,2022-05-06_11h19.43.838,3-AFC_adaptive_staircase_mess,2022.1.1,None,
,,,,,6,0,6,0,21,0,21,0,,,,,,,,,,,,,,,,left,8000,-12.5,4.304968760923004e-05,1,5,1,2.5,808.1136576666652,None,808.0969909999985,808.4363733999198,809.093207799946,809.4270503999433,810.099846499972,810.4318444000091,up,0,3.660758199985139,808.1267891000025,None,810.6367232999764,None,,,,,,,tlvjds,001,0,fr,2022-05-06_11h19.43.838,3-AFC_adaptive_staircase_mess,2022.1.1,None,
,,,,,6,0,6,0,22,0,22,0,,,,,,,,,,,,,,,,right,8000,-10.0,5.740768107484415e-05,1,5,1,2.5,815.3535862665778,None,813.3192318999209,813.6476658999454,814.3082685000263,814.6477234999184,815.3040344999172,815.6450685999589,right,1,2.950767600093968,813.348789599957,None,815.8511130999541,None,,,,,,,tlvjds,001,0,fr,2022-05-06_11h19.43.838,3-AFC_adaptive_staircase_mess,2022.1.1,None,
,,,,,6,0,6,0,23,0,23,0,,,,,,,,,,,,,,,,left,8000,-10.0,5.740768107484415e-05,1,5,1,2.5,817.8349043665842,None,817.8182376999175,818.1358548999997,None,None,None,None,left,1,0.6758082000305876,817.8465672999155,None,None,None,,,,,,,tlvjds,001,0,fr,2022-05-06_11h19.43.838,3-AFC_adaptive_staircase_mess,2022.1.1,None,
,,,,,6,0,6,0,24,0,24,0,,,,,,,,,,,,,,,,up,8000,-15.0,3.228271145173278e-05,-1,6,-1,-5.0,821.0815292666123,None,820.0414138999768,820.3766047999961,821.0648625999456,821.4101710999385,822.0393747999333,822.3775448999368,up,1,3.5914419000037014,820.099751999951,None,822.6152880999725,None,,,,,,,tlvjds,001,0,fr,2022-05-06_11h19.43.838,3-AFC_adaptive_staircase_mess,2022.1.1,None,
,,,,,7,0,7,0,0,0,0,0,,,,,,,,,,,,,[],[],10,left,750,30,0.0012851978913844323,0,0,-1,10,833.868477566579,None,833.8518108999124,834.1981495999498,None,None,None,None,left,1,0.33778459997847676,833.8816989000188,None,None,None,up,8.608588800067082,824.746217399952,None,824.746217399952,None,tlvjds,001,0,fr,2022-05-06_11h19.43.838,3-AFC_adaptive_staircase_mess,2022.1.1,None,
,,,,,7,0,7,0,1,0,1,0,,,,,,,,,,,,,,,,right,750,30,0.0012851978913844323,0,0,-1,10,837.7601095666798,None,835.7373785999371,836.0623940000078,836.7222496999893,837.0607611999149,837.7434429000132,None,right,1,2.2291865000734106,835.7974796999479,None,None,None,,,,,,,tlvjds,001,0,fr,2022-05-06_11h19.43.838,3-AFC_adaptive_staircase_mess,2022.1.1,None,
,,,,,7,0,7,0,2,0,2,0,,,,,,,,,,,,,,,,right,750,10,0.00012851978913844324,-1,0,-1,-10,841.6096282666006,None,839.562535099918,839.89842829993,840.5451265999582,840.884341500001,841.5627565999748,841.907028799993,right,1,2.3214368000626564,839.6253641999792,None,None,None,,,,,,,tlvjds,001,0,fr,2022-05-06_11h19.43.838,3-AFC_adaptive_staircase_mess,2022.1.1,None,
,,,,,7,0,7,0,3,0,3,0,,,,,,,,,,,,,,,,right,750,10,0.00012851978913844324,-1,0,-1,-10,845.524148566594,None,843.4875707000028,843.8336146000074,844.4891619000118,844.8293335000053,845.4781633999664,845.7927554999478,right,1,2.44691039994359,843.5165250999853,None,None,None,,,,,,,tlvjds,001,0,fr,2022-05-06_11h19.43.838,3-AFC_adaptive_staircase_mess,2022.1.1,None,
,,,,,7,0,7,0,4,0,4,0,,,,,,,,,,,,,,,,right,750,0,4.064152580820497e-05,-1,0,-1,-10,849.506976466688,None,847.4663422999438,847.8003102999646,848.4814815999707,848.8188219999429,849.4903098000214,849.8173910999903,right,1,2.3916914999717847,847.5242678999202,None,None,None,,,,,,,tlvjds,001,0,fr,2022-05-06_11h19.43.838,3-AFC_adaptive_staircase_mess,2022.1.1,None,
,,,,,7,0,7,0,5,0,5,0,,,,,,,,,,,,,,,,up,750,0,4.064152580820497e-05,-1,0,-1,-10,852.499733766603,None,851.4343067000154,851.7751265999395,852.4511432999279,852.7840000999859,None,None,up,1,1.3843102999962866,851.4908658999484,None,None,None,,,,,,,tlvjds,001,0,fr,2022-05-06_11h19.43.838,3-AFC_adaptive_staircase_mess,2022.1.1,None,
,,,,,7,0,7,0,6,0,6,0,,,,,,,,,,,,,,,,right,750,-10,1.2851978913844322e-05,-1,0,-1,-10,856.4296274666597,None,854.3807320999913,854.7169053999241,855.3883553999476,855.7230080999434,856.3827774999663,856.7175428000046,up,0,3.023046600050293,854.445168599952,None,856.9251759999897,None,,,,,,,tlvjds,001,0,fr,2022-05-06_11h19.43.838,3-AFC_adaptive_staircase_mess,2022.1.1,None,
,,,,,7,0,7,0,7,0,7,0,,,,,,,,,,,,,,,,left,750,-5,2.285440948074376e-05,1,1,1,5,859.0043377666191,None,858.9876710999524,859.3231020999374,859.9683667999925,860.2938323999988,860.9739046000177,861.3007281000027,up,0,3.7300999999279156,859.0178905000212,None,861.5269232999999,None,,,,,,,tlvjds,001,0,fr,2022-05-06_11h19.43.838,3-AFC_adaptive_staircase_mess,2022.1.1,None,
,,,,,7,0,7,0,8,0,8,0,,,,,,,,,,,,,,,,right,750,0,4.064152580820497e-05,1,1,1,5,866.2815141666836,866.502353399992,864.2548576999689,864.587259599939,865.2699757999508,865.5944319999544,866.2648475000169,866.5983101999154,right,1,2.4129428999731317,864.318758499925,None,None,None,,,,,,,tlvjds,001,0,fr,2022-05-06_11h19.43.838,3-AFC_adaptive_staircase_mess,2022.1.1,None,
,,,,,7,0,7,0,9,0,9,0,,,,,,,,,,,,,,,,right,750,0,4.064152580820497e-05,1,1,1,5,870.2858324666197,870.5076906000031,868.2661348999245,868.5883830999956,869.2568037000019,869.59096089995,870.269165799953,870.5943028000183,right,1,2.35462420003023,868.296499799937,None,None,None,,,,,,,tlvjds,001,0,fr,2022-05-06_11h19.43.838,3-AFC_adaptive_staircase_mess,2022.1.1,None,
,,,,,7,0,7,0,10,0,10,0,,,,,,,,,,,,,,,,right,750,-10,1.2851978913844322e-05,-1,2,-1,-5.0,874.2201649665988,None,872.1941682000179,872.5201101999264,873.1884279999649,873.5132693999913,874.2034982999321,874.5349486999912,left,0,3.7106427999679,872.2519962999504,None,874.7387238999363,None,,,,,,,tlvjds,001,0,fr,2022-05-06_11h19.43.838,3-AFC_adaptive_staircase_mess,2022.1.1,None,
,,,,,7,0,7,0,11,0,11,0,,,,,,,,,,,,,,,,up,750,-7.5,1.7138389327322525e-05,1,3,1,2.5,878.5259199665782,None,877.4754219999304,877.8077734999824,878.4769219999434,878.813312800019,None,None,up,1,1.6577411000616848,877.5369617999531,None,None,None,,,,,,,tlvjds,001,0,fr,2022-05-06_11h19.43.838,3-AFC_adaptive_staircase_mess,2022.1.1,None,
,,,,,7,0,7,0,12,0,12,0,,,,,,,,,,,,,,,,up,750,-7.5,1.7138389327322525e-05,1,3,1,2.5,881.7699837666626,None,880.7204673999222,881.0456471999642,881.7235077000223,882.0506488999818,None,None,up,1,1.3724414999596775,880.7821859000251,None,None,None,,,,,,,tlvjds,001,0,fr,2022-05-06_11h19.43.838,3-AFC_adaptive_staircase_mess,2022.1.1,None,
,,,,,7,0,7,0,13,0,13,0,,,,,,,,,,,,,,,,up,750,-12.5,9.637624565954684e-06,-1,4,-1,-5.0,884.7194288665817,None,883.6863733999198,884.0136113999179,884.6743450999493,885.0147745999275,885.6921176000033,886.0155860999366,right,0,3.4487505999859422,883.7461422999622,None,886.2225156999193,None,,,,,,,tlvjds,001,0,fr,2022-05-06_11h19.43.838,3-AFC_adaptive_staircase_mess,2022.1.1,None,
,,,,,7,0,7,0,14,0,14,0,,,,,,,,,,,,,,,,up,750,-10.0,1.2851978913844322e-05,1,5,1,2.5,889.7729986666857,None,888.7198881999357,889.042328099953,889.7242320999503,890.0557419999968,None,None,up,1,1.6297228999901563,888.7819565000245,None,None,None,,,,,,,tlvjds,001,0,fr,2022-05-06_11h19.43.838,3-AFC_adaptive_staircase_mess,2022.1.1,None,
,,,,,7,0,7,0,15,0,15,0,,,,,,,,,,,,,,,,left,750,-10.0,1.2851978913844322e-05,1,5,1,2.5,891.9851588666827,None,891.9380696999142,892.2669612999307,892.9351267999737,893.2635367999319,893.9356422999408,894.260555399931,left,1,3.4540053999517113,891.9977515999926,None,894.4925712000113,None,,,,,,,tlvjds,001,0,fr,2022-05-06_11h19.43.838,3-AFC_adaptive_staircase_mess,2022.1.1,None,
,,,,,7,0,7,0,16,0,16,0,,,,,,,,,,,,,,,,up,750,-15.0,7.22719885372964e-06,-1,6,-1,-5.0,898.0125554666777,None,896.9689696999267,897.2926510999678,897.9627869999968,898.2972788999323,898.977787700016,899.3009108999977,right,0,3.2077808999456465,897.0268973999191,None,899.5311203999445,None,,,,,,,tlvjds,001,0,fr,2022-05-06_11h19.43.838,3-AFC_adaptive_staircase_mess,2022.1.1,None,
,,,,,8,0,8,0,0,0,0,0,,,,,,,,,,,,,[],[],10,right,500,30,0.002259279721874612,0,0,-1,10,906.0812373666015,None,904.0359660999384,904.3562560999999,905.0569575999398,905.3779706999194,906.0645706999348,906.3971943999641,right,1,2.508987699984573,904.0935577999335,None,906.6042664999841,None,up,2.2571431999094784,901.321320099989,None,901.321320099989,None,tlvjds,001,0,fr,2022-05-06_11h19.43.838,3-AFC_adaptive_staircase_mess,2022.1.1,None,
,,,,,8,0,8,0,1,0,1,0,,,,,,,,,,,,,,,,up,500,30,0.002259279721874612,0,0,-1,10,909.1501081666831,None,908.0969085999532,908.4271387999179,909.1039335000096,909.4342970999423,None,None,up,1,1.5842340999515727,908.1547115999274,None,None,None,,,,,,,tlvjds,001,0,fr,2022-05-06_11h19.43.838,3-AFC_adaptive_staircase_mess,2022.1.1,None,
,,,,,8,0,8,0,2,0,2,0,,,,,,,,,,,,,,,,up,500,10,0.0002259279721874612,-1,0,-1,-10,912.2948777666936,None,911.247719099978,911.5836202999344,912.2492092999164,912.5782677999232,None,None,up,1,1.3261850000126287,911.3096061999677,None,None,None,,,,,,,tlvjds,001,0,fr,2022-05-06_11h19.43.838,3-AFC_adaptive_staircase_mess,2022.1.1,None,
,,,,,8,0,8,0,3,0,3,0,,,,,,,,,,,,,,,,left,500,10,0.0002259279721874612,-1,0,-1,-10,914.179836566622,None,914.134086899925,914.4695446999976,None,None,None,None,left,1,0.46754999994300306,914.1833263000008,None,None,None,,,,,,,tlvjds,001,0,fr,2022-05-06_11h19.43.838,3-AFC_adaptive_staircase_mess,2022.1.1,None,
,,,,,8,0,8,0,4,0,4,0,,,,,,,,,,,,,,,,left,500,0,7.144469792555515e-05,-1,0,-1,-10,916.2050224666639,None,916.1671570999315,916.4916904999409,None,None,None,None,left,1,0.30976600002031773,916.2292060999898,None,None,None,,,,,,,tlvjds,001,0,fr,2022-05-06_11h19.43.838,3-AFC_adaptive_staircase_mess,2022.1.1,None,
,,,,,8,0,8,0,5,0,5,0,,,,,,,,,,,,,,,,up,500,0,7.144469792555515e-05,-1,0,-1,-10,919.0719185666569,None,918.0384910999564,918.3634322999278,919.0351137999678,919.3559835000196,None,None,up,1,1.3635252999374643,918.0874221000122,None,None,None,,,,,,,tlvjds,001,0,fr,2022-05-06_11h19.43.838,3-AFC_adaptive_staircase_mess,2022.1.1,None,
,,,,,8,0,8,0,6,0,6,0,,,,,,,,,,,,,,,,right,500,-10,2.259279721874613e-05,-1,0,-1,-10,922.9982837666214,None,920.9575897000032,921.2761630999157,921.9489118999336,922.275068399962,922.9542275000131,923.2814173999941,up,0,3.093274399987422,921.013733599917,None,923.5153692999156,None,,,,,,,tlvjds,001,0,fr,2022-05-06_11h19.43.838,3-AFC_adaptive_staircase_mess,2022.1.1,None,
,,,,,8,0,8,0,7,0,7,0,,,,,,,,,,,,,,,,up,500,-5,4.017630610928089e-05,1,1,1,5,926.6463665665981,None,925.6159243999282,925.9415876999265,926.6094314999646,926.9460352999158,None,None,up,1,1.3905037000076845,925.6765824999893,None,None,None,,,,,,,tlvjds,001,0,fr,2022-05-06_11h19.43.838,3-AFC_adaptive_staircase_mess,2022.1.1,None,
,,,,,8,0,8,0,8,0,8,0,,,,,,,,,,,,,,,,left,500,-5,4.017630610928089e-05,1,1,1,5,928.6260417666674,None,928.5466158000054,928.8856489999453,None,None,None,None,up,0,0.4472737000323832,928.6369871000061,None,None,None,,,,,,,tlvjds,001,0,fr,2022-05-06_11h19.43.838,3-AFC_adaptive_staircase_mess,2022.1.1,None,
,,,,,8,0,8,0,9,0,9,0,,,,,,,,,,,,,,,,left,500,0,7.144469792555515e-05,1,1,1,5,930.6567761665831,None,930.6118754999479,None,None,None,None,None,left,1,-1.137234800029546,930.6687513999641,None,None,None,,,,,,,tlvjds,001,0,fr,2022-05-06_11h19.43.838,3-AFC_adaptive_staircase_mess,2022.1.1,None,
,,,,,8,0,8,0,10,0,10,0,,,,,,,,,,,,,,,,up,500,0,7.144469792555515e-05,1,1,1,5,933.216103466639,None,932.1692679999396,932.4888206999749,933.172122900025,933.493569699931,None,None,up,1,1.4822564999340102,932.2248972000089,None,None,None,,,,,,,tlvjds,001,0,fr,2022-05-06_11h19.43.838,3-AFC_adaptive_staircase_mess,2022.1.1,None,
,,,,,8,0,8,0,11,0,11,0,,,,,,,,,,,,,,,,right,500,-10,2.259279721874613e-05,-1,2,-1,-5.0,937.2672494666806,None,935.2282561999746,935.5494518999476,936.2175622999202,936.5404122999171,937.2213585999561,937.5610092999414,right,1,2.437625000020489,935.2851891999599,None,None,None,,,,,,,tlvjds,001,0,fr,2022-05-06_11h19.43.838,3-AFC_adaptive_staircase_mess,2022.1.1,None,
,,,,,8,0,8,0,12,0,12,0,,,,,,,,,,,,,,,,left,500,-10,2.259279721874613e-05,-1,2,-1,-5.0,939.2807814666924,None,939.2348731999518,939.5654900999507,940.2337376999203,940.5463950999547,941.2513530999422,941.5748254000209,left,1,2.5102344000479206,939.292308999924,None,941.8070731000043,None,,,,,,,tlvjds,001,0,fr,2022-05-06_11h19.43.838,3-AFC_adaptive_staircase_mess,2022.1.1,None,
,,,,,8,0,8,0,13,0,13,0,,,,,,,,,,,,,,,,left,500,-15.0,1.2704863527746532e-05,-1,2,-1,-5.0,943.3445264666263,None,943.3002345999703,943.6370776999975,944.3031703999732,944.6288076000055,945.2971163999755,945.6253872999223,left,1,2.829467299976386,943.3582090999698,None,945.8594071000116,None,,,,,,,tlvjds,001,0,fr,2022-05-06_11h19.43.838,3-AFC_adaptive_staircase_mess,2022.1.1,None,
,,,,,8,0,8,0,14,0,14,0,,,,,,,,,,,,,,,,right,500,-15.0,1.2704863527746532e-05,-1,2,-1,-5.0,949.7186371666069,None,947.6859143999172,948.0091360999504,948.6722604000242,949.0012858000118,949.6692486000247,950.0020686999196,up,0,2.9081562999635935,947.7442612999585,None,950.2356862999732,None,,,,,,,tlvjds,001,0,fr,2022-05-06_11h19.43.838,3-AFC_adaptive_staircase_mess,2022.1.1,None,
,,,,,8,0,8,0,15,0,15,0,,,,,,,,,,,,,,,,left,500,-12.5,1.6942207806960138e-05,1,3,1,2.5,952.2074132665914,None,952.1693643999752,952.5064162999624,953.1724208999658,953.500131299952,954.1940920000197,954.5208999000024,up,0,3.234867100021802,952.2320743999444,None,954.7264489999507,None,,,,,,,tlvjds,001,0,fr,2022-05-06_11h19.43.838,3-AFC_adaptive_staircase_mess,2022.1.1,None,
,,,,,8,0,8,0,16,0,16,0,,,,,,,,,,,,,,,,up,500,-10.0,2.259279721874613e-05,1,3,1,2.5,958.0261343665809,None,956.985262000002,957.3099216999253,957.9772490999894,958.316661400022,958.9922524999129,959.3112257999601,up,1,3.159882700070739,957.0428125999169,None,959.5450813999632,None,,,,,,,tlvjds,001,0,fr,2022-05-06_11h19.43.838,3-AFC_adaptive_staircase_mess,2022.1.1,None,
,,,,,8,0,8,0,17,0,17,0,,,,,,,,,,,,,,,,up,500,-10.0,2.259279721874613e-05,1,3,1,2.5,962.7650950666905,None,961.7157739999238,962.0478746999288,962.7156428999733,963.0542043999303,963.7257579999277,964.0482947999844,right,0,2.7424874999560416,961.7798363999464,None,964.2814054000191,None,,,,,,,tlvjds,001,0,fr,2022-05-06_11h19.43.838,3-AFC_adaptive_staircase_mess,2022.1.1,None,
,,,,,8,0,8,0,18,0,18,0,,,,,,,,,,,,,,,,left,500,-7.5,3.0127979303717903e-05,1,3,1,2.5,966.102098366657,None,966.0527385999449,966.3895683999872,967.0540265999734,967.3780461999122,968.0691044999985,968.3876308000181,right,0,2.854208500008099,966.116732699913,None,968.5928353000199,None,,,,,,,tlvjds,001,0,fr,2022-05-06_11h19.43.838,3-AFC_adaptive_staircase_mess,2022.1.1,None,
,,,,,8,0,8,0,19,0,19,0,,,,,,,,,,,,,,,,up,500,-5.0,4.017630610928089e-05,1,3,1,2.5,971.5203384666859,None,970.4892971999943,970.8153559999773,971.5036718000192,971.8277085999725,None,None,up,1,1.778586499975063,970.5517523000017,None,None,None,,,,,,,tlvjds,001,0,fr,2022-05-06_11h19.43.838,3-AFC_adaptive_staircase_mess,2022.1.1,None,
,,,,,8,0,8,0,20,0,20,0,,,,,,,,,,,,,,,,up,500,-5.0,4.017630610928089e-05,1,3,1,2.5,974.9054636666008,None,973.8445304000052,974.1671582999406,974.8468556000153,975.182617799961,975.845559499925,976.1678027999587,left,0,2.7955934999044985,973.9037811999442,None,976.4008359999862,None,,,,,,,tlvjds,001,0,fr,2022-05-06_11h19.43.838,3-AFC_adaptive_staircase_mess,2022.1.1,None,
,,,,,8,0,8,0,21,0,21,0,,,,,,,,,,,,,,,,up,500,-2.5,5.357596526188033e-05,1,3,1,2.5,979.2430752666589,None,978.2063362000044,978.5177645999938,979.1851661999244,979.5221265999135,980.2201059999643,980.5381904999958,up,1,2.948281900025904,978.2638674000045,None,980.7438468999462,None,,,,,,,tlvjds,001,0,fr,2022-05-06_11h19.43.838,3-AFC_adaptive_staircase_mess,2022.1.1,None,
,,,,,8,0,8,0,22,0,22,0,,,,,,,,,,,,,,,,up,500,-2.5,5.357596526188033e-05,1,3,1,2.5,983.7741129666722,None,982.7358517999528,983.058813199983,983.7284026999259,984.0579403999727,None,None,up,1,1.5650025000795722,982.7972070999676,None,None,None,,,,,,,tlvjds,001,0,fr,2022-05-06_11h19.43.838,3-AFC_adaptive_staircase_mess,2022.1.1,None,
,,,,,8,0,8,0,23,0,23,0,,,,,,,,,,,,,,,,up,500,-7.5,3.0127979303717903e-05,-1,4,-1,-5.0,986.9244316666775,987.1519581999164,985.8798456999939,986.2040221999632,986.8741860999726,987.2117633000016,None,None,up,1,1.3526792000047863,985.9377149000065,None,None,None,,,,,,,tlvjds,001,0,fr,2022-05-06_11h19.43.838,3-AFC_adaptive_staircase_mess,2022.1.1,None,
,,,,,8,0,8,0,24,0,24,0,,,,,,,,,,,,,,,,left,500,-7.5,3.0127979303717903e-05,-1,4,-1,-5.0,988.8580967665805,989.0812056999421,988.8101534999441,989.1446959999157,989.8151845999528,990.1496182000265,None,None,left,1,1.5874670000048354,988.8711413999554,None,None,None,,,,,,,tlvjds,001,0,fr,2022-05-06_11h19.43.838,3-AFC_adaptive_staircase_mess,2022.1.1,None,
,,,,,8,0,8,0,25,0,25,0,,,,,,,,,,,,,,,,right,500,-12.5,1.6942207806960138e-05,-1,4,-1,-5.0,None,None,991.952903599944,992.2764074999141,992.9713617999805,993.2921453999588,None,None,up,0,1.4388819000450894,992.011598299956,None,None,None,,,,,,,tlvjds,001,0,fr,2022-05-06_11h19.43.838,3-AFC_adaptive_staircase_mess,2022.1.1,None,
,,,,,8,0,8,0,26,0,26,0,,,,,,,,,,,,,,,,right,500,-10.0,2.259279721874613e-05,1,5,1,2.5,997.000404366587,None,994.9571332000196,995.2676502999384,995.9699125000043,996.2922541999724,996.9511041999795,997.2887881000061,up,0,3.4768577999202535,995.0145595999202,None,997.5218322000001,None,,,,,,,tlvjds,001,0,fr,2022-05-06_11h19.43.838,3-AFC_adaptive_staircase_mess,2022.1.1,None,
,,,,,8,0,8,0,27,0,27,0,,,,,,,,,,,,,,,,left,500,-7.5,3.0127979303717903e-05,1,5,1,2.5,1000.0374872666473,None,999.9935093999375,1000.3275662999367,1000.9969307999127,1001.3229340999387,1001.9864353999728,1002.3097271999577,up,0,3.3181497999466956,1000.0533541999757,None,1002.543398699956,None,,,,,,,tlvjds,001,0,fr,2022-05-06_11h19.43.838,3-AFC_adaptive_staircase_mess,2022.1.1,None,
,,,,,8,0,8,0,28,0,28,0,,,,,,,,,,,,,,,,up,500,-5.0,4.017630610928089e-05,1,5,1,2.5,1005.9535935666102,None,1004.8962427999359,1005.2197918000165,1005.9069425999187,1006.2327346999664,None,None,up,1,1.5664087999612093,1004.9564621999161,None,None,None,,,,,,,tlvjds,001,0,fr,2022-05-06_11h19.43.838,3-AFC_adaptive_staircase_mess,2022.1.1,None,
,,,,,8,0,8,0,29,0,29,0,,,,,,,,,,,,,,,,left,500,-5.0,4.017630610928089e-05,1,5,1,2.5,1008.0650836666503,None,1008.0199646999827,1008.3493942000205,None,None,None,None,left,1,0.6206685999641195,1008.0775574999861,None,None,None,,,,,,,tlvjds,001,0,fr,2022-05-06_11h19.43.838,3-AFC_adaptive_staircase_mess,2022.1.1,None,
,,,,,8,0,8,0,30,0,30,0,,,,,,,,,,,,,,,,right,500,-10.0,2.259279721874613e-05,-1,6,-1,-5.0,1012.2510832666342,None,1010.1977166999131,1010.5206646999577,1011.1861372999847,1011.5079382000258,1012.201629600022,1012.5380779999541,left,0,2.889301500050351,1010.2586743999273,None,1012.7454437999986,None,,,,,,,tlvjds,001,0,fr,2022-05-06_11h19.43.838,3-AFC_adaptive_staircase_mess,2022.1.1,None,
,,,,,9,0,9,0,0,0,0,0,,,,,,,,,,,,,[],[],10,right,250,30,0.005296268625886445,0,0,-1,10,1034.363648966599,None,1032.3229089999804,1032.655040099984,1033.3218033999437,1033.6456314999377,1034.318358300021,1034.659624199965,right,1,2.389525100006722,1032.3891753000207,None,None,None,up,17.611486900015734,1014.2396056000143,None,1014.2396056000143,None,tlvjds,001,0,fr,2022-05-06_11h19.43.838,3-AFC_adaptive_staircase_mess,2022.1.1,None,
,,,,,9,0,9,0,1,0,1,0,,,,,,,,,,,,,,,,up,250,30,0.005296268625886445,0,0,-1,10,1037.3139071666558,None,1036.2779038000153,1036.5960609000176,1037.269123599981,1037.597379899933,None,None,up,1,1.5809095000149682,1036.334392699995,None,None,None,,,,,,,tlvjds,001,0,fr,2022-05-06_11h19.43.838,3-AFC_adaptive_staircase_mess,2022.1.1,None,
,,,,,9,0,9,0,2,0,2,0,,,,,,,,,,,,,,,,up,250,10,0.0005296268625886444,-1,0,-1,-10,1040.4463848666676,None,1039.4128543999977,1039.732916399953,1040.4004979999736,1040.7343326000264,None,None,up,1,1.2910693999147043,1039.4719149000011,None,None,None,,,,,,,tlvjds,001,0,fr,2022-05-06_11h19.43.838,3-AFC_adaptive_staircase_mess,2022.1.1,None,
,,,,,9,0,9,0,3,0,3,0,,,,,,,,,,,,,,,,right,250,10,0.0005296268625886444,-1,0,-1,-10,1044.3061457665792,None,1042.266600199975,1042.5979368999833,1043.2656195999589,1043.5884722999763,1044.2614240000257,1044.5888531999663,right,1,2.2717466999311,1042.3318286999129,None,None,None,,,,,,,tlvjds,001,0,fr,2022-05-06_11h19.43.838,3-AFC_adaptive_staircase_mess,2022.1.1,None,
,,,,,9,0,9,0,4,0,4,0,,,,,,,,,,,,,,,,left,250,0,0.0001674827195789138,-1,0,-1,-10,1046.172938366599,1046.3919207999716,1046.124810899957,1046.4460877999663,None,None,None,None,left,1,0.5935703999130055,1046.1841832000064,None,None,None,,,,,,,tlvjds,001,0,fr,2022-05-06_11h19.43.838,3-AFC_adaptive_staircase_mess,2022.1.1,None,
,,,,,9,0,9,0,5,0,5,0,,,,,,,,,,,,,,,,up,250,0,0.0001674827195789138,-1,0,-1,-10,1049.3236375665913,None,1048.2929060999304,1048.6136211999692,1049.3069708999246,1049.640098999953,None,None,up,1,1.3883497999049723,1048.3505820999853,None,None,None,,,,,,,tlvjds,001,0,fr,2022-05-06_11h19.43.838,3-AFC_adaptive_staircase_mess,2022.1.1,None,
,,,,,9,0,9,0,6,0,6,0,,,,,,,,,,,,,,,,left,250,-10,5.296268625886443e-05,-1,0,-1,-10,1051.3119981666716,None,1051.2674635999138,1051.5951845999807,1052.2835039999336,1052.6055291999364,1053.2747223000042,1053.6082859999733,up,0,3.709104900015518,1051.3253948999336,None,1053.814492699923,None,,,,,,,tlvjds,001,0,fr,2022-05-06_11h19.43.838,3-AFC_adaptive_staircase_mess,2022.1.1,None,
,,,,,9,0,9,0,7,0,7,0,,,,,,,,,,,,,,,,up,250,-5,9.418245447449e-05,1,1,1,5,1057.5994670666444,None,1056.5532515000086,1056.8813170000212,1057.553855999955,1057.8857360000256,1058.5604813999962,1058.8718347999966,up,1,2.8378382999217138,1056.6136297999183,None,1059.1045796999242,None,,,,,,,tlvjds,001,0,fr,2022-05-06_11h19.43.838,3-AFC_adaptive_staircase_mess,2022.1.1,None,
,,,,,9,0,9,0,8,0,8,0,,,,,,,,,,,,,,,,right,250,-5,9.418245447449e-05,1,1,1,5,1063.0070164666433,None,1060.9680339000188,1061.2927130999742,1061.9586645999225,1062.2858403999126,1062.9614113999996,1063.2919925999595,right,1,2.75972269999329,1061.0271459999494,None,1063.5238337999908,None,,,,,,,tlvjds,001,0,fr,2022-05-06_11h19.43.838,3-AFC_adaptive_staircase_mess,2022.1.1,None,
,,,,,9,0,9,0,9,0,9,0,,,,,,,,,,,,,,,,right,250,-15,2.9783107176450517e-05,-1,2,-1,-5.0,1067.3109013665855,None,1065.2773366000038,1065.6039008999942,1066.2898424000014,1066.6313848999562,1067.294234699919,1067.634220900014,up,0,2.530486600007862,1065.335687899962,None,1067.8277338999324,None,,,,,,,tlvjds,001,0,fr,2022-05-06_11h19.43.838,3-AFC_adaptive_staircase_mess,2022.1.1,None,
,,,,,9,0,9,0,10,0,10,0,,,,,,,,,,,,,,,,right,250,-12.5,3.971641173621407e-05,1,3,1,2.5,1071.4440832666044,None,1069.3986278999364,1069.725021500024,1070.3978007999249,1070.7201600000262,1071.3953954000026,1071.7292735999217,up,0,3.225189600023441,1069.4573771000141,None,1071.9628760999767,None,,,,,,,tlvjds,001,0,fr,2022-05-06_11h19.43.838,3-AFC_adaptive_staircase_mess,2022.1.1,None,
,,,,,9,0,9,0,11,0,11,0,,,,,,,,,,,,,,,,right,250,-10.0,5.296268625886443e-05,1,3,1,2.5,1076.234960166683,None,1074.2015123999445,1074.535568399937,1075.2052691999124,1075.5451085999375,1076.1878317999654,1076.5324955999386,left,0,3.096034200047143,1074.2430375999538,None,1076.7404158000136,None,,,,,,,tlvjds,001,0,fr,2022-05-06_11h19.43.838,3-AFC_adaptive_staircase_mess,2022.1.1,None,
,,,,,9,0,9,0,12,0,12,0,,,,,,,,,,,,,,,,up,250,-7.5,7.06268772311377e-05,1,3,1,2.5,1079.9300404666612,None,1078.8767144000158,1079.209626799915,1079.878614999936,1080.2105892000254,1080.8802601000061,1081.2132779000094,up,1,2.983979499898851,1078.9463401000248,None,1081.4489442999475,None,,,,,,,tlvjds,001,0,fr,2022-05-06_11h19.43.838,3-AFC_adaptive_staircase_mess,2022.1.1,None,
,,,,,9,0,9,0,13,0,13,0,,,,,,,,,,,,,,,,up,250,-7.5,7.06268772311377e-05,1,3,1,2.5,1084.5017844666183,None,1083.4482256999472,1083.7834766999586,1084.4496151999338,1084.7845188999781,1085.452830699971,1085.7809534999542,right,0,2.9084111000411212,1083.5175440999446,None,1086.0207841999363,None,,,,,,,tlvjds,001,0,fr,2022-05-06_11h19.43.838,3-AFC_adaptive_staircase_mess,2022.1.1,None,
,,,,,9,0,9,0,14,0,14,0,,,,,,,,,,,,,,,,right,250,-5.0,9.418245447449e-05,1,3,1,2.5,1089.9715941666548,None,1087.9537386000156,1088.2886866999324,1088.9549778000219,1089.2864104999462,1089.9549274999881,1090.2931378999492,left,0,2.900573000079021,1087.989644999965,None,1090.5231236999389,None,,,,,,,tlvjds,001,0,fr,2022-05-06_11h19.43.838,3-AFC_adaptive_staircase_mess,2022.1.1,None,
,,,,,9,0,9,0,15,0,15,0,,,,,,,,,,,,,,,,left,250,-2.5,0.00012559432157547898,1,3,1,2.5,1092.4426333666236,None,1092.3898028000258,1092.7295432999963,None,None,None,None,left,1,0.5417186999693513,1092.4609413999133,None,None,None,,,,,,,tlvjds,001,0,fr,2022-05-06_11h19.43.838,3-AFC_adaptive_staircase_mess,2022.1.1,None,
,,,,,9,0,9,0,16,0,16,0,,,,,,,,,,,,,,,,right,250,-2.5,0.00012559432157547898,1,3,1,2.5,1096.5471235666812,None,1094.5287210999522,1094.8623983999714,1095.5288886999479,1095.8646387999179,1096.5304569000145,1096.8751662999857,right,1,2.3428101999452338,1094.595646200003,None,None,None,,,,,,,tlvjds,001,0,fr,2022-05-06_11h19.43.838,3-AFC_adaptive_staircase_mess,2022.1.1,None,
,,,,,9,0,9,0,17,0,17,0,,,,,,,,,,,,,,,,right,250,-7.5,7.06268772311377e-05,-1,4,-1,-5.0,1100.4848905666188,None,1098.467392600025,1098.7947573999409,1099.4649252999807,1099.803250099998,1100.4682238999521,1100.8040102999657,left,0,2.8735230999300256,1098.496718499926,None,1101.033594999928,None,,,,,,,tlvjds,001,0,fr,2022-05-06_11h19.43.838,3-AFC_adaptive_staircase_mess,2022.1.1,None,
,,,,,9,0,9,0,18,0,18,0,,,,,,,,,,,,,,,,up,250,-5.0,9.418245447449e-05,1,5,1,2.5,1103.9226619665899,None,1102.8719609000254,1103.2000962999882,1103.8698144999798,1104.1716060999315,1104.873497499968,1105.2069375999272,left,0,2.8977292000781745,1102.9367893999442,None,1105.4415305999573,None,,,,,,,tlvjds,001,0,fr,2022-05-06_11h19.43.838,3-AFC_adaptive_staircase_mess,2022.1.1,None,
,,,,,9,0,9,0,19,0,19,0,,,,,,,,,,,,,,,,left,250,-2.5,0.00012559432157547898,1,5,1,2.5,1107.3919536666401,None,1107.3399916000199,1107.6779064999428,None,None,None,None,left,1,0.3283077999949455,1107.409975299961,None,None,None,,,,,,,tlvjds,001,0,fr,2022-05-06_11h19.43.838,3-AFC_adaptive_staircase_mess,2022.1.1,None,
,,,,,9,0,9,0,20,0,20,0,,,,,,,,,,,,,,,,right,250,-2.5,0.00012559432157547898,1,5,1,2.5,1111.2966944666734,None,1109.2446840999182,1109.5770947999554,1110.2459453999763,1110.5758838999318,1111.2451093000127,1111.5811606999487,right,1,2.2666541999205947,1109.3117389000254,None,None,None,,,,,,,tlvjds,001,0,fr,2022-05-06_11h19.43.838,3-AFC_adaptive_staircase_mess,2022.1.1,None,
,,,,,9,0,9,0,21,0,21,0,,,,,,,,,,,,,,,,up,250,-7.5,7.06268772311377e-05,-1,6,-1,-5.0,1114.1335043666807,None,1113.082715199911,1113.4130612999434,1114.0818417000119,1114.4210920999758,1115.0832969999174,1115.4130082000047,up,1,3.2927054000319913,1113.149494000012,None,1115.6526903000195,None,,,,,,,tlvjds,001,0,fr,2022-05-06_11h19.43.838,3-AFC_adaptive_staircase_mess,2022.1.1,None,
,,,,,10,0,10,0,0,0,0,0,,,,,,,,,,,,,[],[],10,up,125,30,0.02285440948074376,0,0,-1,10,1120.5395707666796,1120.765565300011,1119.4881053999998,1119.821455599973,1120.4875286999159,1120.8264061999507,None,None,up,1,1.431399599998258,1119.5554214000003,None,None,None,left,1.4722626000875607,1117.5153184999945,None,1117.5153184999945,None,tlvjds,001,0,fr,2022-05-06_11h19.43.838,3-AFC_adaptive_staircase_mess,2022.1.1,None,
,,,,,10,0,10,0,1,0,1,0,,,,,,,,,,,,,,,,right,125,30,0.02285440948074376,0,0,-1,10,1124.5780778666415,1124.796703399974,1122.5243541999953,1122.859657199937,1123.5256819999777,1123.8546260999283,1124.5268716999562,1124.8622889999533,right,1,2.2683340000221506,1122.5900117999408,None,None,None,,,,,,,tlvjds,001,0,fr,2022-05-06_11h19.43.838,3-AFC_adaptive_staircase_mess,2022.1.1,None,
,,,,,10,0,10,0,2,0,2,0,,,,,,,,,,,,,,,,right,125,10,0.002285440948074376,-1,0,-1,-10,1128.414507166661,None,1126.3606694999617,1126.6920609999215,1127.3622030999977,1127.6901868999703,1128.36246809992,1128.676092299982,right,1,2.3025476000038907,1126.4275973999174,None,None,None,,,,,,,tlvjds,001,0,fr,2022-05-06_11h19.43.838,3-AFC_adaptive_staircase_mess,2022.1.1,None,
,,,,,10,0,10,0,3,0,3,0,,,,,,,,,,,,,,,,left,125,10,0.002285440948074376,-1,0,-1,-10,1130.280974266647,None,1130.2338171999436,1130.5678103999235,None,None,None,None,left,1,0.40374659991357476,1130.295329399989,None,None,None,,,,,,,tlvjds,001,0,fr,2022-05-06_11h19.43.838,3-AFC_adaptive_staircase_mess,2022.1.1,None,
,,,,,10,0,10,0,4,0,4,0,,,,,,,,,,,,,,,,up,125,0,0.000722719885372964,-1,0,-1,-10,1133.2870142666545,None,1132.2332097999752,1132.5687411000254,1133.235505699995,1133.5645518000238,None,None,up,1,1.61191120010335,1132.302734100027,None,None,None,,,,,,,tlvjds,001,0,fr,2022-05-06_11h19.43.838,3-AFC_adaptive_staircase_mess,2022.1.1,None,
,,,,,10,0,10,0,5,0,5,0,,,,,,,,,,,,,,,,up,125,0,0.000722719885372964,-1,0,-1,-10,1136.4816785666083,None,1135.4322798999492,1135.7647756999359,1136.4289707000135,1136.7730841999874,None,None,up,1,1.315251599997282,1135.4951106000226,None,None,None,,,,,,,tlvjds,001,0,fr,2022-05-06_11h19.43.838,3-AFC_adaptive_staircase_mess,2022.1.1,None,
,,,,,10,0,10,0,6,0,6,0,,,,,,,,,,,,,,,,up,125,-10,0.0002285440948074376,-1,0,-1,-10,1139.3698377666917,None,1138.3347181999125,1138.6647884999402,1139.353171100025,1139.668527300004,1140.3291712999344,1140.6718059999403,up,1,3.354006899986416,1138.400918899919,None,1140.905878599966,None,,,,,,,tlvjds,001,0,fr,2022-05-06_11h19.43.838,3-AFC_adaptive_staircase_mess,2022.1.1,None,
,,,,,10,0,10,0,7,0,7,0,,,,,,,,,,,,,,,,right,125,-10,0.0002285440948074376,-1,0,-1,-10,1145.2959603666716,1145.5180366999703,1143.272628900013,1143.607169899973,1144.2702116,1144.606042200001,1145.279293700005,1145.6132201999426,up,0,3.5824694999027997,1143.33997979993,None,1145.8419139999896,None,,,,,,,tlvjds,001,0,fr,2022-05-06_11h19.43.838,3-AFC_adaptive_staircase_mess,2022.1.1,None,
,,,,,10,0,10,0,8,0,8,0,,,,,,,,,,,,,,,,up,125,-5,0.00040641525808204974,1,1,1,5,1149.468828666668,None,1148.445323599968,1148.7867878000252,1149.4521620000014,1149.7839998999843,1150.4568363999715,1150.7852686999831,up,1,2.479160899994895,1148.5077800999861,None,1150.982114000013,None,,,,,,,tlvjds,001,0,fr,2022-05-06_11h19.43.838,3-AFC_adaptive_staircase_mess,2022.1.1,None,
,,,,,10,0,10,0,9,0,9,0,,,,,,,,,,,,,,,,left,125,-5,0.00040641525808204974,1,1,1,5,1152.5607298666766,None,1152.5131972000236,1152.8558917000191,1153.5268382999348,1153.8522085999139,1154.50076179998,1154.82567749999,left,1,2.747106699971482,1152.5761485999683,None,1155.0602487999713,None,,,,,,,tlvjds,001,0,fr,2022-05-06_11h19.43.838,3-AFC_adaptive_staircase_mess,2022.1.1,None,
,,,,,10,0,10,0,10,0,10,0,,,,,,,,,,,,,,,,right,125,-15,0.00012851978913844324,-1,2,-1,-5.0,1158.871691466604,None,1156.8543946999125,1157.1860263999552,1157.8571756000165,1158.185282999999,1158.8550247999374,1159.185265899985,left,0,3.0448459999170154,1156.8859502999112,None,1159.3994240999455,None,,,,,,,tlvjds,001,0,fr,2022-05-06_11h19.43.838,3-AFC_adaptive_staircase_mess,2022.1.1,None,
,,,,,10,0,10,0,11,0,11,0,,,,,,,,,,,,,,,,right,125,-12.5,0.00017138389327322524,1,3,1,2.5,1163.5066246666868,None,1161.4554916999768,1161.7826040999498,1162.4595131999813,1162.7834762999555,1163.4591247999342,1163.7942582999822,up,0,2.880681599956006,1161.514569699997,None,1164.0101764999563,None,,,,,,,tlvjds,001,0,fr,2022-05-06_11h19.43.838,3-AFC_adaptive_staircase_mess,2022.1.1,None,
,,,,,10,0,10,0,12,0,12,0,,,,,,,,,,,,,,,,up,125,-10.0,0.0002285440948074376,1,3,1,2.5,1166.9414481666793,None,1165.9183904000092,1166.2456293000141,1166.9247815000126,1167.2591724999947,1167.9230643999763,1168.258109199931,up,1,2.8027695000637323,1165.9752769999905,None,1168.4602755999658,None,,,,,,,tlvjds,001,0,fr,2022-05-06_11h19.43.838,3-AFC_adaptive_staircase_mess,2022.1.1,None,
,,,,,10,0,10,0,13,0,13,0,,,,,,,,,,,,,,,,right,125,-10.0,0.0002285440948074376,1,3,1,2.5,1172.3290062666094,None,1170.2865961999632,1170.6130897999974,1171.2920016999124,1171.6250185000245,1172.2824737000046,1172.611523199943,up,0,2.780339700053446,1170.3186595999869,None,1172.8228383000242,None,,,,,,,tlvjds,001,0,fr,2022-05-06_11h19.43.838,3-AFC_adaptive_staircase_mess,2022.1.1,None,
,,,,,10,0,10,0,14,0,14,0,,,,,,,,,,,,,,,,up,125,-7.5,0.0003047684486200847,1,3,1,2.5,1175.64094066661,None,1174.5970158999553,1174.9320031999378,1175.5917951000156,1175.929314799956,1176.6053046999732,1176.93572519999,up,1,2.661579899955541,1174.6616040000226,None,1177.1369055999676,None,,,,,,,tlvjds,001,0,fr,2022-05-06_11h19.43.838,3-AFC_adaptive_staircase_mess,2022.1.1,None,
,,,,,10,0,10,0,15,0,15,0,,,,,,,,,,,,,,,,left,125,-7.5,0.0003047684486200847,1,3,1,2.5,1178.8773725666726,None,1178.8291236999212,1179.1522881999845,1179.8295879999641,1180.155207099975,1180.8369427999714,1181.1912704999559,up,0,2.980171100003645,1178.886745399912,None,1181.3636904999148,None,,,,,,,tlvjds,001,0,fr,2022-05-06_11h19.43.838,3-AFC_adaptive_staircase_mess,2022.1.1,None,
,,,,,10,0,10,0,16,0,16,0,,,,,,,,,,,,,,,,up,125,-5.0,0.00040641525808204974,1,3,1,2.5,1184.4402224666594,None,1183.3952153999126,1183.7221602000063,1184.3939669999527,1184.7208895999938,1185.3901575999334,1185.7143312999979,up,1,2.795990000013262,1183.4546096000122,None,1185.9506540999282,None,,,,,,,tlvjds,001,0,fr,2022-05-06_11h19.43.838,3-AFC_adaptive_staircase_mess,2022.1.1,None,
,,,,,10,0,10,0,17,0,17,0,,,,,,,,,,,,,,,,right,125,-5.0,0.00040641525808204974,1,3,1,2.5,1189.816972066594,None,1187.7804807999637,1188.0928885999601,1188.776538999984,1189.0943522999296,1189.8003053999273,1190.1405178999994,up,0,2.5039806000422686,1187.8102574999211,None,1190.3181831999682,None,,,,,,,tlvjds,001,0,fr,2022-05-06_11h19.43.838,3-AFC_adaptive_staircase_mess,2022.1.1,None,
,,,,,10,0,10,0,18,0,18,0,,,,,,,,,,,,,,,,right,125,-2.5,0.000541963457010602,1,3,1,2.5,1193.871989166659,None,1191.8247040999122,1192.154361099936,1192.8243180999998,1193.1518873999594,1193.8247175000142,1194.1564552999334,up,0,2.64300609997008,1191.88022609998,None,1194.3591546999523,None,,,,,,,tlvjds,001,0,fr,2022-05-06_11h19.43.838,3-AFC_adaptive_staircase_mess,2022.1.1,None,
,,,,,10,0,10,0,19,0,19,0,,,,,,,,,,,,,,,,right,125,0.0,0.000722719885372964,1,3,1,2.5,1198.0975225666227,None,1196.0545596999582,1196.3681877999334,1197.05583019997,1197.3858329999493,1198.0519715999253,1198.384172799997,up,0,2.6837177999550477,1196.1110218999675,None,1198.5931751999306,None,,,,,,,tlvjds,001,0,fr,2022-05-06_11h19.43.838,3-AFC_adaptive_staircase_mess,2022.1.1,None,
