frequencies,training_trials.thisRepN,training_trials.thisTrialN,training_trials.thisN,training_trials.thisIndex,frequencies.thisRepN,frequencies.thisTrialN,frequencies.thisN,frequencies.thisIndex,trials.thisRepN,trials.thisTrialN,trials.thisN,trials.thisIndex,tFrequency,tLevel,tCorrect,Tprobe.started,Tprobe.stopped,tTriangle_cue.started,tTriangle_cue.stopped,Tfeedback.keys,Tfeedback.corr,Tfeedback.rt,Tfeedback.started,Tfeedback.stopped,reversals_nTrials.routineEndVal,track_dir.routineEndVal,step_up.routineEndVal,Correct,Frequency,Level,Psychopy_Level,Direction,Reversals,Track_dir,Step,probe.started,probe.stopped,cross_cue.started,cross_cue.stopped,circle_cue.started,circle_cue.stopped,triangle_cue.started,triangle_cue.stopped,feedback.keys,feedback.corr,feedback.rt,feedback.started,feedback.stopped,memo.started,memo.stopped,key_resp.keys,key_resp.rt,key_resp.started,key_resp.stopped,text.started,text.stopped,participant,session,skip_training,language (english or french),date,expName,psychopyVersion,frameRate,
1300,0,0,0,3,,,,,,,,,1300,30,left,42.06262916670336,None,None,None,left,1,1.018426200025715,41.59345869999379,None,,,,,,,,,,,,,,,,,,,,,,,,,,,,,,,,,moiern,001,0,fr,2022-07-08_14h43.02.292,3-AFC_adaptive_staircase_mess,2022.1.1,None,
5000,0,1,1,4,,,,,,,,,5000,30,up,None,None,None,None,left,0,1.234656500048004,46.32995309995022,None,,,,,,,,,,,,,,,,,,,,,,,,,,,,,,,,,moiern,001,0,fr,2022-07-08_14h43.02.292,3-AFC_adaptive_staircase_mess,2022.1.1,None,
850,0,2,2,2,,,,,,,,,850,30,left,50.99541036662801,None,None,None,left,1,1.1270157999824733,50.533736199955456,None,,,,,,,,,,,,,,,,,,,,,,,,,,,,,,,,,moiern,001,0,fr,2022-07-08_14h43.02.292,3-AFC_adaptive_staircase_mess,2022.1.1,None,
200,0,3,3,0,,,,,,,,,200,30,up,56.33975786663747,None,None,None,up,1,2.1921972000272945,54.876063799951226,None,,,,,,,,,,,,,,,,,,,,,,,,,,,,,,,,,moiern,001,0,fr,2022-07-08_14h43.02.292,3-AFC_adaptive_staircase_mess,2022.1.1,None,
450,0,4,4,1,,,,,,,,,450,30,up,60.83580456668666,None,61.79745379998349,None,up,1,2.4071230000117794,59.36555310001131,None,,,,,,,,,,,,,,,,,,,,,,,,,,,,,,,,,moiern,001,0,fr,2022-07-08_14h43.02.292,3-AFC_adaptive_staircase_mess,2022.1.1,None,
,,,,,0,0,0,0,0,0,0,0,,,,,,,,,,,,,[],[],10,left,1000,30,0.0013930605843148849,0,0,-1,10,70.69261286670032,None,70.64749300002586,70.97684080002364,None,None,None,None,left,1,0.4902102000778541,70.70516729995143,None,None,None,,,,,,,moiern,001,0,fr,2022-07-08_14h43.02.292,3-AFC_adaptive_staircase_mess,2022.1.1,None,
,,,,,0,0,0,0,1,0,1,0,,,,,,,,,,,,,,,,left,1000,30,0.0013930605843148849,0,0,-1,10,72.7782939666106,None,72.73214690003078,73.07783319998998,None,None,None,None,left,1,0.43661989993415773,72.7913335999474,None,None,None,,,,,,,moiern,001,0,fr,2022-07-08_14h43.02.292,3-AFC_adaptive_staircase_mess,2022.1.1,None,
,,,,,0,0,0,0,2,0,2,0,,,,,,,,,,,,,,,,left,1000,10,0.00013930605843148847,-1,0,-1,-10,74.78133346670462,None,74.76466680003796,75.09699120000005,None,None,None,None,left,1,0.3603556000161916,74.79623740003444,None,None,None,,,,,,,moiern,001,0,fr,2022-07-08_14h43.02.292,3-AFC_adaptive_staircase_mess,2022.1.1,None,
,,,,,0,0,0,0,3,0,3,0,,,,,,,,,,,,,,,,up,1000,10,0.00013930605843148847,-1,0,-1,-10,None,None,76.67301619995851,76.99869449995458,None,None,None,None,left,0,0.5140029999893159,76.73088249994908,None,None,None,,,,,,,moiern,001,0,fr,2022-07-08_14h43.02.292,3-AFC_adaptive_staircase_mess,2022.1.1,None,
,,,,,0,0,0,0,4,0,4,0,,,,,,,,,,,,,,,,right,1000,15,0.000247725095402395,1,1,1,5,80.8188539666046,None,78.78201570000965,79.09779689996503,79.77911899995524,80.11669609998353,80.7724426999921,81.11746630002744,right,1,2.732225100044161,78.84793109993916,None,81.33001080004033,None,,,,,,,moiern,001,0,fr,2022-07-08_14h43.02.292,3-AFC_adaptive_staircase_mess,2022.1.1,None,
,,,,,0,0,0,0,5,0,5,0,,,,,,,,,,,,,,,,left,1000,15,0.000247725095402395,1,1,1,5,83.11409916665094,None,83.09743249998428,83.41963240003679,None,None,None,None,left,1,0.796133799944073,83.12789380003233,None,None,None,,,,,,,moiern,001,0,fr,2022-07-08_14h43.02.292,3-AFC_adaptive_staircase_mess,2022.1.1,None,
,,,,,0,0,0,0,6,0,6,0,,,,,,,,,,,,,,,,right,1000,5,7.833755350540742e-05,-1,2,-1,-5.0,87.48156926670733,None,85.44877989997622,85.77838339994196,86.45530130004045,86.78851230000146,87.43453710002359,87.76213569997344,right,1,2.496994100045413,85.50629309995566,None,88.00039049994666,None,,,,,,,moiern,001,0,fr,2022-07-08_14h43.02.292,3-AFC_adaptive_staircase_mess,2022.1.1,None,
,,,,,0,0,0,0,7,0,7,0,,,,,,,,,,,,,,,,right,1000,5,7.833755350540742e-05,-1,2,-1,-5.0,91.55279556668053,None,89.51669720001519,89.84726139996201,90.5242762999842,90.85075780004263,91.53612890001386,91.87190429994371,right,1,2.457989800022915,89.57797480002046,None,92.0695160666403,None,,,,,,,moiern,001,0,fr,2022-07-08_14h43.02.292,3-AFC_adaptive_staircase_mess,2022.1.1,None,
,,,,,0,0,0,0,8,0,8,0,,,,,,,,,,,,,,,,up,1000,0.0,4.405244365040069e-05,-1,2,-1,-5.0,94.60851296660645,None,93.55637709994335,93.87990970001556,94.56179059995338,94.90082039998379,None,None,up,1,1.747660299995914,93.61612719995901,None,None,None,,,,,,,moiern,001,0,fr,2022-07-08_14h43.02.292,3-AFC_adaptive_staircase_mess,2022.1.1,None,
,,,,,0,0,0,0,9,0,9,0,,,,,,,,,,,,,,,,right,1000,0.0,4.405244365040069e-05,-1,2,-1,-5.0,98.88770616666103,None,96.88843940000515,97.23260450002272,97.84744459996,98.16487790003885,98.87103949999437,99.20183369994629,right,1,2.411592200049199,96.92029749997891,None,None,None,,,,,,,moiern,001,0,fr,2022-07-08_14h43.02.292,3-AFC_adaptive_staircase_mess,2022.1.1,None,
,,,,,0,0,0,0,10,0,10,0,,,,,,,,,,,,,,,,up,1000,-5.0,2.4772509540239506e-05,-1,2,-1,-5.0,101.87216216669573,None,100.82991349999793,101.17093419993762,101.85549550002906,102.17380290001165,None,None,up,1,1.6970507999649271,100.89044680004008,None,None,None,,,,,,,moiern,001,0,fr,2022-07-08_14h43.02.292,3-AFC_adaptive_staircase_mess,2022.1.1,None,
,,,,,0,0,0,0,11,0,11,0,,,,,,,,,,,,,,,,up,1000,-5.0,2.4772509540239506e-05,-1,2,-1,-5.0,105.13495776668812,None,104.10667739994824,104.43395169998985,105.11829110002145,105.4321048000129,106.10984940000344,106.42488569999114,right,0,4.17331290000584,104.16737529996317,None,106.66319869994186,None,,,,,,,moiern,001,0,fr,2022-07-08_14h43.02.292,3-AFC_adaptive_staircase_mess,2022.1.1,None,
,,,,,0,0,0,0,12,0,12,0,,,,,,,,,,,,,,,,left,1000,-2.5,3.303467240037979e-05,1,3,1,2.5,109.8722804666652,None,109.85561379999854,110.19596789998468,110.84696779993828,111.1803228999488,111.8390390999848,112.18250789993908,left,1,2.9355847999686375,109.88412659999449,None,112.39336540002842,None,,,,,,,moiern,001,0,fr,2022-07-08_14h43.02.292,3-AFC_adaptive_staircase_mess,2022.1.1,None,
,,,,,0,0,0,0,13,0,13,0,,,,,,,,,,,,,,,,left,1000,-2.5,3.303467240037979e-05,1,3,1,2.5,114.36833916668935,None,114.31831470003817,114.65938710002229,115.31542530003935,115.6501442999579,116.31586880004033,116.65251010004431,left,1,2.8677975999889895,114.38460370001849,None,116.86197089997586,None,,,,,,,moiern,001,0,fr,2022-07-08_14h43.02.292,3-AFC_adaptive_staircase_mess,2022.1.1,None,
,,,,,0,0,0,0,14,0,14,0,,,,,,,,,,,,,,,,left,1000,-7.5,1.8576761454858622e-05,-1,4,-1,-5.0,118.7975667666799,None,118.75212269998156,119.09222049999516,119.76158639998175,120.07528849993832,120.757774699945,121.07650790002663,up,0,2.6667003000620753,118.80971439997666,None,121.31867079995573,None,,,,,,,moiern,001,0,fr,2022-07-08_14h43.02.292,3-AFC_adaptive_staircase_mess,2022.1.1,None,
,,,,,0,0,0,0,15,0,15,0,,,,,,,,,,,,,,,,right,1000,-5.0,2.4772509540239506e-05,1,5,1,2.5,125.03230386664315,None,123.00829799997155,123.32606819993816,123.98686349997297,124.32917849998921,124.9836565000005,125.33055109996349,up,0,3.013478699955158,123.03822590003256,None,125.54663779994007,None,,,,,,,moiern,001,0,fr,2022-07-08_14h43.02.292,3-AFC_adaptive_staircase_mess,2022.1.1,None,
,,,,,0,0,0,0,16,0,16,0,,,,,,,,,,,,,,,,up,1000,-2.5,3.303467240037979e-05,1,5,1,2.5,128.61631846666958,None,127.58552019996569,127.93207949993666,128.5996518000029,128.94216109998524,129.57589730003383,129.89718249998987,left,0,2.677141199936159,127.66246939997654,None,130.14630699995905,None,,,,,,,moiern,001,0,fr,2022-07-08_14h43.02.292,3-AFC_adaptive_staircase_mess,2022.1.1,None,
,,,,,0,0,0,0,17,0,17,0,,,,,,,,,,,,,,,,up,1000,0.0,4.405244365040069e-05,1,5,1,2.5,132.8966662666683,None,131.84760510001797,132.18092880002223,132.84452939999755,133.15547080000397,133.86372529994696,134.2055080999853,up,1,2.6961378999985754,131.91551640001126,None,134.40624899999239,None,,,,,,,moiern,001,0,fr,2022-07-08_14h43.02.292,3-AFC_adaptive_staircase_mess,2022.1.1,None,
,,,,,0,0,0,0,18,0,18,0,,,,,,,,,,,,,,,,up,1000,0.0,4.405244365040069e-05,1,5,1,2.5,137.16213696665753,None,136.11967269994784,136.45221779996064,137.11598370003048,137.45535449997988,138.14710639999248,None,up,1,2.1758291999576613,136.17960899998434,None,None,None,,,,,,,moiern,001,0,fr,2022-07-08_14h43.02.292,3-AFC_adaptive_staircase_mess,2022.1.1,None,
,,,,,0,0,0,0,19,0,19,0,,,,,,,,,,,,,,,,left,1000,-5.0,2.4772509540239506e-05,-1,6,-1,-5.0,139.89593676670145,None,139.84594639996067,140.16562139999587,140.84755359997507,141.17526259995066,141.87201389996335,142.2028518000152,left,1,2.587485699914396,139.9119862000225,None,142.39698029996362,None,,,,,,,moiern,001,0,fr,2022-07-08_14h43.02.292,3-AFC_adaptive_staircase_mess,2022.1.1,None,
,,,,,1,0,1,0,0,0,0,0,,,,,,,,,,,,,[],[],10,right,1500,30,0.001527460556607757,0,0,-1,10,147.11824666668352,None,145.0822235000087,145.39781310001854,146.08376319997478,146.40901950001717,147.07190590002574,147.39386129996274,right,1,2.4469587999628857,145.14865109999664,None,147.6374348666907,None,left,1.0024631000123918,143.58560330001637,None,143.58560330001637,None,moiern,001,0,fr,2022-07-08_14h43.02.292,3-AFC_adaptive_staircase_mess,2022.1.1,None,
,,,,,1,0,1,0,1,0,1,0,,,,,,,,,,,,,,,,right,1500,30,0.001527460556607757,0,0,-1,10,151.18171266670495,None,149.13176999997813,149.46093009994365,150.13683550001588,150.45841860002838,151.1283852000488,151.46521719999146,right,1,2.2491691999603063,149.1940216999501,None,None,None,,,,,,,moiern,001,0,fr,2022-07-08_14h43.02.292,3-AFC_adaptive_staircase_mess,2022.1.1,None,
,,,,,1,0,1,0,2,0,2,0,,,,,,,,,,,,,,,,left,1500,10,0.0001527460556607757,-1,0,-1,-10,153.01349396660615,None,152.9596560000209,153.2832043999806,153.96540420001838,154.29805909993593,None,None,left,1,1.6431707000592723,153.0402146000415,None,None,None,,,,,,,moiern,001,0,fr,2022-07-08_14h43.02.292,3-AFC_adaptive_staircase_mess,2022.1.1,None,
,,,,,1,0,1,0,3,0,3,0,,,,,,,,,,,,,,,,up,1500,10,0.0001527460556607757,-1,0,-1,-10,157.23502296669565,None,156.2096581000369,156.52500240004156,157.21835630002897,157.53122500004247,None,None,up,1,1.399200199986808,156.269550899975,None,None,None,,,,,,,moiern,001,0,fr,2022-07-08_14h43.02.292,3-AFC_adaptive_staircase_mess,2022.1.1,None,
,,,,,1,0,1,0,4,0,4,0,,,,,,,,,,,,,,,,right,1500,0,4.830254394949071e-05,-1,0,-1,-10,161.25039966666762,None,159.20246649999171,159.5296614000108,160.18235889996868,160.49781830003485,161.1996912000468,161.53219109994825,right,1,2.3295898000942543,159.26659090002067,None,None,None,,,,,,,moiern,001,0,fr,2022-07-08_14h43.02.292,3-AFC_adaptive_staircase_mess,2022.1.1,None,
,,,,,1,0,1,0,5,0,5,0,,,,,,,,,,,,,,,,right,1500,0,4.830254394949071e-05,-1,0,-1,-10,165.12174996670026,None,163.0846057999879,163.40106059995014,164.09778670000378,164.43827429995872,165.10508330003358,165.43565240001772,right,1,2.325806599925272,163.14117960003205,None,None,None,,,,,,,moiern,001,0,fr,2022-07-08_14h43.02.292,3-AFC_adaptive_staircase_mess,2022.1.1,None,
,,,,,1,0,1,0,6,0,6,0,,,,,,,,,,,,,,,,up,1500,-10,1.527460556607758e-05,-1,0,-1,-10,168.03099536669131,None,167.01278250000905,167.3401870999951,167.9844081000192,168.30926420004107,169.00572230003309,169.34265320003033,right,0,2.640782699920237,167.04209630005062,None,169.54044839995913,None,,,,,,,moiern,001,0,fr,2022-07-08_14h43.02.292,3-AFC_adaptive_staircase_mess,2022.1.1,None,
,,,,,1,0,1,0,7,0,7,0,,,,,,,,,,,,,,,,right,1500,-5,2.716251657462168e-05,1,1,1,5,173.2493409666388,None,171.20874689996708,171.54725780000445,172.2174009999726,172.54625340003986,173.20291779993568,173.55001989996526,up,0,2.4651640000520274,171.2743194999639,None,173.76486906671587,None,,,,,,,moiern,001,0,fr,2022-07-08_14h43.02.292,3-AFC_adaptive_staircase_mess,2022.1.1,None,
,,,,,1,0,1,0,8,0,8,0,,,,,,,,,,,,,,,,left,1500,0,4.830254394949071e-05,1,1,1,5,175.26436286670312,None,175.24769620003644,175.56963969999924,176.23023396666784,None,None,None,left,1,0.9223791999975219,175.28125829994678,None,None,None,,,,,,,moiern,001,0,fr,2022-07-08_14h43.02.292,3-AFC_adaptive_staircase_mess,2022.1.1,None,
,,,,,1,0,1,0,9,0,9,0,,,,,,,,,,,,,,,,right,1500,0,4.830254394949071e-05,1,1,1,5,179.75723566668265,None,177.7184676999459,178.04490890004672,178.70757520000916,179.05116200004704,179.70847239997238,180.05714079993777,right,1,2.339863899978809,177.78334840002935,None,None,None,,,,,,,moiern,001,0,fr,2022-07-08_14h43.02.292,3-AFC_adaptive_staircase_mess,2022.1.1,None,
,,,,,1,0,1,0,10,0,10,0,,,,,,,,,,,,,,,,left,1500,-10,1.527460556607758e-05,-1,2,-1,-5.0,181.70148186671238,None,181.65151859994512,181.9929281999357,182.65607060003094,182.9860835999716,183.6533542999532,183.99143369996455,left,1,2.8239731999346986,181.71533110004384,None,184.2136848999653,None,,,,,,,moiern,001,0,fr,2022-07-08_14h43.02.292,3-AFC_adaptive_staircase_mess,2022.1.1,None,
,,,,,1,0,1,0,11,0,11,0,,,,,,,,,,,,,,,,right,1500,-10,1.527460556607758e-05,-1,2,-1,-5.0,188.10756386671372,None,186.0467758999439,186.3937504000496,187.06215549993794,187.39682290004566,188.05741070001386,188.3984740000451,right,1,2.5777926000300795,186.1061455999734,None,188.62821220001206,None,,,,,,,moiern,001,0,fr,2022-07-08_14h43.02.292,3-AFC_adaptive_staircase_mess,2022.1.1,None,
,,,,,1,0,1,0,12,0,12,0,,,,,,,,,,,,,,,,right,1500,-15.0,8.589541935787946e-06,-1,2,-1,-5.0,192.2546068666891,None,190.19823530002031,190.52689129998907,191.227683300036,191.54313450003974,192.20899740001187,192.53278290003072,right,1,2.9650391000322998,190.2631653000135,None,192.7536226999946,None,,,,,,,moiern,001,0,fr,2022-07-08_14h43.02.292,3-AFC_adaptive_staircase_mess,2022.1.1,None,
,,,,,1,0,1,0,13,0,13,0,,,,,,,,,,,,,,,,up,1500,-15.0,8.589541935787946e-06,-1,2,-1,-5.0,195.78263016668305,None,194.73535990004893,195.0606593999546,195.7321163000306,196.0709280000301,196.7265577999642,197.06993779994082,right,0,2.963279900024645,194.80024300003424,None,197.29748990002554,None,,,,,,,moiern,001,0,fr,2022-07-08_14h43.02.292,3-AFC_adaptive_staircase_mess,2022.1.1,None,
,,,,,1,0,1,0,14,0,14,0,,,,,,,,,,,,,,,,right,1500,-12.5,1.1454338263838873e-05,1,3,1,2.5,201.30177496670902,None,199.28224420000333,199.61253809998743,200.28360059997067,200.61539419996552,201.28510830004234,201.62240640004165,left,0,2.6406971000833437,199.31527300004382,None,201.84009890002199,None,,,,,,,moiern,001,0,fr,2022-07-08_14h43.02.292,3-AFC_adaptive_staircase_mess,2022.1.1,None,
,,,,,1,0,1,0,15,0,15,0,,,,,,,,,,,,,,,,up,1500,-10.0,1.527460556607758e-05,1,3,1,2.5,204.51634796668466,None,203.47473889996763,203.79395099997055,204.47087630000897,204.81562939996365,None,None,left,0,1.2631333000026643,203.54089389997534,None,None,None,,,,,,,moiern,001,0,fr,2022-07-08_14h43.02.292,3-AFC_adaptive_staircase_mess,2022.1.1,None,
,,,,,1,0,1,0,16,0,16,0,,,,,,,,,,,,,,,,right,1500,-7.5,2.036901389020565e-05,1,3,1,2.5,208.36293206661165,None,206.3135195999639,206.64235320000444,207.32854659995064,207.64834960002918,208.31328949995805,208.65464810002595,right,1,3.033635100000538,206.3785395999439,None,208.87227960000746,None,,,,,,,moiern,001,0,fr,2022-07-08_14h43.02.292,3-AFC_adaptive_staircase_mess,2022.1.1,None,
,,,,,1,0,1,0,17,0,17,0,,,,,,,,,,,,,,,,left,1500,-7.5,2.036901389020565e-05,1,3,1,2.5,210.97015266662154,211.19512589997612,210.92060089996085,211.2570940000005,211.9325977000408,212.25251779996324,212.91626930003986,213.25668390002102,up,0,2.9133866999763995,210.98622119997162,None,213.48644190002233,None,,,,,,,moiern,001,0,fr,2022-07-08_14h43.02.292,3-AFC_adaptive_staircase_mess,2022.1.1,None,
,,,,,1,0,1,0,18,0,18,0,,,,,,,,,,,,,,,,left,1500,-5.0,2.716251657462168e-05,1,3,1,2.5,215.45682416664593,None,215.4102590000257,215.75512029998936,None,None,None,None,left,1,0.6702875000191852,215.46946349996142,None,None,None,,,,,,,moiern,001,0,fr,2022-07-08_14h43.02.292,3-AFC_adaptive_staircase_mess,2022.1.1,None,
,,,,,1,0,1,0,19,0,19,0,,,,,,,,,,,,,,,,left,1500,-5.0,2.716251657462168e-05,1,3,1,2.5,217.70912066667032,None,217.6595453999471,217.99042619997635,218.67270879994612,218.9890038999729,219.65949250000995,219.99068389995955,right,0,2.6620619000168517,217.72516859997995,None,220.20642489998136,None,,,,,,,moiern,001,0,fr,2022-07-08_14h43.02.292,3-AFC_adaptive_staircase_mess,2022.1.1,None,
,,,,,1,0,1,0,20,0,20,0,,,,,,,,,,,,,,,,left,1500,-2.5,3.622179800374953e-05,1,3,1,2.5,221.94348696660407,None,221.8928494999418,222.22471039998345,None,None,None,None,left,1,0.7552797999233007,221.9605008000508,None,None,None,,,,,,,moiern,001,0,fr,2022-07-08_14h43.02.292,3-AFC_adaptive_staircase_mess,2022.1.1,None,
,,,,,1,0,1,0,21,0,21,0,,,,,,,,,,,,,,,,right,1500,-2.5,3.622179800374953e-05,1,3,1,2.5,226.2821291667099,None,224.230924100033,224.558203099994,225.23240199999418,225.5615162999602,226.23287069995422,226.56410119996872,right,1,2.4762610000325367,224.2959401999833,None,226.77860860002693,None,,,,,,,moiern,001,0,fr,2022-07-08_14h43.02.292,3-AFC_adaptive_staircase_mess,2022.1.1,None,
,,,,,1,0,1,0,22,0,22,0,,,,,,,,,,,,,,,,up,1500,-7.5,2.036901389020565e-05,-1,4,-1,-5.0,229.3056157666181,None,228.27156889997423,228.60002549993806,229.2590831000125,229.59883899998385,None,None,up,1,1.803780100075528,228.33713530004025,None,None,None,,,,,,,moiern,001,0,fr,2022-07-08_14h43.02.292,3-AFC_adaptive_staircase_mess,2022.1.1,None,
,,,,,1,0,1,0,23,0,23,0,,,,,,,,,,,,,,,,left,1500,-7.5,2.036901389020565e-05,-1,4,-1,-5.0,231.69055906666134,None,231.64348480000626,231.976899900008,232.65383540000767,232.99586130003445,233.64088279998396,233.97096139995847,right,0,2.721959699993022,231.7051136000082,None,234.21376369998325,None,,,,,,,moiern,001,0,fr,2022-07-08_14h43.02.292,3-AFC_adaptive_staircase_mess,2022.1.1,None,
,,,,,1,0,1,0,24,0,24,0,,,,,,,,,,,,,,,,left,1500,-5.0,2.716251657462168e-05,1,5,1,2.5,235.9960647666051,None,235.94696269999258,236.27247510000598,None,None,None,None,left,1,0.393368799937889,236.0100284999935,None,None,None,,,,,,,moiern,001,0,fr,2022-07-08_14h43.02.292,3-AFC_adaptive_staircase_mess,2022.1.1,None,
,,,,,1,0,1,0,25,0,25,0,,,,,,,,,,,,,,,,right,1500,-5.0,2.716251657462168e-05,1,5,1,2.5,None,None,237.906687199953,238.24064900004305,None,None,None,None,left,0,0.45142000005580485,237.96856219996698,None,None,None,,,,,,,moiern,001,0,fr,2022-07-08_14h43.02.292,3-AFC_adaptive_staircase_mess,2022.1.1,None,
,,,,,1,0,1,0,26,0,26,0,,,,,,,,,,,,,,,,up,1500,-2.5,3.622179800374953e-05,1,5,1,2.5,240.95473496668663,None,239.9454385000281,240.26625099999364,240.93806830001995,241.25492400000803,None,None,up,1,1.5145014999434352,239.9777917000465,None,None,None,,,,,,,moiern,001,0,fr,2022-07-08_14h43.02.292,3-AFC_adaptive_staircase_mess,2022.1.1,None,
,,,,,1,0,1,0,27,0,27,0,,,,,,,,,,,,,,,,left,1500,-2.5,3.622179800374953e-05,1,5,1,2.5,243.05686566670582,None,243.01115939999,243.3494020999642,None,None,None,None,left,1,0.6701208000304177,243.0696679999819,None,None,None,,,,,,,moiern,001,0,fr,2022-07-08_14h43.02.292,3-AFC_adaptive_staircase_mess,2022.1.1,None,
,,,,,1,0,1,0,28,0,28,0,,,,,,,,,,,,,,,,right,1500,-7.5,2.036901389020565e-05,-1,6,-1,-5.0,247.29538606660597,None,245.24439140001778,245.577597699943,246.23696370003745,246.58383679995313,247.24496769998223,247.5613152999431,right,1,2.6115321000106633,245.3047090000473,None,247.79833310004324,None,,,,,,,moiern,001,0,fr,2022-07-08_14h43.02.292,3-AFC_adaptive_staircase_mess,2022.1.1,None,
,,,,,2,0,2,0,0,0,0,0,,,,,,,,,,,,,[],[],10,left,2000,30,0.0023657562948074026,0,0,-1,10,250.5021225666317,None,250.45557079999708,250.79928080004174,251.46039399993606,None,None,None,left,1,0.9605319000547752,250.5161674999399,None,None,None,left,0.9998846999369562,248.98803609993774,None,248.98803609993774,None,moiern,001,0,fr,2022-07-08_14h43.02.292,3-AFC_adaptive_staircase_mess,2022.1.1,None,
,,,,,2,0,2,0,1,0,1,0,,,,,,,,,,,,,,,,right,2000,30,0.0023657562948074026,0,0,-1,10,255.01961966668412,None,252.99218169995584,253.32358660001773,253.98329779994674,254.31580350000877,255.00295300001744,None,right,1,2.2211721000494435,253.05442039994523,None,None,None,,,,,,,moiern,001,0,fr,2022-07-08_14h43.02.292,3-AFC_adaptive_staircase_mess,2022.1.1,None,
,,,,,2,0,2,0,2,0,2,0,,,,,,,,,,,,,,,,right,2000,10,0.00023657562948074026,-1,0,-1,-10,258.82111686660596,None,256.77791329997126,257.0936552999774,257.77973369997926,258.1206564999884,258.7771185999736,259.0916417000117,right,1,2.246319399913773,256.8376729999436,None,None,None,,,,,,,moiern,001,0,fr,2022-07-08_14h43.02.292,3-AFC_adaptive_staircase_mess,2022.1.1,None,
,,,,,2,0,2,0,3,0,3,0,,,,,,,,,,,,,,,,right,2000,10,0.00023657562948074026,-1,0,-1,-10,262.6513790666979,None,260.61536129994784,260.9499729999807,261.60325469996314,261.93973320000805,262.60512530000415,262.94793150003534,right,1,2.2802217999706045,260.6437521999469,None,None,None,,,,,,,moiern,001,0,fr,2022-07-08_14h43.02.292,3-AFC_adaptive_staircase_mess,2022.1.1,None,
,,,,,2,0,2,0,4,0,4,0,,,,,,,,,,,,,,,,up,2000,0,7.481178280472168e-05,-1,0,-1,-10,265.4885960666618,None,264.4530071000336,264.7848342000507,265.4403572999872,265.77727790002245,None,None,up,1,1.5820496999658644,264.48552929994185,None,None,None,,,,,,,moiern,001,0,fr,2022-07-08_14h43.02.292,3-AFC_adaptive_staircase_mess,2022.1.1,None,
,,,,,2,0,2,0,5,0,5,0,,,,,,,,,,,,,,,,right,2000,0,7.481178280472168e-05,-1,0,-1,-10,269.6119626666807,None,267.58149170002434,267.90357620001305,268.58122910000384,268.91197060002014,269.59529600001406,269.9344374999637,right,1,2.457830399973318,267.60974510002416,None,None,None,,,,,,,moiern,001,0,fr,2022-07-08_14h43.02.292,3-AFC_adaptive_staircase_mess,2022.1.1,None,
,,,,,2,0,2,0,6,0,6,0,,,,,,,,,,,,,,,,left,2000,-10,2.3657562948074015e-05,-1,0,-1,-10,271.611116966644,None,271.5944502999773,271.9269054000033,272.581563499989,272.9179217000492,273.5592084999662,273.8750887999777,right,0,2.5067705999827012,271.624450000003,None,274.13920059998054,None,,,,,,,moiern,001,0,fr,2022-07-08_14h43.02.292,3-AFC_adaptive_staircase_mess,2022.1.1,None,
,,,,,2,0,2,0,7,0,7,0,,,,,,,,,,,,,,,,right,2000,-5,4.206975708225974e-05,1,1,1,5,277.6527676666776,None,275.6415926000336,275.9734648000449,276.62286380003206,276.9556197000202,277.63610100001097,277.9728924999945,right,1,2.6203327999683097,275.6714949000161,None,278.1862208000384,None,,,,,,,moiern,001,0,fr,2022-07-08_14h43.02.292,3-AFC_adaptive_staircase_mess,2022.1.1,None,
,,,,,2,0,2,0,8,0,8,0,,,,,,,,,,,,,,,,up,2000,-5,4.206975708225974e-05,1,1,1,5,280.8609689666812,None,279.8221476000035,280.15658980002627,280.8119526000228,281.15368310001213,281.8150326999603,282.13207449996844,left,0,3.039604200050235,279.85248110000975,None,282.38416400004644,None,,,,,,,moiern,001,0,fr,2022-07-08_14h43.02.292,3-AFC_adaptive_staircase_mess,2022.1.1,None,
,,,,,2,0,2,0,9,0,9,0,,,,,,,,,,,,,,,,left,2000,0,7.481178280472168e-05,1,1,1,5,284.4332709666962,284.6576112000039,284.4166043000296,284.7510646999581,None,None,None,None,left,1,0.7215570999542251,284.450205000001,None,None,None,,,,,,,moiern,001,0,fr,2022-07-08_14h43.02.292,3-AFC_adaptive_staircase_mess,2022.1.1,None,
,,,,,2,0,2,0,10,0,10,0,,,,,,,,,,,,,,,,up,2000,0,7.481178280472168e-05,1,1,1,5,287.76416916662515,None,286.7075308000203,287.03699459997006,287.7061699000187,288.0235691999551,None,None,up,1,1.4443262999411672,286.7669545999961,None,None,None,,,,,,,moiern,001,0,fr,2022-07-08_14h43.02.292,3-AFC_adaptive_staircase_mess,2022.1.1,None,
,,,,,2,0,2,0,11,0,11,0,,,,,,,,,,,,,,,,right,2000,-10,2.3657562948074015e-05,-1,2,-1,-5.0,291.75196736661405,None,289.70672479993664,290.04599110002164,290.6987816999899,291.027573499945,291.7047203000402,292.02351520000957,right,1,2.418724699993618,289.77698970003985,None,None,None,,,,,,,moiern,001,0,fr,2022-07-08_14h43.02.292,3-AFC_adaptive_staircase_mess,2022.1.1,None,
,,,,,2,0,2,0,12,0,12,0,,,,,,,,,,,,,,,,left,2000,-10,2.3657562948074015e-05,-1,2,-1,-5.0,293.7190463666959,None,293.70237970002927,294.02959010005,294.68199549999554,295.0122529999353,295.69654309994075,296.0266396999359,right,0,2.703021500026807,293.73222360003274,None,296.2375594000332,None,,,,,,,moiern,001,0,fr,2022-07-08_14h43.02.292,3-AFC_adaptive_staircase_mess,2022.1.1,None,
,,,,,2,0,2,0,13,0,13,0,,,,,,,,,,,,,,,,right,2000,-7.5,3.154786722400965e-05,1,3,1,2.5,300.0111504666895,None,297.98167759994976,298.2971921999706,298.97869609994814,299.3060001999838,299.99448380002286,300.33492389996536,left,0,2.5965569000691175,298.0549430999672,None,300.544008799945,None,,,,,,,moiern,001,0,fr,2022-07-08_14h43.02.292,3-AFC_adaptive_staircase_mess,2022.1.1,None,
,,,,,2,0,2,0,14,0,14,0,,,,,,,,,,,,,,,,right,2000,-5.0,4.206975708225974e-05,1,3,1,2.5,304.20528646669504,304.4395166999893,302.1681060999399,302.50930489995517,303.1600811999524,303.50112739996985,304.1561250999803,304.47283590002917,right,1,2.593674600007944,302.23407759994734,None,304.7235591999488,None,,,,,,,moiern,001,0,fr,2022-07-08_14h43.02.292,3-AFC_adaptive_staircase_mess,2022.1.1,None,
,,,,,2,0,2,0,15,0,15,0,,,,,,,,,,,,,,,,right,2000,-5.0,4.206975708225974e-05,1,3,1,2.5,308.3737439666331,None,306.3296656999737,306.65927669999655,307.338336899993,307.67227999994066,308.32464629993774,308.6612398000434,right,1,2.4852353000314906,306.39022719999775,None,308.8989739000099,None,,,,,,,moiern,001,0,fr,2022-07-08_14h43.02.292,3-AFC_adaptive_staircase_mess,2022.1.1,None,
,,,,,2,0,2,0,16,0,16,0,,,,,,,,,,,,,,,,up,2000,-10.0,2.3657562948074015e-05,-1,4,-1,-5.0,311.46119856665996,311.6858314999845,310.4186902999645,310.7646488000173,311.4117110000225,311.7483532000333,312.4381516999565,312.7827860999387,up,1,2.8444818999851122,310.4794294999447,None,312.98781099996995,None,,,,,,,moiern,001,0,fr,2022-07-08_14h43.02.292,3-AFC_adaptive_staircase_mess,2022.1.1,None,
,,,,,2,0,2,0,17,0,17,0,,,,,,,,,,,,,,,,up,2000,-10.0,2.3657562948074015e-05,-1,4,-1,-5.0,315.8742669666574,None,314.85234550002497,315.1878066000063,315.85760029999074,316.1928138999501,316.85285629995633,317.2008319000015,left,0,3.175664499984123,314.9231656000484,None,317.41729150002357,None,,,,,,,moiern,001,0,fr,2022-07-08_14h43.02.292,3-AFC_adaptive_staircase_mess,2022.1.1,None,
,,,,,2,0,2,0,18,0,18,0,,,,,,,,,,,,,,,,right,2000,-7.5,3.154786722400965e-05,1,5,1,2.5,321.67152846669,None,319.6627002999885,320.0047130000312,320.6562099000439,320.97837449994404,321.65486180002335,321.9797609000234,up,0,2.8439025999978185,319.69535920000635,None,322.22493010002654,None,,,,,,,moiern,001,0,fr,2022-07-08_14h43.02.292,3-AFC_adaptive_staircase_mess,2022.1.1,None,
,,,,,2,0,2,0,19,0,19,0,,,,,,,,,,,,,,,,right,2000,-5.0,4.206975708225974e-05,1,5,1,2.5,326.1023889666578,None,324.0742764000315,324.3921906000469,325.0508805999998,325.37121929996647,326.0857222999912,326.40817660000175,up,0,2.949883499997668,324.10937309998553,None,326.6243702999782,None,,,,,,,moiern,001,0,fr,2022-07-08_14h43.02.292,3-AFC_adaptive_staircase_mess,2022.1.1,None,
,,,,,2,0,2,0,20,0,20,0,,,,,,,,,,,,,,,,left,2000,-2.5,5.610092271509818e-05,1,5,1,2.5,328.6387959666938,None,328.5888304000255,328.9049958999967,329.60623729997315,None,None,None,left,1,1.001807300024666,328.65711689996533,None,None,None,,,,,,,moiern,001,0,fr,2022-07-08_14h43.02.292,3-AFC_adaptive_staircase_mess,2022.1.1,None,
,,,,,2,0,2,0,21,0,21,0,,,,,,,,,,,,,,,,left,2000,-2.5,5.610092271509818e-05,1,5,1,2.5,331.2137554666881,None,331.19708880002145,331.5191379999742,None,None,None,None,left,1,0.6853707999689505,331.23198909999337,None,None,None,,,,,,,moiern,001,0,fr,2022-07-08_14h43.02.292,3-AFC_adaptive_staircase_mess,2022.1.1,None,
,,,,,2,0,2,0,22,0,22,0,,,,,,,,,,,,,,,,left,2000,-7.5,3.154786722400965e-05,-1,6,-1,-5.0,333.4974250666021,None,333.44530020002276,333.7686807999853,334.4635334999766,334.78141279995907,335.47750279994216,335.7961675999686,right,0,2.7439131999854,333.5164652999956,None,336.01152689999435,None,,,,,,,moiern,001,0,fr,2022-07-08_14h43.02.292,3-AFC_adaptive_staircase_mess,2022.1.1,None,
,,,,,3,0,3,0,0,0,0,0,,,,,,,,,,,,,[],[],10,left,3000,30,0.001733684252262658,0,0,-1,10,339.0417497666242,None,339.02508309995756,339.3504826000426,None,None,None,None,left,1,0.7019702000543475,339.0619579999475,None,None,None,left,1.185975999920629,337.33138280001003,None,337.33138280001003,None,moiern,001,0,fr,2022-07-08_14h43.02.292,3-AFC_adaptive_staircase_mess,2022.1.1,None,
,,,,,3,0,3,0,1,0,1,0,,,,,,,,,,,,,,,,left,3000,30,0.001733684252262658,0,0,-1,10,341.3354670666779,None,341.2847389000235,341.60159500001464,None,None,None,None,left,1,0.3797432000283152,341.35221459995955,None,None,None,,,,,,,moiern,001,0,fr,2022-07-08_14h43.02.292,3-AFC_adaptive_staircase_mess,2022.1.1,None,
,,,,,3,0,3,0,2,0,2,0,,,,,,,,,,,,,,,,right,3000,10,0.00017336842522626576,-1,0,-1,-10,345.26110696670753,None,343.2571927999379,343.5768100999994,344.2392293999437,344.55530060001183,345.2444403000409,345.57139119994827,right,1,2.3027691000606865,343.2931396999629,None,None,None,,,,,,,moiern,001,0,fr,2022-07-08_14h43.02.292,3-AFC_adaptive_staircase_mess,2022.1.1,None,
,,,,,3,0,3,0,3,0,3,0,,,,,,,,,,,,,,,,up,3000,10,0.00017336842522626576,-1,0,-1,-10,348.14741136663747,None,347.1216809999896,347.43847759999335,348.0954422999639,348.4253082999494,None,None,up,1,1.5577327000210062,347.15765529999044,None,None,None,,,,,,,moiern,001,0,fr,2022-07-08_14h43.02.292,3-AFC_adaptive_staircase_mess,2022.1.1,None,
,,,,,3,0,3,0,4,0,4,0,,,,,,,,,,,,,,,,right,3000,0,5.482390980715923e-05,-1,0,-1,-10,352.2795264666822,None,350.23515359999146,350.5549838000443,351.267995400005,351.5923385999631,352.2628598000156,352.5873219999485,right,1,2.266973500023596,350.3059251999948,None,None,None,,,,,,,moiern,001,0,fr,2022-07-08_14h43.02.292,3-AFC_adaptive_staircase_mess,2022.1.1,None,
,,,,,3,0,3,0,5,0,5,0,,,,,,,,,,,,,,,,right,3000,0,5.482390980715923e-05,-1,0,-1,-10,356.13465026667495,None,354.091779600014,354.41541649994906,355.12152149993926,355.4461633999599,356.1179836000083,356.4407242999878,right,1,2.3519959999248385,354.164822599967,None,None,None,,,,,,,moiern,001,0,fr,2022-07-08_14h43.02.292,3-AFC_adaptive_staircase_mess,2022.1.1,None,
,,,,,3,0,3,0,6,0,6,0,,,,,,,,,,,,,,,,right,3000,-10,1.7336842522626584e-05,-1,0,-1,-10,360.0971391666137,None,358.0488857999444,358.36682280001696,359.04870100005064,359.3713226999389,360.08047249994706,360.40612129995134,right,1,2.427461199928075,358.1197890000185,None,None,None,,,,,,,moiern,001,0,fr,2022-07-08_14h43.02.292,3-AFC_adaptive_staircase_mess,2022.1.1,None,
,,,,,3,0,3,0,7,0,7,0,,,,,,,,,,,,,,,,right,3000,-10,1.7336842522626584e-05,-1,0,-1,-10,364.124138566611,None,362.0902291999664,362.4113067999715,363.07669879996683,363.40364779997617,364.0687608999433,364.3950550999725,left,0,2.7422350000124425,362.1253392000217,None,364.6132380999625,None,,,,,,,moiern,001,0,fr,2022-07-08_14h43.02.292,3-AFC_adaptive_staircase_mess,2022.1.1,None,
,,,,,3,0,3,0,8,0,8,0,,,,,,,,,,,,,,,,up,3000,-5,3.082975009307411e-05,1,1,1,5,367.4343216666641,None,366.3848258999642,366.71302729996387,367.3820087000495,367.70408659998793,368.38145820004866,368.699807099998,left,0,2.9560017000185326,366.4572745000478,None,368.9482812000206,None,,,,,,,moiern,001,0,fr,2022-07-08_14h43.02.292,3-AFC_adaptive_staircase_mess,2022.1.1,None,
,,,,,3,0,3,0,9,0,9,0,,,,,,,,,,,,,,,,left,3000,0,5.482390980715923e-05,1,1,1,5,370.9855619666089,None,370.9336059000343,371.2569611000363,371.95933530002367,372.2843492999673,372.957413099939,373.28336809994653,up,0,2.2947208000114188,371.00576460000593,None,None,None,,,,,,,moiern,001,0,fr,2022-07-08_14h43.02.292,3-AFC_adaptive_staircase_mess,2022.1.1,None,
,,,,,3,0,3,0,10,0,10,0,,,,,,,,,,,,,,,,left,3000,5,9.749222998790222e-05,1,1,1,5,374.8735479666541,None,374.85688129998744,375.17967440001667,None,None,None,None,left,1,0.5365631999447942,374.89137289999053,None,None,None,,,,,,,moiern,001,0,fr,2022-07-08_14h43.02.292,3-AFC_adaptive_staircase_mess,2022.1.1,None,
,,,,,3,0,3,0,11,0,11,0,,,,,,,,,,,,,,,,right,3000,5,9.749222998790222e-05,1,1,1,5,378.99637136661136,None,376.99406699999236,377.3152333999751,377.9819214999443,378.30814710003324,378.9797046999447,379.3077307000058,right,1,2.2622182000195608,377.0299835000187,None,None,None,,,,,,,moiern,001,0,fr,2022-07-08_14h43.02.292,3-AFC_adaptive_staircase_mess,2022.1.1,None,
,,,,,3,0,3,0,12,0,12,0,,,,,,,,,,,,,,,,left,3000,-5,3.082975009307411e-05,-1,2,-1,-5.0,380.84955816663955,None,380.8328914999729,381.1612514000153,381.80082460003905,382.1275088000111,382.8317850000458,383.1536645999877,left,1,2.7106782000046223,380.86935369996354,None,383.36422650003806,None,,,,,,,moiern,001,0,fr,2022-07-08_14h43.02.292,3-AFC_adaptive_staircase_mess,2022.1.1,None,
,,,,,3,0,3,0,13,0,13,0,,,,,,,,,,,,,,,,up,3000,-5,3.082975009307411e-05,-1,2,-1,-5.0,386.1474513667092,None,385.09895539993886,385.4209572999971,386.0944400000153,386.4190393999452,387.0915111999493,387.4198504999513,right,0,2.5771869000745937,385.1718847999582,None,387.6664979000343,None,,,,,,,moiern,001,0,fr,2022-07-08_14h43.02.292,3-AFC_adaptive_staircase_mess,2022.1.1,None,
,,,,,3,0,3,0,14,0,14,0,,,,,,,,,,,,,,,,left,3000,-2.5,4.1112132497353565e-05,1,3,1,2.5,389.3354440666192,None,389.28031639999244,389.60604590002913,390.3124568000203,390.63728859997354,391.30472470005043,391.628063900047,up,0,3.5946060999995098,389.3530046000378,None,391.84174269996583,None,,,,,,,moiern,001,0,fr,2022-07-08_14h43.02.292,3-AFC_adaptive_staircase_mess,2022.1.1,None,
,,,,,3,0,3,0,15,0,15,0,,,,,,,,,,,,,,,,left,3000,0.0,5.482390980715923e-05,1,3,1,2.5,394.52406056662244,None,394.47386929998174,394.79517870000564,395.5033295999747,395.82662349997554,396.4988022999605,396.8226295999484,left,1,2.468483400065452,394.54265039996244,None,397.0349037999986,None,,,,,,,moiern,001,0,fr,2022-07-08_14h43.02.292,3-AFC_adaptive_staircase_mess,2022.1.1,None,
,,,,,3,0,3,0,16,0,16,0,,,,,,,,,,,,,,,,right,3000,0.0,5.482390980715923e-05,1,3,1,2.5,400.58024786663395,None,398.53201620001346,398.87383269995917,399.5570595000172,399.88378599996213,400.5305678000441,400.881992300041,right,1,2.3415854999329895,398.61390849994496,None,None,None,,,,,,,moiern,001,0,fr,2022-07-08_14h43.02.292,3-AFC_adaptive_staircase_mess,2022.1.1,None,
,,,,,3,0,3,0,17,0,17,0,,,,,,,,,,,,,,,,left,3000,-5.0,3.082975009307411e-05,-1,4,-1,-5.0,402.5478722666778,None,402.49566719995346,402.8170058999676,403.4901728000259,403.8167627999792,404.4874838000396,404.8178057000041,left,1,2.6199143000412732,402.56722239998635,None,405.06921410001814,None,,,,,,,moiern,001,0,fr,2022-07-08_14h43.02.292,3-AFC_adaptive_staircase_mess,2022.1.1,None,
,,,,,3,0,3,0,18,0,18,0,,,,,,,,,,,,,,,,up,3000,-5.0,3.082975009307411e-05,-1,4,-1,-5.0,407.7926010667036,None,406.7521415000083,407.07762500003446,407.74089709995314,408.0682520000264,408.74281319999136,409.06827309995424,left,0,2.8470533000072464,406.8208322999999,None,409.3174333999632,None,,,,,,,moiern,001,0,fr,2022-07-08_14h43.02.292,3-AFC_adaptive_staircase_mess,2022.1.1,None,
,,,,,3,0,3,0,19,0,19,0,,,,,,,,,,,,,,,,right,3000,-2.5,4.1112132497353565e-05,1,5,1,2.5,413.23172046669447,None,411.1977866999805,411.5210012999596,412.2276563999476,412.5471269999398,413.2150538000278,413.5412142999703,right,1,2.7897771999705583,411.27044210000895,None,413.75254110002425,None,,,,,,,moiern,001,0,fr,2022-07-08_14h43.02.292,3-AFC_adaptive_staircase_mess,2022.1.1,None,
,,,,,3,0,3,0,20,0,20,0,,,,,,,,,,,,,,,,right,3000,-2.5,4.1112132497353565e-05,1,5,1,2.5,417.6469985666374,None,415.5976885999553,415.93012100004125,416.61441539996304,416.94501899997704,417.59551470004953,417.9217817999888,left,0,3.0918721000198275,415.6713691999903,None,418.18409220001195,None,,,,,,,moiern,001,0,fr,2022-07-08_14h43.02.292,3-AFC_adaptive_staircase_mess,2022.1.1,None,
,,,,,3,0,3,0,21,0,21,0,,,,,,,,,,,,,,,,up,3000,0.0,5.482390980715923e-05,1,5,1,2.5,421.3108921666319,None,420.30101910000667,420.62373370002024,421.29422549996525,421.62195439997595,422.30230169999413,422.65371590002906,up,1,2.4856317000230774,420.33522849995643,None,422.83212629996706,None,,,,,,,moiern,001,0,fr,2022-07-08_14h43.02.292,3-AFC_adaptive_staircase_mess,2022.1.1,None,
,,,,,3,0,3,0,22,0,22,0,,,,,,,,,,,,,,,,left,3000,0.0,5.482390980715923e-05,1,5,1,2.5,424.3827148666062,None,424.36604819993954,424.69028910005,425.3593681999482,425.6811403000029,426.35754230001476,426.6961544000078,left,1,3.022419499931857,424.40491459995974,None,426.89175599999726,None,,,,,,,moiern,001,0,fr,2022-07-08_14h43.02.292,3-AFC_adaptive_staircase_mess,2022.1.1,None,
,,,,,3,0,3,0,23,0,23,0,,,,,,,,,,,,,,,,left,3000,-5.0,3.082975009307411e-05,-1,6,-1,-5.0,428.987549766611,None,428.9390691999579,429.2744902999839,429.9398152999347,430.27671030000784,430.9452611999586,431.27718239999376,right,0,2.7230742999818176,429.0086804999737,None,431.5132531999843,None,,,,,,,moiern,001,0,fr,2022-07-08_14h43.02.292,3-AFC_adaptive_staircase_mess,2022.1.1,None,
,,,,,4,0,4,0,0,0,0,0,,,,,,,,,,,,,[],[],10,right,4000,30,0.0026544222211549416,0,0,-1,10,436.2310129666623,None,434.1753754999954,434.5135222999379,435.18422279995866,435.5132966999663,436.1781142000109,436.5160337999696,right,1,2.4341946000931785,434.24845009995624,None,436.7352715666095,None,left,0.8945779999485239,432.81256939994637,None,432.81256939994637,None,moiern,001,0,fr,2022-07-08_14h43.02.292,3-AFC_adaptive_staircase_mess,2022.1.1,None,
,,,,,4,0,4,0,1,0,1,0,,,,,,,,,,,,,,,,right,4000,30,0.0026544222211549416,0,0,-1,10,440.24049236666565,None,438.21372929995414,438.5487252000021,439.2258036000421,439.548159900005,440.223825699999,440.5537532999879,right,1,2.237855799961835,438.28667900001165,None,None,None,,,,,,,moiern,001,0,fr,2022-07-08_14h43.02.292,3-AFC_adaptive_staircase_mess,2022.1.1,None,
,,,,,4,0,4,0,2,0,2,0,,,,,,,,,,,,,,,,right,4000,10,0.00026544222211549425,-1,0,-1,-10,444.11254756671065,None,442.09145599999465,442.4230492999777,443.05711729999166,443.3888179999776,444.0627229999518,444.4020547999535,right,1,2.2870289999991655,442.12592220003717,None,None,None,,,,,,,moiern,001,0,fr,2022-07-08_14h43.02.292,3-AFC_adaptive_staircase_mess,2022.1.1,None,
,,,,,4,0,4,0,3,0,3,0,,,,,,,,,,,,,,,,left,4000,10,0.00026544222211549425,-1,0,-1,-10,445.9820549666804,None,445.9328356999904,446.2698505000444,None,None,None,None,left,1,0.6127051999792457,445.99874529999215,None,None,None,,,,,,,moiern,001,0,fr,2022-07-08_14h43.02.292,3-AFC_adaptive_staircase_mess,2022.1.1,None,
,,,,,4,0,4,0,4,0,4,0,,,,,,,,,,,,,,,,up,4000,0,8.394020090612804e-05,-1,0,-1,-10,449.2149245666262,449.4453616000246,448.1589314000448,448.49482899997383,449.1619692000095,449.4732742999913,None,None,up,1,1.4119995000073686,448.2310141000198,None,None,None,,,,,,,moiern,001,0,fr,2022-07-08_14h43.02.292,3-AFC_adaptive_staircase_mess,2022.1.1,None,
,,,,,4,0,4,0,5,0,5,0,,,,,,,,,,,,,,,,left,4000,0,8.394020090612804e-05,-1,0,-1,-10,451.2167845667029,None,451.16427609999664,451.49988599994686,None,None,None,None,left,1,0.5478976999875158,451.2326333000092,None,None,None,,,,,,,moiern,001,0,fr,2022-07-08_14h43.02.292,3-AFC_adaptive_staircase_mess,2022.1.1,None,
,,,,,4,0,4,0,6,0,6,0,,,,,,,,,,,,,,,,left,4000,-10,2.6544222211549425e-05,-1,0,-1,-10,453.32884716667854,None,453.3121805000119,453.6376142000081,454.30307320004795,454.63446610001847,455.30481649993453,455.63535100000445,right,0,2.392225500079803,453.34718319994863,None,None,None,,,,,,,moiern,001,0,fr,2022-07-08_14h43.02.292,3-AFC_adaptive_staircase_mess,2022.1.1,None,
,,,,,4,0,4,0,7,0,7,0,,,,,,,,,,,,,,,,left,4000,-5,4.720304381429618e-05,1,1,1,5,457.3220694666418,None,457.27375659998506,457.6118752999464,None,None,None,None,left,1,0.7382234000833705,457.3373479000293,None,None,None,,,,,,,moiern,001,0,fr,2022-07-08_14h43.02.292,3-AFC_adaptive_staircase_mess,2022.1.1,None,
,,,,,4,0,4,0,8,0,8,0,,,,,,,,,,,,,,,,up,4000,-5,4.720304381429618e-05,1,1,1,5,460.6265397666177,460.8542658999795,459.6054389999481,459.9384668000275,460.6098730999511,460.9537071000086,461.61278800002765,461.9493426999543,left,0,2.6344303999794647,459.6731298000086,None,462.1461533999536,None,,,,,,,moiern,001,0,fr,2022-07-08_14h43.02.292,3-AFC_adaptive_staircase_mess,2022.1.1,None,
,,,,,4,0,4,0,9,0,9,0,,,,,,,,,,,,,,,,up,4000,0,8.394020090612804e-05,1,1,1,5,464.8591795666764,None,463.8140360999387,464.14202150003985,464.8115428000456,465.1236613999354,None,None,up,1,1.4998824000358582,463.8789018000243,None,None,None,,,,,,,moiern,001,0,fr,2022-07-08_14h43.02.292,3-AFC_adaptive_staircase_mess,2022.1.1,None,
,,,,,4,0,4,0,10,0,10,0,,,,,,,,,,,,,,,,right,4000,0,8.394020090612804e-05,1,1,1,5,468.9024963667073,None,466.8837428999832,467.21658050001133,467.88514429994393,468.216637799982,468.88582970004063,469.22714039997663,right,1,2.487978200078942,466.91526339994743,None,469.4211112000048,None,,,,,,,moiern,001,0,fr,2022-07-08_14h43.02.292,3-AFC_adaptive_staircase_mess,2022.1.1,None,
,,,,,4,0,4,0,11,0,11,0,,,,,,,,,,,,,,,,up,4000,-10,2.6544222211549425e-05,-1,2,-1,-5.0,471.9723811667102,None,470.9209886000026,471.2523072999902,471.92172690003645,472.2649010999594,472.91817219997756,473.25318460003473,right,0,2.703995199990459,470.98773159994744,None,473.49009169999044,None,,,,,,,moiern,001,0,fr,2022-07-08_14h43.02.292,3-AFC_adaptive_staircase_mess,2022.1.1,None,
,,,,,4,0,4,0,12,0,12,0,,,,,,,,,,,,,,,,left,4000,-7.5,3.53972892192069e-05,1,3,1,2.5,475.2433045666587,None,475.19213890004903,475.52094009995926,476.19348220003303,476.5240980000235,477.1946180999512,477.52177009999286,left,1,3.4665957000106573,475.25863769999705,None,477.7575141999405,None,,,,,,,moiern,001,0,fr,2022-07-08_14h43.02.292,3-AFC_adaptive_staircase_mess,2022.1.1,None,
,,,,,4,0,4,0,13,0,13,0,,,,,,,,,,,,,,,,up,4000,-7.5,3.53972892192069e-05,1,3,1,2.5,481.2841985666348,481.5139388999669,480.23033379996195,480.56264320004266,481.2351577000227,481.5759290000424,482.23355290002655,482.56661470001563,left,0,2.7987787999445572,480.3010382000357,None,482.8017017999664,None,,,,,,,moiern,001,0,fr,2022-07-08_14h43.02.292,3-AFC_adaptive_staircase_mess,2022.1.1,None,
,,,,,4,0,4,0,14,0,14,0,,,,,,,,,,,,,,,,up,4000,-5.0,4.720304381429618e-05,1,3,1,2.5,485.6539058666133,None,484.59876109997276,484.93256650003605,485.602377000032,485.93315529997926,None,None,left,0,1.5457131000002846,484.6654247000115,None,None,None,,,,,,,moiern,001,0,fr,2022-07-08_14h43.02.292,3-AFC_adaptive_staircase_mess,2022.1.1,None,
,,,,,4,0,4,0,15,0,15,0,,,,,,,,,,,,,,,,right,4000,-2.5,6.294627058970837e-05,1,3,1,2.5,489.7869015666113,None,487.7358556999825,488.0684094999451,488.7332052999409,489.0723529999377,489.73884020000696,490.07825889997184,right,1,2.584599500056356,487.80313579994254,None,490.3039612999419,None,,,,,,,moiern,001,0,fr,2022-07-08_14h43.02.292,3-AFC_adaptive_staircase_mess,2022.1.1,None,
,,,,,4,0,4,0,16,0,16,0,,,,,,,,,,,,,,,,left,4000,-2.5,6.294627058970837e-05,1,3,1,2.5,491.96102086670385,492.1921382000437,491.9100948999403,492.2538477999624,None,None,None,None,left,1,0.5683227999834344,491.9803132000379,None,None,None,,,,,,,moiern,001,0,fr,2022-07-08_14h43.02.292,3-AFC_adaptive_staircase_mess,2022.1.1,None,
,,,,,4,0,4,0,17,0,17,0,,,,,,,,,,,,,,,,right,4000,-7.5,3.53972892192069e-05,-1,4,-1,-5.0,496.0914932666967,None,494.04164439998567,494.3738610999426,495.0408557000337,495.37746710004285,496.04250530002173,496.38444419996813,left,0,2.660738299950026,494.11156450002454,None,496.5799579999875,None,,,,,,,moiern,001,0,fr,2022-07-08_14h43.02.292,3-AFC_adaptive_staircase_mess,2022.1.1,None,
,,,,,4,0,4,0,18,0,18,0,,,,,,,,,,,,,,,,up,4000,-5.0,4.720304381429618e-05,1,5,1,2.5,499.32520456664884,None,498.2799800999928,498.59649339993484,499.27600830001757,499.60494310001377,None,None,up,1,1.7104352000169456,498.34963589999825,None,None,None,,,,,,,moiern,001,0,fr,2022-07-08_14h43.02.292,3-AFC_adaptive_staircase_mess,2022.1.1,None,
,,,,,4,0,4,0,19,0,19,0,,,,,,,,,,,,,,,,up,4000,-5.0,4.720304381429618e-05,1,5,1,2.5,502.59830486664237,None,501.5875642000465,501.9167917999439,502.5816381999757,502.9243460999569,None,None,up,1,1.4146146000130102,501.62048409995623,None,None,None,,,,,,,moiern,001,0,fr,2022-07-08_14h43.02.292,3-AFC_adaptive_staircase_mess,2022.1.1,None,
,,,,,4,0,4,0,20,0,20,0,,,,,,,,,,,,,,,,up,4000,-10.0,2.6544222211549425e-05,-1,6,-1,-5.0,505.60798666667347,None,504.55523639998864,504.89026679995004,505.55493260000367,505.86846809997223,506.5561834999826,506.886270100018,right,0,2.5628075000131503,504.6251118000364,None,507.1282943999395,None,,,,,,,moiern,001,0,fr,2022-07-08_14h43.02.292,3-AFC_adaptive_staircase_mess,2022.1.1,None,
,,,,,5,0,5,0,0,0,0,0,,,,,,,,,,,,,[],[],10,right,6000,30,0.003664122665694519,0,0,-1,10,511.54096576670804,None,509.5125110000372,509.83787059993483,510.51400389999617,510.85850560001563,511.5242991000414,511.84337290003896,right,1,2.5241220999741927,509.584602399962,None,512.0837954999879,None,left,0.7660038999747485,508.260882499977,None,508.260882499977,None,moiern,001,0,fr,2022-07-08_14h43.02.292,3-AFC_adaptive_staircase_mess,2022.1.1,None,
,,,,,5,0,5,0,1,0,1,0,,,,,,,,,,,,,,,,up,6000,30,0.003664122665694519,0,0,-1,10,514.7010794666751,None,513.6511884999927,513.9971343999496,514.6500724999933,514.9691830000374,None,None,up,1,1.4119552000192925,513.7198032999877,None,None,None,,,,,,,moiern,001,0,fr,2022-07-08_14h43.02.292,3-AFC_adaptive_staircase_mess,2022.1.1,None,
,,,,,5,0,5,0,2,0,2,0,,,,,,,,,,,,,,,,left,6000,10,0.00036641226656945183,-1,0,-1,-10,516.6860529666922,516.9130723000271,516.6363042000448,516.9787227000343,None,None,None,None,up,0,0.45299729995895177,516.7030046000145,None,None,None,,,,,,,moiern,001,0,fr,2022-07-08_14h43.02.292,3-AFC_adaptive_staircase_mess,2022.1.1,None,
,,,,,5,0,5,0,3,0,3,0,,,,,,,,,,,,,,,,right,6000,15,0.0006515833892261495,1,1,1,5,520.7220953666294,None,518.7053969999542,519.0271918999497,519.6821132999612,520.0062385000056,520.7054286999628,521.0405489000259,right,1,2.4548608000623062,518.7415131999878,None,521.2441743666461,None,,,,,,,moiern,001,0,fr,2022-07-08_14h43.02.292,3-AFC_adaptive_staircase_mess,2022.1.1,None,
,,,,,5,0,5,0,4,0,4,0,,,,,,,,,,,,,,,,up,6000,15,0.0006515833892261495,1,1,1,5,523.8009839666231,None,522.7565481000347,523.1045639000367,523.7843172999565,524.1107234000228,None,None,up,1,1.663014099933207,522.8212002000073,None,None,None,,,,,,,moiern,001,0,fr,2022-07-08_14h43.02.292,3-AFC_adaptive_staircase_mess,2022.1.1,None,
,,,,,5,0,5,0,5,0,5,0,,,,,,,,,,,,,,,,right,6000,5,0.000206048759548665,-1,2,-1,-5.0,528.0292394667088,None,526.036836400046,526.3788660999853,527.0062088000122,527.3330911999801,528.0125728000421,528.3573032999411,right,1,2.3852564999833703,526.0746113000205,None,None,None,,,,,,,moiern,001,0,fr,2022-07-08_14h43.02.292,3-AFC_adaptive_staircase_mess,2022.1.1,None,
,,,,,5,0,5,0,6,0,6,0,,,,,,,,,,,,,,,,left,6000,5,0.000206048759548665,-1,2,-1,-5.0,530.0308975666451,None,530.0142308999784,530.3601391999982,None,None,None,None,left,1,0.8315772000933066,530.0521119999466,None,None,None,,,,,,,moiern,001,0,fr,2022-07-08_14h43.02.292,3-AFC_adaptive_staircase_mess,2022.1.1,None,
,,,,,5,0,5,0,7,0,7,0,,,,,,,,,,,,,,,,up,6000,0.0,0.00011586973249842387,-1,2,-1,-5.0,533.4449541667166,None,532.4316001000116,532.7945201999974,533.4282875000499,533.7714127999498,534.4231862999732,534.7628843999701,right,0,2.6762122999643907,532.4703028999502,None,534.9895101999864,None,,,,,,,moiern,001,0,fr,2022-07-08_14h43.02.292,3-AFC_adaptive_staircase_mess,2022.1.1,None,
,,,,,5,0,5,0,8,0,8,0,,,,,,,,,,,,,,,,up,6000,2.5,0.00015451477162567947,1,3,1,2.5,537.7591911666716,None,536.726041899994,537.0673058000393,537.742524500005,538.0793125999626,None,None,up,1,1.5681412999983877,536.7630831999704,None,None,None,,,,,,,moiern,001,0,fr,2022-07-08_14h43.02.292,3-AFC_adaptive_staircase_mess,2022.1.1,None,
,,,,,5,0,5,0,9,0,9,0,,,,,,,,,,,,,,,,up,6000,2.5,0.00015451477162567947,1,3,1,2.5,540.9156339666263,None,539.8740433000494,540.20818159997,540.8989672999596,541.2420458999695,None,None,up,1,1.337190099991858,539.946476400015,None,None,None,,,,,,,moiern,001,0,fr,2022-07-08_14h43.02.292,3-AFC_adaptive_staircase_mess,2022.1.1,None,
,,,,,5,0,5,0,10,0,10,0,,,,,,,,,,,,,,,,up,6000,-2.5,8.689004143746872e-05,-1,4,-1,-5.0,543.8743224666143,None,542.8512393999845,543.1860203000251,543.8576557999477,544.2070684999926,None,None,up,1,1.302175199962221,542.9253022000194,None,None,None,,,,,,,moiern,001,0,fr,2022-07-08_14h43.02.292,3-AFC_adaptive_staircase_mess,2022.1.1,None,
,,,,,5,0,5,0,11,0,11,0,,,,,,,,,,,,,,,,up,6000,-2.5,8.689004143746872e-05,-1,4,-1,-5.0,546.7960811666601,None,545.7787971999496,546.1250943000196,546.7794144999934,547.1232633000473,None,None,up,1,1.43624449998606,545.815002999967,None,None,None,,,,,,,moiern,001,0,fr,2022-07-08_14h43.02.292,3-AFC_adaptive_staircase_mess,2022.1.1,None,
,,,,,5,0,5,0,12,0,12,0,,,,,,,,,,,,,,,,left,6000,-7.5,4.886186104779051e-05,-1,4,-1,-5.0,548.8362817667114,None,548.8196151000448,549.15671869996,549.8222421000246,550.1608250000281,550.8256174999988,551.1576127000153,left,1,2.42621639999561,548.8566436000401,None,None,None,,,,,,,moiern,001,0,fr,2022-07-08_14h43.02.292,3-AFC_adaptive_staircase_mess,2022.1.1,None,
,,,,,5,0,5,0,13,0,13,0,,,,,,,,,,,,,,,,right,6000,-7.5,4.886186104779051e-05,-1,4,-1,-5.0,554.8798128666278,None,552.8397557999706,553.183563199942,553.825496400008,554.1625744999619,554.8242531999713,555.1706441999413,right,1,4.620482299942523,552.878736600047,None,555.3946140999906,None,,,,,,,moiern,001,0,fr,2022-07-08_14h43.02.292,3-AFC_adaptive_staircase_mess,2022.1.1,None,
,,,,,5,0,5,0,14,0,14,0,,,,,,,,,,,,,,,,left,6000,-12.5,2.7477043692881217e-05,-1,4,-1,-5.0,559.082412766704,None,559.0657461000374,559.400972399977,560.0402610000456,560.3832675999729,561.0636029000161,561.4146395999705,left,1,2.6905269999988377,559.0983710000291,None,561.6025782000506,None,,,,,,,moiern,001,0,fr,2022-07-08_14h43.02.292,3-AFC_adaptive_staircase_mess,2022.1.1,None,
,,,,,5,0,5,0,15,0,15,0,,,,,,,,,,,,,,,,up,6000,-12.5,2.7477043692881217e-05,-1,4,-1,-5.0,564.3281089666455,None,563.3227314000251,563.6704245000146,564.3114422999788,564.6502250999911,565.3127410999732,565.6573783999775,left,0,2.6744058000622317,563.3613080999348,None,565.8799781999551,None,,,,,,,moiern,001,0,fr,2022-07-08_14h43.02.292,3-AFC_adaptive_staircase_mess,2022.1.1,None,
,,,,,5,0,5,0,16,0,16,0,,,,,,,,,,,,,,,,left,6000,-10.0,3.664122665694518e-05,1,5,1,2.5,567.5861062666556,None,567.569439599989,567.9201116999611,568.5594541999744,568.8951432999456,569.5601405999623,569.9068850999465,up,0,2.6267347000539303,567.6089762999909,None,570.0889166999841,None,,,,,,,moiern,001,0,fr,2022-07-08_14h43.02.292,3-AFC_adaptive_staircase_mess,2022.1.1,None,
,,,,,5,0,5,0,17,0,17,0,,,,,,,,,,,,,,,,right,6000,-7.5,4.886186104779051e-05,1,5,1,2.5,573.781798666638,None,571.7669774999376,572.1073361999588,572.7827041000128,573.1261299999896,573.7651319999713,574.10548379994,left,0,2.6386055999901146,571.8046804999467,None,574.2987459000433,None,,,,,,,moiern,001,0,fr,2022-07-08_14h43.02.292,3-AFC_adaptive_staircase_mess,2022.1.1,None,
,,,,,5,0,5,0,18,0,18,0,,,,,,,,,,,,,,,,left,6000,-5.0,6.515833892261494e-05,1,5,1,2.5,576.0341367666299,None,576.0174700999632,576.3621513999533,577.0031206000131,577.3536942000501,577.9890931999544,578.3296195999719,left,1,2.509371199994348,576.0537957999622,None,578.5509801999433,None,,,,,,,moiern,001,0,fr,2022-07-08_14h43.02.292,3-AFC_adaptive_staircase_mess,2022.1.1,None,
,,,,,5,0,5,0,19,0,19,0,,,,,,,,,,,,,,,,up,6000,-5.0,6.515833892261494e-05,1,5,1,2.5,581.1404127666649,None,580.1125294000376,580.4547963000368,581.1237460999982,581.4571108999662,582.1112578000175,582.4484427999705,right,0,3.00431650003884,580.1515703999903,None,582.6750334999524,None,,,,,,,moiern,001,0,fr,2022-07-08_14h43.02.292,3-AFC_adaptive_staircase_mess,2022.1.1,None,
,,,,,5,0,5,0,20,0,20,0,,,,,,,,,,,,,,,,left,6000,-2.5,8.689004143746872e-05,1,5,1,2.5,584.7351352666194,None,584.7184685999528,585.0443394000176,585.7050654999912,586.0423355000094,586.690297299996,587.0220133999828,right,0,3.022070199949667,584.7576056999387,None,587.2472992000403,None,,,,,,,moiern,001,0,fr,2022-07-08_14h43.02.292,3-AFC_adaptive_staircase_mess,2022.1.1,None,
,,,,,5,0,5,0,21,0,21,0,,,,,,,,,,,,,,,,right,6000,0.0,0.00011586973249842387,1,5,1,2.5,591.3624349666682,None,589.3170252999989,589.6474045000505,590.3333846000023,590.6652669999748,591.3457683000015,591.6922261000145,right,1,2.925677499966696,589.3904659999534,None,591.8875082000159,None,,,,,,,moiern,001,0,fr,2022-07-08_14h43.02.292,3-AFC_adaptive_staircase_mess,2022.1.1,None,
,,,,,5,0,5,0,22,0,22,0,,,,,,,,,,,,,,,,left,6000,0.0,0.00011586973249842387,1,5,1,2.5,593.8875116666934,594.1178255999694,593.8708450000267,594.2291262999643,None,None,None,None,left,1,0.7732894000364468,593.9096892999951,None,None,None,,,,,,,moiern,001,0,fr,2022-07-08_14h43.02.292,3-AFC_adaptive_staircase_mess,2022.1.1,None,
,,,,,5,0,5,0,23,0,23,0,,,,,,,,,,,,,,,,up,6000,-5.0,6.515833892261494e-05,-1,6,-1,-5.0,597.2929051666908,None,596.2629228000296,596.6061416999437,597.2762385000242,597.608273299993,598.2711476000259,598.5978227000451,right,0,2.71839519997593,596.3017245000228,None,598.8232914999826,None,,,,,,,moiern,001,0,fr,2022-07-08_14h43.02.292,3-AFC_adaptive_staircase_mess,2022.1.1,None,
,,,,,6,0,6,0,0,0,0,0,,,,,,,,,,,,,[],[],10,left,8000,30,0.005740768107484416,0,0,-1,10,601.4072096666243,None,601.3905429999577,601.738744399976,None,None,None,None,left,1,0.9030264000175521,601.42801709997,None,None,None,right,0.746288999915123,600.145134499995,None,600.145134499995,None,moiern,001,0,fr,2022-07-08_14h43.02.292,3-AFC_adaptive_staircase_mess,2022.1.1,None,
,,,,,6,0,6,0,1,0,1,0,,,,,,,,,,,,,,,,up,8000,30,0.005740768107484416,0,0,-1,10,604.9016351666689,None,603.8983687999425,604.2396071000258,604.8849685000023,605.2202396999346,None,None,up,1,1.249943400034681,603.9372868000064,None,None,None,,,,,,,moiern,001,0,fr,2022-07-08_14h43.02.292,3-AFC_adaptive_staircase_mess,2022.1.1,None,
,,,,,6,0,6,0,2,0,2,0,,,,,,,,,,,,,,,,right,8000,10,0.0005740768107484417,-1,0,-1,-10,608.789623566616,None,606.754198999959,607.0930273999693,607.7556758000283,608.1006500000367,608.7729568999493,609.1127356999787,right,1,2.283636200008914,606.8316530999728,None,None,None,,,,,,,moiern,001,0,fr,2022-07-08_14h43.02.292,3-AFC_adaptive_staircase_mess,2022.1.1,None,
,,,,,6,0,6,0,3,0,3,0,,,,,,,,,,,,,,,,left,8000,10,0.0005740768107484417,-1,0,-1,-10,610.6958396667071,None,610.6791730000405,611.0241287000244,None,None,None,None,left,1,0.42620810004882514,610.721527799964,None,None,None,,,,,,,moiern,001,0,fr,2022-07-08_14h43.02.292,3-AFC_adaptive_staircase_mess,2022.1.1,None,
,,,,,6,0,6,0,4,0,4,0,,,,,,,,,,,,,,,,right,8000,0,0.0001815390273850507,-1,0,-1,-10,614.769114866682,None,612.728469899972,613.0662267999724,613.7240241999971,614.0556802999927,614.7112662999425,615.0456683000084,up,0,2.990146999945864,612.7731267999625,None,615.2930742000462,None,,,,,,,moiern,001,0,fr,2022-07-08_14h43.02.292,3-AFC_adaptive_staircase_mess,2022.1.1,None,
,,,,,6,0,6,0,5,0,5,0,,,,,,,,,,,,,,,,right,8000,5,0.00032282711451732784,1,1,1,5,619.3652122666283,None,617.3373905000044,617.6641309999395,618.3445789000252,618.6674029999413,619.3485455999617,619.6871777999913,right,1,2.3523661999497563,617.3783419999527,None,None,None,,,,,,,moiern,001,0,fr,2022-07-08_14h43.02.292,3-AFC_adaptive_staircase_mess,2022.1.1,None,
,,,,,6,0,6,0,6,0,6,0,,,,,,,,,,,,,,,,right,8000,5,0.00032282711451732784,1,1,1,5,623.3449204667161,None,621.3048259000061,621.6423927999567,622.301300299936,622.6327748999465,623.2872030000435,623.6183628999861,right,1,2.2680569000076503,621.3502953000134,None,None,None,,,,,,,moiern,001,0,fr,2022-07-08_14h43.02.292,3-AFC_adaptive_staircase_mess,2022.1.1,None,
,,,,,6,0,6,0,7,0,7,0,,,,,,,,,,,,,,,,up,8000,-5,0.00010208689723347648,-1,2,-1,-5.0,626.1855337666968,None,625.1397355999798,625.47246119997,626.1248945000116,626.4598999000154,627.1484032999724,627.4860067999689,left,0,2.820719699957408,625.1820921000326,None,627.7061611999525,None,,,,,,,moiern,001,0,fr,2022-07-08_14h43.02.292,3-AFC_adaptive_staircase_mess,2022.1.1,None,
,,,,,6,0,6,0,8,0,8,0,,,,,,,,,,,,,,,,up,8000,-2.5,0.00013613506540389563,1,3,1,2.5,630.5931860666644,None,629.5728560000425,629.9234729999444,630.5765193999978,630.9233536999673,631.5754825000186,631.9199571999488,up,1,2.449527999968268,629.6100580999628,None,632.0841557667047,None,,,,,,,moiern,001,0,fr,2022-07-08_14h43.02.292,3-AFC_adaptive_staircase_mess,2022.1.1,None,
,,,,,6,0,6,0,9,0,9,0,,,,,,,,,,,,,,,,up,8000,-2.5,0.00013613506540389563,1,3,1,2.5,634.6028239667105,None,633.5826121999417,633.9182641999796,634.5861573000439,634.934492600034,635.5816241999855,635.9266064999392,left,0,2.6728816999820992,633.6198169999989,None,636.1536311999662,None,,,,,,,moiern,001,0,fr,2022-07-08_14h43.02.292,3-AFC_adaptive_staircase_mess,2022.1.1,None,
,,,,,6,0,6,0,10,0,10,0,,,,,,,,,,,,,,,,right,8000,0.0,0.0001815390273850507,1,3,1,2.5,639.9015755666808,None,637.8716745999409,638.2196168999653,638.8708736000117,639.2165212000255,639.8450007999782,640.1890122999903,up,0,2.5947683000704274,637.9118676000508,None,640.417776199989,None,,,,,,,moiern,001,0,fr,2022-07-08_14h43.02.292,3-AFC_adaptive_staircase_mess,2022.1.1,None,
,,,,,6,0,6,0,11,0,11,0,,,,,,,,,,,,,,,,left,8000,2.5,0.00024208618379204972,1,3,1,2.5,642.088625266628,None,642.0719585999614,642.4110899999505,643.0495830000145,None,None,None,left,1,1.145913299988024,642.1069942000322,None,None,None,,,,,,,moiern,001,0,fr,2022-07-08_14h43.02.292,3-AFC_adaptive_staircase_mess,2022.1.1,None,
,,,,,6,0,6,0,12,0,12,0,,,,,,,,,,,,,,,,left,8000,2.5,0.00024208618379204972,1,3,1,2.5,644.8479334666083,None,644.8312667999417,645.1731541999616,None,None,None,None,left,1,0.4339733000379056,644.8726008000085,None,None,None,,,,,,,moiern,001,0,fr,2022-07-08_14h43.02.292,3-AFC_adaptive_staircase_mess,2022.1.1,None,
,,,,,6,0,6,0,13,0,13,0,,,,,,,,,,,,,,,,right,8000,-2.5,0.00013613506540389563,-1,4,-1,-5.0,648.8855518666717,None,646.8779241000302,647.2263424999546,647.8739572999766,648.2203155000461,648.868885200005,649.2138102999888,left,0,2.639792099944316,646.9165508999722,None,649.4024728999939,None,,,,,,,moiern,001,0,fr,2022-07-08_14h43.02.292,3-AFC_adaptive_staircase_mess,2022.1.1,None,
,,,,,6,0,6,0,14,0,14,0,,,,,,,,,,,,,,,,right,8000,0.0,0.0001815390273850507,1,5,1,2.5,653.1155284667077,None,651.0850742999464,651.4269353999989,652.0813662,652.4189956999617,653.0611162999412,653.4083884999854,right,1,2.431162799941376,651.1253572000423,None,None,None,,,,,,,moiern,001,0,fr,2022-07-08_14h43.02.292,3-AFC_adaptive_staircase_mess,2022.1.1,None,
,,,,,6,0,6,0,15,0,15,0,,,,,,,,,,,,,,,,right,8000,0.0,0.0001815390273850507,1,5,1,2.5,657.1014962666125,None,655.0839831000194,655.4333860999905,656.0671346000163,656.4109667999437,657.0848295999458,657.4233093999792,right,1,2.5873185000382364,655.119557900005,None,657.6518668000354,None,,,,,,,moiern,001,0,fr,2022-07-08_14h43.02.292,3-AFC_adaptive_staircase_mess,2022.1.1,None,
,,,,,6,0,6,0,16,0,16,0,,,,,,,,,,,,,,,,left,8000,-5.0,0.00010208689723347648,-1,6,-1,-5.0,659.2715393666333,None,659.2548726999667,659.5861451999517,660.2387483000057,660.5716178000439,661.2312910000328,661.5616107999813,up,0,2.7448439000872895,659.2898653999437,None,661.7894842999522,None,,,,,,,moiern,001,0,fr,2022-07-08_14h43.02.292,3-AFC_adaptive_staircase_mess,2022.1.1,None,
,,,,,7,0,7,0,0,0,0,0,,,,,,,,,,,,,[],[],10,up,750,30,0.0012851978913844323,0,0,-1,10,665.3600374666896,None,664.342269100016,664.6905708999839,665.343370800023,665.6789654999739,None,None,up,1,1.547563000000082,664.3754536999622,None,None,None,left,0.726423199987039,663.1251585000427,None,663.1251585000427,None,moiern,001,0,fr,2022-07-08_14h43.02.292,3-AFC_adaptive_staircase_mess,2022.1.1,None,
,,,,,7,0,7,0,1,0,1,0,,,,,,,,,,,,,,,,left,750,30,0.0012851978913844323,0,0,-1,10,667.5448964666032,None,667.4866665999871,667.8348852000199,None,None,None,None,left,1,0.6440087000373751,667.5676794999745,None,None,None,,,,,,,moiern,001,0,fr,2022-07-08_14h43.02.292,3-AFC_adaptive_staircase_mess,2022.1.1,None,
,,,,,7,0,7,0,2,0,2,0,,,,,,,,,,,,,,,,right,750,10,0.00012851978913844324,-1,0,-1,-10,671.783896366662,None,669.7520320999902,670.0855511999689,670.7572120999685,671.1062178999418,671.7316567000234,672.0456083000172,right,1,2.263633199967444,669.7877139999764,None,None,None,,,,,,,moiern,001,0,fr,2022-07-08_14h43.02.292,3-AFC_adaptive_staircase_mess,2022.1.1,None,
,,,,,7,0,7,0,3,0,3,0,,,,,,,,,,,,,,,,left,750,10,0.00012851978913844324,-1,0,-1,-10,673.637341466678,None,673.6206748000113,673.9684300000081,674.6247974999715,674.9459466999397,675.6139340000227,675.9522096000146,left,1,3.0489720000186935,673.6587696999777,None,676.1688995000441,None,,,,,,,moiern,001,0,fr,2022-07-08_14h43.02.292,3-AFC_adaptive_staircase_mess,2022.1.1,None,
,,,,,7,0,7,0,4,0,4,0,,,,,,,,,,,,,,,,right,750,0,4.064152580820497e-05,-1,0,-1,-10,680.2622606666448,None,678.2371083999751,678.5615633999696,679.2257545000175,679.564366400009,680.2455939999782,680.5741669000126,right,1,2.379107099957764,678.2732201999752,None,None,None,,,,,,,moiern,001,0,fr,2022-07-08_14h43.02.292,3-AFC_adaptive_staircase_mess,2022.1.1,None,
,,,,,7,0,7,0,5,0,5,0,,,,,,,,,,,,,,,,right,750,0,4.064152580820497e-05,-1,0,-1,-10,684.2024416666866,None,682.178450300009,682.502472299966,683.1631355000427,683.4908784000436,684.1486112000421,684.4790996999945,right,1,2.4010550000239164,682.2101224999642,None,None,None,,,,,,,moiern,001,0,fr,2022-07-08_14h43.02.292,3-AFC_adaptive_staircase_mess,2022.1.1,None,
,,,,,7,0,7,0,6,0,6,0,,,,,,,,,,,,,,,,right,750,-10,1.2851978913844322e-05,-1,0,-1,-10,688.1820304666801,688.4056723000249,686.1506686999928,686.5051494999789,687.1232334999368,687.4423745999811,688.1328139000107,688.4692975999787,left,0,2.655607599997893,686.1872961999616,None,688.6764618000016,None,,,,,,,moiern,001,0,fr,2022-07-08_14h43.02.292,3-AFC_adaptive_staircase_mess,2022.1.1,None,
,,,,,7,0,7,0,7,0,7,0,,,,,,,,,,,,,,,,right,750,-5,2.285440948074376e-05,1,1,1,5,692.4202303667009,None,690.3863533999538,690.7259057000047,691.3903044000035,691.730619900045,692.4035637000343,692.7343838999514,right,1,2.3441262000706047,690.4590056999587,None,None,None,,,,,,,moiern,001,0,fr,2022-07-08_14h43.02.292,3-AFC_adaptive_staircase_mess,2022.1.1,None,
,,,,,7,0,7,0,8,0,8,0,,,,,,,,,,,,,,,,up,750,-5,2.285440948074376e-05,1,1,1,5,695.3518753667051,None,694.3173335000174,694.6515294000274,695.3352087000385,695.6513291000156,696.3322503999807,696.6751402999507,up,1,2.8577953999629244,694.3854693999747,None,696.8830007000361,None,,,,,,,moiern,001,0,fr,2022-07-08_14h43.02.292,3-AFC_adaptive_staircase_mess,2022.1.1,None,
,,,,,7,0,7,0,9,0,9,0,,,,,,,,,,,,,,,,right,750,-15,7.22719885372964e-06,-1,2,-1,-5.0,700.791215166628,None,698.7697467999533,699.1094041999895,699.7770751999924,700.1070752999512,700.7745484999614,701.1242195999948,right,1,2.580727000022307,698.8380730999634,None,701.3287744999398,None,,,,,,,moiern,001,0,fr,2022-07-08_14h43.02.292,3-AFC_adaptive_staircase_mess,2022.1.1,None,
,,,,,7,0,7,0,10,0,10,0,,,,,,,,,,,,,,,,up,750,-15,7.22719885372964e-06,-1,2,-1,-5.0,703.9644907666991,None,702.9382117999485,703.2804035999579,703.9478241000324,704.2944382999558,704.9324555000057,705.2625576000428,up,1,2.946209199959412,703.0086463999469,None,705.4962943999562,None,,,,,,,moiern,001,0,fr,2022-07-08_14h43.02.292,3-AFC_adaptive_staircase_mess,2022.1.1,None,
,,,,,7,0,7,0,11,0,11,0,,,,,,,,,,,,,,,,up,750,-20.0,4.0641525808204974e-06,-1,2,-1,-5.0,708.5219553666577,None,707.5120258999523,707.8359047999838,708.5052886999911,708.8282323000021,709.51389870001,709.8390758000314,left,0,2.9975894999224693,707.5511157000437,None,710.0605945000425,None,,,,,,,moiern,001,0,fr,2022-07-08_14h43.02.292,3-AFC_adaptive_staircase_mess,2022.1.1,None,
,,,,,7,0,7,0,12,0,12,0,,,,,,,,,,,,,,,,left,750,-17.5,5.419634570106019e-06,1,3,1,2.5,712.1209704667019,None,712.0717626999831,712.3887213999406,713.0932002000045,713.4109850999666,714.0870346999727,714.4072717999807,right,0,2.9682724999729544,712.1390639999881,None,714.6251813999843,None,,,,,,,moiern,001,0,fr,2022-07-08_14h43.02.292,3-AFC_adaptive_staircase_mess,2022.1.1,None,
,,,,,7,0,7,0,13,0,13,0,,,,,,,,,,,,,,,,up,750,-15.0,7.22719885372964e-06,1,3,1,2.5,717.6704470666048,None,716.644396699965,716.9642083999934,717.6175883000251,717.9421885999618,718.6273688999936,718.9715460999869,left,0,2.946487299981527,716.6805105999811,None,719.1815656999825,None,,,,,,,moiern,001,0,fr,2022-07-08_14h43.02.292,3-AFC_adaptive_staircase_mess,2022.1.1,None,
,,,,,7,0,7,0,14,0,14,0,,,,,,,,,,,,,,,,left,750,-12.5,9.637624565954684e-06,1,3,1,2.5,721.1886247667173,None,721.1356117000105,721.4830229999498,722.1424694999587,722.4810531999683,723.153163400013,723.4947454000358,left,1,2.605083999922499,721.2061597999418,None,723.7042800999479,None,,,,,,,moiern,001,0,fr,2022-07-08_14h43.02.292,3-AFC_adaptive_staircase_mess,2022.1.1,None,
,,,,,7,0,7,0,15,0,15,0,,,,,,,,,,,,,,,,up,750,-12.5,9.637624565954684e-06,1,3,1,2.5,726.3889636666902,None,725.3666138999397,725.6881376999663,726.3722970000235,726.6930556000443,727.3539463999914,727.6862771000015,right,0,2.6716883000917733,725.4030308999354,None,727.9169706000248,None,,,,,,,moiern,001,0,fr,2022-07-08_14h43.02.292,3-AFC_adaptive_staircase_mess,2022.1.1,None,
,,,,,7,0,7,0,16,0,16,0,,,,,,,,,,,,,,,,up,750,-10.0,1.2851978913844322e-05,1,3,1,2.5,730.6270182666524,None,729.5934559999732,729.9327480000211,730.6103515999857,730.9291339999763,731.6086617000401,731.9489650999894,left,0,2.6397613000590354,729.6606165999547,None,732.1519162999466,None,,,,,,,moiern,001,0,fr,2022-07-08_14h43.02.292,3-AFC_adaptive_staircase_mess,2022.1.1,None,
,,,,,7,0,7,0,17,0,17,0,,,,,,,,,,,,,,,,left,750,-7.5,1.7138389327322525e-05,1,3,1,2.5,733.8522776666252,None,733.8356109999586,734.1885253000073,734.8320186999626,735.1788087999448,735.8191986000165,736.1627032000106,up,0,2.5892169000580907,733.8702513000462,None,736.3685979000293,None,,,,,,,moiern,001,0,fr,2022-07-08_14h43.02.292,3-AFC_adaptive_staircase_mess,2022.1.1,None,
,,,,,7,0,7,0,18,0,18,0,,,,,,,,,,,,,,,,right,750,-5.0,2.285440948074376e-05,1,3,1,2.5,740.0398784666943,None,737.9924342000159,738.3440825999714,738.9925827999832,739.3383227000013,739.9888573000208,740.3127664000494,right,1,2.640025999979116,738.0272451000055,None,740.5573873999529,None,,,,,,,moiern,001,0,fr,2022-07-08_14h43.02.292,3-AFC_adaptive_staircase_mess,2022.1.1,None,
,,,,,7,0,7,0,19,0,19,0,,,,,,,,,,,,,,,,left,750,-5.0,2.285440948074376e-05,1,3,1,2.5,742.2152315666356,None,742.1985648999689,742.525703900028,743.1853530999506,743.5232808999717,744.1751217000419,744.5241049999604,left,1,3.161377099924721,742.2333863000385,None,744.7313522000331,None,,,,,,,moiern,001,0,fr,2022-07-08_14h43.02.292,3-AFC_adaptive_staircase_mess,2022.1.1,None,
,,,,,7,0,7,0,20,0,20,0,,,,,,,,,,,,,,,,left,750,-10.0,1.2851978913844322e-05,-1,4,-1,-5.0,746.9707059666437,None,746.9184187999927,747.2643320000498,747.9484593999805,748.2907126999926,748.9238037000177,749.266970800003,left,1,2.647908900049515,746.9870009999722,None,749.468327700044,None,,,,,,,moiern,001,0,fr,2022-07-08_14h43.02.292,3-AFC_adaptive_staircase_mess,2022.1.1,None,
,,,,,7,0,7,0,21,0,21,0,,,,,,,,,,,,,,,,right,750,-10.0,1.2851978913844322e-05,-1,4,-1,-5.0,753.2140526666228,None,751.1597979000071,751.499055000022,752.1579107999569,752.4952914000023,753.1666945000179,753.4871541999746,left,0,3.02031429996714,751.2318962999852,None,753.7294443999417,None,,,,,,,moiern,001,0,fr,2022-07-08_14h43.02.292,3-AFC_adaptive_staircase_mess,2022.1.1,None,
,,,,,7,0,7,0,22,0,22,0,,,,,,,,,,,,,,,,left,750,-7.5,1.7138389327322525e-05,1,5,1,2.5,755.8038647666729,None,755.7871981000062,756.1355097000487,756.769146900042,757.099862699979,757.7995077000232,758.1344108999474,left,1,3.7799989000195637,755.8223856999539,None,758.3512145000277,None,,,,,,,moiern,001,0,fr,2022-07-08_14h43.02.292,3-AFC_adaptive_staircase_mess,2022.1.1,None,
,,,,,7,0,7,0,23,0,23,0,,,,,,,,,,,,,,,,up,750,-7.5,1.7138389327322525e-05,1,5,1,2.5,762.1854428667032,762.4121657999931,761.1561902000103,761.4937088999432,762.1687762000365,762.5080274000065,763.1651996000437,763.4994160999777,left,0,2.9553554999874905,761.1912057000445,None,763.7026706000324,None,,,,,,,moiern,001,0,fr,2022-07-08_14h43.02.292,3-AFC_adaptive_staircase_mess,2022.1.1,None,
,,,,,7,0,7,0,24,0,24,0,,,,,,,,,,,,,,,,right,750,-5.0,2.285440948074376e-05,1,5,1,2.5,767.7034428666268,None,765.6813150999369,766.023049899959,766.6686018999899,767.0192084000446,767.6867761999601,768.0074649000308,up,0,3.4088369000237435,765.714882100001,None,768.2210447000107,None,,,,,,,moiern,001,0,fr,2022-07-08_14h43.02.292,3-AFC_adaptive_staircase_mess,2022.1.1,None,
,,,,,7,0,7,0,25,0,25,0,,,,,,,,,,,,,,,,left,750,-2.5,3.0476844862008466e-05,1,5,1,2.5,770.7281006666055,None,770.6766413999721,771.0231356000295,771.681058099959,772.0192429999588,772.6802482999628,773.0140426999424,left,1,2.9369632999878377,770.7457681000233,None,773.2144773999462,None,,,,,,,moiern,001,0,fr,2022-07-08_14h43.02.292,3-AFC_adaptive_staircase_mess,2022.1.1,None,
,,,,,7,0,7,0,26,0,26,0,,,,,,,,,,,,,,,,left,750,-2.5,3.0476844862008466e-05,1,5,1,2.5,775.2928228666462,None,775.24239150004,775.5911066000117,None,None,None,None,left,1,0.6849254000699148,775.3105975999497,None,None,None,,,,,,,moiern,001,0,fr,2022-07-08_14h43.02.292,3-AFC_adaptive_staircase_mess,2022.1.1,None,
,,,,,7,0,7,0,27,0,27,0,,,,,,,,,,,,,,,,up,750,-7.5,1.7138389327322525e-05,-1,6,-1,-5.0,778.5926701666942,None,777.5365613000467,777.87206720002,778.5401932999957,778.8434506000485,779.5551619000034,779.8928370999638,up,1,2.486797699937597,777.6045966999372,None,780.0970335999737,None,,,,,,,moiern,001,0,fr,2022-07-08_14h43.02.292,3-AFC_adaptive_staircase_mess,2022.1.1,None,
,,,,,8,0,8,0,0,0,0,0,,,,,,,,,,,,,[],[],10,up,500,30,0.002259279721874612,0,0,-1,10,783.3739473666685,None,782.3297586999834,782.6681989999488,783.3572807000019,783.6970457000425,None,None,up,1,1.5389652999583632,782.4000955999363,None,None,None,left,0.6478766000363976,781.187596200034,None,781.187596200034,None,moiern,001,0,fr,2022-07-08_14h43.02.292,3-AFC_adaptive_staircase_mess,2022.1.1,None,
,,,,,8,0,8,0,1,0,1,0,,,,,,,,,,,,,,,,left,500,30,0.002259279721874612,0,0,-1,10,785.4928913666556,None,785.476224699989,785.8001120999688,None,None,None,None,left,1,0.5333219000604004,785.5102295000106,None,None,None,,,,,,,moiern,001,0,fr,2022-07-08_14h43.02.292,3-AFC_adaptive_staircase_mess,2022.1.1,None,
,,,,,8,0,8,0,2,0,2,0,,,,,,,,,,,,,,,,left,500,10,0.0002259279721874612,-1,0,-1,-10,787.6210036666055,None,787.5667791999876,787.9058475999627,None,None,None,None,left,1,0.348357200040482,787.6385593999876,None,None,None,,,,,,,moiern,001,0,fr,2022-07-08_14h43.02.292,3-AFC_adaptive_staircase_mess,2022.1.1,None,
,,,,,8,0,8,0,3,0,3,0,,,,,,,,,,,,,,,,up,500,10,0.0002259279721874612,-1,0,-1,-10,790.5602108666828,790.7891504999716,789.5054230999667,789.8446661999915,790.5088602999458,790.8544765999541,None,None,up,1,1.4046552000800148,789.5747499000281,None,None,None,,,,,,,moiern,001,0,fr,2022-07-08_14h43.02.292,3-AFC_adaptive_staircase_mess,2022.1.1,None,
,,,,,8,0,8,0,4,0,4,0,,,,,,,,,,,,,,,,right,500,0,7.144469792555515e-05,-1,0,-1,-10,794.5307939666711,None,792.4970641999971,792.8352611999726,793.4956552999793,793.8337571000447,794.5141273000045,None,right,1,2.244598099961877,792.5667398000369,None,None,None,,,,,,,moiern,001,0,fr,2022-07-08_14h43.02.292,3-AFC_adaptive_staircase_mess,2022.1.1,None,
,,,,,8,0,8,0,5,0,5,0,,,,,,,,,,,,,,,,left,500,0,7.144469792555515e-05,-1,0,-1,-10,796.3735903666277,None,796.3230956000043,796.6447133000474,None,None,None,None,left,1,0.48408480000216514,796.3906805999577,None,None,None,,,,,,,moiern,001,0,fr,2022-07-08_14h43.02.292,3-AFC_adaptive_staircase_mess,2022.1.1,None,
,,,,,8,0,8,0,6,0,6,0,,,,,,,,,,,,,,,,right,500,-10,2.259279721874613e-05,-1,0,-1,-10,800.4393396666894,800.6661472000415,798.4110055000056,798.7491351000499,799.4162524000276,799.7483144999715,800.3886069,800.7279840999981,up,0,2.8015469999518245,798.4424403000157,None,800.9578359000152,None,,,,,,,moiern,001,0,fr,2022-07-08_14h43.02.292,3-AFC_adaptive_staircase_mess,2022.1.1,None,
,,,,,8,0,8,0,7,0,7,0,,,,,,,,,,,,,,,,left,500,-5,4.017630610928089e-05,1,1,1,5,802.8383461667147,None,802.7847944999812,803.1121673999587,803.7945379000157,None,None,None,left,1,1.0649813999189064,802.8583096000366,None,None,None,,,,,,,moiern,001,0,fr,2022-07-08_14h43.02.292,3-AFC_adaptive_staircase_mess,2022.1.1,None,
,,,,,8,0,8,0,8,0,8,0,,,,,,,,,,,,,,,,right,500,-5,4.017630610928089e-05,1,1,1,5,807.4758072666048,None,805.4243152999552,805.7603501999984,806.436733599985,806.7741646999493,807.4214917999925,807.7555600999622,up,0,2.9120569999795407,805.4909232000355,None,807.9670159999514,None,,,,,,,moiern,001,0,fr,2022-07-08_14h43.02.292,3-AFC_adaptive_staircase_mess,2022.1.1,None,
,,,,,8,0,8,0,9,0,9,0,,,,,,,,,,,,,,,,up,500,0,7.144469792555515e-05,1,1,1,5,810.9604461666352,None,809.9249762999825,810.2425105000148,810.9437794999685,811.2737688999623,811.9412147999974,812.2585070000496,left,0,2.622715500066988,809.9959569999482,None,812.5060059999814,None,,,,,,,moiern,001,0,fr,2022-07-08_14h43.02.292,3-AFC_adaptive_staircase_mess,2022.1.1,None,
,,,,,8,0,8,0,10,0,10,0,,,,,,,,,,,,,,,,left,500,5,0.00012704863527746526,1,1,1,5,814.1856293666099,None,814.1329573999392,814.4557422000216,815.1390799999936,815.4853268000297,816.1363022000296,816.4860647999449,right,0,2.6648411999922246,814.2027244999772,None,816.68941979995,None,,,,,,,moiern,001,0,fr,2022-07-08_14h43.02.292,3-AFC_adaptive_staircase_mess,2022.1.1,None,
,,,,,8,0,8,0,11,0,11,0,,,,,,,,,,,,,,,,up,500,10,0.0002259279721874612,1,1,1,5,819.4232263666966,None,818.3830736000091,818.7136805000482,819.4065597000299,819.7296083000256,None,None,up,1,1.7545416000066325,818.4568647999549,None,None,None,,,,,,,moiern,001,0,fr,2022-07-08_14h43.02.292,3-AFC_adaptive_staircase_mess,2022.1.1,None,
,,,,,8,0,8,0,12,0,12,0,,,,,,,,,,,,,,,,left,500,10,0.0002259279721874612,1,1,1,5,821.7688519666592,None,821.718019300024,822.0397102000425,None,None,None,None,left,1,0.599994899937883,821.7881169000175,None,None,None,,,,,,,moiern,001,0,fr,2022-07-08_14h43.02.292,3-AFC_adaptive_staircase_mess,2022.1.1,None,
,,,,,8,0,8,0,13,0,13,0,,,,,,,,,,,,,,,,right,500,0,7.144469792555515e-05,-1,2,-1,-5.0,825.9652205666682,826.1921297999797,823.9167223999975,824.2604621000355,824.9427589999977,825.2835427999962,825.9135911000194,826.2548456999939,right,1,2.473803799948655,823.9853407000192,None,826.4952707999619,None,,,,,,,moiern,001,0,fr,2022-07-08_14h43.02.292,3-AFC_adaptive_staircase_mess,2022.1.1,None,
,,,,,8,0,8,0,14,0,14,0,,,,,,,,,,,,,,,,right,500,0,7.144469792555515e-05,-1,2,-1,-5.0,830.0471729667081,830.2773686000146,828.010274500004,828.3527464999352,829.017570200027,829.3640343999723,830.0305063000415,830.3467668000376,right,1,2.4675840999698266,828.0791814000113,None,830.5519451999571,None,,,,,,,moiern,001,0,fr,2022-07-08_14h43.02.292,3-AFC_adaptive_staircase_mess,2022.1.1,None,
,,,,,8,0,8,0,15,0,15,0,,,,,,,,,,,,,,,,left,500,-5.0,4.017630610928089e-05,-1,2,-1,-5.0,832.0880365666856,None,832.0713699000189,832.3900428999914,None,None,None,None,left,1,0.5606074000243098,832.1065287999809,None,None,None,,,,,,,moiern,001,0,fr,2022-07-08_14h43.02.292,3-AFC_adaptive_staircase_mess,2022.1.1,None,
,,,,,8,0,8,0,16,0,16,0,,,,,,,,,,,,,,,,left,500,-5.0,4.017630610928089e-05,-1,2,-1,-5.0,834.2392899667068,None,834.2226233000401,834.539615000016,835.2115995000349,835.5500293000368,836.2205884000286,836.553619000013,right,0,2.538671000045724,834.2568983000237,None,836.7548982000444,None,,,,,,,moiern,001,0,fr,2022-07-08_14h43.02.292,3-AFC_adaptive_staircase_mess,2022.1.1,None,
,,,,,8,0,8,0,17,0,17,0,,,,,,,,,,,,,,,,right,500,-2.5,5.357596526188033e-05,1,3,1,2.5,840.3851596667121,None,838.3354762999807,838.6540403999388,839.3529137000442,839.6699656000128,840.3336891999934,840.6549380000215,right,1,2.371063700062223,838.4086121999426,None,None,None,,,,,,,moiern,001,0,fr,2022-07-08_14h43.02.292,3-AFC_adaptive_staircase_mess,2022.1.1,None,
,,,,,8,0,8,0,18,0,18,0,,,,,,,,,,,,,,,,up,500,-2.5,5.357596526188033e-05,1,3,1,2.5,843.3234239667111,None,842.3113052999834,842.6503982000286,843.3067573000444,843.6230290000094,None,None,up,1,1.682269399985671,842.3455419000238,None,None,None,,,,,,,moiern,001,0,fr,2022-07-08_14h43.02.292,3-AFC_adaptive_staircase_mess,2022.1.1,None,
,,,,,8,0,8,0,19,0,19,0,,,,,,,,,,,,,,,,up,500,-7.5,3.0127979303717903e-05,-1,4,-1,-5.0,846.5851972666026,846.8142237999709,845.5444255999755,845.8726893999847,846.5685305999359,846.9059170000255,847.547405899968,847.8811498000287,up,1,2.471332099987194,845.6123203999596,None,848.1165226999437,None,,,,,,,moiern,001,0,fr,2022-07-08_14h43.02.292,3-AFC_adaptive_staircase_mess,2022.1.1,None,
,,,,,8,0,8,0,20,0,20,0,,,,,,,,,,,,,,,,right,500,-7.5,3.0127979303717903e-05,-1,4,-1,-5.0,851.672023266616,None,849.6313880999805,849.96946199995,850.6423611999489,850.9810635000467,851.6553565999493,852.0001844000071,right,1,2.553305699955672,849.6981713999994,None,852.2045032000169,None,,,,,,,moiern,001,0,fr,2022-07-08_14h43.02.292,3-AFC_adaptive_staircase_mess,2022.1.1,None,
,,,,,8,0,8,0,21,0,21,0,,,,,,,,,,,,,,,,left,500,-12.5,1.6942207806960138e-05,-1,4,-1,-5.0,853.7863266666575,None,853.7696599999908,854.1195078999735,854.7801802000031,855.1294250999345,855.7757393999491,856.1122688000323,up,0,2.978833300061524,853.8077288999921,None,856.321163799963,None,,,,,,,moiern,001,0,fr,2022-07-08_14h43.02.292,3-AFC_adaptive_staircase_mess,2022.1.1,None,
,,,,,8,0,8,0,22,0,22,0,,,,,,,,,,,,,,,,right,500,-10.0,2.259279721874613e-05,1,5,1,2.5,860.361753266716,860.5932323000161,858.3102301999461,858.6425404000329,859.3122525999788,859.6473472999642,860.3136630000081,860.6554180999519,right,1,2.538188899983652,858.3764168999624,None,860.8552583999699,None,,,,,,,moiern,001,0,fr,2022-07-08_14h43.02.292,3-AFC_adaptive_staircase_mess,2022.1.1,None,
,,,,,8,0,8,0,23,0,23,0,,,,,,,,,,,,,,,,up,500,-10.0,2.259279721874613e-05,1,5,1,2.5,863.4761698666882,863.7009137000423,862.4432196000125,862.7823130999459,863.4262910999823,863.7650554999709,864.4494987999788,864.7887781000463,left,0,2.7391817000461742,862.4798013999825,None,864.9838174999459,None,,,,,,,moiern,001,0,fr,2022-07-08_14h43.02.292,3-AFC_adaptive_staircase_mess,2022.1.1,None,
,,,,,8,0,8,0,24,0,24,0,,,,,,,,,,,,,,,,up,500,-7.5,3.0127979303717903e-05,1,5,1,2.5,867.7692870667126,None,866.7487821000395,867.0833539000014,867.752620400046,868.0932827000506,868.7572467999998,869.0929632999469,left,0,2.73840370005928,866.7848430000013,None,869.2947236000327,None,,,,,,,moiern,001,0,fr,2022-07-08_14h43.02.292,3-AFC_adaptive_staircase_mess,2022.1.1,None,
,,,,,8,0,8,0,25,0,25,0,,,,,,,,,,,,,,,,right,500,-5.0,4.017630610928089e-05,1,5,1,2.5,873.0791941666432,None,871.04048960004,871.3752621000167,872.069437899976,872.4066923999926,873.0625274999766,873.4078481999459,right,1,2.415215899934992,871.1078615000006,None,None,None,,,,,,,moiern,001,0,fr,2022-07-08_14h43.02.292,3-AFC_adaptive_staircase_mess,2022.1.1,None,
,,,,,8,0,8,0,26,0,26,0,,,,,,,,,,,,,,,,right,500,-5.0,4.017630610928089e-05,1,5,1,2.5,877.0750036666325,None,875.0276317000389,875.3599892000202,876.0509799999418,876.403977500042,877.0583369999658,877.3903121999465,up,0,3.396897199912928,875.0947810999351,None,877.5995120999869,None,,,,,,,moiern,001,0,fr,2022-07-08_14h43.02.292,3-AFC_adaptive_staircase_mess,2022.1.1,None,
,,,,,8,0,8,0,27,0,27,0,,,,,,,,,,,,,,,,up,500,-2.5,5.357596526188033e-05,1,5,1,2.5,881.059047766674,None,880.0215825999621,880.362398599973,881.0423811000073,881.3596771999728,882.0373313999735,882.3830174000468,up,1,3.369827299960889,880.0898235000204,None,882.5868041999638,None,,,,,,,moiern,001,0,fr,2022-07-08_14h43.02.292,3-AFC_adaptive_staircase_mess,2022.1.1,None,
,,,,,8,0,8,0,28,0,28,0,,,,,,,,,,,,,,,,left,500,-2.5,5.357596526188033e-05,1,5,1,2.5,885.0078460666739,None,884.9911794000072,885.3415062000277,885.9675931000384,886.3138083999511,886.9786668999586,887.3129752000095,up,0,3.1001275000162423,885.0227702000411,None,887.5414042000193,None,,,,,,,moiern,001,0,fr,2022-07-08_14h43.02.292,3-AFC_adaptive_staircase_mess,2022.1.1,None,
,,,,,8,0,8,0,29,0,29,0,,,,,,,,,,,,,,,,up,500,0.0,7.144469792555515e-05,1,5,1,2.5,890.7134167666702,None,889.6580743000377,889.9902919000015,890.6633941000327,890.9909714999376,891.6680702000158,891.9995795999421,up,1,2.3259975000983104,889.7249929000391,None,None,None,,,,,,,moiern,001,0,fr,2022-07-08_14h43.02.292,3-AFC_adaptive_staircase_mess,2022.1.1,None,
,,,,,8,0,8,0,30,0,30,0,,,,,,,,,,,,,,,,right,500,0.0,7.144469792555515e-05,1,5,1,2.5,895.6081214666522,None,893.5897289999994,893.923874799977,894.6018367999932,894.9233532999642,895.5914547999855,895.9273806000128,right,1,2.340392699930817,893.6316789999837,None,None,None,,,,,,,moiern,001,0,fr,2022-07-08_14h43.02.292,3-AFC_adaptive_staircase_mess,2022.1.1,None,
,,,,,8,0,8,0,31,0,31,0,,,,,,,,,,,,,,,,left,500,-5.0,4.017630610928089e-05,-1,6,-1,-5.0,897.5351461666326,None,897.5184794999659,897.8406190000242,898.5371492999839,898.8738416000269,899.5175244000275,899.862194999936,left,1,2.808533599949442,897.5470819999464,None,900.0718818999594,None,,,,,,,moiern,001,0,fr,2022-07-08_14h43.02.292,3-AFC_adaptive_staircase_mess,2022.1.1,None,
,,,,,9,0,9,0,0,0,0,0,,,,,,,,,,,,,[],[],10,left,250,30,0.005296268625886445,0,0,-1,10,912.5763311666126,None,912.5234459999483,912.8499779000413,None,None,None,None,left,1,0.6745626999763772,912.5935000999598,None,None,None,up,10.578546300064772,901.44164059998,None,901.44164059998,None,moiern,001,0,fr,2022-07-08_14h43.02.292,3-AFC_adaptive_staircase_mess,2022.1.1,None,
,,,,,9,0,9,0,1,0,1,0,,,,,,,,,,,,,,,,up,250,30,0.005296268625886445,0,0,-1,10,915.831758566612,None,914.8155113999965,915.1572843999602,915.8150918999454,None,None,None,up,1,1.2377149999374524,914.8532122999895,None,None,None,,,,,,,moiern,001,0,fr,2022-07-08_14h43.02.292,3-AFC_adaptive_staircase_mess,2022.1.1,None,
,,,,,9,0,9,0,2,0,2,0,,,,,,,,,,,,,,,,up,250,10,0.0005296268625886444,-1,0,-1,-10,918.6796350666011,None,917.6428138000192,917.9843179000309,918.6272385000484,918.9648234000197,None,None,up,1,1.3185717000160366,917.6767145999474,None,None,None,,,,,,,moiern,001,0,fr,2022-07-08_14h43.02.292,3-AFC_adaptive_staircase_mess,2022.1.1,None,
,,,,,9,0,9,0,3,0,3,0,,,,,,,,,,,,,,,,left,250,10,0.0005296268625886444,-1,0,-1,-10,920.5825558666295,None,920.5658891999628,920.9173039000016,None,None,None,None,left,1,0.5349503000034019,920.6047980999574,None,None,None,,,,,,,moiern,001,0,fr,2022-07-08_14h43.02.292,3-AFC_adaptive_staircase_mess,2022.1.1,None,
,,,,,9,0,9,0,4,0,4,0,,,,,,,,,,,,,,,,right,250,0,0.0001674827195789138,-1,0,-1,-10,924.6815945666206,None,922.6665147000458,923.0016009999672,923.6752277000342,924.0077127999393,924.6649278999539,925.0009250999428,right,1,2.6143627000274137,922.7014232999645,None,925.2181678999914,None,,,,,,,moiern,001,0,fr,2022-07-08_14h43.02.292,3-AFC_adaptive_staircase_mess,2022.1.1,None,
,,,,,9,0,9,0,5,0,5,0,,,,,,,,,,,,,,,,left,250,0,0.0001674827195789138,-1,0,-1,-10,926.8760483666013,None,926.8593816999346,927.1920420000097,None,None,None,None,left,1,0.48181600007228553,926.8974036000436,None,None,None,,,,,,,moiern,001,0,fr,2022-07-08_14h43.02.292,3-AFC_adaptive_staircase_mess,2022.1.1,None,
,,,,,9,0,9,0,6,0,6,0,,,,,,,,,,,,,,,,up,250,-10,5.296268625886443e-05,-1,0,-1,-10,929.9653473667024,None,928.9388550999574,929.2804898000322,929.9486807000358,930.2906294999411,930.9426858000224,931.2718679000391,left,0,2.3823278000345454,929.0137450000038,None,None,None,,,,,,,moiern,001,0,fr,2022-07-08_14h43.02.292,3-AFC_adaptive_staircase_mess,2022.1.1,None,
,,,,,9,0,9,0,7,0,7,0,,,,,,,,,,,,,,,,left,250,-5,9.418245447449e-05,1,1,1,5,932.9393575667093,933.1694301000098,932.9226909000427,933.2403251000214,933.9364337000297,934.2735610000091,934.9084399000276,935.2440760999452,left,1,2.6173525999765843,932.9534907999914,None,935.4773943000473,None,,,,,,,moiern,001,0,fr,2022-07-08_14h43.02.292,3-AFC_adaptive_staircase_mess,2022.1.1,None,
,,,,,9,0,9,0,8,0,8,0,,,,,,,,,,,,,,,,right,250,-5,9.418245447449e-05,1,1,1,5,939.1203971666439,None,937.0885741999373,937.426119599957,938.0769725999562,938.422193699982,939.1037304999772,939.448550799978,right,1,2.4559842000016943,937.1228952000383,None,None,None,,,,,,,moiern,001,0,fr,2022-07-08_14h43.02.292,3-AFC_adaptive_staircase_mess,2022.1.1,None,
,,,,,9,0,9,0,9,0,9,0,,,,,,,,,,,,,,,,right,250,-15,2.9783107176450517e-05,-1,2,-1,-5.0,943.1387791666823,None,941.1032054999378,941.4420956999529,942.1219795000507,942.4696172999684,943.1221125000156,943.4389737000456,left,0,2.6191585999913514,941.1689755000407,None,943.6463081999682,None,,,,,,,moiern,001,0,fr,2022-07-08_14h43.02.292,3-AFC_adaptive_staircase_mess,2022.1.1,None,
,,,,,9,0,9,0,10,0,10,0,,,,,,,,,,,,,,,,up,250,-12.5,3.971641173621407e-05,1,3,1,2.5,946.3397965666993,None,945.3183455000399,945.660250499961,946.3231299000327,946.6426803000504,947.3306858999422,947.6770724999951,left,0,2.6673456999706104,945.3517186000245,None,947.8821930999402,None,,,,,,,moiern,001,0,fr,2022-07-08_14h43.02.292,3-AFC_adaptive_staircase_mess,2022.1.1,None,
,,,,,9,0,9,0,11,0,11,0,,,,,,,,,,,,,,,,left,250,-10.0,5.296268625886443e-05,1,3,1,2.5,949.5983547666731,None,949.548009900027,949.9004616000457,950.5514225999359,950.8946388999466,951.5587868000148,951.9010612999555,right,0,2.476271999999881,949.6149524999782,None,952.104424500023,None,,,,,,,moiern,001,0,fr,2022-07-08_14h43.02.292,3-AFC_adaptive_staircase_mess,2022.1.1,None,
,,,,,9,0,9,0,12,0,12,0,,,,,,,,,,,,,,,,left,250,-7.5,7.06268772311377e-05,1,3,1,2.5,953.6544608666484,None,953.6038297000341,953.9248595000245,954.6298881999683,954.9754899999825,955.626123999944,955.9684676999459,up,0,2.5282000999432057,953.6743382000132,None,956.1431316999951,None,,,,,,,moiern,001,0,fr,2022-07-08_14h43.02.292,3-AFC_adaptive_staircase_mess,2022.1.1,None,
,,,,,9,0,9,0,13,0,13,0,,,,,,,,,,,,,,,,right,250,-5.0,9.418245447449e-05,1,3,1,2.5,959.7851729666038,None,957.7307333999779,958.080534299952,958.7493411999894,959.0882239999482,959.7344774999656,960.049993099994,right,1,2.5216733999550343,957.8016452000011,None,960.2891258000163,None,,,,,,,moiern,001,0,fr,2022-07-08_14h43.02.292,3-AFC_adaptive_staircase_mess,2022.1.1,None,
,,,,,9,0,9,0,14,0,14,0,,,,,,,,,,,,,,,,left,250,-5.0,9.418245447449e-05,1,3,1,2.5,961.8570862666859,None,961.8404196000192,962.1737233999884,None,None,None,None,left,1,0.5101320999674499,961.8765800000401,None,None,None,,,,,,,moiern,001,0,fr,2022-07-08_14h43.02.292,3-AFC_adaptive_staircase_mess,2022.1.1,None,
,,,,,9,0,9,0,15,0,15,0,,,,,,,,,,,,,,,,right,250,-10.0,5.296268625886443e-05,-1,4,-1,-5.0,965.9520647666106,None,963.9382998000365,964.2851871999446,964.9371216000291,965.2881924000103,965.935398099944,966.2564145999495,left,0,3.198019800009206,963.973001300008,None,966.4916857000208,None,,,,,,,moiern,001,0,fr,2022-07-08_14h43.02.292,3-AFC_adaptive_staircase_mess,2022.1.1,None,
,,,,,9,0,9,0,16,0,16,0,,,,,,,,,,,,,,,,right,250,-7.5,7.06268772311377e-05,1,5,1,2.5,970.7642979666746,None,968.7358279000036,969.081705300021,969.7340949999634,970.0512414999539,970.7476313000079,971.0953594000312,right,1,2.4809647001093253,968.7702492999379,None,971.2822804666978,None,,,,,,,moiern,001,0,fr,2022-07-08_14h43.02.292,3-AFC_adaptive_staircase_mess,2022.1.1,None,
,,,,,9,0,9,0,17,0,17,0,,,,,,,,,,,,,,,,left,250,-7.5,7.06268772311377e-05,1,5,1,2.5,972.8069597666074,None,972.7902930999408,973.1084508999484,973.7751732999459,974.1190066999989,974.7879943000153,975.1279530000174,left,1,2.6666105000767857,972.8244217999745,None,975.3334937000182,None,,,,,,,moiern,001,0,fr,2022-07-08_14h43.02.292,3-AFC_adaptive_staircase_mess,2022.1.1,None,
,,,,,9,0,9,0,18,0,18,0,,,,,,,,,,,,,,,,right,250,-12.5,3.971641173621407e-05,-1,6,-1,-5.0,979.0589977666425,None,976.9980514999479,977.3316565999994,978.025678499951,978.3590787999565,979.0085650000256,979.3538230999839,right,1,3.098165500094183,977.0649947000202,None,979.5576858000131,None,,,,,,,moiern,001,0,fr,2022-07-08_14h43.02.292,3-AFC_adaptive_staircase_mess,2022.1.1,None,
,,,,,10,0,10,0,0,0,0,0,,,,,,,,,,,,,[],[],10,right,125,30,0.02285440948074376,0,0,-1,10,985.3453787667133,None,983.3061687999871,983.6339014000259,984.3060358000221,984.6307455999777,985.2949559999397,985.6063563999487,right,1,2.4684895999962464,983.3747888000216,None,985.8451237999834,None,left,1.5781570000108331,981.2247602000134,None,981.2247602000134,None,moiern,001,0,fr,2022-07-08_14h43.02.292,3-AFC_adaptive_staircase_mess,2022.1.1,None,
,,,,,10,0,10,0,1,0,1,0,,,,,,,,,,,,,,,,up,125,30,0.02285440948074376,0,0,-1,10,988.3749805666196,None,987.3434967000503,987.6793444999494,988.3583138999529,988.6803652000381,None,None,up,1,1.5508553000399843,987.4123637999874,None,None,None,,,,,,,moiern,001,0,fr,2022-07-08_14h43.02.292,3-AFC_adaptive_staircase_mess,2022.1.1,None,
,,,,,10,0,10,0,2,0,2,0,,,,,,,,,,,,,,,,up,125,10,0.002285440948074376,-1,0,-1,-10,991.5455873666253,None,990.49898569996,990.8331800999586,991.4968839000212,991.8464316000463,None,None,up,1,1.442671800032258,990.5688452000031,None,None,None,,,,,,,moiern,001,0,fr,2022-07-08_14h43.02.292,3-AFC_adaptive_staircase_mess,2022.1.1,None,
,,,,,10,0,10,0,3,0,3,0,,,,,,,,,,,,,,,,up,125,10,0.002285440948074376,-1,0,-1,-10,994.567334866679,None,993.533792900038,993.8767960999394,994.5506682000123,994.8987017000327,None,None,up,1,1.409596599987708,993.6013196000131,None,None,None,,,,,,,moiern,001,0,fr,2022-07-08_14h43.02.292,3-AFC_adaptive_staircase_mess,2022.1.1,None,
,,,,,10,0,10,0,4,0,4,0,,,,,,,,,,,,,,,,right,125,0,0.000722719885372964,-1,0,-1,-10,998.5961216666658,None,996.5512334000086,996.8882194999605,997.558840499958,997.9023982000072,998.5444724999834,998.8580070999451,right,1,2.600228999974206,996.5868512999732,None,999.0948604999576,None,,,,,,,moiern,001,0,fr,2022-07-08_14h43.02.292,3-AFC_adaptive_staircase_mess,2022.1.1,None,
,,,,,10,0,10,0,5,0,5,0,,,,,,,,,,,,,,,,left,125,0,0.000722719885372964,-1,0,-1,-10,1000.7190465666974,None,1000.7023799000308,1001.0211230999557,None,None,None,None,left,1,0.5839014999801293,1000.7391918000067,None,None,None,,,,,,,moiern,001,0,fr,2022-07-08_14h43.02.292,3-AFC_adaptive_staircase_mess,2022.1.1,None,
,,,,,10,0,10,0,6,0,6,0,,,,,,,,,,,,,,,,right,125,-10,0.0002285440948074376,-1,0,-1,-10,None,None,1002.8294407000067,1003.1646566999843,None,None,None,None,left,0,0.7021428000880405,1002.8934945999645,None,None,None,,,,,,,moiern,001,0,fr,2022-07-08_14h43.02.292,3-AFC_adaptive_staircase_mess,2022.1.1,None,
,,,,,10,0,10,0,7,0,7,0,,,,,,,,,,,,,,,,right,125,-5,0.00040641525808204974,1,1,1,5,1007.1953167666836,None,1005.1555392999435,1005.5045867000008,1006.1635889000027,1006.4823910000268,1007.1410485999659,1007.4644579000305,right,1,2.4490734999999404,1005.1933978999732,None,1007.6797851666963,None,,,,,,,moiern,001,0,fr,2022-07-08_14h43.02.292,3-AFC_adaptive_staircase_mess,2022.1.1,None,
,,,,,10,0,10,0,8,0,8,0,,,,,,,,,,,,,,,,left,125,-5,0.00040641525808204974,1,1,1,5,1009.1999156666609,None,1009.1832489999942,1009.5198110999772,1010.1809507999569,1010.5173523999983,1011.1798783999402,1011.5179806000087,left,1,2.5580684000160545,1009.2207119000377,None,1011.7228247999446,None,,,,,,,moiern,001,0,fr,2022-07-08_14h43.02.292,3-AFC_adaptive_staircase_mess,2022.1.1,None,
,,,,,10,0,10,0,9,0,9,0,,,,,,,,,,,,,,,,left,125,-15,0.00012851978913844324,-1,2,-1,-5.0,1013.3336969667037,None,1013.317030300037,1013.6668485000264,1014.3121032000054,1014.6594904999947,1015.3053239999572,1015.6492253999459,left,1,2.523256800021045,1013.3519208999351,None,1015.8634880000027,None,,,,,,,moiern,001,0,fr,2022-07-08_14h43.02.292,3-AFC_adaptive_staircase_mess,2022.1.1,None,
,,,,,10,0,10,0,10,0,10,0,,,,,,,,,,,,,,,,right,125,-15,0.00012851978913844324,-1,2,-1,-5.0,1019.4324801666119,None,1017.4120060999412,1017.7503939999733,1018.3957517000381,1018.7376049000304,1019.4158134999452,1019.7648598999949,up,0,2.8640156999463215,1017.4434964000247,None,1019.9646557000233,None,,,,,,,moiern,001,0,fr,2022-07-08_14h43.02.292,3-AFC_adaptive_staircase_mess,2022.1.1,None,
,,,,,10,0,10,0,11,0,11,0,,,,,,,,,,,,,,,,up,125,-12.5,0.00017138389327322524,1,3,1,2.5,1022.854961166686,None,1021.8346128000412,1022.1819968000054,1022.8382945000194,1023.1898905000417,1023.8088992999401,1024.1426381999627,left,0,2.788444699952379,1021.869926400017,None,1024.3744195000036,None,,,,,,,moiern,001,0,fr,2022-07-08_14h43.02.292,3-AFC_adaptive_staircase_mess,2022.1.1,None,
,,,,,10,0,10,0,12,0,12,0,,,,,,,,,,,,,,,,left,125,-10.0,0.0002285440948074376,1,3,1,2.5,1026.2346060666644,None,1026.2179393999977,1026.567965599941,1027.2351515999762,1027.5857014999492,1028.209166900022,1028.54977459996,left,1,2.4277818999253213,1026.2545668999664,None,None,None,,,,,,,moiern,001,0,fr,2022-07-08_14h43.02.292,3-AFC_adaptive_staircase_mess,2022.1.1,None,
,,,,,10,0,10,0,13,0,13,0,,,,,,,,,,,,,,,,right,125,-10.0,0.0002285440948074376,1,3,1,2.5,1032.2437142666352,None,1030.2100241000298,1030.547952099936,1031.1927484000335,1031.5242705999408,1032.190907399985,1032.5381279999856,left,0,2.815200899960473,1030.2436296000378,None,1032.7343829999445,None,,,,,,,moiern,001,0,fr,2022-07-08_14h43.02.292,3-AFC_adaptive_staircase_mess,2022.1.1,None,
,,,,,10,0,10,0,14,0,14,0,,,,,,,,,,,,,,,,up,125,-7.5,0.0003047684486200847,1,3,1,2.5,1035.616207966643,None,1034.5998212000122,1034.9312394999433,1035.5995412999764,1035.9453915000195,1036.5833346999716,1036.9272426000098,left,0,2.514862100011669,1034.6328856999753,None,1037.135219699936,None,,,,,,,moiern,001,0,fr,2022-07-08_14h43.02.292,3-AFC_adaptive_staircase_mess,2022.1.1,None,
,,,,,10,0,10,0,15,0,15,0,,,,,,,,,,,,,,,,right,125,-5.0,0.00040641525808204974,1,3,1,2.5,1040.7342975666436,None,1038.699800399947,1039.0504210999934,1039.712343799998,1040.031293499982,1040.6854847000213,1041.0088296999456,right,1,3.155983299948275,1038.7351033999585,None,1041.2366299999412,None,,,,,,,moiern,001,0,fr,2022-07-08_14h43.02.292,3-AFC_adaptive_staircase_mess,2022.1.1,None,
,,,,,10,0,10,0,16,0,16,0,,,,,,,,,,,,,,,,right,125,-5.0,0.00040641525808204974,1,3,1,2.5,1045.46124706668,None,1043.403593200026,1043.7322704000399,1044.4255777000217,1044.7441296000034,1045.4064147999743,1045.7406785000348,up,0,2.7498937998898327,1043.4694855000125,None,1045.9613967000041,None,,,,,,,moiern,001,0,fr,2022-07-08_14h43.02.292,3-AFC_adaptive_staircase_mess,2022.1.1,None,
,,,,,10,0,10,0,17,0,17,0,,,,,,,,,,,,,,,,up,125,-2.5,0.000541963457010602,1,3,1,2.5,1048.7749878666984,None,1047.7470192000037,1048.0825058999471,1048.7583212000318,1049.0912666999502,1049.7424720999552,None,up,1,2.1006367000518367,1047.7820303000044,None,None,None,,,,,,,moiern,001,0,fr,2022-07-08_14h43.02.292,3-AFC_adaptive_staircase_mess,2022.1.1,None,
,,,,,10,0,10,0,18,0,18,0,,,,,,,,,,,,,,,,left,125,-2.5,0.000541963457010602,1,3,1,2.5,1051.4619818666872,None,1051.4453152000206,1051.8023275999585,None,None,None,None,left,1,0.6141160000115633,1051.4844357999973,None,None,None,,,,,,,moiern,001,0,fr,2022-07-08_14h43.02.292,3-AFC_adaptive_staircase_mess,2022.1.1,None,
,,,,,10,0,10,0,19,0,19,0,,,,,,,,,,,,,,,,left,125,-7.5,0.0003047684486200847,-1,4,-1,-5.0,1053.693855066613,None,1053.6379774999805,1053.9564553999808,1054.6319713999983,1054.966021399945,1055.6544060000451,1055.976557899965,left,1,2.5379800000227988,1053.720902799978,None,1056.2043065000325,None,,,,,,,moiern,001,0,fr,2022-07-08_14h43.02.292,3-AFC_adaptive_staircase_mess,2022.1.1,None,
,,,,,10,0,10,0,20,0,20,0,,,,,,,,,,,,,,,,up,125,-7.5,0.0003047684486200847,-1,4,-1,-5.0,1058.827935466605,1059.0561172999442,1057.7691153000342,1058.1008609000128,1058.7777564999415,1059.1176299999934,1059.7750182000455,1060.1081594999414,left,0,2.8041534000076354,1057.8387231000233,None,1060.339293399942,None,,,,,,,moiern,001,0,fr,2022-07-08_14h43.02.292,3-AFC_adaptive_staircase_mess,2022.1.1,None,
,,,,,10,0,10,0,21,0,21,0,,,,,,,,,,,,,,,,right,125,-5.0,0.00040641525808204974,1,5,1,2.5,1064.2328274666254,None,1062.1745816000039,1062.5129117999459,1063.1898873000173,1063.5072189000202,1064.1727897999808,1064.4907051000046,right,1,2.52610740007367,1062.237061599968,None,1064.7206450999947,None,,,,,,,moiern,001,0,fr,2022-07-08_14h43.02.292,3-AFC_adaptive_staircase_mess,2022.1.1,None,
,,,,,10,0,10,0,22,0,22,0,,,,,,,,,,,,,,,,right,125,-5.0,0.00040641525808204974,1,5,1,2.5,1068.3346000667118,None,1066.29090979998,1066.614306399948,1067.3129033000441,1067.6471840000013,1068.3179334000451,1068.6566076000454,right,1,2.3900880999863148,1066.357022000011,None,None,None,,,,,,,moiern,001,0,fr,2022-07-08_14h43.02.292,3-AFC_adaptive_staircase_mess,2022.1.1,None,
,,,,,10,0,10,0,23,0,23,0,,,,,,,,,,,,,,,,right,125,-10.0,0.0002285440948074376,-1,6,-1,-5.0,1072.299950366669,1072.5194653000217,1070.2506492999382,1070.582749699941,1071.2540729000466,1071.5838174000382,1072.248473500018,1072.5873983999481,right,1,2.82055639999453,1070.317971499986,None,1072.824073099997,None,,,,,,,moiern,001,0,fr,2022-07-08_14h43.02.292,3-AFC_adaptive_staircase_mess,2022.1.1,None,
,,,,,,,,,,,,,,,,,,,,,,,,,,,,,,,,,,,,,,,,,,,,,,,,,,,left,0.8969788000686094,1074.225487299962,None,1074.225487299962,None,,,,,,,,,
