practice.thisRepN,practice.thisTrialN,practice.thisN,practice.thisIndex,trials.thisRepN,trials.thisTrialN,trials.thisN,trials.thisIndex,blank_txt.started,blank_txt.stopped,practice_frequency,practice_level,psychopy_volume,tProbe.started,tProbe.stopped,tFeedback.keys,tFeedback.corr,tFeedback.rt,tFeedback.started,tFeedback.stopped,tToo_early.keys,tToo_early.corr,tToo_early.started,tToo_early.stopped,tToo_late.keys,tToo_late.corr,tToo_late.started,tToo_late.stopped,you_done_goofed.started,you_done_goofed.stopped,Init_phase,Frequency,Level,Psychopy_Volume,Catch trial,probe.started,probe.stopped,feedback.keys,feedback.corr,feedback.rt,feedback.started,feedback.stopped,too_late.keys,too_late.corr,too_late.started,too_late.stopped,too_late.rt,Audiogram,participant,session,Language (english or french),Tone duration (ms),date,expName,psychopyVersion,frameRate,
0,0,0,0,,,,,118.25433180015534,None,567,40,0.006099267302654233,1.008614566642791,None,['space'],1,[0.6191011001355946],120.29193900013342,121.30993850016966,None,1,119.2808933001943,120.29193900013342,None,1,121.30993850016966,None,122.34513760008849,None,,,,,,,,,,,,,,,,,,,nunamh,001,fr,200,2022-05-17_10h25.30.254,Bayesian,2022.1.1,None,
1,0,1,0,,,,,,,234,40,0.019882976039061955,0.9992431665305048,None,['space'],1,[0.388311899965629],126.0513691001106,127.0692926000338,None,1,125.06630380009301,126.06216830015182,None,1,127.0692926000338,None,128.08620720007457,None,,,,,,,,,,,,,,,,,,,nunamh,001,fr,200,2022-05-17_10h25.30.254,Bayesian,2022.1.1,None,
2,0,2,0,,,,,,,2345,40,0.008245949202640053,1.0032212666701525,None,['space'],1,[0.5194759001024067],130.3358995001763,131.34181620017625,None,1,129.32749280007556,130.3564838001039,None,1,131.34181620017625,None,132.37530030007474,None,,,,,,,,,,,,,,,,,,,nunamh,001,fr,200,2022-05-17_10h25.30.254,Bayesian,2022.1.1,None,
,,,,0,0,0,0,139.544080800144,None,,,,,,,,,,,,,,,,,,,,,"{'x': [], 'y': [], 'is_init_phase': True, 'is_exam_finished': False, 'threshold_uncertainty_db': 6}",1000,60,0.0440524436504007,False,0.011745200026780367,None,['space'],1,[0.37699979986064136],140.62344880006276,141.6471970002167,None,1,141.6471970002167,None,,,nunamh,001,fr,200,2022-05-17_10h25.30.254,Bayesian,2022.1.1,None,
,,,,1,0,1,0,,,,,,,,,,,,,,,,,,,,,,,"{'x': [[1000, 60]], 'y': [[1]], 'audiogram': {}, 'is_init_phase': True, 'is_exam_finished': False, 'threshold_uncertainty_db': 6}",1000,40,0.004405244365040069,False,0.0086817666888237,None,['space'],1,[0.016016799956560135],144.59915660019033,145.6182051000651,None,1,145.6182051000651,144.59915660019033,,,nunamh,001,fr,200,2022-05-17_10h25.30.254,Bayesian,2022.1.1,None,
,,,,2,0,2,0,,,,,,,,,,,,,,,,,,,,,,,"{'x': [[1000, 60], [1000, 40]], 'y': [[1], [1]], 'audiogram': {}, 'is_init_phase': True, 'is_exam_finished': False, 'threshold_uncertainty_db': 6}",1000,20,0.0004405244365040069,False,0.007211500080302358,None,['space'],1,[0.30206639994867146],148.0577547000721,149.0685459000524,None,1,149.0685459000524,148.0577547000721,,,nunamh,001,fr,200,2022-05-17_10h25.30.254,Bayesian,2022.1.1,None,
,,,,3,0,3,0,,,,,,,,,,,,,,,,,,,,,,,"{'x': [[1000, 60], [1000, 40], [1000, 20]], 'y': [[1], [1], [1]], 'audiogram': {}, 'is_init_phase': True, 'is_exam_finished': False, 'threshold_uncertainty_db': 6}",1000,0,4.405244365040069e-05,False,0.013513300102204084,None,None,0,,150.17354760016315,151.17895920015872,None,1,151.17895920015872,150.17354760016315,,,nunamh,001,fr,200,2022-05-17_10h25.30.254,Bayesian,2022.1.1,None,
,,,,4,0,4,0,,,,,,,,,,,,,,,,,,,,,,,"{'x': [[1000, 60], [1000, 40], [1000, 20], [1000, 0]], 'y': [[1], [1], [1], [-1]], 'audiogram': {}, 'is_init_phase': True, 'is_exam_finished': False, 'threshold_uncertainty_db': 6}",1500,10,0.0001527460556607757,False,0.007104799849912524,None,['space'],1,[0.6737406998872757],153.68492590007372,154.70889720018022,None,1,154.70889720018022,153.68492590007372,,,nunamh,001,fr,200,2022-05-17_10h25.30.254,Bayesian,2022.1.1,None,
,,,,5,0,5,0,,,,,,,,,,,,,,,,,,,,,,,"{'x': [[1000, 60], [1000, 40], [1000, 20], [1000, 0], [1500, 10]], 'y': [[1], [1], [1], [-1], [1]], 'audiogram': {}, 'is_init_phase': True, 'is_exam_finished': False, 'threshold_uncertainty_db': 6}",1500,-10,1.527460556607758e-05,False,0.012175500160083175,None,None,0,,156.08140860009007,157.08772710012272,None,1,157.08772710012272,156.08140860009007,,,nunamh,001,fr,200,2022-05-17_10h25.30.254,Bayesian,2022.1.1,None,
,,,,6,0,6,0,,,,,,,,,,,,,,,,,,,,,,,"{'x': [[1000, 60], [1000, 40], [1000, 20], [1000, 0], [1500, 10], [1500, -10]], 'y': [[1], [1], [1], [-1], [1], [-1]], 'audiogram': {}, 'is_init_phase': True, 'is_exam_finished': False, 'threshold_uncertainty_db': 6}",,,,True,0.012137333396822214,None,None,0,,159.83195650018752,160.82993340003304,None,1,160.82993340003304,159.83195650018752,,,nunamh,001,fr,200,2022-05-17_10h25.30.254,Bayesian,2022.1.1,None,
,,,,7,0,7,0,,,,,,,,,,,,,,,,,,,,,,,"{'x': [[1000, 60], [1000, 40], [1000, 20], [1000, 0], [1500, 10], [1500, -10]], 'y': [[1], [1], [1], [-1], [1], [-1]], 'audiogram': {}, 'is_init_phase': True, 'is_exam_finished': False, 'threshold_uncertainty_db': 6}",2000,10,0.00023657562948074026,False,0.012633200036361814,None,['space'],1,[0.42403270001523197],162.8869571001269,163.90339640015736,None,1,163.90339640015736,162.8869571001269,,,nunamh,001,fr,200,2022-05-17_10h25.30.254,Bayesian,2022.1.1,None,
,,,,8,0,8,0,,,,,,,,,,,,,,,,,,,,,,,"{'x': [[1000, 60], [1000, 40], [1000, 20], [1000, 0], [1500, 10], [1500, -10], [2000, 10]], 'y': [[1], [1], [1], [-1], [1], [-1], [1]], 'audiogram': {}, 'is_init_phase': True, 'is_exam_finished': False, 'threshold_uncertainty_db': 6}",2000,-10,2.3657562948074015e-05,False,0.007139499997720122,None,None,0,,166.9645633001346,167.98971990006976,None,1,167.98971990006976,166.9645633001346,,,nunamh,001,fr,200,2022-05-17_10h25.30.254,Bayesian,2022.1.1,None,
,,,,9,0,9,0,,,,,,,,,,,,,,,,,,,,,,,"{'x': [[1000, 60], [1000, 40], [1000, 20], [1000, 0], [1500, 10], [1500, -10], [2000, 10], [2000, -10]], 'y': [[1], [1], [1], [-1], [1], [-1], [1], [-1]], 'audiogram': {}, 'is_init_phase': True, 'is_exam_finished': False, 'threshold_uncertainty_db': 6}",3000,10,0.00017336842522626576,False,0.015087400330230594,None,['space'],1,[0.399003499886021],170.75969910016283,171.76617310009897,None,1,171.76617310009897,170.75969910016283,,,nunamh,001,fr,200,2022-05-17_10h25.30.254,Bayesian,2022.1.1,None,
,,,,10,0,10,0,,,,,,,,,,,,,,,,,,,,,,,"{'x': [[1000, 60], [1000, 40], [1000, 20], [1000, 0], [1500, 10], [1500, -10], [2000, 10], [2000, -10], [3000, 10]], 'y': [[1], [1], [1], [-1], [1], [-1], [1], [-1], [1]], 'audiogram': {}, 'is_init_phase': True, 'is_exam_finished': False, 'threshold_uncertainty_db': 6}",3000,-10,1.7336842522626584e-05,False,0.015448300167918205,None,None,0,,174.77200140012428,175.78222190006636,None,1,175.78222190006636,174.77200140012428,,,nunamh,001,fr,200,2022-05-17_10h25.30.254,Bayesian,2022.1.1,None,
,,,,11,0,11,0,,,,,,,,,,,,,,,,,,,,,,,"{'x': [[1000, 60], [1000, 40], [1000, 20], [1000, 0], [1500, 10], [1500, -10], [2000, 10], [2000, -10], [3000, 10], [3000, -10]], 'y': [[1], [1], [1], [-1], [1], [-1], [1], [-1], [1], [-1]], 'audiogram': {}, 'is_init_phase': True, 'is_exam_finished': False, 'threshold_uncertainty_db': 6}",4000,10,0.00026544222211549425,False,0.00277670007199049,None,['space'],1,[0.36642450001090765],178.5125881000422,179.51813070010394,None,1,179.51813070010394,178.5125881000422,,,nunamh,001,fr,200,2022-05-17_10h25.30.254,Bayesian,2022.1.1,None,
,,,,12,0,12,0,,,,,,,,,,,,,,,,,,,,,,,"{'x': [[1000, 60], [1000, 40], [1000, 20], [1000, 0], [1500, 10], [1500, -10], [2000, 10], [2000, -10], [3000, 10], [3000, -10], [4000, 10]], 'y': [[1], [1], [1], [-1], [1], [-1], [1], [-1], [1], [-1], [1]], 'audiogram': {}, 'is_init_phase': True, 'is_exam_finished': False, 'threshold_uncertainty_db': 6}",4000,-10,2.6544222211549425e-05,False,0.007218100130558014,None,['space'],1,[0.6308036001864821],182.48052660003304,183.48973460006528,None,1,183.48973460006528,182.48052660003304,,,nunamh,001,fr,200,2022-05-17_10h25.30.254,Bayesian,2022.1.1,None,
,,,,13,0,13,0,,,,,,,,,,,,,,,,,,,,,,,"{'x': [[1000, 60], [1000, 40], [1000, 20], [1000, 0], [1500, 10], [1500, -10], [2000, 10], [2000, -10], [3000, 10], [3000, -10], [4000, 10], [4000, -10]], 'y': [[1], [1], [1], [-1], [1], [-1], [1], [-1], [1], [-1], [1], [1]], 'audiogram': {}, 'is_init_phase': True, 'is_exam_finished': False, 'threshold_uncertainty_db': 6}",6000,-10,3.664122665694518e-05,False,0.010870900005102158,None,['space'],1,[0.40110279992222786],186.2136182000395,187.22715120017529,None,1,187.22715120017529,186.2136182000395,,,nunamh,001,fr,200,2022-05-17_10h25.30.254,Bayesian,2022.1.1,None,
,,,,14,0,14,0,,,,,,,,,,,,,,,,,,,,,,,"{'x': [[1000, 60], [1000, 40], [1000, 20], [1000, 0], [1500, 10], [1500, -10], [2000, 10], [2000, -10], [3000, 10], [3000, -10], [4000, 10], [4000, -10], [6000, -10]], 'y': [[1], [1], [1], [-1], [1], [-1], [1], [-1], [1], [-1], [1], [1], [1]], 'audiogram': {}, 'is_init_phase': True, 'is_exam_finished': False, 'threshold_uncertainty_db': 6}",8000,-10,5.740768107484415e-05,False,0.01034080027602613,None,['space'],1,[0.4552219999022782],189.7844013001304,190.7923155000899,None,1,190.7923155000899,189.7844013001304,,,nunamh,001,fr,200,2022-05-17_10h25.30.254,Bayesian,2022.1.1,None,
,,,,15,0,15,0,,,,,,,,,,,,,,,,,,,,,,,"{'x': [[1000, 60], [1000, 40], [1000, 20], [1000, 0], [1500, 10], [1500, -10], [2000, 10], [2000, -10], [3000, 10], [3000, -10], [4000, 10], [4000, -10], [6000, -10], [8000, -10]], 'y': [[1], [1], [1], [-1], [1], [-1], [1], [-1], [1], [-1], [1], [1], [1], [1]], 'audiogram': {}, 'is_init_phase': True, 'is_exam_finished': False, 'threshold_uncertainty_db': 6}",,,,True,0.015103533398360014,None,None,0,,192.31566820014268,193.33376020006835,None,1,193.33376020006835,192.31566820014268,,,nunamh,001,fr,200,2022-05-17_10h25.30.254,Bayesian,2022.1.1,None,
,,,,16,0,16,0,,,,,,,,,,,,,,,,,,,,,,,"{'x': [[1000, 60], [1000, 40], [1000, 20], [1000, 0], [1500, 10], [1500, -10], [2000, 10], [2000, -10], [3000, 10], [3000, -10], [4000, 10], [4000, -10], [6000, -10], [8000, -10]], 'y': [[1], [1], [1], [-1], [1], [-1], [1], [-1], [1], [-1], [1], [1], [1], [1]], 'audiogram': {}, 'is_init_phase': True, 'is_exam_finished': False, 'threshold_uncertainty_db': 6}",750,10,0.00012851978913844324,False,0.015240699984133244,None,['space'],1,[0.3347759998869151],195.3938312001992,196.40235270000994,None,1,196.40235270000994,195.3938312001992,,,nunamh,001,fr,200,2022-05-17_10h25.30.254,Bayesian,2022.1.1,None,
,,,,17,0,17,0,,,,,,,,,,,,,,,,,,,,,,,"{'x': [[1000, 60], [1000, 40], [1000, 20], [1000, 0], [1500, 10], [1500, -10], [2000, 10], [2000, -10], [3000, 10], [3000, -10], [4000, 10], [4000, -10], [6000, -10], [8000, -10], [750, 10]], 'y': [[1], [1], [1], [-1], [1], [-1], [1], [-1], [1], [-1], [1], [1], [1], [1], [1]], 'audiogram': {}, 'is_init_phase': True, 'is_exam_finished': False, 'threshold_uncertainty_db': 6}",750,-10,1.2851978913844322e-05,False,0.010634400183334947,None,None,0,,198.21927870018408,199.23915620008484,None,1,199.23915620008484,198.21927870018408,,,nunamh,001,fr,200,2022-05-17_10h25.30.254,Bayesian,2022.1.1,None,
,,,,18,0,18,0,,,,,,,,,,,,,,,,,,,,,,,"{'x': [[1000, 60], [1000, 40], [1000, 20], [1000, 0], [1500, 10], [1500, -10], [2000, 10], [2000, -10], [3000, 10], [3000, -10], [4000, 10], [4000, -10], [6000, -10], [8000, -10], [750, 10], [750, -10]], 'y': [[1], [1], [1], [-1], [1], [-1], [1], [-1], [1], [-1], [1], [1], [1], [1], [1], [-1]], 'audiogram': {}, 'is_init_phase': True, 'is_exam_finished': False, 'threshold_uncertainty_db': 6}",500,10,0.0002259279721874612,False,0.011492500081658363,None,['space'],1,[0.35292190010659397],201.6385200000368,202.66468899999745,None,1,202.66468899999745,201.6385200000368,,,nunamh,001,fr,200,2022-05-17_10h25.30.254,Bayesian,2022.1.1,None,
,,,,19,0,19,0,,,,,,,,,,,,,,,,,,,,,,,"{'x': [[1000, 60], [1000, 40], [1000, 20], [1000, 0], [1500, 10], [1500, -10], [2000, 10], [2000, -10], [3000, 10], [3000, -10], [4000, 10], [4000, -10], [6000, -10], [8000, -10], [750, 10], [750, -10], [500, 10]], 'y': [[1], [1], [1], [-1], [1], [-1], [1], [-1], [1], [-1], [1], [1], [1], [1], [1], [-1], [1]], 'audiogram': {}, 'is_init_phase': True, 'is_exam_finished': False, 'threshold_uncertainty_db': 6}",500,-10,2.259279721874613e-05,False,0.006056200247257948,None,None,0,,203.88055450003594,204.87855410017073,None,1,204.87855410017073,203.88055450003594,,,nunamh,001,fr,200,2022-05-17_10h25.30.254,Bayesian,2022.1.1,None,
,,,,20,0,20,0,,,,,,,,,,,,,,,,,,,,,,,"{'x': [[1000, 60], [1000, 40], [1000, 20], [1000, 0], [1500, 10], [1500, -10], [2000, 10], [2000, -10], [3000, 10], [3000, -10], [4000, 10], [4000, -10], [6000, -10], [8000, -10], [750, 10], [750, -10], [500, 10], [500, -10]], 'y': [[1], [1], [1], [-1], [1], [-1], [1], [-1], [1], [-1], [1], [1], [1], [1], [1], [-1], [1], [-1]], 'audiogram': {}, 'is_init_phase': True, 'is_exam_finished': False, 'threshold_uncertainty_db': 6}",250,10,0.0005296268625886444,False,0.00951629993505776,None,['space'],1,[0.4036633998621255],207.46958660008386,208.4823743000161,None,1,208.4823743000161,207.46958660008386,,,nunamh,001,fr,200,2022-05-17_10h25.30.254,Bayesian,2022.1.1,None,
,,,,21,0,21,0,,,,,,,,,,,,,,,,,,,,,,,"{'x': [[1000, 60], [1000, 40], [1000, 20], [1000, 0], [1500, 10], [1500, -10], [2000, 10], [2000, -10], [3000, 10], [3000, -10], [4000, 10], [4000, -10], [6000, -10], [8000, -10], [750, 10], [750, -10], [500, 10], [500, -10], [250, 10]], 'y': [[1], [1], [1], [-1], [1], [-1], [1], [-1], [1], [-1], [1], [1], [1], [1], [1], [-1], [1], [-1], [1]], 'audiogram': {}, 'is_init_phase': True, 'is_exam_finished': False, 'threshold_uncertainty_db': 6}",250,-10,5.296268625886443e-05,False,0.011494500329717994,None,None,0,,210.73124520014971,211.77169180009514,None,1,211.77169180009514,210.73124520014971,,,nunamh,001,fr,200,2022-05-17_10h25.30.254,Bayesian,2022.1.1,None,
,,,,22,0,22,0,,,,,,,,,,,,,,,,,,,,,,,"{'x': [[1000, 60], [1000, 40], [1000, 20], [1000, 0], [1500, 10], [1500, -10], [2000, 10], [2000, -10], [3000, 10], [3000, -10], [4000, 10], [4000, -10], [6000, -10], [8000, -10], [750, 10], [750, -10], [500, 10], [500, -10], [250, 10], [250, -10]], 'y': [[1], [1], [1], [-1], [1], [-1], [1], [-1], [1], [-1], [1], [1], [1], [1], [1], [-1], [1], [-1], [1], [-1]], 'audiogram': {}, 'is_init_phase': True, 'is_exam_finished': False, 'threshold_uncertainty_db': 6}",125,10,0.002285440948074376,False,0.010513500077649951,None,['space'],1,[0.5217003000434488],214.8370236000046,215.8491908002179,None,1,215.8491908002179,214.8370236000046,,,nunamh,001,fr,200,2022-05-17_10h25.30.254,Bayesian,2022.1.1,None,
,,,,23,0,23,0,,,,,,,,,,,,,,,,,,,,,,,"{'x': [[1000, 60], [1000, 40], [1000, 20], [1000, 0], [1500, 10], [1500, -10], [2000, 10], [2000, -10], [3000, 10], [3000, -10], [4000, 10], [4000, -10], [6000, -10], [8000, -10], [750, 10], [750, -10], [500, 10], [500, -10], [250, 10], [250, -10], [125, 10]], 'y': [[1], [1], [1], [-1], [1], [-1], [1], [-1], [1], [-1], [1], [1], [1], [1], [1], [-1], [1], [-1], [1], [-1], [1]], 'audiogram': {}, 'is_init_phase': True, 'is_exam_finished': False, 'threshold_uncertainty_db': 6}",,,,True,0.01329893316142261,None,None,0,,218.58924450003542,219.59380680019967,None,1,219.59380680019967,218.58924450003542,,,nunamh,001,fr,200,2022-05-17_10h25.30.254,Bayesian,2022.1.1,None,
,,,,24,0,24,0,,,,,,,,,,,,,,,,,,,,,,,"{'x': [[1000, 60], [1000, 40], [1000, 20], [1000, 0], [1500, 10], [1500, -10], [2000, 10], [2000, -10], [3000, 10], [3000, -10], [4000, 10], [4000, -10], [6000, -10], [8000, -10], [750, 10], [750, -10], [500, 10], [500, -10], [250, 10], [250, -10], [125, 10]], 'y': [[1], [1], [1], [-1], [1], [-1], [1], [-1], [1], [-1], [1], [1], [1], [1], [1], [-1], [1], [-1], [1], [-1], [1]], 'audiogram': {}, 'is_init_phase': True, 'is_exam_finished': False, 'threshold_uncertainty_db': 6}",125,-10,0.0002285440948074376,False,0.011826700298115611,None,None,0,,220.84662100020796,221.88168590003625,None,1,221.88168590003625,220.84662100020796,,,nunamh,001,fr,200,2022-05-17_10h25.30.254,Bayesian,2022.1.1,None,
,,,,25,0,25,0,,,,,,,,,,,,,,,,,,,,,,,"{'x': [[1000, 60], [1000, 40], [1000, 20], [1000, 0], [1500, 10], [1500, -10], [2000, 10], [2000, -10], [3000, 10], [3000, -10], [4000, 10], [4000, -10], [6000, -10], [8000, -10], [750, 10], [750, -10], [500, 10], [500, -10], [250, 10], [250, -10], [125, 10], [125, -10]], 'y': [[1], [1], [1], [-1], [1], [-1], [1], [-1], [1], [-1], [1], [1], [1], [1], [1], [-1], [1], [-1], [1], [-1], [1], [-1]], 'audiogram': {}, 'is_init_phase': True, 'is_exam_finished': False, 'threshold_uncertainty_db': 6}",353.5533905932738,-2.0,7.038727582816145e-05,False,0.0047646998427808285,0.1963845998980105,None,0,,225.25160310021602,226.26640130020678,None,1,226.26640130020678,225.25160310021602,,,nunamh,001,fr,200,2022-05-17_10h25.30.254,Bayesian,2022.1.1,None,
,,,,26,0,26,0,,,,,,,,,,,,,,,,,,,,,,,,176.7766952966369,-2.0,0.0002780315447610839,False,0.0008714334107935429,0.1860652333125472,None,0,,229.3159972000867,230.32608920009807,None,1,230.32608920009807,229.3159972000867,,,nunamh,001,fr,200,2022-05-17_10h25.30.254,Bayesian,2022.1.1,None,
,,,,27,0,27,0,,,,,,,,,,,,,,,,,,,,,,,,,,,True,0.015673933317884803,None,None,0,,233.16500640008599,234.17931480007246,None,1,234.17931480007246,233.16500640008599,,,nunamh,001,fr,200,2022-05-17_10h25.30.254,Bayesian,2022.1.1,None,
,,,,28,0,28,0,,,,,,,,,,,,,,,,,,,,,,,,5656.85424949238,-17.0,1.8154453196968606e-05,False,0.003754266770556569,None,None,0,,237.36543150013313,238.37055550003424,None,1,238.37055550003424,237.36543150013313,,,nunamh,001,fr,200,2022-05-17_10h25.30.254,Bayesian,2022.1.1,None,
,,,,29,0,29,0,,,,,,,,,,,,,,,,,,,,,,,,125.0,0.0,0.000722719885372964,False,0.00928130024112761,None,None,0,,241.82638730015606,242.82029510010034,None,1,242.82029510010034,241.82638730015606,,,nunamh,001,fr,200,2022-05-17_10h25.30.254,Bayesian,2022.1.1,None,
,,,,30,0,30,0,,,,,,,,,,,,,,,,,,,,,,,,574.3491774985172,0.0,5.984619860562044e-05,False,0.0005200335290282965,None,['space'],1,[0.5289475999306887],245.55030850018375,246.55470360000618,None,1,246.55470360000618,245.55030850018375,,,nunamh,001,fr,200,2022-05-17_10h25.30.254,Bayesian,2022.1.1,None,
,,,,31,0,31,0,,,,,,,,,,,,,,,,,,,,,,,,2143.5469250725882,-1.0,6.951207121178725e-05,False,0.010730866808444262,None,None,0,,250.5173425001558,251.52687850012444,None,1,251.52687850012444,250.5173425001558,,,nunamh,001,fr,200,2022-05-17_10h25.30.254,Bayesian,2022.1.1,None,
,,,,32,0,32,0,,,,,,,,,,,,,,,,,,,,,,,,,,,True,0.010308233555406332,None,None,0,,253.53097910014912,254.52943720016629,None,1,254.52943720016629,253.53097910014912,,,nunamh,001,fr,200,2022-05-17_10h25.30.254,Bayesian,2022.1.1,None,
,,,,33,0,33,0,,,,,,,,,,,,,,,,,,,,,,,,217.63764082403114,3.0,0.00032613617707396853,False,0.004101033555343747,0.19279023353010416,None,0,,258.3047714000568,259.2996613001451,None,1,259.2996613001451,258.3047714000568,,,nunamh,001,fr,200,2022-05-17_10h25.30.254,Bayesian,2022.1.1,None,
,,,,34,0,34,0,,,,,,,,,,,,,,,,,,,,,,,,1414.213562373095,3.0,7.123757377826762e-05,False,0.013877933146432042,None,None,0,,263.0268633000087,264.04865050013177,None,1,264.04865050013177,263.0268633000087,,,nunamh,001,fr,200,2022-05-17_10h25.30.254,Bayesian,2022.1.1,None,
,,,,35,0,35,0,,,,,,,,,,,,,,,,,,,,,,,,378.9291416275994,2.0,0.00010326279949859523,False,0.009420233312994242,None,None,0,,268.1814058001619,269.18992260005325,None,1,269.18992260005325,268.1814058001619,,,nunamh,001,fr,200,2022-05-17_10h25.30.254,Bayesian,2022.1.1,None,
,,,,36,0,36,0,,,,,,,,,,,,,,,,,,,,,,,,812.2523963562351,1.0,4.344041451495799e-05,False,0.010830800281837583,None,['space'],1,[0.7015090000350028],272.3699388001114,273.3943526002113,None,1,273.3943526002113,272.3699388001114,,,nunamh,001,fr,200,2022-05-17_10h25.30.254,Bayesian,2022.1.1,None,
,,,,37,0,37,0,,,,,,,,,,,,,,,,,,,,,,,,,,,True,0.012639633379876614,None,None,0,,274.61053790012375,275.61321110022254,None,1,275.61321110022254,274.61053790012375,,,nunamh,001,fr,200,2022-05-17_10h25.30.254,Bayesian,2022.1.1,None,
,,,,38,0,38,0,,,,,,,,,,,,,,,,,,,,,,,,164.93848884661182,6.0,0.0007844083667336284,False,0.004019333282485604,0.19274713331833482,None,0,,278.6703061000444,279.6906609002035,None,1,279.6906609002035,278.6703061000444,,,nunamh,001,fr,200,2022-05-17_10h25.30.254,Bayesian,2022.1.1,None,
,,,,39,0,39,0,,,,,,,,,,,,,,,,,,,,,,,,8000.0,-13.0,4.064152580820497e-05,False,0.010306699899956584,None,None,0,,283.1465910000261,284.1596934001427,None,1,284.1596934001427,283.1465910000261,,,nunamh,001,fr,200,2022-05-17_10h25.30.254,Bayesian,2022.1.1,None,
,,,,40,0,40,0,,,,,,,,,,,,,,,,,,,,,,,,2828.42712474619,-2.0,5.201735198753194e-05,False,0.004556899890303612,0.1945782001130283,None,0,,287.9796398000326,289.00672699999996,None,1,289.00672699999996,287.9796398000326,,,nunamh,001,fr,200,2022-05-17_10h25.30.254,Bayesian,2022.1.1,None,
,,,,41,0,41,0,,,,,,,,,,,,,,,,,,,,,,,,4000.0,-10.0,2.6544222211549425e-05,False,0.010812300257384777,None,None,0,,292.8840199999977,293.92543960013427,None,1,293.92543960013427,292.8840199999977,,,nunamh,001,fr,200,2022-05-17_10h25.30.254,Bayesian,2022.1.1,None,
,,,,42,0,42,0,,,,,,,,,,,,,,,,,,,,,,,,307.7861033362292,6.0,0.00021202376373436995,False,0.013649833388626575,None,None,0,,296.4049724000506,297.40581480017863,None,1,297.40581480017863,296.4049724000506,,,nunamh,001,fr,200,2022-05-17_10h25.30.254,Bayesian,2022.1.1,None,
,,,,43,0,43,0,,,,,,,,,,,,,,,,,,,,,,,,,,,True,0.014245333382859826,None,None,0,,300.0023964000866,301.03212650003843,None,1,301.03212650003843,300.0023964000866,,,nunamh,001,fr,200,2022-05-17_10h25.30.254,Bayesian,2022.1.1,None,
,,,,44,0,44,0,,,,,,,,,,,,,,,,,,,,,,,,435.2752816480623,4.0,0.00011847381036860221,False,0.007311233086511493,None,None,0,,304.70290760020725,305.72138770017773,None,1,305.72138770017773,304.70290760020725,,,nunamh,001,fr,200,2022-05-17_10h25.30.254,Bayesian,2022.1.1,None,
,,,,45,0,45,0,,,,,,,,,,,,,,,,,,,,,,,,125.0,6.0,0.0014420157515633036,False,0.0035006667021661997,None,None,0,,309.64556320011616,310.6490055001341,None,1,310.6490055001341,309.64556320011616,,,nunamh,001,fr,200,2022-05-17_10h25.30.254,Bayesian,2022.1.1,None,
,,,,46,0,46,0,,,,,,,,,,,,,,,,,,,,,,,,176.7766952966369,10.0,0.0011068635160945309,False,0.013379866722971201,None,['space'],1,[0.7394716998096555],313.4273461000994,314.44632810004987,None,1,314.44632810004987,313.4273461000994,,,nunamh,001,fr,200,2022-05-17_10h25.30.254,Bayesian,2022.1.1,None,
,,,,47,0,47,0,,,,,,,,,,,,,,,,,,,,,,,,353.5533905932738,11.0,0.00031440841208643823,False,0.013961933320388198,None,['space'],1,[0.5004730999935418],317.05911090015434,318.08404770004563,None,1,318.08404770004563,317.05911090015434,,,nunamh,001,fr,200,2022-05-17_10h25.30.254,Bayesian,2022.1.1,None,
,,,,48,0,48,0,,,,,,,,,,,,,,,,,,,,,,,,,,,True,0.013557833386585116,None,None,0,,320.2233804001007,321.24408440012485,None,1,321.24408440012485,320.2233804001007,,,nunamh,001,fr,200,2022-05-17_10h25.30.254,Bayesian,2022.1.1,None,
,,,,49,0,49,0,,,,,,,,,,,,,,,,,,,,,,,,2639.015821545789,3.0,0.00010912778663039106,False,0.013057366712018847,None,None,0,,325.46880730008706,326.4664705002215,None,1,326.4664705002215,325.46880730008706,,,nunamh,001,fr,200,2022-05-17_10h25.30.254,Bayesian,2022.1.1,None,
,,,,50,0,50,0,,,,,,,,,,,,,,,,,,,,,,,,4000.0,-8.0,3.3417195878430746e-05,False,0.013691366650164127,None,None,0,,329.35966470022686,330.385187700158,None,1,330.385187700158,329.35966470022686,,,nunamh,001,fr,200,2022-05-17_10h25.30.254,Bayesian,2022.1.1,None,
,,,,51,0,51,0,,,,,,,,,,,,,,,,,,,,,,,,1148.6983549970344,6.0,0.00010030596310503799,False,0.0029504999984055758,None,"['space', 'space']",0,"[-1.3513245999347419, 0.5458513998892158]",333.43766960012726,334.45560500002466,None,1,334.45560500002466,333.43766960012726,,,nunamh,001,fr,200,2022-05-17_10h25.30.254,Bayesian,2022.1.1,None,
,,,,52,0,52,0,,,,,,,,,,,,,,,,,,,,,,,,,,,True,0.009346433449536562,None,None,0,,336.75872780010104,337.7745286000427,None,1,337.7745286000427,336.75872780010104,,,nunamh,001,fr,200,2022-05-17_10h25.30.254,Bayesian,2022.1.1,None,
,,,,53,0,53,0,,,,,,,,,,,,,,,,,,,,,,,,659.7539553864473,-4.0,3.0636414623792164e-05,False,0.011104233330115676,None,None,0,,341.6543267001398,342.67595360009,None,1,342.67595360009,341.6543267001398,,,nunamh,001,fr,200,2022-05-17_10h25.30.254,Bayesian,2022.1.1,None,
,,,,54,0,54,0,,,,,,,,,,,,,,,,,,,,,,,,1866.0659830736151,6.0,0.0001372027087973376,False,0.007891899906098843,None,['space'],1,[0.7478801000397652],346.2756895001512,347.3024043000769,None,1,347.3024043000769,346.2756895001512,,,nunamh,001,fr,200,2022-05-17_10h25.30.254,Bayesian,2022.1.1,None,
,,,,55,0,55,0,,,,,,,,,,,,,,,,,,,,,,,,5278.031643091578,-12.0,3.5792691385754114e-05,False,0.012477533193305135,0.2102983333170414,['space'],1,[0.4272431000135839],350.79592900001444,351.79761040001176,None,1,351.79761040001176,350.79592900001444,,,nunamh,001,fr,200,2022-05-17_10h25.30.254,Bayesian,2022.1.1,None,
,,,,56,0,56,0,,,,,,,,,,,,,,,,,,,,,,,,,,,True,0.012387433322146535,None,None,0,,353.8264746000059,354.8298958002124,None,1,354.8298958002124,353.8264746000059,,,nunamh,001,fr,200,2022-05-17_10h25.30.254,Bayesian,2022.1.1,None,
,,,,57,0,57,0,,,,,,,,,,,,,,,,,,,,,,,,3031.4331330207992,3.0,8.164268623461776e-05,False,0.008362900000065565,None,None,0,,357.77444290020503,358.793520900188,None,1,358.793520900188,357.77444290020503,,,nunamh,001,fr,200,2022-05-17_10h25.30.254,Bayesian,2022.1.1,None,
,,,,58,0,58,0,,,,,,,,,,,,,,,,,,,,,,,,250.0,7.0,0.00037494710466622793,False,0.004157566698268056,None,None,0,,363.2392782000825,364.24453300004825,None,1,364.24453300004825,363.2392782000825,,,nunamh,001,fr,200,2022-05-17_10h25.30.254,Bayesian,2022.1.1,None,
,,,,59,0,59,0,,,,,,,,,,,,,,,,,,,,,,,,2297.3967099940687,6.0,0.00016242284606279376,False,0.007072200067341328,0.1970490999519825,None,0,,368.208598600002,369.2013732001651,None,1,369.2013732001651,368.208598600002,,,nunamh,001,fr,200,2022-05-17_10h25.30.254,Bayesian,2022.1.1,None,
,,,,60,0,60,0,,,,,,,,,,,,,,,,,,,,,,,,,,,True,0.0003844667226076126,0.18706396664492786,None,0,,370.3602909001056,371.370736700017,None,1,371.370736700017,370.3602909001056,,,nunamh,001,fr,200,2022-05-17_10h25.30.254,Bayesian,2022.1.1,None,
,,,,61,0,61,0,,,,,,,,,,,,,,,,,,,,,,,,8000.0,-10.0,5.740768107484415e-05,False,0.008454599883407354,None,None,0,,375.2932603000663,376.29927900014445,None,1,376.29927900014445,375.2932603000663,,,nunamh,001,fr,200,2022-05-17_10h25.30.254,Bayesian,2022.1.1,None,
,,,,62,0,62,0,,,,,,,,,,,,,,,,,,,,,,,,466.5164957684038,4.0,0.00011594380644503983,False,0.009746199939399958,None,None,0,,380.1471834999975,381.1621752001811,None,1,381.1621752001811,380.1471834999975,,,nunamh,001,fr,200,2022-05-17_10h25.30.254,Bayesian,2022.1.1,None,
,,,,63,0,63,0,,,,,,,,,,,,,,,,,,,,,,,,870.5505632961246,0.0,4.037325170706638e-05,False,0.007875133538618684,None,['space'],1,[0.4279206001665443],385.9785693001468,386.97270350018516,None,1,386.97270350018516,385.9785693001468,,,nunamh,001,fr,200,2022-05-17_10h25.30.254,Bayesian,2022.1.1,None,
,,,,64,0,64,0,,,,,,,,,,,,,,,,,,,,,,,,125.0,8.0,0.0018153902738505074,False,0.015047233318910003,None,None,0,,391.62366380007006,392.6501774000935,None,1,392.6501774000935,391.62366380007006,,,nunamh,001,fr,200,2022-05-17_10h25.30.254,Bayesian,2022.1.1,None,
,,,,65,0,65,0,,,,,,,,,,,,,,,,,,,,,,,,1414.213562373095,4.0,7.992987241891393e-05,False,0.007884799968451262,None,None,0,,396.6976158001926,397.7043431000784,None,1,397.7043431000784,396.6976158001926,,,nunamh,001,fr,200,2022-05-17_10h25.30.254,Bayesian,2022.1.1,None,
,,,,66,0,66,0,,,,,,,,,,,,,,,,,,,,,,,,176.7766952966369,8.0,0.0008792129428200801,False,0.014952766476199031,None,['space'],1,[0.4537706000264734],401.7137134000659,402.7283537001349,None,1,402.7283537001349,401.7137134000659,,,nunamh,001,fr,200,2022-05-17_10h25.30.254,Bayesian,2022.1.1,None,
,,,,67,0,67,0,,,,,,,,,,,,,,,,,,,,,,,,3249.0095854249403,3.0,9.994725481261178e-05,False,0.011422900017350912,0.2070447001606226,['space'],1,[0.6848907000385225],405.6255374001339,406.64467240008526,None,1,406.64467240008526,405.6255374001339,,,nunamh,001,fr,200,2022-05-17_10h25.30.254,Bayesian,2022.1.1,None,
,,,,68,0,68,0,,,,,,,,,,,,,,,,,,,,,,,,329.87697769322364,10.0,0.0002996540782015946,False,0.0072426332626491785,None,['space'],1,[0.6398452001158148],410.9027875000611,411.91606130008586,None,1,411.91606130008586,410.9027875000611,,,nunamh,001,fr,200,2022-05-17_10h25.30.254,Bayesian,2022.1.1,None,
,,,,69,0,69,0,,,,,,,,,,,,,,,,,,,,,,,,6062.8662660415985,-14.0,2.3710193230934314e-05,False,0.0039013000205159187,None,None,0,,415.4760650000535,416.50464940001257,None,1,416.50464940001257,415.4760650000535,,,nunamh,001,fr,200,2022-05-17_10h25.30.254,Bayesian,2022.1.1,None,
,,,,70,0,70,0,,,,,,,,,,,,,,,,,,,,,,,,,,,True,0.007606233470141888,None,None,0,,418.8432588002179,419.8541082001757,None,1,419.8541082001757,418.8432588002179,,,nunamh,001,fr,200,2022-05-17_10h25.30.254,Bayesian,2022.1.1,None,
,,,,71,0,71,0,,,,,,,,,,,,,,,,,,,,,,,,8000.0,-8.0,7.22719885372964e-05,False,0.012241333723068237,None,None,0,,424.57794200000353,425.58456540014595,None,1,425.58456540014595,424.57794200000353,,,nunamh,001,fr,200,2022-05-17_10h25.30.254,Bayesian,2022.1.1,None,
,,,,72,0,72,0,,,,,,,,,,,,,,,,,,,,,,,,8000.0,-7.0,8.109050486794653e-05,False,0.004740966716781259,0.19462116668000817,None,0,,429.350264800014,430.372687500203,None,1,430.372687500203,429.350264800014,,,nunamh,001,fr,200,2022-05-17_10h25.30.254,Bayesian,2022.1.1,None,
,,,,73,0,73,0,,,,,,,,,,,,,,,,,,,,,,,,707.1067811865476,-3.0,3.143487978586954e-05,False,0.0011492001358419657,None,None,0,,435.56342510017566,436.59051060001366,None,1,436.59051060001366,435.56342510017566,,,nunamh,001,fr,200,2022-05-17_10h25.30.254,Bayesian,2022.1.1,None,
,,,,74,0,74,0,,,,,,,,,,,,,,,,,,,,,,,,,,,True,0.014136433601379395,None,None,0,,438.4318420002237,439.44012750010006,None,1,439.44012750010006,438.4318420002237,,,nunamh,001,fr,200,2022-05-17_10h25.30.254,Bayesian,2022.1.1,None,
,,,,75,0,75,0,,,,,,,,,,,,,,,,,,,,,,,,535.8867312681471,3.0,9.301044792367187e-05,False,0.01379966689273715,None,['space'],1,[0.7782350999768823],444.14893150003627,445.1491120001301,None,1,445.1491120001301,444.14893150003627,,,nunamh,001,fr,200,2022-05-17_10h25.30.254,Bayesian,2022.1.1,None,
,,,,76,0,76,0,,,,,,,,,,,,,,,,,,,,,,,,1148.6983549970344,4.0,7.967585860554377e-05,False,0.0044634665828198195,None,['space'],1,[0.4650503001175821],449.414117900189,450.41359820007347,None,1,450.41359820007347,449.414117900189,,,nunamh,001,fr,200,2022-05-17_10h25.30.254,Bayesian,2022.1.1,None,
,,,,77,0,77,0,,,,,,,,,,,,,,,,,,,,,,,,2462.2888266898335,8.0,0.00021365971721055244,False,0.011887166649103165,None,"['space', 'space']",0,"[-0.9650714001618326, 0.39490049984306097]",453.84401040012017,454.85512380022556,None,1,454.85512380022556,453.84401040012017,,,nunamh,001,fr,200,2022-05-17_10h25.30.254,Bayesian,2022.1.1,None,
,,,,78,0,78,0,,,,,,,,,,,,,,,,,,,,,,,,,,,True,0.013006533496081829,None,None,0,,456.91773270000704,457.94425010005943,None,1,457.94425010005943,456.91773270000704,,,nunamh,001,fr,200,2022-05-17_10h25.30.254,Bayesian,2022.1.1,None,
,,,,79,0,79,0,,,,,,,,,,,,,,,,,,,,,,,,1741.101126592249,5.0,0.00011224801014638708,False,0.0016692664939910173,None,['space'],1,[0.4159258999861777],462.03158240020275,463.0509177001659,None,1,463.0509177001659,462.03158240020275,,,nunamh,001,fr,200,2022-05-17_10h25.30.254,Bayesian,2022.1.1,None,
,,,,80,0,80,0,,,,,,,,,,,,,,,,,,,,,,,,4594.793419988137,-12.0,3.136478812909819e-05,False,0.0024912331718951464,0.19159913319163024,['space'],1,[0.433829199988395],467.09335430013016,468.10728780017234,None,1,468.10728780017234,467.09335430013016,,,nunamh,001,fr,200,2022-05-17_10h25.30.254,Bayesian,2022.1.1,None,
,,,,81,0,81,0,,,,,,,,,,,,,,,,,,,,,,,,217.63764082403114,7.0,0.000516891006859825,False,0.005497666774317622,None,['space'],1,[0.5482045998796821],471.36291300016455,472.39145730016753,None,1,472.39145730016753,471.36291300016455,,,nunamh,001,fr,200,2022-05-17_10h25.30.254,Bayesian,2022.1.1,None,
,,,,82,0,82,0,,,,,,,,,,,,,,,,,,,,,,,,,,,True,0.008909033378586173,0.20716793346218765,None,0,,474.74892100016586,475.7486687002238,None,1,475.7486687002238,474.74892100016586,,,nunamh,001,fr,200,2022-05-17_10h25.30.254,Bayesian,2022.1.1,None,
,,,,83,0,83,0,,,,,,,,,,,,,,,,,,,,,,,,125.0,9.0,0.0020369013890205647,False,0.011297866702079773,None,None,0,,480.30490220012143,481.315855700057,None,1,481.315855700057,480.30490220012143,,,nunamh,001,fr,200,2022-05-17_10h25.30.254,Bayesian,2022.1.1,None,
,,,,84,0,84,0,,,,,,,,,,,,,,,,,,,,,,,,8000.0,-6.0,9.098504293049921e-05,False,0.01660936651751399,None,None,0,,484.97271020011976,485.98510110005736,None,1,485.98510110005736,484.97271020011976,,,nunamh,001,fr,200,2022-05-17_10h25.30.254,Bayesian,2022.1.1,None,
,,,,85,0,85,0,,,,,,,,,,,,,,,,,,,,,,,,153.8930516681146,8.0,0.0011692589252193838,False,0.009517533471807837,None,['space'],1,[0.4289662998635322],490.5218782001175,491.5261780000292,None,1,491.5261780000292,490.5218782001175,,,nunamh,001,fr,200,2022-05-17_10h25.30.254,Bayesian,2022.1.1,None,
,,,,86,0,86,0,,,,,,,,,,,,,,,,,,,,,,,,,,,True,0.010749033419415355,None,None,0,,494.3279703001026,495.33617800008506,None,1,495.33617800008506,494.3279703001026,,,nunamh,001,fr,200,2022-05-17_10h25.30.254,Bayesian,2022.1.1,None,
,,,,87,0,87,0,,,,,,,,,,,,,,,,,,,,,,,,378.9291416275994,8.0,0.00020603637237773438,False,0.010705966502428055,None,['space'],1,[0.4650357000064105],500.2937030000612,501.3070968000684,None,1,501.3070968000684,500.2937030000612,,,nunamh,001,fr,200,2022-05-17_10h25.30.254,Bayesian,2022.1.1,None,
,,,,88,0,88,0,,,,,,,,,,,,,,,,,,,,,,,,933.0329915368076,-1.0,3.756544065126319e-05,False,0.004152366891503334,None,None,0,,505.62016010005027,506.6334259000141,None,1,506.6334259000141,505.62016010005027,,,nunamh,001,fr,200,2022-05-17_10h25.30.254,Bayesian,2022.1.1,None,
,,,,89,0,89,0,,,,,,,,,,,,,,,,,,,,,,,,1866.0659830736151,4.0,0.00010898398547837883,False,0.011710400227457285,None,None,0,,510.9509468001779,511.9462201001588,None,1,511.9462201001588,510.9509468001779,,,nunamh,001,fr,200,2022-05-17_10h25.30.254,Bayesian,2022.1.1,None,
,,,,90,0,90,0,,,,,,,,,,,,,,,,,,,,,,,,6498.0191708498805,-11.0,3.833294205216024e-05,False,0.008837133413180709,None,['space'],1,[0.48230369994416833],516.1969119000714,517.2127355001867,None,1,517.2127355001867,516.1969119000714,,,nunamh,001,fr,200,2022-05-17_10h25.30.254,Bayesian,2022.1.1,None,
,,,,91,0,91,0,,,,,,,,,,,,,,,,,,,,,,,,287.17458874925893,8.0,0.00032177171484279254,False,0.01653116662055254,None,['space'],1,[0.41615750011987984],521.1917413000483,522.1901951001491,None,1,522.1901951001491,521.1917413000483,,,nunamh,001,fr,200,2022-05-17_10h25.30.254,Bayesian,2022.1.1,None,
,,,,92,0,92,0,,,,,,,,,,,,,,,,,,,,,,,,,,,True,0.010796633316203952,None,None,0,,524.2256119002122,525.2270903000608,None,1,525.2270903000608,524.2256119002122,,,nunamh,001,fr,200,2022-05-17_10h25.30.254,Bayesian,2022.1.1,None,
,,,,93,0,93,0,,,,,,,,,,,,,,,,,,,,,,,,659.7539553864473,-1.0,4.3275085888736026e-05,False,0.012814000248908997,None,None,0,,530.1647958001122,531.1707447001245,None,1,531.1707447001245,530.1647958001122,,,nunamh,001,fr,200,2022-05-17_10h25.30.254,Bayesian,2022.1.1,None,
,,,,94,0,94,0,,,,,,,,,,,,,,,,,,,,,,,,125.0,10.0,0.002285440948074376,False,0.010260233422741294,None,"['space', 'space']",0,"[-1.919618200045079, 0.45725309988483787]",536.5583548001014,537.5695614002179,['space'],0,537.5695614002179,536.5583548001014,[1.2287669000215828],,nunamh,001,fr,200,2022-05-17_10h25.30.254,Bayesian,2022.1.1,None,
,,,,95,0,95,0,,,,,,,,,,,,,,,,,,,,,,,,3031.4331330207992,4.0,9.160460061402599e-05,False,0.006414066534489393,0.19611946656368673,None,0,,542.6395988001022,543.6507384001743,None,1,543.6507384001743,542.6395988001022,,,nunamh,001,fr,200,2022-05-17_10h25.30.254,Bayesian,2022.1.1,None,
,,,,96,0,96,0,,,,,,,,,,,,,,,,,,,,,,,,3031.4331330207992,4.0,9.160460061402599e-05,False,None,None,None,0,,None,None,None,1,None,None,,"{'estimation': [[125.0, 8.966314357149813], [133.9716828170366, 8.392904251219491], [139.04162784417417, 8.0], [143.5872943746293, 7.651682937384956], [152.294390522875, 7.0], [153.89305166811442, 6.880741781152294], [164.93848884661162, 6.208275013174096], [169.93370513518454, 6.0], [176.77669529663666, 5.72279626284238], [189.46457081379947, 5.486912106449889], [203.0630990890585, 5.489678846650868], [217.63764082403046, 5.682205299554338], [233.25824788420132, 5.994205410041341], [233.52257236750796, 6.0], [249.99999999999937, 6.341250460895301], [267.94336563407256, 6.652210799972767], [287.1745887492579, 6.88434359948018], [307.3112885423691, 7.0], [307.78610333622805, 7.002642817147491], [310.0174288477893, 7.0], [329.876977693222, 6.977149928426585], [353.55339059327247, 6.7846980874357214], [378.929141627598, 6.408253094745191], [397.7650212894091, 6.0], [406.12619817811606, 5.823746365296673], [435.2752816480601, 5.04734342328066], [436.7892748854867, 5.0], [466.5164957684015, 4.105712428777648], [469.8067492568524, 4.0], [499.9999999999975, 3.0628072739198795], [502.0614304134129, 3.0], [535.8867312681438, 2.00339701779453], [536.0147494960559, 2.0], [574.3491774985143, 1.019999760090998], [575.3062708889433, 1.0], [615.5722066724546, 0.19463986055346338], [629.259255591964, 0.0], [659.7539553864432, -0.4162564340666764], [707.1067811865431, -0.7637813234113481], [757.8582832551951, -0.83758257481514], [812.2523963562301, -0.6362629369908227], [870.5505632961181, -0.18328753447384005], [887.1484667846688, 0.0], [933.0329915368008, 0.486717348887886], [974.9080028167277, 1.0], [999.9999999999926, 1.2993665775760186], [1057.99241685137, 2.0], [1071.773462536285, 2.162925942570438], [1148.698354997026, 2.9751577415199826], [1151.6153274655271, 3.0], [1231.1444133449063, 3.6493134473235935], [1294.7383893699973, 4.0], [1319.5079107728832, 4.132798210540699], [1414.2135623730828, 4.417032437983572], [1515.7165665103846, 4.562014860488508], [1624.5047927124563, 4.667652715985808], [1741.1011265922318, 4.841202016064529], [1802.201870455113, 5.0], [1866.065983073597, 5.159676965648323], [1999.9999999999802, 5.616156682525062], [2104.5990576899403, 6.0], [2143.5469250725646, 6.140037333310634], [2297.396709994046, 6.556672417256189], [2462.2888266898062, 6.662837838969763], [2639.01582154576, 6.254883937865648], [2682.852303650635, 6.0], [2828.427124746159, 5.175891324766764], [2848.4325783005197, 5.0], [2958.949978264927, 4.0], [3031.4331330207615, 3.3785063737747247], [3066.23671687597, 3.0], [3151.5245000372915, 2.0], [3241.892447849739, 1.0], [3249.0095854249043, 0.9287582751426191], [3324.4662029420365, 0.0], [3398.818525916489, -1.0], [3482.2022531844555, -1.9846920192176176], [3483.572616000017, -2.0], [3564.8467325495976, -3.0], [3638.322034832624, -4.0], [3722.129370924167, -5.0], [3732.13196614718, -5.103826253040434], [3813.4933089049964, -6.0], [3895.1886282376176, -7.0], [3987.1540608175364, -8.0], [3999.9999999999504, -8.121896644723027], [4096.584323321521, -9.0], [4199.7032295261515, -10.0], [4287.093850145118, -10.747613271291577], [4326.386799991354, -11.0], [4474.8780749346515, -12.0], [4594.793419988081, -12.756523176997062], [4658.145359559233, -13.0], [4923.843963018783, -14.0], [4924.577653379607, -14.002661085914196], [5278.031643091513, -14.44087783935553], [5656.854249492303, -14.116298065300079], [5703.90685489433, -14.0], [6062.866266041508, -13.148902913724053], [6106.766056102118, -13.0], [6402.999180281235, -12.0], [6498.019170849792, -11.697084775535606], [6680.601658638416, -11.0], [6948.982911819346, -10.0], [6964.404506368894, -9.946401301233967], [7210.428899942364, -9.0], [7464.26393229436, -8.063793475327099], [7483.163558520784, -8.0], [7765.608775237627, -7.0], [7999.999999999892, -6.191299965073462]], 'plus_line': [[125.0, 6.258778837391304], [129.23056549278834, 6.0], [133.9716828170366, 5.698064856533822], [142.3543120028698, 5.0], [143.5872943746292, 4.893109972479314], [153.89305166811442, 4.054605406624111], [154.73431304829842, 4.0], [164.93848884661162, 3.3273268253559856], [173.0286629673236, 3.0], [176.77669529663666, 2.8385737476593875], [189.46457081379947, 2.591501385899388], [203.06309908905865, 2.5992110330905698], [217.6376408240306, 2.813349325697505], [225.7197539918648, 3.0], [233.25824788420132, 3.14928832355169], [249.99999999999937, 3.5009941294633897], [267.94336563407256, 3.832558799526243], [280.60735217106946, 4.0], [287.1745887492579, 4.074058910280059], [307.78610333622805, 4.179417123311862], [329.87697769322244, 4.15107752270885], [349.3546534894558, 4.0], [353.55339059327247, 3.963715538397274], [378.929141627598, 3.567768160740796], [406.12619817811606, 3.011555806541412], [406.54943230656886, 3.0], [435.2752816480601, 2.2278972447452707], [442.7073229828867, 2.0], [466.5164957684015, 1.2924748268968984], [475.73117392479355, 1.0], [499.9999999999975, 0.2632922481365202], [508.7426337028141, 0.0], [535.8867312681438, -0.7804420710829773], [544.3045479263521, -1.0], [574.3491774985143, -1.7555283135533726], [586.3792891292264, -2.0], [615.5722066724546, -2.5856078457615412], [646.0920159210943, -3.0], [659.7539553864432, -3.1926439545401277], [707.1067811865431, -3.5528524894747795], [757.8582832551941, -3.6261067776232636], [812.2523963562301, -3.4244795402851294], [863.4387344317537, -3.0], [870.5505632961181, -2.9469875285683957], [933.0329915368008, -2.302465939526429], [957.6131319947203, -2.0], [999.9999999999926, -1.5114465171929816], [1042.7090923737533, -1.0], [1071.773462536285, -0.6690873026095658], [1135.378669045704, 0.0], [1148.698354997026, 0.13291874426629058], [1231.1444133449063, 0.7887919810893046], [1267.0106003055084, 1.0], [1319.5079107728832, 1.273043435801072], [1414.2135623730828, 1.5650494365897964], [1515.7165665103864, 1.736062894044198], [1624.5047927124563, 1.873144760197449], [1694.5883578447763, 2.0], [1741.1011265922318, 2.0708428804903667], [1866.065983073597, 2.375033556588706], [1999.9999999999802, 2.831799186052139], [2044.050565483951, 3.0], [2143.5469250725646, 3.3356982872223284], [2297.396709994046, 3.7427877153912523], [2462.2888266898062, 3.8488675355288318], [2639.01582154576, 3.4252771478173973], [2711.2855414159485, 3.0], [2828.427124746159, 2.341798251129913], [2865.0707220492895, 2.0], [2972.8976489285646, 1.0], [3031.433133020758, 0.5359612185195255], [3076.177681877427, 0.0], [3156.474072657527, -1.0], [3249.0095854249043, -1.8898845180257133], [3258.0962154588437, -2.0], [3327.6761252337647, -3.0], [3402.099208730535, -4.0], [3482.202253184451, -4.791313815579878], [3499.4498765395383, -5.0], [3567.706362868345, -6.0], [3640.9076333502, -7.0], [3732.1319661471844, -7.884947972168868], [3742.7448046460486, -8.0], [3819.1467423159193, -9.0], [3899.3289346497972, -10.0], [3999.9999999999504, -10.900173696497713], [4010.915537177909, -11.0], [4105.38014598024, -12.0], [4210.938136857598, -13.0], [4287.093850145118, -13.566198958864483], [4348.930190340433, -14.0], [4490.928503991178, -15.0], [4594.793419988081, -15.606774346764164], [4693.809509473334, -16.0], [4924.577653379601, -16.861813579375244], [5037.875375974728, -17.0], [5278.031643091513, -17.30948411622301], [5598.419440838997, -17.0], [5656.854249492303, -16.951008884549807], [6045.912316223703, -16.0], [6062.866266041508, -15.960425745708266], [6350.717307478973, -15.0], [6498.019170849792, -14.501603884872061], [6635.343002035486, -14.0], [6885.341561500241, -13.0], [6964.404506368902, -12.702745819250143], [7159.930431003623, -12.0], [7406.842935762245, -11.0], [7464.2639322943505, -10.787336291943888], [7713.963986921477, -10.0], [7992.936505127997, -9.0], [7999.999999999882, -8.976669385271006]], 'minus_line': [[125.0, 11.720718132297014], [133.9716828170366, 11.076400085671523], [134.9647336094244, 11.0], [143.5872943746293, 10.395881243204197], [149.02626958179448, 10.0], [153.89305166811442, 9.668601938723565], [164.93848884661162, 9.000122474488103], [164.94127796096822, 9.0], [176.77669529663666, 8.54677556696414], [189.46457081379947, 8.31574748110651], [203.0630990890585, 8.323955035760667], [217.6376408240306, 8.515597081008973], [233.25824788420132, 8.802629064535187], [243.55862295719507, 9.0], [249.99999999999937, 9.132900982863301], [267.94336563407256, 9.445642091889276], [287.1745887492579, 9.670300715185085], [307.78610333622805, 9.785984723108902], [329.87697769322244, 9.769943325295689], [353.55339059327247, 9.595558960902807], [378.929141627598, 9.222905810067157], [388.83037831376015, 9.0], [406.12619817811606, 8.649627211755906], [430.01663137544404, 8.0], [435.2752816480601, 7.865228920176295], [463.8074564449433, 7.0], [466.5164957684015, 6.920957095975549], [496.0124028175365, 6.0], [499.9999999999975, 5.879097618949794], [529.6732275229836, 4.999999999999999], [535.8867312681438, 4.82090873786758], [567.726596580113, 4.0], [574.3491774985143, 3.835212710950337], [615.5722066724546, 3.001317088802974], [615.6612876140485, 3.0], [659.7539553864432, 2.4207178337837885], [707.1067811865431, 2.0567014675804307], [739.1071646016741, 2.0], [757.8582832551941, 1.9725709187656273], [765.9783319163473, 2.0], [812.2523963562301, 2.1704091370890883], [870.5505632961181, 2.614910144671706], [907.2474958447743, 3.0], [933.0329915368008, 3.2765845781636145], [992.8028915371127, 4.0], [999.9999999999939, 4.087697537991037], [1071.773462536285, 4.968689695092092], [1074.587759839986, 5.0], [1148.6983549970273, 5.816934301090666], [1170.4457670603074, 6.0], [1231.1444133449063, 6.51855223382639], [1319.5079107728832, 6.980031847048345], [1326.5213882933563, 6.999999999999999], [1414.2135623730828, 7.266626417645703], [1515.7165665103846, 7.387862081950431], [1624.5047927124563, 7.462270279084221], [1741.1011265922318, 7.608600372674076], [1866.065983073597, 7.902951982098233], [1893.6010789560626, 8.0], [1999.9999999999802, 8.39304502576176], [2143.5469250725646, 8.925189956235052], [2169.347480473301, 9.0], [2297.396709994046, 9.393610805491118], [2462.2888266898062, 9.529589736062146], [2639.01582154576, 9.133636974593369], [2662.501923457772, 9.0], [2828.427124746159, 8.068242040593447], [2836.7370394954382, 8.0], [2953.688647218277, 7.0], [3031.4331330207615, 6.2888337409983075], [3061.146195086717, 6.0], [3151.922801002665, 5.0], [3232.1670963893375, 4.0], [3249.0095854249043, 3.8160631454614835], [3325.8507557297517, 3.0], [3399.0277832680968, 2.0], [3470.0720619329586, 1.0], [3482.2022531844555, 0.8594216355280708], [3565.0946988211977, 0.0], [3637.6142862738257, -1.0], [3706.671839016067, -2.0], [3732.1319661471844, -2.2968668904377556], [3808.065884614694, -3.0], [3891.264769361906, -4.0], [3967.726559140447, -5.0], [3999.999999999946, -5.344345245831226], [4083.864884590492, -6.0], [4186.725867235119, -7.0], [4287.093850145118, -7.995530148979185], [4287.861584379423, -8.0], [4451.538743777029, -9.0], [4594.793419988081, -9.99217618335144], [4596.875699877076, -10.0], [4865.553962824601, -11.0], [4924.577653379601, -11.217028698864837], [5278.031643091506, -11.646339707572563], [5656.854249492303, -11.331820856993012], [5793.667220675934, -11.0], [6062.866266041501, -10.364702935639198], [6167.83494720857, -10.0], [6474.664630624046, -9.0], [6498.019170849792, -8.928792041504142], [6726.8388091186425, -8.0], [6964.404506368902, -7.181378666090019], [7010.467034967342, -7.0], [7253.858653854037, -6.0], [7464.2639322943505, -5.28168288881928], [7538.99544442149, -5.0], [7791.602116794403, -4.0], [7999.999999999882, -3.3004637587336774]]}",nunamh,001,fr,200,2022-05-17_10h25.30.254,Bayesian,2022.1.1,None,
