sweeps.thisRepN,sweeps.thisTrialN,sweeps.thisN,sweeps.thisIndex,trials.thisRepN,trials.thisTrialN,trials.thisN,trials.thisIndex,instructions.started,instructions.stopped,blank_text.started,blank_text.stopped,Intervals,text.started,text.stopped,Delay,Prediction,Frequency,Volume,Psychopy_level,isCatchTrial,len(y),finished_audiograms,probe.started,probe.stopped,feedback.keys,feedback.started,feedback.stopped,ISI.started,ISI.stopped,text_2.started,text_2.stopped,feedback.rt,break_txt.started,break_txt.stopped,,Audiogram_time,Audiogram_none,Audiogram_frequency,Audiogram_both,participant,session,language (english or french),Resume previous experiment,date,expName,psychopyVersion,frameRate,
0,0,0,0,0,0,0,0,61.981851599994116,None,71.79675109998789,None,"[0.5833333333333334, 0.3333333333333333, 0.5833333333333334, 0.16666666666666666, 0.16666666666666666, 0.16666666666666666, 0.5833333333333334, 0.3333333333333333, 0.3333333333333333, 0.3333333333333333, 0.16666666666666666, 0.3333333333333333, 0.3333333333333333, 0.3333333333333333, 0.5833333333333334]",73.7237349000061,None,1.3409380018337023,none,149.0,-0.8934548605962183,0.0004592928259861116,0,25,[],0.011965566664002836,None,None,74.7748265999835,None,0.21170016666292213,1.5526381684966244,74.99748849999742,None,,,,,,,,,hnxrev,001,french,0,2022-07-25_14h54.29.387,Continuous,2022.1.1,None,
0,0,0,0,1,0,1,0,,,,,,,,2.098083880705339,none,354.0,-1.0,7.887248739356936e-05,0,26,[],0.012129566661315039,None,None,76.35802739998326,76.35802739998326,0.21251336665591225,2.310597247361251,76.5706346000079,76.35802739998326,,,,,,,,,hnxrev,001,french,0,2022-07-25_14h54.29.387,Continuous,2022.1.1,None,
0,0,0,0,2,0,2,0,,,,,,,,2.499934447809526,none,223.0,-0.8094634049207768,0.00020077086282919017,0,27,[],0.012090066651580855,None,['space'],78.69714929998736,78.69714929998736,0.21487076664925553,2.7148052144587815,78.90947300000698,78.69714929998736,[-1.7797909999790136],,,,,,,,hnxrev,001,french,0,2022-07-25_14h54.29.387,Continuous,2022.1.1,None,
0,0,0,0,3,0,3,0,,,,,,,,1.7250853860185473,none,1501.0,-2.0134966609422014,3.837550276125166e-05,0,28,[],0.010585266660200432,None,['space'],81.43766959998175,81.43766959998175,0.21243946664617397,1.9375248526647213,81.65345320000779,81.43766959998175,[-2.264164399995934],,,,,,,,hnxrev,001,french,0,2022-07-25_14h54.29.387,Continuous,2022.1.1,None,
0,0,0,0,4,0,4,0,,,,,,,,1.6211381603720751,none,133.0,-0.8621417703972996,0.0005899369110560186,0,29,[],0.01200656668515876,None,['space'],83.40563439999823,83.40563439999823,0.214124266669387,1.8352624270414621,83.61675459999242,83.40563439999823,[-1.4653023999999277],,,,,,,,hnxrev,001,french,0,2022-07-25_14h54.29.387,Continuous,2022.1.1,None,
0,0,0,0,5,0,5,0,,,,,,,,1.3194285696869723,none,281.0,-0.9322439053123597,0.00012093869210466763,0,30,[],0.011743366660084575,None,['space'],85.26709660000051,85.26709660000051,0.21634466666728258,1.535773236354255,85.48009789999924,85.26709660000051,[-1.4303508999873884],,,,,,,,hnxrev,001,french,0,2022-07-25_14h54.29.387,Continuous,2022.1.1,None,
0,0,0,0,6,0,6,0,,,,,,,,2.4980462722333594,none,1002.0,-0.9450853012563023,3.958582215463909e-05,0,31,[],0.011543866654392332,None,['space'],86.82609829999274,86.82609829999274,0.21011386666214094,2.7081601388955003,87.04088089999277,86.82609829999274,[-1.1729746999917552],,,,,,,,hnxrev,001,french,0,2022-07-25_14h54.29.387,Continuous,2022.1.1,None,
0,0,0,0,7,0,7,0,,,,,,,,2.501317167857438,none,,,,1,31,[],0.005874666676390916,0.20067756669595838,"['space', 'space']",89.56471139998757,89.56471139998757,0.20067756669595838,2.7019947345533963,89.7790890999895,89.56471139998757,"[-2.3036878000129946, -0.2146016999904532]",,,,,,,,hnxrev,001,french,0,2022-07-25_14h54.29.387,Continuous,2022.1.1,None,
0,0,0,0,8,0,8,0,,,,,,,,2.995036039825105,none,501.0,-1.005607301726565,6.349511514926273e-05,0,32,[],0.013003766682231799,None,None,92.30594540000311,92.30594540000311,0.2184212667052634,3.213457306530368,92.51659019998624,92.30594540000311,,,,,,,,,hnxrev,001,french,0,2022-07-25_14h54.29.387,Continuous,2022.1.1,None,
0,0,0,0,9,0,9,0,,,,,,,,2.211413054677818,none,446.0,0.22915160767385578,7.618762642258014e-05,0,33,[],0.011685466684866697,None,['space'],95.54200159999891,95.54200159999891,0.21276346666854806,2.424176521346366,95.7560880999954,95.54200159999891,[-2.768873499997426],,,,,,,,hnxrev,001,french,0,2022-07-25_14h54.29.387,Continuous,2022.1.1,None,
0,0,0,0,10,0,10,0,,,,,,,,1.9517913899081447,none,795.0,-2.797107033443823,2.796922387465322e-05,0,34,[],0.011563666659640148,None,['space'],97.9972931999946,97.9972931999946,0.21379496666486375,2.1655863565730087,98.2160300000105,97.9972931999946,[-2.0963063000235707],,,,,,,,hnxrev,001,french,0,2022-07-25_14h54.29.387,Continuous,2022.1.1,None,
0,0,0,0,11,0,11,0,,,,,,,,2.63124136371661,none,631.0,-1.818367367446387,4.1429209470825735e-05,0,35,[],0.011315066658426076,None,['space'],100.18771840000409,100.18771840000409,0.21359086665324867,2.8448322303698586,100.39726870000595,100.18771840000409,[-1.7427196000062395],,,,,,,,hnxrev,001,french,0,2022-07-25_14h54.29.387,Continuous,2022.1.1,None,
1,0,1,0,0,0,0,0,,,,,"[0.3333333333333333, 0.5833333333333334, 0.3333333333333333, 0.5833333333333334, 0.3333333333333333, 0.16666666666666666, 0.3333333333333333, 0.3333333333333333, 0.3333333333333333, 0.16666666666666666, 0.5833333333333334, 0.16666666666666666, 0.16666666666666666, 0.3333333333333333, 0.3333333333333333]",104.78532110000378,None,2.6751447275253275,time,595.0,-3.448968908849062,3.806774767323697e-05,0,25,[],0.01307036669459194,None,None,105.81891539998469,None,0.23677666668663733,2.911921394211965,106.04342110001016,None,,103.06112779999967,None,,,,,,hnxrev,001,french,0,2022-07-25_14h54.29.387,Continuous,2022.1.1,None,
1,0,1,0,1,0,1,0,,,,,,,,2.6751447275253275,time,945.0,-1.2222639685176793,3.691184778674586e-05,0,26,[],0.01044776669004932,None,None,108.74476279999362,108.74476279999362,0.21387906666495837,2.889023794190286,108.96336870000232,108.74476279999362,,,,,,,,,hnxrev,001,french,0,2022-07-25_14h54.29.387,Continuous,2022.1.1,None,
1,0,1,0,2,0,2,0,,,,,,,,2.6751447275253275,time,125.0,-0.9073856498913973,0.0006510295805111134,0,27,[],0.01156486666877754,None,['space'],111.66187700000592,111.66187700000592,0.21631096667260863,2.891455694197936,111.86980610000319,111.66187700000592,[-2.489263600000413],,,,,,,,hnxrev,001,french,0,2022-07-25_14h54.29.387,Continuous,2022.1.1,None,
1,0,1,0,3,0,3,0,,,,,,,,2.6751447275253275,time,750.0,-1.5946751779962218,3.3824878512682096e-05,0,28,[],0.011346166662406176,None,['space'],114.57228029999533,114.57228029999533,0.21650946667068638,2.891654194196014,114.79284780001035,114.57228029999533,[-2.495962099987082],,,,,,,,hnxrev,001,french,0,2022-07-25_14h54.29.387,Continuous,2022.1.1,None,
1,0,1,0,4,0,4,0,,,,,,,,2.6751447275253275,time,177.0,-0.5615089105783149,0.0003273470063341583,0,29,[],0.011011566675733775,None,['space'],117.49168879998615,117.49168879998615,0.2182804666517768,2.8934251941771043,117.71270609999192,117.49168879998615,[-2.615275499993004],,,,,,,,hnxrev,001,french,0,2022-07-25_14h54.29.387,Continuous,2022.1.1,None,
1,0,1,0,5,0,5,0,,,,,,,,2.6751447275253275,time,,,,1,29,[],0.011293166666291654,None,['space'],120.41133470000932,120.41133470000932,0.2123735666682478,2.8875182941935753,120.62552080000751,120.41133470000932,[-2.645926099998178],,,,,,,,hnxrev,001,french,0,2022-07-25_14h54.29.387,Continuous,2022.1.1,None,
1,0,1,0,6,0,6,0,,,,,,,,2.6751447275253275,time,223.0,-0.9198395879922844,0.0001982357034497969,0,30,[],0.012589366640895605,None,None,123.32911689998582,123.32911689998582,0.21507686664699577,2.8902215941723233,123.54002449999098,123.32911689998582,,,,,,,,,hnxrev,001,french,0,2022-07-25_14h54.29.387,Continuous,2022.1.1,None,
1,0,1,0,7,0,7,0,,,,,,,,2.6751447275253275,time,281.0,0.5620985924963195,0.00014364231391222903,0,31,[],0.007094766653608531,0.2026218666578643,['space'],126.23611140000867,126.23611140000867,0.2026218666578643,2.877766594183192,126.45051150000654,126.23611140000867,[-2.5353019000031054],,,,,,,,hnxrev,001,french,0,2022-07-25_14h54.29.387,Continuous,2022.1.1,None,
1,0,1,0,8,0,8,0,,,,,,,,2.6751447275253275,time,354.0,-1.0,7.887248739356936e-05,0,32,[],0.011100766656454653,None,['space'],129.1490009999834,129.1490009999834,0.2122709666728042,2.8874156941981317,129.36429739999585,129.1490009999834,[-2.511567399982596],,,,,,,,hnxrev,001,french,0,2022-07-25_14h54.29.387,Continuous,2022.1.1,None,
1,0,1,0,9,0,9,0,,,,,,,,2.6751447275253275,time,668.0,-1.282366774358179,4.126702597956857e-05,0,33,[],0.0111485667002853,None,['space'],132.0712746999925,132.0712746999925,0.21304496668744832,2.888189694212776,132.28591469998355,132.0712746999925,[-2.562094499997329],,,,,,,,hnxrev,001,french,0,2022-07-25_14h54.29.387,Continuous,2022.1.1,None,
1,0,1,0,10,0,10,0,,,,,,,,2.6751447275253275,time,397.0,-0.6221663615154513,7.198759481196902e-05,0,34,[],0.01094706667936407,None,['space'],134.9930638000078,134.9930638000078,0.2123444666794967,2.887489194204824,135.20469720000983,134.9930638000078,[-2.580174899980193],,,,,,,,hnxrev,001,french,0,2022-07-25_14h54.29.387,Continuous,2022.1.1,None,
1,0,1,0,11,0,11,0,,,,,,,,2.6751447275253275,time,1191.0,-1.0,4.6381968238644286e-05,0,35,[],0.010905166651355103,None,['space'],137.91233049999573,137.91233049999573,0.21218906666035764,2.887333794185685,138.12755040000775,137.91233049999573,[-2.587136499991175],,,,,,,,hnxrev,001,french,0,2022-07-25_14h54.29.387,Continuous,2022.1.1,None,
2,0,2,0,0,0,0,0,,,,,"[0.3333333333333333, 0.3333333333333333, 0.16666666666666666, 0.16666666666666666, 0.3333333333333333, 0.3333333333333333, 0.16666666666666666, 0.5833333333333334, 0.3333333333333333, 0.5833333333333334, 0.5833333333333334, 0.5833333333333334, 0.5833333333333334, 0.16666666666666666, 0.5833333333333334]",142.85689490000368,None,2.657005643628879,time,1304.0,-1.8191232963145705,4.312200144140705e-05,0,36,[],0.012742266670102254,None,None,143.87892389998888,None,0.21584546667872928,2.872851110307608,144.09186769998632,None,,140.8276504999958,None,,,,,,hnxrev,001,french,0,2022-07-25_14h54.29.387,Continuous,2022.1.1,None,
2,0,2,0,1,0,1,0,,,,,,,,2.657005643628879,time,581.0,-3.2626028780203717,4.039347323976659e-05,0,37,[],0.010432466660859063,None,None,146.7719889,146.7719889,0.21229126665275544,2.8692969102816344,146.98067620000802,146.7719889,,,,,,,,,hnxrev,001,french,0,2022-07-25_14h54.29.387,Continuous,2022.1.1,None,
2,0,2,0,2,0,2,0,,,,,,,,2.657005643628879,time,,,,1,37,[],0.010400566650787368,None,['space'],149.67058710000128,149.67058710000128,0.21004956666729413,2.867055210296173,149.8820204999938,149.67058710000128,[-2.449188899976434],,,,,,,,hnxrev,001,french,0,2022-07-25_14h54.29.387,Continuous,2022.1.1,None,
2,0,2,0,3,0,3,0,,,,,,,,2.657005643628879,time,922.0,-1.735048803832497,3.426043994061345e-05,0,38,[],0.01176806670264341,None,None,152.566911300004,152.566911300004,0.21532626668340527,2.872331910312284,152.78126610000618,152.566911300004,,,,,,,,,hnxrev,001,french,0,2022-07-25_14h54.29.387,Continuous,2022.1.1,None,
2,0,2,0,4,0,4,0,,,,,,,,2.657005643628879,time,652.0,-2.60613831523715,3.647292933613501e-05,0,39,[],0.004026966635137796,None,['space'],155.4705214999849,155.4705214999849,0.19696526663028635,2.8539709102591653,155.6819528999913,155.4705214999849,[-2.4657262999971863],,,,,,,,hnxrev,001,french,0,2022-07-25_14h54.29.387,Continuous,2022.1.1,None,
2,0,2,0,5,0,5,0,,,,,,,,2.657005643628879,time,732.0,-3.618214435172016,2.7836039839450392e-05,0,40,[],0.009654666646383703,None,['space'],158.36860129999695,158.36860129999695,0.20676706664380617,2.863772710272685,158.58034449999104,158.36860129999695,[-2.523178300005384],,,,,,,,hnxrev,001,french,0,2022-07-25_14h54.29.387,Continuous,2022.1.1,None,
2,0,2,0,6,0,6,0,,,,,,,,2.657005643628879,time,5527.0,-9.87646891517449,4.2760872532766664e-05,0,41,[],0.010660666652256623,None,['space'],161.271471199987,161.271471199987,0.21142806665739045,2.8684337102862694,161.48270610001055,161.271471199987,[-2.5551239000051282],,,,,,,,hnxrev,001,french,0,2022-07-25_14h54.29.387,Continuous,2022.1.1,None,
2,0,2,0,7,0,7,0,,,,,,,,2.657005643628879,time,3689.0,-2.776891652976127,5.700582730774656e-05,0,42,[],0.010598266671877354,None,['space'],164.1693699999887,164.1693699999887,0.21260376667487435,2.8696094103037533,164.38447059999453,164.1693699999887,[-2.4118576000037137],,,,,,,,hnxrev,001,french,0,2022-07-25_14h54.29.387,Continuous,2022.1.1,None,
2,0,2,0,8,0,8,0,,,,,,,,2.657005643628879,time,2462.0,-2.0,6.756004937466901e-05,0,43,[],0.010348566633183509,None,"['space', 'space']",167.06899130000966,167.06899130000966,0.21335296661709435,2.8703586102459733,167.29204939998453,167.06899130000966,"[-2.608137600007467, 0.13629709999077022]",,,,,,,,hnxrev,001,french,0,2022-07-25_14h54.29.387,Continuous,2022.1.1,None,
2,0,2,0,9,0,9,0,,,,,,,,2.657005643628879,time,1162.0,-1.7506792482676752,4.1550169411068975e-05,0,44,[],0.002109566645231098,0.19458866663626395,None,169.96958030000678,169.96958030000678,0.19458866663626395,2.851594310265143,170.1810828000016,169.96958030000678,,,,,,,,,hnxrev,001,french,0,2022-07-25_14h54.29.387,Continuous,2022.1.1,None,
2,0,2,0,10,0,10,0,,,,,,,,2.657005643628879,time,461.0,-1.733825974251331,6.014872351919306e-05,0,45,[],0.008591966645326465,None,['space'],172.86715249999543,172.86715249999543,0.2039166666509118,2.8609223102797907,173.07918770000106,172.86715249999543,[-2.5582661000080407],,,,,,,,hnxrev,001,french,0,2022-07-25_14h54.29.387,Continuous,2022.1.1,None,
3,0,3,0,0,0,0,0,,,,,"[0.16666666666666666, 0.3333333333333333, 0.3333333333333333, 0.3333333333333333, 0.3333333333333333, 0.16666666666666666, 0.3333333333333333, 0.5833333333333334, 0.3333333333333333, 0.5833333333333334, 0.5833333333333334, 0.3333333333333333, 0.5833333333333334, 0.5833333333333334, 0.5833333333333334]",177.73039559999597,None,2.1057345752630336,time,1866.0,-4.0,4.3385426257573074e-05,0,46,[],0.012996766658034176,None,None,178.76370569999563,None,0.21734766665031202,2.3230822419133457,178.9770256000047,None,,175.76886989999912,None,,,,,,hnxrev,001,french,0,2022-07-25_14h54.29.387,Continuous,2022.1.1,None,
3,0,3,0,1,0,1,0,,,,,,,,2.1057345752630336,time,1481.0,-3.6806514360634197,3.192699491943499e-05,0,47,[],3.846667823381722e-05,0.19373546668794006,['space'],181.1101498999924,181.1101498999924,0.19373546668794006,2.2994700419509737,181.32093329998315,181.1101498999924,[-1.8649876000126824],,,,,,,,hnxrev,001,french,0,2022-07-25_14h54.29.387,Continuous,2022.1.1,None,
3,0,3,0,2,0,2,0,,,,,,,,2.1057345752630336,time,554.0,-3.955647306823965,3.9966922176199406e-05,0,48,[],0.010153366631129757,None,['space'],183.45843669999158,183.45843669999158,0.21426056663040072,2.3199951418934344,183.6734165000089,183.45843669999158,[-1.982011500018416],,,,,,,,hnxrev,001,french,0,2022-07-25_14h54.29.387,Continuous,2022.1.1,None,
3,0,3,0,3,0,3,0,,,,,,,,2.1057345752630336,time,698.0,-4.177461987545479,2.7943460688231503e-05,0,49,[],0.009878066688543186,None,['space'],185.80776950001018,185.80776950001018,0.2136611666646786,2.3193957419277123,186.02088500000536,185.80776950001018,[-1.978599199996097],,,,,,,,hnxrev,001,french,0,2022-07-25_14h54.29.387,Continuous,2022.1.1,None,
3,0,3,0,4,0,4,0,,,,,,,,2.1057345752630336,time,440.0,0.9145395093312836,8.27836309204071e-05,0,50,[],0.009909266664180905,None,['space'],188.1569421000022,188.1569421000022,0.2115484666719567,2.3172830419349904,188.38010330000543,188.1569421000022,[-1.759645099984482],,,,,,,,hnxrev,001,french,0,2022-07-25_14h54.29.387,Continuous,2022.1.1,None,
3,0,3,0,5,0,5,0,,,,,,,,2.1057345752630336,time,2796.0,-2.973386941963516,4.79337505094175e-05,0,51,[],0.007805966655723751,None,['space'],190.502842899994,190.502842899994,0.20323696665582247,2.308971541918856,190.71700109998346,190.502842899994,[-1.9935216999729164],,,,,,,,hnxrev,001,french,0,2022-07-25_14h54.29.387,Continuous,2022.1.1,None,
3,0,3,0,6,0,6,0,,,,,,,,2.1057345752630336,time,988.0,-1.5153362335316636,3.671366331891346e-05,0,52,[],0.010055566643131897,None,['space'],192.85509120000643,192.85509120000643,0.2109652666549664,2.316699841918,193.05936569999903,192.85509120000643,[-1.9771898999752011],,,,,,,,hnxrev,001,french,0,2022-07-25_14h54.29.387,Continuous,2022.1.1,None,
3,0,3,0,7,0,7,0,,,,,,,,2.1057345752630336,time,349.0,-1.3862767125019468,7.654830325543448e-05,0,53,[],0.003072666673688218,0.1953354666766245,['space'],195.19595289998688,195.19595289998688,0.1953354666766245,2.301070041939658,195.4117006000015,195.19595289998688,[-2.0304826000065077],,,,,,,,hnxrev,001,french,0,2022-07-25_14h54.29.387,Continuous,2022.1.1,None,
3,0,3,0,8,0,8,0,,,,,,,,2.1057345752630336,time,,,,1,53,[],0.005137566680787131,None,['space'],197.5454250999901,197.5454250999901,0.19970016667502932,2.305434741938063,197.7592699000088,197.5454250999901,[-2.044598800013773],,,,,,,,hnxrev,001,french,0,2022-07-25_14h54.29.387,Continuous,2022.1.1,None,
3,0,3,0,9,0,9,0,,,,,,,,2.1057345752630336,time,4189.0,-5.728286945204863,5.01312878064514e-05,0,54,[],0.009773466706974432,None,['space'],199.8948349999846,199.8948349999846,0.21455376670928672,2.3202883419723204,200.1120823000092,199.8948349999846,[-1.5131299000058789],,,,,,,,hnxrev,001,french,0,2022-07-25_14h54.29.387,Continuous,2022.1.1,None,
3,0,3,0,10,0,10,0,,,,,,,,2.1057345752630336,time,277.0,-0.9772664562071705,0.00012410013370262184,0,55,[],0.008630966680357233,None,['space'],202.24939360001008,202.24939360001008,0.21268966665957123,2.318424241922605,202.46890740000526,202.24939360001008,[-1.9731953000009526],,,,,,,,hnxrev,001,french,0,2022-07-25_14h54.29.387,Continuous,2022.1.1,None,
3,0,3,0,11,0,11,0,,,,,,,,2.1057345752630336,time,784.0,-3.9569707172956217,2.4790147587911525e-05,0,56,[],0.009332566667580977,None,['space'],204.59517899999628,204.59517899999628,0.21869916666764766,2.3244337419306813,204.8215865000093,204.59517899999628,[-1.9733728999854065],,,,,,,,hnxrev,001,french,0,2022-07-25_14h54.29.387,Continuous,2022.1.1,None,
3,0,3,0,12,0,12,0,,,,,,,,2.1057345752630336,time,7908.0,-5.10528118503605,9.930764694068657e-05,0,57,[],0.009132366685662419,None,['space'],206.94711419998202,206.94711419998202,0.2232138666731771,2.3289484419362108,207.1677086999989,206.94711419998202,[-1.4387367999879643],,,,,,,,hnxrev,001,french,0,2022-07-25_14h54.29.387,Continuous,2022.1.1,None,
4,0,4,0,0,0,0,0,,,,,,210.78572590000113,None,1.2010125651160894,both,4002.0,-6.151687307498565,4.140921895716921e-05,0,25,[],0.012663666653679684,None,None,211.80172759998823,None,0.20619866665219888,1.4072112317682883,212.01547270000447,None,,209.29876519998652,None,0.5833333333333334,,,,,hnxrev,001,french,0,2022-07-25_14h54.29.387,Continuous,2022.1.1,None,
4,0,4,0,1,0,1,0,,,,,,,,1.2010125651160894,both,2671.0,-0.8094728118700381,6.857128572097027e-05,0,26,[],0.008891766658052802,None,None,213.24217109999154,213.24217109999154,0.2288286666444037,1.4298412317604932,213.46127259999048,213.24217109999154,,,,,,,,,hnxrev,001,french,0,2022-07-25_14h54.29.387,Continuous,2022.1.1,None,
4,0,4,0,2,0,2,0,,,,,,,,1.2010125651160894,both,1783.0,-1.861622493135515,5.247141988346161e-05,0,27,[],0.009431766666239128,None,['space'],214.68814069998916,214.68814069998916,0.22498746667406522,1.4260000317901547,214.91029790000175,214.68814069998916,[-1.0272609999810811],,,,,,,,hnxrev,001,french,0,2022-07-25_14h54.29.387,Continuous,2022.1.1,None,
4,0,4,0,3,0,3,0,,,,,,,,1.2010125651160894,both,1190.0,-1.0,4.634468977525088e-05,0,28,[],0.005869266664376482,None,['space'],216.1317229999986,216.1317229999986,0.2097551666374784,1.4107677317535678,216.34757330000866,216.1317229999986,[-1.0709349999960978],,,,,,,,hnxrev,001,french,0,2022-07-25_14h54.29.387,Continuous,2022.1.1,None,
4,0,4,0,4,0,4,0,,,,,,,,1.2010125651160894,both,794.0,-1.2660568300199833,3.33998305807772e-05,0,29,[],0.008855266642058268,None,['space'],217.58160889998544,217.58160889998544,0.22117646664264612,1.4221890317587356,217.79518250000547,217.58160889998544,[-1.113559699995676],,,,,,,,hnxrev,001,french,0,2022-07-25_14h54.29.387,Continuous,2022.1.1,None,
4,0,4,0,5,0,5,0,,,,,,,,1.2010125651160894,both,530.0,-1.5365759398540755,5.593942769499927e-05,0,30,[],0.003985666640801355,None,['space'],219.02089769998565,219.02089769998565,0.21160546664032154,1.412618031756411,219.24561209999956,219.02089769998565,[-1.1354199000052176],,,,,,,,hnxrev,001,french,0,2022-07-25_14h54.29.387,Continuous,2022.1.1,None,
4,0,4,0,6,0,6,0,,,,,,,,1.2010125651160894,both,354.0,-1.0,7.887248739356936e-05,0,31,[],0.014988733339123428,None,['space'],220.4781071000034,220.4781071000034,0.22488283333950676,1.4258953984555962,220.69724579999456,220.4781071000034,[-1.2090117999759968],,,,,,,,hnxrev,001,french,0,2022-07-25_14h54.29.387,Continuous,2022.1.1,None,
4,0,4,0,7,0,7,0,,,,,,,,1.2010125651160894,both,236.0,-0.9118808124912336,0.00017548627538937835,0,32,[],0.009103566640987992,None,['space'],221.91992660000687,221.91992660000687,0.21582876663887873,1.4168413317549682,222.1330665999849,221.91992660000687,[-1.1635291999846231],,,,,,,,hnxrev,001,french,0,2022-07-25_14h54.29.387,Continuous,2022.1.1,None,
4,0,4,0,8,0,8,0,,,,,,,,1.2010125651160894,both,158.0,0.48693514144806227,0.0004536595926675963,0,33,[],0.0053727666672784835,0.19407216666149907,['space'],223.35734689998208,223.35734689998208,0.19407216666149907,1.3950847317775885,223.564529700001,223.35734689998208,[-1.1288564999995288],,,,,,,,hnxrev,001,french,0,2022-07-25_14h54.29.387,Continuous,2022.1.1,None,
4,0,4,0,9,0,9,0,,,,,,,,1.2010125651160894,both,,,,1,33,[],0.0024687666445970535,None,['space'],224.80767390000983,224.80767390000983,0.22066886664833874,1.4216814317644282,225.01448979999986,224.80767390000983,[-1.1709626000083517],,,,,,,,hnxrev,001,french,0,2022-07-25_14h54.29.387,Continuous,2022.1.1,None,
5,0,5,0,0,0,0,0,,,,,,228.0103659000015,None,2.8597178678331794,both,1411.0,-2.4569119286379704,3.8067119843390155e-05,0,34,[],0.01288936665514484,None,['space'],229.05431360000512,None,0.20915766665712,3.0688755344902994,229.25846620000084,None,[-0.3452728999836836],226.2520128999895,None,0.5833333333333334,,,,,hnxrev,001,french,0,2022-07-25_14h54.29.387,Continuous,2022.1.1,None,
5,0,5,0,1,0,1,0,,,,,,,,2.8597178678331794,both,942.0,-1.714163020356012,3.48095520878834e-05,0,35,[],0.006272366648772731,0.2023629666364286,None,232.14740109999548,232.14740109999548,0.2023629666364286,3.062080834469608,232.35741170000983,232.14740109999548,,,,,,,,,hnxrev,001,french,0,2022-07-25_14h54.29.387,Continuous,2022.1.1,None,
5,0,5,0,2,0,2,0,,,,,,,,2.8597178678331794,both,629.0,-4.278792568607642,3.135830065732299e-05,0,36,[],0.008934366662288085,None,['space'],235.249040900002,235.249040900002,0.20883726666215807,3.0685551344953375,235.45646319998195,235.249040900002,[-2.7326892999990378],,,,,,,,hnxrev,001,french,0,2022-07-25_14h54.29.387,Continuous,2022.1.1,None,
5,0,5,0,3,0,3,0,,,,,,,,2.8597178678331794,both,420.0,0.9766040616362741,8.452082086383732e-05,0,37,[],0.008894466707715765,None,['space'],238.35121439999784,238.35121439999784,0.21249596669804305,3.0722138345312224,238.56054410000797,238.35121439999784,[-2.577728299977025],,,,,,,,hnxrev,001,french,0,2022-07-25_14h54.29.387,Continuous,2022.1.1,None,
5,0,5,0,4,0,4,0,,,,,,,,2.8597178678331794,both,280.0,-1.8190092582278299,0.00011006033411100422,0,38,[],0.0005418666696641594,0.1959223666926846,['space'],241.446824499988,241.446824499988,0.1959223666926846,3.055640234525864,241.66431049999665,241.446824499988,[-2.681888199993409],,,,,,,,hnxrev,001,french,0,2022-07-25_14h54.29.387,Continuous,2022.1.1,None,
5,0,5,0,5,0,5,0,,,,,,,,2.8597178678331794,both,187.0,-3.0852621149790083,0.00021927386967899839,0,39,[],0.006094366661272943,None,['space'],244.5428111999936,244.5428111999936,0.20214586664224043,3.06186373447542,244.75314879999496,244.5428111999936,[-2.665560000023106],,,,,,,,hnxrev,001,french,0,2022-07-25_14h54.29.387,Continuous,2022.1.1,None,
5,0,5,0,6,0,6,0,,,,,,,,2.8597178678331794,both,125.0,-4.0,0.00045600541967795504,0,40,[],0.008916966646211222,None,['space'],247.64563929999713,247.64563929999713,0.20887796665192582,3.068595834485105,247.8531008999853,247.64563929999713,[-2.7204021000070497],,,,,,,,hnxrev,001,french,0,2022-07-25_14h54.29.387,Continuous,2022.1.1,None,
5,0,5,0,7,0,7,0,,,,,,,,2.8597178678331794,both,,,,1,40,[],0.012222533317981288,0.20724543332471512,['space'],250.7513539000065,250.7513539000065,0.20724543332471512,3.0669633011578945,250.96971380000468,250.7513539000065,[-2.713295300025493],,,,,,,,hnxrev,001,french,0,2022-07-25_14h54.29.387,Continuous,2022.1.1,None,
6,0,6,0,0,0,0,0,,,,,,255.75010340000154,None,2.2938374207700485,both,7908.0,-8.600081571164305,6.641140560877003e-05,0,41,[],0.013106166647048667,None,None,256.7737650999916,None,0.20626286664628424,2.5001002874163327,256.9815106999886,None,,253.85426079999888,None,0.5833333333333334,,,,,hnxrev,001,french,0,2022-07-25_14h54.29.387,Continuous,2022.1.1,None,
6,0,6,0,1,0,1,0,,,,,,,,2.2938374207700485,both,5278.0,-9.0,5.0558934430429754e-05,0,42,[],0.0013606667052954435,None,None,259.30028799999855,259.30028799999855,0.19813816668465734,2.491975587454706,259.5177958999993,259.30028799999855,,,,,,,,,hnxrev,001,french,0,2022-07-25_14h54.29.387,Continuous,2022.1.1,None,
6,0,6,0,2,0,2,0,,,,,,,,2.2938374207700485,both,3523.0,-4.168792034621308,4.676188058338642e-05,0,43,[],0.008639966661576182,None,['space'],261.8395148999989,261.8395148999989,0.21139886666787788,2.5052362874379264,262.0512328000041,261.8395148999989,[-2.138694699999178],,,,,,,,hnxrev,001,french,0,2022-07-25_14h54.29.387,Continuous,2022.1.1,None,
6,0,6,0,3,0,3,0,,,,,,,,2.2938374207700485,both,2351.0,-2.1779986309654737,6.42747887106664e-05,0,44,[],0.0078044666443020105,None,['space'],264.380073599983,264.380073599983,0.21653746665106155,2.51037488742111,264.5977864000015,264.380073599983,[-2.159300200000871],,,,,,,,hnxrev,001,french,0,2022-07-25_14h54.29.387,Continuous,2022.1.1,None,
6,0,6,0,4,0,4,0,,,,,,,,2.2938374207700485,both,1569.0,-6.510481453561136,2.5581575432413238e-05,0,45,[],0.0049131666601169854,None,None,266.9181154999824,266.9181154999824,0.2007477666484192,2.4945851874184677,267.1332083999878,266.9181154999824,,,,,,,,,hnxrev,001,french,0,2022-07-25_14h54.29.387,Continuous,2022.1.1,None,
6,0,6,0,5,0,5,0,,,,,,,,2.2938374207700485,both,,,,1,45,[],0.001449066650820896,0.19492896666633897,None,269.46100439998554,269.46100439998554,0.19492896666633897,2.4887663874363875,269.67386029998306,269.46100439998554,,,,,,,,,hnxrev,001,french,0,2022-07-25_14h54.29.387,Continuous,2022.1.1,None,
6,0,6,0,6,0,6,0,,,,,,,,2.2938374207700485,both,699.0,-6.701494677760374,2.0856200358749816e-05,0,46,[],0.00993356664548628,None,None,271.99807390000205,271.99807390000205,0.21333846665220335,2.507175887422252,272.2125095000083,271.99807390000205,,,,,,,,,hnxrev,001,french,0,2022-07-25_14h54.29.387,Continuous,2022.1.1,None,
6,0,6,0,7,0,7,0,,,,,,,,2.2938374207700485,both,467.0,-6.450377324077919,3.480022059647313e-05,0,47,[],0.00809366669273004,None,['space'],274.5398118000012,274.5398118000012,0.20956156667671166,2.50339898744676,274.75177780000377,274.5398118000012,[-1.9904001999821048],,,,,,,,hnxrev,001,french,0,2022-07-25_14h54.29.387,Continuous,2022.1.1,None,
6,0,6,0,8,0,8,0,,,,,,,,2.2938374207700485,both,312.0,-3.6527607597774105,6.685086413542901e-05,0,48,[],0.006920466665178537,0.20431616666610353,None,277.0772815000091,277.0772815000091,0.20431616666610353,2.498153587436152,277.2798694999947,277.0772815000091,,,,,,,,,hnxrev,001,french,0,2022-07-25_14h54.29.387,Continuous,2022.1.1,None,
6,0,6,0,9,0,9,0,,,,,,,,2.2938374207700485,both,208.0,-4.8644279375144555,0.00014266473023497319,0,49,[],0.008529566664947197,None,['space'],279.60699100000784,279.60699100000784,0.21110686665633693,2.5049442874263854,279.8212540000095,279.60699100000784,[-2.010080599982757],,,,,,,,hnxrev,001,french,0,2022-07-25_14h54.29.387,Continuous,2022.1.1,None,
7,0,7,0,0,0,0,0,,,,,"[0.16666666666666666, 0.5833333333333334, 0.5833333333333334, 0.3333333333333333, 0.3333333333333333, 0.16666666666666666, 0.5833333333333334, 0.5833333333333334, 0.3333333333333333, 0.16666666666666666, 0.5833333333333334, 0.5833333333333334, 0.16666666666666666, 0.5833333333333334, 0.3333333333333333]",284.43393490000744,None,1.4256307337556544,time,530.0,-5.313169775408232,3.621498645481632e-05,0,58,[],0.012900166650069878,None,None,285.45731130000786,None,0.22113656665896997,1.6467673004146244,285.6717540999816,None,,282.1482338999922,None,,,,,,hnxrev,001,french,0,2022-07-25_14h54.29.387,Continuous,2022.1.1,None,
7,0,7,0,1,0,1,0,,,,,,,,1.4256307337556544,time,125.0,-6.0,0.00036221798003749513,0,59,[],0.008177166688255966,None,None,287.11976889998186,287.11976889998186,0.2090490666741971,1.6346798004298515,287.3289703000046,287.11976889998186,,,,,,,,,hnxrev,001,french,0,2022-07-25_14h54.29.387,Continuous,2022.1.1,None,
7,0,7,0,2,0,2,0,,,,,,,,1.4256307337556544,time,140.0,-1.862566601426915,0.0004754643181031206,0,60,[],0.008233066648244858,None,None,288.7884485999821,288.7884485999821,0.21017486666096374,1.6358056004166182,288.999874000001,288.7884485999821,,,,,,,,,hnxrev,001,french,0,2022-07-25_14h54.29.387,Continuous,2022.1.1,None,
7,0,7,0,3,0,3,0,,,,,,,,1.4256307337556544,time,354.0,-3.0650113024042103,6.218347273091709e-05,0,61,[],0.0060035666974727064,None,['space'],290.4574580999906,290.4574580999906,0.20176956668728963,1.627400300442944,290.6692478999903,290.4574580999906,[-1.2277854999992996],,,,,,,,hnxrev,001,french,0,2022-07-25_14h54.29.387,Continuous,2022.1.1,None,
7,0,7,0,4,0,4,0,,,,,,,,1.4256307337556544,time,315.0,-4.544863914392056,5.8442233971926246e-05,0,62,[],0.006861666654003784,None,None,292.12587749998784,292.12587749998784,0.20823436666978523,1.6338651004254396,292.3422978000017,292.12587749998784,,,,,,,,,hnxrev,001,french,0,2022-07-25_14h54.29.387,Continuous,2022.1.1,None,
7,0,7,0,5,0,5,0,,,,,,,,1.4256307337556544,time,,,,1,62,[],0.0042669666290748864,None,['space'],293.79680399998324,293.79680399998324,0.19918616663198918,1.6248169003876436,294.0106362999941,293.79680399998324,[-1.127467499987688],,,,,,,,hnxrev,001,french,0,2022-07-25_14h54.29.387,Continuous,2022.1.1,None,
7,0,7,0,6,0,6,0,,,,,,,,1.4256307337556544,time,668.0,-5.436163513531725,2.558075359647184e-05,0,63,[],0.006156666669994593,0.19885036666528322,['space'],295.46420769998804,295.46420769998804,0.19885036666528322,1.6244811004209376,295.668769699987,295.46420769998804,[-0.14794090000214055],,,,,,,,hnxrev,001,french,0,2022-07-25_14h54.29.387,Continuous,2022.1.1,None,
7,0,7,0,7,0,7,0,,,,,,,,1.4256307337556544,time,210.0,-3.4301467532419876,0.00016563932158762855,0,64,[],0.008178166637662798,0.20589826663490385,None,297.12594420000096,297.12594420000096,0.20589826663490385,1.6315290003905583,297.33568069999455,297.12594420000096,,,,,,,,,hnxrev,001,french,0,2022-07-25_14h54.29.387,Continuous,2022.1.1,None,
8,0,8,0,0,0,0,0,,,,,,300.3537170999916,None,2.323807745069783,frequency,1416.0,-1.6363001485213409,4.1736114528973885e-05,0,25,[],0.012800266646081582,None,None,301.38209880000795,None,0.23058556666364893,2.554393311733432,301.59570330000133,None,,298.7851842000091,None,0.3333333333333333,,,,,hnxrev,001,french,0,2022-07-25_14h54.29.387,Continuous,2022.1.1,None,
8,0,8,0,1,0,1,0,,,,,,,,1.3921897644224324,frequency,1124.0,-0.8893161878346695,4.4447104754237894e-05,0,26,[],0.0007462666544597596,None,None,303.94676689998596,303.94676689998596,0.19919616664992645,1.5913859310723588,304.16322180000134,303.94676689998596,,,,,,,,,hnxrev,001,french,0,2022-07-25_14h54.29.387,Continuous,2022.1.1,None,
8,0,8,0,2,0,2,0,,,,,,,,1.9629505739558564,frequency,892.0,-1.0955729235167684,3.612633241282688e-05,0,27,[],0.00798676666454412,None,['space'],305.5888582000043,305.5888582000043,0.2091140666452702,2.1720646406011266,305.8009558999911,305.5888582000043,[-1.2246884999913163],,,,,,,,hnxrev,001,french,0,2022-07-25_14h54.29.387,Continuous,2022.1.1,None,
8,0,8,0,3,0,3,0,,,,,,,,1.0815951312002956,frequency,708.0,-3.5642886151412756,2.940563632982576e-05,0,28,[],0.013291733310325071,None,['space'],307.80218110000715,307.80218110000715,0.23751563331461512,1.3191107645149107,308.0364397999947,307.80218110000715,[-1.8131434999813791],,,,,,,,hnxrev,001,french,0,2022-07-25_14h54.29.387,Continuous,2022.1.1,None,
8,0,8,0,4,0,4,0,,,,,,,,1.0491013231876398,frequency,562.0,-2.0004652619034142,4.906515153754142e-05,0,29,[],0.007851766655221581,None,['space'],309.1425196999917,309.1425196999917,0.2088251666573342,1.257926489844974,309.3493073999998,309.1425196999917,[-1.049111999978777],,,,,,,,hnxrev,001,french,0,2022-07-25_14h54.29.387,Continuous,2022.1.1,None,
8,0,8,0,5,0,5,0,,,,,,,,2.369854605385769,frequency,446.0,0.9256725224603886,8.254874772620175e-05,0,30,[],0.006354466633638367,None,['space'],310.42845509998733,310.42845509998733,0.20355916663538665,2.573413772021156,310.6408958999964,310.42845509998733,[-0.8882084999931976],,,,,,,,hnxrev,001,french,0,2022-07-25_14h54.29.387,Continuous,2022.1.1,None,
8,0,8,0,6,0,6,0,,,,,,,,1.250799744756263,frequency,354.0,-1.0,7.887248739356936e-05,0,31,[],0.007826966670108959,None,['space'],313.04244809999363,313.04244809999363,0.20996146666584536,1.4607612114221085,313.2564352999907,313.04244809999363,[-2.3094314000045415],,,,,,,,hnxrev,001,french,0,2022-07-25_14h54.29.387,Continuous,2022.1.1,None,
8,0,8,0,7,0,7,0,,,,,,,,1.2335208880278623,frequency,281.0,-0.5867839931395666,0.0001258456659252499,0,32,[],0.01612593329627998,None,['space'],314.54347599999164,314.54347599999164,0.21442613331601024,1.4479470213438725,314.7562939999916,314.54347599999164,[-1.1463158999977168],,,,,,,,hnxrev,001,french,0,2022-07-25_14h54.29.387,Continuous,2022.1.1,None,
8,0,8,0,8,0,8,0,,,,,,,,2.9778119189300893,frequency,223.0,-0.8900681874543934,0.0001989163338338728,0,33,[],0.0029338666645344347,None,['space'],316.0215435999853,316.0215435999853,0.19665516665554605,3.1744670855856354,316.23592439998174,316.0215435999853,[-1.1125749000057112],,,,,,,,hnxrev,001,french,0,2022-07-25_14h54.29.387,Continuous,2022.1.1,None,
8,0,8,0,9,0,9,0,,,,,,,,2.8264737261415087,frequency,177.0,-0.09241157523916554,0.0003455120834036274,0,34,[],0.007314666640013456,None,['space'],319.24896179998177,319.24896179998177,0.21151556662516668,3.0379892927666754,319.4560571000038,319.24896179998177,[-2.8839681999816094],,,,,,,,hnxrev,001,french,0,2022-07-25_14h54.29.387,Continuous,2022.1.1,None,
8,0,8,0,10,0,10,0,,,,,,,,1.9260888388967619,frequency,140.0,-0.20699652611836872,0.0005753027288261129,0,35,[],0.0075576666567940265,None,['space'],322.31869610000285,322.31869610000285,0.21222586667863652,2.1383147055753984,322.5282360999845,322.31869610000285,[-2.7378911999985576],,,,,,,,hnxrev,001,french,0,2022-07-25_14h54.29.387,Continuous,2022.1.1,None,
8,0,8,0,11,0,11,0,,,,,,,,2.275192515441529,frequency,,,,1,35,[],0.006953566655283794,None,['space'],324.48815409999224,324.48815409999224,0.20881846666452475,2.484010982106054,324.6984319000039,324.48815409999224,[-1.8587745999975596],,,,,,,,hnxrev,001,french,0,2022-07-25_14h54.29.387,Continuous,2022.1.1,None,
9,0,9,0,0,0,0,0,,,,,"[0.16666666666666666, 0.16666666666666666, 0.3333333333333333, 0.3333333333333333, 0.16666666666666666, 0.16666666666666666, 0.5833333333333334, 0.5833333333333334, 0.5833333333333334, 0.5833333333333334, 0.5833333333333334, 0.16666666666666666, 0.3333333333333333, 0.5833333333333334, 0.3333333333333333]",329.0299696000002,None,2.4376059864116506,none,494.0,-1.9006578104892418,5.764966036239684e-05,0,36,[],0.012887166638392955,None,None,330.0683069000079,None,0.22127486663521267,2.6588808530468633,330.28493409999646,None,,327.0064777999942,None,,,,,,hnxrev,001,french,0,2022-07-25_14h54.29.387,Continuous,2022.1.1,None,
9,0,9,0,1,0,1,0,,,,,,,,1.785058755471061,none,,,,1,36,[],0.007111566636012867,None,None,332.74700279999524,332.74700279999524,0.21004946663742885,1.99510822210849,332.95866030000616,332.74700279999524,,,,,,,,,hnxrev,001,french,0,2022-07-25_14h54.29.387,Continuous,2022.1.1,None,
9,0,9,0,2,0,2,0,,,,,,,,1.5138107144964865,none,698.0,-2.2346924027438666,3.494770571820473e-05,0,37,[],0.003813966643065214,None,None,334.7739781999844,334.7739781999844,0.1988697666383814,1.712680481134868,334.98928889998933,334.7739781999844,,,,,,,,,hnxrev,001,french,0,2022-07-25_14h54.29.387,Continuous,2022.1.1,None,
9,0,9,0,3,0,3,0,,,,,,,,1.1746359983681938,none,2639.0,-2.0,6.136784513124972e-05,0,38,[],0.0064814666693564504,None,['space'],336.5409610999923,336.5409610999923,0.21562456668470986,1.3902605650529036,336.7527814999921,336.5409610999923,[-1.3675215999828652],,,,,,,,hnxrev,001,french,0,2022-07-25_14h54.29.387,Continuous,2022.1.1,None,
9,0,9,0,4,0,4,0,,,,,,,,2.738621979678264,none,5924.0,-4.04159258654911,7.451948609087793e-05,0,39,[],0.007077966642100364,None,None,337.95181860000594,337.95181860000594,0.20975676664966159,2.9483787463279256,338.1653004999971,337.95181860000594,,,,,,,,,hnxrev,001,french,0,2022-07-25_14h54.29.387,Continuous,2022.1.1,None,
9,0,9,0,5,0,5,0,,,,,,,,1.9220392099861152,none,3954.0,-5.0058869621499404,4.6717285610407713e-05,0,40,[],0.01656643330352381,None,['space'],340.9376023999939,340.9376023999939,0.21410903331707232,2.1361482433031878,341.15538799998467,340.9376023999939,[-2.700803799991263],,,,,,,,hnxrev,001,french,0,2022-07-25_14h54.29.387,Continuous,2022.1.1,None,
9,0,9,0,6,0,6,0,,,,,,,,2.634770729910561,none,392.0,1.9093240680714614,9.796283733754627e-05,0,41,[],0.0068848666560370475,None,['space'],343.1132742000045,343.1132742000045,0.2071020666626282,2.841872796573189,343.3238779999956,343.1132742000045,[-1.8521706000028644],,,,,,,,hnxrev,001,french,0,2022-07-25_14h54.29.387,Continuous,2022.1.1,None,
9,0,9,0,7,0,7,0,,,,,,,,1.35310362538996,none,1761.0,-2.008146409780646,5.080537285547441e-05,0,42,[],0.014502733334666118,None,"['space', 'space']",345.99940269999206,345.99940269999206,0.2263691333355382,1.5794727587254982,346.22087250000914,345.99940269999206,"[-2.434722600009991, -0.17796550001366995]",,,,,,,,hnxrev,001,french,0,2022-07-25_14h54.29.387,Continuous,2022.1.1,None,
9,0,9,0,8,0,8,0,,,,,,,,2.545842406342631,none,622.0,-2.3037734425493652,4.020198226332985e-05,0,43,[],0.0030966666527092457,0.19842556666117162,None,347.60311520000687,347.60311520000687,0.19842556666117162,2.7442679730038027,347.81798439999693,347.60311520000687,,,,,,,,,hnxrev,001,french,0,2022-07-25_14h54.29.387,Continuous,2022.1.1,None,
9,0,9,0,9,0,9,0,,,,,,,,1.5186234488408545,none,349.0,0.1390999178241885,9.124401772971414e-05,0,44,[],0.006919066683622077,None,None,350.39789220000966,350.39789220000966,0.21176386668230407,1.7303873155231586,350.60906519999844,350.39789220000966,,,,,,,,,hnxrev,001,french,0,2022-07-25_14h54.29.387,Continuous,2022.1.1,None,
9,0,9,0,10,0,10,0,,,,,,,,1.1630056323198539,none,1175.0,-1.6655741593827926,4.240815464674421e-05,0,45,[],0.0029003666422795504,0.19557886666734703,['space'],352.1573805999942,352.1573805999942,0.19557886666734703,1.358584498987201,352.3757634999929,352.1573805999942,[-1.4172344999969937],,,,,,,,hnxrev,001,french,0,2022-07-25_14h54.29.387,Continuous,2022.1.1,None,
9,0,9,0,11,0,11,0,,,,,,,,1.1730054495734568,none,6649.0,-6.302769218700363,6.804664241186305e-05,0,46,[],0.0024661666830070317,None,['space'],353.5590884999838,353.5590884999838,0.19850096668233164,1.3715064162557884,353.7789916000038,353.5590884999838,[-0.8822482999821659],,,,,,,,hnxrev,001,french,0,2022-07-25_14h54.29.387,Continuous,2022.1.1,None,
10,0,10,0,0,0,0,0,,,,,"[0.3333333333333333, 0.3333333333333333, 0.16666666666666666, 0.3333333333333333, 0.3333333333333333, 0.16666666666666666, 0.5833333333333334, 0.3333333333333333, 0.16666666666666666, 0.5833333333333334, 0.5833333333333334, 0.5833333333333334, 0.3333333333333333, 0.3333333333333333, 0.16666666666666666]",357.48319609998725,None,2.229986102856402,time,1335.0,-6.921415024124385,2.3618475384083444e-05,0,65,['time'],0.012703966669505462,None,None,358.513690199994,None,0.22887406666995957,2.4588601695263614,358.7199158000003,None,,354.9851306999917,None,,"{'estimation': [[125.0, -2.2303523262892293], [130.78368259526462, -2.0], [133.9716828170366, -1.8825500181599075], [143.5872943746293, -1.5411043746079347], [153.89305166811442, -1.1973826684313438], [160.12290287564733, -1.0], [164.93848884661162, -0.8492147160108867], [176.77669529663666, -0.5385204454299058], [189.46457081379947, -0.3146667839954636], [203.0630990890585, -0.24362707716977683], [217.6376408240306, -0.3922365145107329], [233.25824788420132, -0.8009809312845907], [238.04743939768218, -1.0], [249.99999999999937, -1.469968828296344], [260.9281276721509, -2.0], [267.94336563407256, -2.3254996748378707], [281.8598345530854, -3.0], [287.1745887492579, -3.247254404572778], [305.6311485555988, -4.0], [307.78610333622805, -4.085919732706891], [329.87697769322244, -4.706202390696625], [352.17915268541617, -5.0], [353.55339059327247, -5.018555231979316], [378.9291416275976, -5.012375629751704], [380.19131291272333, -5.0], [406.12619817811606, -4.76310052520687], [435.2752816480596, -4.417317831694023], [466.5164957684015, -4.1334971117157515], [499.9999999999981, -4.049462462593667], [535.8867312681438, -4.222643703308907], [574.3491774985143, -4.587182067864003], [615.217495390199, -5.0], [615.5722066724546, -5.003542699571886], [659.7539553864432, -5.275344774748515], [707.1067811865431, -5.214377299768388], [728.9539430815288, -5.0], [757.8582832551941, -4.728781904212819], [803.4079501524755, -4.0], [812.2523963562301, -3.862323378551651], [857.5903157007065, -3.0], [870.5505632961181, -2.763542174220163], [913.2156619098957, -2.0], [933.0329915368008, -1.6596850827315555], [983.0171332536287, -1.0], [999.9999999999926, -0.7814569292419922], [1071.773462536285, -0.3055924396526886], [1148.698354997026, -0.2786024856509849], [1231.1444133449063, -0.644633183153386], [1280.5070966830992, -1.0], [1319.5079107728832, -1.2795667740877312], [1414.2135623730828, -1.996563121987883], [1414.732116480275, -2.0], [1515.7165665103846, -2.6575200604433133], [1585.900900650608, -3.0], [1624.5047927124563, -3.1889055225987573], [1741.1011265922318, -3.566409800336353], [1866.065983073597, -3.843604115575477], [1951.2311089441912, -4.0], [1999.9999999999802, -4.0878745838736705], [2143.5469250725646, -4.346415308470444], [2297.396709994046, -4.643879223101074], [2462.2888266898062, -4.9808291723191624], [2471.349425154995, -5.0], [2639.01582154576, -5.338993993219927], [2828.427124746159, -5.696541617894738], [2989.3846808710596, -6.0], [3031.4331330207615, -6.077888061811573], [3249.0095854249043, -6.514472619806601], [3454.9465006650207, -7.0], [3482.2022531844596, -7.062748855709301], [3732.1319661471844, -7.764533591521551], [3802.502862469845, -8.0], [3999.9999999999504, -8.63624656366474], [4103.252846083162, -9.0], [4287.093850145118, -9.631149749009637], [4396.835251913854, -10.0], [4594.793419988081, -10.653225640820754], [4718.554916378629, -11.0], [4924.577653379601, -11.568153719250903], [5155.285157622032, -12.0], [5278.031643091506, -12.228457375725146], [5656.854249492303, -12.509883475862186], [6062.866266041508, -12.346782700553014], [6302.880361029817, -12.0], [6498.019170849792, -11.73445014710086], [6842.655484856861, -11.0], [6964.404506368894, -10.752692653162812], [7267.127260508697, -10.0], [7464.2639322943505, -9.525513139789163], [7678.107585773786, -9.0], [7999.999999999882, -8.200014327359552]], 'plus_line': [[125.0, -4.869193646090772], [133.97168281703668, -4.40196280944696], [143.5872943746293, -4.042245288033377], [144.92919950496713, -4.0], [153.89305166811442, -3.760610506041677], [164.93848884661162, -3.462634114453891], [176.77669529663666, -3.1326996598914265], [182.44882193392564, -3.0], [189.46457081379947, -2.8637470011037864], [203.0630990890585, -2.755511497868195], [217.6376408240306, -2.8706062827116057], [222.7493548297741, -3.0], [233.25824788420132, -3.2851302498210475], [249.99999999999937, -3.9287356904257447], [251.4761764760221, -4.0], [267.94336563407256, -4.788419468015184], [272.29082171783375, -5.0], [287.1745887492579, -5.717667866528934], [293.92914934628976, -6.0], [307.78610333622805, -6.5864702023910455], [321.9514253583576, -7.0], [329.87697769322244, -7.248442269231205], [353.55339059327247, -7.616393696203071], [378.929141627598, -7.642634564281323], [406.12619817811606, -7.387750944609639], [431.859721847036, -7.0], [435.2752816480601, -6.956683893063921], [466.5164957684015, -6.598326268593875], [499.9999999999975, -6.4083764178029865], [535.8867312681438, -6.483647504133315], [574.3491774985143, -6.780767412577379], [597.6484211407595, -7.0], [615.5722066724546, -7.188060896625708], [659.7539553864432, -7.48510400877655], [707.1067811865431, -7.454367606968511], [753.3735390790482, -7.0], [757.8582832551941, -6.96130997016308], [812.2523963562301, -6.091230319666672], [816.8000488540047, -6.0], [867.8765918783213, -5.0], [870.5505632961181, -4.950599765713524], [922.6786118102538, -4.0], [933.0329915368008, -3.8191240799461736], [993.2797561805017, -3.0], [999.9999999999926, -2.9142601655277582], [1071.773462536285, -2.4617532593385487], [1148.6983549970273, -2.4682298148061363], [1231.1444133449063, -2.8796941749964464], [1246.30774676547, -3.0], [1319.5079107728832, -3.607761450335278], [1365.9146873589957, -4.0], [1414.2135623730828, -4.427514642332086], [1492.1228073353261, -5.0], [1515.7165665103846, -5.184622906610253], [1624.5047927124563, -5.802275459179537], [1676.213194183176, -6.0], [1741.1011265922318, -6.272172668825893], [1866.065983073597, -6.6144116866176095], [1999.9999999999802, -6.887530614653004], [2058.9117489927644, -7.0], [2143.5469250725646, -7.178964841391289], [2297.396709994046, -7.493556571245231], [2462.2888266898062, -7.81354895822971], [2560.5787981887797, -8.0], [2639.01582154576, -8.162317171651203], [2828.427124746159, -8.527123985438623], [3031.4331330207615, -8.885035058491644], [3091.0761178230687, -9.0], [3249.0095854249043, -9.32211493210561], [3482.2022531844555, -9.83645146888639], [3541.012934975513, -10.0], [3732.1319661471844, -10.536686815445508], [3872.755424373392, -11.0], [3999.9999999999554, -11.417882808885302], [4159.031588872168, -12.0], [4287.093850145118, -12.459909790036459], [4437.341240513395, -13.0], [4594.793419988081, -13.555553996705587], [4742.764641299481, -14.0], [4924.577653379601, -14.546904746625689], [5153.395244670954, -15.0], [5278.0316430915, -15.258801142442902], [5656.854249492303, -15.56612951451393], [6062.866266041508, -15.384135306036342], [6300.246774167285, -15.0], [6498.019170849792, -14.716037718785767], [6810.653483930502, -14.0], [6964.404506368894, -13.66762860484581], [7228.406127325934, -13.0], [7464.2639322943505, -12.40823154427547], [7640.96304029366, -12.0], [7999.999999999882, -11.144107371742011]], 'minus_line': [[125.0, 0.427422648257398], [133.9716828170366, 0.6458163959645461], [143.5872943746293, 0.9846864560553763], [143.97850269982862, 1.0], [153.89305166811442, 1.4223791364315796], [164.93848884661162, 1.8029679037567858], [172.5676154799197, 2.0], [176.77669529663666, 2.120863453221669], [189.46457081379947, 2.3340735835380113], [203.0630990890585, 2.370912512935405], [217.6376408240306, 2.1783544470642537], [223.242827778894, 2.0], [233.25824788420132, 1.7310219903064805], [249.96512237844684, 1.0], [249.99999999999937, 0.9986141965981372], [267.94336563407256, 0.09124961431161482], [269.59851857039206, 0.0], [287.1745887492579, -0.8938669540454591], [289.46179019952, -1.0], [307.78610333622805, -1.7693438714840153], [315.2843656337644, -2.0], [329.87697769322244, -2.3960693928358197], [353.55339059327247, -2.676679515295421], [378.929141627598, -2.6275721380862214], [406.12619817811606, -2.3553855131260755], [435.2752816480601, -2.0290550449545566], [439.0632762223887, -2.0], [466.5164957684015, -1.7715646306148343], [499.9999999999975, -1.7602362017412305], [530.8100606343476, -2.0], [535.8867312681438, -2.032244632217246], [574.3491774985143, -2.443808375902245], [615.5722066724546, -2.9155165128752403], [627.3026373167044, -3.0], [659.7539553864432, -3.188843326698382], [707.1067811865431, -3.1203804930392973], [719.4365018363665, -3.0], [757.8582832551941, -2.6020193402519913], [795.3477902958601, -2.0], [812.2523963562301, -1.725643413931519], [849.6371442392107, -1.0], [870.5505632961181, -0.6130559595190209], [904.1039259358006, 0.0], [933.0329915368008, 0.5055051448907573], [969.9040565302421, 1.0], [999.9999999999926, 1.4083186230208788], [1071.773462536285, 1.9035022845477794], [1148.698354997026, 1.9717774164195505], [1231.1444133449063, 1.6781482418824478], [1319.5079107728832, 1.1091657860143025], [1334.8698477028706, 1.0], [1414.2135623730828, 0.4890637323348134], [1497.0027030783199, 0.0], [1515.7165665103864, -0.10303087107877677], [1624.5047927124563, -0.5260114632046069], [1741.1011265922318, -0.8452539327417838], [1818.323979637141, -1.0], [1866.0659830735992, -1.0819927362925648], [1999.9999999999802, -1.2875349517381398], [2143.5469250725646, -1.5416024855464179], [2297.396709994046, -1.8761182573843729], [2347.287151599428, -2.0], [2462.2888266898035, -2.242032265232453], [2639.01582154576, -2.611911920437426], [2826.8609110960424, -3.0], [2828.427124746159, -3.002861119660308], [3031.4331330207656, -3.362040560247216], [3249.0095854249043, -3.804200751008693], [3323.9921631561865, -4.0], [3482.2022531844555, -4.365502448989146], [3693.8689076338665, -5.0], [3732.1319661471844, -5.10602299305307], [3999.9999999999504, -5.996587535743609], [4000.949226312899, -6.0], [4287.093850145118, -6.983359350698819], [4292.030048139226, -7.0], [4594.793419988081, -7.981896520882784], [4601.186816664081, -8.0], [4924.577653379601, -8.859284324436818], [4996.82924804807, -9.0], [5278.031643091506, -9.493735887073383], [5656.854249492303, -9.775842471141026], [6062.866266041508, -9.618782734924958], [6498.019170849792, -9.04941223004768], [6521.1482496757335, -9.0], [6964.4045063688845, -8.083536957329779], [6997.00424427634, -8.0], [7388.115551034901, -7.0], [7464.2639322943505, -6.816713842133314], [7755.933019370421, -6.0], [7999.999999999892, -5.356371974894365]]}",,,,hnxrev,001,french,0,2022-07-25_14h54.29.387,Continuous,2022.1.1,None,
10,0,10,0,1,0,1,0,,,,,,,,2.229986102856402,time,1499.0,-7.707003750602767,1.989953736259869e-05,0,66,['time'],0.01289943332085386,None,None,360.9887006999925,360.9887006999925,0.23214433330576867,2.4621304361621705,361.21894309998606,360.9887006999925,,,,,,,,,hnxrev,001,french,0,2022-07-25_14h54.29.387,Continuous,2022.1.1,None,
10,0,10,0,2,0,2,0,,,,,,,,2.229986102856402,time,4000.0,-9.138016383586221,2.9313601875423035e-05,0,67,['time'],0.002095566684147343,None,None,363.4706177999906,363.4706177999906,0.19541146667324938,2.4253975695296512,363.6853409000032,363.4706177999906,,,,,,,,,hnxrev,001,french,0,2022-07-25_14h54.29.387,Continuous,2022.1.1,None,
10,0,10,0,3,0,3,0,,,,,,,,2.229986102856402,time,5657.0,-13.0,2.8771666029692877e-05,0,68,['time'],0.006039766652975231,None,['space'],365.95221419999143,365.95221419999143,0.20819096665945835,2.43817706951586,366.166278299992,365.95221419999143,[-1.6829917000140995],,,,,,,,hnxrev,001,french,0,2022-07-25_14h54.29.387,Continuous,2022.1.1,None,
10,0,10,0,4,0,4,0,,,,,,,,2.229986102856402,time,1888.0,-5.955475436247283,3.5139801102690325e-05,0,69,['time'],0.0025915666483342648,None,['space'],368.4273125999898,368.4273125999898,0.19901076663518324,2.428996869491585,368.64607260000776,368.4273125999898,[-2.0537781000020914],,,,,,,,hnxrev,001,french,0,2022-07-25_14h54.29.387,Continuous,2022.1.1,None,
10,0,10,0,5,0,5,0,,,,,,,,2.229986102856402,time,,,,1,69,['time'],0.005793066695332527,None,None,370.9087544000067,370.9087544000067,0.20508456669631414,2.435070669552716,371.1191015999939,370.9087544000067,,,,,,,,,hnxrev,001,french,0,2022-07-25_14h54.29.387,Continuous,2022.1.1,None,
10,0,10,0,6,0,6,0,,,,,,,,2.229986102856402,time,1060.0,-9.207164322369875,1.6131474775999428e-05,0,70,['time'],0.006632466654991731,None,None,373.3768324999837,373.3768324999837,0.21001436666119844,2.4400004695176003,373.5901792999939,373.3768324999837,,,,,,,,,hnxrev,001,french,0,2022-07-25_14h54.29.387,Continuous,2022.1.1,None,
10,0,10,0,7,0,7,0,,,,,,,,2.229986102856402,time,2670.0,-10.802780538649326,2.1718774562616412e-05,0,71,['time'],0.01620343330432661,0.2167003332870081,['space'],375.85249260001,375.85249260001,0.2167003332870081,2.44668643614341,376.06551660000696,375.85249260001,[-1.7831981999916025],,,,,,,,hnxrev,001,french,0,2022-07-25_14h54.29.387,Continuous,2022.1.1,None,
10,0,10,0,8,0,8,0,,,,,,,,2.229986102856402,time,5040.0,-12.22213388061422,3.703812488419618e-05,0,72,['time'],0.005407966644270346,None,None,378.33234029999585,378.33234029999585,0.20834866663790308,2.438334769494305,378.54537139998865,378.33234029999585,,,,,,,,,hnxrev,001,french,0,2022-07-25_14h54.29.387,Continuous,2022.1.1,None,
11,0,11,0,0,0,0,0,,,,,,382.83265409999876,None,2.6407891426025225,frequency,5527.0,-4.388880803108346,8.043146219445231e-05,0,36,['time'],0.012883066636277363,None,None,383.8512120000087,None,0.22532136662630364,2.866110509228826,384.06438160000835,None,,380.80548859998817,None,0.5833333333333334,,,,,hnxrev,001,french,0,2022-07-25_14h54.29.387,Continuous,2022.1.1,None,
11,0,11,0,1,0,1,0,,,,,,,,1.208937772660574,frequency,3689.0,-3.718063004908617,5.115177224700337e-05,0,37,['time'],0.0003694666374940425,None,['space'],386.73291510000126,386.73291510000126,0.20903956663096324,1.4179773392915371,386.95835369999986,386.73291510000126,[-2.3371293999953195],,,,,,,,hnxrev,001,french,0,2022-07-25_14h54.29.387,Continuous,2022.1.1,None,
11,0,11,0,2,0,2,0,,,,,,,,2.648748618473226,frequency,2462.0,-2.0,6.756004937466901e-05,0,38,['time'],0.0012416666431818157,None,['space'],388.19603970000753,388.19603970000753,0.19741986665758304,2.846168485130809,388.41188390000025,388.19603970000753,[-0.9589273999736179],,,,,,,,hnxrev,001,french,0,2022-07-25_14h54.29.387,Continuous,2022.1.1,None,
11,0,11,0,3,0,3,0,,,,,,,,2.694039001059287,frequency,1643.0,-2.2373853215552875,4.536391860823836e-05,0,39,['time'],0.005484866647748277,None,['space'],391.09660099999746,391.09660099999746,0.20484736663638614,2.898886367695673,391.3078165999905,391.09660099999746,[-2.4191502000030596],,,,,,,,hnxrev,001,french,0,2022-07-25_14h54.29.387,Continuous,2022.1.1,None,
11,0,11,0,4,0,4,0,,,,,,,,1.4295913784719698,frequency,,,,1,39,['time'],0.005537966702831909,None,None,394.0285644000105,394.0285644000105,0.20817376670311205,1.6377651451750819,394.2476572000014,394.0285644000105,,,,,,,,,hnxrev,001,french,0,2022-07-25_14h54.29.387,Continuous,2022.1.1,None,
11,0,11,0,5,0,5,0,,,,,,,,2.766352211043447,frequency,732.0,-2.061406180210328,3.330027823071428e-05,0,40,['time'],0.003872066648909822,0.19956106663448736,None,395.7023394999851,395.7023394999851,0.19956106663448736,2.9659132776779344,395.91944080000394,395.7023394999851,,,,,,,,,hnxrev,001,french,0,2022-07-25_14h54.29.387,Continuous,2022.1.1,None,
11,0,11,0,6,0,6,0,,,,,,,,2.092893941424479,frequency,489.0,-1.5244124646053927,6.041609621867652e-05,0,41,['time'],0.0020109666511416435,None,None,398.70992629998364,398.70992629998364,0.1948736666527111,2.28776760807719,398.92201219999697,398.70992629998364,,,,,,,,,hnxrev,001,french,0,2022-07-25_14h54.29.387,Continuous,2022.1.1,None,
11,0,11,0,7,0,7,0,,,,,,,,2.212383838824209,frequency,326.0,-1.4627764188756798,8.092262800183612e-05,0,42,['time'],0.0016429666720796376,0.1934022666537203,['space'],401.0478729000024,401.0478729000024,0.1934022666537203,2.4057861054779295,401.25673110000207,401.0478729000024,[-1.8264334999839775],,,,,,,,hnxrev,001,french,0,2022-07-25_14h54.29.387,Continuous,2022.1.1,None,
11,0,11,0,8,0,8,0,,,,,,,,2.9646207309193784,frequency,218.0,-1.2129950027603265,0.00020017590478971456,0,43,['time'],0.0015943666803650558,0.1986401666654274,['space'],403.500417400006,403.500417400006,0.1986401666654274,3.1632608975848058,403.7114428000059,403.500417400006,[-2.048116999998456],,,,,,,,hnxrev,001,french,0,2022-07-25_14h54.29.387,Continuous,2022.1.1,None,
11,0,11,0,9,0,9,0,,,,,,,,1.7424310469543671,frequency,145.0,-0.6552595375736476,0.0005050860194042692,0,44,['time'],0.004871366661973298,None,['space'],406.7131022000103,406.7131022000103,0.2035146666748915,1.9459457136292586,406.9263737000001,406.7131022000103,[-2.8355978000035975],,,,,,,,hnxrev,001,french,0,2022-07-25_14h54.29.387,Continuous,2022.1.1,None,
12,0,12,0,0,0,0,0,,,,,"[0.5833333333333334, 0.5833333333333334, 0.5833333333333334, 0.5833333333333334, 0.3333333333333333, 0.5833333333333334, 0.5833333333333334, 0.3333333333333333, 0.3333333333333333, 0.16666666666666666, 0.5833333333333334, 0.16666666666666666, 0.3333333333333333, 0.5833333333333334, 0.16666666666666666]",411.90707260000636,None,1.2768384913529385,none,,,,1,46,['time'],0.01289986667688936,None,None,412.92705249998835,None,0.21285696668201126,1.4896954580349497,413.14188869998907,None,,408.6998567999981,None,,,,,,hnxrev,001,french,0,2022-07-25_14h54.29.387,Continuous,2022.1.1,None,
12,0,12,0,1,0,1,0,,,,,,,,2.165197225799874,none,5278.0,-8.0,5.672805746078511e-05,0,47,['time'],0.005827966699143872,None,None,414.45490979999886,414.45490979999886,0.21053986667538993,2.375737092475264,414.67096849999507,414.45490979999886,,,,,,,,,hnxrev,001,french,0,2022-07-25_14h54.29.387,Continuous,2022.1.1,None,
12,0,12,0,2,0,2,0,,,,,,,,2.6309599438141045,none,1175.0,-1.6128170225608922,4.266652095632066e-05,0,48,['time'],0.005026866681873798,None,"['space', 'space']",416.872784999985,416.872784999985,0.20702616666676477,2.8379861104808692,417.0818267999857,416.872784999985,"[-2.0523906000016723, 0.14755629998398945]",,,,,,,,hnxrev,001,french,0,2022-07-25_14h54.29.387,Continuous,2022.1.1,None,
12,0,12,0,3,0,3,0,,,,,,,,1.8815745017343253,none,5924.0,-10.00029066195902,3.7526230983830356e-05,0,49,['time'],0.016414333338616416,None,None,419.7473167999997,419.7473167999997,0.21129583334550261,2.092870335079828,419.96105479999096,419.7473167999997,,,,,,,,,hnxrev,001,french,0,2022-07-25_14h54.29.387,Continuous,2022.1.1,None,
12,0,12,0,4,0,4,0,,,,,,,,1.604457557336312,none,784.0,-4.087796436654578,2.4419559548102247e-05,0,50,['time'],0.004818466637516394,None,['space'],421.87917030000244,421.87917030000244,0.20389716664794832,1.8083547239842603,422.08844029999455,421.87917030000244,[-1.8417810999962967],,,,,,,,hnxrev,001,french,0,2022-07-25_14h54.29.387,Continuous,2022.1.1,None,
12,0,12,0,5,0,5,0,,,,,,,,2.218309534130392,none,3325.0,-7.222349639787414,3.138807342815876e-05,0,51,['time'],0.004860166693106294,None,['space'],423.73055790000944,423.73055790000944,0.20619126668316312,2.424500800813555,423.9438063999987,423.73055790000944,[-0.9895023999852128],,,,,,,,hnxrev,001,french,0,2022-07-25_14h54.29.387,Continuous,2022.1.1,None,
12,0,12,0,6,0,6,0,,,,,,,,1.9085047181753014,none,4189.0,-7.650662995995606,4.017816136554864e-05,0,52,['time'],0.014037333312444389,None,None,426.1968508999853,426.1968508999853,0.20889603332034312,2.1174007514956443,426.40887260000454,426.1968508999853,,,,,,,,,hnxrev,001,french,0,2022-07-25_14h54.29.387,Continuous,2022.1.1,None,
12,0,12,0,7,0,7,0,,,,,,,,1.6573613089985049,none,2219.0,-3.3590344239637275,5.411573438133546e-05,0,53,['time'],0.004793866683030501,None,['space'],428.3527011999977,428.3527011999977,0.20557616668520495,1.8629374756837098,428.5606531999947,428.3527011999977,[-1.7562275999807753],,,,,,,,hnxrev,001,french,0,2022-07-25_14h54.29.387,Continuous,2022.1.1,None,
12,0,12,0,8,0,8,0,,,,,,,,1.0406155169423932,none,1481.0,-5.884024867951119,2.477361428653831e-05,0,54,['time'],0.004018766660010442,None,None,430.25506940000923,430.25506940000923,0.20374266666476615,1.2443581836071593,430.46733849999146,430.25506940000923,,,,,,,,,hnxrev,001,french,0,2022-07-25_14h54.29.387,Continuous,2022.1.1,None,
12,0,12,0,9,0,9,0,,,,,,,,1.7359222025155943,none,349.0,2.4349002737709506,0.00011884869517506602,0,55,['time'],0.016294133325573057,None,['space'],431.54504229998565,431.54504229998565,0.238599433330819,1.9745216358464133,431.7763023999869,431.54504229998565,[-0.8445225000032224],,,,,,,,hnxrev,001,french,0,2022-07-25_14h54.29.387,Continuous,2022.1.1,None,
13,0,13,0,0,0,0,0,,,,,,435.6765486999939,None,2.307123945289847,both,330.0,0.39212165486051376,9.910141955784638e-05,0,50,['time'],0.00995736665208824,None,None,436.69926210000995,None,0.2091150666528847,2.516239011942732,436.91151079998235,None,,433.54277689999435,None,0.16666666666666666,,,,,hnxrev,001,french,0,2022-07-25_14h54.29.387,Continuous,2022.1.1,None,
13,0,13,0,1,0,1,0,,,,,,,,2.307123945289847,both,294.0,-7.797183752115808,4.925550245040735e-05,0,51,['time'],0.00013546666014008224,0.19310346664860845,None,439.25100190000376,439.25100190000376,0.19310346664860845,2.5002274119384555,439.4633343000023,439.25100190000376,,,,,,,,,hnxrev,001,french,0,2022-07-25_14h54.29.387,Continuous,2022.1.1,None,
13,0,13,0,2,0,2,0,,,,,,,,2.307123945289847,both,262.0,-5.804007793773487,7.933884345253835e-05,0,52,['time'],0.004371066635940224,None,['space'],441.8002775000059,441.8002775000059,0.20311866665724665,2.5102426119470937,442.00849899998866,441.8002775000059,[-2.1234076999826357],,,,,,,,hnxrev,001,french,0,2022-07-25_14h54.29.387,Continuous,2022.1.1,None,
13,0,13,0,3,0,3,0,,,,,,,,2.307123945289847,both,233.0,-3.567319489095069,0.0001331600149188857,0,53,['time'],0.004351666662842035,None,['space'],444.35277870000573,444.35277870000573,0.2063747666834388,2.513498711973286,444.5664784999972,444.35277870000573,[-2.1394404000020586],,,,,,,,hnxrev,001,french,0,2022-07-25_14h54.29.387,Continuous,2022.1.1,None,
13,0,13,0,4,0,4,0,,,,,,,,2.307123945289847,both,208.0,-8.599046228575808,9.280806222575056e-05,0,54,['time'],0.014690133306430653,None,['space'],446.90061009998317,446.90061009998317,0.2118737333221361,2.518997678611983,447.1168909999833,446.90061009998317,[-2.2241963999986183],,,,,,,,hnxrev,001,french,0,2022-07-25_14h54.29.387,Continuous,2022.1.1,None,
13,0,13,0,5,0,5,0,,,,,,,,2.307123945289847,both,185.0,-0.4366228090152261,0.00030438019296675806,0,55,['time'],0.0015793666534591466,None,['space'],449.46244909998495,449.46244909998495,0.20685396666522138,2.5139779119550685,449.67948869999964,449.46244909998495,[-2.0330075999954715],,,,,,,,hnxrev,001,french,0,2022-07-25_14h54.29.387,Continuous,2022.1.1,None,
13,0,13,0,6,0,6,0,,,,,,,,2.307123945289847,both,165.0,-9.0,0.00013941023867186227,0,56,['time'],0.015084933314938098,None,['space'],452.0214455999958,452.0214455999958,0.2579166333307512,2.5650405786205983,452.27470439998433,452.0214455999958,[-2.2728948000003584],,,,,,,,hnxrev,001,french,0,2022-07-25_14h54.29.387,Continuous,2022.1.1,None,
13,0,13,0,7,0,7,0,,,,,,,,2.307123945289847,both,147.0,-2.45088154862476,0.00039732825174871965,0,57,['time'],0.013418533344520256,None,['space'],454.60989669998526,454.60989669998526,0.23435853334376588,2.541482478633613,454.8416320999968,454.60989669998526,[-1.9169622999907006],,,,,,,,hnxrev,001,french,0,2022-07-25_14h54.29.387,Continuous,2022.1.1,None,
13,0,13,0,8,0,8,0,,,,,,,,2.307123945289847,both,,,,1,57,['time'],0.0006345667061395943,None,['space'],457.1743794000067,457.1743794000067,0.1955884666822385,2.5027124119720856,457.3882919999887,457.1743794000067,[-2.01014739999664],,,,,,,,hnxrev,001,french,0,2022-07-25_14h54.29.387,Continuous,2022.1.1,None,
14,0,14,0,0,0,0,0,,,,,"[0.16666666666666666, 0.5833333333333334, 0.3333333333333333, 0.3333333333333333, 0.16666666666666666, 0.3333333333333333, 0.16666666666666666, 0.3333333333333333, 0.5833333333333334, 0.16666666666666666, 0.5833333333333334, 0.5833333333333334, 0.16666666666666666, 0.5833333333333334, 0.5833333333333334]",462.27320009999676,None,2.5800225146404667,none,212.0,-1.032256086209642,0.00021482281656150362,0,56,['time'],0.010973166674375534,None,None,463.29356319998624,None,0.21412706666160375,2.7941495813020705,463.50612060001004,None,,459.73042750000604,None,,,,,,hnxrev,001,french,0,2022-07-25_14h54.29.387,Continuous,2022.1.1,None,
14,0,14,0,1,0,1,0,,,,,,,,2.03590103894717,none,534.0,-2.679987027426068,4.858132315235111e-05,0,57,['time'],0.0037110667035449296,None,None,466.12442760000704,466.12442760000704,0.20658126668422483,2.2424823056313947,466.33598810000694,466.12442760000704,,,,,,,,,hnxrev,001,french,0,2022-07-25_14h54.29.387,Continuous,2022.1.1,None,
14,0,14,0,2,0,2,0,,,,,,,,1.9674463512822793,none,1199.0,-2.8588037132274655,3.768707958008807e-05,0,58,['time'],0.0041241666476707906,None,['space'],468.4105474000098,468.4105474000098,0.20494416664587334,2.172390517928153,468.6218458999938,468.4105474000098,[-1.8614108999900054],,,,,,,,hnxrev,001,french,0,2022-07-25_14h54.29.387,Continuous,2022.1.1,None,
14,0,14,0,3,0,3,0,,,,,,,,1.5970229306829824,none,800.0,-3.1153307226561147,2.6804238168970182e-05,0,59,['time'],0.00031266664154827595,0.19385766662890092,['space'],470.6178702999896,470.6178702999896,0.19385766662890092,1.7908805973118833,470.8303398999851,470.6178702999896,[-1.725230299984105],,,,,,,,hnxrev,001,french,0,2022-07-25_14h54.29.387,Continuous,2022.1.1,None,
14,0,14,0,4,0,4,0,,,,,,,,2.8198730816429345,none,476.0,-1.6871821632945634,5.984145541614123e-05,0,60,['time'],0.015958433330524713,None,['space'],472.45751569999265,472.45751569999265,0.23956653333152644,3.059439614974461,472.68899819999933,472.45751569999265,[-1.4207982000079937],,,,,,,,hnxrev,001,french,0,2022-07-25_14h54.29.387,Continuous,2022.1.1,None,
14,0,14,0,5,0,5,0,,,,,,,,2.2586840857979955,none,189.0,-3.0,0.0002162802514980558,0,61,['time'],0.002887766662752256,None,['space'],475.536451699998,475.536451699998,0.20114816667046398,2.4598322524684595,475.7448810999922,475.536451699998,[-2.6436825999990106],,,,,,,,hnxrev,001,french,0,2022-07-25_14h54.29.387,Continuous,2022.1.1,None,
14,0,14,0,6,0,6,0,,,,,,,,1.2468016112419136,none,126.0,-0.8172044125242591,0.0006497207071399365,0,62,['time'],0.002794066647766158,0.19927816663403064,['space'],478.0398714999901,478.0398714999901,0.19927816663403064,1.4460797778759442,478.2448857999989,478.0398714999901,[-2.0992232999997213],,,,,,,,hnxrev,001,french,0,2022-07-25_14h54.29.387,Continuous,2022.1.1,None,
14,0,14,0,7,0,7,0,,,,,,,,2.604038554418769,none,,,,1,62,['time'],0.016594033309957013,None,['space'],479.52516099999775,479.52516099999775,0.24046893330523744,2.8445074877240066,479.7581431999861,479.52516099999775,[-1.1292924000008497],,,,,,,,hnxrev,001,french,0,2022-07-25_14h54.29.387,Continuous,2022.1.1,None,
15,0,15,0,0,0,0,0,,,,,,484.4703874999832,None,2.9949777520531677,both,708.0,-13.099554344795521,9.809961328564528e-06,0,58,['time'],0.008081066654995084,None,None,485.4933108999976,None,0.20452166665927507,3.199499418712443,485.7054827999964,None,,482.3884017000091,None,0.3333333333333333,,,,,hnxrev,001,french,0,2022-07-25_14h54.29.387,Continuous,2022.1.1,None,
15,0,15,0,1,0,1,0,,,,,,,,2.9949777520531677,both,562.0,-5.508769704879102,3.2761058282068455e-05,0,59,['time'],0.016327033314155415,None,None,488.7362973999989,488.7362973999989,0.2102252333133947,3.2052029853665625,488.95089279999956,488.7362973999989,,,,,,,,,hnxrev,001,french,0,2022-07-25_14h54.29.387,Continuous,2022.1.1,None,
15,0,15,0,2,0,2,0,,,,,,,,2.9949777520531677,both,446.0,-2.7067638911105383,5.433612566968813e-05,0,60,['time'],0.0036195667053107172,None,['space'],491.98603850000654,491.98603850000654,0.20404796669026837,3.199025718743436,492.19294189999346,491.98603850000654,[-2.7333179999841377],,,,,,,,hnxrev,001,french,0,2022-07-25_14h54.29.387,Continuous,2022.1.1,None,
15,0,15,0,3,0,3,0,,,,,,,,2.9949777520531677,both,354.0,-9.163135864777098,3.081546631689889e-05,0,61,['time'],0.0024966666533146054,None,['space'],495.2236944999895,495.2236944999895,0.19944946665782481,3.1944272187109926,495.4321878000046,495.2236944999895,[-2.818412599997828],,,,,,,,hnxrev,001,french,0,2022-07-25_14h54.29.387,Continuous,2022.1.1,None,
15,0,15,0,4,0,4,0,,,,,,,,2.9949777520531677,both,281.0,-13.941389844554353,2.7046306830670746e-05,0,62,['time'],0.01638393333996646,None,['space'],498.46256630000426,498.46256630000426,0.2103918333305046,3.2053695853836723,498.6761891999922,498.46256630000426,[-2.921715500007849],,,,,,,,hnxrev,001,french,0,2022-07-25_14h54.29.387,Continuous,2022.1.1,None,
15,0,15,0,5,0,5,0,,,,,,,,2.9949777520531677,both,,,,1,62,['time'],0.00035096670035272837,None,None,501.7037958999863,501.7037958999863,0.19274756667437032,3.187725318727538,501.91741309998906,501.7037958999863,,,,,,,,,hnxrev,001,french,0,2022-07-25_14h54.29.387,Continuous,2022.1.1,None,
15,0,15,0,6,0,6,0,,,,,,,,2.9949777520531677,both,177.0,-14.0,6.967609763950411e-05,0,63,['time'],0.014866133307805285,None,None,504.94642130000284,504.94642130000284,0.23831313333357684,3.2332908853867446,505.18293390001054,504.94642130000284,,,,,,,,,hnxrev,001,french,0,2022-07-25_14h54.29.387,Continuous,2022.1.1,None,
15,0,15,0,7,0,7,0,,,,,,,,2.9949777520531677,both,140.0,-2.7069281138331185,0.00043141958291730454,0,64,['time'],0.003434066631598398,None,None,508.20371500001056,508.20371500001056,0.2041435666324105,3.1991213186855783,508.41266519998317,508.20371500001056,,,,,,,,,hnxrev,001,french,0,2022-07-25_14h54.29.387,Continuous,2022.1.1,None,
16,0,16,0,0,0,0,0,,,,,,516.5357634999964,None,1.4517274987128481,frequency,7128.0,-7.783713474137576,6.330597317069867e-05,0,45,['time'],0.012829866667743772,None,None,517.5556092000043,None,0.21991606667870656,1.6716435653915547,517.7680555999978,None,,511.4422477000044,None,0.16666666666666666,,,,,hnxrev,001,french,0,2022-07-25_14h54.29.387,Continuous,2022.1.1,None,
16,0,16,0,1,0,1,0,,,,,,,,1.4396203147313993,frequency,6350.0,-8.22753164957166,5.100668465946089e-05,0,46,['time'],0.0011827666603494436,None,['space'],519.2487159000011,519.2487159000011,0.1970052666729316,1.636625581404331,519.4594601999852,519.2487159000011,[-1.0354078999953344],,,,,,,,hnxrev,001,french,0,2022-07-25_14h54.29.387,Continuous,2022.1.1,None,
16,0,16,0,2,0,2,0,,,,,,,,1.0671791167925584,frequency,5657.0,-6.0,6.441173693250209e-05,0,47,['time'],0.01462373329559341,None,['space'],520.9377056999947,520.9377056999947,0.2078237333043944,1.2750028500969528,521.1513467000041,520.9377056999947,[-1.2535086999996565],,,,,,,,hnxrev,001,french,0,2022-07-25_14h54.29.387,Continuous,2022.1.1,None,
16,0,16,0,3,0,3,0,,,,,,,,2.916907974345278,frequency,5040.0,-6.952942604906841,6.793734263772204e-05,0,48,['time'],0.015553333330899477,None,['space'],522.2541045999969,522.2541045999969,0.23869703331729397,3.155605007662572,522.4896067999944,522.2541045999969,[-0.9859154000005219],,,,,,,,hnxrev,001,french,0,2022-07-25_14h54.29.387,Continuous,2022.1.1,None,
16,0,16,0,4,0,4,0,,,,,,,,2.0967733441047405,frequency,4490.0,-7.261294701028737,5.099715052994588e-05,0,49,['time'],0.014230533357476816,None,['space'],525.4322688999819,525.4322688999819,0.21351163333747536,2.310284977442216,525.6491655999853,525.4322688999819,[-2.81922060000943],,,,,,,,hnxrev,001,french,0,2022-07-25_14h54.29.387,Continuous,2022.1.1,None,
16,0,16,0,5,0,5,0,,,,,,,,2.615398060001299,frequency,4000.0,-6.433152423125923,4.002325290471978e-05,0,50,['time'],0.01252753334119916,None,['space'],527.7871125999955,527.7871125999955,0.20693483334616758,2.8223328933474665,528.0000729000021,527.7871125999955,[-1.973925500002224],,,,,,,,hnxrev,001,french,0,2022-07-25_14h54.29.387,Continuous,2022.1.1,None,
16,0,16,0,6,0,6,0,,,,,,,,2.920104181347985,frequency,3564.0,-4.343334325787086,4.6268094187806905e-05,0,51,['time'],0.016487133339978755,None,['space'],530.6502215999935,530.6502215999935,0.2087113333400339,3.1288155146880188,530.8613259999838,530.6502215999935,[-2.3894195000175387],,,,,,,,hnxrev,001,french,0,2022-07-25_14h54.29.387,Continuous,2022.1.1,None,
16,0,16,0,7,0,7,0,,,,,,,,1.958415747124356,frequency,3175.0,-4.809334571328276,3.9926014193881154e-05,0,52,['time'],0.01558383330120705,None,['space'],533.8168499000021,533.8168499000021,0.20964513332000934,2.168060880444365,534.0323299999873,533.8168499000021,[-2.7964649999921676],,,,,,,,hnxrev,001,french,0,2022-07-25_14h54.29.387,Continuous,2022.1.1,None,
16,0,16,0,8,0,8,0,,,,,,,,2.033896971231596,frequency,2829.0,-3.1879216595150655,4.5343599952894984e-05,0,53,['time'],0.011610933317570016,None,None,536.0303639000049,536.0303639000049,0.2330199333082419,2.266916904539838,536.2608053000004,536.0303639000049,,,,,,,,,hnxrev,001,french,0,2022-07-25_14h54.29.387,Continuous,2022.1.1,None,
16,0,16,0,9,0,9,0,,,,,,,,2.2052869986466597,frequency,,,,1,53,['time'],0.016148833296028897,None,['space'],538.3232225999818,538.3232225999818,0.23705073329620063,2.4423377319428603,538.5536645999819,538.3232225999818,[-1.7898731000022963],,,,,,,,hnxrev,001,french,0,2022-07-25_14h54.29.387,Continuous,2022.1.1,None,
16,0,16,0,10,0,10,0,,,,,,,,2.031520400034376,frequency,2245.0,-3.2559748999065037,5.5157825764229646e-05,0,54,['time'],0.004037466685986146,None,None,540.7884737999993,540.7884737999993,0.20445856667356566,2.2359789667079415,540.9982010000094,540.7884737999993,,,,,,,,,hnxrev,001,french,0,2022-07-25_14h54.29.387,Continuous,2022.1.1,None,
17,0,17,0,0,0,0,0,,,,,"[0.5833333333333334, 0.16666666666666666, 0.3333333333333333, 0.3333333333333333, 0.5833333333333334, 0.16666666666666666, 0.5833333333333334, 0.3333333333333333, 0.5833333333333334, 0.16666666666666666, 0.5833333333333334, 0.3333333333333333, 0.16666666666666666, 0.5833333333333334, 0.5833333333333334]",546.2439173999883,None,1.640601295127708,none,1335.0,-3.2698411429311776,3.5960900113607084e-05,0,63,['time'],0.012881566653959453,None,None,547.2850931999856,None,0.2190956666599959,1.859696961787704,547.4990870000038,None,,543.0691030999878,None,,,,,,hnxrev,001,french,0,2022-07-25_14h54.29.387,Continuous,2022.1.1,None,
17,0,17,0,1,0,1,0,,,,,,,,1.9929341614556118,none,1682.0,-6.236221054552008,2.9485431674684652e-05,0,64,['time'],0.016033833322580904,None,None,549.1644300000044,549.1644300000044,0.23809443332720548,2.231028594782817,549.3982208000089,549.1644300000044,,,,,,,,,hnxrev,001,french,0,2022-07-25_14h54.29.387,Continuous,2022.1.1,None,
17,0,17,0,2,0,2,0,,,,,,,,1.7490766900908006,none,1060.0,-2.5966743871225644,3.4530158365170956e-05,0,65,['time'],0.0007156666833907366,None,None,551.4160626000084,551.4160626000084,0.2028770666802302,1.9519537567710308,551.636448300007,551.4160626000084,,,,,,,,,hnxrev,001,french,0,2022-07-25_14h54.29.387,Continuous,2022.1.1,None,
17,0,17,0,3,0,3,0,,,,,,,,2.6177595125984214,none,944.0,-3.246774080688197,2.921794557643376e-05,0,66,['time'],0.0024284666287712753,None,['space'],553.4174945999985,553.4174945999985,0.2025088666123338,2.8202683792107552,553.6278219000087,553.4174945999985,[-1.421124599990435],,,,,,,,hnxrev,001,french,0,2022-07-25_14h54.29.387,Continuous,2022.1.1,None,
17,0,17,0,4,0,4,0,,,,,,,,1.6905133069739628,none,4238.0,-7.296099584834257,4.330770831018949e-05,0,67,['time'],0.013076433329842985,0.20855963334906846,None,556.2829710000078,556.2829710000078,0.20855963334906846,1.8990729403230313,556.4884676999936,556.2829710000078,,,,,,,,,hnxrev,001,french,0,2022-07-25_14h54.29.387,Continuous,2022.1.1,None,
17,0,17,0,5,0,5,0,,,,,,,,1.0774243047557297,none,2520.0,-3.2395598671227637,5.829913319888792e-05,0,68,['time'],0.01543733332073316,None,['space'],558.2163971999835,558.2163971999835,0.21006253332598135,1.287486838081711,558.4288518000103,558.2163971999835,[-1.5557874999940395],,,,,,,,hnxrev,001,french,0,2022-07-25_14h54.29.387,Continuous,2022.1.1,None,
17,0,17,0,6,0,6,0,,,,,,,,2.869966636659673,none,,,,1,68,['time'],0.014957833336666226,None,['space'],559.543031499983,559.543031499983,0.21119473333237693,3.08116136999205,559.7626210000017,559.543031499983,[-0.5221859999874141],,,,,,,,hnxrev,001,french,0,2022-07-25_14h54.29.387,Continuous,2022.1.1,None,
17,0,17,0,7,0,7,0,,,,,,,,1.4556956964059617,none,8000.0,-7.0,8.109050486794653e-05,0,69,['time'],0.015392033325042576,None,None,562.67040979999,562.67040979999,0.22900553332874551,1.6847012297347073,562.8995320000104,562.67040979999,,,,,,,,,hnxrev,001,french,0,2022-07-25_14h54.29.387,Continuous,2022.1.1,None,
17,0,17,0,8,0,8,0,,,,,,,,1.4823510463025722,none,5339.0,-9.774149627478817,4.551765187984536e-05,0,70,['time'],0.0153084333287552,None,['space'],564.3822869999858,564.3822869999858,0.21930843332665972,1.701659479629232,564.603430099989,564.3822869999858,[-1.2264253000030294],,,,,,,,hnxrev,001,french,0,2022-07-25_14h54.29.387,Continuous,2022.1.1,None,
18,0,18,0,0,0,0,0,,,,,"[0.3333333333333333, 0.5833333333333334, 0.3333333333333333, 0.5833333333333334, 0.16666666666666666, 0.5833333333333334, 0.16666666666666666, 0.5833333333333334, 0.5833333333333334, 0.16666666666666666, 0.3333333333333333, 0.3333333333333333, 0.5833333333333334, 0.5833333333333334, 0.3333333333333333]",569.2688599000103,None,1.8633631717798096,none,125.0,-4.0,0.00045600541967795504,0,71,['time'],0.012958966690348461,None,None,570.2963312999927,None,0.22610616666497663,2.089469338444786,570.5091354000033,None,,566.1178205999895,None,,,,,,hnxrev,001,french,0,2022-07-25_14h54.29.387,Continuous,2022.1.1,None,
18,0,18,0,1,0,1,0,,,,,,,,2.7843457508195955,none,314.0,-2.2693362558013987,7.676152503986555e-05,0,72,['time'],0.015983433346264064,None,None,572.4053395999945,572.4053395999945,0.21119243334396742,2.995538184163563,572.6164222999942,572.4053395999945,,,,,,,,,hnxrev,001,french,0,2022-07-25_14h54.29.387,Continuous,2022.1.1,None,
18,0,18,0,2,0,2,0,,,,,,,,2.7608356939522483,none,1412.0,-3.8952160976768573,3.2241950179414443e-05,0,73,['time'],0.011422933312132955,None,['space'],575.4385548999999,575.4385548999999,0.23289713330450468,2.993732827256753,575.6692328999925,575.4385548999999,[-2.63353819999611],,,,,,,,hnxrev,001,french,0,2022-07-25_14h54.29.387,Continuous,2022.1.1,None,
18,0,18,0,3,0,3,0,,,,,,,,1.1384923930305904,none,1121.0,-3.4133951592870524,3.315365038025932e-05,0,74,['time'],0.002000266656978056,None,['space'],578.4607479999831,578.4607479999831,0.20572866668226197,1.3442210597128523,578.6753825999913,578.4607479999831,[-2.4401403999945614],,,,,,,,hnxrev,001,french,0,2022-07-25_14h54.29.387,Continuous,2022.1.1,None,
18,0,18,0,4,0,4,0,,,,,,,,1.875035538200201,none,,,,1,74,['time'],0.000543066649697721,None,['space'],579.8474742999824,579.8474742999824,0.20294846664182842,2.0779840048420297,580.0660232999944,579.8474742999824,[-0.9149591000168584],,,,,,,,hnxrev,001,french,0,2022-07-25_14h54.29.387,Continuous,2022.1.1,None,
18,0,18,0,5,0,5,0,,,,,,,,2.2707193416116627,none,499.0,-1.811622502341965,5.803625397835046e-05,0,75,['time'],0.01607563332072459,None,None,581.9670516999904,581.9670516999904,0.23951903331908397,2.5102383749307466,582.2004753999936,581.9670516999904,,,,,,,,,hnxrev,001,french,0,2022-07-25_14h54.29.387,Continuous,2022.1.1,None,
18,0,18,0,6,0,6,0,,,,,,,,1.4779328147012127,none,187.0,-2.3118558125533073,0.00023969401829241515,0,76,['time'],0.0001531666493974626,None,['space'],584.5009136000008,584.5009136000008,0.19730476665426977,1.6752375813554825,584.7169151999988,584.5009136000008,[-1.9919014000042807],,,,,,,,hnxrev,001,french,0,2022-07-25_14h54.29.387,Continuous,2022.1.1,None,
18,0,18,0,7,0,7,0,,,,,,,,1.4146931233787519,none,748.0,-4.0,2.5753729903770978e-05,0,77,['time'],0.014630133315222338,None,['space'],586.2294686000096,586.2294686000096,0.2392414333007764,1.6539345566795283,586.466536699998,586.2294686000096,[-1.2728731000097468],,,,,,,,hnxrev,001,french,0,2022-07-25_14h54.29.387,Continuous,2022.1.1,None,
18,0,18,0,8,0,8,0,,,,,,,,2.739560550167621,none,280.0,-2.077885581917009,0.00010682847054649284,0,78,['time'],0.013166333344997838,None,['space'],587.9094889999833,587.9094889999833,0.23512743334867992,2.9746879835163007,588.1407996999915,587.9094889999833,[-1.1922975000052247],,,,,,,,hnxrev,001,french,0,2022-07-25_14h54.29.387,Continuous,2022.1.1,None,
18,0,18,0,9,0,9,0,,,,,,,,2.242980717421201,none,396.0,-0.6113714250965541,7.231908176664793e-05,0,79,['time'],0.014830533327767625,None,['space'],590.908961499983,590.908961499983,0.20900893333600834,2.451989650757209,591.1248556000064,590.908961499983,[-2.664375399996061],,,,,,,,hnxrev,001,french,0,2022-07-25_14h54.29.387,Continuous,2022.1.1,None,
19,0,19,0,0,0,0,0,,,,,,596.8646230000013,None,1.209240086992609,frequency,708.0,-6.931238517682797,1.995644073607652e-05,0,55,['time'],0.012980166648048908,None,None,597.8842780999839,None,0.2347873666731175,1.4440274536657265,598.1039468999952,None,,593.4087759999966,None,0.3333333333333333,,,,,hnxrev,001,french,0,2022-07-25_14h54.29.387,Continuous,2022.1.1,None,
19,0,19,0,1,0,1,0,,,,,,,,2.8460784218107538,frequency,562.0,-4.29638978211201,3.7668377878538755e-05,0,56,['time'],0.010111533338204026,0.20301143333199434,None,599.347961499996,599.347961499996,0.20301143333199434,3.049089855142748,599.5583920000063,599.347961499996,,,,,,,,,hnxrev,001,french,0,2022-07-25_14h54.29.387,Continuous,2022.1.1,None,
19,0,19,0,2,0,2,0,,,,,,,,2.5656032441548318,frequency,,,,1,56,['time'],0.014421933301491663,None,None,602.4385735999967,602.4385735999967,0.20988853331073187,2.7754917774655636,602.654421299987,602.4385735999967,,,,,,,,,hnxrev,001,french,0,2022-07-25_14h54.29.387,Continuous,2022.1.1,None,
19,0,19,0,3,0,3,0,,,,,,,,2.795012096312611,frequency,354.0,0.7583515487558263,9.657019642807207e-05,0,57,['time'],0.010004433308495209,None,None,605.2673864999961,605.2673864999961,0.23351913332589902,3.02853122963851,605.5005566999898,605.2673864999961,,,,,,,,,hnxrev,001,french,0,2022-07-25_14h54.29.387,Continuous,2022.1.1,None,
19,0,19,0,4,0,4,0,,,,,,,,2.9234676113803806,frequency,281.0,-6.939856129224033,6.055983126064457e-05,0,58,['time'],0.014072133344598114,None,['space'],608.3290527999925,608.3290527999925,0.21708913333714008,3.1405567447175207,608.545618300006,608.3290527999925,[-2.627976399991894],,,,,,,,hnxrev,001,french,0,2022-07-25_14h54.29.387,Continuous,2022.1.1,None,
19,0,19,0,5,0,5,0,,,,,,,,1.0160982316877618,frequency,223.0,-5.81124879966416,0.00011287854836094267,0,59,['time'],0.009432633320102468,None,['space'],611.5125065000029,611.5125065000029,0.20766163332154974,1.2237598650093116,611.7301726999867,611.5125065000029,[-2.7083128000085708],,,,,,,,hnxrev,001,french,0,2022-07-25_14h54.29.387,Continuous,2022.1.1,None,
19,0,19,0,6,0,6,0,,,,,,,,2.470470495627616,frequency,177.0,-8.0,0.0001390220918741947,0,60,['time'],0.014317033317638561,None,['space'],612.7822756000096,612.7822756000096,0.2208547333138995,2.6913252289415155,613.005874399998,612.7822756000096,[-0.6414304999925662],,,,,,,,hnxrev,001,french,0,2022-07-25_14h54.29.387,Continuous,2022.1.1,None,
19,0,19,0,7,0,7,0,,,,,,,,2.3769912949875684,frequency,140.0,-1.9519666286688948,0.00047059567218552055,0,61,['time'],0.012233433342771605,None,None,615.5037365999888,615.5037365999888,0.21407873334828764,2.591070028335856,615.7253690999933,615.5037365999888,,,,,,,,,hnxrev,001,french,0,2022-07-25_14h54.29.387,Continuous,2022.1.1,None,
20,0,20,0,0,0,0,0,,,,,"[0.3333333333333333, 0.16666666666666666, 0.5833333333333334, 0.16666666666666666, 0.5833333333333334, 0.5833333333333334, 0.5833333333333334, 0.16666666666666666, 0.3333333333333333, 0.16666666666666666, 0.3333333333333333, 0.5833333333333334, 0.5833333333333334, 0.3333333333333333, 0.3333333333333333]",625.3599489000044,None,2.2896681552116935,none,2764.0,-8.897967736328464,2.4947200324515223e-05,0,80,['time'],0.012681366672040895,None,None,626.3833334000083,None,0.2241821666539181,2.5138503218656116,626.6027107999835,None,,618.13869349999,None,,,,,,hnxrev,001,french,0,2022-07-25_14h54.29.387,Continuous,2022.1.1,None,
20,0,20,0,1,0,1,0,,,,,,,,2.619292207253636,none,3482.0,-6.439977293791027,3.5659606890720904e-05,0,81,['time'],0.013117833295837045,None,None,628.9235244999873,628.9235244999873,0.21426203328883275,2.833554240542469,629.1365691999963,628.9235244999873,,,,,,,,,hnxrev,001,french,0,2022-07-25_14h54.29.387,Continuous,2022.1.1,None,
20,0,20,0,2,0,2,0,,,,,,,,2.246931460507003,none,1162.0,-1.4237176712835962,4.314404673349965e-05,0,82,['time'],0.01384913333458826,None,None,631.7931612000102,631.7931612000102,0.2144476333342027,2.461379093841206,632.011328099994,631.7931612000102,,,,,,,,,hnxrev,001,french,0,2022-07-25_14h54.29.387,Continuous,2022.1.1,None,
20,0,20,0,3,0,3,0,,,,,,,,1.3211934821365467,none,308.0,-8.56963679915441,3.95344399071942e-05,0,83,['time'],0.014264733355958015,None,['space'],634.2963281999982,634.2963281999982,0.23041593335801736,1.551609415494564,634.5254484000034,634.2963281999982,[-1.9721001999860164],,,,,,,,hnxrev,001,french,0,2022-07-25_14h54.29.387,Continuous,2022.1.1,None,
20,0,20,0,4,0,4,0,,,,,,,,1.5821862791269228,none,518.0,-5.969070396490116,3.452254620291242e-05,0,84,"['time', 'none']",0.014457433309871703,None,None,635.8740640000033,635.8740640000033,0.21942263332311995,1.8016089124500427,636.0914923000091,635.8740640000033,,,,,,"{'estimation': [[125.0, -2.334501682597546], [133.9716828170366, -2.2150880949942455], [143.5872943746293, -2.294956371161396], [153.89305166811442, -2.567410343043721], [164.93848884661162, -2.9830291060294645], [165.34774940814438, -3.0], [176.77669529663666, -3.454155055751885], [189.46457081379947, -3.8644972622988436], [196.56817759575173, -4.0], [203.0630990890584, -4.1205434309104625], [217.6376408240306, -4.146796006286154], [227.81878251923783, -4.0], [233.25824788420132, -3.924950589518925], [249.99999999999937, -3.4997796368395058], [266.0379025660034, -3.0], [267.94336563407256, -2.943464215471233], [287.17458874925757, -2.359850069975928], [300.665390571769, -2.0], [307.78610333622805, -1.8206997246371004], [329.87697769322244, -1.3799931948558282], [353.553390593272, -1.0267078912866416], [355.7707440713731, -1.0], [378.929141627598, -0.7349968946647047], [406.12619817811606, -0.47791219209801533], [435.2752816480601, -0.25313604759604846], [466.5164957684015, -0.10801886504704025], [499.9999999999975, -0.12900163657547575], [535.8867312681438, -0.40181726639985504], [574.3491774985143, -0.9765484173412073], [575.4479640140385, -1.0], [615.5722066724546, -1.8188403717069932], [623.2689089834726, -2.0], [659.7539553864432, -2.8209160049851993], [668.0025299245035, -3.0], [707.1067811865431, -3.811714713677054], [718.6393218090699, -4.0], [757.8582832551941, -4.617787420031458], [799.9041861830304, -5.0], [812.2523963562301, -5.111708890102397], [870.5505632961181, -5.2538561715871595], [933.0329915368008, -5.091890506329552], [949.9559946792477, -5.0], [999.9999999999926, -4.74454904372233], [1071.773462536285, -4.351845415040779], [1148.698354997026, -4.019367668531608], [1156.4541738779883, -4.0], [1231.1444133449063, -3.8242603876843617], [1319.5079107728832, -3.789390437913709], [1414.2135623730828, -3.9080196193450227], [1449.633250462402, -4.0], [1515.7165665103846, -4.167850112151229], [1624.5047927124563, -4.553894538701472], [1724.7976861447034, -5.0], [1741.1011265922318, -5.072889376459119], [1866.065983073597, -5.711571543114843], [1918.4687021838474, -6.0], [1999.9999999999802, -6.448556834317811], [2102.8841307118464, -7.0], [2143.5469250725646, -7.21789212024171], [2297.396709994046, -7.925798917362782], [2319.1994697402583, -8.0], [2462.2888266898062, -8.473696916618373], [2639.01582154576, -8.755857186384283], [2828.427124746159, -8.722321013434538], [3031.4331330207615, -8.377678313751986], [3167.587363543663, -8.0], [3249.0095854249043, -7.788819556240044], [3482.202253184451, -7.095842091846836], [3517.386182490643, -7.0], [3732.1319661471844, -6.450003690416812], [3999.9999999999504, -6.004463351126318], [4008.1406808410047, -6.0], [4287.093850145118, -5.850705531705349], [4568.76594282541, -6.0], [4594.793419988076, -6.013252111722892], [4924.577653379601, -6.4117541112398815], [5278.031643091506, -6.908499843960733], [5357.384771910759, -7.0], [5656.854249492303, -7.327239879370545], [6062.866266041508, -7.499650480444271], [6498.019170849792, -7.323611624321871], [6769.135818585066, -7.0], [6964.404506368894, -6.769520009159812], [7410.959605308116, -6.0], [7464.2639322943505, -5.907622508201092], [7932.132913828184, -5.0], [7999.999999999882, -4.864255634099267]], 'plus_line': [[125.0, -5.910433746295882], [133.9716828170366, -5.655766117546624], [143.5872943746293, -5.789662560562304], [149.49959686214567, -6.0], [153.8930516681145, -6.171895617541843], [164.93848884661162, -6.655555499504172], [173.82458044147353, -7.0], [176.77669529663666, -7.121126462481981], [189.46457081379947, -7.521948394060063], [203.0630990890585, -7.7545771712959395], [217.6376408240306, -7.7752540683711775], [233.25824788420132, -7.547332330038248], [249.99999999999937, -7.058617827077404], [251.5109966060942, -7.000000000000001], [267.94336563407256, -6.438083275751428], [279.69993965659575, -6.0], [287.1745887492579, -5.751035757015401], [307.78610333622805, -5.130722273337882], [313.16508571572825, -5.0], [329.87697769322244, -4.646445847936935], [353.55339059327247, -4.274204093954731], [374.90684779229457, -4.0], [378.929141627598, -3.9554055121529976], [406.12619817811606, -3.683538268631542], [435.2752816480601, -3.4188500919081104], [466.5164957684015, -3.2297098703751903], [499.9999999999975, -3.2379748293367046], [535.8867312681438, -3.532817108588218], [566.4663022478218, -4.0], [574.3491774985151, -4.126074798708518], [615.5722066724546, -4.980857152554956], [616.3887626711286, -5.0], [659.7539553864432, -5.992376341199964], [660.1040772942189, -6.0], [706.839727787069, -6.999999999999999], [707.1067811865431, -7.0056411413313295], [757.8582832551941, -7.87257298457649], [770.3067692265346, -8.0], [812.2523963562301, -8.45780114567221], [870.5505632961181, -8.663673715770003], [933.0329915368008, -8.529220921540233], [999.9999999999926, -8.141055458920405], [1019.8416495391332, -8.0], [1071.773462536285, -7.683949622603166], [1148.698354997026, -7.283793301566179], [1231.1444133449063, -7.021917780140022], [1260.4309832708518, -7.0], [1319.5079107728832, -6.964075970508011], [1347.9518948774937, -7.0], [1414.2135623730828, -7.092688409963868], [1515.7165665103846, -7.398896184643517], [1624.5047927124563, -7.851112418598271], [1652.4924464023763, -8.0], [1741.1011265922318, -8.497108836898612], [1822.4278188916003, -9.0], [1866.065983073597, -9.283190550497437], [1974.7939932596262, -10.0], [1999.9999999999802, -10.17204475319], [2131.4888537322263, -11.000000000000002], [2143.5469250725646, -11.0779586247809], [2297.396709994046, -11.891497043775987], [2328.0200249236964, -12.0], [2462.2888266898062, -12.492611537218547], [2639.0158215457564, -12.748500447166801], [2828.427124746159, -12.632666915578607], [3031.4331330207615, -12.14534439175161], [3070.052917972096, -12.0], [3249.0095854249043, -11.409896090465807], [3355.1400895199545, -11.0], [3482.2022531844555, -10.562809249625687], [3660.0116735836145, -10.0], [3732.1319661471844, -9.796282335369067], [3999.999999999946, -9.29759885275242], [4287.093850145118, -9.128247451406818], [4594.7934199880865, -9.306316996146865], [4924.577653379601, -9.70878968360471], [5137.3367244729725, -10.0], [5278.031643091506, -10.20217970573514], [5656.854249492303, -10.626186401279314], [6062.866266041508, -10.81985626717182], [6498.019170849792, -10.699245283350065], [6964.404506368894, -10.218351359033228], [7106.940689944103, -10.0], [7464.2639322943505, -9.47758346828612], [7778.729400004445, -9.0], [7999.999999999882, -8.663821693367002]], 'minus_line': [[125.0, 1.2152626727565017], [133.9716828170366, 1.1865851291585567], [143.5872943746293, 1.1424114092925963], [150.34667200744767, 1.0], [153.89305166811442, 0.9344829249403432], [164.93848884661162, 0.5526915512228294], [176.77669529663666, 0.03476953965525664], [177.6444981781748, 0.0], [189.46457081379947, -0.4122894740602308], [203.0630990890585, -0.688835583125929], [217.6376408240306, -0.7078234842471256], [233.25824788420132, -0.4753044948567532], [249.99999999999923, -0.07660528688211705], [252.6916455627595, 0.0], [267.94336563407256, 0.44082859975238275], [287.1745887492579, 0.9351018843567557], [290.00960516287864, 1.0], [307.78610333622805, 1.4126363028736102], [329.87697769322244, 1.7963428410429605], [344.8839929257853, 2.0], [353.55339059327247, 2.125934603531755], [378.929141627598, 2.4248494426730804], [406.12619817811606, 2.683440103095477], [435.2752816480601, 2.9063377567113187], [453.6850786558219, 3.0], [466.5164957684015, 3.0736631257541873], [499.9999999999975, 3.097432486931086], [514.2839109285221, 3.0], [535.8867312681438, 2.8728622122842267], [574.3491774985143, 2.335877738507312], [589.6406932872719, 2.0], [615.5722066724546, 1.4700049130083885], [634.4582662740164, 1.0], [659.7539553864432, 0.40372000610595016], [677.1328347220073, 0.0], [707.1067811865431, -0.655791509357078], [726.9071461713629, -1.0], [757.8582832551941, -1.4930925906221786], [812.2523963562301, -1.9946091532865156], [814.7471236200766, -2.0], [870.5505632961181, -2.101898986266372], [908.201165030081, -2.0], [933.0329915368008, -1.9264697544544542], [999.9999999999926, -1.5817045279941264], [1071.773462536285, -1.2248772290679855], [1130.3085379475167, -1.0], [1148.698354997026, -0.9235315822862754], [1231.1444133449063, -0.717529670228084], [1319.5079107728832, -0.6547844850967998], [1414.2135623730828, -0.7294883556332326], [1515.7165665103846, -0.9362331261409054], [1536.5894191003817, -1.0], [1624.5047927124563, -1.2362795486873552], [1741.1011265922318, -1.6518097833879222], [1818.472365129881, -2.0], [1866.065983073597, -2.1983096888140037], [1999.9999999999802, -2.8402830381612603], [2031.2436831606435, -3.0], [2143.5469250725646, -3.5336021539965925], [2246.349451135317, -4.0], [2297.396709994049, -4.215710062204316], [2462.2888266898062, -4.757818734708813], [2589.3034623232547, -5.0], [2639.01582154576, -5.083691914564133], [2828.427124746162, -5.10531369984123], [2905.6062418816223, -5.0], [3031.4331330207615, -4.820145959135129], [3249.0095854249043, -4.297035092073633], [3356.214653906425, -4.0], [3482.2022531844555, -3.644862069958566], [3732.1319661471844, -3.032456182068189], [3751.079585166004, -3.0], [3999.9999999999504, -2.5498095009537067], [4287.093850145118, -2.3669197723793323], [4594.793419988081, -2.506011279317663], [4924.577653379601, -2.9390830669230814], [4960.539431659075, -3.0], [5278.031643091506, -3.4689118943233304], [5656.854249492303, -3.9484703998015633], [5756.421857136734, -4.0], [6062.866266041508, -4.13283415273535], [6355.962037523031, -4.0], [6498.019170849792, -3.9290774626288547], [6964.404506368894, -3.2976657173282033], [7114.2036319000445, -3.0000000000000004], [7464.2639322943505, -2.299567526833707], [7589.158671262007, -2.0], [7999.999999999882, -1.008122237601504]]}",,,hnxrev,001,french,0,2022-07-25_14h54.29.387,Continuous,2022.1.1,None,
20,0,20,0,5,0,5,0,,,,,,,,1.7345171343907027,none,461.0,-1.5761201616154896,6.125079158831281e-05,0,85,"['time', 'none']",0.012857433350291103,None,None,637.7120027999918,637.7120027999918,0.21340023333323188,1.9479173677239345,637.9322243999923,637.7120027999918,,,,,,,,,hnxrev,001,french,0,2022-07-25_14h54.29.387,Continuous,2022.1.1,None,
20,0,20,0,6,0,6,0,,,,,,,,1.0855401145820234,none,,,,1,85,"['time', 'none']",0.008671733317896724,None,['space'],639.7087569999858,639.7087569999858,0.20700533333001658,1.29254544791204,639.9315642000001,639.7087569999858,[-1.5769120999902952],,,,,,,,hnxrev,001,french,0,2022-07-25_14h54.29.387,Continuous,2022.1.1,None,
20,0,20,0,7,0,7,0,,,,,,,,1.542012692432679,none,7817.0,-7.181901477047766,7.698347500204368e-05,0,86,"['time', 'none']",0.01367273333016783,None,None,641.0524826000037,641.0524826000037,0.21195263334084302,1.753965325773522,641.2654461000056,641.0524826000037,,,,,,,,,hnxrev,001,french,0,2022-07-25_14h54.29.387,Continuous,2022.1.1,None,
20,0,20,0,8,0,8,0,,,,,,,,1.6618773428089433,none,5217.0,-9.52673043286605,4.833522327787698e-05,0,87,"['time', 'none']",0.015706433332525194,None,['space'],642.847923399997,642.847923399997,0.22576743332319893,1.8876447761321422,643.0692888000049,642.847923399997,[-1.3557131999987178],,,,,,,,hnxrev,001,french,0,2022-07-25_14h54.29.387,Continuous,2022.1.1,None,
20,0,20,0,9,0,9,0,,,,,,,,2.7816743777920117,none,2462.0,-9.0,3.017796554057358e-05,0,88,"['time', 'none']",0.011835833342047408,None,['space'],644.7657468999969,644.7657468999969,0.2090770333306864,2.990751411122698,644.9845115999924,644.7657468999969,[-1.504290500015486],,,,,,,,hnxrev,001,french,0,2022-07-25_14h54.29.387,Continuous,2022.1.1,None,
20,0,20,0,10,0,10,0,,,,,,,,1.0203024152970166,none,776.0,-7.327317420249681,1.697398633037786e-05,0,89,"['time', 'none']",0.012568133301101625,None,None,647.8047234999831,647.8047234999831,0.20830453329836018,1.2286069485953768,648.026192099991,647.8047234999831,,,,,,,,,hnxrev,001,french,0,2022-07-25_14h54.29.387,Continuous,2022.1.1,None,
20,0,20,0,11,0,11,0,,,,,,,,1.4700562134128063,none,1741.0,-2.551578163355864,4.7050942239950145e-05,0,90,"['time', 'none']",0.009322633355623111,None,None,649.0844935000059,649.0844935000059,0.20474033334176056,1.674796546754567,649.3028561999963,649.0844935000059,,,,,,,,,hnxrev,001,french,0,2022-07-25_14h54.29.387,Continuous,2022.1.1,None,
20,0,20,0,12,0,12,0,,,,,,,,1.6798986900020347,none,274.0,-8.980689191121304,5.0515875829258334e-05,0,91,"['time', 'none']",0.005243433319265023,None,None,650.8187124999822,650.8187124999822,0.2083514333353378,1.8882501233373725,651.0444917999848,650.8187124999822,,,,,,,,,hnxrev,001,french,0,2022-07-25_14h54.29.387,Continuous,2022.1.1,None,
21,0,21,0,0,0,0,0,,,,,,655.8190859000024,None,1.121377824524341,frequency,249.0,-0.46742557202631513,0.0001605645101666045,0,62,"['time', 'none']",0.012313966668443754,None,None,656.872956999985,None,0.20526606668136083,1.326643891205702,657.0849097000028,None,,652.7551320999919,None,0.16666666666666666,,,,,hnxrev,001,french,0,2022-07-25_14h54.29.387,Continuous,2022.1.1,None,
21,0,21,0,1,0,1,0,,,,,,,,1.6149557213943624,frequency,222.0,-0.8875429301293625,0.00020074305765561254,0,63,"['time', 'none']",0.011706433317158371,None,['space'],658.2377257999906,658.2377257999906,0.213335433305474,1.8282911546998364,658.4532892999996,658.2377257999906,[-0.11372470000060275],,,,,,,,hnxrev,001,french,0,2022-07-25_14h54.29.387,Continuous,2022.1.1,None,
21,0,21,0,2,0,2,0,,,,,,,,1.9815106748369786,frequency,198.0,-0.7000417828331005,0.0002516081682302474,0,64,"['time', 'none']",0.010000333335483447,None,['space'],660.1090796999924,660.1090796999924,0.21116213334607892,2.1926728081830573,660.3215293000103,660.1090796999924,[-1.2250811999838334],,,,,,,,hnxrev,001,french,0,2022-07-25_14h54.29.387,Continuous,2022.1.1,None,
21,0,21,0,3,0,3,0,,,,,,,,2.9347388686134828,frequency,176.0,-0.24301239512256118,0.00034311453251939457,0,65,"['time', 'none']",0.012238133320352063,0.20988153331563808,['space'],662.3401604999963,662.3401604999963,0.20988153331563808,3.144620401929121,662.5519175000081,662.3401604999963,[-1.8803511000005528],,,,,,,,hnxrev,001,french,0,2022-07-25_14h54.29.387,Continuous,2022.1.1,None,
21,0,21,0,4,0,4,0,,,,,,,,1.7663592600715046,frequency,157.0,-0.5304928030322495,0.0004118894333686115,0,66,"['time', 'none']",0.011739033361664042,None,['space'],665.5248247999989,665.5248247999989,0.23204423335846514,1.9984034934299697,665.7562707999896,665.5248247999989,[-2.8877528999873903],,,,,,,,hnxrev,001,french,0,2022-07-25_14h54.29.387,Continuous,2022.1.1,None,
21,0,21,0,5,0,5,0,,,,,,,,2.219617150027652,frequency,140.0,-0.7178461500866509,0.0005424428046946155,0,67,"['time', 'none']",0.011946833343245089,0.20660103333648294,['space'],667.5515802000009,667.5515802000009,0.20660103333648294,2.426218183364135,667.7595127999957,667.5515802000009,[-1.6670928999956232],,,,,,,,hnxrev,001,french,0,2022-07-25_14h54.29.387,Continuous,2022.1.1,None,
