practice.thisRepN,practice.thisTrialN,practice.thisN,practice.thisIndex,trials.thisRepN,trials.thisTrialN,trials.thisN,trials.thisIndex,blank_txt.started,blank_txt.stopped,practice_frequency,practice_level,psychopy_volume,tProbe.started,tProbe.stopped,tFeedback.keys,tFeedback.corr,tFeedback.rt,tFeedback.started,tFeedback.stopped,tToo_early.keys,tToo_early.corr,tToo_early.started,tToo_early.stopped,tToo_late.keys,tToo_late.corr,tToo_late.started,tToo_late.stopped,you_done_goofed.started,you_done_goofed.stopped,Init_phase,Frequency,Level,Psychopy_Volume,Catch trial,probe.started,probe.stopped,feedback.keys,feedback.corr,feedback.rt,feedback.started,feedback.stopped,too_late.keys,too_late.corr,too_late.started,too_late.stopped,too_late.rt,Audiogram,participant,session,Language (english or french),Tone duration (ms),date,expName,psychopyVersion,frameRate,
0,0,0,0,,,,,24.339311900010216,None,567,40,0.006099267302654233,1.0100945666636107,None,['space'],1,[0.7666667000012239],26.338635600011912,27.349386000001687,None,1,25.359105499999714,26.371482500006096,None,1,27.349386000001687,None,28.397034300011,None,,,,,,,,,,,,,,,,,,,ttuwra,001,fr,200,2022-04-26_10h54.03.739,Bayesian,2022.1.1,None,
1,0,1,0,,,,,,,234,40,0.019882976039061955,1.0012857666733908,None,['space'],1,[0.5985712999972748],31.40308800000639,32.40787020001153,None,1,30.420059500000207,31.432311700002174,None,1,32.40787020001153,None,33.44334979999985,None,,,,,,,,,,,,,,,,,,,ttuwra,001,fr,200,2022-04-26_10h54.03.739,Bayesian,2022.1.1,None,
2,0,2,0,,,,,,,2345,40,0.008245949202640053,1.0149256666772999,None,['space'],1,[0.5397461999964435],40.22947290001321,41.246349000008195,None,1,39.228892600003746,40.24672960001044,None,1,41.246349000008195,None,42.27599390000978,None,,,,,,,,,,,,,,,,,,,ttuwra,001,fr,200,2022-04-26_10h54.03.739,Bayesian,2022.1.1,None,
,,,,0,0,0,0,45.747480900012306,None,,,,,,,,,,,,,,,,,,,,,"{'x': [], 'y': [], 'is_init_phase': True, 'is_exam_finished': False, 'threshold_uncertainty_db': 6}",1000,60,0.0440524436504007,False,0.012529899991932325,0.20842419999826234,['space'],1,[0.28846270000212826],46.83329040001263,47.836881499999436,None,1,47.836881499999436,None,,,ttuwra,001,fr,200,2022-04-26_10h54.03.739,Bayesian,2022.1.1,None,
,,,,1,0,1,0,,,,,,,,,,,,,,,,,,,,,,,"{'x': [[1000, 60]], 'y': [[1]], 'audiogram': {}, 'is_init_phase': True, 'is_exam_finished': False, 'threshold_uncertainty_db': 6}",1000,40,0.004405244365040069,False,0.008329399992362596,None,['space'],1,[0.2844458999898052],50.79033380000328,51.78992750000907,None,1,51.78992750000907,50.79033380000328,,,ttuwra,001,fr,200,2022-04-26_10h54.03.739,Bayesian,2022.1.1,None,
,,,,2,0,2,0,,,,,,,,,,,,,,,,,,,,,,,"{'x': [[1000, 60], [1000, 40]], 'y': [[1], [1]], 'audiogram': {}, 'is_init_phase': True, 'is_exam_finished': False, 'threshold_uncertainty_db': 6}",1000,20,0.0004405244365040069,False,0.010450500005390495,None,['space'],1,[0.8889977999933762],52.92009880000842,53.94058629999927,None,1,53.94058629999927,52.92009880000842,,,ttuwra,001,fr,200,2022-04-26_10h54.03.739,Bayesian,2022.1.1,None,
,,,,3,0,3,0,,,,,,,,,,,,,,,,,,,,,,,"{'x': [[1000, 60], [1000, 40], [1000, 20]], 'y': [[1], [1], [1]], 'audiogram': {}, 'is_init_phase': True, 'is_exam_finished': False, 'threshold_uncertainty_db': 6}",,,,True,0.01598393335007131,None,None,0,,55.62420170000405,56.63694350000878,None,1,56.63694350000878,55.62420170000405,,,ttuwra,001,fr,200,2022-04-26_10h54.03.739,Bayesian,2022.1.1,None,
,,,,4,0,4,0,,,,,,,,,,,,,,,,,,,,,,,"{'x': [[1000, 60], [1000, 40], [1000, 20]], 'y': [[1], [1], [1]], 'audiogram': {}, 'is_init_phase': True, 'is_exam_finished': False, 'threshold_uncertainty_db': 6}",1000,0,4.405244365040069e-05,False,0.0011781333159888163,None,None,0,,58.55161950000911,59.582935000013094,None,1,59.582935000013094,58.55161950000911,,,ttuwra,001,fr,200,2022-04-26_10h54.03.739,Bayesian,2022.1.1,None,
,,,,5,0,5,0,,,,,,,,,,,,,,,,,,,,,,,"{'x': [[1000, 60], [1000, 40], [1000, 20], [1000, 0]], 'y': [[1], [1], [1], [-1]], 'audiogram': {}, 'is_init_phase': True, 'is_exam_finished': False, 'threshold_uncertainty_db': 6}",1500,10,0.0001527460556607757,False,0.015491800018935464,None,None,0,,62.62465760001214,63.62966310000047,None,1,63.62966310000047,62.62465760001214,,,ttuwra,001,fr,200,2022-04-26_10h54.03.739,Bayesian,2022.1.1,None,
,,,,6,0,6,0,,,,,,,,,,,,,,,,,,,,,,,"{'x': [[1000, 60], [1000, 40], [1000, 20], [1000, 0], [1500, 10]], 'y': [[1], [1], [1], [-1], [-1]], 'audiogram': {}, 'is_init_phase': True, 'is_exam_finished': False, 'threshold_uncertainty_db': 6}",1500,30,0.001527460556607757,False,0.014337800021166913,None,['space'],1,[0.41464170000108425],66.41820080000616,67.41685790001065,None,1,67.41685790001065,66.41820080000616,,,ttuwra,001,fr,200,2022-04-26_10h54.03.739,Bayesian,2022.1.1,None,
,,,,7,0,7,0,,,,,,,,,,,,,,,,,,,,,,,"{'x': [[1000, 60], [1000, 40], [1000, 20], [1000, 0], [1500, 10], [1500, 30]], 'y': [[1], [1], [1], [-1], [-1], [1]], 'audiogram': {}, 'is_init_phase': True, 'is_exam_finished': False, 'threshold_uncertainty_db': 6}",2000,10,0.00023657562948074026,False,0.014953500009141862,None,None,0,,69.02960590001021,70.0363759000029,None,1,70.0363759000029,69.02960590001021,,,ttuwra,001,fr,200,2022-04-26_10h54.03.739,Bayesian,2022.1.1,None,
,,,,8,0,8,0,,,,,,,,,,,,,,,,,,,,,,,"{'x': [[1000, 60], [1000, 40], [1000, 20], [1000, 0], [1500, 10], [1500, 30], [2000, 10]], 'y': [[1], [1], [1], [-1], [-1], [1], [-1]], 'audiogram': {}, 'is_init_phase': True, 'is_exam_finished': False, 'threshold_uncertainty_db': 6}",,,,True,0.012953933328390121,None,None,0,,71.69102070000372,72.68911770000705,None,1,72.68911770000705,71.69102070000372,,,ttuwra,001,fr,200,2022-04-26_10h54.03.739,Bayesian,2022.1.1,None,
,,,,9,0,9,0,,,,,,,,,,,,,,,,,,,,,,,"{'x': [[1000, 60], [1000, 40], [1000, 20], [1000, 0], [1500, 10], [1500, 30], [2000, 10]], 'y': [[1], [1], [1], [-1], [-1], [1], [-1]], 'audiogram': {}, 'is_init_phase': True, 'is_exam_finished': False, 'threshold_uncertainty_db': 6}",2000,30,0.0023657562948074026,False,0.013724500007811002,None,['space'],1,[0.3433742999914102],74.76203900000837,75.77899460001208,None,1,75.77899460001208,74.76203900000837,,,ttuwra,001,fr,200,2022-04-26_10h54.03.739,Bayesian,2022.1.1,None,
,,,,10,0,10,0,,,,,,,,,,,,,,,,,,,,,,,"{'x': [[1000, 60], [1000, 40], [1000, 20], [1000, 0], [1500, 10], [1500, 30], [2000, 10], [2000, 30]], 'y': [[1], [1], [1], [-1], [-1], [1], [-1], [1]], 'audiogram': {}, 'is_init_phase': True, 'is_exam_finished': False, 'threshold_uncertainty_db': 6}",3000,10,0.00017336842522626576,False,0.014027099998202175,None,None,0,,78.64347220001218,79.65253810001013,None,1,79.65253810001013,78.64347220001218,,,ttuwra,001,fr,200,2022-04-26_10h54.03.739,Bayesian,2022.1.1,None,
,,,,11,0,11,0,,,,,,,,,,,,,,,,,,,,,,,"{'x': [[1000, 60], [1000, 40], [1000, 20], [1000, 0], [1500, 10], [1500, 30], [2000, 10], [2000, 30], [3000, 10]], 'y': [[1], [1], [1], [-1], [-1], [1], [-1], [1], [-1]], 'audiogram': {}, 'is_init_phase': True, 'is_exam_finished': False, 'threshold_uncertainty_db': 6}",3000,30,0.001733684252262658,False,0.013083699988783337,None,['space'],1,[0.32381819999136496],82.63662110001314,83.6333416000125,None,1,83.6333416000125,82.63662110001314,,,ttuwra,001,fr,200,2022-04-26_10h54.03.739,Bayesian,2022.1.1,None,
,,,,12,0,12,0,,,,,,,,,,,,,,,,,,,,,,,"{'x': [[1000, 60], [1000, 40], [1000, 20], [1000, 0], [1500, 10], [1500, 30], [2000, 10], [2000, 30], [3000, 10], [3000, 30]], 'y': [[1], [1], [1], [-1], [-1], [1], [-1], [1], [-1], [1]], 'audiogram': {}, 'is_init_phase': True, 'is_exam_finished': False, 'threshold_uncertainty_db': 6}",,,,True,0.013018133337027393,0.21023763333505485,None,0,,85.29356230000849,86.3076141000056,None,1,86.3076141000056,85.29356230000849,,,ttuwra,001,fr,200,2022-04-26_10h54.03.739,Bayesian,2022.1.1,None,
,,,,13,0,13,0,,,,,,,,,,,,,,,,,,,,,,,"{'x': [[1000, 60], [1000, 40], [1000, 20], [1000, 0], [1500, 10], [1500, 30], [2000, 10], [2000, 30], [3000, 10], [3000, 30]], 'y': [[1], [1], [1], [-1], [-1], [1], [-1], [1], [-1], [1]], 'audiogram': {}, 'is_init_phase': True, 'is_exam_finished': False, 'threshold_uncertainty_db': 6}",4000,10,0.00026544222211549425,False,0.01223950000712648,None,None,0,,88.3603460000013,89.38133320001361,None,1,89.38133320001361,88.3603460000013,,,ttuwra,001,fr,200,2022-04-26_10h54.03.739,Bayesian,2022.1.1,None,
,,,,14,0,14,0,,,,,,,,,,,,,,,,,,,,,,,"{'x': [[1000, 60], [1000, 40], [1000, 20], [1000, 0], [1500, 10], [1500, 30], [2000, 10], [2000, 30], [3000, 10], [3000, 30], [4000, 10]], 'y': [[1], [1], [1], [-1], [-1], [1], [-1], [1], [-1], [1], [-1]], 'audiogram': {}, 'is_init_phase': True, 'is_exam_finished': False, 'threshold_uncertainty_db': 6}",4000,30,0.0026544222211549416,False,0.011343399994075298,None,['space'],1,[0.49000879999948665],91.81556040000578,92.83863910000946,None,1,92.83863910000946,91.81556040000578,,,ttuwra,001,fr,200,2022-04-26_10h54.03.739,Bayesian,2022.1.1,None,
,,,,15,0,15,0,,,,,,,,,,,,,,,,,,,,,,,"{'x': [[1000, 60], [1000, 40], [1000, 20], [1000, 0], [1500, 10], [1500, 30], [2000, 10], [2000, 30], [3000, 10], [3000, 30], [4000, 10], [4000, 30]], 'y': [[1], [1], [1], [-1], [-1], [1], [-1], [1], [-1], [1], [-1], [1]], 'audiogram': {}, 'is_init_phase': True, 'is_exam_finished': False, 'threshold_uncertainty_db': 6}",6000,10,0.00036641226656945183,False,0.012797500006854534,None,None,0,,95.6961302000127,96.70694780000485,None,1,96.70694780000485,95.6961302000127,,,ttuwra,001,fr,200,2022-04-26_10h54.03.739,Bayesian,2022.1.1,None,
,,,,16,0,16,0,,,,,,,,,,,,,,,,,,,,,,,"{'x': [[1000, 60], [1000, 40], [1000, 20], [1000, 0], [1500, 10], [1500, 30], [2000, 10], [2000, 30], [3000, 10], [3000, 30], [4000, 10], [4000, 30], [6000, 10]], 'y': [[1], [1], [1], [-1], [-1], [1], [-1], [1], [-1], [1], [-1], [1], [-1]], 'audiogram': {}, 'is_init_phase': True, 'is_exam_finished': False, 'threshold_uncertainty_db': 6}",,,,True,0.011691433333908208,None,None,0,,99.38699670000642,100.39305030000105,None,1,100.39305030000105,99.38699670000642,,,ttuwra,001,fr,200,2022-04-26_10h54.03.739,Bayesian,2022.1.1,None,
,,,,17,0,17,0,,,,,,,,,,,,,,,,,,,,,,,"{'x': [[1000, 60], [1000, 40], [1000, 20], [1000, 0], [1500, 10], [1500, 30], [2000, 10], [2000, 30], [3000, 10], [3000, 30], [4000, 10], [4000, 30], [6000, 10]], 'y': [[1], [1], [1], [-1], [-1], [1], [-1], [1], [-1], [1], [-1], [1], [-1]], 'audiogram': {}, 'is_init_phase': True, 'is_exam_finished': False, 'threshold_uncertainty_db': 6}",6000,30,0.003664122665694519,False,0.011806599999545142,None,['space'],1,[0.26691040000878274],102.42257520000567,103.44136890000664,None,1,103.44136890000664,102.42257520000567,,,ttuwra,001,fr,200,2022-04-26_10h54.03.739,Bayesian,2022.1.1,None,
,,,,18,0,18,0,,,,,,,,,,,,,,,,,,,,,,,"{'x': [[1000, 60], [1000, 40], [1000, 20], [1000, 0], [1500, 10], [1500, 30], [2000, 10], [2000, 30], [3000, 10], [3000, 30], [4000, 10], [4000, 30], [6000, 10], [6000, 30]], 'y': [[1], [1], [1], [-1], [-1], [1], [-1], [1], [-1], [1], [-1], [1], [-1], [1]], 'audiogram': {}, 'is_init_phase': True, 'is_exam_finished': False, 'threshold_uncertainty_db': 6}",8000,10,0.0005740768107484417,False,0.009208399991621263,None,['space'],1,[0.9749828000058187],106.05000040000596,107.06529070000397,None,1,107.06529070000397,106.05000040000596,,,ttuwra,001,fr,200,2022-04-26_10h54.03.739,Bayesian,2022.1.1,None,
,,,,19,0,19,0,,,,,,,,,,,,,,,,,,,,,,,"{'x': [[1000, 60], [1000, 40], [1000, 20], [1000, 0], [1500, 10], [1500, 30], [2000, 10], [2000, 30], [3000, 10], [3000, 30], [4000, 10], [4000, 30], [6000, 10], [6000, 30], [8000, 10]], 'y': [[1], [1], [1], [-1], [-1], [1], [-1], [1], [-1], [1], [-1], [1], [-1], [1], [1]], 'audiogram': {}, 'is_init_phase': True, 'is_exam_finished': False, 'threshold_uncertainty_db': 6}",8000,-10,5.740768107484415e-05,False,0.01102020000689663,None,None,0,,109.81483710001339,110.81785120000131,None,1,110.81785120000131,109.81483710001339,,,ttuwra,001,fr,200,2022-04-26_10h54.03.739,Bayesian,2022.1.1,None,
,,,,20,0,20,0,,,,,,,,,,,,,,,,,,,,,,,"{'x': [[1000, 60], [1000, 40], [1000, 20], [1000, 0], [1500, 10], [1500, 30], [2000, 10], [2000, 30], [3000, 10], [3000, 30], [4000, 10], [4000, 30], [6000, 10], [6000, 30], [8000, 10], [8000, -10]], 'y': [[1], [1], [1], [-1], [-1], [1], [-1], [1], [-1], [1], [-1], [1], [-1], [1], [1], [-1]], 'audiogram': {}, 'is_init_phase': True, 'is_exam_finished': False, 'threshold_uncertainty_db': 6}",750,10,0.00012851978913844324,False,0.0063335000013466924,0.19609570001193788,None,0,,112.0239067000075,113.01690190000227,None,1,113.01690190000227,112.0239067000075,,,ttuwra,001,fr,200,2022-04-26_10h54.03.739,Bayesian,2022.1.1,None,
,,,,21,0,21,0,,,,,,,,,,,,,,,,,,,,,,,"{'x': [[1000, 60], [1000, 40], [1000, 20], [1000, 0], [1500, 10], [1500, 30], [2000, 10], [2000, 30], [3000, 10], [3000, 30], [4000, 10], [4000, 30], [6000, 10], [6000, 30], [8000, 10], [8000, -10], [750, 10]], 'y': [[1], [1], [1], [-1], [-1], [1], [-1], [1], [-1], [1], [-1], [1], [-1], [1], [1], [-1], [-1]], 'audiogram': {}, 'is_init_phase': True, 'is_exam_finished': False, 'threshold_uncertainty_db': 6}",,,,True,0.012286933342693374,None,['space'],1,[0.452893599998788],114.81200910000189,115.82877800001006,None,1,115.82877800001006,114.81200910000189,,,ttuwra,001,fr,200,2022-04-26_10h54.03.739,Bayesian,2022.1.1,None,
,,,,22,0,22,0,,,,,,,,,,,,,,,,,,,,,,,"{'x': [[1000, 60], [1000, 40], [1000, 20], [1000, 0], [1500, 10], [1500, 30], [2000, 10], [2000, 30], [3000, 10], [3000, 30], [4000, 10], [4000, 30], [6000, 10], [6000, 30], [8000, 10], [8000, -10], [750, 10]], 'y': [[1], [1], [1], [-1], [-1], [1], [-1], [1], [-1], [1], [-1], [1], [-1], [1], [1], [-1], [-1]], 'audiogram': {}, 'is_init_phase': True, 'is_exam_finished': False, 'threshold_uncertainty_db': 6}",750,30,0.0012851978913844323,False,0.010011400008806959,None,['space'],1,[0.45255610000458546],118.89283690000593,119.90618450001057,None,1,119.90618450001057,118.89283690000593,,,ttuwra,001,fr,200,2022-04-26_10h54.03.739,Bayesian,2022.1.1,None,
,,,,23,0,23,0,,,,,,,,,,,,,,,,,,,,,,,"{'x': [[1000, 60], [1000, 40], [1000, 20], [1000, 0], [1500, 10], [1500, 30], [2000, 10], [2000, 30], [3000, 10], [3000, 30], [4000, 10], [4000, 30], [6000, 10], [6000, 30], [8000, 10], [8000, -10], [750, 10], [750, 30]], 'y': [[1], [1], [1], [-1], [-1], [1], [-1], [1], [-1], [1], [-1], [1], [-1], [1], [1], [-1], [-1], [1]], 'audiogram': {}, 'is_init_phase': True, 'is_exam_finished': False, 'threshold_uncertainty_db': 6}",500,10,0.0002259279721874612,False,0.00957919999200385,None,None,0,,122.69481540001289,123.69453610001074,None,1,123.69453610001074,122.69481540001289,,,ttuwra,001,fr,200,2022-04-26_10h54.03.739,Bayesian,2022.1.1,None,
,,,,24,0,24,0,,,,,,,,,,,,,,,,,,,,,,,"{'x': [[1000, 60], [1000, 40], [1000, 20], [1000, 0], [1500, 10], [1500, 30], [2000, 10], [2000, 30], [3000, 10], [3000, 30], [4000, 10], [4000, 30], [6000, 10], [6000, 30], [8000, 10], [8000, -10], [750, 10], [750, 30], [500, 10]], 'y': [[1], [1], [1], [-1], [-1], [1], [-1], [1], [-1], [1], [-1], [1], [-1], [1], [1], [-1], [-1], [1], [-1]], 'audiogram': {}, 'is_init_phase': True, 'is_exam_finished': False, 'threshold_uncertainty_db': 6}",500,30,0.002259279721874612,False,0.0055477999994764104,None,['space'],1,[0.4425074000027962],125.62332009999955,126.61899480001011,None,1,126.61899480001011,125.62332009999955,,,ttuwra,001,fr,200,2022-04-26_10h54.03.739,Bayesian,2022.1.1,None,
,,,,25,0,25,0,,,,,,,,,,,,,,,,,,,,,,,"{'x': [[1000, 60], [1000, 40], [1000, 20], [1000, 0], [1500, 10], [1500, 30], [2000, 10], [2000, 30], [3000, 10], [3000, 30], [4000, 10], [4000, 30], [6000, 10], [6000, 30], [8000, 10], [8000, -10], [750, 10], [750, 30], [500, 10], [500, 30]], 'y': [[1], [1], [1], [-1], [-1], [1], [-1], [1], [-1], [1], [-1], [1], [-1], [1], [1], [-1], [-1], [1], [-1], [1]], 'audiogram': {}, 'is_init_phase': True, 'is_exam_finished': False, 'threshold_uncertainty_db': 6}",250,10,0.0005296268625886444,False,0.010945000001811422,None,None,0,,128.16484200001287,129.17501260001154,None,1,129.17501260001154,128.16484200001287,,,ttuwra,001,fr,200,2022-04-26_10h54.03.739,Bayesian,2022.1.1,None,
,,,,26,0,26,0,,,,,,,,,,,,,,,,,,,,,,,"{'x': [[1000, 60], [1000, 40], [1000, 20], [1000, 0], [1500, 10], [1500, 30], [2000, 10], [2000, 30], [3000, 10], [3000, 30], [4000, 10], [4000, 30], [6000, 10], [6000, 30], [8000, 10], [8000, -10], [750, 10], [750, 30], [500, 10], [500, 30], [250, 10]], 'y': [[1], [1], [1], [-1], [-1], [1], [-1], [1], [-1], [1], [-1], [1], [-1], [1], [1], [-1], [-1], [1], [-1], [1], [-1]], 'audiogram': {}, 'is_init_phase': True, 'is_exam_finished': False, 'threshold_uncertainty_db': 6}",,,,True,0.015160733339143917,None,None,0,,130.63832290000573,131.6388192000013,None,1,131.6388192000013,130.63832290000573,,,ttuwra,001,fr,200,2022-04-26_10h54.03.739,Bayesian,2022.1.1,None,
,,,,27,0,27,0,,,,,,,,,,,,,,,,,,,,,,,"{'x': [[1000, 60], [1000, 40], [1000, 20], [1000, 0], [1500, 10], [1500, 30], [2000, 10], [2000, 30], [3000, 10], [3000, 30], [4000, 10], [4000, 30], [6000, 10], [6000, 30], [8000, 10], [8000, -10], [750, 10], [750, 30], [500, 10], [500, 30], [250, 10]], 'y': [[1], [1], [1], [-1], [-1], [1], [-1], [1], [-1], [1], [-1], [1], [-1], [1], [1], [-1], [-1], [1], [-1], [1], [-1]], 'audiogram': {}, 'is_init_phase': True, 'is_exam_finished': False, 'threshold_uncertainty_db': 6}",250,30,0.005296268625886445,False,0.010455600000568666,None,['space'],1,[0.3717380000016419],134.20479350000096,135.22267460000876,None,1,135.22267460000876,134.20479350000096,,,ttuwra,001,fr,200,2022-04-26_10h54.03.739,Bayesian,2022.1.1,None,
,,,,28,0,28,0,,,,,,,,,,,,,,,,,,,,,,,"{'x': [[1000, 60], [1000, 40], [1000, 20], [1000, 0], [1500, 10], [1500, 30], [2000, 10], [2000, 30], [3000, 10], [3000, 30], [4000, 10], [4000, 30], [6000, 10], [6000, 30], [8000, 10], [8000, -10], [750, 10], [750, 30], [500, 10], [500, 30], [250, 10], [250, 30]], 'y': [[1], [1], [1], [-1], [-1], [1], [-1], [1], [-1], [1], [-1], [1], [-1], [1], [1], [-1], [-1], [1], [-1], [1], [-1], [1]], 'audiogram': {}, 'is_init_phase': True, 'is_exam_finished': False, 'threshold_uncertainty_db': 6}",125,10,0.002285440948074376,False,0.008175299997674301,None,None,0,,138.2004670000024,139.23813630000222,None,1,139.23813630000222,138.2004670000024,,,ttuwra,001,fr,200,2022-04-26_10h54.03.739,Bayesian,2022.1.1,None,
,,,,29,0,29,0,,,,,,,,,,,,,,,,,,,,,,,"{'x': [[1000, 60], [1000, 40], [1000, 20], [1000, 0], [1500, 10], [1500, 30], [2000, 10], [2000, 30], [3000, 10], [3000, 30], [4000, 10], [4000, 30], [6000, 10], [6000, 30], [8000, 10], [8000, -10], [750, 10], [750, 30], [500, 10], [500, 30], [250, 10], [250, 30], [125, 10]], 'y': [[1], [1], [1], [-1], [-1], [1], [-1], [1], [-1], [1], [-1], [1], [-1], [1], [1], [-1], [-1], [1], [-1], [1], [-1], [1], [-1]], 'audiogram': {}, 'is_init_phase': True, 'is_exam_finished': False, 'threshold_uncertainty_db': 6}",125,20,0.00722719885372964,False,0.0147714999911841,None,None,0,,141.6401654000074,142.65284140000585,None,1,142.65284140000585,141.6401654000074,,,ttuwra,001,fr,200,2022-04-26_10h54.03.739,Bayesian,2022.1.1,None,
,,,,30,0,30,0,,,,,,,,,,,,,,,,,,,,,,,"{'x': [[1000, 60], [1000, 40], [1000, 20], [1000, 0], [1500, 10], [1500, 30], [2000, 10], [2000, 30], [3000, 10], [3000, 30], [4000, 10], [4000, 30], [6000, 10], [6000, 30], [8000, 10], [8000, -10], [750, 10], [750, 30], [500, 10], [500, 30], [250, 10], [250, 30], [125, 10], [125, 20]], 'y': [[1], [1], [1], [-1], [-1], [1], [-1], [1], [-1], [1], [-1], [1], [-1], [1], [1], [-1], [-1], [1], [-1], [1], [-1], [1], [-1], [-1]], 'audiogram': {}, 'is_init_phase': True, 'is_exam_finished': False, 'threshold_uncertainty_db': 6}",125,30,0.02285440948074376,False,0.008811500025331043,None,['space'],1,[0.3523665999964578],144.2721440000023,145.28268260000914,None,1,145.28268260000914,144.2721440000023,,,ttuwra,001,fr,200,2022-04-26_10h54.03.739,Bayesian,2022.1.1,None,
,,,,31,0,31,0,,,,,,,,,,,,,,,,,,,,,,,"{'x': [[1000, 60], [1000, 40], [1000, 20], [1000, 0], [1500, 10], [1500, 30], [2000, 10], [2000, 30], [3000, 10], [3000, 30], [4000, 10], [4000, 30], [6000, 10], [6000, 30], [8000, 10], [8000, -10], [750, 10], [750, 30], [500, 10], [500, 30], [250, 10], [250, 30], [125, 10], [125, 20], [125, 30]], 'y': [[1], [1], [1], [-1], [-1], [1], [-1], [1], [-1], [1], [-1], [1], [-1], [1], [1], [-1], [-1], [1], [-1], [1], [-1], [1], [-1], [-1], [1]], 'audiogram': {}, 'is_init_phase': True, 'is_exam_finished': False, 'threshold_uncertainty_db': 6}",353.5533905932738,18.0,0.0007038727582816146,False,0.014957733335904777,None,None,0,,147.66371290000097,148.67572250000376,None,1,148.67572250000376,147.66371290000097,,,ttuwra,001,fr,200,2022-04-26_10h54.03.739,Bayesian,2022.1.1,None,
,,,,32,0,32,0,,,,,,,,,,,,,,,,,,,,,,,,,,,True,0.01003543334081769,None,None,0,,150.22055640000326,151.22301710001193,None,1,151.22301710001193,150.22055640000326,,,ttuwra,001,fr,200,2022-04-26_10h54.03.739,Bayesian,2022.1.1,None,
,,,,33,0,33,0,,,,,,,,,,,,,,,,,,,,,,,,189.4645708137998,21.0,0.003408826918638871,False,0.0030156333377817646,None,['space'],1,[0.3840300000010757],155.26513830000476,156.28980600000068,None,1,156.28980600000068,155.26513830000476,,,ttuwra,001,fr,200,2022-04-26_10h54.03.739,Bayesian,2022.1.1,None,
,,,,34,0,34,0,,,,,,,,,,,,,,,,,,,,,,,,2462.2888266898335,19.0,0.0007580932840616341,False,0.01635426665598061,None,None,0,,159.3035077000095,160.32513370001107,None,1,160.32513370001107,159.3035077000095,,,ttuwra,001,fr,200,2022-04-26_10h54.03.739,Bayesian,2022.1.1,None,
,,,,35,0,35,0,,,,,,,,,,,,,,,,,,,,,,,,574.3491774985172,20.0,0.0005984619860562044,False,0.009427900004084222,None,['space'],1,[0.5298815999994986],164.7990887000051,165.80838380000205,None,1,165.80838380000205,164.7990887000051,,,ttuwra,001,fr,200,2022-04-26_10h54.03.739,Bayesian,2022.1.1,None,
,,,,36,0,36,0,,,,,,,,,,,,,,,,,,,,,,,,,,,True,0.009516333346255124,None,None,0,,167.43417670000053,168.4684266000113,None,1,168.4684266000113,167.43417670000053,,,ttuwra,001,fr,200,2022-04-26_10h54.03.739,Bayesian,2022.1.1,None,
,,,,37,0,37,0,,,,,,,,,,,,,,,,,,,,,,,,4000.0,20.0,0.0008394020090612801,False,0.008714166673598811,None,['space'],1,[0.42405079999298323],170.96883360001084,171.97430929999973,None,1,171.97430929999973,170.96883360001084,,,ttuwra,001,fr,200,2022-04-26_10h54.03.739,Bayesian,2022.1.1,None,
,,,,38,0,38,0,,,,,,,,,,,,,,,,,,,,,,,,1414.213562373095,18.0,0.00040059831641816283,False,0.008921300002839416,None,None,0,,175.95719280000776,176.97188660000393,None,1,176.97188660000393,175.95719280000776,,,ttuwra,001,fr,200,2022-04-26_10h54.03.739,Bayesian,2022.1.1,None,
,,,,39,0,39,0,,,,,,,,,,,,,,,,,,,,,,,,8000.0,10.0,0.0005740768107484417,False,0.009811666663154028,None,['space'],1,[0.40905249999195803],181.079685100005,182.10452240001177,None,1,182.10452240001177,181.079685100005,,,ttuwra,001,fr,200,2022-04-26_10h54.03.739,Bayesian,2022.1.1,None,
,,,,40,0,40,0,,,,,,,,,,,,,,,,,,,,,,,,267.9433656340732,20.0,0.0014847335715060604,False,0.014961800014134496,None,['space'],1,[0.42089280000072904],185.89946540001256,186.89545110000472,None,1,186.89545110000472,185.89946540001256,,,ttuwra,001,fr,200,2022-04-26_10h54.03.739,Bayesian,2022.1.1,None,
,,,,41,0,41,0,,,,,,,,,,,,,,,,,,,,,,,,176.7766952966369,17.0,0.0024779587509909046,False,0.002400433339062147,0.19447773334104568,None,0,,189.97654950000287,190.99272700000438,['space'],0,190.99272700000438,189.97654950000287,[2.416137499996694],,ttuwra,001,fr,200,2022-04-26_10h54.03.739,Bayesian,2022.1.1,None,
,,,,42,0,42,0,,,,,,,,,,,,,,,,,,,,,,,,,,,True,0.013211733356001787,None,None,0,,193.6186474999995,194.63774830001057,None,1,194.63774830001057,193.6186474999995,,,ttuwra,001,fr,200,2022-04-26_10h54.03.739,Bayesian,2022.1.1,None,
,,,,43,0,43,0,,,,,,,,,,,,,,,,,,,,,,,,1866.0659830736151,23.0,0.0009713207929915961,False,0.0027568333462113515,None,None,0,,196.96584690001328,197.9970994000032,None,1,197.9970994000032,196.96584690001328,,,ttuwra,001,fr,200,2022-04-26_10h54.03.739,Bayesian,2022.1.1,None,
,,,,44,0,44,0,,,,,,,,,,,,,,,,,,,,,,,,3031.4331330207992,20.0,0.0005779859554559452,False,0.012176066666143015,None,None,0,,202.30593670000962,203.32780870000715,None,1,203.32780870000715,202.30593670000962,,,ttuwra,001,fr,200,2022-04-26_10h54.03.739,Bayesian,2022.1.1,None,
,,,,45,0,45,0,,,,,,,,,,,,,,,,,,,,,,,,466.5164957684038,19.0,0.0006519999376391704,False,0.009209066673065536,None,None,0,,206.2960305000015,207.3034437000024,None,1,207.3034437000024,206.2960305000015,,,ttuwra,001,fr,200,2022-04-26_10h54.03.739,Bayesian,2022.1.1,None,
,,,,46,0,46,0,,,,,,,,,,,,,,,,,,,,,,,,,,,True,0.010364033325458877,None,None,0,,208.511262,209.51422390001244,None,1,209.51422390001244,208.511262,,,ttuwra,001,fr,200,2022-04-26_10h54.03.739,Bayesian,2022.1.1,None,
,,,,47,0,47,0,,,,,,,,,,,,,,,,,,,,,,,,870.5505632961246,15.0,0.0002270354786719523,False,0.009634099988033995,None,None,0,,212.05950650000887,213.05607350000355,None,1,213.05607350000355,212.05950650000887,,,ttuwra,001,fr,200,2022-04-26_10h54.03.739,Bayesian,2022.1.1,None,
,,,,48,0,48,0,,,,,,,,,,,,,,,,,,,,,,,,125.0,23.0,0.01020868972334765,False,0.012269233338884078,None,['space'],1,[0.4344340999959968],217.0542637000035,218.06076840001333,None,1,218.06076840001333,217.0542637000035,,,ttuwra,001,fr,200,2022-04-26_10h54.03.739,Bayesian,2022.1.1,None,
,,,,49,0,49,0,,,,,,,,,,,,,,,,,,,,,,,,4924.577653379667,15.0,0.0008297714959806718,False,0.008626633323729038,0.20004483332741074,None,0,,222.15357370000856,223.16477950000262,None,1,223.16477950000262,222.15357370000856,,,ttuwra,001,fr,200,2022-04-26_10h54.03.739,Bayesian,2022.1.1,None,
,,,,50,0,50,0,,,,,,,,,,,,,,,,,,,,,,,,,,,True,0.010836433342774399,None,None,0,,224.29484370000137,225.32504960001097,None,1,225.32504960001097,224.29484370000137,,,ttuwra,001,fr,200,2022-04-26_10h54.03.739,Bayesian,2022.1.1,None,
,,,,51,0,51,0,,,,,,,,,,,,,,,,,,,,,,,,1319.5079107728945,21.0,0.0005922414073978313,False,0.007368599995970726,None,None,0,,228.28741340000124,229.29325420000532,None,1,229.29325420000532,228.28741340000124,,,ttuwra,001,fr,200,2022-04-26_10h54.03.739,Bayesian,2022.1.1,None,
,,,,52,0,52,0,,,,,,,,,,,,,,,,,,,,,,,,353.5533905932738,21.0,0.0009942466977099574,False,0.0163980666839052,None,['space'],1,[0.539565400002175],232.80484720000823,233.80756340001244,None,1,233.80756340001244,232.80484720000823,,,ttuwra,001,fr,200,2022-04-26_10h54.03.739,Bayesian,2022.1.1,None,
,,,,53,0,53,0,,,,,,,,,,,,,,,,,,,,,,,,2462.2888266898335,25.0,0.0015125949609191762,False,0.010753099995781668,None,['space'],1,[0.6470819999958621],236.41003959999944,237.41251300000295,None,1,237.41251300000295,236.41003959999944,,,ttuwra,001,fr,200,2022-04-26_10h54.03.739,Bayesian,2022.1.1,None,
,,,,54,0,54,0,,,,,,,,,,,,,,,,,,,,,,,,,,,True,0.010812733336933888,None,None,0,,240.10939120000694,241.11311090001254,None,1,241.11311090001254,240.10939120000694,,,ttuwra,001,fr,200,2022-04-26_10h54.03.739,Bayesian,2022.1.1,None,
,,,,55,0,55,0,,,,,,,,,,,,,,,,,,,,,,,,707.1067811865476,17.0,0.0003143487978586953,False,0.005588233325397596,None,None,0,,243.7873518000124,244.80358450001222,None,1,244.80358450001222,243.7873518000124,,,ttuwra,001,fr,200,2022-04-26_10h54.03.739,Bayesian,2022.1.1,None,
,,,,56,0,56,0,,,,,,,,,,,,,,,,,,,,,,,,250.0,17.0,0.0011856868528308277,False,0.00117023334314581,0.18525643333850894,None,0,,248.17212950000248,249.1766731000098,None,1,249.1766731000098,248.17212950000248,,,ttuwra,001,fr,200,2022-04-26_10h54.03.739,Bayesian,2022.1.1,None,
,,,,57,0,57,0,,,,,,,,,,,,,,,,,,,,,,,,5656.85424949238,15.0,0.0007227417995191066,False,0.003614499990362674,0.1953627999901073,['space'],1,[0.6925966999988304],252.7015076000098,253.69723710000108,None,1,253.69723710000108,252.7015076000098,,,ttuwra,001,fr,200,2022-04-26_10h54.03.739,Bayesian,2022.1.1,None,
,,,,58,0,58,0,,,,,,,,,,,,,,,,,,,,,,,,,,,True,0.005373033331125043,None,None,0,,255.20045820000814,256.2016678000073,None,1,256.2016678000073,255.20045820000814,,,ttuwra,001,fr,200,2022-04-26_10h54.03.739,Bayesian,2022.1.1,None,
,,,,59,0,59,0,,,,,,,,,,,,,,,,,,,,,,,,1624.5047927124701,25.0,0.0010288592652100378,False,0.00011243332119192928,None,['space'],1,[0.47691079998912755],259.8601878000045,260.87010720001126,None,1,260.87010720001126,259.8601878000045,,,ttuwra,001,fr,200,2022-04-26_10h54.03.739,Bayesian,2022.1.1,None,
,,,,60,0,60,0,,,,,,,,,,,,,,,,,,,,,,,,164.93848884661182,20.0,0.003931354593573141,False,0.01346173333877232,None,None,0,,264.16931530000875,265.1735241000133,None,1,265.1735241000133,264.16931530000875,,,ttuwra,001,fr,200,2022-04-26_10h54.03.739,Bayesian,2022.1.1,None,
,,,,61,0,61,0,,,,,,,,,,,,,,,,,,,,,,,,3482.202253184498,20.0,0.0007485072584861476,False,0.011049833323340863,None,None,0,,269.34428620000836,270.3501088000048,None,1,270.3501088000048,269.34428620000836,,,ttuwra,001,fr,200,2022-04-26_10h54.03.739,Bayesian,2022.1.1,None,
,,,,62,0,62,0,,,,,,,,,,,,,,,,,,,,,,,,812.2523963562351,18.0,0.0003075345832776403,False,0.005018600000767037,None,None,0,,274.20043150000856,275.2120150000119,None,1,275.2120150000119,274.20043150000856,,,ttuwra,001,fr,200,2022-04-26_10h54.03.739,Bayesian,2022.1.1,None,
,,,,63,0,63,0,,,,,,,,,,,,,,,,,,,,,,,,8000.0,8.0,0.00045600541967795504,False,0.016382666653953493,None,['space'],1,[0.42410689999815077],278.1210754000058,279.11935670000094,None,1,279.11935670000094,278.1210754000058,,,ttuwra,001,fr,200,2022-04-26_10h54.03.739,Bayesian,2022.1.1,None,
,,,,64,0,64,0,,,,,,,,,,,,,,,,,,,,,,,,8000.0,8.0,0.00045600541967795504,False,None,None,None,0,,None,None,None,1,None,None,,"{'estimation': [[125.0, 21.49372105900766], [133.9716828170366, 21.64817655585913], [143.5872943746293, 21.639725384498178], [153.89305166811442, 21.4547801860206], [164.93848884661162, 21.100592925878615], [167.2728753993937, 21.0], [176.77669529663666, 20.61195803563669], [189.46457081379947, 20.05866239498316], [190.83782345975195, 20.0], [203.0630990890585, 19.500858518366996], [217.6376408240306, 19.01355675944965], [218.19519121760302, 19.0], [233.25824788420132, 18.653218692910055], [249.99999999999937, 18.465335243177176], [267.94336563407256, 18.45503826001906], [287.1745887492579, 18.606844944034993], [307.78610333622805, 18.88373465489432], [314.95372532079057, 19.0], [329.87697769322244, 19.23241404027677], [353.55339059327247, 19.57041546457009], [378.929141627598, 19.849647623110307], [401.3381730159723, 20.0], [406.12619817811606, 20.031910949287646], [435.2752816480601, 20.094873375709398], [466.5164957684015, 20.050848273502336], [480.7366142643113, 20.0], [499.9999999999975, 19.93370344417099], [535.8867312681438, 19.788902942437673], [574.3491774985143, 19.652914047237584], [615.5722066724546, 19.545558910866454], [659.7539553864432, 19.470120899588693], [707.1067811865431, 19.419866646430975], [757.8582832551941, 19.38904172910234], [812.2523963562301, 19.383581342819372], [870.5505632961181, 19.42587904797925], [933.0329915368008, 19.550552382978218], [999.9999999999926, 19.79433112672813], [1037.3170563840874, 20.0], [1071.773462536285, 20.186896755875843], [1148.698354997026, 20.70514406971935], [1186.589665940453, 21.0], [1231.1444133449063, 21.332992356340597], [1319.5079107728832, 21.993129379184833], [1320.4684162282522, 22.0], [1414.2135623730828, 22.623583972636972], [1484.4569807937035, 23.0], [1515.7165665103846, 23.16105476387758], [1624.5047927124563, 23.546558954001995], [1741.1011265922298, 23.769780792544555], [1866.065983073597, 23.841789413468156], [1999.9999999999827, 23.789018856764294], [2143.5469250725646, 23.64975290668494], [2297.396709994046, 23.45727754036458], [2462.2888266898062, 23.22822029262], [2611.2549125374862, 23.0], [2639.01582154576, 22.958951076732028], [2828.427124746159, 22.64606431841785], [3031.4331330207656, 22.268439788568884], [3149.8957293625413, 22.0], [3249.0095854249043, 21.7872268042997], [3482.2022531844555, 21.205984099293445], [3551.6088753870345, 21.0], [3732.1319661471844, 20.490680930160096], [3884.821774128855, 20.0], [3999.9999999999504, 19.641664062083585], [4184.605287478321, 19.0], [4287.093850145118, 18.655004808211313], [4463.0054309363295, 18.0], [4594.793419988076, 17.527401216238587], [4729.714376507315, 17.0], [4924.577653379601, 16.262216319791804], [4990.80328948088, 16.0], [5242.588841891896, 15.0], [5278.031643091506, 14.868317207695284], [5500.016839979183, 14.0], [5656.854249492303, 13.409209796277565], [5770.537217883705, 13.0], [6045.401403350562, 12.0], [6062.866266041508, 11.940131619078713], [6358.178691625707, 11.0], [6498.019170849792, 10.571895402035647], [6725.9723169128365, 10.0], [6964.404506368894, 9.417890868073467], [7211.640640666318, 9.0], [7464.2639322943505, 8.58243639270409], [7999.999999999872, 8.161888987513503]], 'plus_line': [[125.0, 19.290662976695614], [133.9716828170366, 19.52445682333025], [143.5872943746293, 19.5362521515108], [153.89305166811442, 19.360046866625265], [164.93848884661162, 19.03202974737476], [165.70880240712108, 19.0], [176.77669529663666, 18.52779935507977], [189.10944584385547, 18.0], [189.46457081379958, 17.98344189781907], [203.0630990890585, 17.385079572194563], [214.5092014044081, 17.0], [217.6376408240306, 16.88518496887987], [233.25824788420132, 16.508693372460485], [249.99999999999937, 16.33178635906924], [267.94336563407256, 16.334976924176125], [287.1745887492579, 16.496698576275477], [307.78610333622805, 16.789576334229842], [319.8844840067603, 17.0], [329.87697769322244, 17.14881884840209], [353.55339059327247, 17.467670546103754], [378.929141627598, 17.728399257685616], [406.12619817811606, 17.887205231491517], [435.2752816480601, 17.923567217384992], [466.5164957684015, 17.856196252340105], [499.9999999999975, 17.72737664980116], [535.8867312681438, 17.579719078638064], [574.3491774985143, 17.44496604562935], [615.5722066724546, 17.342292647358235], [659.7539553864432, 17.278386542659156], [707.1067811865431, 17.248300384677346], [757.8582832551941, 17.24100136636296], [812.2523963562301, 17.25042732455828], [870.5505632961181, 17.287146299760618], [933.0329915368008, 17.383286505560502], [999.9999999999926, 17.58764209071723], [1071.7734625362862, 17.96282863439636], [1076.835488458867, 18.0], [1148.698354997026, 18.457656448458426], [1215.9798598555037, 19.0], [1231.1444133449063, 19.112396902121745], [1319.5079107728848, 19.799400839226053], [1345.3703659281757, 20.0], [1414.2135623730828, 20.47075810216935], [1504.3058336302877, 21.0], [1515.7165665103846, 21.060608723924062], [1624.5047927124563, 21.444690693890472], [1741.1011265922318, 21.657333714588813], [1866.065983073597, 21.698771207103583], [1999.9999999999802, 21.605527144230237], [2143.5469250725646, 21.435369925051226], [2297.396709994046, 21.232517418040885], [2462.2888266898062, 21.014600787343145], [2472.5853767072444, 21.0], [2639.01582154576, 20.748221095776028], [2828.427124746159, 20.465926036414796], [3031.4331330207615, 20.138874671334495], [3099.7435815493823, 20.0], [3249.0095854249043, 19.685188144513365], [3482.2022531844555, 19.141972525310514], [3531.487396572639, 19.0], [3732.1319661471844, 18.423977379576357], [3864.891658030444, 18.0], [3999.9999999999504, 17.5700635166561], [4162.882239755229, 17.0], [4287.093850145118, 16.578019488462623], [4440.5386957083865, 16.0], [4594.793419988081, 15.45291128067424], [4708.834959200169, 15.0], [4924.577653379601, 14.203816547741559], [4975.033093357796, 14.0], [5223.867235789307, 13.0], [5278.0316430915, 12.806409048346374], [5472.115761488922, 12.0], [5656.854249492303, 11.32373307211726], [5742.554624669157, 11.0], [6009.693322576957, 10.0], [6062.866266041516, 9.822671137579407], [6306.00142821383, 9.0], [6498.019170849792, 8.417140866210458], [6659.30266521371, 8.0], [6964.4045063688845, 7.248981856475068], [7107.847509569829, 7.0], [7464.2639322943505, 6.38311149111712], [7884.970400302047, 6.0], [7999.999999999882, 5.8834975088171975]], 'minus_line': [[125.0, 23.73886675644091], [133.9716828170366, 23.79532015949911], [143.5872943746293, 23.762180681197382], [153.8930516681145, 23.575496423261455], [164.93848884661162, 23.207636824873752], [169.51747397164033, 23.0], [176.77669529663677, 22.714776735321657], [189.46457081379947, 22.170638161814914], [193.45099772059694, 22.0], [203.0630990890584, 21.638401344409807], [217.6376408240306, 21.16609554039301], [224.22275321552894, 21.0], [233.25824788420132, 20.80566423590961], [249.99999999999937, 20.615172874788932], [267.94336563407256, 20.590449235694816], [287.1745887492579, 20.72453132645707], [307.78610333622805, 20.979089733664892], [309.1219610913573, 21.0], [329.87697769322244, 21.345435305206216], [353.55339059327247, 21.690638954292616], [378.929141627598, 21.980211245650278], [381.5015310507994, 22.0], [406.12619817811606, 22.21127701028791], [435.2752816480601, 22.307763216796744], [466.5164957684015, 22.2834513976865], [499.9999999999975, 22.17133218197296], [535.8867312681438, 22.015429200385082], [539.6834714365522, 22.0], [574.3491774985137, 21.884977547217392], [615.5722066724546, 21.78246753264883], [659.7539553864432, 21.703333374530896], [707.1067811865431, 21.63834561541725], [757.8582832551941, 21.5867215852719], [812.2523963562301, 21.566017210988804], [870.550563296117, 21.609592238048442], [933.0329915368008, 21.752277965323977], [995.2589824695715, 22.0], [999.9999999999926, 22.021585246656496], [1071.773462536285, 22.45974550322267], [1148.698354997026, 22.96962463435087], [1152.7007790826, 23.0], [1231.1444133449063, 23.59606941866235], [1288.8733858107603, 24.0], [1319.5079107728832, 24.22051084565803], [1414.2135623730828, 24.798034228567957], [1455.4923453912752, 25.0], [1515.7165665103846, 25.306227220752255], [1624.5047927124563, 25.672682371076966], [1741.1011265922318, 25.89511126034695], [1866.065983073597, 25.99253345995623], [1999.9999999999802, 25.979844985318575], [2143.5469250725646, 25.879154687448178], [2297.396709994046, 25.712523591866887], [2462.2888266898062, 25.490721686228824], [2639.01582154576, 25.204393745052847], [2741.00157530563, 25.0], [2828.427124746159, 24.851479610131953], [3031.4331330207615, 24.447551568101343], [3209.7143813087064, 24.000000000000004], [3249.0095854249043, 23.9127056774482], [3482.202253184451, 23.31737547236451], [3585.345633565077, 23.0], [3732.1319661471844, 22.591154559382225], [3914.676309690081, 22.0], [3999.9999999999504, 21.739151558463984], [4213.755064349045, 21.0], [4287.093850145118, 20.755220046181627], [4491.946476172094, 20.0], [4594.793419988081, 19.627712325176674], [4758.52334594285, 19.0], [4924.577653379601, 18.352967651522324], [5017.105618479819, 18.0], [5261.419673057966, 17.0], [5278.031643091506, 16.937399340262868], [5528.8122497187915, 16.0], [5656.854249492303, 15.50800071129645], [5806.337495655442, 15.0], [6062.866266041508, 14.048858966870965], [6079.2269753091605, 14.0], [6404.160703071564, 13.0], [6498.019170849792, 12.7135309196069], [6789.813580295789, 12.0], [6964.404506368894, 11.57679897815015], [7312.203684314806, 11.0], [7464.2639322943505, 10.760023402385759], [7999.999999999882, 10.436291067487526]]}",ttuwra,001,fr,200,2022-04-26_10h54.03.739,Bayesian,2022.1.1,None,
