frequencies,training_trials.thisRepN,training_trials.thisTrialN,training_trials.thisN,training_trials.thisIndex,frequencies.thisRepN,frequencies.thisTrialN,frequencies.thisN,frequencies.thisIndex,trials.thisRepN,trials.thisTrialN,trials.thisN,trials.thisIndex,tFrequency,tLevel,tCorrect,Tprobe.started,Tprobe.stopped,tTriangle_cue.started,tTriangle_cue.stopped,Tfeedback.keys,Tfeedback.corr,Tfeedback.rt,Tfeedback.started,Tfeedback.stopped,reversals_nTrials.routineEndVal,track_dir.routineEndVal,step_up.routineEndVal,Correct,Frequency,Level,Psychopy_Level,Direction,Reversals,Track_dir,Step,probe.started,probe.stopped,cross_cue.started,cross_cue.stopped,circle_cue.started,circle_cue.stopped,triangle_cue.started,triangle_cue.stopped,feedback.keys,feedback.corr,feedback.rt,feedback.started,feedback.stopped,memo.started,memo.stopped,participant,session,skip_training,language (english or french),date,expName,psychopyVersion,frameRate,
200,0,0,0,0,,,,,,,,,200,30,left,98.06663056667118,None,100.03881470000488,100.38838809999288,left,1,3.333319900004426,97.58741759997793,None,,,,,,,,,,,,,,,,,,,,,,,,,,,qmbami,001,0,fr,2022-04-27_15h18.44.110,3-AFC_adaptive_staircase_mess,2022.1.1,None,
850,0,1,1,2,,,,,,,,,850,30,left,104.83132946666252,105.0568405999802,106.78169819997856,107.09637590000057,left,1,3.2664751000120305,104.35729970000102,None,,,,,,,,,,,,,,,,,,,,,,,,,,,qmbami,001,0,fr,2022-04-27_15h18.44.110,3-AFC_adaptive_staircase_mess,2022.1.1,None,
1300,0,2,2,3,,,,,,,,,1300,30,up,111.56746706666696,None,112.5178810999787,112.83762320000096,up,1,3.1159922999795526,110.09275319997687,None,,,,,,,,,,,,,,,,,,,,,,,,,,,qmbami,001,0,fr,2022-04-27_15h18.44.110,3-AFC_adaptive_staircase_mess,2022.1.1,None,
5000,0,3,3,4,,,,,,,,,5000,30,up,116.95193056666564,None,117.89539286666356,None,up,1,2.392766200006008,115.48629699999583,None,,,,,,,,,,,,,,,,,,,,,,,,,,,qmbami,001,0,fr,2022-04-27_15h18.44.110,3-AFC_adaptive_staircase_mess,2022.1.1,None,
450,0,4,4,1,,,,,,,,,450,30,right,122.67946256665552,None,122.63548789999913,122.96148979998543,right,1,2.8483605999790598,120.21636009999202,None,,,,,,,,,,,,,,,,,,,,,,,,,,,qmbami,001,0,fr,2022-04-27_15h18.44.110,3-AFC_adaptive_staircase_mess,2022.1.1,None,
,,,,,0,0,0,0,0,0,0,0,,,,,,,,,,,,,[],[],5,right,1000,50,0.013930605843148852,0,0,-1,5,171.6189240666611,None,169.60570569999982,169.92200349998893,170.60039629999665,170.9199042999826,171.60225739999441,171.9284595999925,right,1,2.4230763999803457,169.63238409999758,None,None,None,qmbami,001,0,fr,2022-04-27_15h18.44.110,3-AFC_adaptive_staircase_mess,2022.1.1,None,
,,,,,0,0,0,0,1,0,1,0,,,,,,,,,,,,,,,,left,1000,50,0.013930605843148852,0,0,-1,5,173.6043370666487,None,173.58767039998202,173.9147894999769,None,None,None,None,left,1,0.47229419997893274,173.61565500000142,None,None,None,qmbami,001,0,fr,2022-04-27_15h18.44.110,3-AFC_adaptive_staircase_mess,2022.1.1,None,
,,,,,0,0,0,0,2,0,2,0,,,,,,,,,,,,,,,,right,1000,40,0.004405244365040069,-1,0,-1,-10,177.65252446665934,None,175.58915919999708,175.90719959998387,176.6066104999918,176.93175560000236,177.60711109999102,177.94812089999323,right,1,2.31367569998838,175.6453094999888,None,None,None,qmbami,001,0,fr,2022-04-27_15h18.44.110,3-AFC_adaptive_staircase_mess,2022.1.1,None,
,,,,,0,0,0,0,3,0,3,0,,,,,,,,,,,,,,,,left,1000,40,0.004405244365040069,-1,0,-1,-10,179.5193583666444,None,179.47169959999155,179.7957991999865,None,None,None,None,left,1,0.4788737999915611,179.52921359997708,None,None,None,qmbami,001,0,fr,2022-04-27_15h18.44.110,3-AFC_adaptive_staircase_mess,2022.1.1,None,
,,,,,0,0,0,0,4,0,4,0,,,,,,,,,,,,,,,,right,1000,30,0.0013930605843148849,-1,0,-1,-10,183.56877846667,None,181.5201390000002,181.83992850000504,182.51971120000235,182.83884809998563,183.5215901999909,183.86063349997858,right,1,2.3322866999951657,181.5797448999947,None,None,None,qmbami,001,0,fr,2022-04-27_15h18.44.110,3-AFC_adaptive_staircase_mess,2022.1.1,None,
,,,,,0,0,0,0,5,0,5,0,,,,,,,,,,,,,,,,left,1000,30,0.0013930605843148849,-1,0,-1,-10,185.46195576666312,185.69018000000506,185.41798589998507,185.74500599998282,None,None,None,None,left,1,0.5342778000049293,185.47406429998227,None,None,None,qmbami,001,0,fr,2022-04-27_15h18.44.110,3-AFC_adaptive_staircase_mess,2022.1.1,None,
,,,,,0,0,0,0,6,0,6,0,,,,,,,,,,,,,,,,left,1000,20,0.0004405244365040069,-1,0,-1,-10,187.57050906666362,None,187.524422699993,187.84090769998147,None,None,None,None,left,1,0.459296799992444,187.5814776000043,None,None,None,qmbami,001,0,fr,2022-04-27_15h18.44.110,3-AFC_adaptive_staircase_mess,2022.1.1,None,
,,,,,0,0,0,0,7,0,7,0,,,,,,,,,,,,,,,,up,1000,20,0.0004405244365040069,-1,0,-1,-10,190.57919516665086,None,189.53301119999378,189.84898459998658,190.5330699000042,190.86703910000506,None,None,up,1,1.4244487000105437,189.59115739999106,None,None,None,qmbami,001,0,fr,2022-04-27_15h18.44.110,3-AFC_adaptive_staircase_mess,2022.1.1,None,
,,,,,0,0,0,0,8,0,8,0,,,,,,,,,,,,,,,,up,1000,10,0.00013930605843148847,-1,0,-1,-10,193.60705776664352,None,192.53250229998957,192.84956649999367,193.5310274999938,193.8580725999782,None,None,up,1,1.334551999985706,192.59324200000265,None,None,None,qmbami,001,0,fr,2022-04-27_15h18.44.110,3-AFC_adaptive_staircase_mess,2022.1.1,None,
,,,,,0,0,0,0,9,0,9,0,,,,,,,,,,,,,,,,up,1000,10,0.00013930605843148847,-1,0,-1,-10,196.50561816664802,None,195.44356329998118,195.76105739999912,196.46009209999465,196.7881112000032,None,None,up,1,1.436394400021527,195.49993930000346,None,None,None,qmbami,001,0,fr,2022-04-27_15h18.44.110,3-AFC_adaptive_staircase_mess,2022.1.1,None,
,,,,,0,0,0,0,10,0,10,0,,,,,,,,,,,,,,,,left,1000,0,4.405244365040069e-05,-1,0,-1,-10,198.49161866665625,None,198.44747610000195,198.7738687999954,None,None,None,None,left,1,0.5592918000184,198.50450899999123,None,None,None,qmbami,001,0,fr,2022-04-27_15h18.44.110,3-AFC_adaptive_staircase_mess,2022.1.1,None,
,,,,,0,0,0,0,11,0,11,0,,,,,,,,,,,,,,,,left,1000,0,4.405244365040069e-05,-1,0,-1,-10,200.64376966664375,200.86126249999506,200.59937640000135,200.91506489997846,None,None,None,None,left,1,0.4706210999866016,200.6580729999987,None,None,None,qmbami,001,0,fr,2022-04-27_15h18.44.110,3-AFC_adaptive_staircase_mess,2022.1.1,None,
,,,,,0,0,0,0,12,0,12,0,,,,,,,,,,,,,,,,left,1000,-10,1.3930605843148848e-05,-1,0,-1,-10,202.66254316666553,202.88619960000506,202.61856999999145,202.9463637000008,203.6338598000002,203.9504450999957,204.6266356999986,204.95540189999156,left,1,2.6463609999918845,202.67420340000535,None,205.18382599999313,None,qmbami,001,0,fr,2022-04-27_15h18.44.110,3-AFC_adaptive_staircase_mess,2022.1.1,None,
,,,,,0,0,0,0,13,0,13,0,,,,,,,,,,,,,,,,right,1000,-10,1.3930605843148848e-05,-1,0,-1,-10,208.90332316665834,None,206.8576078999904,207.17474029998994,207.85938229999738,208.16413359998842,208.8577038999938,209.18942199999583,right,1,7.126584899990121,206.9133002999879,None,209.4186351999815,None,qmbami,001,0,fr,2022-04-27_15h18.44.110,3-AFC_adaptive_staircase_mess,2022.1.1,None,
,,,,,0,0,0,0,14,0,14,0,,,,,,,,,,,,,,,,right,1000,-20,4.405244365040069e-06,-1,0,-1,-10,217.60371076665277,None,215.5422763999959,215.8575563999766,216.54351999997743,216.86949799998547,217.55699839998852,217.88266279999516,right,1,2.791774599987548,215.59958499998902,None,218.1121171999839,None,qmbami,001,0,fr,2022-04-27_15h18.44.110,3-AFC_adaptive_staircase_mess,2022.1.1,None,
,,,,,0,0,0,0,15,0,15,0,,,,,,,,,,,,,,,,left,1000,-20,4.405244365040069e-06,-1,0,-1,-10,219.91844306665396,220.14750649998314,219.90177639998728,220.23012629998266,220.88722259999486,221.20588269998552,221.88978899997892,222.22689119999995,right,0,2.7168739000044297,219.93043609999586,None,222.45637699999497,None,qmbami,001,0,fr,2022-04-27_15h18.44.110,3-AFC_adaptive_staircase_mess,2022.1.1,None,
,,,,,0,0,0,0,16,0,16,0,,,,,,,,,,,,,,,,right,1000,-15,7.833755350540743e-06,1,1,1,5,226.1976774666439,226.4180151000037,224.13932170000044,224.45915129999048,225.14128300000448,225.4648232999898,226.15341989998706,226.4720955999801,up,0,2.817981600004714,224.19766629999503,None,226.70130649997736,None,qmbami,001,0,fr,2022-04-27_15h18.44.110,3-AFC_adaptive_staircase_mess,2022.1.1,None,
,,,,,0,0,0,0,17,0,17,0,,,,,,,,,,,,,,,,right,1000,-10,1.3930605843148848e-05,1,1,1,5,230.57513856667018,None,228.51656279998133,228.8336891999934,229.52162029998726,229.83751069998834,230.53046729997732,230.87609289999818,up,0,2.9224382000102196,228.57369269998162,None,231.0773089999857,None,qmbami,001,0,fr,2022-04-27_15h18.44.110,3-AFC_adaptive_staircase_mess,2022.1.1,None,
,,,,,0,0,0,0,18,0,18,0,,,,,,,,,,,,,,,,left,1000,-5,2.4772509540239506e-05,1,1,1,5,233.0284210666471,None,232.9836771999835,233.30908539998927,233.99896579998313,234.3195088999928,235.0045033999777,235.32437069999287,up,0,2.7440555000212044,233.03995839998242,None,235.55287289997796,None,qmbami,001,0,fr,2022-04-27_15h18.44.110,3-AFC_adaptive_staircase_mess,2022.1.1,None,
,,,,,0,0,0,0,19,0,19,0,,,,,,,,,,,,,,,,right,1000,0,4.405244365040069e-05,1,1,1,5,239.3455993666469,239.56925629999023,237.28821109997807,237.60933429998113,238.29308119998313,238.61046799999895,239.30107689998113,239.6239280999871,right,1,2.647099999972852,237.34432380000362,None,239.8515003999928,None,qmbami,001,0,fr,2022-04-27_15h18.44.110,3-AFC_adaptive_staircase_mess,2022.1.1,None,
,,,,,0,0,0,0,20,0,20,0,,,,,,,,,,,,,,,,right,1000,0,4.405244365040069e-05,1,1,1,5,243.57284536667092,None,241.51386659999844,241.83139779997873,242.51636789998156,242.84246899999562,243.52697779997834,243.85538480000105,right,1,2.514069600001676,241.57314860000042,None,244.08605189999798,None,qmbami,001,0,fr,2022-04-27_15h18.44.110,3-AFC_adaptive_staircase_mess,2022.1.1,None,
,,,,,0,0,0,0,21,0,21,0,,,,,,,,,,,,,,,,left,1000,-10,1.3930605843148848e-05,-1,2,-1,-5.0,245.6471337666483,245.8743903999857,245.6014809999906,245.9282014000055,246.6169879999943,246.94097799999872,247.6222732999886,247.9431704999879,left,1,2.6704467000090517,245.65815020000446,None,248.17387929998222,None,qmbami,001,0,fr,2022-04-27_15h18.44.110,3-AFC_adaptive_staircase_mess,2022.1.1,None,
,,,,,0,0,0,0,22,0,22,0,,,,,,,,,,,,,,,,up,1000,-10,1.3930605843148848e-05,-1,2,-1,-5.0,250.87278726665343,None,249.84445049997885,250.16479399998207,250.85612059998675,251.19031409997842,251.84879950000322,252.1717869999993,up,1,2.7011074000038207,249.89855969999917,None,252.40550079999957,None,qmbami,001,0,fr,2022-04-27_15h18.44.110,3-AFC_adaptive_staircase_mess,2022.1.1,None,
,,,,,0,0,0,0,23,0,23,0,,,,,,,,,,,,,,,,right,1000,-15.0,7.833755350540743e-06,-1,2,-1,-5.0,256.1528439666474,None,254.10272039999836,254.42593239998678,255.11145480000414,255.42729829999735,256.10793269998976,256.4353740999941,left,0,2.838964800001122,254.16074520000257,None,256.6646116999909,None,qmbami,001,0,fr,2022-04-27_15h18.44.110,3-AFC_adaptive_staircase_mess,2022.1.1,None,
,,,,,0,0,0,0,24,0,24,0,,,,,,,,,,,,,,,,left,1000,-12.5,1.0446480654270193e-05,1,3,1,2.5,258.549882366646,None,258.5042973999807,258.83533249999164,259.5302536999807,259.8511888999783,260.50753289999557,260.83300729998155,up,0,2.659687999985181,258.563819300005,None,261.06726670000353,None,qmbami,001,0,fr,2022-04-27_15h18.44.110,3-AFC_adaptive_staircase_mess,2022.1.1,None,
,,,,,0,0,0,0,25,0,25,0,,,,,,,,,,,,,,,,right,1000,-10.0,1.3930605843148848e-05,1,3,1,2.5,264.7860184666681,265.014225299994,262.7250725000049,263.0498231999809,263.73450089999824,264.054130399978,264.7395624999772,265.0765462999989,right,1,2.8128060000017285,262.7796704999928,None,265.28568489997997,None,qmbami,001,0,fr,2022-04-27_15h18.44.110,3-AFC_adaptive_staircase_mess,2022.1.1,None,
,,,,,0,0,0,0,26,0,26,0,,,,,,,,,,,,,,,,up,1000,-10.0,1.3930605843148848e-05,1,3,1,2.5,268.1410561666455,None,267.10563269999693,267.4249353999912,268.0953434999974,268.4209950999939,269.1098515999911,269.4410753999837,right,0,2.92521429999033,267.1634192999918,None,269.67971939998097,None,qmbami,001,0,fr,2022-04-27_15h18.44.110,3-AFC_adaptive_staircase_mess,2022.1.1,None,
,,,,,0,0,0,0,27,0,27,0,,,,,,,,,,,,,,,,left,1000,-7.5,1.8576761454858622e-05,1,3,1,2.5,271.63910506666093,None,271.5940810999891,271.9182106999797,None,None,None,None,left,1,0.8849311000085436,271.6505582999962,None,None,None,qmbami,001,0,fr,2022-04-27_15h18.44.110,3-AFC_adaptive_staircase_mess,2022.1.1,None,
,,,,,0,0,0,0,28,0,28,0,,,,,,,,,,,,,,,,right,1000,-7.5,1.8576761454858622e-05,1,3,1,2.5,276.0964453666568,276.3260091999837,274.05445399999735,274.3748186999874,275.06626609998057,275.38256939998246,276.0479902999941,276.3880156999803,right,1,2.6627315999940038,274.1125637999794,None,276.6029437999823,None,qmbami,001,0,fr,2022-04-27_15h18.44.110,3-AFC_adaptive_staircase_mess,2022.1.1,None,
,,,,,0,0,0,0,29,0,29,0,,,,,,,,,,,,,,,,left,1000,-12.5,1.0446480654270193e-05,-1,4,-1,-5.0,278.32897056665774,None,278.28318589998526,278.6242690999934,279.27641120000044,279.5943430000043,280.28964809997706,280.6141856999893,left,1,2.738796400022693,278.34076619998086,None,280.84737199998926,None,qmbami,001,0,fr,2022-04-27_15h18.44.110,3-AFC_adaptive_staircase_mess,2022.1.1,None,
,,,,,0,0,0,0,30,0,30,0,,,,,,,,,,,,,,,,up,1000,-12.5,1.0446480654270193e-05,-1,4,-1,-5.0,283.6386707666718,None,282.59183940000366,282.92255349998595,283.59049459997914,283.92856879998,284.5968378999969,284.9223862999934,left,0,2.69826259999536,282.65469409999787,None,285.1574822999828,None,qmbami,001,0,fr,2022-04-27_15h18.44.110,3-AFC_adaptive_staircase_mess,2022.1.1,None,
,,,,,0,0,0,0,31,0,31,0,,,,,,,,,,,,,,,,left,1000,-10.0,1.3930605843148848e-05,1,5,1,2.5,286.9092438666596,None,286.8613766999915,287.19729650000227,287.861138999986,288.1992513999867,288.86901629998465,289.1889889999875,right,0,2.682691199996043,286.9243696999911,None,289.4254161999852,None,qmbami,001,0,fr,2022-04-27_15h18.44.110,3-AFC_adaptive_staircase_mess,2022.1.1,None,
,,,,,0,0,0,0,32,0,32,0,,,,,,,,,,,,,,,,left,1000,-7.5,1.8576761454858622e-05,1,5,1,2.5,291.1841995666657,None,291.1365722999908,291.4682668999885,292.1387634999992,292.46830949999276,293.13130999999703,293.4513717999798,left,1,2.5374385000031907,291.1988138000015,None,293.6815125999856,None,qmbami,001,0,fr,2022-04-27_15h18.44.110,3-AFC_adaptive_staircase_mess,2022.1.1,None,
,,,,,0,0,0,0,33,0,33,0,,,,,,,,,,,,,,,,left,1000,-7.5,1.8576761454858622e-05,1,5,1,2.5,295.28781056666435,None,295.2424705000012,295.5707264999801,296.24119719999726,296.5685414999898,297.23685499999556,297.55879149999237,up,0,3.2345163999998476,295.30050199999823,None,297.7959567999933,None,qmbami,001,0,fr,2022-04-27_15h18.44.110,3-AFC_adaptive_staircase_mess,2022.1.1,None,
,,,,,0,0,0,0,34,0,34,0,,,,,,,,,,,,,,,,right,1000,-5.0,2.4772509540239506e-05,1,5,1,2.5,302.0621373666547,None,300.0224183999817,300.3477353999915,301.02112560000387,301.3413706999854,302.0144391999929,302.34545569997863,right,1,2.7288050000206567,300.07851170000504,None,302.5810319999873,None,qmbami,001,0,fr,2022-04-27_15h18.44.110,3-AFC_adaptive_staircase_mess,2022.1.1,None,
,,,,,0,0,0,0,35,0,35,0,,,,,,,,,,,,,,,,left,1000,-5.0,2.4772509540239506e-05,1,5,1,2.5,304.3505693666559,None,304.30256499999086,304.6293338999967,305.3250676000025,305.65759519999847,306.31143729999894,306.6358431999979,left,1,2.3832519000279717,304.36009879998164,None,None,None,qmbami,001,0,fr,2022-04-27_15h18.44.110,3-AFC_adaptive_staircase_mess,2022.1.1,None,
,,,,,0,0,0,0,36,0,36,0,,,,,,,,,,,,,,,,left,1000,-10.0,1.3930605843148848e-05,-1,6,-1,-5.0,308.28192966664596,None,308.23702319999575,308.57107919998816,309.2412878999894,309.5659026999783,310.24348949998966,310.56764130000374,left,1,2.8007557000091765,308.29434969997965,None,310.8098374999827,None,qmbami,001,0,fr,2022-04-27_15h18.44.110,3-AFC_adaptive_staircase_mess,2022.1.1,None,
,,,,,1,0,1,0,0,0,0,0,,,,,,,,,,,,,[],[],5,right,1500,50,0.01527460556607757,0,0,-1,5,314.67036096664765,None,312.6193820000044,312.949128999986,313.6219351000036,313.9525180000055,314.62207650000346,314.96252519998234,right,1,2.7014402999775484,312.68235560000176,None,315.174397099996,None,qmbami,001,0,fr,2022-04-27_15h18.44.110,3-AFC_adaptive_staircase_mess,2022.1.1,None,
,,,,,1,0,1,0,1,0,1,0,,,,,,,,,,,,,,,,right,1500,50,0.01527460556607757,0,0,-1,5,318.91590306666717,None,316.89047079999,317.2106147999875,317.8800748999929,318.1974707999907,318.8992364000005,319.22988309999346,right,1,2.353097799990792,316.9509764999966,None,None,None,qmbami,001,0,fr,2022-04-27_15h18.44.110,3-AFC_adaptive_staircase_mess,2022.1.1,None,
,,,,,1,0,1,0,2,0,2,0,,,,,,,,,,,,,,,,right,1500,40,0.004830254394949068,-1,0,-1,-10,322.86317026665006,None,320.812635099981,321.1363743999973,321.82834379997803,322.1537113999948,322.8208066999796,323.1444971000019,right,1,2.3054469999915455,320.8705943999812,None,None,None,qmbami,001,0,fr,2022-04-27_15h18.44.110,3-AFC_adaptive_staircase_mess,2022.1.1,None,
,,,,,1,0,1,0,3,0,3,0,,,,,,,,,,,,,,,,right,1500,40,0.004830254394949068,-1,0,-1,-10,326.7603233666489,None,324.7325447000039,325.05051849997835,325.7076019999804,326.03017119999276,326.714802100003,327.043889499997,right,1,2.3666847000131384,324.76089559998945,None,None,None,qmbami,001,0,fr,2022-04-27_15h18.44.110,3-AFC_adaptive_staircase_mess,2022.1.1,None,
,,,,,1,0,1,0,4,0,4,0,,,,,,,,,,,,,,,,left,1500,30,0.001527460556607757,-1,0,-1,-10,328.6587158666555,None,328.614874699997,328.94007749998127,None,None,None,None,left,1,0.7108454999979585,328.67326660000253,None,None,None,qmbami,001,0,fr,2022-04-27_15h18.44.110,3-AFC_adaptive_staircase_mess,2022.1.1,None,
,,,,,1,0,1,0,5,0,5,0,,,,,,,,,,,,,,,,up,1500,30,0.001527460556607757,-1,0,-1,-10,331.9408798666593,332.1652223999845,330.9126894999936,331.2257252999989,331.92421319999266,332.2480263999896,332.911140399985,None,up,1,2.0627464999852236,330.96867740000016,None,None,None,qmbami,001,0,fr,2022-04-27_15h18.44.110,3-AFC_adaptive_staircase_mess,2022.1.1,None,
,,,,,1,0,1,0,6,0,6,0,,,,,,,,,,,,,,,,left,1500,20,0.00048302543949490677,-1,0,-1,-10,334.58715566667183,None,334.5419842999836,334.8774030999921,335.54680759998155,None,None,None,left,1,1.1184887000126764,334.601923899987,None,None,None,qmbami,001,0,fr,2022-04-27_15h18.44.110,3-AFC_adaptive_staircase_mess,2022.1.1,None,
,,,,,1,0,1,0,7,0,7,0,,,,,,,,,,,,,,,,left,1500,20,0.00048302543949490677,-1,0,-1,-10,337.26622936665467,None,337.2183756000013,337.5456780999957,338.21640969999135,None,None,None,left,1,1.0803336999961175,337.2793451999896,None,None,None,qmbami,001,0,fr,2022-04-27_15h18.44.110,3-AFC_adaptive_staircase_mess,2022.1.1,None,
,,,,,1,0,1,0,8,0,8,0,,,,,,,,,,,,,,,,up,1500,10,0.0001527460556607757,-1,0,-1,-10,340.899844566655,None,339.8644743000041,340.20159039998543,340.8527639999811,341.1937331999943,None,None,up,1,1.5696898000023793,339.8940189999994,None,None,None,qmbami,001,0,fr,2022-04-27_15h18.44.110,3-AFC_adaptive_staircase_mess,2022.1.1,None,
,,,,,1,0,1,0,9,0,9,0,,,,,,,,,,,,,,,,right,1500,10,0.0001527460556607757,-1,0,-1,-10,344.9886995666641,None,342.95420269999886,343.29329439997673,343.96109159998014,344.27687559998594,344.97203289999743,345.28607609999017,right,1,2.4004922999884,343.0148083999811,None,None,None,qmbami,001,0,fr,2022-04-27_15h18.44.110,3-AFC_adaptive_staircase_mess,2022.1.1,None,
,,,,,1,0,1,0,10,0,10,0,,,,,,,,,,,,,,,,left,1500,0,4.830254394949071e-05,-1,0,-1,-10,346.9629261666598,None,346.9150269999809,347.25120899998,347.93781839997973,348.257094999979,348.9047317999939,None,right,0,2.059722600009991,346.971875999996,None,None,None,qmbami,001,0,fr,2022-04-27_15h18.44.110,3-AFC_adaptive_staircase_mess,2022.1.1,None,
,,,,,1,0,1,0,11,0,11,0,,,,,,,,,,,,,,,,right,1500,5,8.589541935787943e-05,1,1,1,5,None,None,350.51834999999846,350.84256180000375,None,None,None,None,left,0,0.840611199993873,350.5760628999851,None,None,None,qmbami,001,0,fr,2022-04-27_15h18.44.110,3-AFC_adaptive_staircase_mess,2022.1.1,None,
,,,,,1,0,1,0,12,0,12,0,,,,,,,,,,,,,,,,up,1500,10,0.0001527460556607757,1,1,1,5,353.9597149666554,354.18394679998164,352.9282882999978,353.24755619998905,353.94304829998873,354.26692080000066,None,None,up,1,1.5194889999984298,352.9846950999927,None,None,None,qmbami,001,0,fr,2022-04-27_15h18.44.110,3-AFC_adaptive_staircase_mess,2022.1.1,None,
,,,,,1,0,1,0,13,0,13,0,,,,,,,,,,,,,,,,right,1500,10,0.0001527460556607757,1,1,1,5,358.07659566664756,None,356.0116430000053,356.34077660000185,357.0332995999779,357.3787988999975,358.0324442999845,358.3710194999876,right,1,2.5047981000097934,356.07871189998696,None,358.57377409999026,None,qmbami,001,0,fr,2022-04-27_15h18.44.110,3-AFC_adaptive_staircase_mess,2022.1.1,None,
,,,,,1,0,1,0,14,0,14,0,,,,,,,,,,,,,,,,up,1500,0,4.830254394949071e-05,-1,2,-1,-5.0,361.1350734666669,None,360.1154736999888,360.4439411999774,361.0814366999839,361.41012089999276,362.09766279999167,362.420835500001,left,0,3.01477189999423,360.14577299999655,None,362.6537997999985,None,qmbami,001,0,fr,2022-04-27_15h18.44.110,3-AFC_adaptive_staircase_mess,2022.1.1,None,
,,,,,1,0,1,0,15,0,15,0,,,,,,,,,,,,,,,,left,1500,2.5,6.441247758465671e-05,1,3,1,2.5,364.7061683666582,None,364.653390499996,364.97977889998583,365.6689653999929,365.9897103999974,366.6757719999878,367.0217244999949,left,1,2.631168299994897,364.72060979998787,None,367.22139639998204,None,qmbami,001,0,fr,2022-04-27_15h18.44.110,3-AFC_adaptive_staircase_mess,2022.1.1,None,
,,,,,1,0,1,0,16,0,16,0,,,,,,,,,,,,,,,,left,1500,2.5,6.441247758465671e-05,1,3,1,2.5,368.88655426665014,None,368.84156079997774,369.15327449998586,369.85333329997957,370.1794149999914,370.8399453999882,371.16009560000384,left,1,2.6387350000150036,368.88983699999517,None,371.41409259999637,None,qmbami,001,0,fr,2022-04-27_15h18.44.110,3-AFC_adaptive_staircase_mess,2022.1.1,None,
,,,,,1,0,1,0,17,0,17,0,,,,,,,,,,,,,,,,up,1500,-2.5,3.622179800374953e-05,-1,4,-1,-5.0,374.08887146666916,None,373.05296790000284,373.36113320000004,374.0722048000025,374.4099123000051,375.05919539998285,375.3848912999965,right,0,3.7304196000040974,373.10948299997835,None,375.61559519998264,None,qmbami,001,0,fr,2022-04-27_15h18.44.110,3-AFC_adaptive_staircase_mess,2022.1.1,None,
,,,,,1,0,1,0,18,0,18,0,,,,,,,,,,,,,,,,up,1500,0.0,4.830254394949071e-05,1,5,1,2.5,379.42229446664373,None,378.3801115999813,378.69659459998365,379.3631979999773,379.6975872000039,380.3723648999876,380.6905278999766,up,1,3.064263199979905,378.3999823999766,None,380.9199143000005,None,qmbami,001,0,fr,2022-04-27_15h18.44.110,3-AFC_adaptive_staircase_mess,2022.1.1,None,
,,,,,1,0,1,0,19,0,19,0,,,,,,,,,,,,,,,,left,1500,0.0,4.830254394949071e-05,1,5,1,2.5,383.0003626666478,383.22134389998973,382.98369599998114,383.30368839998846,383.9704344999918,384.2869131999905,384.9716676999815,385.28895759998704,up,0,3.1800872999883723,383.0029968000017,None,385.5195545000024,None,qmbami,001,0,fr,2022-04-27_15h18.44.110,3-AFC_adaptive_staircase_mess,2022.1.1,None,
,,,,,1,0,1,0,20,0,20,0,,,,,,,,,,,,,,,,right,1500,2.5,6.441247758465671e-05,1,5,1,2.5,389.71414446665244,389.9436652000004,387.68003349998617,387.9941755000036,388.6747436999867,388.99085390000255,389.6974777999858,390.02555170000414,left,0,2.6382105999800842,387.73790730000474,None,390.2498998999945,None,qmbami,001,0,fr,2022-04-27_15h18.44.110,3-AFC_adaptive_staircase_mess,2022.1.1,None,
,,,,,1,0,1,0,21,0,21,0,,,,,,,,,,,,,,,,right,1500,5.0,8.589541935787943e-05,1,5,1,2.5,393.9543884666675,394.17664920000243,391.89100929998676,392.2106724999903,392.8934883000038,393.2112569999881,393.90920009999536,394.23093719998724,right,1,2.780606299987994,391.9793328999949,None,394.45378149999306,None,qmbami,001,0,fr,2022-04-27_15h18.44.110,3-AFC_adaptive_staircase_mess,2022.1.1,None,
,,,,,1,0,1,0,22,0,22,0,,,,,,,,,,,,,,,,up,1500,5.0,8.589541935787943e-05,1,5,1,2.5,397.297861366653,None,396.26627500000177,396.58451719998266,397.2524568999943,397.57239069999196,398.2525633999903,398.5697941999824,up,1,3.5527311000041664,396.29504830000224,None,398.80010009999387,None,qmbami,001,0,fr,2022-04-27_15h18.44.110,3-AFC_adaptive_staircase_mess,2022.1.1,None,
,,,,,1,0,1,0,23,0,23,0,,,,,,,,,,,,,,,,left,1500,0.0,4.830254394949071e-05,-1,6,-1,-5.0,401.38394216666734,None,401.3672755000007,401.70416699998896,402.35632189997705,402.67979219998233,403.3560394999804,403.6731654999894,up,0,2.4930461999902036,401.3861357999849,None,403.8986816666477,None,qmbami,001,0,fr,2022-04-27_15h18.44.110,3-AFC_adaptive_staircase_mess,2022.1.1,None,
,,,,,2,0,2,0,0,0,0,0,,,,,,,,,,,,,[],[],5,up,2000,50,0.02365756294807403,0,0,-1,5,406.4104940666623,None,405.35954099998344,405.6990231999953,406.36345259999507,406.67906799999764,407.3793791999924,None,up,1,1.9668889000022318,405.4325613999972,None,None,None,qmbami,001,0,fr,2022-04-27_15h18.44.110,3-AFC_adaptive_staircase_mess,2022.1.1,None,
,,,,,2,0,2,0,1,0,1,0,,,,,,,,,,,,,,,,right,2000,50,0.02365756294807403,0,0,-1,5,None,None,408.91736579997814,None,None,None,None,None,right,1,-1.5347152999893297,408.9834174999851,None,None,None,qmbami,001,0,fr,2022-04-27_15h18.44.110,3-AFC_adaptive_staircase_mess,2022.1.1,None,
,,,,,2,0,2,0,2,0,2,0,,,,,,,,,,,,,,,,left,2000,40,0.007481178280472167,-1,0,-1,-10,410.5272562666544,None,410.5105895999877,410.84883539998555,None,None,None,None,left,1,0.8127113000082318,410.53861550000147,None,None,None,qmbami,001,0,fr,2022-04-27_15h18.44.110,3-AFC_adaptive_staircase_mess,2022.1.1,None,
,,,,,2,0,2,0,3,0,3,0,,,,,,,,,,,,,,,,left,2000,40,0.007481178280472167,-1,0,-1,-10,412.93971576667195,None,412.8917553999927,413.2188283999858,None,None,None,None,left,1,0.8450143999943975,412.95405629999004,None,None,None,qmbami,001,0,fr,2022-04-27_15h18.44.110,3-AFC_adaptive_staircase_mess,2022.1.1,None,
,,,,,2,0,2,0,4,0,4,0,,,,,,,,,,,,,,,,right,2000,30,0.0023657562948074026,-1,0,-1,-10,417.35274806665643,None,415.322039199993,415.63728699999047,416.32667809998384,416.64595799997915,417.3173233999987,417.63980699999956,right,1,2.3490215000056196,415.3704538999882,None,None,None,qmbami,001,0,fr,2022-04-27_15h18.44.110,3-AFC_adaptive_staircase_mess,2022.1.1,None,
,,,,,2,0,2,0,5,0,5,0,,,,,,,,,,,,,,,,right,2000,30,0.0023657562948074026,-1,0,-1,-10,421.2509584666443,None,419.1973899999866,419.51217499998165,420.1982653999876,420.50629259998095,421.2056925999932,None,right,1,2.1939814000215847,419.253258199984,None,None,None,qmbami,001,0,fr,2022-04-27_15h18.44.110,3-AFC_adaptive_staircase_mess,2022.1.1,None,
,,,,,2,0,2,0,6,0,6,0,,,,,,,,,,,,,,,,left,2000,20,0.0007481178280472167,-1,0,-1,-10,422.99093016665233,None,422.9455556999892,423.2666870999965,None,None,None,None,left,1,0.47753480001119897,423.0026990000042,None,None,None,qmbami,001,0,fr,2022-04-27_15h18.44.110,3-AFC_adaptive_staircase_mess,2022.1.1,None,
,,,,,2,0,2,0,7,0,7,0,,,,,,,,,,,,,,,,left,2000,20,0.0007481178280472167,-1,0,-1,-10,425.0297898666506,None,424.98520919997827,425.3341492000036,None,None,None,None,left,1,0.40530489999218844,425.0418254999968,None,None,None,qmbami,001,0,fr,2022-04-27_15h18.44.110,3-AFC_adaptive_staircase_mess,2022.1.1,None,
,,,,,2,0,2,0,8,0,8,0,,,,,,,,,,,,,,,,right,2000,10,0.00023657562948074026,-1,0,-1,-10,429.04155926665794,None,426.99199799998314,427.3068626000022,427.9906759999867,428.31042719999095,428.9641267999832,429.28568959998665,right,1,2.492842200008454,427.0183609999949,None,429.5221156000043,None,qmbami,001,0,fr,2022-04-27_15h18.44.110,3-AFC_adaptive_staircase_mess,2022.1.1,None,
,,,,,2,0,2,0,9,0,9,0,,,,,,,,,,,,,,,,right,2000,10,0.00023657562948074026,-1,0,-1,-10,433.0630794666688,None,431.0188468999986,431.3361539999896,432.0380642999953,432.38858609998715,433.016904899996,433.34372479998274,right,1,2.626194899989059,431.0768720000051,None,433.56969740000204,None,qmbami,001,0,fr,2022-04-27_15h18.44.110,3-AFC_adaptive_staircase_mess,2022.1.1,None,
,,,,,2,0,2,0,10,0,10,0,,,,,,,,,,,,,,,,up,2000,0,7.481178280472168e-05,-1,0,-1,-10,436.27381136664576,436.48980469998787,435.2130220999825,435.5517723999801,436.2257758999767,436.543440199981,437.2268269000051,437.547023799998,up,1,2.6100340000120923,435.2694263999874,None,437.76981649998925,None,qmbami,001,0,fr,2022-04-27_15h18.44.110,3-AFC_adaptive_staircase_mess,2022.1.1,None,
,,,,,2,0,2,0,11,0,11,0,,,,,,,,,,,,,,,,up,2000,0,7.481178280472168e-05,-1,0,-1,-10,440.4428764666702,440.66316460000235,439.39521779998904,439.7107241000049,440.3969274999981,440.7167634999787,None,None,up,1,1.5817800000077114,439.44992749998346,None,None,None,qmbami,001,0,fr,2022-04-27_15h18.44.110,3-AFC_adaptive_staircase_mess,2022.1.1,None,
,,,,,2,0,2,0,12,0,12,0,,,,,,,,,,,,,,,,left,2000,-10,2.3657562948074015e-05,-1,0,-1,-10,442.57161106664375,442.79962559998967,442.52612529997714,442.8539088999969,443.53283509999164,443.8477064000035,444.53135539998766,444.8482243999897,left,1,2.6402287000091746,442.583186999982,None,445.0733459999901,None,qmbami,001,0,fr,2022-04-27_15h18.44.110,3-AFC_adaptive_staircase_mess,2022.1.1,None,
,,,,,2,0,2,0,13,0,13,0,,,,,,,,,,,,,,,,right,2000,-10,2.3657562948074015e-05,-1,0,-1,-10,448.7879827666659,None,446.74900889999117,447.072837899992,447.75201509997714,448.0726725999848,448.74209679997875,449.0782876999874,left,0,2.9417932000069413,446.81037289998494,None,449.3123912999872,None,qmbami,001,0,fr,2022-04-27_15h18.44.110,3-AFC_adaptive_staircase_mess,2022.1.1,None,
,,,,,2,0,2,0,14,0,14,0,,,,,,,,,,,,,,,,up,2000,-5,4.206975708225974e-05,1,1,1,5,452.3155893666592,None,451.2736390999926,451.59077969999635,452.2695021999825,452.5933253999974,453.27160639999784,453.5885935999977,up,1,2.6580734999733977,451.3023439999961,None,453.81688759999815,None,qmbami,001,0,fr,2022-04-27_15h18.44.110,3-AFC_adaptive_staircase_mess,2022.1.1,None,
,,,,,2,0,2,0,15,0,15,0,,,,,,,,,,,,,,,,up,2000,-5,4.206975708225974e-05,1,1,1,5,456.5024019666637,None,455.46110089999274,455.7761393999972,456.48573529999703,456.8048458999838,457.4650304999959,457.81397849999485,up,1,2.827432800026145,455.5166712999926,None,458.0112034000049,None,qmbami,001,0,fr,2022-04-27_15h18.44.110,3-AFC_adaptive_staircase_mess,2022.1.1,None,
,,,,,2,0,2,0,16,0,16,0,,,,,,,,,,,,,,,,right,2000,-15,1.3303625298994042e-05,-1,2,-1,-5.0,461.9144204666702,None,459.8553178999864,460.1702740000037,460.8683299999975,461.18536929998663,461.86923159999424,462.19973549997667,up,0,2.6248942999809515,459.911428899999,None,462.4330632999772,None,qmbami,001,0,fr,2022-04-27_15h18.44.110,3-AFC_adaptive_staircase_mess,2022.1.1,None,
,,,,,2,0,2,0,17,0,17,0,,,,,,,,,,,,,,,,up,2000,-12.5,1.7740669461678767e-05,1,3,1,2.5,465.09624316665963,None,464.0770463999943,464.3958819999825,465.079576499993,465.4058454000042,466.0890798000037,466.40740679999,left,0,2.6550454999960493,464.10499569997774,None,466.609924599994,None,qmbami,001,0,fr,2022-04-27_15h18.44.110,3-AFC_adaptive_staircase_mess,2022.1.1,None,
,,,,,2,0,2,0,18,0,18,0,,,,,,,,,,,,,,,,left,2000,-10.0,2.3657562948074015e-05,1,3,1,2.5,468.286194666671,None,468.26952800000436,468.59170849999646,469.24997169998824,469.5576045999769,470.2608547999989,470.57775409999886,right,0,2.863106800010428,468.2960328999907,None,470.8053472999891,None,qmbami,001,0,fr,2022-04-27_15h18.44.110,3-AFC_adaptive_staircase_mess,2022.1.1,None,
,,,,,2,0,2,0,19,0,19,0,,,,,,,,,,,,,,,,up,2000,-7.5,3.154786722400965e-05,1,3,1,2.5,473.7053522666722,None,472.68383369999356,473.00228230000357,473.68868560000556,474.01116080000065,474.6981882999826,475.0133305999916,up,1,2.8154494000191335,472.71215730000404,None,475.2143185999885,None,qmbami,001,0,fr,2022-04-27_15h18.44.110,3-AFC_adaptive_staircase_mess,2022.1.1,None,
,,,,,2,0,2,0,20,0,20,0,,,,,,,,,,,,,,,,right,2000,-7.5,3.154786722400965e-05,1,3,1,2.5,479.0849532666655,None,477.06211149998126,477.3833061000041,478.03923979998217,478.3573460000043,479.0370680000051,479.3594133000006,right,1,2.6285138000093866,477.0911867999821,None,479.58916289999615,None,qmbami,001,0,fr,2022-04-27_15h18.44.110,3-AFC_adaptive_staircase_mess,2022.1.1,None,
,,,,,2,0,2,0,21,0,21,0,,,,,,,,,,,,,,,,up,2000,-12.5,1.7740669461678767e-05,-1,4,-1,-5.0,482.24076406666813,None,481.1996399000054,481.5157285000023,482.1962917999772,482.5243896000029,483.2091182000004,483.5215984999959,up,1,2.8013176000094973,481.2549969999818,None,483.75457779999124,None,qmbami,001,0,fr,2022-04-27_15h18.44.110,3-AFC_adaptive_staircase_mess,2022.1.1,None,
,,,,,2,0,2,0,22,0,22,0,,,,,,,,,,,,,,,,up,2000,-12.5,1.7740669461678767e-05,-1,4,-1,-5.0,486.6265395666453,None,485.5770251999784,485.8937446999771,486.57869999998366,486.89912319998257,487.58633619998,487.9042072999873,right,0,2.931236300006276,485.63535229998524,None,488.13519159998395,None,qmbami,001,0,fr,2022-04-27_15h18.44.110,3-AFC_adaptive_staircase_mess,2022.1.1,None,
,,,,,2,0,2,0,23,0,23,0,,,,,,,,,,,,,,,,right,2000,-10.0,2.3657562948074015e-05,1,5,1,2.5,492.12354576666644,None,490.0762320999929,490.39372779999394,491.07633009998244,491.3943251000019,492.07780430000275,492.40467679998255,right,1,2.9634595999959856,490.1324163999816,None,492.6310427999997,None,qmbami,001,0,fr,2022-04-27_15h18.44.110,3-AFC_adaptive_staircase_mess,2022.1.1,None,
,,,,,2,0,2,0,24,0,24,0,,,,,,,,,,,,,,,,right,2000,-10.0,2.3657562948074015e-05,1,5,1,2.5,496.62853396666856,496.85573429998476,494.5869087000028,494.9007051999797,495.58757360000163,495.90370679998887,496.6118673000019,496.93916479998734,left,0,2.758102299994789,494.6410720999993,None,497.1410970999859,None,qmbami,001,0,fr,2022-04-27_15h18.44.110,3-AFC_adaptive_staircase_mess,2022.1.1,None,
,,,,,2,0,2,0,25,0,25,0,,,,,,,,,,,,,,,,up,2000,-7.5,3.154786722400965e-05,1,5,1,2.5,499.9212955666628,None,498.8809697999968,499.19729109999025,499.90462889999617,500.2388237999985,500.89341989997774,501.2095478999836,left,0,2.6384537999983877,498.936870799982,None,501.4396085999906,None,qmbami,001,0,fr,2022-04-27_15h18.44.110,3-AFC_adaptive_staircase_mess,2022.1.1,None,
,,,,,2,0,2,0,26,0,26,0,,,,,,,,,,,,,,,,left,2000,-5.0,4.206975708225974e-05,1,5,1,2.5,503.1401853666505,503.3623427999846,503.0945965999854,503.41676219998044,504.10061699998914,504.4180914000026,505.105953899998,505.42345849997946,left,1,2.6467998000152875,503.1528683999786,None,505.6507590999827,None,qmbami,001,0,fr,2022-04-27_15h18.44.110,3-AFC_adaptive_staircase_mess,2022.1.1,None,
,,,,,2,0,2,0,27,0,27,0,,,,,,,,,,,,,,,,up,2000,-5.0,4.206975708225974e-05,1,5,1,2.5,508.3360838666597,None,507.2926739999966,507.6098784999922,508.29127419998986,508.61775469998247,509.30102610000176,509.6165776999842,left,0,3.074351099989144,507.3495506999898,None,509.85225579998223,None,qmbami,001,0,fr,2022-04-27_15h18.44.110,3-AFC_adaptive_staircase_mess,2022.1.1,None,
,,,,,2,0,2,0,28,0,28,0,,,,,,,,,,,,,,,,left,2000,-2.5,5.610092271509818e-05,1,5,1,2.5,511.9762082666605,None,511.9323976000014,512.2583374999813,512.9722111999872,513.2917116000026,513.9471269999922,514.2695207999786,left,1,2.643768199981423,511.9877549999801,None,514.4994475999847,None,qmbami,001,0,fr,2022-04-27_15h18.44.110,3-AFC_adaptive_staircase_mess,2022.1.1,None,
,,,,,2,0,2,0,29,0,29,0,,,,,,,,,,,,,,,,right,2000,-2.5,5.610092271509818e-05,1,5,1,2.5,518.1887818666621,None,516.1423366999952,516.4572044999804,517.1435941999953,517.457414799981,518.1435255999968,518.4652686000045,right,1,2.818206199997803,516.1967045000056,None,518.6958047999942,None,qmbami,001,0,fr,2022-04-27_15h18.44.110,3-AFC_adaptive_staircase_mess,2022.1.1,None,
,,,,,2,0,2,0,30,0,30,0,,,,,,,,,,,,,,,,right,2000,-7.5,3.154786722400965e-05,-1,6,-1,-5.0,522.5501379666714,None,520.5249065999815,520.8471309999877,521.5278603000042,521.8495073999802,522.5334713000047,522.8616503999801,up,0,2.6738325000042096,520.5816921999794,None,523.092651199986,None,qmbami,001,0,fr,2022-04-27_15h18.44.110,3-AFC_adaptive_staircase_mess,2022.1.1,None,
,,,,,3,0,3,0,0,0,0,0,,,,,,,,,,,,,[],[],5,up,3000,50,0.017336842522626576,0,0,-1,5,525.8454142666635,526.0740296999866,524.7950397999957,525.1175597999827,525.7984823999868,526.1340796999866,None,None,up,1,1.6353829999861773,524.8521133000031,None,None,None,qmbami,001,0,fr,2022-04-27_15h18.44.110,3-AFC_adaptive_staircase_mess,2022.1.1,None,
,,,,,3,0,3,0,1,0,1,0,,,,,,,,,,,,,,,,right,3000,50,0.017336842522626576,0,0,-1,5,530.0686079666523,None,528.0082340999797,528.3285752999946,529.0164666999772,529.3353060999943,530.0231469999999,530.345712099981,right,1,2.3884254000149667,528.0665806999896,None,None,None,qmbami,001,0,fr,2022-04-27_15h18.44.110,3-AFC_adaptive_staircase_mess,2022.1.1,None,
,,,,,3,0,3,0,2,0,2,0,,,,,,,,,,,,,,,,right,3000,40,0.005482390980715924,-1,0,-1,-10,533.9890214666705,None,531.9466959999991,532.2707395000034,532.9595890999772,533.2780075999908,533.9422501999943,534.2780804999929,right,1,2.290495399996871,532.0054718999891,None,None,None,qmbami,001,0,fr,2022-04-27_15h18.44.110,3-AFC_adaptive_staircase_mess,2022.1.1,None,
,,,,,3,0,3,0,3,0,3,0,,,,,,,,,,,,,,,,up,3000,40,0.005482390980715924,-1,0,-1,-10,536.8479284666575,None,535.8204896999814,536.1416611000022,536.8030165999953,537.1262174999865,None,None,up,1,1.5338699000130873,535.8488293999981,None,None,None,qmbami,001,0,fr,2022-04-27_15h18.44.110,3-AFC_adaptive_staircase_mess,2022.1.1,None,
,,,,,3,0,3,0,4,0,4,0,,,,,,,,,,,,,,,,up,3000,30,0.001733684252262658,-1,0,-1,-10,539.9458251666549,None,538.8862904999987,539.2122735999874,539.9004417999822,540.2214642000035,None,None,up,1,1.3832480999990366,538.9444854999892,None,None,None,qmbami,001,0,fr,2022-04-27_15h18.44.110,3-AFC_adaptive_staircase_mess,2022.1.1,None,
,,,,,3,0,3,0,5,0,5,0,,,,,,,,,,,,,,,,right,3000,30,0.001733684252262658,-1,0,-1,-10,543.8791698666503,None,541.8429066999815,542.1644894999918,542.8486463000008,543.1761109999788,543.8330734999909,544.1565515999973,right,1,2.3938477000046987,541.9015715999994,None,None,None,qmbami,001,0,fr,2022-04-27_15h18.44.110,3-AFC_adaptive_staircase_mess,2022.1.1,None,
,,,,,3,0,3,0,6,0,6,0,,,,,,,,,,,,,,,,right,3000,20,0.0005482390980715922,-1,0,-1,-10,547.845187766656,None,545.8150004000054,546.1442051999911,546.7996098999865,547.1228941000008,547.8285210999893,None,right,1,2.2431700000015553,545.8443614999996,None,None,None,qmbami,001,0,fr,2022-04-27_15h18.44.110,3-AFC_adaptive_staircase_mess,2022.1.1,None,
,,,,,3,0,3,0,7,0,7,0,,,,,,,,,,,,,,,,left,3000,20,0.0005482390980715922,-1,0,-1,-10,549.6439676666671,None,549.598851799994,549.9262080999906,None,None,None,None,left,1,0.36753990000579506,549.655637799995,None,None,None,qmbami,001,0,fr,2022-04-27_15h18.44.110,3-AFC_adaptive_staircase_mess,2022.1.1,None,
,,,,,3,0,3,0,8,0,8,0,,,,,,,,,,,,,,,,left,3000,10,0.00017336842522626576,-1,0,-1,-10,551.5915573666609,None,551.5461368999968,551.8679798999801,None,None,None,None,left,1,0.5638856000150554,551.6041931999789,None,None,None,qmbami,001,0,fr,2022-04-27_15h18.44.110,3-AFC_adaptive_staircase_mess,2022.1.1,None,
,,,,,3,0,3,0,9,0,9,0,,,,,,,,,,,,,,,,left,3000,10,0.00017336842522626576,-1,0,-1,-10,553.7414889666582,None,553.6951629999967,554.0290157999843,None,None,None,None,left,1,0.33094069999060594,553.7569003999815,None,None,None,qmbami,001,0,fr,2022-04-27_15h18.44.110,3-AFC_adaptive_staircase_mess,2022.1.1,None,
,,,,,3,0,3,0,10,0,10,0,,,,,,,,,,,,,,,,up,3000,0,5.482390980715923e-05,-1,0,-1,-10,556.6387300666577,None,555.5759546000045,555.9012940999819,556.5930269999953,556.919456499978,None,None,up,1,1.496236900013173,555.6314368000021,None,None,None,qmbami,001,0,fr,2022-04-27_15h18.44.110,3-AFC_adaptive_staircase_mess,2022.1.1,None,
,,,,,3,0,3,0,11,0,11,0,,,,,,,,,,,,,,,,right,3000,0,5.482390980715923e-05,-1,0,-1,-10,560.6721768666505,None,558.6363668999984,558.9530276999867,559.6369182000053,559.9666160999914,560.6271547999931,560.9502164000005,right,1,2.449614900018787,558.693952200003,None,561.1645884666689,None,qmbami,001,0,fr,2022-04-27_15h18.44.110,3-AFC_adaptive_staircase_mess,2022.1.1,None,
,,,,,3,0,3,0,12,0,12,0,,,,,,,,,,,,,,,,right,3000,-10,1.7336842522626584e-05,-1,0,-1,-10,564.6809335666514,None,562.6304016999784,562.9533276000002,563.6192585999961,563.9377060999977,564.6352225999872,564.9780489999976,right,1,2.7597351000003982,562.6870602999988,None,565.1947525999858,None,qmbami,001,0,fr,2022-04-27_15h18.44.110,3-AFC_adaptive_staircase_mess,2022.1.1,None,
,,,,,3,0,3,0,13,0,13,0,,,,,,,,,,,,,,,,right,3000,-10,1.7336842522626584e-05,-1,0,-1,-10,569.023121166658,None,566.9771296999825,567.3062257999845,567.9972926999908,568.3154792999849,568.9765307999915,569.3118716999888,left,0,2.5302669999946374,567.0448673999927,None,569.548509699991,None,qmbami,001,0,fr,2022-04-27_15h18.44.110,3-AFC_adaptive_staircase_mess,2022.1.1,None,
,,,,,3,0,3,0,14,0,14,0,,,,,,,,,,,,,,,,right,3000,-5,3.082975009307411e-05,1,1,1,5,573.0948100666612,None,571.0670076999813,571.3836779999838,572.0799998999864,572.4084789000044,573.0781433999946,573.4154394999787,right,1,2.644252099998994,571.1227856999903,None,573.6220691000053,None,qmbami,001,0,fr,2022-04-27_15h18.44.110,3-AFC_adaptive_staircase_mess,2022.1.1,None,
,,,,,3,0,3,0,15,0,15,0,,,,,,,,,,,,,,,,up,3000,-5,3.082975009307411e-05,1,1,1,5,576.3245783666537,None,575.2713002999953,575.5851414999925,576.2789699999848,576.6009035999887,577.2737512000022,577.5928156999871,left,0,2.8091985000064597,575.3258330999815,None,577.824498300004,None,qmbami,001,0,fr,2022-04-27_15h18.44.110,3-AFC_adaptive_staircase_mess,2022.1.1,None,
,,,,,3,0,3,0,16,0,16,0,,,,,,,,,,,,,,,,right,3000,0,5.482390980715923e-05,1,1,1,5,581.6978577666489,None,579.6606245999865,579.9845068999857,580.6561187999905,580.98363469998,581.6518344999931,581.9933538000041,left,0,2.913159199990332,579.7190140000021,None,582.2026722999872,None,qmbami,001,0,fr,2022-04-27_15h18.44.110,3-AFC_adaptive_staircase_mess,2022.1.1,None,
,,,,,3,0,3,0,17,0,17,0,,,,,,,,,,,,,,,,left,3000,5,9.749222998790222e-05,1,1,1,5,584.1786468666435,None,584.1323938999849,584.4639591999876,None,None,None,None,left,1,0.8068483000097331,584.1920444999996,None,None,None,qmbami,001,0,fr,2022-04-27_15h18.44.110,3-AFC_adaptive_staircase_mess,2022.1.1,None,
,,,,,3,0,3,0,18,0,18,0,,,,,,,,,,,,,,,,left,3000,5,9.749222998790222e-05,1,1,1,5,586.5639069666543,None,586.5178496000008,586.8443241999776,None,None,None,None,left,1,0.42301560001214966,586.576594299986,None,None,None,qmbami,001,0,fr,2022-04-27_15h18.44.110,3-AFC_adaptive_staircase_mess,2022.1.1,None,
,,,,,3,0,3,0,19,0,19,0,,,,,,,,,,,,,,,,left,3000,-5,3.082975009307411e-05,-1,2,-1,-5.0,588.5535143666532,None,588.5092866999912,588.8301843999943,589.5043736999796,589.8329416999768,590.5150601999776,590.8364612000005,left,1,2.546107900008792,588.5659182999807,None,591.0492796000035,None,qmbami,001,0,fr,2022-04-27_15h18.44.110,3-AFC_adaptive_staircase_mess,2022.1.1,None,
,,,,,3,0,3,0,20,0,20,0,,,,,,,,,,,,,,,,left,3000,-5,3.082975009307411e-05,-1,2,-1,-5.0,592.6541359666483,None,592.6374692999816,592.9668991999933,593.6158934999839,593.9496146999882,594.6224675999838,594.9463716000027,left,1,2.716233100014506,592.6673063999915,None,595.1871645999781,None,qmbami,001,0,fr,2022-04-27_15h18.44.110,3-AFC_adaptive_staircase_mess,2022.1.1,None,
,,,,,3,0,3,0,21,0,21,0,,,,,,,,,,,,,,,,up,3000,-10.0,1.7336842522626584e-05,-1,2,-1,-5.0,597.9555444666514,None,596.9086260999902,597.2359786999878,597.9071918999834,598.2392801999813,598.91590979998,599.2460088999942,left,0,2.748397200019099,596.9716376999859,None,599.4468416000018,None,qmbami,001,0,fr,2022-04-27_15h18.44.110,3-AFC_adaptive_staircase_mess,2022.1.1,None,
,,,,,3,0,3,0,22,0,22,0,,,,,,,,,,,,,,,,right,3000,-7.5,2.3119051069963017e-05,1,3,1,2.5,603.2627138666614,None,601.2461612999905,601.5803728000028,602.2270592999994,602.5503865999926,603.2460471999948,603.5808319999778,up,0,3.722023900016211,601.2775250999839,None,603.7847357999999,None,qmbami,001,0,fr,2022-04-27_15h18.44.110,3-AFC_adaptive_staircase_mess,2022.1.1,None,
,,,,,3,0,3,0,23,0,23,0,,,,,,,,,,,,,,,,right,3000,-5.0,3.082975009307411e-05,1,3,1,2.5,608.5498951666561,None,606.514104300004,606.8440466999891,607.5308225000044,607.8501590999949,608.5332284999895,608.8656178999809,right,1,2.5486089999903925,606.5785213999916,None,609.0737458999793,None,qmbami,001,0,fr,2022-04-27_15h18.44.110,3-AFC_adaptive_staircase_mess,2022.1.1,None,
,,,,,3,0,3,0,24,0,24,0,,,,,,,,,,,,,,,,up,3000,-5.0,3.082975009307411e-05,1,3,1,2.5,611.6674162666643,None,610.6324953000003,610.9581352999958,611.6507495999977,611.9880299999786,612.6349018999899,612.9646309999807,up,1,2.405385899997782,610.6897846999927,None,None,None,qmbami,001,0,fr,2022-04-27_15h18.44.110,3-AFC_adaptive_staircase_mess,2022.1.1,None,
,,,,,3,0,3,0,25,0,25,0,,,,,,,,,,,,,,,,left,3000,-10.0,1.7336842522626584e-05,-1,4,-1,-5.0,614.6716339666493,None,614.6248866999813,614.9621915000025,615.6110401999904,615.9356432999775,616.6286271999998,616.9579948000028,left,1,2.5049437999841757,614.6864309999801,None,617.1618183999963,None,qmbami,001,0,fr,2022-04-27_15h18.44.110,3-AFC_adaptive_staircase_mess,2022.1.1,None,
,,,,,3,0,3,0,26,0,26,0,,,,,,,,,,,,,,,,right,3000,-10.0,1.7336842522626584e-05,-1,4,-1,-5.0,620.7432665666604,None,618.6929547000036,619.0193796999811,619.6849117999955,620.0049842000008,620.6978326999815,621.0313348000054,right,1,2.609723400004441,618.7568664999853,None,621.2403937999916,None,qmbami,001,0,fr,2022-04-27_15h18.44.110,3-AFC_adaptive_staircase_mess,2022.1.1,None,
,,,,,3,0,3,0,27,0,27,0,,,,,,,,,,,,,,,,up,3000,-15.0,9.749222998790228e-06,-1,4,-1,-5.0,623.9527897666596,None,622.9000901999825,623.2182397999859,623.9075755999947,624.2399125999946,624.9053958999866,625.2300318999914,left,0,2.7134711999970023,622.9586953999824,None,625.4560628999898,None,qmbami,001,0,fr,2022-04-27_15h18.44.110,3-AFC_adaptive_staircase_mess,2022.1.1,None,
,,,,,3,0,3,0,28,0,28,0,,,,,,,,,,,,,,,,left,3000,-12.5,1.300079781582636e-05,1,5,1,2.5,627.213158166651,None,627.1678651999973,627.5040904000052,628.1643993000034,628.4818095999944,629.1689195999934,629.5029948999872,right,0,2.4283400000131223,627.2267697999778,None,629.6968682666522,None,qmbami,001,0,fr,2022-04-27_15h18.44.110,3-AFC_adaptive_staircase_mess,2022.1.1,None,
,,,,,3,0,3,0,29,0,29,0,,,,,,,,,,,,,,,,right,3000,-10.0,1.7336842522626584e-05,1,5,1,2.5,633.2036372666519,None,631.1742881999817,631.5003163999936,632.1710580999788,632.493384100002,633.1869705999852,633.5155809999851,right,1,2.3416419999848586,631.2330980999977,None,None,None,qmbami,001,0,fr,2022-04-27_15h18.44.110,3-AFC_adaptive_staircase_mess,2022.1.1,None,
,,,,,3,0,3,0,30,0,30,0,,,,,,,,,,,,,,,,up,3000,-10.0,1.7336842522626584e-05,1,5,1,2.5,636.1564536666594,636.383290400001,635.1115538000013,635.4389098999964,636.1108414999908,636.4441043999977,637.0974637999898,637.4180111000023,right,0,2.4514016000030097,635.1718098999991,None,637.6518138999818,None,qmbami,001,0,fr,2022-04-27_15h18.44.110,3-AFC_adaptive_staircase_mess,2022.1.1,None,
,,,,,3,0,3,0,31,0,31,0,,,,,,,,,,,,,,,,left,3000,-7.5,2.3119051069963017e-05,1,5,1,2.5,639.1967362666658,None,639.1503074999782,639.4876918999944,640.1534778999921,640.4795212000026,641.1656037999783,641.4861652999825,left,1,2.396576700004516,639.2114180999924,None,None,None,qmbami,001,0,fr,2022-04-27_15h18.44.110,3-AFC_adaptive_staircase_mess,2022.1.1,None,
,,,,,3,0,3,0,32,0,32,0,,,,,,,,,,,,,,,,right,3000,-7.5,2.3119051069963017e-05,1,5,1,2.5,645.1744493666667,None,643.1169443999825,643.4357272000052,644.1187471000012,644.4386755999876,645.125990600005,645.4555109999783,up,0,2.738481700012926,643.1731686999847,None,645.6629902999848,None,qmbami,001,0,fr,2022-04-27_15h18.44.110,3-AFC_adaptive_staircase_mess,2022.1.1,None,
,,,,,3,0,3,0,33,0,33,0,,,,,,,,,,,,,,,,right,3000,-5.0,3.082975009307411e-05,1,5,1,2.5,649.4787755666514,None,647.4335146999802,647.7612206999911,648.4504582999798,648.7739022999885,649.4621088999847,649.7909159999981,right,1,2.5855832000088412,647.5018955999985,None,650.0007627999876,None,qmbami,001,0,fr,2022-04-27_15h18.44.110,3-AFC_adaptive_staircase_mess,2022.1.1,None,
,,,,,3,0,3,0,34,0,34,0,,,,,,,,,,,,,,,,right,3000,-5.0,3.082975009307411e-05,1,5,1,2.5,653.6252126666698,None,651.5707987999776,651.8972876000043,652.6090760999941,652.9346903999976,653.588365899981,653.9157146999787,left,0,2.815798299998278,651.6396929000039,None,654.1448317999893,None,qmbami,001,0,fr,2022-04-27_15h18.44.110,3-AFC_adaptive_staircase_mess,2022.1.1,None,
,,,,,3,0,3,0,35,0,35,0,,,,,,,,,,,,,,,,left,3000,-2.5,4.1112132497353565e-05,1,5,1,2.5,656.028583166659,None,655.9545962999982,656.2798170000024,656.9624661999987,657.3120623999857,657.9665843999828,658.2784970999928,left,1,2.4275106999848504,656.0433674999804,None,658.5030373666707,None,qmbami,001,0,fr,2022-04-27_15h18.44.110,3-AFC_adaptive_staircase_mess,2022.1.1,None,
,,,,,3,0,3,0,36,0,36,0,,,,,,,,,,,,,,,,right,3000,-2.5,4.1112132497353565e-05,1,5,1,2.5,662.0206373666626,None,659.965226899978,660.3142429,660.9706581999781,661.3164305999817,661.9736139999877,662.3039163999783,right,1,2.6198542000201996,660.0118881999806,None,662.5327774999896,None,qmbami,001,0,fr,2022-04-27_15h18.44.110,3-AFC_adaptive_staircase_mess,2022.1.1,None,
,,,,,3,0,3,0,37,0,37,0,,,,,,,,,,,,,,,,left,3000,-7.5,2.3119051069963017e-05,-1,6,-1,-5.0,664.1830244666528,None,664.1390137999842,664.4646670999937,665.1407439000031,665.483559299988,666.1410545999825,666.4848147000012,up,0,3.0433336999849416,664.1950182,None,666.7171339000051,None,qmbami,001,0,fr,2022-04-27_15h18.44.110,3-AFC_adaptive_staircase_mess,2022.1.1,None,
,,,,,4,0,4,0,0,0,0,0,,,,,,,,,,,,,[],[],5,right,4000,50,0.02654422221154942,0,0,-1,5,670.811608766646,None,668.7478358999942,669.0570427999774,669.7678547999822,670.0907029999944,670.758895899984,671.0926745999896,right,1,2.6263027999957558,668.8049287000031,None,671.3226248999999,None,qmbami,001,0,fr,2022-04-27_15h18.44.110,3-AFC_adaptive_staircase_mess,2022.1.1,None,
,,,,,4,0,4,0,1,0,1,0,,,,,,,,,,,,,,,,right,4000,50,0.02654422221154942,0,0,-1,5,675.0001990666535,None,672.9757996999833,673.2978721999971,673.9539234999975,674.2627081999963,674.9543028000044,675.2799091000052,right,1,2.4595817000081297,673.0042413999909,None,675.5013330666445,None,qmbami,001,0,fr,2022-04-27_15h18.44.110,3-AFC_adaptive_staircase_mess,2022.1.1,None,
,,,,,4,0,4,0,2,0,2,0,,,,,,,,,,,,,,,,right,4000,40,0.008394020090612802,-1,0,-1,-10,679.0127758666679,679.2404535999813,676.9939899999881,677.3099903999828,677.9610702999926,678.2937252999982,678.9771054000012,679.2977777000051,right,1,4.008740099990973,677.0233289999887,None,679.5273239999951,None,qmbami,001,0,fr,2022-04-27_15h18.44.110,3-AFC_adaptive_staircase_mess,2022.1.1,None,
,,,,,4,0,4,0,3,0,3,0,,,,,,,,,,,,,,,,up,4000,40,0.008394020090612802,-1,0,-1,-10,683.580084966645,None,682.5252834999992,682.8372012999898,683.5360378999903,683.858318499988,None,None,up,1,1.649660800001584,682.5822426999803,None,None,None,qmbami,001,0,fr,2022-04-27_15h18.44.110,3-AFC_adaptive_staircase_mess,2022.1.1,None,
,,,,,4,0,4,0,4,0,4,0,,,,,,,,,,,,,,,,up,4000,30,0.0026544222211549416,-1,0,-1,-10,686.8039387666543,687.0303228999837,685.7506835999957,686.0699550999852,686.7598539000028,687.0900923000008,687.7748247999989,688.0918584000028,up,1,2.600791900011245,685.8388671999855,None,688.3213090999925,None,qmbami,001,0,fr,2022-04-27_15h18.44.110,3-AFC_adaptive_staircase_mess,2022.1.1,None,
,,,,,4,0,4,0,5,0,5,0,,,,,,,,,,,,,,,,right,4000,30,0.0026544222211549416,-1,0,-1,-10,691.9942118666697,None,689.9471746000054,690.2637652999838,690.977298599988,691.305148399988,691.9574240999937,692.280222100002,right,1,2.899520400009351,690.0047102999815,None,692.5127403999795,None,qmbami,001,0,fr,2022-04-27_15h18.44.110,3-AFC_adaptive_staircase_mess,2022.1.1,None,
,,,,,4,0,4,0,6,0,6,0,,,,,,,,,,,,,,,,left,4000,20,0.0008394020090612801,-1,0,-1,-10,694.4645028666457,None,694.4203588999808,694.7467127999989,None,None,None,None,left,1,0.375911899987841,694.479382599995,None,None,None,qmbami,001,0,fr,2022-04-27_15h18.44.110,3-AFC_adaptive_staircase_mess,2022.1.1,None,
,,,,,4,0,4,0,7,0,7,0,,,,,,,,,,,,,,,,right,4000,20,0.0008394020090612801,-1,0,-1,-10,698.3776907666509,None,696.3393629999773,696.647855999996,697.3493486999942,697.6510274999891,698.3610240999842,698.6787282000005,right,1,2.299528500007,696.396133400005,None,None,None,qmbami,001,0,fr,2022-04-27_15h18.44.110,3-AFC_adaptive_staircase_mess,2022.1.1,None,
,,,,,4,0,4,0,8,0,8,0,,,,,,,,,,,,,,,,left,4000,10,0.00026544222211549425,-1,0,-1,-10,700.2454184666606,None,700.2287517999939,700.5448385999771,None,None,None,None,left,1,0.6153118999791332,700.2559022999776,None,None,None,qmbami,001,0,fr,2022-04-27_15h18.44.110,3-AFC_adaptive_staircase_mess,2022.1.1,None,
,,,,,4,0,4,0,9,0,9,0,,,,,,,,,,,,,,,,left,4000,10,0.00026544222211549425,-1,0,-1,-10,702.4227080666499,None,702.3779484999832,702.7056054999994,None,None,None,None,left,1,0.5008164000173565,702.4349915999919,None,None,None,qmbami,001,0,fr,2022-04-27_15h18.44.110,3-AFC_adaptive_staircase_mess,2022.1.1,None,
,,,,,4,0,4,0,10,0,10,0,,,,,,,,,,,,,,,,up,4000,0,8.394020090612804e-05,-1,0,-1,-10,705.5003025666558,705.72138979999,704.4515595999837,704.7692335000029,705.4547508999822,705.7765354999865,None,None,up,1,1.4822238000051584,704.5083173000021,None,None,None,qmbami,001,0,fr,2022-04-27_15h18.44.110,3-AFC_adaptive_staircase_mess,2022.1.1,None,
,,,,,4,0,4,0,11,0,11,0,,,,,,,,,,,,,,,,right,4000,0,8.394020090612804e-05,-1,0,-1,-10,709.5370209666473,None,707.5074130999856,707.8251872999826,708.50120899998,708.8156540000055,709.5203542999807,709.8425976999861,right,1,2.3763993000029586,707.5674555999867,None,None,None,qmbami,001,0,fr,2022-04-27_15h18.44.110,3-AFC_adaptive_staircase_mess,2022.1.1,None,
,,,,,4,0,4,0,12,0,12,0,,,,,,,,,,,,,,,,right,4000,-10,2.6544222211549425e-05,-1,0,-1,-10,713.4761261666465,None,711.4374934999796,711.7534275999933,712.4569023999793,712.7744591999799,713.4594594999799,713.7812245999812,left,0,2.5744255000026897,711.4972370000032,None,714.0143401999958,None,qmbami,001,0,fr,2022-04-27_15h18.44.110,3-AFC_adaptive_staircase_mess,2022.1.1,None,
,,,,,4,0,4,0,13,0,13,0,,,,,,,,,,,,,,,,left,4000,-5,4.720304381429618e-05,1,1,1,5,715.6176213666661,None,715.569815099996,715.892505900003,716.5786126999883,716.8953256999957,717.5574925999972,717.8734068999765,left,1,2.588065899995854,715.6273807999969,None,718.1325150000048,None,qmbami,001,0,fr,2022-04-27_15h18.44.110,3-AFC_adaptive_staircase_mess,2022.1.1,None,
,,,,,4,0,4,0,14,0,14,0,,,,,,,,,,,,,,,,left,4000,-5,4.720304381429618e-05,1,1,1,5,719.7517062666632,None,719.706591299997,720.0254180000047,720.7155695999973,721.0318984999903,721.7153116999834,722.0294544999779,left,1,2.7715389000077266,719.7643167999922,None,722.2582260000054,None,qmbami,001,0,fr,2022-04-27_15h18.44.110,3-AFC_adaptive_staircase_mess,2022.1.1,None,
,,,,,4,0,4,0,15,0,15,0,,,,,,,,,,,,,,,,right,4000,-15,1.4926913094589802e-05,-1,2,-1,-5.0,726.0840816666644,None,724.0340903000033,724.3532870000054,725.0346922999888,725.3511387000035,726.0386569999973,726.3644032999873,left,0,3.1000079000077676,724.090996599989,None,726.5935625999991,None,qmbami,001,0,fr,2022-04-27_15h18.44.110,3-AFC_adaptive_staircase_mess,2022.1.1,None,
,,,,,4,0,4,0,16,0,16,0,,,,,,,,,,,,,,,,left,4000,-12.5,1.9905358527674868e-05,1,3,1,2.5,728.7320800666678,None,728.6837325999804,729.007553399977,729.6840990999772,730.0152550999774,730.6988746999996,731.0371477000008,up,0,2.738252500013914,728.7412334999826,None,731.2400784999772,None,qmbami,001,0,fr,2022-04-27_15h18.44.110,3-AFC_adaptive_staircase_mess,2022.1.1,None,
,,,,,4,0,4,0,17,0,17,0,,,,,,,,,,,,,,,,left,4000,-10.0,2.6544222211549425e-05,1,3,1,2.5,733.0221575666549,None,733.0054908999882,733.3334574000037,733.9895120000001,734.3104297999816,734.9918174999766,735.3113954,right,0,2.300743500003591,733.0344751999946,None,None,None,qmbami,001,0,fr,2022-04-27_15h18.44.110,3-AFC_adaptive_staircase_mess,2022.1.1,None,
,,,,,4,0,4,0,18,0,18,0,,,,,,,,,,,,,,,,right,4000,-7.5,3.53972892192069e-05,1,3,1,2.5,738.8836055666654,None,736.815478399978,737.1317645999952,737.8190133000026,738.1404614999774,738.8253051999782,739.1485623999906,right,1,2.718941300001461,736.8721018999931,None,739.3747001999873,None,qmbami,001,0,fr,2022-04-27_15h18.44.110,3-AFC_adaptive_staircase_mess,2022.1.1,None,
,,,,,4,0,4,0,19,0,19,0,,,,,,,,,,,,,,,,left,4000,-7.5,3.53972892192069e-05,1,3,1,2.5,741.15945926667,None,741.1146560999914,741.4488039999851,742.1368087999872,742.4552013999783,743.1116228000028,743.4329573999858,up,0,2.508560700021917,741.1619613999792,None,743.6660020999843,None,qmbami,001,0,fr,2022-04-27_15h18.44.110,3-AFC_adaptive_staircase_mess,2022.1.1,None,
,,,,,4,0,4,0,20,0,20,0,,,,,,,,,,,,,,,,left,4000,-5.0,4.720304381429618e-05,1,3,1,2.5,745.2300178666521,None,745.1841031999793,745.5164639999857,746.2030161999865,746.5187997999892,747.2110866000003,747.535297800001,left,1,2.6464916999975685,745.2323194000055,None,747.7649235999852,None,qmbami,001,0,fr,2022-04-27_15h18.44.110,3-AFC_adaptive_staircase_mess,2022.1.1,None,
,,,,,4,0,4,0,21,0,21,0,,,,,,,,,,,,,,,,up,4000,-5.0,4.720304381429618e-05,1,3,1,2.5,750.4068942666675,None,749.3844075999805,749.7060376000009,750.3609701999812,750.6897050999978,751.3743662999768,751.6898601999856,up,1,2.7000812999904156,749.4038971999835,None,751.9195034999866,None,qmbami,001,0,fr,2022-04-27_15h18.44.110,3-AFC_adaptive_staircase_mess,2022.1.1,None,
,,,,,4,0,4,0,22,0,22,0,,,,,,,,,,,,,,,,right,4000,-10.0,2.6544222211549425e-05,-1,4,-1,-5.0,755.6459995666557,755.8736308999942,753.6078513999819,753.9225303999847,754.6039863000042,754.9233134999813,755.6018697999825,755.9291459999804,left,0,2.6337307000067085,753.6616384999943,None,756.1591407999804,None,qmbami,001,0,fr,2022-04-27_15h18.44.110,3-AFC_adaptive_staircase_mess,2022.1.1,None,
,,,,,4,0,4,0,23,0,23,0,,,,,,,,,,,,,,,,up,4000,-7.5,3.53972892192069e-05,1,5,1,2.5,758.8457017666699,759.071758999984,757.802566600003,758.1163818999776,758.8290351000032,759.1603111999866,759.8168335999944,760.1330853999825,up,1,2.6597726000181865,757.8594390999933,None,760.361868899985,None,qmbami,001,0,fr,2022-04-27_15h18.44.110,3-AFC_adaptive_staircase_mess,2022.1.1,None,
,,,,,4,0,4,0,24,0,24,0,,,,,,,,,,,,,,,,right,4000,-7.5,3.53972892192069e-05,1,5,1,2.5,764.0706587666684,None,762.0552721999993,762.371408099978,763.0587015999772,763.3771605999791,764.0539921000018,764.3853154999961,right,1,2.738385200005723,762.0856620999984,None,764.5847464999824,None,qmbami,001,0,fr,2022-04-27_15h18.44.110,3-AFC_adaptive_staircase_mess,2022.1.1,None,
,,,,,4,0,4,0,25,0,25,0,,,,,,,,,,,,,,,,left,4000,-12.5,1.9905358527674868e-05,-1,6,-1,-5.0,766.3559660666544,None,766.3114039999782,766.6423858999915,767.3288691999915,767.6438473000017,768.325105099997,768.6419759999844,right,0,2.6785922000126448,766.3683143999951,None,768.8704975,None,qmbami,001,0,fr,2022-04-27_15h18.44.110,3-AFC_adaptive_staircase_mess,2022.1.1,None,
,,,,,5,0,5,0,0,0,0,0,,,,,,,,,,,,,[],[],5,up,6000,50,0.03664122665694519,0,0,-1,5,771.6031496666585,None,770.5796380999964,770.9280212000012,771.5569857999799,771.8798772000009,None,None,up,1,1.7355259000032675,770.6082019000023,None,None,None,qmbami,001,0,fr,2022-04-27_15h18.44.110,3-AFC_adaptive_staircase_mess,2022.1.1,None,
,,,,,5,0,5,0,1,0,1,0,,,,,,,,,,,,,,,,right,6000,50,0.03664122665694519,0,1,-1,5,775.9160990666462,776.1349236999813,773.8878395999782,774.2060431999853,774.8658292999899,775.1852619999845,775.8994323999796,776.2172371999768,up,0,2.3635138999961782,773.9155272999778,None,None,None,qmbami,001,0,fr,2022-04-27_15h18.44.110,3-AFC_adaptive_staircase_mess,2022.1.1,None,
,,,,,5,0,5,0,2,0,2,0,,,,,,,,,,,,,,,,left,6000,55,0.06515833892261494,1,2,1,2.5,777.8241978666667,None,777.7777319999877,None,None,None,None,None,right,0,-1.4775464000122156,777.8358532999991,None,None,None,qmbami,001,0,fr,2022-04-27_15h18.44.110,3-AFC_adaptive_staircase_mess,2022.1.1,None,
,,,,,5,0,5,0,3,0,3,0,,,,,,,,,,,,,,,,up,6000,57.5,0.08689004143746873,1,2,1,2.5,780.4010793666569,None,779.3516182999883,779.6702850000001,780.3553440999822,780.6902505999897,None,None,up,1,1.4919656999991275,779.4113625999889,None,None,None,qmbami,001,0,fr,2022-04-27_15h18.44.110,3-AFC_adaptive_staircase_mess,2022.1.1,None,
,,,,,5,0,5,0,4,0,4,0,,,,,,,,,,,,,,,,left,6000,57.5,0.08689004143746873,1,2,1,2.5,782.4477946666632,None,782.4048174999771,782.7237845999771,None,None,None,None,left,1,0.5393581000098493,782.4596862999897,None,None,None,qmbami,001,0,fr,2022-04-27_15h18.44.110,3-AFC_adaptive_staircase_mess,2022.1.1,None,
,,,,,5,0,5,0,5,0,5,0,,,,,,,,,,,,,,,,right,6000,52.5,0.04886186104779053,-1,3,-1,-5.0,786.5609355666713,None,784.5358908000053,784.8555660999846,785.5107698999927,785.8298667999916,786.5158218999859,786.8445374000003,right,1,2.434931800002232,784.5648337999883,None,None,None,qmbami,001,0,fr,2022-04-27_15h18.44.110,3-AFC_adaptive_staircase_mess,2022.1.1,None,
,,,,,5,0,5,0,6,0,6,0,,,,,,,,,,,,,,,,up,6000,52.5,0.04886186104779053,-1,3,-1,-5.0,789.5409154666452,None,788.4918103999807,788.8132175999926,789.4949962999963,789.8330440999998,None,None,up,1,1.4888840999919921,788.550992000004,None,None,None,qmbami,001,0,fr,2022-04-27_15h18.44.110,3-AFC_adaptive_staircase_mess,2022.1.1,None,
,,,,,5,0,5,0,7,0,7,0,,,,,,,,,,,,,,,,right,6000,47.5,0.02747704369288122,-1,3,-1,-5.0,793.5803221666467,None,791.5540277999826,791.8702877000032,792.5558924999787,792.8840044999961,793.5636554999801,793.8985593999969,right,1,2.316093700006604,791.6106587999966,None,None,None,qmbami,001,0,fr,2022-04-27_15h18.44.110,3-AFC_adaptive_staircase_mess,2022.1.1,None,
,,,,,5,0,5,0,8,0,8,0,,,,,,,,,,,,,,,,up,6000,47.5,0.02747704369288122,-1,3,-1,-5.0,796.4708887666677,None,795.424586899986,795.7408595999877,796.4255359999952,796.7743264999881,None,None,up,1,1.661012500000652,795.4822117000003,None,None,None,qmbami,001,0,fr,2022-04-27_15h18.44.110,3-AFC_adaptive_staircase_mess,2022.1.1,None,
,,,,,5,0,5,0,9,0,9,0,,,,,,,,,,,,,,,,right,6000,42.5,0.015451477162567949,-1,3,-1,-5.0,800.7076562666664,None,798.690022499999,799.0021795999783,799.6834756000026,800.0032907999994,800.6597144999832,800.9840140999877,right,1,2.2501422000059392,798.7173489999841,None,None,None,qmbami,001,0,fr,2022-04-27_15h18.44.110,3-AFC_adaptive_staircase_mess,2022.1.1,None,
,,,,,5,0,5,0,10,0,10,0,,,,,,,,,,,,,,,,right,6000,42.5,0.015451477162567949,-1,3,-1,-5.0,804.5253293666503,None,802.484327299986,802.8058807000052,803.4873194999818,803.7970088000002,804.479146800004,804.8138881999766,right,1,2.4870286000077613,802.5127502999967,None,805.0141219999932,None,qmbami,001,0,fr,2022-04-27_15h18.44.110,3-AFC_adaptive_staircase_mess,2022.1.1,None,
,,,,,5,0,5,0,11,0,11,0,,,,,,,,,,,,,,,,right,6000,37.5,0.008689004143746874,-1,3,-1,-5.0,808.530489366651,None,806.4920556999859,806.8098978999769,807.5004504999961,807.8280912000046,808.5138226999843,808.8466448999825,right,1,2.321944800001802,806.5494009999966,None,None,None,qmbami,001,0,fr,2022-04-27_15h18.44.110,3-AFC_adaptive_staircase_mess,2022.1.1,None,
,,,,,5,0,5,0,12,0,12,0,,,,,,,,,,,,,,,,up,6000,37.5,0.008689004143746874,-1,3,-1,-5.0,811.3941769666601,None,810.3698565999803,810.6905150999955,811.3775102999934,811.7142160999938,None,None,up,1,1.5477613999973983,810.4266210999922,None,None,None,qmbami,001,0,fr,2022-04-27_15h18.44.110,3-AFC_adaptive_staircase_mess,2022.1.1,None,
,,,,,5,0,5,0,13,0,13,0,,,,,,,,,,,,,,,,up,6000,32.5,0.004886186104779052,-1,3,-1,-5.0,814.557708966666,None,813.4973314999952,813.8185173999809,814.5133815000008,814.8521051999996,815.5075290999957,None,up,1,1.94129950000206,813.5537086999975,None,None,None,qmbami,001,0,fr,2022-04-27_15h18.44.110,3-AFC_adaptive_staircase_mess,2022.1.1,None,
,,,,,5,0,5,0,14,0,14,0,,,,,,,,,,,,,,,,up,6000,32.5,0.004886186104779052,-1,3,-1,-5.0,818.0516374666515,None,817.0351579999842,817.3652125999797,818.0349707999849,818.3563810999913,None,None,up,1,1.3598243999877013,817.0637955999991,None,None,None,qmbami,001,0,fr,2022-04-27_15h18.44.110,3-AFC_adaptive_staircase_mess,2022.1.1,None,
,,,,,5,0,5,0,15,0,15,0,,,,,,,,,,,,,,,,left,6000,27.5,0.002747704369288122,-1,3,-1,-5.0,819.9713005666601,None,819.9239459999953,820.2609271999972,None,None,None,None,left,1,0.5517037000099663,819.983734199981,None,None,None,qmbami,001,0,fr,2022-04-27_15h18.44.110,3-AFC_adaptive_staircase_mess,2022.1.1,None,
,,,,,5,0,5,0,16,0,16,0,,,,,,,,,,,,,,,,right,6000,27.5,0.002747704369288122,-1,3,-1,-5.0,824.0997578666468,None,822.0592353999964,822.3881704999949,823.0735940999875,823.3946823999868,824.0542085999914,824.3841456999944,right,1,2.2558954000123776,822.1201616000035,None,None,None,qmbami,001,0,fr,2022-04-27_15h18.44.110,3-AFC_adaptive_staircase_mess,2022.1.1,None,
,,,,,5,0,5,0,17,0,17,0,,,,,,,,,,,,,,,,right,6000,22.5,0.0015451477162567947,-1,3,-1,-5.0,None,None,825.8623630999937,826.1798271999869,826.8652003000025,827.1861993999919,None,None,right,1,1.78213279999909,825.9217431999859,None,None,None,qmbami,001,0,fr,2022-04-27_15h18.44.110,3-AFC_adaptive_staircase_mess,2022.1.1,None,
,,,,,5,0,5,0,18,0,18,0,,,,,,,,,,,,,,,,left,6000,22.5,0.0015451477162567947,-1,3,-1,-5.0,829.2651659666483,None,829.2198714999831,829.5447095999843,None,None,None,None,left,1,0.5695609000104014,829.2770822999883,None,None,None,qmbami,001,0,fr,2022-04-27_15h18.44.110,3-AFC_adaptive_staircase_mess,2022.1.1,None,
,,,,,5,0,5,0,19,0,19,0,,,,,,,,,,,,,,,,right,6000,17.5,0.0008689004143746875,-1,3,-1,-5.0,833.4056077666503,None,831.3445648999768,831.6688703999971,832.3543780999898,832.6711860999931,833.3603173999873,833.6923058999819,right,1,2.4922964999859687,831.4023926999944,None,833.9202883999969,None,qmbami,001,0,fr,2022-04-27_15h18.44.110,3-AFC_adaptive_staircase_mess,2022.1.1,None,
,,,,,5,0,5,0,20,0,20,0,,,,,,,,,,,,,,,,up,6000,17.5,0.0008689004143746875,-1,3,-1,-5.0,836.4618254666605,836.6892502999981,835.4169750000001,835.7444053999789,836.4115208000003,836.7516712999786,None,None,up,1,1.3213968999916688,835.4852625999774,None,None,None,qmbami,001,0,fr,2022-04-27_15h18.44.110,3-AFC_adaptive_staircase_mess,2022.1.1,None,
,,,,,5,0,5,0,21,0,21,0,,,,,,,,,,,,,,,,right,6000,12.5,0.0004886186104779051,-1,3,-1,-5.0,840.3613659666482,None,838.3141426999937,838.6288322999899,839.3322715999966,839.6517884999921,840.3112353000033,None,right,1,2.1878154999867547,838.3788760000025,None,None,None,qmbami,001,0,fr,2022-04-27_15h18.44.110,3-AFC_adaptive_staircase_mess,2022.1.1,None,
,,,,,5,0,5,0,22,0,22,0,,,,,,,,,,,,,,,,up,6000,12.5,0.0004886186104779051,-1,3,-1,-5.0,843.1196004666601,None,842.0904957999883,842.4130391999788,843.074385999993,843.4133768999891,None,None,up,1,1.4276726999960374,842.1475065999839,None,None,None,qmbami,001,0,fr,2022-04-27_15h18.44.110,3-AFC_adaptive_staircase_mess,2022.1.1,None,
,,,,,5,0,5,0,23,0,23,0,,,,,,,,,,,,,,,,left,6000,7.5,0.00027477043692881217,-1,3,-1,-5.0,845.1094193666688,None,845.0660029999854,845.3939600999875,None,None,None,None,left,1,0.5015086999919731,845.1214257999964,None,None,None,qmbami,001,0,fr,2022-04-27_15h18.44.110,3-AFC_adaptive_staircase_mess,2022.1.1,None,
,,,,,5,0,5,0,24,0,24,0,,,,,,,,,,,,,,,,right,6000,7.5,0.00027477043692881217,-1,3,-1,-5.0,849.1784983666478,None,847.1324333999946,847.4543198999891,848.1505485999805,848.4762264000019,849.1343721000012,None,right,1,1.9543622999917716,847.1891799999867,None,None,None,qmbami,001,0,fr,2022-04-27_15h18.44.110,3-AFC_adaptive_staircase_mess,2022.1.1,None,
,,,,,5,0,5,0,25,0,25,0,,,,,,,,,,,,,,,,right,6000,2.5,0.00015451477162567947,-1,3,-1,-5.0,852.7068172666516,None,850.6552472999902,850.9846763999958,851.6707966999966,851.9932213999855,852.6600050999841,852.9951656000048,right,1,2.3944206000014674,850.7162312,None,None,None,qmbami,001,0,fr,2022-04-27_15h18.44.110,3-AFC_adaptive_staircase_mess,2022.1.1,None,
,,,,,5,0,5,0,26,0,26,0,,,,,,,,,,,,,,,,right,6000,2.5,0.00015451477162567947,-1,3,-1,-5.0,856.6528194666646,None,854.6066993999993,854.9295475999825,855.6216028000053,855.9452257999801,856.6084076999978,None,right,1,2.0647213000047486,854.6636807000032,None,None,None,qmbami,001,0,fr,2022-04-27_15h18.44.110,3-AFC_adaptive_staircase_mess,2022.1.1,None,
,,,,,5,0,5,0,27,0,27,0,,,,,,,,,,,,,,,,right,6000,-2.5,8.689004143746872e-05,-1,3,-1,-5.0,860.2961996666602,None,858.2402368999901,858.5683611999848,859.2368912999809,859.5630167000054,860.2493480999838,860.5762235999864,right,1,2.3640397999843117,858.2988820000028,None,None,None,qmbami,001,0,fr,2022-04-27_15h18.44.110,3-AFC_adaptive_staircase_mess,2022.1.1,None,
,,,,,5,0,5,0,28,0,28,0,,,,,,,,,,,,,,,,right,6000,-2.5,8.689004143746872e-05,-1,3,-1,-5.0,864.2120307666521,None,862.185296199983,862.5054052999767,863.1700706999982,863.5022891999979,864.1660529999936,None,right,1,2.225247099995613,862.2144877999963,None,None,None,qmbami,001,0,fr,2022-04-27_15h18.44.110,3-AFC_adaptive_staircase_mess,2022.1.1,None,
,,,,,5,0,5,0,29,0,29,0,,,,,,,,,,,,,,,,left,6000,-7.5,4.886186104779051e-05,-1,3,-1,-5.0,865.9931088666528,None,865.9487668999936,866.2751362999843,866.9420346999832,867.2731583999994,867.9622474999924,868.2970510000014,left,1,2.6389535999915097,866.0076287999982,None,868.5010690999916,None,qmbami,001,0,fr,2022-04-27_15h18.44.110,3-AFC_adaptive_staircase_mess,2022.1.1,None,
,,,,,5,0,5,0,30,0,30,0,,,,,,,,,,,,,,,,left,6000,-7.5,4.886186104779051e-05,-1,3,-1,-5.0,870.1940746666553,None,870.1489118000027,870.4805444999947,871.1547066999774,871.4835687000013,872.1445410999877,872.4711317000038,right,0,2.791767799993977,870.2070614999975,None,872.7016816999821,None,qmbami,001,0,fr,2022-04-27_15h18.44.110,3-AFC_adaptive_staircase_mess,2022.1.1,None,
,,,,,5,0,5,0,31,0,31,0,,,,,,,,,,,,,,,,up,6000,-5.0,6.515833892261494e-05,1,4,1,2.5,875.5581319666564,None,874.5149863999977,874.8448295999842,875.5118308999809,875.8529733000032,None,None,up,1,1.6200447999872267,874.5781368000025,None,None,None,qmbami,001,0,fr,2022-04-27_15h18.44.110,3-AFC_adaptive_staircase_mess,2022.1.1,None,
,,,,,5,0,5,0,32,0,32,0,,,,,,,,,,,,,,,,left,6000,-5.0,6.515833892261494e-05,1,4,1,2.5,877.7537679666459,None,877.7083682999946,878.0486168999923,None,None,None,None,left,1,0.7846102000039537,877.7657299999846,None,None,None,qmbami,001,0,fr,2022-04-27_15h18.44.110,3-AFC_adaptive_staircase_mess,2022.1.1,None,
,,,,,5,0,5,0,33,0,33,0,,,,,,,,,,,,,,,,right,6000,-10.0,3.664122665694518e-05,-1,5,-1,-5.0,882.1029981666691,None,880.0676172999956,880.3943578999897,881.088745999994,881.4175079999841,882.0863315000024,882.4224409000017,right,1,2.4912211000046227,880.1242069999862,None,882.6284996999893,None,qmbami,001,0,fr,2022-04-27_15h18.44.110,3-AFC_adaptive_staircase_mess,2022.1.1,None,
,,,,,5,0,5,0,34,0,34,0,,,,,,,,,,,,,,,,right,6000,-10.0,3.664122665694518e-05,-1,5,-1,-5.0,886.1740922666543,None,884.1284943999781,884.4561713000003,885.1255898999807,885.4549367,886.1278865999775,886.4635648999829,right,1,2.4733226999815088,884.1896283999959,None,886.6737365000008,None,qmbami,001,0,fr,2022-04-27_15h18.44.110,3-AFC_adaptive_staircase_mess,2022.1.1,None,
,,,,,5,0,5,0,35,0,35,0,,,,,,,,,,,,,,,,left,6000,-15.0,2.0604875954866497e-05,-1,5,-1,-5.0,888.2272898666599,None,888.1821895999892,888.5056806999783,889.1671525999845,889.4947478999966,890.1987785999954,890.5279108999821,up,0,2.472990599984769,888.2394018999767,None,890.7349885999865,None,qmbami,001,0,fr,2022-04-27_15h18.44.110,3-AFC_adaptive_staircase_mess,2022.1.1,None,
,,,,,5,0,5,0,36,0,36,0,,,,,,,,,,,,,,,,left,6000,-12.5,2.7477043692881217e-05,1,6,1,2.5,892.285560466644,None,892.2382427999983,892.5687670999905,893.2445439999865,893.5733462999924,894.2214194999833,894.5407465999888,left,1,2.4915192000044044,892.3001155999955,None,894.8034214999934,None,qmbami,001,0,fr,2022-04-27_15h18.44.110,3-AFC_adaptive_staircase_mess,2022.1.1,None,
,,,,,6,0,6,0,0,0,0,0,,,,,,,,,,,,,[],[],5,left,8000,50,0.05740768107484415,0,0,-1,5,896.3313970666534,None,896.2855904999888,896.6202792999975,None,None,None,None,left,1,0.5767030999995768,896.3430071999901,None,None,None,qmbami,001,0,fr,2022-04-27_15h18.44.110,3-AFC_adaptive_staircase_mess,2022.1.1,None,
,,,,,6,0,6,0,1,0,1,0,,,,,,,,,,,,,,,,right,8000,50,0.05740768107484415,0,0,-1,5,900.4903607666531,None,898.4436884000024,898.7745601999923,899.4318374999857,899.7511423999968,900.4422632999776,None,right,1,1.9654997999896295,898.5057248999947,None,None,None,qmbami,001,0,fr,2022-04-27_15h18.44.110,3-AFC_adaptive_staircase_mess,2022.1.1,None,
,,,,,6,0,6,0,2,0,2,0,,,,,,,,,,,,,,,,left,8000,40,0.018153902738505076,-1,0,-1,-10,902.013645366653,None,901.965452399978,902.3075830999878,None,None,None,None,left,1,0.4804168999835383,902.0231159999967,None,None,None,qmbami,001,0,fr,2022-04-27_15h18.44.110,3-AFC_adaptive_staircase_mess,2022.1.1,None,
,,,,,6,0,6,0,3,0,3,0,,,,,,,,,,,,,,,,up,8000,40,0.018153902738505076,-1,0,-1,-10,905.0612343666473,None,904.0154921999783,904.3419381999993,905.0127352999989,905.3472331999801,None,None,up,1,1.3857679000066128,904.0774055999937,None,None,None,qmbami,001,0,fr,2022-04-27_15h18.44.110,3-AFC_adaptive_staircase_mess,2022.1.1,None,
,,,,,6,0,6,0,4,0,4,0,,,,,,,,,,,,,,,,right,8000,30,0.005740768107484416,-1,0,-1,-10,None,None,906.9790971000039,907.3067414999823,907.9860157999792,908.3126960999798,None,None,right,1,1.495682000007946,907.0395516999997,None,None,None,qmbami,001,0,fr,2022-04-27_15h18.44.110,3-AFC_adaptive_staircase_mess,2022.1.1,None,
,,,,,6,0,6,0,5,0,5,0,,,,,,,,,,,,,,,,right,8000,30,0.005740768107484416,-1,0,-1,-10,None,None,910.0534011999844,910.3825155999803,911.0256783999794,911.3561396999867,None,None,right,1,1.7808416999760084,910.0823833000031,None,None,None,qmbami,001,0,fr,2022-04-27_15h18.44.110,3-AFC_adaptive_staircase_mess,2022.1.1,None,
,,,,,6,0,6,0,6,0,6,0,,,,,,,,,,,,,,,,right,8000,20,0.0018153902738505074,-1,0,-1,-10,None,None,913.3786652999988,913.7040733000031,914.3850159999856,914.7073645999772,None,None,right,1,1.5790196000016294,913.4363808999769,None,None,None,qmbami,001,0,fr,2022-04-27_15h18.44.110,3-AFC_adaptive_staircase_mess,2022.1.1,None,
,,,,,6,0,6,0,7,0,7,0,,,,,,,,,,,,,,,,up,8000,20,0.0018153902738505074,-1,0,-1,-10,917.5732501666682,None,916.5177820999816,916.8365482999943,917.526103799988,917.8649349999905,None,None,up,1,1.539899499999592,916.5795855000033,None,None,None,qmbami,001,0,fr,2022-04-27_15h18.44.110,3-AFC_adaptive_staircase_mess,2022.1.1,None,
,,,,,6,0,6,0,8,0,8,0,,,,,,,,,,,,,,,,up,8000,10,0.0005740768107484417,-1,0,-1,-10,920.672715466648,None,919.6215386999829,919.9399868999899,920.6267264999915,920.9613719999907,None,None,up,1,1.31692749998183,919.6825084000011,None,None,None,qmbami,001,0,fr,2022-04-27_15h18.44.110,3-AFC_adaptive_staircase_mess,2022.1.1,None,
,,,,,6,0,6,0,9,0,9,0,,,,,,,,,,,,,,,,left,8000,10,0.0005740768107484417,-1,0,-1,-10,922.5641755666622,None,922.5176175999804,922.8465596000024,None,None,None,None,left,1,0.31104540001251735,922.5764723999891,None,None,None,qmbami,001,0,fr,2022-04-27_15h18.44.110,3-AFC_adaptive_staircase_mess,2022.1.1,None,
,,,,,6,0,6,0,10,0,10,0,,,,,,,,,,,,,,,,left,8000,0,0.0001815390273850507,-1,0,-1,-10,924.44795226667,None,924.4012259999872,924.7332541999931,None,None,None,None,left,1,0.31568140001036227,924.4600901999802,None,None,None,qmbami,001,0,fr,2022-04-27_15h18.44.110,3-AFC_adaptive_staircase_mess,2022.1.1,None,
,,,,,6,0,6,0,11,0,11,0,,,,,,,,,,,,,,,,left,8000,0,0.0001815390273850507,-1,0,-1,-10,926.3429851666481,None,926.2946727999952,926.633290400001,None,None,None,None,left,1,0.25703549999161623,926.3583267999929,None,None,None,qmbami,001,0,fr,2022-04-27_15h18.44.110,3-AFC_adaptive_staircase_mess,2022.1.1,None,
,,,,,6,0,6,0,12,0,12,0,,,,,,,,,,,,,,,,up,8000,-10,5.740768107484415e-05,-1,0,-1,-10,929.1604285666583,None,928.1348331999907,928.4529443999927,929.1437618999917,929.4758753999777,None,None,up,1,1.4287286000035238,928.1932393999887,None,None,None,qmbami,001,0,fr,2022-04-27_15h18.44.110,3-AFC_adaptive_staircase_mess,2022.1.1,None,
,,,,,6,0,6,0,13,0,13,0,,,,,,,,,,,,,,,,right,8000,-10,5.740768107484415e-05,-1,0,-1,-10,933.1719879666673,None,931.137948699994,931.4568352999922,932.1345713000046,932.4503689999983,933.1553213000007,933.4821577999974,up,0,2.809624499990605,931.1966194999986,None,933.6880297999887,None,qmbami,001,0,fr,2022-04-27_15h18.44.110,3-AFC_adaptive_staircase_mess,2022.1.1,None,
,,,,,6,0,6,0,14,0,14,0,,,,,,,,,,,,,,,,left,8000,-5,0.00010208689723347648,1,1,1,5,935.5529348666644,935.7782860999869,935.5091786999837,935.8387170999777,None,None,None,None,left,1,0.8261125000135507,935.5649008000037,None,None,None,qmbami,001,0,fr,2022-04-27_15h18.44.110,3-AFC_adaptive_staircase_mess,2022.1.1,None,
,,,,,6,0,6,0,15,0,15,0,,,,,,,,,,,,,,,,up,8000,-5,0.00010208689723347648,1,1,1,5,938.9578392666629,None,937.9058394999884,938.2228309999919,938.9120137999998,939.2468728999957,None,None,up,1,1.4854943999962416,937.9617403000011,None,None,None,qmbami,001,0,fr,2022-04-27_15h18.44.110,3-AFC_adaptive_staircase_mess,2022.1.1,None,
,,,,,6,0,6,0,16,0,16,0,,,,,,,,,,,,,,,,left,8000,-15,3.228271145173278e-05,-1,2,-1,-5.0,940.9803271666499,941.206938999996,940.9636604999832,941.2894304999791,941.9560258999991,942.2612337000028,942.9655305999913,943.283246099978,left,1,3.1279631999786943,940.9915351999807,None,943.4841103999934,None,qmbami,001,0,fr,2022-04-27_15h18.44.110,3-AFC_adaptive_staircase_mess,2022.1.1,None,
,,,,,6,0,6,0,17,0,17,0,,,,,,,,,,,,,,,,right,8000,-15,3.228271145173278e-05,-1,2,-1,-5.0,947.6576918666581,None,945.6272175999766,945.9489517000038,946.6354710999876,946.954288399982,947.6108991999936,947.9472128999769,left,0,2.661034799995832,945.6820900999883,None,948.177451399999,None,qmbami,001,0,fr,2022-04-27_15h18.44.110,3-AFC_adaptive_staircase_mess,2022.1.1,None,
,,,,,6,0,6,0,18,0,18,0,,,,,,,,,,,,,,,,up,8000,-12.5,4.304968760923004e-05,1,3,1,2.5,950.8871205666549,None,949.8589217999834,950.1775157999946,950.8704538999882,951.2005104999989,951.8605087999895,952.2062388999911,right,0,2.4116678000136744,949.9153451999882,None,None,None,qmbami,001,0,fr,2022-04-27_15h18.44.110,3-AFC_adaptive_staircase_mess,2022.1.1,None,
,,,,,6,0,6,0,19,0,19,0,,,,,,,,,,,,,,,,up,8000,-10.0,5.740768107484415e-05,1,3,1,2.5,954.8818454666509,955.1065003999975,953.8300979000051,954.1785431999888,954.8356385999941,955.1646311999939,None,None,up,1,1.7038383999897633,953.8874406999967,None,None,None,qmbami,001,0,fr,2022-04-27_15h18.44.110,3-AFC_adaptive_staircase_mess,2022.1.1,None,
,,,,,6,0,6,0,20,0,20,0,,,,,,,,,,,,,,,,right,8000,-10.0,5.740768107484415e-05,1,3,1,2.5,959.1251337666511,None,957.0778920000012,957.4032508999808,958.0891937999986,958.4062457999971,959.0893569999898,959.4133654999896,right,1,2.4505330999963917,957.1414076999936,None,959.626446866667,None,qmbami,001,0,fr,2022-04-27_15h18.44.110,3-AFC_adaptive_staircase_mess,2022.1.1,None,
,,,,,6,0,6,0,21,0,21,0,,,,,,,,,,,,,,,,up,8000,-15.0,3.228271145173278e-05,-1,4,-1,-5.0,962.1437945666587,None,961.1258861999959,961.4769454000052,962.127127899992,962.4590497000027,963.1215144000016,963.439064199978,up,1,2.941089500003727,961.1453771999804,None,963.6638618999859,None,qmbami,001,0,fr,2022-04-27_15h18.44.110,3-AFC_adaptive_staircase_mess,2022.1.1,None,
,,,,,6,0,6,0,22,0,22,0,,,,,,,,,,,,,,,,up,8000,-15.0,3.228271145173278e-05,-1,4,-1,-5.0,966.6254325666562,None,965.5859881999786,965.8974338999833,966.5802833999915,966.9046775999886,967.5861107999808,967.9030231999932,up,1,2.747624800016638,965.6430246999953,None,968.1330518999894,None,qmbami,001,0,fr,2022-04-27_15h18.44.110,3-AFC_adaptive_staircase_mess,2022.1.1,None,
,,,,,6,0,6,0,23,0,23,0,,,,,,,,,,,,,,,,right,8000,-20.0,1.815390273850507e-05,-1,4,-1,-5.0,971.9370756666506,None,969.8880859999917,970.2120072999969,970.8945816999767,971.2095912999939,971.8914750999829,972.2124230999907,left,0,2.5457961999927647,969.9566854999866,None,972.4384166999953,None,qmbami,001,0,fr,2022-04-27_15h18.44.110,3-AFC_adaptive_staircase_mess,2022.1.1,None,
,,,,,6,0,6,0,24,0,24,0,,,,,,,,,,,,,,,,left,8000,-17.5,2.420861837920497e-05,1,5,1,2.5,974.0750154666641,None,974.0583487999975,974.3811900999863,975.0251725999988,975.3569842999859,976.0296406999987,976.3522940999828,up,0,2.637426499975845,974.0891725999827,None,976.5832242000033,None,qmbami,001,0,fr,2022-04-27_15h18.44.110,3-AFC_adaptive_staircase_mess,2022.1.1,None,
,,,,,6,0,6,0,25,0,25,0,,,,,,,,,,,,,,,,left,8000,-15.0,3.228271145173278e-05,1,5,1,2.5,978.2859609666668,None,978.227157699992,978.5643923000025,979.2516832999827,979.5994757000008,980.2321648999932,980.5573065999779,left,1,2.4137038000044413,978.2971730999998,None,None,None,qmbami,001,0,fr,2022-04-27_15h18.44.110,3-AFC_adaptive_staircase_mess,2022.1.1,None,
,,,,,6,0,6,0,26,0,26,0,,,,,,,,,,,,,,,,left,8000,-15.0,3.228271145173278e-05,1,5,1,2.5,982.2910841666492,982.5127866999828,982.2324801999785,982.567666899995,983.2254988999921,983.5354201000009,984.2349968999915,984.5494963999954,up,0,2.5191176000225823,982.3032259999891,None,984.7708659999771,None,qmbami,001,0,fr,2022-04-27_15h18.44.110,3-AFC_adaptive_staircase_mess,2022.1.1,None,
,,,,,6,0,6,0,27,0,27,0,,,,,,,,,,,,,,,,up,8000,-12.5,4.304968760923004e-05,1,5,1,2.5,987.3907847666453,None,986.3605436999933,986.6778285999899,987.3459817999974,987.6724732999865,988.3585347000044,988.7084086999821,up,1,2.6266658999957144,986.3883687999914,None,988.9099920000008,None,qmbami,001,0,fr,2022-04-27_15h18.44.110,3-AFC_adaptive_staircase_mess,2022.1.1,None,
,,,,,6,0,6,0,28,0,28,0,,,,,,,,,,,,,,,,left,8000,-12.5,4.304968760923004e-05,1,5,1,2.5,990.564414366647,None,990.5477476999804,990.8760342999885,991.5309761999815,991.842670699989,992.5395027999766,992.8473660000018,left,1,2.4392521000117995,990.5763873999822,None,None,None,qmbami,001,0,fr,2022-04-27_15h18.44.110,3-AFC_adaptive_staircase_mess,2022.1.1,None,
,,,,,6,0,6,0,29,0,29,0,,,,,,,,,,,,,,,,up,8000,-17.5,2.420861837920497e-05,-1,6,-1,-5.0,995.5605958666458,None,994.5192546999897,994.8347986000008,995.515456699999,995.838442999986,996.5258536000038,996.8433525,left,0,3.587666800012812,994.5788882999914,None,997.0685292999842,None,qmbami,001,0,fr,2022-04-27_15h18.44.110,3-AFC_adaptive_staircase_mess,2022.1.1,None,
,,,,,7,0,7,0,0,0,0,0,,,,,,,,,,,,,[],[],5,right,750,50,0.012851978913844325,0,0,-1,5,1001.7251416666588,1001.9502153999929,999.7022201999789,1000.0208658000047,1000.6778261,1001.0214116999996,1001.6785431999888,1002.0049771999766,right,1,2.499639700021362,999.7314907999826,None,1002.22280399999,None,qmbami,001,0,fr,2022-04-27_15h18.44.110,3-AFC_adaptive_staircase_mess,2022.1.1,None,
,,,,,7,0,7,0,1,0,1,0,,,,,,,,,,,,,,,,right,750,50,0.012851978913844325,0,0,-1,5,1005.8056044666484,None,1003.755327699997,1004.0680575000006,1004.7476221999968,1005.0555033999844,1005.7593844999792,None,right,1,2.0853855999885127,1003.8095637999941,None,None,None,qmbami,001,0,fr,2022-04-27_15h18.44.110,3-AFC_adaptive_staircase_mess,2022.1.1,None,
,,,,,7,0,7,0,2,0,2,0,,,,,,,,,,,,,,,,left,750,40,0.004064152580820497,-1,0,-1,-10,1007.4478246666588,None,1007.4311579999921,1007.7596637999814,None,None,None,None,left,1,0.5151730000216048,1007.459838299983,None,None,None,qmbami,001,0,fr,2022-04-27_15h18.44.110,3-AFC_adaptive_staircase_mess,2022.1.1,None,
,,,,,7,0,7,0,3,0,3,0,,,,,,,,,,,,,,,,left,750,40,0.004064152580820497,-1,0,-1,-10,1009.517873066656,1009.7410912999767,1009.5012063999893,1009.8247337999928,None,None,None,None,left,1,0.33345900001586415,1009.5296321999922,None,None,None,qmbami,001,0,fr,2022-04-27_15h18.44.110,3-AFC_adaptive_staircase_mess,2022.1.1,None,
,,,,,7,0,7,0,4,0,4,0,,,,,,,,,,,,,,,,left,750,30,0.0012851978913844323,-1,0,-1,-10,1011.413871766654,None,1011.3686355999962,1011.6880455999926,None,None,None,None,left,1,0.2611925999808591,1011.4259649000014,None,None,None,qmbami,001,0,fr,2022-04-27_15h18.44.110,3-AFC_adaptive_staircase_mess,2022.1.1,None,
,,,,,7,0,7,0,5,0,5,0,,,,,,,,,,,,,,,,right,750,30,0.0012851978913844323,-1,0,-1,-10,None,None,1013.1780811999924,1013.4912433999998,1014.1812229999923,1014.502327299997,None,None,right,1,1.6203975999960676,1013.2338769999915,None,None,None,qmbami,001,0,fr,2022-04-27_15h18.44.110,3-AFC_adaptive_staircase_mess,2022.1.1,None,
,,,,,7,0,7,0,6,0,6,0,,,,,,,,,,,,,,,,left,750,20,0.00040641525808204974,-1,0,-1,-10,1016.4199128666698,None,1016.4032462000032,1016.7211659000022,None,None,None,None,left,1,0.3410575000161771,1016.434351599979,None,None,None,qmbami,001,0,fr,2022-04-27_15h18.44.110,3-AFC_adaptive_staircase_mess,2022.1.1,None,
,,,,,7,0,7,0,7,0,7,0,,,,,,,,,,,,,,,,right,750,20,0.00040641525808204974,-1,0,-1,-10,None,None,1018.305512699997,1018.6217790999799,1019.3072364999971,1019.6257195999788,1020.3044373666673,None,right,1,1.899928800005,1018.3623478999943,None,None,None,qmbami,001,0,fr,2022-04-27_15h18.44.110,3-AFC_adaptive_staircase_mess,2022.1.1,None,
,,,,,7,0,7,0,8,0,8,0,,,,,,,,,,,,,,,,left,750,10,0.00012851978913844324,-1,0,-1,-10,1021.813425466655,1022.0424448999984,1021.7697459000046,1022.0976185000036,None,None,None,None,left,1,0.5167538000096101,1021.8254160999786,None,None,None,qmbami,001,0,fr,2022-04-27_15h18.44.110,3-AFC_adaptive_staircase_mess,2022.1.1,None,
,,,,,7,0,7,0,9,0,9,0,,,,,,,,,,,,,,,,left,750,10,0.00012851978913844324,-1,0,-1,-10,1023.9023075666667,None,1023.8856409,1024.2097290999955,None,None,None,None,left,1,0.3506622000131756,1023.9133237999922,None,None,None,qmbami,001,0,fr,2022-04-27_15h18.44.110,3-AFC_adaptive_staircase_mess,2022.1.1,None,
,,,,,7,0,7,0,10,0,10,0,,,,,,,,,,,,,,,,left,750,0,4.064152580820497e-05,-1,0,-1,-10,1025.8143026666696,1026.041763199988,1025.7702456999978,1026.0971597000025,None,None,None,None,left,1,0.4840362999821082,1025.826389599999,None,None,None,qmbami,001,0,fr,2022-04-27_15h18.44.110,3-AFC_adaptive_staircase_mess,2022.1.1,None,
,,,,,7,0,7,0,11,0,11,0,,,,,,,,,,,,,,,,right,750,0,4.064152580820497e-05,-1,0,-1,-10,None,None,1027.8156666999857,None,None,None,None,None,left,0,-1.4660722999833524,1027.8731469999766,None,None,None,qmbami,001,0,fr,2022-04-27_15h18.44.110,3-AFC_adaptive_staircase_mess,2022.1.1,None,
,,,,,7,0,7,0,12,0,12,0,,,,,,,,,,,,,,,,up,750,5,7.22719885372964e-05,1,1,1,5,1030.4149092666669,None,1029.3665499000053,1029.7176819999877,1030.3696315999841,1030.7018484,None,None,up,1,1.456035300012445,1029.4148443999875,None,None,None,qmbami,001,0,fr,2022-04-27_15h18.44.110,3-AFC_adaptive_staircase_mess,2022.1.1,None,
,,,,,7,0,7,0,13,0,13,0,,,,,,,,,,,,,,,,left,750,5,7.22719885372964e-05,1,1,1,5,1032.4349165666538,None,1032.3992180999776,1032.7229125000013,None,None,None,None,left,1,0.5701775000197813,1032.4604307999834,None,None,None,qmbami,001,0,fr,2022-04-27_15h18.44.110,3-AFC_adaptive_staircase_mess,2022.1.1,None,
,,,,,7,0,7,0,14,0,14,0,,,,,,,,,,,,,,,,up,750,-5,2.285440948074376e-05,-1,2,-1,-5.0,1035.5646417666615,1035.7873090999783,1034.5503106999968,1034.8677050999831,1035.5479750999948,1035.8700400999805,1036.5584313999861,1036.8831217999978,up,1,2.467081299982965,1034.5795051000023,None,1037.0689626666465,None,qmbami,001,0,fr,2022-04-27_15h18.44.110,3-AFC_adaptive_staircase_mess,2022.1.1,None,
,,,,,7,0,7,0,15,0,15,0,,,,,,,,,,,,,,,,right,750,-5,2.285440948074376e-05,-1,2,-1,-5.0,1040.5928327666518,1040.819354199979,1038.5581873999909,1038.8844801999803,1039.5724264000019,1039.8935295999981,1040.5479386999796,1040.8789490000054,right,1,2.6114821000082884,1038.6273904999834,None,1041.1085098999902,None,qmbami,001,0,fr,2022-04-27_15h18.44.110,3-AFC_adaptive_staircase_mess,2022.1.1,None,
,,,,,7,0,7,0,16,0,16,0,,,,,,,,,,,,,,,,left,750,-10.0,1.2851978913844322e-05,-1,2,-1,-5.0,1042.786577166644,1043.0093989000015,1042.7699104999774,1043.0956083000056,1043.751821999991,1044.0990713999781,1044.7574925999797,1045.0761786999938,left,1,2.4411642999912146,1042.7979659999837,None,None,None,qmbami,001,0,fr,2022-04-27_15h18.44.110,3-AFC_adaptive_staircase_mess,2022.1.1,None,
,,,,,7,0,7,0,17,0,17,0,,,,,,,,,,,,,,,,up,750,-10.0,1.2851978913844322e-05,-1,2,-1,-5.0,1047.7977452666712,None,1046.7479052999988,1047.0698815999785,1047.7501392999839,1048.0877032999997,1048.7708420999988,1049.0872667999938,up,1,2.895262799982447,1046.808425299998,None,1049.3175332999963,None,qmbami,001,0,fr,2022-04-27_15h18.44.110,3-AFC_adaptive_staircase_mess,2022.1.1,None,
,,,,,7,0,7,0,18,0,18,0,,,,,,,,,,,,,,,,left,750,-15.0,7.22719885372964e-06,-1,2,-1,-5.0,1051.2405635666548,1051.469672599982,1051.1959012000007,1051.5243967999995,1052.2128025999991,1052.5286171000043,1053.2084900999907,1053.5265507999866,left,1,2.546770299988566,1051.2529635999817,None,1053.7572121999983,None,qmbami,001,0,fr,2022-04-27_15h18.44.110,3-AFC_adaptive_staircase_mess,2022.1.1,None,
,,,,,7,0,7,0,19,0,19,0,,,,,,,,,,,,,,,,up,750,-15.0,7.22719885372964e-06,-1,2,-1,-5.0,1056.3593588666447,None,1055.3113205999834,1055.6271538999863,1056.313056599989,1056.6345969999966,1057.3109774999903,1057.6383051000012,right,0,2.2868199000076856,1055.3681174999801,None,None,None,qmbami,001,0,fr,2022-04-27_15h18.44.110,3-AFC_adaptive_staircase_mess,2022.1.1,None,
,,,,,7,0,7,0,20,0,20,0,,,,,,,,,,,,,,,,right,750,-12.5,9.637624565954684e-06,1,3,1,2.5,1061.1954758666436,None,1059.1430976999982,1059.4602811999794,1060.1482241000049,1060.467257399985,1061.1501163999783,1061.4701145,up,0,2.248236099985661,1059.1997136999853,None,None,None,qmbami,001,0,fr,2022-04-27_15h18.44.110,3-AFC_adaptive_staircase_mess,2022.1.1,None,
,,,,,7,0,7,0,21,0,21,0,,,,,,,,,,,,,,,,right,750,-10.0,1.2851978913844322e-05,1,3,1,2.5,1065.0178098666695,None,1062.9693880999985,1063.2874155000027,1063.9727060000005,1064.287028199993,1064.972538300004,1065.3067793999799,right,1,2.605575099994894,1063.016868799983,None,1065.5356680999976,None,qmbami,001,0,fr,2022-04-27_15h18.44.110,3-AFC_adaptive_staircase_mess,2022.1.1,None,
,,,,,7,0,7,0,22,0,22,0,,,,,,,,,,,,,,,,up,750,-10.0,1.2851978913844322e-05,1,3,1,2.5,1068.1870631666718,None,1067.144231399987,1067.4639420000021,1068.1417823999946,1068.4770869999775,1069.1347535999957,1069.4604854999925,up,1,2.564925500017125,1067.2016128999821,None,1069.6930351000046,None,qmbami,001,0,fr,2022-04-27_15h18.44.110,3-AFC_adaptive_staircase_mess,2022.1.1,None,
,,,,,7,0,7,0,23,0,23,0,,,,,,,,,,,,,,,,up,750,-15.0,7.22719885372964e-06,-1,4,-1,-5.0,1072.3029941666503,1072.5290576999832,1071.2522788999777,1071.5714159999916,1072.2568538999767,1072.5834279999835,1073.267837499996,1073.5859879000054,up,1,5.194248600018909,1071.3079922999896,None,1073.8156574000022,None,qmbami,001,0,fr,2022-04-27_15h18.44.110,3-AFC_adaptive_staircase_mess,2022.1.1,None,
,,,,,7,0,7,0,24,0,24,0,,,,,,,,,,,,,,,,right,750,-15.0,7.22719885372964e-06,-1,4,-1,-5.0,1080.0866315666683,None,1078.0286276999977,1078.346998299996,1079.0346542999905,1079.3533252999769,1080.041262099985,1080.3631687999878,left,0,2.5610018000006676,1078.0854003999848,None,1080.5966825999785,None,qmbami,001,0,fr,2022-04-27_15h18.44.110,3-AFC_adaptive_staircase_mess,2022.1.1,None,
,,,,,7,0,7,0,25,0,25,0,,,,,,,,,,,,,,,,up,750,-12.5,9.637624565954684e-06,1,5,1,2.5,1083.1873499666438,None,1082.1331798000028,1082.4512114999816,1083.1418257000041,1083.4636778999993,1084.1457744999789,1084.462223999988,left,0,2.3606522000045516,1082.1900268000027,None,None,None,qmbami,001,0,fr,2022-04-27_15h18.44.110,3-AFC_adaptive_staircase_mess,2022.1.1,None,
,,,,,7,0,7,0,26,0,26,0,,,,,,,,,,,,,,,,right,750,-10.0,1.2851978913844322e-05,1,5,1,2.5,1088.1375995666642,None,1086.0842236999888,1086.4011378999858,1087.08229749999,1087.3996846999798,1088.0908485999971,1088.413380199985,right,1,2.4747401000058744,1086.1406658999913,None,1088.6457062999834,None,qmbami,001,0,fr,2022-04-27_15h18.44.110,3-AFC_adaptive_staircase_mess,2022.1.1,None,
,,,,,7,0,7,0,27,0,27,0,,,,,,,,,,,,,,,,up,750,-10.0,1.2851978913844322e-05,1,5,1,2.5,1091.1907516666436,None,1090.141165499983,1090.458302599989,1091.1474224999838,1091.4661311999953,1092.15449299998,1092.4705932999786,up,1,2.642279099993175,1090.1971595999785,None,1092.6976962999906,None,qmbami,001,0,fr,2022-04-27_15h18.44.110,3-AFC_adaptive_staircase_mess,2022.1.1,None,
,,,,,7,0,7,0,28,0,28,0,,,,,,,,,,,,,,,,right,750,-15.0,7.22719885372964e-06,-1,6,-1,-5.0,1096.4029607666637,None,1094.345019899978,1094.6637341000023,1095.3457459000056,1095.6670227999857,1096.3547645999934,1096.6763236999977,up,0,2.692355300008785,1094.4023516000016,None,1096.9062999000016,None,qmbami,001,0,fr,2022-04-27_15h18.44.110,3-AFC_adaptive_staircase_mess,2022.1.1,None,
,,,,,8,0,8,0,0,0,0,0,,,,,,,,,,,,,[],[],5,up,500,50,0.02259279721874612,0,0,-1,5,1099.6519726666486,1099.8771942000021,1098.602868499991,1098.9222606999974,1099.6039082999923,1099.9397548999987,None,None,up,1,1.5682342000072822,1098.662013299996,None,None,None,qmbami,001,0,fr,2022-04-27_15h18.44.110,3-AFC_adaptive_staircase_mess,2022.1.1,None,
,,,,,8,0,8,0,1,0,1,0,,,,,,,,,,,,,,,,left,500,50,0.02259279721874612,0,0,-1,5,1101.7889727666663,1102.0130396999884,1101.741120599996,1102.0763093999994,None,None,None,None,left,1,0.3304915000044275,1101.8040733999806,None,None,None,qmbami,001,0,fr,2022-04-27_15h18.44.110,3-AFC_adaptive_staircase_mess,2022.1.1,None,
,,,,,8,0,8,0,2,0,2,0,,,,,,,,,,,,,,,,right,500,40,0.007144469792555516,-1,0,-1,-10,1105.6794552666581,None,1103.648550599988,1103.9694300999981,1104.6524117999943,1104.9738358999894,1105.6312911999994,1105.9536009999865,right,1,2.234889400016982,1103.707116000005,None,None,None,qmbami,001,0,fr,2022-04-27_15h18.44.110,3-AFC_adaptive_staircase_mess,2022.1.1,None,
,,,,,8,0,8,0,3,0,3,0,,,,,,,,,,,,,,,,left,500,40,0.007144469792555516,-1,0,-1,-10,1107.4892289666498,1107.7064976999827,1107.443165899982,1107.7649280999904,None,None,None,None,left,1,0.3948528999753762,1107.5002381999802,None,None,None,qmbami,001,0,fr,2022-04-27_15h18.44.110,3-AFC_adaptive_staircase_mess,2022.1.1,None,
,,,,,8,0,8,0,4,0,4,0,,,,,,,,,,,,,,,,left,500,30,0.002259279721874612,-1,0,-1,-10,1109.4589866666686,1109.6781694999954,1109.4124585999816,1109.7335717999958,None,None,None,None,left,1,0.3590044000011403,1109.471510000003,None,None,None,qmbami,001,0,fr,2022-04-27_15h18.44.110,3-AFC_adaptive_staircase_mess,2022.1.1,None,
,,,,,8,0,8,0,5,0,5,0,,,,,,,,,,,,,,,,up,500,30,0.002259279721874612,-1,0,-1,-10,1112.399490666667,None,1111.336897400004,1111.670887299988,1112.3524794999976,1112.6877880999818,None,None,up,1,1.2697769999795128,1111.3942799999786,None,None,None,qmbami,001,0,fr,2022-04-27_15h18.44.110,3-AFC_adaptive_staircase_mess,2022.1.1,None,
,,,,,8,0,8,0,6,0,6,0,,,,,,,,,,,,,,,,up,500,20,0.0007144469792555515,-1,0,-1,-10,1115.2343933666455,None,1114.1807358999795,1114.4990007999877,1115.1870938999928,1115.5261656999937,None,None,up,1,1.3031990999879781,1114.2391033000022,None,None,None,qmbami,001,0,fr,2022-04-27_15h18.44.110,3-AFC_adaptive_staircase_mess,2022.1.1,None,
,,,,,8,0,8,0,7,0,7,0,,,,,,,,,,,,,,,,up,500,20,0.0007144469792555515,-1,0,-1,-10,1118.077181566656,1118.3051366999862,1117.0478798999975,1117.3730471000017,1118.0605148999894,1118.3896292999852,None,None,up,1,1.2981311999901664,1117.1084005000012,None,None,None,qmbami,001,0,fr,2022-04-27_15h18.44.110,3-AFC_adaptive_staircase_mess,2022.1.1,None,
,,,,,8,0,8,0,8,0,8,0,,,,,,,,,,,,,,,,left,500,10,0.0002259279721874612,-1,0,-1,-10,1119.9710993666706,None,1119.9244474000006,1120.2618891999882,1120.9318223999871,1121.2504540999944,1121.925817066662,None,right,0,1.9106936000171117,1119.9840144999907,None,None,None,qmbami,001,0,fr,2022-04-27_15h18.44.110,3-AFC_adaptive_staircase_mess,2022.1.1,None,
,,,,,8,0,8,0,9,0,9,0,,,,,,,,,,,,,,,,left,500,15,0.0004017630610928086,1,1,1,5,1123.4427548666465,None,1123.3937213000027,1123.7331489999779,None,None,None,None,left,1,0.48754319999716245,1123.4553851999808,None,None,None,qmbami,001,0,fr,2022-04-27_15h18.44.110,3-AFC_adaptive_staircase_mess,2022.1.1,None,
,,,,,8,0,8,0,10,0,10,0,,,,,,,,,,,,,,,,up,500,15,0.0004017630610928086,1,1,1,5,1126.496455766672,1126.7155363000056,1125.4525002999872,1125.7675430999952,1126.4523340000014,1126.770763299981,None,None,up,1,1.3157278000144288,1125.5076537999848,None,None,None,qmbami,001,0,fr,2022-04-27_15h18.44.110,3-AFC_adaptive_staircase_mess,2022.1.1,None,
,,,,,8,0,8,0,11,0,11,0,,,,,,,,,,,,,,,,up,500,5,0.00012704863527746526,-1,2,-1,-5.0,1129.348011966653,None,1128.3135955999896,1128.6449991999834,1129.3313452999864,1129.6684568999917,None,None,up,1,1.348991200007731,1128.3696720000007,None,None,None,qmbami,001,0,fr,2022-04-27_15h18.44.110,3-AFC_adaptive_staircase_mess,2022.1.1,None,
,,,,,8,0,8,0,12,0,12,0,,,,,,,,,,,,,,,,left,500,5,0.00012704863527746526,-1,2,-1,-5.0,1131.2518324666637,None,1131.2048895999906,1131.5406935999927,None,None,None,None,left,1,0.37106170001788996,1131.2669652999903,None,None,None,qmbami,001,0,fr,2022-04-27_15h18.44.110,3-AFC_adaptive_staircase_mess,2022.1.1,None,
,,,,,8,0,8,0,13,0,13,0,,,,,,,,,,,,,,,,left,500,0.0,7.144469792555515e-05,-1,2,-1,-5.0,1133.2037887666704,None,1133.159606000001,1133.4819546999934,None,None,None,None,left,1,0.3607093000027817,1133.2141906000033,None,None,None,qmbami,001,0,fr,2022-04-27_15h18.44.110,3-AFC_adaptive_staircase_mess,2022.1.1,None,
,,,,,8,0,8,0,14,0,14,0,,,,,,,,,,,,,,,,left,500,0.0,7.144469792555515e-05,-1,2,-1,-5.0,1135.134791166671,None,1135.0889712999924,1135.4172712999862,None,None,None,None,left,1,0.36462299997219816,1135.146608799987,None,None,None,qmbami,001,0,fr,2022-04-27_15h18.44.110,3-AFC_adaptive_staircase_mess,2022.1.1,None,
,,,,,8,0,8,0,15,0,15,0,,,,,,,,,,,,,,,,left,500,-5.0,4.017630610928089e-05,-1,2,-1,-5.0,1137.0593891666542,1137.285200399987,1137.0142915000033,1137.3451685000036,None,None,None,None,left,1,0.4219922000193037,1137.072944399988,None,None,None,qmbami,001,0,fr,2022-04-27_15h18.44.110,3-AFC_adaptive_staircase_mess,2022.1.1,None,
,,,,,8,0,8,0,16,0,16,0,,,,,,,,,,,,,,,,left,500,-5.0,4.017630610928089e-05,-1,2,-1,-5.0,1139.0589990666524,1139.285522399994,1139.0091861999827,1139.3487460000033,1140.0129787999904,1140.3413912999968,1141.0030851000047,1141.3210584000044,left,1,2.326580399996601,1139.0722406999848,None,None,None,qmbami,001,0,fr,2022-04-27_15h18.44.110,3-AFC_adaptive_staircase_mess,2022.1.1,None,
,,,,,8,0,8,0,17,0,17,0,,,,,,,,,,,,,,,,right,500,-10.0,2.259279721874613e-05,-1,2,-1,-5.0,1144.940216766645,None,1142.894925200002,1143.2170855999866,1143.9138696999871,1144.2375355999975,1144.896188899991,1145.2263652999827,up,0,2.9765457000175957,1142.950397699984,None,1145.4631719999888,None,qmbami,001,0,fr,2022-04-27_15h18.44.110,3-AFC_adaptive_staircase_mess,2022.1.1,None,
,,,,,8,0,8,0,18,0,18,0,,,,,,,,,,,,,,,,up,500,-7.5,3.0127979303717903e-05,1,3,1,2.5,1148.4769075666593,None,1147.4582663000037,1147.7919627999945,1148.4602408999926,1148.7880829999922,None,None,up,1,1.75018820000696,1147.5204571999784,None,None,None,qmbami,001,0,fr,2022-04-27_15h18.44.110,3-AFC_adaptive_staircase_mess,2022.1.1,None,
,,,,,8,0,8,0,19,0,19,0,,,,,,,,,,,,,,,,up,500,-7.5,3.0127979303717903e-05,1,3,1,2.5,1151.8010579666627,None,1150.766993199999,1151.0873359999969,1151.784391299996,1152.128877399984,1152.768080799986,1153.1044841999828,up,1,2.6557429000095,1150.8233843999915,None,1153.3140559000021,None,qmbami,001,0,fr,2022-04-27_15h18.44.110,3-AFC_adaptive_staircase_mess,2022.1.1,None,
,,,,,8,0,8,0,20,0,20,0,,,,,,,,,,,,,,,,right,500,-12.5,1.6942207806960138e-05,-1,4,-1,-5.0,None,None,1154.9933700999827,1155.323892299988,1155.982972800004,1156.308692199993,None,None,left,0,1.5608971000183374,1155.0540140999947,None,None,None,qmbami,001,0,fr,2022-04-27_15h18.44.110,3-AFC_adaptive_staircase_mess,2022.1.1,None,
,,,,,8,0,8,0,21,0,21,0,,,,,,,,,,,,,,,,left,500,-10.0,2.259279721874613e-05,1,5,1,2.5,1158.1790933666673,None,1158.1306371999963,1158.468603299989,1159.138219799992,1159.4638339999947,1160.134321199992,1160.464110699977,left,1,2.9970965000102296,1158.1940655999933,None,1160.6927925999917,None,qmbami,001,0,fr,2022-04-27_15h18.44.110,3-AFC_adaptive_staircase_mess,2022.1.1,None,
,,,,,8,0,8,0,22,0,22,0,,,,,,,,,,,,,,,,left,500,-10.0,2.259279721874613e-05,1,5,1,2.5,1162.7620622666475,None,1162.716556600004,1163.0417596999905,1163.7272151999932,1164.0540936999896,1164.721485499991,1165.0405188000004,right,0,3.233401999983471,1162.7738702999777,None,1165.2785348999896,None,qmbami,001,0,fr,2022-04-27_15h18.44.110,3-AFC_adaptive_staircase_mess,2022.1.1,None,
,,,,,8,0,8,0,23,0,23,0,,,,,,,,,,,,,,,,right,500,-7.5,3.0127979303717903e-05,1,5,1,2.5,1169.5478699666603,None,1167.5070089999936,1167.8352998000046,1168.5050067999982,1168.8333064999897,1169.5003393999941,1169.8220748000022,right,1,2.53626809999696,1167.5670378999785,None,1170.055390900001,None,qmbami,001,0,fr,2022-04-27_15h18.44.110,3-AFC_adaptive_staircase_mess,2022.1.1,None,
