practice.thisRepN,practice.thisTrialN,practice.thisN,practice.thisIndex,trials.thisRepN,trials.thisTrialN,trials.thisN,trials.thisIndex,blank_txt.started,blank_txt.stopped,practice_frequency,practice_level,psychopy_volume,tProbe.started,tProbe.stopped,tFeedback.keys,tFeedback.corr,tFeedback.rt,tFeedback.started,tFeedback.stopped,tToo_early.keys,tToo_early.corr,tToo_early.started,tToo_early.stopped,tToo_late.keys,tToo_late.corr,tToo_late.started,tToo_late.stopped,you_done_goofed.started,you_done_goofed.stopped,Init_phase,Frequency,Level,Psychopy_Volume,Catch trial,probe.started,probe.stopped,feedback.keys,feedback.corr,feedback.rt,feedback.started,feedback.stopped,too_late.keys,too_late.corr,too_late.started,too_late.stopped,too_late.rt,Audiogram,participant,session,Language (english or french),Tone duration (ms),date,expName,psychopyVersion,frameRate,
0,0,0,0,,,,,90.17955210013315,None,567,40,0.006099267302654233,1.0121431667357683,None,['space'],1,[0.4259104998782277],92.18355740001425,93.19185460009612,None,1,91.19057330000214,92.20249020005576,None,1,93.19185460009612,None,94.23694220022298,None,,,,,,,,,,,,,,,,,,,luctew,001,fr,200,2022-05-12_14h18.55.564,Bayesian,2022.1.1,None,
1,0,1,0,,,,,,,234,40,0.019882976039061955,1.0124816668685526,None,['space'],1,[0.414125399896875],96.70735590020195,97.72987620020285,None,1,95.71129570016637,96.70735590020195,None,1,97.72987620020285,None,98.76901480020024,None,,,,,,,,,,,,,,,,,,,luctew,001,fr,200,2022-05-12_14h18.55.564,Bayesian,2022.1.1,None,
2,0,2,0,,,,,,,2345,40,0.008245949202640053,1.00928786653094,None,['space'],1,[0.3846834998112172],100.91913010017015,101.9350450001657,None,1,99.91341380006634,100.91913010017015,None,1,101.9350450001657,None,102.97082520020194,None,,,,,,,,,,,,,,,,,,,luctew,001,fr,200,2022-05-12_14h18.55.564,Bayesian,2022.1.1,None,
,,,,0,0,0,0,108.06146740005352,None,,,,,,,,,,,,,,,,,,,,,"{'x': [], 'y': [], 'is_init_phase': True, 'is_exam_finished': False, 'threshold_uncertainty_db': 6}",1000,60,0.0440524436504007,False,0.01062020007520914,None,['space'],1,[0.4335034997202456],109.15139600005932,110.17579740006477,None,1,110.17579740006477,None,,,luctew,001,fr,200,2022-05-12_14h18.55.564,Bayesian,2022.1.1,None,
,,,,1,0,1,0,,,,,,,,,,,,,,,,,,,,,,,"{'x': [[1000, 60]], 'y': [[1]], 'audiogram': {}, 'is_init_phase': True, 'is_exam_finished': False, 'threshold_uncertainty_db': 6}",1000,40,0.004405244365040069,False,0.015090133296325803,None,['space'],1,[0.403008199762553],113.38900540000759,114.39724990003742,None,1,114.39724990003742,113.38900540000759,,,luctew,001,fr,200,2022-05-12_14h18.55.564,Bayesian,2022.1.1,None,
,,,,2,0,2,0,,,,,,,,,,,,,,,,,,,,,,,"{'x': [[1000, 60], [1000, 40]], 'y': [[1], [1]], 'audiogram': {}, 'is_init_phase': True, 'is_exam_finished': False, 'threshold_uncertainty_db': 6}",1000,20,0.0004405244365040069,False,0.014064599992707372,None,['space'],1,[0.31480890000239015],117.35827150009573,118.36354940012097,None,1,118.36354940012097,117.35827150009573,,,luctew,001,fr,200,2022-05-12_14h18.55.564,Bayesian,2022.1.1,None,
,,,,3,0,3,0,,,,,,,,,,,,,,,,,,,,,,,"{'x': [[1000, 60], [1000, 40], [1000, 20]], 'y': [[1], [1], [1]], 'audiogram': {}, 'is_init_phase': True, 'is_exam_finished': False, 'threshold_uncertainty_db': 6}",1000,0,4.405244365040069e-05,False,0.004896400263532996,None,None,0,,121.05816450016573,122.0872457001824,None,1,122.0872457001824,121.05816450016573,,,luctew,001,fr,200,2022-05-12_14h18.55.564,Bayesian,2022.1.1,None,
,,,,4,0,4,0,,,,,,,,,,,,,,,,,,,,,,,"{'x': [[1000, 60], [1000, 40], [1000, 20], [1000, 0]], 'y': [[1], [1], [1], [-1]], 'audiogram': {}, 'is_init_phase': True, 'is_exam_finished': False, 'threshold_uncertainty_db': 6}",,,,True,0.012684433721005917,None,None,0,,124.52898600022309,125.55667990003712,None,1,125.55667990003712,124.52898600022309,,,luctew,001,fr,200,2022-05-12_14h18.55.564,Bayesian,2022.1.1,None,
,,,,5,0,5,0,,,,,,,,,,,,,,,,,,,,,,,"{'x': [[1000, 60], [1000, 40], [1000, 20], [1000, 0]], 'y': [[1], [1], [1], [-1]], 'audiogram': {}, 'is_init_phase': True, 'is_exam_finished': False, 'threshold_uncertainty_db': 6}",1500,10,0.0001527460556607757,False,0.007032199762761593,None,None,0,,127.23373500001617,128.26572530018166,None,1,128.26572530018166,127.23373500001617,,,luctew,001,fr,200,2022-05-12_14h18.55.564,Bayesian,2022.1.1,None,
,,,,6,0,6,0,,,,,,,,,,,,,,,,,,,,,,,"{'x': [[1000, 60], [1000, 40], [1000, 20], [1000, 0], [1500, 10]], 'y': [[1], [1], [1], [-1], [-1]], 'audiogram': {}, 'is_init_phase': True, 'is_exam_finished': False, 'threshold_uncertainty_db': 6}",1500,30,0.001527460556607757,False,0.003915300127118826,None,['space'],1,[0.42654510005377233],130.77420460013673,131.7810224001296,None,1,131.7810224001296,130.77420460013673,,,luctew,001,fr,200,2022-05-12_14h18.55.564,Bayesian,2022.1.1,None,
,,,,7,0,7,0,,,,,,,,,,,,,,,,,,,,,,,"{'x': [[1000, 60], [1000, 40], [1000, 20], [1000, 0], [1500, 10], [1500, 30]], 'y': [[1], [1], [1], [-1], [-1], [1]], 'audiogram': {}, 'is_init_phase': True, 'is_exam_finished': False, 'threshold_uncertainty_db': 6}",2000,10,0.00023657562948074026,False,0.0075022997334599495,None,None,0,,133.87321010022424,134.90630560019054,None,1,134.90630560019054,133.87321010022424,,,luctew,001,fr,200,2022-05-12_14h18.55.564,Bayesian,2022.1.1,None,
,,,,8,0,8,0,,,,,,,,,,,,,,,,,,,,,,,"{'x': [[1000, 60], [1000, 40], [1000, 20], [1000, 0], [1500, 10], [1500, 30], [2000, 10]], 'y': [[1], [1], [1], [-1], [-1], [1], [-1]], 'audiogram': {}, 'is_init_phase': True, 'is_exam_finished': False, 'threshold_uncertainty_db': 6}",,,,True,0.01156343356706202,None,None,0,,137.2756670000963,138.3139479001984,None,1,138.3139479001984,137.2756670000963,,,luctew,001,fr,200,2022-05-12_14h18.55.564,Bayesian,2022.1.1,None,
,,,,9,0,9,0,,,,,,,,,,,,,,,,,,,,,,,"{'x': [[1000, 60], [1000, 40], [1000, 20], [1000, 0], [1500, 10], [1500, 30], [2000, 10]], 'y': [[1], [1], [1], [-1], [-1], [1], [-1]], 'audiogram': {}, 'is_init_phase': True, 'is_exam_finished': False, 'threshold_uncertainty_db': 6}",2000,30,0.0023657562948074026,False,0.010866600088775158,None,['space'],1,[0.40559639991261065],139.8432406000793,140.85672030015849,None,1,140.85672030015849,139.8432406000793,,,luctew,001,fr,200,2022-05-12_14h18.55.564,Bayesian,2022.1.1,None,
,,,,10,0,10,0,,,,,,,,,,,,,,,,,,,,,,,"{'x': [[1000, 60], [1000, 40], [1000, 20], [1000, 0], [1500, 10], [1500, 30], [2000, 10], [2000, 30]], 'y': [[1], [1], [1], [-1], [-1], [1], [-1], [1]], 'audiogram': {}, 'is_init_phase': True, 'is_exam_finished': False, 'threshold_uncertainty_db': 6}",3000,10,0.00017336842522626576,False,0.010323999915271997,None,['space'],1,[0.4279033998027444],143.5800471000839,144.61635930021293,None,1,144.61635930021293,143.5800471000839,,,luctew,001,fr,200,2022-05-12_14h18.55.564,Bayesian,2022.1.1,None,
,,,,11,0,11,0,,,,,,,,,,,,,,,,,,,,,,,"{'x': [[1000, 60], [1000, 40], [1000, 20], [1000, 0], [1500, 10], [1500, 30], [2000, 10], [2000, 30], [3000, 10]], 'y': [[1], [1], [1], [-1], [-1], [1], [-1], [1], [1]], 'audiogram': {}, 'is_init_phase': True, 'is_exam_finished': False, 'threshold_uncertainty_db': 6}",3000,-10,1.7336842522626584e-05,False,0.01063510007224977,None,None,0,,147.57764100003988,148.58800099999644,None,1,148.58800099999644,147.57764100003988,,,luctew,001,fr,200,2022-05-12_14h18.55.564,Bayesian,2022.1.1,None,
,,,,12,0,12,0,,,,,,,,,,,,,,,,,,,,,,,"{'x': [[1000, 60], [1000, 40], [1000, 20], [1000, 0], [1500, 10], [1500, 30], [2000, 10], [2000, 30], [3000, 10], [3000, -10]], 'y': [[1], [1], [1], [-1], [-1], [1], [-1], [1], [1], [-1]], 'audiogram': {}, 'is_init_phase': True, 'is_exam_finished': False, 'threshold_uncertainty_db': 6}",,,,True,0.01335603347979486,None,None,0,,151.38956670020707,152.393670800142,None,1,152.393670800142,151.38956670020707,,,luctew,001,fr,200,2022-05-12_14h18.55.564,Bayesian,2022.1.1,None,
,,,,13,0,13,0,,,,,,,,,,,,,,,,,,,,,,,"{'x': [[1000, 60], [1000, 40], [1000, 20], [1000, 0], [1500, 10], [1500, 30], [2000, 10], [2000, 30], [3000, 10], [3000, -10]], 'y': [[1], [1], [1], [-1], [-1], [1], [-1], [1], [1], [-1]], 'audiogram': {}, 'is_init_phase': True, 'is_exam_finished': False, 'threshold_uncertainty_db': 6}",4000,10,0.00026544222211549425,False,0.010574000189080834,None,['space'],1,[0.41502089984714985],153.89100210019387,154.90443910006434,None,1,154.90443910006434,153.89100210019387,,,luctew,001,fr,200,2022-05-12_14h18.55.564,Bayesian,2022.1.1,None,
,,,,14,0,14,0,,,,,,,,,,,,,,,,,,,,,,,"{'x': [[1000, 60], [1000, 40], [1000, 20], [1000, 0], [1500, 10], [1500, 30], [2000, 10], [2000, 30], [3000, 10], [3000, -10], [4000, 10]], 'y': [[1], [1], [1], [-1], [-1], [1], [-1], [1], [1], [-1], [1]], 'audiogram': {}, 'is_init_phase': True, 'is_exam_finished': False, 'threshold_uncertainty_db': 6}",4000,-10,2.6544222211549425e-05,False,0.004561900394037366,None,None,0,,157.3028886001557,158.30732080014423,None,1,158.30732080014423,157.3028886001557,,,luctew,001,fr,200,2022-05-12_14h18.55.564,Bayesian,2022.1.1,None,
,,,,15,0,15,0,,,,,,,,,,,,,,,,,,,,,,,"{'x': [[1000, 60], [1000, 40], [1000, 20], [1000, 0], [1500, 10], [1500, 30], [2000, 10], [2000, 30], [3000, 10], [3000, -10], [4000, 10], [4000, -10]], 'y': [[1], [1], [1], [-1], [-1], [1], [-1], [1], [1], [-1], [1], [-1]], 'audiogram': {}, 'is_init_phase': True, 'is_exam_finished': False, 'threshold_uncertainty_db': 6}",6000,10,0.00036641226656945183,False,0.01269500027410686,None,['space'],1,[0.404106899863109],159.7717988002114,160.7770659001544,None,1,160.7770659001544,159.7717988002114,,,luctew,001,fr,200,2022-05-12_14h18.55.564,Bayesian,2022.1.1,None,
,,,,16,0,16,0,,,,,,,,,,,,,,,,,,,,,,,"{'x': [[1000, 60], [1000, 40], [1000, 20], [1000, 0], [1500, 10], [1500, 30], [2000, 10], [2000, 30], [3000, 10], [3000, -10], [4000, 10], [4000, -10], [6000, 10]], 'y': [[1], [1], [1], [-1], [-1], [1], [-1], [1], [1], [-1], [1], [-1], [1]], 'audiogram': {}, 'is_init_phase': True, 'is_exam_finished': False, 'threshold_uncertainty_db': 6}",6000,-10,3.664122665694518e-05,False,0.01515120011754334,None,None,0,,163.5401572000701,164.5692678000778,None,1,164.5692678000778,163.5401572000701,,,luctew,001,fr,200,2022-05-12_14h18.55.564,Bayesian,2022.1.1,None,
,,,,17,0,17,0,,,,,,,,,,,,,,,,,,,,,,,"{'x': [[1000, 60], [1000, 40], [1000, 20], [1000, 0], [1500, 10], [1500, 30], [2000, 10], [2000, 30], [3000, 10], [3000, -10], [4000, 10], [4000, -10], [6000, 10], [6000, -10]], 'y': [[1], [1], [1], [-1], [-1], [1], [-1], [1], [1], [-1], [1], [-1], [1], [-1]], 'audiogram': {}, 'is_init_phase': True, 'is_exam_finished': False, 'threshold_uncertainty_db': 6}",,,,True,0.0009337668307125568,None,None,0,,166.5309486000333,167.53746070014313,None,1,167.53746070014313,166.5309486000333,,,luctew,001,fr,200,2022-05-12_14h18.55.564,Bayesian,2022.1.1,None,
,,,,18,0,18,0,,,,,,,,,,,,,,,,,,,,,,,"{'x': [[1000, 60], [1000, 40], [1000, 20], [1000, 0], [1500, 10], [1500, 30], [2000, 10], [2000, 30], [3000, 10], [3000, -10], [4000, 10], [4000, -10], [6000, 10], [6000, -10]], 'y': [[1], [1], [1], [-1], [-1], [1], [-1], [1], [1], [-1], [1], [-1], [1], [-1]], 'audiogram': {}, 'is_init_phase': True, 'is_exam_finished': False, 'threshold_uncertainty_db': 6}",8000,10,0.0005740768107484417,False,0.007545399945229292,None,['space'],1,[0.35976659995503724],169.00885590002872,170.0209370001685,None,1,170.0209370001685,169.00885590002872,,,luctew,001,fr,200,2022-05-12_14h18.55.564,Bayesian,2022.1.1,None,
,,,,19,0,19,0,,,,,,,,,,,,,,,,,,,,,,,"{'x': [[1000, 60], [1000, 40], [1000, 20], [1000, 0], [1500, 10], [1500, 30], [2000, 10], [2000, 30], [3000, 10], [3000, -10], [4000, 10], [4000, -10], [6000, 10], [6000, -10], [8000, 10]], 'y': [[1], [1], [1], [-1], [-1], [1], [-1], [1], [1], [-1], [1], [-1], [1], [-1], [1]], 'audiogram': {}, 'is_init_phase': True, 'is_exam_finished': False, 'threshold_uncertainty_db': 6}",8000,-10,5.740768107484415e-05,False,0.01157660037279129,None,None,0,,172.77516330010258,173.79082410014234,None,1,173.79082410014234,172.77516330010258,,,luctew,001,fr,200,2022-05-12_14h18.55.564,Bayesian,2022.1.1,None,
,,,,20,0,20,0,,,,,,,,,,,,,,,,,,,,,,,"{'x': [[1000, 60], [1000, 40], [1000, 20], [1000, 0], [1500, 10], [1500, 30], [2000, 10], [2000, 30], [3000, 10], [3000, -10], [4000, 10], [4000, -10], [6000, 10], [6000, -10], [8000, 10], [8000, -10]], 'y': [[1], [1], [1], [-1], [-1], [1], [-1], [1], [1], [-1], [1], [-1], [1], [-1], [1], [-1]], 'audiogram': {}, 'is_init_phase': True, 'is_exam_finished': False, 'threshold_uncertainty_db': 6}",750,10,0.00012851978913844324,False,0.009898433228954673,None,None,0,,175.62015350000001,176.6411339000333,None,1,176.6411339000333,175.62015350000001,,,luctew,001,fr,200,2022-05-12_14h18.55.564,Bayesian,2022.1.1,None,
,,,,21,0,21,0,,,,,,,,,,,,,,,,,,,,,,,"{'x': [[1000, 60], [1000, 40], [1000, 20], [1000, 0], [1500, 10], [1500, 30], [2000, 10], [2000, 30], [3000, 10], [3000, -10], [4000, 10], [4000, -10], [6000, 10], [6000, -10], [8000, 10], [8000, -10], [750, 10]], 'y': [[1], [1], [1], [-1], [-1], [1], [-1], [1], [1], [-1], [1], [-1], [1], [-1], [1], [-1], [-1]], 'audiogram': {}, 'is_init_phase': True, 'is_exam_finished': False, 'threshold_uncertainty_db': 6}",,,,True,0.013021433725953102,None,None,0,,179.61970450007357,180.62531580007635,None,1,180.62531580007635,179.61970450007357,,,luctew,001,fr,200,2022-05-12_14h18.55.564,Bayesian,2022.1.1,None,
,,,,22,0,22,0,,,,,,,,,,,,,,,,,,,,,,,"{'x': [[1000, 60], [1000, 40], [1000, 20], [1000, 0], [1500, 10], [1500, 30], [2000, 10], [2000, 30], [3000, 10], [3000, -10], [4000, 10], [4000, -10], [6000, 10], [6000, -10], [8000, 10], [8000, -10], [750, 10]], 'y': [[1], [1], [1], [-1], [-1], [1], [-1], [1], [1], [-1], [1], [-1], [1], [-1], [1], [-1], [-1]], 'audiogram': {}, 'is_init_phase': True, 'is_exam_finished': False, 'threshold_uncertainty_db': 6}",750,30,0.0012851978913844323,False,0.008262800052762032,None,['space'],1,[0.3921818998642266],182.65707980003208,183.66650740010664,None,1,183.66650740010664,182.65707980003208,,,luctew,001,fr,200,2022-05-12_14h18.55.564,Bayesian,2022.1.1,None,
,,,,23,0,23,0,,,,,,,,,,,,,,,,,,,,,,,"{'x': [[1000, 60], [1000, 40], [1000, 20], [1000, 0], [1500, 10], [1500, 30], [2000, 10], [2000, 30], [3000, 10], [3000, -10], [4000, 10], [4000, -10], [6000, 10], [6000, -10], [8000, 10], [8000, -10], [750, 10], [750, 30]], 'y': [[1], [1], [1], [-1], [-1], [1], [-1], [1], [1], [-1], [1], [-1], [1], [-1], [1], [-1], [-1], [1]], 'audiogram': {}, 'is_init_phase': True, 'is_exam_finished': False, 'threshold_uncertainty_db': 6}",500,10,0.0002259279721874612,False,0.009251300012692809,None,['space'],1,[0.5085253999568522],184.9955135001801,186.0029839000199,None,1,186.0029839000199,184.9955135001801,,,luctew,001,fr,200,2022-05-12_14h18.55.564,Bayesian,2022.1.1,None,
,,,,24,0,24,0,,,,,,,,,,,,,,,,,,,,,,,"{'x': [[1000, 60], [1000, 40], [1000, 20], [1000, 0], [1500, 10], [1500, 30], [2000, 10], [2000, 30], [3000, 10], [3000, -10], [4000, 10], [4000, -10], [6000, 10], [6000, -10], [8000, 10], [8000, -10], [750, 10], [750, 30], [500, 10]], 'y': [[1], [1], [1], [-1], [-1], [1], [-1], [1], [1], [-1], [1], [-1], [1], [-1], [1], [-1], [-1], [1], [1]], 'audiogram': {}, 'is_init_phase': True, 'is_exam_finished': False, 'threshold_uncertainty_db': 6}",500,-10,2.259279721874613e-05,False,0.007301900070160627,None,None,0,,188.79530240013264,189.8052037002053,None,1,189.8052037002053,188.79530240013264,,,luctew,001,fr,200,2022-05-12_14h18.55.564,Bayesian,2022.1.1,None,
,,,,25,0,25,0,,,,,,,,,,,,,,,,,,,,,,,"{'x': [[1000, 60], [1000, 40], [1000, 20], [1000, 0], [1500, 10], [1500, 30], [2000, 10], [2000, 30], [3000, 10], [3000, -10], [4000, 10], [4000, -10], [6000, 10], [6000, -10], [8000, 10], [8000, -10], [750, 10], [750, 30], [500, 10], [500, -10]], 'y': [[1], [1], [1], [-1], [-1], [1], [-1], [1], [1], [-1], [1], [-1], [1], [-1], [1], [-1], [-1], [1], [1], [-1]], 'audiogram': {}, 'is_init_phase': True, 'is_exam_finished': False, 'threshold_uncertainty_db': 6}",,,,True,0.010020633460953832,None,None,0,,191.2016053001862,192.22406490007415,None,1,192.22406490007415,191.2016053001862,,,luctew,001,fr,200,2022-05-12_14h18.55.564,Bayesian,2022.1.1,None,
,,,,26,0,26,0,,,,,,,,,,,,,,,,,,,,,,,"{'x': [[1000, 60], [1000, 40], [1000, 20], [1000, 0], [1500, 10], [1500, 30], [2000, 10], [2000, 30], [3000, 10], [3000, -10], [4000, 10], [4000, -10], [6000, 10], [6000, -10], [8000, 10], [8000, -10], [750, 10], [750, 30], [500, 10], [500, -10]], 'y': [[1], [1], [1], [-1], [-1], [1], [-1], [1], [1], [-1], [1], [-1], [1], [-1], [1], [-1], [-1], [1], [1], [-1]], 'audiogram': {}, 'is_init_phase': True, 'is_exam_finished': False, 'threshold_uncertainty_db': 6}",250,10,0.0005296268625886444,False,0.007015800103545189,None,None,0,,195.23710870021023,196.24691400001757,None,1,196.24691400001757,195.23710870021023,,,luctew,001,fr,200,2022-05-12_14h18.55.564,Bayesian,2022.1.1,None,
,,,,27,0,27,0,,,,,,,,,,,,,,,,,,,,,,,"{'x': [[1000, 60], [1000, 40], [1000, 20], [1000, 0], [1500, 10], [1500, 30], [2000, 10], [2000, 30], [3000, 10], [3000, -10], [4000, 10], [4000, -10], [6000, 10], [6000, -10], [8000, 10], [8000, -10], [750, 10], [750, 30], [500, 10], [500, -10], [250, 10]], 'y': [[1], [1], [1], [-1], [-1], [1], [-1], [1], [1], [-1], [1], [-1], [1], [-1], [1], [-1], [-1], [1], [1], [-1], [-1]], 'audiogram': {}, 'is_init_phase': True, 'is_exam_finished': False, 'threshold_uncertainty_db': 6}",250,30,0.005296268625886445,False,0.005317599978297949,0.19509449996985495,['space'],1,[0.41415779991075397],198.5461910001468,199.54314480000176,None,1,199.54314480000176,198.5461910001468,,,luctew,001,fr,200,2022-05-12_14h18.55.564,Bayesian,2022.1.1,None,
,,,,28,0,28,0,,,,,,,,,,,,,,,,,,,,,,,"{'x': [[1000, 60], [1000, 40], [1000, 20], [1000, 0], [1500, 10], [1500, 30], [2000, 10], [2000, 30], [3000, 10], [3000, -10], [4000, 10], [4000, -10], [6000, 10], [6000, -10], [8000, 10], [8000, -10], [750, 10], [750, 30], [500, 10], [500, -10], [250, 10], [250, 30]], 'y': [[1], [1], [1], [-1], [-1], [1], [-1], [1], [1], [-1], [1], [-1], [1], [-1], [1], [-1], [-1], [1], [1], [-1], [-1], [1]], 'audiogram': {}, 'is_init_phase': True, 'is_exam_finished': False, 'threshold_uncertainty_db': 6}",125,10,0.002285440948074376,False,0.002715600188821554,None,None,0,,202.01334550022148,203.02112990012392,None,1,203.02112990012392,202.01334550022148,,,luctew,001,fr,200,2022-05-12_14h18.55.564,Bayesian,2022.1.1,None,
,,,,29,0,29,0,,,,,,,,,,,,,,,,,,,,,,,"{'x': [[1000, 60], [1000, 40], [1000, 20], [1000, 0], [1500, 10], [1500, 30], [2000, 10], [2000, 30], [3000, 10], [3000, -10], [4000, 10], [4000, -10], [6000, 10], [6000, -10], [8000, 10], [8000, -10], [750, 10], [750, 30], [500, 10], [500, -10], [250, 10], [250, 30], [125, 10]], 'y': [[1], [1], [1], [-1], [-1], [1], [-1], [1], [1], [-1], [1], [-1], [1], [-1], [1], [-1], [-1], [1], [1], [-1], [-1], [1], [-1]], 'audiogram': {}, 'is_init_phase': True, 'is_exam_finished': False, 'threshold_uncertainty_db': 6}",,,,True,0.014128933427855372,None,None,0,,205.5195931000635,206.53932950017042,None,1,206.53932950017042,205.5195931000635,,,luctew,001,fr,200,2022-05-12_14h18.55.564,Bayesian,2022.1.1,None,
,,,,30,0,30,0,,,,,,,,,,,,,,,,,,,,,,,"{'x': [[1000, 60], [1000, 40], [1000, 20], [1000, 0], [1500, 10], [1500, 30], [2000, 10], [2000, 30], [3000, 10], [3000, -10], [4000, 10], [4000, -10], [6000, 10], [6000, -10], [8000, 10], [8000, -10], [750, 10], [750, 30], [500, 10], [500, -10], [250, 10], [250, 30], [125, 10]], 'y': [[1], [1], [1], [-1], [-1], [1], [-1], [1], [1], [-1], [1], [-1], [1], [-1], [1], [-1], [-1], [1], [1], [-1], [-1], [1], [-1]], 'audiogram': {}, 'is_init_phase': True, 'is_exam_finished': False, 'threshold_uncertainty_db': 6}",125,20,0.00722719885372964,False,0.008908399846404791,None,['space'],1,[0.4388072998262942],207.88138550007716,208.89314670022577,None,1,208.89314670022577,207.88138550007716,,,luctew,001,fr,200,2022-05-12_14h18.55.564,Bayesian,2022.1.1,None,
,,,,31,0,31,0,,,,,,,,,,,,,,,,,,,,,,,"{'x': [[1000, 60], [1000, 40], [1000, 20], [1000, 0], [1500, 10], [1500, 30], [2000, 10], [2000, 30], [3000, 10], [3000, -10], [4000, 10], [4000, -10], [6000, 10], [6000, -10], [8000, 10], [8000, -10], [750, 10], [750, 30], [500, 10], [500, -10], [250, 10], [250, 30], [125, 10], [125, 20]], 'y': [[1], [1], [1], [-1], [-1], [1], [-1], [1], [1], [-1], [1], [-1], [1], [-1], [1], [-1], [-1], [1], [1], [-1], [-1], [1], [-1], [1]], 'audiogram': {}, 'is_init_phase': True, 'is_exam_finished': False, 'threshold_uncertainty_db': 6}",189.4645708137998,15.0,0.0017084605332667944,False,0.004247533390298486,None,['space'],1,[0.40514270006679],212.35561660001986,213.36141920019872,None,1,213.36141920019872,212.35561660001986,,,luctew,001,fr,200,2022-05-12_14h18.55.564,Bayesian,2022.1.1,None,
,,,,32,0,32,0,,,,,,,,,,,,,,,,,,,,,,,,353.5533905932738,10.0,0.0002802167922291793,False,0.003961200127378106,None,['space'],1,[0.4707128000445664],217.10522450017743,218.12525630020536,None,1,218.12525630020536,217.10522450017743,,,luctew,001,fr,200,2022-05-12_14h18.55.564,Bayesian,2022.1.1,None,
,,,,33,0,33,0,,,,,,,,,,,,,,,,,,,,,,,,4924.577653379667,3.0,0.00020842917620072566,False,0.00493926671333611,None,['space'],1,[0.43862979975529015],221.89823540020734,222.90433220006526,None,1,222.90433220006526,221.89823540020734,,,luctew,001,fr,200,2022-05-12_14h18.55.564,Bayesian,2022.1.1,None,
,,,,34,0,34,0,,,,,,,,,,,,,,,,,,,,,,,,8000.0,3.0,0.0002564306919956826,False,0.00959006673656404,None,['space'],1,[0.38096849992871284],225.89911890006624,226.9053691001609,None,1,226.9053691001609,225.89911890006624,,,luctew,001,fr,200,2022-05-12_14h18.55.564,Bayesian,2022.1.1,None,
,,,,35,0,35,0,,,,,,,,,,,,,,,,,,,,,,,,,,,True,0.012432633666321635,None,None,0,,228.4378273000475,229.46704860008322,None,1,229.46704860008322,228.4378273000475,,,luctew,001,fr,200,2022-05-12_14h18.55.564,Bayesian,2022.1.1,None,
,,,,36,0,36,0,,,,,,,,,,,,,,,,,,,,,,,,1231.1444133449168,14.0,0.0002692405367327771,False,0.0022179665975272655,None,['space'],1,[0.363926799967885],231.74061650014482,232.7507263000589,None,1,232.7507263000589,231.74061650014482,,,luctew,001,fr,200,2022-05-12_14h18.55.564,Bayesian,2022.1.1,None,
,,,,37,0,37,0,,,,,,,,,,,,,,,,,,,,,,,,3482.202253184498,2.0,9.423148086205962e-05,False,0.00536489998921752,None,['space'],1,[0.636643799720332],235.6836269001942,236.68929160013795,None,1,236.68929160013795,235.6836269001942,,,luctew,001,fr,200,2022-05-12_14h18.55.564,Bayesian,2022.1.1,None,
,,,,38,0,38,0,,,,,,,,,,,,,,,,,,,,,,,,2462.2888266898335,9.0,0.0002397301456511786,False,0.004279333632439375,0.2006178335286677,None,0,,238.97029530000873,239.98553290008567,None,1,239.98553290008567,238.97029530000873,,,luctew,001,fr,200,2022-05-12_14h18.55.564,Bayesian,2022.1.1,None,
,,,,39,0,39,0,,,,,,,,,,,,,,,,,,,,,,,,,,,True,0.011365533340722322,None,None,0,,241.02737750019878,242.02105550002307,['space'],0,242.02105550002307,241.02737750019878,[1.651427400065586],,luctew,001,fr,200,2022-05-12_14h18.55.564,Bayesian,2022.1.1,None,
,,,,40,0,40,0,,,,,,,,,,,,,,,,,,,,,,,,500.0,5.0,0.00012704863527746526,False,0.005276600131765008,0.19868190004490316,None,0,,246.00839730002917,247.02555670007132,None,1,247.02555670007132,246.00839730002917,,,luctew,001,fr,200,2022-05-12_14h18.55.564,Bayesian,2022.1.1,None,
,,,,41,0,41,0,,,,,,,,,,,,,,,,,,,,,,,,5656.85424949238,-2.0,0.00010208999268889497,False,0.0027510332874953747,None,None,0,,249.91412370000035,250.92551050009206,None,1,250.92551050009206,249.91412370000035,,,luctew,001,fr,200,2022-05-12_14h18.55.564,Bayesian,2022.1.1,None,
,,,,42,0,42,0,,,,,,,,,,,,,,,,,,,,,,,,870.5505632961246,12.0,0.00016072881003144346,False,0.010804966790601611,None,['space'],1,[0.4698610999621451],255.0102619000245,256.00964030018076,None,1,256.00964030018076,255.0102619000245,,,luctew,001,fr,200,2022-05-12_14h18.55.564,Bayesian,2022.1.1,None,
,,,,43,0,43,0,,,,,,,,,,,,,,,,,,,,,,,,,,,True,0.013390233274549246,None,None,0,,258.6421732001472,259.66562720015645,None,1,259.66562720015645,258.6421732001472,,,luctew,001,fr,200,2022-05-12_14h18.55.564,Bayesian,2022.1.1,None,
,,,,44,0,44,0,,,,,,,,,,,,,,,,,,,,,,,,1866.0659830736151,16.0,0.00043387306094440825,False,0.0084347331430763,None,['space'],1,[0.3462417998816818],262.00542850000784,263.0107113001868,None,1,263.0107113001868,262.00542850000784,,,luctew,001,fr,200,2022-05-12_14h18.55.564,Bayesian,2022.1.1,None,
,,,,45,0,45,0,,,,,,,,,,,,,,,,,,,,,,,,164.93848884661182,12.0,0.0015651004536898975,False,0.007109900237992406,None,['space'],1,[0.4250011998228729],266.51157120009884,267.51831000018865,None,1,267.51831000018865,266.51157120009884,,,luctew,001,fr,200,2022-05-12_14h18.55.564,Bayesian,2022.1.1,None,
,,,,46,0,46,0,,,,,,,,,,,,,,,,,,,,,,,,8000.0,1.0,0.0002036901389020564,False,0.01652349974028766,None,['space'],1,[0.4897896000184119],270.43913660012186,271.45959960017353,None,1,271.45959960017353,270.43913660012186,,,luctew,001,fr,200,2022-05-12_14h18.55.564,Bayesian,2022.1.1,None,
,,,,47,0,47,0,,,,,,,,,,,,,,,,,,,,,,,,,,,True,0.013604233507066965,None,None,0,,273.74799400009215,274.75190730020404,None,1,274.75190730020404,273.74799400009215,,,luctew,001,fr,200,2022-05-12_14h18.55.564,Bayesian,2022.1.1,None,
,,,,48,0,48,0,,,,,,,,,,,,,,,,,,,,,,,,287.17458874925893,10.0,0.00040508658861217796,False,0.01123233325779438,None,None,0,,278.8521558002103,279.86148280021735,None,1,279.86148280021735,278.8521558002103,,,luctew,001,fr,200,2022-05-12_14h18.55.564,Bayesian,2022.1.1,None,
,,,,49,0,49,0,,,,,,,,,,,,,,,,,,,,,,,,125.0,12.0,0.002877199686685786,False,0.002747999969869852,None,['space'],1,[0.45734479976817966],283.8309822001029,284.8387369001284,None,1,284.8387369001284,283.8309822001029,,,luctew,001,fr,200,2022-05-12_14h18.55.564,Bayesian,2022.1.1,None,
,,,,50,0,50,0,,,,,,,,,,,,,,,,,,,,,,,,1148.6983549970344,9.0,0.00014168593883541098,False,0.006594199920073152,0.20108629995957017,None,0,,287.62542860000394,288.64859210001305,None,1,288.64859210001305,287.62542860000394,,,luctew,001,fr,200,2022-05-12_14h18.55.564,Bayesian,2022.1.1,None,
,,,,51,0,51,0,,,,,,,,,,,,,,,,,,,,,,,,,,,True,0.01400063349865377,None,None,0,,290.3024474000558,291.3026283001527,None,1,291.3026283001527,290.3024474000558,,,luctew,001,fr,200,2022-05-12_14h18.55.564,Bayesian,2022.1.1,None,
,,,,52,0,52,0,,,,,,,,,,,,,,,,,,,,,,,,189.4645708137998,10.0,0.0009607379603126595,False,0.014716433128342032,None,['space'],1,[0.5061200999189168],295.398825700162,296.4019993999973,None,1,296.4019993999973,295.398825700162,,,luctew,001,fr,200,2022-05-12_14h18.55.564,Bayesian,2022.1.1,None,
,,,,53,0,53,0,,,,,,,,,,,,,,,,,,,,,,,,4000.0,-1.0,7.481178280472168e-05,False,0.015329366782680154,None,['space'],1,[0.809884199872613],299.1829351000488,300.18774620001204,None,1,300.18774620001204,299.1829351000488,,,luctew,001,fr,200,2022-05-12_14h18.55.564,Bayesian,2022.1.1,None,
,,,,54,0,54,0,,,,,,,,,,,,,,,,,,,,,,,,615.5722066724584,10.0,0.00016891429683011587,False,0.009504766669124365,None,None,0,,303.77743710018694,304.7826814001892,None,1,304.7826814001892,303.77743710018694,,,luctew,001,fr,200,2022-05-12_14h18.55.564,Bayesian,2022.1.1,None,
,,,,55,0,55,0,,,,,,,,,,,,,,,,,,,,,,,,,,,True,0.01455513364635408,None,None,0,,305.88503330014646,306.9015658001881,None,1,306.9015658001881,305.88503330014646,,,luctew,001,fr,200,2022-05-12_14h18.55.564,Bayesian,2022.1.1,None,
,,,,56,0,56,0,,,,,,,,,,,,,,,,,,,,,,,,164.93848884661182,7.0,0.0008801206631839937,False,0.0005797997582703829,0.18382549984380603,['space'],1,[0.03932179999537766],310.9452116000466,311.95541540021077,None,1,311.95541540021077,310.9452116000466,,,luctew,001,fr,200,2022-05-12_14h18.55.564,Bayesian,2022.1.1,None,
,,,,57,0,57,0,,,,,,,,,,,,,,,,,,,,,,,,8000.0,-2.0,0.00014420157515633036,False,0.013936599949374795,None,None,0,,316.1231392000336,317.1377843001392,None,1,317.1377843001392,316.1231392000336,,,luctew,001,fr,200,2022-05-12_14h18.55.564,Bayesian,2022.1.1,None,
,,,,58,0,58,0,,,,,,,,,,,,,,,,,,,,,,,,2828.42712474619,6.0,0.00013066168066053937,False,0.0156140998005867,None,None,0,,320.33534360001795,321.3639279000927,None,1,321.3639279000927,320.33534360001795,,,luctew,001,fr,200,2022-05-12_14h18.55.564,Bayesian,2022.1.1,None,
,,,,59,0,59,0,,,,,,,,,,,,,,,,,,,,,,,,406.12619817811805,7.0,0.00017068310902242423,False,0.008352033561095595,0.20081403362564743,None,0,,324.8034861001652,325.81338610011153,None,1,325.81338610011153,324.8034861001652,,,luctew,001,fr,200,2022-05-12_14h18.55.564,Bayesian,2022.1.1,None,
,,,,60,0,60,0,,,,,,,,,,,,,,,,,,,,,,,,5656.85424949238,0.0,0.0001285236860859306,False,0.008085566572844982,None,None,0,,329.5716771001462,330.58509860001504,None,1,330.58509860001504,329.5716771001462,,,luctew,001,fr,200,2022-05-12_14h18.55.564,Bayesian,2022.1.1,None,
,,,,61,0,61,0,,,,,,,,,,,,,,,,,,,,,,,,,,,True,0.011038333410397172,None,None,0,,332.7812079000287,333.7893378001172,None,1,333.7893378001172,332.7812079000287,,,luctew,001,fr,200,2022-05-12_14h18.55.564,Bayesian,2022.1.1,None,
,,,,62,0,62,0,,,,,,,,,,,,,,,,,,,,,,,,125.0,9.0,0.0020369013890205647,False,0.007419833447784185,None,['space'],1,[0.6420829000417143],338.1658596000634,339.1830632002093,None,1,339.1830632002093,338.1658596000634,,,luctew,001,fr,200,2022-05-12_14h18.55.564,Bayesian,2022.1.1,None,
,,,,63,0,63,0,,,,,,,,,,,,,,,,,,,,,,,,125.0,7.0,0.0016179682846481417,False,0.009509833296760917,None,['space'],1,[0.46720219985581934],343.6857702000998,344.7071394000668,None,1,344.7071394000668,343.6857702000998,,,luctew,001,fr,200,2022-05-12_14h18.55.564,Bayesian,2022.1.1,None,
,,,,64,0,64,0,,,,,,,,,,,,,,,,,,,,,,,,176.7766952966369,3.0,0.0004944177713899504,False,0.013336099684238434,None,['space'],1,[0.6785492999479175],348.4181155001279,349.42790320003405,None,1,349.42790320003405,348.4181155001279,,,luctew,001,fr,200,2022-05-12_14h18.55.564,Bayesian,2022.1.1,None,
,,,,65,0,65,0,,,,,,,,,,,,,,,,,,,,,,,,164.93848884661182,0.0,0.0003931354593573141,False,0.013399000046774745,None,['space'],1,[0.501089199911803],353.194911000086,354.2097187000327,None,1,354.2097187000327,353.194911000086,,,luctew,001,fr,200,2022-05-12_14h18.55.564,Bayesian,2022.1.1,None,
,,,,66,0,66,0,,,,,,,,,,,,,,,,,,,,,,,,,,,True,0.013268733397126198,None,None,0,,356.76335720019415,357.7661505001597,None,1,357.7661505001597,356.76335720019415,,,luctew,001,fr,200,2022-05-12_14h18.55.564,Bayesian,2022.1.1,None,
,,,,67,0,67,0,,,,,,,,,,,,,,,,,,,,,,,,217.63764082403114,6.0,0.0004606795947767153,False,0.0017559330444782972,None,['space'],1,[0.6404909999109805],362.11283300002106,363.1412129001692,None,1,363.1412129001692,362.11283300002106,,,luctew,001,fr,200,2022-05-12_14h18.55.564,Bayesian,2022.1.1,None,
,,,,68,0,68,0,,,,,,,,,,,,,,,,,,,,,,,,164.93848884661182,-4.0,0.0002480517054570919,False,0.0032716665882617235,None,None,0,,366.81599870021455,367.8149727000855,None,1,367.8149727000855,366.81599870021455,,,luctew,001,fr,200,2022-05-12_14h18.55.564,Bayesian,2022.1.1,None,
,,,,69,0,69,0,,,,,,,,,,,,,,,,,,,,,,,,659.7539553864473,13.0,0.00021688920581558227,False,0.0024749666918069124,0.19346096669323742,None,0,,372.6030847001821,373.6191852001939,None,1,373.6191852001939,372.6030847001821,,,luctew,001,fr,200,2022-05-12_14h18.55.564,Bayesian,2022.1.1,None,
,,,,70,0,70,0,,,,,,,,,,,,,,,,,,,,,,,,,,,True,0.016092633362859488,None,None,0,,376.0879903000314,377.1005843000021,None,1,377.1005843000021,376.0879903000314,,,luctew,001,fr,200,2022-05-12_14h18.55.564,Bayesian,2022.1.1,None,
,,,,71,0,71,0,,,,,,,,,,,,,,,,,,,,,,,,1624.5047927124701,14.0,0.00028997193917412587,False,0.013508100062608719,0.2100394000299275,None,0,,381.5563641001936,382.5728240001481,None,1,382.5728240001481,381.5563641001936,,,luctew,001,fr,200,2022-05-12_14h18.55.564,Bayesian,2022.1.1,None,
,,,,72,0,72,0,,,,,,,,,,,,,,,,,,,,,,,,2297.3967099940687,15.0,0.0004577697769907718,False,0.012056599836796522,None,['space'],1,[0.529537099879235],387.4307098002173,388.43542600004,None,1,388.43542600004,387.4307098002173,,,luctew,001,fr,200,2022-05-12_14h18.55.564,Bayesian,2022.1.1,None,
,,,,73,0,73,0,,,,,,,,,,,,,,,,,,,,,,,,933.0329915368076,11.0,0.0001495507128826971,False,0.013937533367425203,None,['space'],1,[0.6130819998215884],393.2838642001152,394.2900323001668,None,1,394.2900323001668,393.2838642001152,,,luctew,001,fr,200,2022-05-12_14h18.55.564,Bayesian,2022.1.1,None,
,,,,74,0,74,0,,,,,,,,,,,,,,,,,,,,,,,,307.7861033362292,12.0,0.0004230430256570538,False,0.009751166682690382,0.2043099666479975,['space'],1,[0.4630741998553276],398.37717760005035,399.3768015000969,None,1,399.3768015000969,398.37717760005035,,,luctew,001,fr,200,2022-05-12_14h18.55.564,Bayesian,2022.1.1,None,
,,,,75,0,75,0,,,,,,,,,,,,,,,,,,,,,,,,,,,True,0.014917999738827348,None,None,0,,401.42091810004786,402.4347793001216,None,1,402.4347793001216,401.42091810004786,,,luctew,001,fr,200,2022-05-12_14h18.55.564,Bayesian,2022.1.1,None,
,,,,76,0,76,0,,,,,,,,,,,,,,,,,,,,,,,,125.0,5.0,0.0012851978913844323,False,0.0062853998970240355,None,['space'],1,[0.8822051999159157],407.3015282000415,408.30974650010467,None,1,408.30974650010467,407.3015282000415,,,luctew,001,fr,200,2022-05-12_14h18.55.564,Bayesian,2022.1.1,None,
,,,,77,0,77,0,,,,,,,,,,,,,,,,,,,,,,,,574.3491774985172,15.0,0.00033653990631489413,False,0.003701266599819064,0.1957625667564571,['space'],1,[0.41231949999928474],413.02795680006966,414.02272930019535,None,1,414.02272930019535,413.02795680006966,,,luctew,001,fr,200,2022-05-12_14h18.55.564,Bayesian,2022.1.1,None,
,,,,78,0,78,0,,,,,,,,,,,,,,,,,,,,,,,,4000.0,-4.0,5.296268625886443e-05,False,0.011109599843621254,None,None,0,,418.54198450013064,419.55399640020914,None,1,419.55399640020914,418.54198450013064,,,luctew,001,fr,200,2022-05-12_14h18.55.564,Bayesian,2022.1.1,None,
,,,,79,0,79,0,,,,,,,,,,,,,,,,,,,,,,,,1414.213562373095,14.0,0.0002527604499304402,False,0.002018699888139963,0.1950455999467522,['space'],1,[0.48142129997722805],423.8060821001418,424.8063957002014,None,1,424.8063957002014,423.8060821001418,,,luctew,001,fr,200,2022-05-12_14h18.55.564,Bayesian,2022.1.1,None,
,,,,80,0,80,0,,,,,,,,,,,,,,,,,,,,,,,,6062.8662660415985,3.0,0.00016785531344773265,False,0.007683966774493456,None,['space'],1,[0.47971479990519583],429.80034160008654,430.834609300131,None,1,430.834609300131,429.80034160008654,,,luctew,001,fr,200,2022-05-12_14h18.55.564,Bayesian,2022.1.1,None,
,,,,81,0,81,0,,,,,,,,,,,,,,,,,,,,,,,,217.63764082403114,4.0,0.00036593080929248566,False,0.013101133285090327,None,None,0,,434.2003898001276,435.2173681000713,None,1,435.2173681000713,434.2003898001276,,,luctew,001,fr,200,2022-05-12_14h18.55.564,Bayesian,2022.1.1,None,
,,,,82,0,82,0,,,,,,,,,,,,,,,,,,,,,,,,406.12619817811805,7.0,0.00017068310902242423,False,0.003216933226212859,None,None,0,,440.11543090012856,441.1247820002027,None,1,441.1247820002027,440.11543090012856,,,luctew,001,fr,200,2022-05-12_14h18.55.564,Bayesian,2022.1.1,None,
,,,,83,0,83,0,,,,,,,,,,,,,,,,,,,,,,,,8000.0,-1.0,0.00016179682846481421,False,0.013123466400429606,None,['space'],1,[0.513978999806568],445.84558860003017,446.8538005000446,None,1,446.8538005000446,445.84558860003017,,,luctew,001,fr,200,2022-05-12_14h18.55.564,Bayesian,2022.1.1,None,
,,,,84,0,84,0,,,,,,,,,,,,,,,,,,,,,,,,,,,True,0.012025433359667659,None,None,0,,448.88703610002995,449.89932720013894,None,1,449.89932720013894,448.88703610002995,,,luctew,001,fr,200,2022-05-12_14h18.55.564,Bayesian,2022.1.1,None,
,,,,85,0,85,0,,,,,,,,,,,,,,,,,,,,,,,,1071.7734625362941,8.0,0.00011819561324015676,False,0.014451100025326014,None,None,0,,453.3854529000819,454.40437150001526,None,1,454.40437150001526,453.3854529000819,,,luctew,001,fr,200,2022-05-12_14h18.55.564,Bayesian,2022.1.1,None,
,,,,86,0,86,0,,,,,,,,,,,,,,,,,,,,,,,,125.0,4.0,0.0011454338263838868,False,0.0037366333417594433,0.1992033333517611,None,0,,457.7743526000995,458.77456700010225,None,1,458.77456700010225,457.7743526000995,,,luctew,001,fr,200,2022-05-12_14h18.55.564,Bayesian,2022.1.1,None,
,,,,87,0,87,0,,,,,,,,,,,,,,,,,,,,,,,,3031.4331330207992,4.0,9.160460061402599e-05,False,0.0072079000528901815,None,['space'],1,[-1.4692768000531942],463.42968670022674,464.4346075002104,None,1,464.4346075002104,463.42968670022674,,,luctew,001,fr,200,2022-05-12_14h18.55.564,Bayesian,2022.1.1,None,
,,,,88,0,88,0,,,,,,,,,,,,,,,,,,,,,,,,2000.0,14.0,0.00037494710466622793,False,0.011770999757573009,None,['space'],1,[0.5396234998479486],469.4686356000602,470.4880819001701,None,1,470.4880819001701,469.4686356000602,,,luctew,001,fr,200,2022-05-12_14h18.55.564,Bayesian,2022.1.1,None,
,,,,89,0,89,0,,,,,,,,,,,,,,,,,,,,,,,,4594.793419988137,-1.0,0.0001112864677867834,False,0.007712766528129578,None,None,0,,475.4357500001788,476.4505826001987,None,1,476.4505826001987,475.4357500001788,,,luctew,001,fr,200,2022-05-12_14h18.55.564,Bayesian,2022.1.1,None,
,,,,90,0,90,0,,,,,,,,,,,,,,,,,,,,,,,,,,,True,0.00993763329461217,None,None,0,,477.5208565001376,478.52074370021,None,1,478.52074370021,477.5208565001376,,,luctew,001,fr,200,2022-05-12_14h18.55.564,Bayesian,2022.1.1,None,
,,,,91,0,91,0,,,,,,,,,,,,,,,,,,,,,,,,757.8582832551998,13.0,0.00017994298897814538,False,0.012798700015991926,None,['space'],1,[0.4872009998653084],483.4013068000786,484.4218230000697,None,1,484.4218230000697,483.4013068000786,,,luctew,001,fr,200,2022-05-12_14h18.55.564,Bayesian,2022.1.1,None,
,,,,92,0,92,0,,,,,,,,,,,,,,,,,,,,,,,,164.93848884661182,-1.0,0.0003503823469658471,False,0.007068699924275279,0.20240369974635541,None,0,,489.4878560001962,490.505639300216,None,1,490.505639300216,489.4878560001962,,,luctew,001,fr,200,2022-05-12_14h18.55.564,Bayesian,2022.1.1,None,
,,,,93,0,93,0,,,,,,,,,,,,,,,,,,,,,,,,6498.0191708498805,0.0,0.00013601041088821223,False,0.01651659980416298,None,None,0,,495.53613340016454,496.54860650002956,None,1,496.54860650002956,495.53613340016454,,,luctew,001,fr,200,2022-05-12_14h18.55.564,Bayesian,2022.1.1,None,
,,,,94,0,94,0,,,,,,,,,,,,,,,,,,,,,,,,466.5164957684038,10.0,0.00023133830765383382,False,0.002298099687322974,None,None,0,,500.6645657001063,501.6689799001906,None,1,501.6689799001906,500.6645657001063,,,luctew,001,fr,200,2022-05-12_14h18.55.564,Bayesian,2022.1.1,None,
,,,,95,0,95,0,,,,,,,,,,,,,,,,,,,,,,,,329.87697769322364,11.0,0.0003362174056490329,False,0.0022034666035324335,None,None,0,,506.71578850015067,507.7242764001712,None,1,507.7242764001712,506.71578850015067,,,luctew,001,fr,200,2022-05-12_14h18.55.564,Bayesian,2022.1.1,None,
,,,,96,0,96,0,,,,,,,,,,,,,,,,,,,,,,,,,,,True,0.015968533465638757,None,None,0,,509.01149900001474,510.02659540018067,None,1,510.02659540018067,509.01149900001474,,,luctew,001,fr,200,2022-05-12_14h18.55.564,Bayesian,2022.1.1,None,
,,,,97,0,97,0,,,,,,,,,,,,,,,,,,,,,,,,8000.0,-2.0,0.00014420157515633036,False,0.003518899902701378,None,None,0,,513.8597173001617,514.8668302001897,None,1,514.8668302001897,513.8597173001617,,,luctew,001,fr,200,2022-05-12_14h18.55.564,Bayesian,2022.1.1,None,
,,,,98,0,98,0,,,,,,,,,,,,,,,,,,,,,,,,1319.5079107728945,12.0,0.0002101351810032872,False,0.009950766572728753,0.2057807664386928,['space'],1,[0.44948959979228675],519.6387256002054,520.6404194000643,None,1,520.6404194000643,519.6387256002054,,,luctew,001,fr,200,2022-05-12_14h18.55.564,Bayesian,2022.1.1,None,
,,,,99,0,99,0,,,,,,,,,,,,,,,,,,,,,,,,3249.0095854249403,1.0,7.939092648083988e-05,False,0.014137000078335404,None,None,0,,526.2251806000713,527.2285140000749,None,1,527.2285140000749,526.2251806000713,,,luctew,001,fr,200,2022-05-12_14h18.55.564,Bayesian,2022.1.1,None,
,,,,100,0,100,0,,,,,,,,,,,,,,,,,,,,,,,,,,,True,0.013251233380287886,None,None,0,,528.8418169000652,529.8420950002037,None,1,529.8420950002037,528.8418169000652,,,luctew,001,fr,200,2022-05-12_14h18.55.564,Bayesian,2022.1.1,None,
,,,,101,0,101,0,,,,,,,,,,,,,,,,,,,,,,,,233.2582478842019,8.0,0.0005030881344778151,False,0.011415899964049459,None,None,0,,533.609281900106,534.6192177000921,None,1,534.6192177000921,533.609281900106,,,luctew,001,fr,200,2022-05-12_14h18.55.564,Bayesian,2022.1.1,None,
,,,,102,0,102,0,,,,,,,,,,,,,,,,,,,,,,,,933.0329915368076,9.0,0.0001187923537658707,False,0.014791833236813545,None,None,0,,539.9924465001095,540.9956017001532,None,1,540.9956017001532,539.9924465001095,,,luctew,001,fr,200,2022-05-12_14h18.55.564,Bayesian,2022.1.1,None,
,,,,103,0,103,0,,,,,,,,,,,,,,,,,,,,,,,,2297.3967099940687,11.0,0.0002888332028733877,False,0.004634499782696366,None,['space'],1,[0.6450609997846186],546.3553361000959,547.3609405001625,None,1,547.3609405001625,546.3553361000959,,,luctew,001,fr,200,2022-05-12_14h18.55.564,Bayesian,2022.1.1,None,
,,,,104,0,104,0,,,,,,,,,,,,,,,,,,,,,,,,466.5164957684038,11.0,0.0002595658503745868,False,0.01432269997894764,None,['space'],1,[0.4738807997200638],553.0859346000943,554.0933754001744,None,1,554.0933754001744,553.0859346000943,,,luctew,001,fr,200,2022-05-12_14h18.55.564,Bayesian,2022.1.1,None,
,,,,105,0,105,0,,,,,,,,,,,,,,,,,,,,,,,,4594.793419988137,0.0,0.00012486547057085194,False,0.012278766836971045,0.2107549668289721,None,0,,559.812600000063,560.813606900163,None,1,560.813606900163,559.812600000063,,,luctew,001,fr,200,2022-05-12_14h18.55.564,Bayesian,2022.1.1,None,
,,,,106,0,106,0,,,,,,,,,,,,,,,,,,,,,,,,125.0,6.0,0.0014420157515633036,False,0.010197066701948643,None,['space'],1,[0.8059352000709623],565.6651352001354,566.6858366001397,None,1,566.6858366001397,565.6651352001354,,,luctew,001,fr,200,2022-05-12_14h18.55.564,Bayesian,2022.1.1,None,
,,,,107,0,107,0,,,,,,,,,,,,,,,,,,,,,,,,1741.101126592249,13.0,0.00028195425365065935,False,0.008806966710835695,None,None,0,,571.5645138002001,572.5809119001497,None,1,572.5809119001497,571.5645138002001,,,luctew,001,fr,200,2022-05-12_14h18.55.564,Bayesian,2022.1.1,None,
,,,,108,0,108,0,,,,,,,,,,,,,,,,,,,,,,,,6062.8662660415985,3.0,0.00016785531344773265,False,0.009048499865457416,None,['space'],1,[0.5488481000065804],576.6669948000927,577.6863575000316,None,1,577.6863575000316,576.6669948000927,,,luctew,001,fr,200,2022-05-12_14h18.55.564,Bayesian,2022.1.1,None,
,,,,109,0,109,0,,,,,,,,,,,,,,,,,,,,,,,,615.5722066724584,13.0,0.000238597786096091,False,0.015264266636222601,None,None,0,,582.7941602000501,583.7933080000803,None,1,583.7933080000803,582.7941602000501,,,luctew,001,fr,200,2022-05-12_14h18.55.564,Bayesian,2022.1.1,None,
,,,,110,0,110,0,,,,,,,,,,,,,,,,,,,,,,,,287.17458874925893,13.0,0.0005722000152378535,False,0.0018682333175092936,None,['space'],1,[0.6307027998846024],588.3688070001081,589.3813346000388,None,1,589.3813346000388,588.3688070001081,,,luctew,001,fr,200,2022-05-12_14h18.55.564,Bayesian,2022.1.1,None,
,,,,111,0,111,0,,,,,,,,,,,,,,,,,,,,,,,,164.93848884661182,0.0,0.0003931354593573141,False,0.010591733502224088,None,['space'],1,[0.7190046997275203],595.0978652001359,596.1003997002263,None,1,596.1003997002263,595.0978652001359,,,luctew,001,fr,200,2022-05-12_14h18.55.564,Bayesian,2022.1.1,None,
,,,,112,0,112,0,,,,,,,,,,,,,,,,,,,,,,,,1148.6983549970344,10.0,0.00015897423808843036,False,0.014956433326005936,None,None,0,,601.4707948002033,602.4827549001202,None,1,602.4827549001202,601.4707948002033,,,luctew,001,fr,200,2022-05-12_14h18.55.564,Bayesian,2022.1.1,None,
,,,,113,0,113,0,,,,,,,,,,,,,,,,,,,,,,,,4000.0,0.0,8.394020090612804e-05,False,0.005392266670241952,0.19578136666677892,None,0,,607.9062044001184,608.9254655002151,None,1,608.9254655002151,607.9062044001184,,,luctew,001,fr,200,2022-05-12_14h18.55.564,Bayesian,2022.1.1,None,
,,,,114,0,114,0,,,,,,,,,,,,,,,,,,,,,,,,,,,True,0.01190800010226667,0.20932230004109442,None,0,,610.8014108000789,611.7990089000668,None,1,611.7990089000668,610.8014108000789,,,luctew,001,fr,200,2022-05-12_14h18.55.564,Bayesian,2022.1.1,None,
,,,,115,0,115,0,,,,,,,,,,,,,,,,,,,,,,,,2639.015821545789,7.0,0.00017295588613885568,False,0.009766633389517665,None,['space'],1,[0.6123029999434948],616.2193603001069,617.2226070000324,None,1,617.2226070000324,616.2193603001069,,,luctew,001,fr,200,2022-05-12_14h18.55.564,Bayesian,2022.1.1,None,
,,,,116,0,116,0,,,,,,,,,,,,,,,,,,,,,,,,757.8582832551998,13.0,0.00017994298897814538,False,0.00279943342320621,None,['space'],1,[0.4733711997978389],621.2637241000775,622.2845298000611,None,1,622.2845298000611,621.2637241000775,,,luctew,001,fr,200,2022-05-12_14h18.55.564,Bayesian,2022.1.1,None,
,,,,117,0,117,0,,,,,,,,,,,,,,,,,,,,,,,,8000.0,-1.0,0.00016179682846481421,False,0.015860599698498845,None,None,0,,626.3602242001798,627.3729703000281,None,1,627.3729703000281,626.3602242001798,,,luctew,001,fr,200,2022-05-12_14h18.55.564,Bayesian,2022.1.1,None,
,,,,118,0,118,0,,,,,,,,,,,,,,,,,,,,,,,,378.9291416275994,10.0,0.0002593844249402156,False,0.012535599991679192,None,None,0,,633.6033812002279,634.6224062000401,None,1,634.6224062000401,633.6033812002279,,,luctew,001,fr,200,2022-05-12_14h18.55.564,Bayesian,2022.1.1,None,
,,,,119,0,119,0,,,,,,,,,,,,,,,,,,,,,,,,,,,True,0.01557363336905837,None,None,0,,636.1455889001954,637.1588629002217,None,1,637.1588629002217,636.1455889001954,,,luctew,001,fr,200,2022-05-12_14h18.55.564,Bayesian,2022.1.1,None,
,,,,120,0,120,0,,,,,,,,,,,,,,,,,,,,,,,,217.63764082403114,6.0,0.0004606795947767153,False,0.004605566617101431,0.19834816665388644,None,0,,642.7674759000074,643.7665619000327,None,1,643.7665619000327,642.7674759000074,,,luctew,001,fr,200,2022-05-12_14h18.55.564,Bayesian,2022.1.1,None,
,,,,121,0,121,0,,,,,,,,,,,,,,,,,,,,,,,,125.0,5.0,0.0012851978913844323,False,0.011802366701886058,None,None,0,,648.3205476000439,649.3336097002029,None,1,649.3336097002029,648.3205476000439,,,luctew,001,fr,200,2022-05-12_14h18.55.564,Bayesian,2022.1.1,None,
,,,,122,0,122,0,,,,,,,,,,,,,,,,,,,,,,,,1624.5047927124701,14.0,0.00028997193917412587,False,0.011763666523620486,None,None,0,,654.7300449002068,655.7517064001877,None,1,655.7517064001877,654.7300449002068,,,luctew,001,fr,200,2022-05-12_14h18.55.564,Bayesian,2022.1.1,None,
,,,,123,0,123,0,,,,,,,,,,,,,,,,,,,,,,,,6062.8662660415985,2.0,0.00014960120558102564,False,0.014276166446506977,None,None,0,,659.9653027001768,660.983653700212,None,1,660.983653700212,659.9653027001768,,,luctew,001,fr,200,2022-05-12_14h18.55.564,Bayesian,2022.1.1,None,
,,,,124,0,124,0,,,,,,,,,,,,,,,,,,,,,,,,6062.8662660415985,2.0,0.00014960120558102564,False,None,None,None,0,,None,None,None,1,None,None,,"{'estimation': [[125.0, 5.597661332641838], [127.53982924841974, 5.0], [131.7141875740274, 4.0], [133.9716828170366, 3.5065275197494192], [136.62285133831293, 3.0], [141.74713742518924, 2.0], [143.5872943746293, 1.6622601614722323], [149.06498560648396, 1.0], [153.89305166811442, 0.4320359432487666], [164.93848884661162, 0.07765557616859009], [176.77669529663666, 0.6955396795028732], [179.30477986961813, 1.0], [187.67913563922153, 2.0], [189.46457081379947, 2.2019588061134154], [194.54332972162666, 3.0], [200.8610438927948, 4.0], [203.0630990890585, 4.320213349737966], [207.27237427204878, 5.0], [213.20879040134363, 6.0], [217.6376408240306, 6.677339782406106], [219.9449613799123, 7.0], [226.75717806384128, 8.0], [233.25824788420132, 8.887402809549101], [234.33483723148277, 9.0], [243.71563541524583, 10.0], [249.99999999999937, 10.631434731510733], [255.93011616613953, 11.0], [267.94336563407256, 11.722294426952526], [280.66407538508736, 12.0], [287.1745887492579, 12.138518104018646], [305.7857743704449, 12.0], [307.78610333622805, 11.985669106943442], [329.87697769322244, 11.479758446912495], [348.0129935699743, 11.0], [353.55339059327247, 10.85773133919742], [378.929141627598, 10.351771473087013], [406.12619817811606, 10.113979272962508], [435.2752816480601, 10.220717981261956], [466.5164957684015, 10.64525601674326], [484.7100741681704, 11.0], [499.9999999999975, 11.28989976777316], [535.8867312681444, 11.9832495361496], [536.9609887908713, 11.999999999999998], [574.3491774985143, 12.5574965404976], [615.5722066724546, 12.860742358517161], [659.7539553864432, 12.816814774548485], [707.1067811865431, 12.434686992489542], [741.5376313574108, 12.000000000000002], [757.8582832551941, 11.799867655309667], [812.2523963562301, 11.074255689082559], [818.6647925841551, 11.0], [870.5505632961181, 10.422498541154125], [933.0329915368008, 10.00155315542841], [934.1662492334198, 10.0], [999.9999999999926, 9.913244425506182], [1021.2868552330791, 10.0], [1071.773462536285, 10.197528270719356], [1148.698354997026, 10.809867359927209], [1166.4500492020613, 11.0], [1231.1444133449063, 11.666362963778075], [1261.163162835274, 12.0], [1319.5079107728848, 12.625992675863762], [1357.847742274876, 13.0], [1414.2135623730828, 13.530778301590974], [1482.2943925677089, 14.0], [1515.7165665103846, 14.223609845119196], [1624.5047927124563, 14.567105356731734], [1741.1011265922318, 14.478503186202735], [1847.6844851470646, 14.0], [1866.065983073597, 13.919337459087675], [1988.702654318498, 13.0], [1999.9999999999802, 12.917660741372506], [2094.6648509610163, 12.0], [2143.5469250725646, 11.5448276054401], [2193.9869619461333, 11.0], [2288.089992669253, 10.0], [2297.396709994049, 9.906518851508192], [2379.7603261455656, 9.0], [2462.2888266898062, 8.131675275687215], [2475.2289889447725, 8.0], [2571.6291443262908, 7.0], [2639.01582154576, 6.343945930819206], [2677.5407459597036, 6.0], [2789.061459891368, 5.0], [2828.427124746159, 4.669625497967333], [2921.0340393463175, 4.0], [3031.4331330207615, 3.227562175475335], [3074.2902020270194, 3.0], [3249.0095854249043, 2.0966873026236468], [3277.5858538112357, 2.0], [3482.2022531844555, 1.3342903225985396], [3695.8855878073764, 1.0], [3732.1319661471844, 0.9448605021024403], [3999.9999999999504, 0.8880182318183509], [4173.000753662765, 1.0], [4287.093850145118, 1.0720388400805678], [4594.793419988081, 1.3689811775385272], [4924.577653379601, 1.6464208421521933], [5278.031643091506, 1.7998269890940355], [5656.854249492303, 1.7633583277383118], [6062.866266041501, 1.5270245187937523], [6498.019170849792, 1.1307020185210135], [6619.538631300331, 1.0], [6964.404506368894, 0.6482833919919375], [7464.2639322943505, 0.1827627874404163], [7723.0102884317075, 0.0], [7999.999999999882, -0.1913843700060742]], 'plus_line': [[125.0, 2.638583749236753], [127.54681675475312, 2.0], [131.7687809517861, 1.0], [133.9716828170366, 0.5577370578804574], [136.6379388608444, 0.0], [141.6227201778735, -1.0], [143.5872943746293, -1.34841301399313], [148.7179314076213, -2.0], [153.89305166811442, -2.616056313651751], [164.93848884661162, -2.9480005132851756], [176.77669529663666, -2.3137472164832964], [179.42867537750038, -2.0], [187.56988647943257, -1.0], [189.46457081379947, -0.7769488180078725], [194.79877950174517, 0.0], [200.7809176215474, 1.0], [203.0630990890585, 1.3546259582570799], [207.49478694032797, 2.0], [213.32250998348357, 3.0], [217.6376408240306, 3.725570249959964], [219.80593922957527, 4.0], [226.909870048882, 5.0], [233.25824788420132, 5.95514743978252], [233.7162979451952, 6.0], [243.5825687644266, 7.0], [249.99999999999937, 7.682555431107566], [255.17152839235973, 8.0], [267.94336563407256, 8.771706897522868], [277.92884550528464, 9.0], [287.1745887492579, 9.187696993680108], [307.78610333622805, 9.044043879163235], [309.6855873260373, 9.0], [329.87697769322284, 8.51959391484251], [350.13968289109306, 8.0], [353.55339059327247, 7.909119356310777], [378.929141627598, 7.38597765271123], [406.12619817811606, 7.154538567876984], [435.2752816480601, 7.254097493418407], [466.5164957684015, 7.67129278406151], [483.00187081773186, 8.0], [499.9999999999975, 8.310454148131177], [535.1311212783249, 9.0], [535.8867312681438, 9.013933801282256], [574.3491774985143, 9.567870968229336], [615.5722066724546, 9.888636394514554], [659.7539553864432, 9.848306485677604], [707.1067811865431, 9.455808570249296], [743.8028707566706, 9.0], [757.8582832551941, 8.81916989785542], [812.2523963562301, 8.084160501798937], [819.5602115932246, 8.0], [870.5505632961181, 7.406660389755567], [933.0329915368008, 7.001833189003602], [934.6210365319016, 7.0], [999.9999999999926, 6.916792167003595], [1018.0977888637576, 7.0], [1071.773462536285, 7.210643830399391], [1148.698354997026, 7.841405269893179], [1163.062793663983, 8.0], [1231.1444133449063, 8.702623894906075], [1257.5222164609518, 9.0], [1319.5079107728832, 9.667646055843926], [1352.9888153475436, 10.0], [1414.2135623730828, 10.576014572959249], [1473.4835656125993, 11.0], [1515.7165665103846, 11.2789128283201], [1624.5047927124563, 11.619357602171757], [1741.101126592234, 11.519579751565965], [1856.5007349645675, 11.0], [1866.065983073597, 10.954393526329596], [1989.3646998270308, 10.0], [1999.9999999999802, 9.919827440210138], [2090.377997738928, 9.0], [2143.5469250725646, 8.508381355803769], [2188.4422398478623, 8.0], [2283.8625025347137, 7.0], [2297.396709994046, 6.8689832529114065], [2371.9979437068673, 6.0], [2462.2888266898062, 5.098939057885406], [2471.647604126431, 5.0], [2563.825597655558, 4.0], [2639.01582154576, 3.31059785991044], [2672.377611958152, 3.0], [2783.3167858204724, 2.0], [2828.427124746159, 1.6420331781752795], [2914.1168472513277, 1.0], [3031.433133020758, 0.2091635057915454], [3070.348245839613, 0.0], [3249.0095854249043, -0.9099959352114941], [3276.186649323914, -1.0], [3482.2022531844555, -1.672341353635757], [3711.3878402279074, -2.0], [3732.1319661471844, -2.0316617666027805], [3999.9999999999554, -2.080256467674707], [4112.020777866049, -2.0], [4287.093850145118, -1.8933677843062626], [4594.793419988081, -1.6107396382543167], [4924.577653379601, -1.334935181345367], [5278.031643091506, -1.1795124611800465], [5656.854249492303, -1.2317939793544144], [6062.866266041508, -1.4936714047364907], [6498.019170849792, -1.8833381575342052], [6619.263628866393, -2.0], [6964.4045063688845, -2.3432591879249616], [7464.2639322943505, -2.754900321824955], [7798.006430536765, -3.0], [7999.999999999882, -3.159570613130004]], 'minus_line': [[125.0, 8.57394970577222], [127.59303188463304, 8.0], [131.58815030960537, 7.0], [133.9716828170366, 6.426175037043388], [136.3877983856838, 6.0], [141.54098836340026, 5.0], [143.5872943746293, 4.612219072753537], [148.82756403468687, 4.0], [153.89305166811442, 3.406404635231525], [164.93848884661162, 3.0335717680942085], [176.77669529663666, 3.6641135842303028], [179.47743125267044, 4.0], [187.8672622595959, 5.0], [189.46457081379947, 5.17578925479701], [194.26242184937988, 6.0], [200.67882755793818, 7.0], [203.0630990890585, 7.322574091232959], [206.8771831143687, 8.0], [212.63731263909153, 9.0], [217.6376408240306, 9.700979801669028], [219.62984632476494, 10.0], [226.01246248204652, 11.0], [233.25824788420132, 11.91669157757331], [234.02031918229116, 12.0], [242.9117877560224, 13.0], [249.99999999999937, 13.679118267793134], [255.11941206262662, 13.999999999999998], [267.94336563407256, 14.766139636141787], [279.35395723706137, 15.0], [287.1745887492579, 15.170029719901976], [306.74761184666585, 15.0], [307.78610333622845, 14.992355859824999], [329.87697769322244, 14.494628564918877], [347.99482118698234, 14.0], [353.55339059327247, 13.860903871756008], [378.929141627598, 13.37092832391199], [406.12619817811606, 13.13377751487047], [435.2752816480601, 13.255762591528018], [466.5164957684015, 13.691065920560238], [482.528760035574, 14.0], [499.9999999999975, 14.345195639236557], [534.5374782817061, 15.0], [535.8867312681438, 15.026254235080742], [574.3491774985137, 15.606801477034452], [615.5722066724546, 15.879764755439556], [659.7539553864432, 15.815204702087092], [707.1067811865431, 15.42338196278744], [739.2874375179492, 15.0], [757.8582832551941, 14.776933138054405], [812.2523963562301, 14.047006912133737], [816.2443669092884, 14.0], [870.5505632961181, 13.422207236207663], [931.5346625401108, 13.0], [933.0329915368008, 12.990653028077332], [999.9999999999926, 12.91120316028907], [1023.035285704162, 13.0], [1071.773462536285, 13.202429152465339], [1148.698354997026, 13.81523977264029], [1166.0785677370454, 13.999999999999998], [1231.1444133449063, 14.682655384551627], [1259.6344846212246, 15.0], [1319.5079107728832, 15.650034430966828], [1355.5576775432733, 16.0], [1414.2135623730828, 16.558864191862448], [1480.198988245307, 17.0], [1515.7165665103864, 17.242063070724804], [1624.5047927124563, 17.580964379376738], [1741.1011265922318, 17.48600613116876], [1845.2222695770183, 17.0], [1866.0659830735992, 16.91167183144883], [1987.6319695539567, 16.0], [1999.9999999999802, 15.91069492058444], [2096.058747647239, 15.0], [2143.5469250725646, 14.54727166585766], [2196.357878873736, 14.0], [2286.240838348405, 13.0], [2297.396709994046, 12.883681292823344], [2381.9029194705395, 12.0], [2462.2888266898062, 11.090405499440164], [2471.758318401077, 11.0], [2572.019226380595, 10.0], [2639.01582154576, 9.30192915337821], [2675.006193204521, 9.0], [2786.4854286424998, 8.0], [2828.427124746159, 7.630889541292271], [2920.193880257998, 7.0], [3031.4331330207615, 6.199347686423913], [3070.3307602356194, 6.0], [3249.0095854249043, 5.084399563744925], [3274.2892381000897, 5.0], [3482.2022531844555, 4.354667804022671], [3707.627575672556, 4.0], [3732.131966147189, 3.96544660418344], [3999.9999999999554, 3.9243892923269024], [4115.527905814555, 4.0], [4287.093850145118, 4.123753781923438], [4594.793419988081, 4.436562213315779], [4924.577653379601, 4.706451235597838], [5278.031643091506, 4.8429209339405315], [5656.854249492303, 4.801032932041448], [6062.866266041508, 4.5705766032208235], [6498.019170849792, 4.154578023295489], [6625.246467648534, 4.0], [6964.404506368894, 3.6387675591814226], [7464.2639322943505, 3.113781666241427], [7637.052320106013, 3.0], [7999.999999999872, 2.7901056167925202]]}",luctew,001,fr,200,2022-05-12_14h18.55.564,Bayesian,2022.1.1,None,
