practice.thisRepN,practice.thisTrialN,practice.thisN,practice.thisIndex,trials.thisRepN,trials.thisTrialN,trials.thisN,trials.thisIndex,blank_txt.started,blank_txt.stopped,practice_frequency,practice_level,psychopy_volume,tProbe.started,tProbe.stopped,tFeedback.keys,tFeedback.corr,tFeedback.rt,tFeedback.started,tFeedback.stopped,tToo_early.keys,tToo_early.corr,tToo_early.started,tToo_early.stopped,tToo_late.keys,tToo_late.corr,tToo_late.started,tToo_late.stopped,you_done_goofed.started,you_done_goofed.stopped,Init_phase,Frequency,Level,Psychopy_Volume,Catch trial,probe.started,probe.stopped,feedback.keys,feedback.corr,feedback.rt,feedback.started,feedback.stopped,too_late.keys,too_late.corr,too_late.started,too_late.stopped,too_late.rt,Audiogram,participant,session,Language (english or french),Tone duration (ms),date,expName,psychopyVersion,frameRate,
0,0,0,0,,,,,47.4774577000062,None,567,40,0.006099267302654233,1.0083850666705985,None,['space'],1,[0.39776660001371056],49.48800739998114,50.48513180000009,None,1,48.49247440000181,49.48800739998114,None,1,50.48513180000009,None,51.53048349998426,None,,,,,,,,,,,,,,,,,,,regvnx,001,fr,200,2022-04-28_14h47.25.555,Bayesian,2022.1.1,None,
1,0,1,0,,,,,,,234,40,0.019882976039061955,1.0021345666318666,None,['space'],1,[0.3731270999996923],54.48872329998994,55.49121009997907,None,1,53.51788229998783,54.52797439999995,None,1,55.49121009997907,None,56.52374579999014,None,,,,,,,,,,,,,,,,,,,regvnx,001,fr,200,2022-04-28_14h47.25.555,Bayesian,2022.1.1,None,
2,0,2,0,,,,,,,2345,40,0.008245949202640053,0.9992911666631699,None,['space'],1,[0.26027639998937957],59.451394799980335,60.455264599993825,None,1,58.46022249999805,59.46247619998758,None,1,60.455264599993825,None,61.48647959998925,None,,,,,,,,,,,,,,,,,,,regvnx,001,fr,200,2022-04-28_14h47.25.555,Bayesian,2022.1.1,None,
,,,,0,0,0,0,67.31166219999432,None,,,,,,,,,,,,,,,,,,,,,"{'x': [], 'y': [], 'is_init_phase': True, 'is_exam_finished': False, 'threshold_uncertainty_db': 6}",1000,60,0.0440524436504007,False,0.005052066670032218,None,['space'],1,[0.4023979000048712],69.06859909999184,70.07765950000612,None,1,70.07765950000612,None,,,regvnx,001,fr,200,2022-04-28_14h47.25.555,Bayesian,2022.1.1,None,
,,,,1,0,1,0,,,,,,,,,,,,,,,,,,,,,,,"{'x': [[1000, 60]], 'y': [[1]], 'audiogram': {}, 'is_init_phase': True, 'is_exam_finished': False, 'threshold_uncertainty_db': 6}",1000,40,0.004405244365040069,False,0.012415633333148435,0.21067793332622387,['space'],1,[0.46781400000327267],73.08268329998828,74.11179269998684,None,1,74.11179269998684,73.08268329998828,,,regvnx,001,fr,200,2022-04-28_14h47.25.555,Bayesian,2022.1.1,None,
,,,,2,0,2,0,,,,,,,,,,,,,,,,,,,,,,,"{'x': [[1000, 60], [1000, 40]], 'y': [[1], [1]], 'audiogram': {}, 'is_init_phase': True, 'is_exam_finished': False, 'threshold_uncertainty_db': 6}",1000,20,0.0004405244365040069,False,0.01077140000415966,None,['space'],1,[0.874953499995172],75.63586589999613,76.6409633999865,None,1,76.6409633999865,75.63586589999613,,,regvnx,001,fr,200,2022-04-28_14h47.25.555,Bayesian,2022.1.1,None,
,,,,3,0,3,0,,,,,,,,,,,,,,,,,,,,,,,"{'x': [[1000, 60], [1000, 40], [1000, 20]], 'y': [[1], [1], [1]], 'audiogram': {}, 'is_init_phase': True, 'is_exam_finished': False, 'threshold_uncertainty_db': 6}",1000,0,4.405244365040069e-05,False,0.01142180000897497,None,['space'],1,[0.5712576000078116],78.43490339998971,79.45487379998667,None,1,79.45487379998667,78.43490339998971,,,regvnx,001,fr,200,2022-04-28_14h47.25.555,Bayesian,2022.1.1,None,
,,,,4,0,4,0,,,,,,,,,,,,,,,,,,,,,,,"{'x': [[1000, 60], [1000, 40], [1000, 20], [1000, 0]], 'y': [[1], [1], [1], [1]], 'audiogram': {}, 'is_init_phase': True, 'is_exam_finished': False, 'threshold_uncertainty_db': 6}",,,,True,0.014652833313448355,None,None,0,,82.15369779997854,83.15581649998785,None,1,83.15581649998785,82.15369779997854,,,regvnx,001,fr,200,2022-04-28_14h47.25.555,Bayesian,2022.1.1,None,
,,,,5,0,5,0,,,,,,,,,,,,,,,,,,,,,,,"{'x': [[1000, 60], [1000, 40], [1000, 20], [1000, 0]], 'y': [[1], [1], [1], [1]], 'audiogram': {}, 'is_init_phase': True, 'is_exam_finished': False, 'threshold_uncertainty_db': 6}",1000,-20,4.405244365040069e-06,False,0.016656800027703866,None,None,0,,85.25307979999343,86.28100590000395,None,1,86.28100590000395,85.25307979999343,,,regvnx,001,fr,200,2022-04-28_14h47.25.555,Bayesian,2022.1.1,None,
,,,,6,0,6,0,,,,,,,,,,,,,,,,,,,,,,,"{'x': [[1000, 60], [1000, 40], [1000, 20], [1000, 0], [1000, -20]], 'y': [[1], [1], [1], [1], [-1]], 'audiogram': {}, 'is_init_phase': True, 'is_exam_finished': False, 'threshold_uncertainty_db': 6}",1500,-10,1.527460556607758e-05,False,0.007751199998892844,None,None,0,,88.65345919999527,89.66207669998403,None,1,89.66207669998403,88.65345919999527,,,regvnx,001,fr,200,2022-04-28_14h47.25.555,Bayesian,2022.1.1,None,
,,,,7,0,7,0,,,,,,,,,,,,,,,,,,,,,,,"{'x': [[1000, 60], [1000, 40], [1000, 20], [1000, 0], [1000, -20], [1500, -10]], 'y': [[1], [1], [1], [1], [-1], [-1]], 'audiogram': {}, 'is_init_phase': True, 'is_exam_finished': False, 'threshold_uncertainty_db': 6}",1500,10,0.0001527460556607757,False,0.00828209999599494,None,['space'],1,[0.6148978999990504],91.1910949999874,92.1951662999927,None,1,92.1951662999927,91.1910949999874,,,regvnx,001,fr,200,2022-04-28_14h47.25.555,Bayesian,2022.1.1,None,
,,,,8,0,8,0,,,,,,,,,,,,,,,,,,,,,,,"{'x': [[1000, 60], [1000, 40], [1000, 20], [1000, 0], [1000, -20], [1500, -10], [1500, 10]], 'y': [[1], [1], [1], [1], [-1], [-1], [1]], 'audiogram': {}, 'is_init_phase': True, 'is_exam_finished': False, 'threshold_uncertainty_db': 6}",,,,True,0.010485533333849162,None,None,0,,94.36080169997877,95.37194389998331,None,1,95.37194389998331,94.36080169997877,,,regvnx,001,fr,200,2022-04-28_14h47.25.555,Bayesian,2022.1.1,None,
,,,,9,0,9,0,,,,,,,,,,,,,,,,,,,,,,,"{'x': [[1000, 60], [1000, 40], [1000, 20], [1000, 0], [1000, -20], [1500, -10], [1500, 10]], 'y': [[1], [1], [1], [1], [-1], [-1], [1]], 'audiogram': {}, 'is_init_phase': True, 'is_exam_finished': False, 'threshold_uncertainty_db': 6}",2000,-10,2.3657562948074015e-05,False,0.012036100000841543,None,None,0,,97.66918359999545,98.67435529999784,None,1,98.67435529999784,97.66918359999545,,,regvnx,001,fr,200,2022-04-28_14h47.25.555,Bayesian,2022.1.1,None,
,,,,10,0,10,0,,,,,,,,,,,,,,,,,,,,,,,"{'x': [[1000, 60], [1000, 40], [1000, 20], [1000, 0], [1000, -20], [1500, -10], [1500, 10], [2000, -10]], 'y': [[1], [1], [1], [1], [-1], [-1], [1], [-1]], 'audiogram': {}, 'is_init_phase': True, 'is_exam_finished': False, 'threshold_uncertainty_db': 6}",2000,10,0.00023657562948074026,False,0.006042500026524067,0.20178530001430772,['space'],1,[0.4951044000044931],100.54287269999622,101.54339169999002,None,1,101.54339169999002,100.54287269999622,,,regvnx,001,fr,200,2022-04-28_14h47.25.555,Bayesian,2022.1.1,None,
,,,,11,0,11,0,,,,,,,,,,,,,,,,,,,,,,,"{'x': [[1000, 60], [1000, 40], [1000, 20], [1000, 0], [1000, -20], [1500, -10], [1500, 10], [2000, -10], [2000, 10]], 'y': [[1], [1], [1], [1], [-1], [-1], [1], [-1], [1]], 'audiogram': {}, 'is_init_phase': True, 'is_exam_finished': False, 'threshold_uncertainty_db': 6}",3000,-10,1.7336842522626584e-05,False,0.00768070001504384,None,None,0,,102.99793559999671,104.00382419998641,None,1,104.00382419998641,102.99793559999671,,,regvnx,001,fr,200,2022-04-28_14h47.25.555,Bayesian,2022.1.1,None,
,,,,12,0,12,0,,,,,,,,,,,,,,,,,,,,,,,"{'x': [[1000, 60], [1000, 40], [1000, 20], [1000, 0], [1000, -20], [1500, -10], [1500, 10], [2000, -10], [2000, 10], [3000, -10]], 'y': [[1], [1], [1], [1], [-1], [-1], [1], [-1], [1], [-1]], 'audiogram': {}, 'is_init_phase': True, 'is_exam_finished': False, 'threshold_uncertainty_db': 6}",,,,True,0.014328933350043371,None,None,0,,105.79759679999552,106.81723069999134,['space'],0,106.81723069999134,105.79759679999552,[1.4210424000048079],,regvnx,001,fr,200,2022-04-28_14h47.25.555,Bayesian,2022.1.1,None,
,,,,13,0,13,0,,,,,,,,,,,,,,,,,,,,,,,"{'x': [[1000, 60], [1000, 40], [1000, 20], [1000, 0], [1000, -20], [1500, -10], [1500, 10], [2000, -10], [2000, 10], [3000, -10]], 'y': [[1], [1], [1], [1], [-1], [-1], [1], [-1], [1], [-1]], 'audiogram': {}, 'is_init_phase': True, 'is_exam_finished': False, 'threshold_uncertainty_db': 6}",3000,10,0.00017336842522626576,False,0.012079700012691319,None,None,0,,109.81689630000619,110.82102129998384,None,1,110.82102129998384,109.81689630000619,,,regvnx,001,fr,200,2022-04-28_14h47.25.555,Bayesian,2022.1.1,None,
,,,,14,0,14,0,,,,,,,,,,,,,,,,,,,,,,,"{'x': [[1000, 60], [1000, 40], [1000, 20], [1000, 0], [1000, -20], [1500, -10], [1500, 10], [2000, -10], [2000, 10], [3000, -10], [3000, 10]], 'y': [[1], [1], [1], [1], [-1], [-1], [1], [-1], [1], [-1], [-1]], 'audiogram': {}, 'is_init_phase': True, 'is_exam_finished': False, 'threshold_uncertainty_db': 6}",3000,30,0.001733684252262658,False,0.011940399999730289,None,['space'],1,[0.41721259997575544],112.14085689999047,113.15351020000526,None,1,113.15351020000526,112.14085689999047,,,regvnx,001,fr,200,2022-04-28_14h47.25.555,Bayesian,2022.1.1,None,
,,,,15,0,15,0,,,,,,,,,,,,,,,,,,,,,,,"{'x': [[1000, 60], [1000, 40], [1000, 20], [1000, 0], [1000, -20], [1500, -10], [1500, 10], [2000, -10], [2000, 10], [3000, -10], [3000, 10], [3000, 30]], 'y': [[1], [1], [1], [1], [-1], [-1], [1], [-1], [1], [-1], [-1], [1]], 'audiogram': {}, 'is_init_phase': True, 'is_exam_finished': False, 'threshold_uncertainty_db': 6}",4000,10,0.00026544222211549425,False,0.0075486999994609505,None,None,0,,114.31489019998116,115.32660339999711,['space'],0,115.32660339999711,114.31489019998116,[1.5346671000006609],,regvnx,001,fr,200,2022-04-28_14h47.25.555,Bayesian,2022.1.1,None,
,,,,16,0,16,0,,,,,,,,,,,,,,,,,,,,,,,"{'x': [[1000, 60], [1000, 40], [1000, 20], [1000, 0], [1000, -20], [1500, -10], [1500, 10], [2000, -10], [2000, 10], [3000, -10], [3000, 10], [3000, 30], [4000, 10]], 'y': [[1], [1], [1], [1], [-1], [-1], [1], [-1], [1], [-1], [-1], [1], [-1]], 'audiogram': {}, 'is_init_phase': True, 'is_exam_finished': False, 'threshold_uncertainty_db': 6}",,,,True,0.012752433307468891,None,None,0,,117.01437339998665,118.02623749998747,None,1,118.02623749998747,117.01437339998665,,,regvnx,001,fr,200,2022-04-28_14h47.25.555,Bayesian,2022.1.1,None,
,,,,17,0,17,0,,,,,,,,,,,,,,,,,,,,,,,"{'x': [[1000, 60], [1000, 40], [1000, 20], [1000, 0], [1000, -20], [1500, -10], [1500, 10], [2000, -10], [2000, 10], [3000, -10], [3000, 10], [3000, 30], [4000, 10]], 'y': [[1], [1], [1], [1], [-1], [-1], [1], [-1], [1], [-1], [-1], [1], [-1]], 'audiogram': {}, 'is_init_phase': True, 'is_exam_finished': False, 'threshold_uncertainty_db': 6}",4000,30,0.0026544222211549416,False,0.010045799979707226,None,['space'],1,[0.45409029998700134],119.41603329998907,120.43132459998014,None,1,120.43132459998014,119.41603329998907,,,regvnx,001,fr,200,2022-04-28_14h47.25.555,Bayesian,2022.1.1,None,
,,,,18,0,18,0,,,,,,,,,,,,,,,,,,,,,,,"{'x': [[1000, 60], [1000, 40], [1000, 20], [1000, 0], [1000, -20], [1500, -10], [1500, 10], [2000, -10], [2000, 10], [3000, -10], [3000, 10], [3000, 30], [4000, 10], [4000, 30]], 'y': [[1], [1], [1], [1], [-1], [-1], [1], [-1], [1], [-1], [-1], [1], [-1], [1]], 'audiogram': {}, 'is_init_phase': True, 'is_exam_finished': False, 'threshold_uncertainty_db': 6}",6000,10,0.00036641226656945183,False,0.00976970000192523,None,['space'],1,[0.4759663000004366],123.12240339998971,124.12556419998873,None,1,124.12556419998873,123.12240339998971,,,regvnx,001,fr,200,2022-04-28_14h47.25.555,Bayesian,2022.1.1,None,
,,,,19,0,19,0,,,,,,,,,,,,,,,,,,,,,,,"{'x': [[1000, 60], [1000, 40], [1000, 20], [1000, 0], [1000, -20], [1500, -10], [1500, 10], [2000, -10], [2000, 10], [3000, -10], [3000, 10], [3000, 30], [4000, 10], [4000, 30], [6000, 10]], 'y': [[1], [1], [1], [1], [-1], [-1], [1], [-1], [1], [-1], [-1], [1], [-1], [1], [1]], 'audiogram': {}, 'is_init_phase': True, 'is_exam_finished': False, 'threshold_uncertainty_db': 6}",6000,-10,3.664122665694518e-05,False,0.008675899996887892,None,None,0,,126.84082089998992,127.83886530000018,None,1,127.83886530000018,126.84082089998992,,,regvnx,001,fr,200,2022-04-28_14h47.25.555,Bayesian,2022.1.1,None,
,,,,20,0,20,0,,,,,,,,,,,,,,,,,,,,,,,"{'x': [[1000, 60], [1000, 40], [1000, 20], [1000, 0], [1000, -20], [1500, -10], [1500, 10], [2000, -10], [2000, 10], [3000, -10], [3000, 10], [3000, 30], [4000, 10], [4000, 30], [6000, 10], [6000, -10]], 'y': [[1], [1], [1], [1], [-1], [-1], [1], [-1], [1], [-1], [-1], [1], [-1], [1], [1], [-1]], 'audiogram': {}, 'is_init_phase': True, 'is_exam_finished': False, 'threshold_uncertainty_db': 6}",,,,True,0.01544473331887275,None,None,0,,128.86333029999514,129.88043239997933,None,1,129.88043239997933,128.86333029999514,,,regvnx,001,fr,200,2022-04-28_14h47.25.555,Bayesian,2022.1.1,None,
,,,,21,0,21,0,,,,,,,,,,,,,,,,,,,,,,,"{'x': [[1000, 60], [1000, 40], [1000, 20], [1000, 0], [1000, -20], [1500, -10], [1500, 10], [2000, -10], [2000, 10], [3000, -10], [3000, 10], [3000, 30], [4000, 10], [4000, 30], [6000, 10], [6000, -10]], 'y': [[1], [1], [1], [1], [-1], [-1], [1], [-1], [1], [-1], [-1], [1], [-1], [1], [1], [-1]], 'audiogram': {}, 'is_init_phase': True, 'is_exam_finished': False, 'threshold_uncertainty_db': 6}",8000,10,0.0005740768107484417,False,0.010784866695757955,None,['space'],1,[0.4635077999846544],131.022738700005,132.03078519998235,None,1,132.03078519998235,131.022738700005,,,regvnx,001,fr,200,2022-04-28_14h47.25.555,Bayesian,2022.1.1,None,
,,,,22,0,22,0,,,,,,,,,,,,,,,,,,,,,,,"{'x': [[1000, 60], [1000, 40], [1000, 20], [1000, 0], [1000, -20], [1500, -10], [1500, 10], [2000, -10], [2000, 10], [3000, -10], [3000, 10], [3000, 30], [4000, 10], [4000, 30], [6000, 10], [6000, -10], [8000, 10]], 'y': [[1], [1], [1], [1], [-1], [-1], [1], [-1], [1], [-1], [-1], [1], [-1], [1], [1], [-1], [1]], 'audiogram': {}, 'is_init_phase': True, 'is_exam_finished': False, 'threshold_uncertainty_db': 6}",8000,-10,5.740768107484415e-05,False,0.012306900025578216,None,None,0,,133.7584313999978,134.76942209998379,None,1,134.76942209998379,133.7584313999978,,,regvnx,001,fr,200,2022-04-28_14h47.25.555,Bayesian,2022.1.1,None,
,,,,23,0,23,0,,,,,,,,,,,,,,,,,,,,,,,"{'x': [[1000, 60], [1000, 40], [1000, 20], [1000, 0], [1000, -20], [1500, -10], [1500, 10], [2000, -10], [2000, 10], [3000, -10], [3000, 10], [3000, 30], [4000, 10], [4000, 30], [6000, 10], [6000, -10], [8000, 10], [8000, -10]], 'y': [[1], [1], [1], [1], [-1], [-1], [1], [-1], [1], [-1], [-1], [1], [-1], [1], [1], [-1], [1], [-1]], 'audiogram': {}, 'is_init_phase': True, 'is_exam_finished': False, 'threshold_uncertainty_db': 6}",750,-10,1.2851978913844322e-05,False,0.011958399991272017,None,None,0,,137.60624150000513,138.61153110000305,None,1,138.61153110000305,137.60624150000513,,,regvnx,001,fr,200,2022-04-28_14h47.25.555,Bayesian,2022.1.1,None,
,,,,24,0,24,0,,,,,,,,,,,,,,,,,,,,,,,"{'x': [[1000, 60], [1000, 40], [1000, 20], [1000, 0], [1000, -20], [1500, -10], [1500, 10], [2000, -10], [2000, 10], [3000, -10], [3000, 10], [3000, 30], [4000, 10], [4000, 30], [6000, 10], [6000, -10], [8000, 10], [8000, -10], [750, -10]], 'y': [[1], [1], [1], [1], [-1], [-1], [1], [-1], [1], [-1], [-1], [1], [-1], [1], [1], [-1], [1], [-1], [-1]], 'audiogram': {}, 'is_init_phase': True, 'is_exam_finished': False, 'threshold_uncertainty_db': 6}",,,,True,0.009277933306293562,None,None,0,,139.9468715999974,140.9537689999852,None,1,140.9537689999852,139.9468715999974,,,regvnx,001,fr,200,2022-04-28_14h47.25.555,Bayesian,2022.1.1,None,
,,,,25,0,25,0,,,,,,,,,,,,,,,,,,,,,,,"{'x': [[1000, 60], [1000, 40], [1000, 20], [1000, 0], [1000, -20], [1500, -10], [1500, 10], [2000, -10], [2000, 10], [3000, -10], [3000, 10], [3000, 30], [4000, 10], [4000, 30], [6000, 10], [6000, -10], [8000, 10], [8000, -10], [750, -10]], 'y': [[1], [1], [1], [1], [-1], [-1], [1], [-1], [1], [-1], [-1], [1], [-1], [1], [1], [-1], [1], [-1], [-1]], 'audiogram': {}, 'is_init_phase': True, 'is_exam_finished': False, 'threshold_uncertainty_db': 6}",750,10,0.00012851978913844324,False,0.015548900002613664,None,['space'],1,[0.5114031000121031],142.879283199989,143.8826535999833,None,1,143.8826535999833,142.879283199989,,,regvnx,001,fr,200,2022-04-28_14h47.25.555,Bayesian,2022.1.1,None,
,,,,26,0,26,0,,,,,,,,,,,,,,,,,,,,,,,"{'x': [[1000, 60], [1000, 40], [1000, 20], [1000, 0], [1000, -20], [1500, -10], [1500, 10], [2000, -10], [2000, 10], [3000, -10], [3000, 10], [3000, 30], [4000, 10], [4000, 30], [6000, 10], [6000, -10], [8000, 10], [8000, -10], [750, -10], [750, 10]], 'y': [[1], [1], [1], [1], [-1], [-1], [1], [-1], [1], [-1], [-1], [1], [-1], [1], [1], [-1], [1], [-1], [-1], [1]], 'audiogram': {}, 'is_init_phase': True, 'is_exam_finished': False, 'threshold_uncertainty_db': 6}",500,-10,2.259279721874613e-05,False,0.011268199974438176,None,None,0,,145.94202759998734,146.95261799998116,None,1,146.95261799998116,145.94202759998734,,,regvnx,001,fr,200,2022-04-28_14h47.25.555,Bayesian,2022.1.1,None,
,,,,27,0,27,0,,,,,,,,,,,,,,,,,,,,,,,"{'x': [[1000, 60], [1000, 40], [1000, 20], [1000, 0], [1000, -20], [1500, -10], [1500, 10], [2000, -10], [2000, 10], [3000, -10], [3000, 10], [3000, 30], [4000, 10], [4000, 30], [6000, 10], [6000, -10], [8000, 10], [8000, -10], [750, -10], [750, 10], [500, -10]], 'y': [[1], [1], [1], [1], [-1], [-1], [1], [-1], [1], [-1], [-1], [1], [-1], [1], [1], [-1], [1], [-1], [-1], [1], [-1]], 'audiogram': {}, 'is_init_phase': True, 'is_exam_finished': False, 'threshold_uncertainty_db': 6}",500,10,0.0002259279721874612,False,0.011174599989317358,None,['space'],1,[0.42840229999274015],149.71452459998545,150.71553960000165,None,1,150.71553960000165,149.71452459998545,,,regvnx,001,fr,200,2022-04-28_14h47.25.555,Bayesian,2022.1.1,None,
,,,,28,0,28,0,,,,,,,,,,,,,,,,,,,,,,,"{'x': [[1000, 60], [1000, 40], [1000, 20], [1000, 0], [1000, -20], [1500, -10], [1500, 10], [2000, -10], [2000, 10], [3000, -10], [3000, 10], [3000, 30], [4000, 10], [4000, 30], [6000, 10], [6000, -10], [8000, 10], [8000, -10], [750, -10], [750, 10], [500, -10], [500, 10]], 'y': [[1], [1], [1], [1], [-1], [-1], [1], [-1], [1], [-1], [-1], [1], [-1], [1], [1], [-1], [1], [-1], [-1], [1], [-1], [1]], 'audiogram': {}, 'is_init_phase': True, 'is_exam_finished': False, 'threshold_uncertainty_db': 6}",,,,True,0.014741433318704367,None,None,0,,153.38508340000408,154.39931839998462,None,1,154.39931839998462,153.38508340000408,,,regvnx,001,fr,200,2022-04-28_14h47.25.555,Bayesian,2022.1.1,None,
,,,,29,0,29,0,,,,,,,,,,,,,,,,,,,,,,,"{'x': [[1000, 60], [1000, 40], [1000, 20], [1000, 0], [1000, -20], [1500, -10], [1500, 10], [2000, -10], [2000, 10], [3000, -10], [3000, 10], [3000, 30], [4000, 10], [4000, 30], [6000, 10], [6000, -10], [8000, 10], [8000, -10], [750, -10], [750, 10], [500, -10], [500, 10]], 'y': [[1], [1], [1], [1], [-1], [-1], [1], [-1], [1], [-1], [-1], [1], [-1], [1], [1], [-1], [1], [-1], [-1], [1], [-1], [1]], 'audiogram': {}, 'is_init_phase': True, 'is_exam_finished': False, 'threshold_uncertainty_db': 6}",250,-10,5.296268625886443e-05,False,0.014350700017530471,None,None,0,,155.48248589999275,156.49086869999883,None,1,156.49086869999883,155.48248589999275,,,regvnx,001,fr,200,2022-04-28_14h47.25.555,Bayesian,2022.1.1,None,
,,,,30,0,30,0,,,,,,,,,,,,,,,,,,,,,,,"{'x': [[1000, 60], [1000, 40], [1000, 20], [1000, 0], [1000, -20], [1500, -10], [1500, 10], [2000, -10], [2000, 10], [3000, -10], [3000, 10], [3000, 30], [4000, 10], [4000, 30], [6000, 10], [6000, -10], [8000, 10], [8000, -10], [750, -10], [750, 10], [500, -10], [500, 10], [250, -10]], 'y': [[1], [1], [1], [1], [-1], [-1], [1], [-1], [1], [-1], [-1], [1], [-1], [1], [1], [-1], [1], [-1], [-1], [1], [-1], [1], [-1]], 'audiogram': {}, 'is_init_phase': True, 'is_exam_finished': False, 'threshold_uncertainty_db': 6}",250,10,0.0005296268625886444,False,0.010936500038951635,None,None,0,,157.75547889998415,158.76922220000415,None,1,158.76922220000415,157.75547889998415,,,regvnx,001,fr,200,2022-04-28_14h47.25.555,Bayesian,2022.1.1,None,
,,,,31,0,31,0,,,,,,,,,,,,,,,,,,,,,,,"{'x': [[1000, 60], [1000, 40], [1000, 20], [1000, 0], [1000, -20], [1500, -10], [1500, 10], [2000, -10], [2000, 10], [3000, -10], [3000, 10], [3000, 30], [4000, 10], [4000, 30], [6000, 10], [6000, -10], [8000, 10], [8000, -10], [750, -10], [750, 10], [500, -10], [500, 10], [250, -10], [250, 10]], 'y': [[1], [1], [1], [1], [-1], [-1], [1], [-1], [1], [-1], [-1], [1], [-1], [1], [1], [-1], [1], [-1], [-1], [1], [-1], [1], [-1], [-1]], 'audiogram': {}, 'is_init_phase': True, 'is_exam_finished': False, 'threshold_uncertainty_db': 6}",250,30,0.005296268625886445,False,0.016469900001538917,None,['space'],1,[0.38511609999113716],161.8534860999789,162.8635502999823,None,1,162.8635502999823,161.8534860999789,,,regvnx,001,fr,200,2022-04-28_14h47.25.555,Bayesian,2022.1.1,None,
,,,,32,0,32,0,,,,,,,,,,,,,,,,,,,,,,,"{'x': [[1000, 60], [1000, 40], [1000, 20], [1000, 0], [1000, -20], [1500, -10], [1500, 10], [2000, -10], [2000, 10], [3000, -10], [3000, 10], [3000, 30], [4000, 10], [4000, 30], [6000, 10], [6000, -10], [8000, 10], [8000, -10], [750, -10], [750, 10], [500, -10], [500, 10], [250, -10], [250, 10], [250, 30]], 'y': [[1], [1], [1], [1], [-1], [-1], [1], [-1], [1], [-1], [-1], [1], [-1], [1], [1], [-1], [1], [-1], [-1], [1], [-1], [1], [-1], [-1], [1]], 'audiogram': {}, 'is_init_phase': True, 'is_exam_finished': False, 'threshold_uncertainty_db': 6}",,,,True,0.013600233301986009,None,None,0,,164.65963919999194,165.6760534000059,None,1,165.6760534000059,164.65963919999194,,,regvnx,001,fr,200,2022-04-28_14h47.25.555,Bayesian,2022.1.1,None,
,,,,33,0,33,0,,,,,,,,,,,,,,,,,,,,,,,"{'x': [[1000, 60], [1000, 40], [1000, 20], [1000, 0], [1000, -20], [1500, -10], [1500, 10], [2000, -10], [2000, 10], [3000, -10], [3000, 10], [3000, 30], [4000, 10], [4000, 30], [6000, 10], [6000, -10], [8000, 10], [8000, -10], [750, -10], [750, 10], [500, -10], [500, 10], [250, -10], [250, 10], [250, 30]], 'y': [[1], [1], [1], [1], [-1], [-1], [1], [-1], [1], [-1], [-1], [1], [-1], [1], [1], [-1], [1], [-1], [-1], [1], [-1], [1], [-1], [-1], [1]], 'audiogram': {}, 'is_init_phase': True, 'is_exam_finished': False, 'threshold_uncertainty_db': 6}",125,10,0.002285440948074376,False,0.010818799986736849,None,None,0,,167.16589259999455,168.18586779999896,['space'],0,168.18586779999896,167.16589259999455,[0.3717690000194125],,regvnx,001,fr,200,2022-04-28_14h47.25.555,Bayesian,2022.1.1,None,
,,,,34,0,34,0,,,,,,,,,,,,,,,,,,,,,,,"{'x': [[1000, 60], [1000, 40], [1000, 20], [1000, 0], [1000, -20], [1500, -10], [1500, 10], [2000, -10], [2000, 10], [3000, -10], [3000, 10], [3000, 30], [4000, 10], [4000, 30], [6000, 10], [6000, -10], [8000, 10], [8000, -10], [750, -10], [750, 10], [500, -10], [500, 10], [250, -10], [250, 10], [250, 30], [125, 10]], 'y': [[1], [1], [1], [1], [-1], [-1], [1], [-1], [1], [-1], [-1], [1], [-1], [1], [1], [-1], [1], [-1], [-1], [1], [-1], [1], [-1], [-1], [1], [-1]], 'audiogram': {}, 'is_init_phase': True, 'is_exam_finished': False, 'threshold_uncertainty_db': 6}",125,20,0.00722719885372964,False,0.015944400016451254,None,['space'],1,[0.3576112999871839],169.96052110000164,170.9742489999917,None,1,170.9742489999917,169.96052110000164,,,regvnx,001,fr,200,2022-04-28_14h47.25.555,Bayesian,2022.1.1,None,
,,,,35,0,35,0,,,,,,,,,,,,,,,,,,,,,,,"{'x': [[1000, 60], [1000, 40], [1000, 20], [1000, 0], [1000, -20], [1500, -10], [1500, 10], [2000, -10], [2000, 10], [3000, -10], [3000, 10], [3000, 30], [4000, 10], [4000, 30], [6000, 10], [6000, -10], [8000, 10], [8000, -10], [750, -10], [750, 10], [500, -10], [500, 10], [250, -10], [250, 10], [250, 30], [125, 10], [125, 20]], 'y': [[1], [1], [1], [1], [-1], [-1], [1], [-1], [1], [-1], [-1], [1], [-1], [1], [1], [-1], [1], [-1], [-1], [1], [-1], [1], [-1], [-1], [1], [-1], [1]], 'audiogram': {}, 'is_init_phase': True, 'is_exam_finished': False, 'threshold_uncertainty_db': 6}",353.5533905932738,9.0,0.0002497434789550849,False,0.0005706333031412214,None,None,0,,175.39904829999432,176.430826900003,None,1,176.430826900003,175.39904829999432,,,regvnx,001,fr,200,2022-04-28_14h47.25.555,Bayesian,2022.1.1,None,
,,,,36,0,36,0,,,,,,,,,,,,,,,,,,,,,,,,,,,True,0.012679533334448934,None,None,0,,178.87900049999007,179.89902129999246,None,1,179.89902129999246,178.87900049999007,,,regvnx,001,fr,200,2022-04-28_14h47.25.555,Bayesian,2022.1.1,None,
,,,,37,0,37,0,,,,,,,,,,,,,,,,,,,,,,,,189.4645708137998,15.0,0.0017084605332667944,False,5.573331145569682e-05,0.18433443331741728,['space'],1,[0.3923844000091776],183.38169469998684,184.3876190999872,None,1,184.3876190999872,183.38169469998684,,,regvnx,001,fr,200,2022-04-28_14h47.25.555,Bayesian,2022.1.1,None,
,,,,38,0,38,0,,,,,,,,,,,,,,,,,,,,,,,,8000.0,2.0,0.0002285440948074376,False,0.010064233327284455,None,['space'],1,[0.3955596999730915],187.5224294999789,188.54184649998206,None,1,188.54184649998206,187.5224294999789,,,regvnx,001,fr,200,2022-04-28_14h47.25.555,Bayesian,2022.1.1,None,
,,,,39,0,39,0,,,,,,,,,,,,,,,,,,,,,,,,659.7539553864473,0.0,4.855544497866433e-05,False,0.007405300013488159,None,None,0,,192.62852249998832,193.63023569999496,None,1,193.63023569999496,192.62852249998832,,,regvnx,001,fr,200,2022-04-28_14h47.25.555,Bayesian,2022.1.1,None,
,,,,40,0,40,0,,,,,,,,,,,,,,,,,,,,,,,,1414.213562373095,-1.0,4.494787037834757e-05,False,0.0094606333586853,None,None,0,,197.55342919999384,198.57116019999376,['space'],0,198.57116019999376,197.55342919999384,[0.8188156000105664],,regvnx,001,fr,200,2022-04-28_14h47.25.555,Bayesian,2022.1.1,None,
,,,,41,0,41,0,,,,,,,,,,,,,,,,,,,,,,,,,,,True,0.009349233325337991,None,None,0,,199.76645130000543,200.79008099998464,None,1,200.79008099998464,199.76645130000543,,,regvnx,001,fr,200,2022-04-28_14h47.25.555,Bayesian,2022.1.1,None,
,,,,42,0,42,0,,,,,,,,,,,,,,,,,,,,,,,,5278.031643091578,7.0,0.00031900269775884976,False,0.005175966682145372,None,['space'],1,[0.38135650000185706],204.20861729999888,205.22755250000046,None,1,205.22755250000046,204.20861729999888,,,regvnx,001,fr,200,2022-04-28_14h47.25.555,Bayesian,2022.1.1,None,
,,,,43,0,43,0,,,,,,,,,,,,,,,,,,,,,,,,307.7861033362292,15.0,0.0005975641567313955,False,0.012631633318960667,None,None,0,,207.7397869999986,208.75078099998063,None,1,208.75078099998063,207.7397869999986,,,regvnx,001,fr,200,2022-04-28_14h47.25.555,Bayesian,2022.1.1,None,
,,,,44,0,44,0,,,,,,,,,,,,,,,,,,,,,,,,2639.015821545789,12.0,0.0003075638911657634,False,0.012927666684845462,None,['space'],1,[0.44418059999588877],212.99454359998344,214.0038316999853,None,1,214.0038316999853,212.99454359998344,,,regvnx,001,fr,200,2022-04-28_14h47.25.555,Bayesian,2022.1.1,None,
,,,,45,0,45,0,,,,,,,,,,,,,,,,,,,,,,,,176.7766952966369,10.0,0.0011068635160945309,False,0.014057333319215104,None,['space'],1,[0.4777973000018392],216.43226820000564,217.44079039999633,None,1,217.44079039999633,216.43226820000564,,,regvnx,001,fr,200,2022-04-28_14h47.25.555,Bayesian,2022.1.1,None,
,,,,46,0,46,0,,,,,,,,,,,,,,,,,,,,,,,,406.12619817811805,13.0,0.0003405575752341679,False,0.009796033351449296,None,['space'],1,[0.5422781000088435],219.95153729998856,220.96071869999287,None,1,220.96071869999287,219.95153729998856,,,regvnx,001,fr,200,2022-04-28_14h47.25.555,Bayesian,2022.1.1,None,
,,,,47,0,47,0,,,,,,,,,,,,,,,,,,,,,,,,,,,True,0.012451233313186094,None,None,0,,222.8906733999902,223.900306800002,None,1,223.900306800002,222.8906733999902,,,regvnx,001,fr,200,2022-04-28_14h47.25.555,Bayesian,2022.1.1,None,
,,,,48,0,48,0,,,,,,,,,,,,,,,,,,,,,,,,2000.0,4.0,0.00011856868528308277,False,0.0006559333414770663,None,None,0,,226.49313809999148,227.5083490999823,None,1,227.5083490999823,226.49313809999148,,,regvnx,001,fr,200,2022-04-28_14h47.25.555,Bayesian,2022.1.1,None,
,,,,49,0,49,0,,,,,,,,,,,,,,,,,,,,,,,,8000.0,-2.0,0.00014420157515633036,False,0.014278266666224226,None,['space'],1,[0.1371950999891851],231.0449149000051,232.07005079998635,None,1,232.07005079998635,231.0449149000051,,,regvnx,001,fr,200,2022-04-28_14h47.25.555,Bayesian,2022.1.1,None,
,,,,50,0,50,0,,,,,,,,,,,,,,,,,,,,,,,,933.0329915368076,-1.0,3.756544065126319e-05,False,0.004747899976791814,0.1968788999656681,None,0,,234.78953759997967,235.81070349999936,None,1,235.81070349999936,234.78953759997967,,,regvnx,001,fr,200,2022-04-28_14h47.25.555,Bayesian,2022.1.1,None,
,,,,51,0,51,0,,,,,,,,,,,,,,,,,,,,,,,,,,,True,0.012791033339453861,None,None,0,,237.21217699997942,238.219379999995,None,1,238.219379999995,237.21217699997942,,,regvnx,001,fr,200,2022-04-28_14h47.25.555,Bayesian,2022.1.1,None,
,,,,52,0,52,0,,,,,,,,,,,,,,,,,,,,,,,,125.0,12.0,0.002877199686685786,False,0.002703833335544914,None,['space'],1,[0.4154547000071034],242.60693409998203,243.60709030000726,None,1,243.60709030000726,242.60693409998203,,,regvnx,001,fr,200,2022-04-28_14h47.25.555,Bayesian,2022.1.1,None,
,,,,53,0,53,0,,,,,,,,,,,,,,,,,,,,,,,,6062.8662660415985,-1.0,0.00010590954282987185,False,0.0016172666801139712,None,None,0,,246.08909669998684,247.11692479997873,None,1,247.11692479997873,246.08909669998684,,,regvnx,001,fr,200,2022-04-28_14h47.25.555,Bayesian,2022.1.1,None,
,,,,54,0,54,0,,,,,,,,,,,,,,,,,,,,,,,,233.2582478842019,13.0,0.0008946312709767914,False,0.011419566668337211,None,['space'],1,[0.3843529000005219],250.17347459998564,251.18490799999563,None,1,251.18490799999563,250.17347459998564,,,regvnx,001,fr,200,2022-04-28_14h47.25.555,Bayesian,2022.1.1,None,
,,,,55,0,55,0,,,,,,,,,,,,,,,,,,,,,,,,164.93848884661182,6.0,0.0007844083667336284,False,0.006518766662338749,None,None,0,,254.4795504999929,255.4905194999883,None,1,255.4905194999883,254.4795504999929,,,regvnx,001,fr,200,2022-04-28_14h47.25.555,Bayesian,2022.1.1,None,
,,,,56,0,56,0,,,,,,,,,,,,,,,,,,,,,,,,615.5722066724584,4.0,8.465768914838171e-05,False,0.01037216663826257,None,None,0,,258.8774591999827,259.8840519999794,None,1,259.8840519999794,258.8774591999827,,,regvnx,001,fr,200,2022-04-28_14h47.25.555,Bayesian,2022.1.1,None,
,,,,57,0,57,0,,,,,,,,,,,,,,,,,,,,,,,,1319.5079107728945,2.0,6.64505788502134e-05,False,0.015344833343988284,None,['space'],1,[0.2704446999996435],264.38419660000363,265.39967799998703,None,1,265.39967799998703,264.38419660000363,,,regvnx,001,fr,200,2022-04-28_14h47.25.555,Bayesian,2022.1.1,None,
,,,,58,0,58,0,,,,,,,,,,,,,,,,,,,,,,,,4000.0,12.0,0.0003341719587843073,False,0.01179746669367887,None,['space'],1,[0.3867296999960672],269.4033606000012,270.40801230000216,None,1,270.40801230000216,269.4033606000012,,,regvnx,001,fr,200,2022-04-28_14h47.25.555,Bayesian,2022.1.1,None,
,,,,59,0,59,0,,,,,,,,,,,,,,,,,,,,,,,,707.1067811865476,5.0,7.896084801026046e-05,False,0.010707566660130396,0.204687166668009,['space'],1,[0.4924909000110347],273.7783836000017,274.78009230000316,None,1,274.78009230000316,273.7783836000017,,,regvnx,001,fr,200,2022-04-28_14h47.25.555,Bayesian,2022.1.1,None,
,,,,60,0,60,0,,,,,,,,,,,,,,,,,,,,,,,,,,,True,0.013096533308271319,None,None,0,,276.1426580999978,277.1526710999897,None,1,277.1526710999897,276.1426580999978,,,regvnx,001,fr,200,2022-04-28_14h47.25.555,Bayesian,2022.1.1,None,
,,,,61,0,61,0,,,,,,,,,,,,,,,,,,,,,,,,8000.0,-3.0,0.00012851978913844324,False,0.0003895999980159104,0.18717190000461414,['space'],1,[0.41059929999755695],280.65963559999363,281.67613479998545,None,1,281.67613479998545,280.65963559999363,,,regvnx,001,fr,200,2022-04-28_14h47.25.555,Bayesian,2022.1.1,None,
,,,,62,0,62,0,,,,,,,,,,,,,,,,,,,,,,,,466.5164957684038,8.0,0.00018375854954277265,False,0.01605866666068323,None,None,0,,285.0308226000052,286.0472271000035,['space'],0,286.0472271000035,285.0308226000052,[0.286859399988316],,regvnx,001,fr,200,2022-04-28_14h47.25.555,Bayesian,2022.1.1,None,
,,,,63,0,63,0,,,,,,,,,,,,,,,,,,,,,,,,1866.0659830736151,6.0,0.0001372027087973376,False,0.003589933301554993,0.19371843329281546,None,0,,290.0057680000027,291.02026560000377,None,1,291.02026560000377,290.0057680000027,,,regvnx,001,fr,200,2022-04-28_14h47.25.555,Bayesian,2022.1.1,None,
,,,,64,0,64,0,,,,,,,,,,,,,,,,,,,,,,,,1866.0659830736151,6.0,0.0001372027087973376,False,None,None,None,0,,None,None,None,1,None,None,,"{'estimation': [[125.0, 10.304623667533402], [131.37950688792534, 10.0], [133.9716828170366, 9.883884019586125], [143.5872943746293, 9.327392786078], [149.3223779903173, 9.0], [153.89305166811442, 8.744118982546988], [164.93848884661162, 8.298594675522626], [176.77669529663666, 8.126603313503237], [189.46457081379947, 8.339567537691675], [203.0630990890584, 8.97933237528106], [203.3463460636921, 9.0], [217.59105565554722, 10.0], [217.6376408240306, 10.003153653638295], [229.6819307575766, 11.0], [233.25824788420132, 11.281977057807486], [242.10240981570558, 12.0], [249.99999999999937, 12.617590404467318], [255.71131543392713, 13.0], [267.94336563407256, 13.799277483978313], [272.4927080730132, 14.0], [287.1745887492579, 14.63300665385614], [307.78610333622805, 14.98075289920411], [329.87697769322284, 14.802047832703137], [353.55339059327247, 14.145644642329351], [356.98583300555316, 14.0], [378.929141627598, 13.12277952867055], [381.5146404594111, 13.0], [403.49665001156274, 12.0], [406.12619817811606, 11.88825572092145], [425.83548926901307, 11.0], [435.2752816480601, 10.600949711291051], [450.2187222523373, 10.0], [466.5164957684015, 9.372550712580114], [477.4966459566467, 9.0], [499.9999999999975, 8.259268945125038], [509.16991557794097, 8.0], [535.8867312681438, 7.265893656062652], [546.8713530524914, 7.0], [574.3491774985143, 6.355327238191471], [590.6193540354294, 6.0], [615.5722066724546, 5.471885552118489], [638.287111997393, 5.0], [659.7539553864432, 4.5664422515399155], [687.6199482597308, 4.0], [707.1067811865431, 3.613931926345404], [738.2029539291761, 3.0], [757.8582832551941, 2.6225153590744537], [791.6915117090106, 2.0], [812.2523963562301, 1.6340786099669593], [852.0925412860473, 1.0], [870.5505632961181, 0.7168349090307498], [929.257282824101, 0.0], [933.0329915367996, -0.04487844393366321], [999.9999999999926, -0.5735379308503946], [1071.773462536285, -0.8071052038285635], [1148.698354997026, -0.7158754527826777], [1231.1444133449063, -0.3061742969432709], [1269.3605476522123, 0.0], [1319.5079107728832, 0.3909938402499131], [1382.72153480536, 1.0], [1414.2135623730828, 1.2981642474797097], [1482.6044434790863, 2.0], [1515.7165665103846, 2.3344877233998993], [1581.827383737029, 3.0], [1624.5047927124563, 3.4218430018487784], [1686.2707142502452, 4.0], [1741.1011265922318, 4.500280192502128], [1800.2707560702593, 5.0], [1866.065983073597, 5.536491143744154], [1927.5853599073384, 6.0], [1999.9999999999827, 6.5228980451290886], [2070.793826280865, 7.0], [2143.5469250725646, 7.4685824928035265], [2231.1226475161243, 8.0], [2297.396709994046, 8.384666307639753], [2410.6583113921993, 9.0], [2462.2888266898062, 9.26914224171804], [2617.886707394793, 10.0], [2639.01582154576, 10.095842622510169], [2828.427124746159, 10.813257783380573], [2895.4339222860976, 11.0], [3031.4331330207615, 11.362623897012146], [3249.0095854249043, 11.657572712235277], [3482.202253184451, 11.64434753057462], [3732.1319661471844, 11.28236867232138], [3832.6187779268557, 11.0], [3999.9999999999554, 10.549794238151339], [4144.370229527485, 10.0], [4287.093850145118, 9.470557145006092], [4390.789209915418, 9.0], [4594.793419988081, 8.079166903500758], [4610.878053369565, 8.0], [4807.9996270041975, 7.0], [4924.577653379601, 6.430247481866139], [5008.26613442925, 6.0], [5196.463889270928, 5.0], [5278.0316430915, 4.594403300340517], [5394.511702530985, 4.0], [5586.220490455518, 3.0], [5656.854249492303, 2.6596206156066415], [5794.186184121125, 2.0], [6001.2784790713295, 1.0], [6062.866266041501, 0.7267151303390824], [6233.534897203104, 0.0], [6475.398989241641, -1.0], [6498.019170849792, -1.0865581870397054], [6761.6887549578805, -2.0], [6964.404506368902, -2.6555485117161233], [7102.626129705924, -3.0], [7464.2639322943505, -3.863706201873652], [7560.189650233938, -4.0], [7999.999999999892, -4.617538586112213]], 'plus_line': [[125.0, 7.561665982371963], [133.9716828170366, 7.230972920657928], [137.83924973927654, 7.0], [143.5872943746293, 6.640080316485051], [153.89305166811442, 6.0334612571477155], [154.66135355630527, 6.0], [164.93848884661162, 5.528095114610388], [176.77669529663666, 5.341688296883774], [189.46457081379947, 5.547070179146729], [198.48263498851153, 6.0], [203.0630990890585, 6.2090708354029145], [213.95341698105213, 7.0], [217.6376408240306, 7.256357783583242], [226.54385395420357, 8.0], [233.25824788420132, 8.557456327835641], [238.73777733619747, 9.0], [249.99999999999937, 9.93169195747235], [251.02180992209355, 10.0], [266.19237567584184, 11.0], [267.94336563407256, 11.111542310301747], [287.1745887492579, 11.917895416616899], [291.93172800697715, 12.000000000000002], [307.78610333622805, 12.237331416203762], [329.87697769322244, 12.061554057757387], [332.11849129931846, 12.0], [353.55339059327247, 11.411952760475126], [364.03780552626824, 11.0], [378.929141627598, 10.439888007036739], [388.7090556088492, 10.0], [406.12619817811606, 9.27414410531178], [412.25295939399933, 9.0], [435.2752816480601, 8.043883584454495], [436.35938713687926, 8.0], [461.52791657244416, 7.0], [466.5164957684015, 6.817667335286787], [490.4612063978675, 6.0], [499.9999999999975, 5.693223491671897], [524.4832345571939, 5.0], [535.8867312681438, 4.687569794958924], [564.6507964754554, 4.0], [574.3491774985143, 3.7717875949567103], [610.368107322574, 3.0], [615.5722066724546, 2.8893663376453986], [658.6951673072663, 2.0], [659.7539553864432, 1.9783832849029725], [707.1067811865431, 1.004665020314527], [707.3344956258344, 1.0], [757.3188646532038, 0.0], [757.8582832551941, -0.010502351708423488], [811.741657497405, -1.0], [812.2523963562301, -1.0091311130518124], [870.5505632961181, -1.9267405996131235], [876.4483900617028, -2.0], [933.0329915368008, -2.6998756281798153], [971.0332760775655, -3.0], [999.9999999999926, -3.2423352727784547], [1071.773462536285, -3.504656644610258], [1148.698354997026, -3.437817440631152], [1231.1444133449063, -3.022728430167338], [1233.917304716584, -3.0], [1319.5079107728848, -2.3680192344263444], [1358.2674136316214, -2.0], [1414.2135623730828, -1.4945643894920861], [1464.3396579761468, -1.0], [1515.7165665103846, -0.5044466890578537], [1568.009006470103, 0.0], [1624.5047927124563, 0.5376899435385392], [1675.2132920067497, 1.0], [1741.101126592234, 1.5904660658963705], [1789.6430477476995, 2.0], [1866.065983073597, 2.627176967596359], [1914.49286979261, 3.0], [1999.9999999999802, 3.6330900782586837], [2052.5402108249423, 4.0], [2143.5469250725646, 4.605808139277683], [2205.7760513729236, 5.0], [2297.396709994049, 5.549819600017345], [2376.2947122080413, 6.0], [2462.2888266898062, 6.4621823792597155], [2570.399064905403, 7.0], [2639.01582154576, 7.3191640922284025], [2808.3424982952447, 8.0], [2828.427124746159, 8.075016345331504], [3031.4331330207656, 8.627102294539458], [3249.0095854249043, 8.973734601581578], [3482.2022531844555, 8.9999541668657], [3732.1319661471844, 8.6440588464667], [3976.6624954069766, 8.0], [3999.9999999999504, 7.936763864679689], [4239.1144343392, 7.0], [4287.093850145118, 6.8210117161814345], [4454.038312035978, 6.0], [4594.793419988081, 5.373207971239006], [4664.381009169069, 5.0], [4853.314278871688, 4.0], [4924.577653379601, 3.6664169915856863], [5041.9894370929305, 3.0], [5233.461496839815, 2.0], [5278.0316430915, 1.7925732390932845], [5419.148846964221, 1.0], [5619.994486203187, 0.0], [5656.854249492303, -0.16397947193613055], [5817.412292266051, -1.0], [6040.241925455429, -2.0], [6062.866266041508, -2.0921325458357214], [6264.890687668892, -3.0], [6498.019170849792, -3.8784541540954214], [6533.086389651934, -4.0], [6823.535789913117, -5.0], [6964.4045063688845, -5.420864163151548], [7199.225183258368, -6.0], [7464.2639322943505, -6.608547221005917], [7718.384387897461, -7.0], [7999.999999999872, -7.445488075625164]], 'minus_line': [[125.0, 13.088195765027612], [126.33968367510916, 13.0], [133.9716828170366, 12.577993859440973], [143.41262507172755, 12.0], [143.5872943746293, 11.990281237722119], [153.89305166811442, 11.452222667944758], [164.76752583923013, 11.0], [164.93848884661162, 10.993605870861789], [176.77669529663666, 10.834162917625862], [186.88259637538016, 11.0], [189.46457081379947, 11.047028005542794], [203.0630990890585, 11.704189336328252], [207.16006287031203, 12.000000000000002], [217.63764082403046, 12.733432692091057], [220.7662882475591, 12.999999999999998], [233.1344052510496, 14.0], [233.25824788420132, 14.009628836606144], [244.86075899161827, 15.0], [249.99999999999937, 15.398258050923022], [258.56329733269223, 16.0], [267.94336563407256, 16.626430887879913], [276.06221741245076, 17.0], [287.1745887492579, 17.515761523908438], [307.78610333622805, 17.886361041425424], [329.87697769322244, 17.713048368258917], [353.0469358428598, 17.0], [353.55339059327247, 16.98578337450703], [376.06632195933093, 16.0], [378.929141627598, 15.881882742800094], [397.025496325593, 15.0], [406.12619817811606, 14.56932173698198], [418.31916845159935, 14.0], [435.2752816480601, 13.202641182272771], [440.25030733295915, 13.0], [464.5882255320598, 12.000000000000002], [466.5164957684015, 11.925091838435536], [494.42810834082354, 10.999999999999998], [499.9999999999975, 10.819355860580107], [530.0175235186706, 10.0], [535.8867312681438, 9.844311680134073], [572.1021489002802, 9.0], [574.3491774985143, 8.949452893965276], [615.5722066724546, 8.092753367806278], [620.0343190873909, 8.0], [659.7539553864432, 7.218215732411838], [670.5358966329474, 7.0], [707.1067811865431, 6.291217563929963], [721.8299228025877, 6.0], [757.8582832551941, 5.31329494916551], [774.5133061883006, 5.0], [812.2523963562301, 4.3190205823698165], [831.321717318047, 4.0], [870.5505632961181, 3.381587196858803], [899.5329333251581, 3.0], [933.0329915368008, 2.595033977671033], [999.9999999999926, 2.045601016000364], [1013.3141299297462, 2.0], [1071.773462536285, 1.8317527168936467], [1148.698354997026, 1.9433982841004833], [1159.3189516094135, 2.0], [1231.1444133449063, 2.4046057507622605], [1304.808644856997, 3.0], [1319.5079107728832, 3.1234711067592653], [1406.5406920661856, 4.0], [1414.2135623730828, 4.076964090349542], [1498.4157121538515, 5.0], [1515.7165665103846, 5.183420737949733], [1591.9914063905933, 6.0], [1624.5047927124563, 6.333249109240313], [1693.2921741367647, 7.0], [1741.1011265922318, 7.4434755807925255], [1807.069561042766, 8.0], [1866.065983073597, 8.47731985448771], [1937.7019114122909, 9.0], [1999.9999999999802, 9.43772882137189], [2087.644709536932, 10.0], [2143.5469250725646, 10.347675474742585], [2257.012058551718, 11.0], [2297.396709994046, 11.227028565430077], [2447.5149844828384, 12.0], [2462.2888266898062, 12.075250556441476], [2639.01582154576, 12.883822214089976], [2669.5594693627218, 12.999999999999998], [2828.427124746159, 13.604521289232316], [2983.845403851547, 14.0], [3031.4331330207615, 14.127821993301216], [3249.0095854249043, 14.412655310708931], [3482.2022531844555, 14.36259273338372], [3693.233322899451, 14.0], [3732.1319661471844, 13.941908078567572], [3999.9999999999504, 13.209420263651085], [4055.551599288459, 13.0], [4287.093850145118, 12.141376100185102], [4320.139518732366, 12.0], [4546.788917952429, 11.0], [4594.793419988081, 10.790280389788059], [4764.900347179274, 10.0], [4924.577653379601, 9.192086871335594], [4965.538041441594, 9.0], [5163.480310562827, 8.0], [5278.031643091506, 7.398707343129317], [5363.582613344916, 7.0], [5555.598848293481, 6.0], [5656.854249492303, 5.476568609726002], [5764.1756666006, 5.0], [5964.779856452497, 4.0], [6062.866266041508, 3.5270897622788606], [6193.386722568273, 3.0], [6417.06365258607, 2.0], [6498.019170849792, 1.660978069832973], [6691.070291842877, 1.0], [6964.404506368894, 0.004769574826064882], [6966.276027990979, 0.0], [7367.191446960985, -1.0], [7464.2639322943505, -1.2344886425151032], [7999.999999999882, -1.9245270843433355]]}",regvnx,001,fr,200,2022-04-28_14h47.25.555,Bayesian,2022.1.1,None,
