sweeps.thisRepN,sweeps.thisTrialN,sweeps.thisN,sweeps.thisIndex,trials.thisRepN,trials.thisTrialN,trials.thisN,trials.thisIndex,instructions.started,instructions.stopped,blank_text.started,blank_text.stopped,,text.started,text.stopped,Delay,Prediction,Frequency,Volume,Psychopy_level,isCatchTrial,len(y),finished_audiograms,probe.started,probe.stopped,feedback.keys,feedback.started,feedback.stopped,ISI.started,ISI.stopped,text_2.started,text_2.stopped,feedback.rt,break_txt.started,break_txt.stopped,Intervals,Audiogram_frequency,Audiogram_time,Audiogram_none,Audiogram_both,participant,session,language (english or french),Resume previous experiment,date,expName,psychopyVersion,frameRate,
0,0,0,0,0,0,0,0,25.46822889999021,None,47.67929339999682,None,0.16666666666666666,49.647463999979664,None,2.9382718705994524,both,141.0,8.088491667919673,0.001472510213569253,0,26,[],0.00536886666668579,0.19647916665417142,None,50.67177869999432,None,0.19647916665417142,3.134751037253624,50.883408900001086,None,,,,,,,,,ofgjwt,002,fr,0,2022-04-27_17h32.26.159,Continuous,2022.1.1,None,
0,0,0,0,1,0,1,0,,,,,,,,2.9382718705994524,both,158.0,-0.5625032747238503,0.00040202973689661326,0,27,[],0.005405066651292145,0.19553956665913574,['space'],53.844361099996604,53.844361099996604,0.19553956665913574,3.133811437258588,54.05575949998456,53.844361099996604,[-2.0299321000056807],,,,,,,,ofgjwt,002,fr,0,2022-04-27_17h32.26.159,Continuous,2022.1.1,None,
0,0,0,0,2,0,2,0,,,,,,,,2.9382718705994524,both,177.0,0.43627589271919565,0.00036719572275092666,0,28,[],0.009880766679998487,0.2032872666604817,None,57.01103599998169,57.01103599998169,0.2032872666604817,3.141559137259934,57.223666299978504,57.01103599998169,,,,,,,,,ofgjwt,002,fr,0,2022-04-27_17h32.26.159,Continuous,2022.1.1,None,
0,0,0,0,3,0,3,0,,,,,,,,2.9382718705994524,both,,,,1,28,[],0.005278266704408452,0.19571036667912267,None,60.185040399985155,60.185040399985155,0.19571036667912267,3.133982237278575,60.39598319999641,60.185040399985155,,,,,,,,,ofgjwt,002,fr,0,2022-04-27_17h32.26.159,Continuous,2022.1.1,None,
0,0,0,0,4,0,4,0,,,,,,,,2.9382718705994524,both,223.0,3.4972482548780213,0.0003296372393903109,0,29,[],0.012470366666093469,0.2095095666591078,None,63.35093629997573,63.35093629997573,0.2095095666591078,3.14778143725856,63.56331820000196,63.35093629997573,,,,,,,,,ofgjwt,002,fr,0,2022-04-27_17h32.26.159,Continuous,2022.1.1,None,
0,0,0,0,5,0,5,0,,,,,,,,2.9382718705994524,both,250.0,-0.38383320329961457,0.00016024273328294234,0,30,[],0.005400966707384214,0.19619216670980677,['space'],66.52423789998284,66.52423789998284,0.19619216670980677,3.134464037309259,66.73615329997847,66.52423789998284,[-2.6454406999982893],,,,,,,,ofgjwt,002,fr,0,2022-04-27_17h32.26.159,Continuous,2022.1.1,None,
0,0,0,0,6,0,6,0,,,,,,,,2.9382718705994524,both,281.0,2.2180633563889227,0.00017381234971043918,0,31,[],0.009591266687493771,0.20330896668019705,['space'],69.69179260000237,69.69179260000237,0.20330896668019705,3.1415808372796494,69.90338449997944,69.69179260000237,[-2.5168367000005674],,,,,,,,ofgjwt,002,fr,0,2022-04-27_17h32.26.159,Continuous,2022.1.1,None,
0,0,0,0,7,0,7,0,,,,,,,,2.9382718705994524,both,315.0,3.368346386172296,0.0001453407254685911,0,32,[],0.008161966659827158,None,['space'],72.862412699993,72.862412699993,0.22778976664994843,3.166061637249401,73.08127889997559,72.862412699993,[-2.5996331999776885],,,,,,,,ofgjwt,002,fr,0,2022-04-27_17h32.26.159,Continuous,2022.1.1,None,
0,0,0,0,8,0,8,0,,,,,,,,2.9382718705994524,both,354.0,-1.0,7.887248739356936e-05,0,33,[],0.012107666640076786,None,['space'],76.0479199999827,76.0479199999827,0.2097825666423887,3.148054437241841,76.25424139999086,76.0479199999827,[-2.8580675999983214],,,,,,,,ofgjwt,002,fr,0,2022-04-27_17h32.26.159,Continuous,2022.1.1,None,
0,0,0,0,9,0,9,0,,,,,,,,2.9382718705994524,both,397.0,-0.38462322903678636,7.398349099723549e-05,0,34,[],0.010320766683435068,None,['space'],79.21877749997657,79.21877749997657,0.2079230666568037,3.146194937256256,79.43397759998334,79.21877749997657,[-2.571656099986285],,,,,,,,ofgjwt,002,fr,0,2022-04-27_17h32.26.159,Continuous,2022.1.1,None,
0,0,0,0,10,0,10,0,,,,,,,,2.9382718705994524,both,446.0,2.531625765244719,9.93134688891038e-05,0,35,[],0.011721566639607772,0.2103152666531969,['space'],82.39849939997657,82.39849939997657,0.2103152666531969,3.1485871372526493,82.61667199997464,82.39849939997657,[-2.6000166999874637],,,,,,,,ofgjwt,002,fr,0,2022-04-27_17h32.26.159,Continuous,2022.1.1,None,
0,0,0,0,11,0,11,0,,,,,,,,2.9382718705994524,both,501.0,2.985970696761899,0.00010053544742405892,0,36,[],0.011631166649749503,None,['space'],85.57362759998068,85.57362759998068,0.21349836664739996,3.1517702372468523,85.78908689998207,85.57362759998068,[-2.639472900016699],,,,,,,,ofgjwt,002,fr,0,2022-04-27_17h32.26.159,Continuous,2022.1.1,None,
0,0,0,0,12,0,12,0,,,,,,,,2.9382718705994524,both,562.0,2.084736855347928,7.85295755956036e-05,0,37,[],0.011704466654919088,None,['space'],88.75377679997473,88.75377679997473,0.21527316665742546,3.153545037256878,88.96516199997859,88.75377679997473,[-2.7475684999953955],,,,,,,,ofgjwt,002,fr,0,2022-04-27_17h32.26.159,Continuous,2022.1.1,None,
0,0,0,0,13,0,13,0,,,,,,,,2.9382718705994524,both,631.0,0.08802967548628904,5.159724323828977e-05,0,38,[],0.011577966681215912,0.2086271666630637,['space'],91.93133559997659,91.93133559997659,0.2086271666630637,3.146899037262516,92.13610009997501,91.93133559997659,[-2.6766671999939717],,,,,,,,ofgjwt,002,fr,0,2022-04-27_17h32.26.159,Continuous,2022.1.1,None,
0,0,0,0,14,0,14,0,,,,,,,,2.9382718705994524,both,708.0,-0.6475592092080675,4.1140261904830535e-05,0,39,[],0.01029216666938737,None,['space'],95.10146179998992,95.10146179998992,0.20559696666896343,3.143868837268416,95.31256639998173,95.10146179998992,[-2.6793398000008892],,,,,,,,ofgjwt,002,fr,0,2022-04-27_17h32.26.159,Continuous,2022.1.1,None,
1,0,1,0,0,0,0,0,,,,,,100.31336869997904,None,1.2532710593279495,time,354.0,-1.0,7.887248739356936e-05,0,26,[],0.010212766675977036,None,None,101.34917639999185,None,0.2197375666582957,1.4730086259862452,101.55499069998041,None,,98.28042090000235,None,"[0.5833333333333334, 0.16666666666666666, 0.16666666666666666, 0.16666666666666666, 0.5833333333333334, 0.5833333333333334, 0.3333333333333333, 0.16666666666666666, 0.5833333333333334, 0.5833333333333334, 0.16666666666666666, 0.3333333333333333, 0.16666666666666666, 0.16666666666666666, 0.5833333333333334]",,,,,ofgjwt,002,fr,0,2022-04-27_17h32.26.159,Continuous,2022.1.1,None,
1,0,1,0,1,0,1,0,,,,,,,,1.2532710593279495,time,1416.0,0.5670628738961416,5.378735230910783e-05,0,27,[],0.011146066710352898,None,None,102.83736429997953,102.83736429997953,0.20998856669757515,1.4632596260255246,103.04669709998416,102.83736429997953,,,,,,,,,ofgjwt,002,fr,0,2022-04-27_17h32.26.159,Continuous,2022.1.1,None,
1,0,1,0,2,0,2,0,,,,,,,,1.2532710593279495,time,842.0,-1.6521605401040018,3.270904981525247e-05,0,28,[],0.011497466679429635,None,['space'],104.32632539997576,104.32632539997576,0.21254986667190678,1.4658209259998563,104.5381567000004,104.32632539997576,[-0.9601523000164889],,,,,,,,ofgjwt,002,fr,0,2022-04-27_17h32.26.159,Continuous,2022.1.1,None,
1,0,1,0,3,0,3,0,,,,,,,,1.2532710593279495,time,167.0,4.910451687674746,0.0006787198658127612,0,29,[],0.004904566681943834,0.1948894666857086,['space'],105.81677969999146,105.81677969999146,0.1948894666857086,1.448160526013658,106.02202569998917,105.81677969999146,[-1.0103450999886263],,,,,,,,ofgjwt,002,fr,0,2022-04-27_17h32.26.159,Continuous,2022.1.1,None,
1,0,1,0,4,0,4,0,,,,,,,,1.2532710593279495,time,945.0,-1.3044281895095444,3.656432624119519e-05,0,30,[],0.011308066663332283,None,['space'],107.30292999997619,107.30292999997619,0.21149126667296514,1.4647623260009146,107.51820279998356,107.30292999997619,[-1.0883853000123054],,,,,,,,ofgjwt,002,fr,0,2022-04-27_17h32.26.159,Continuous,2022.1.1,None,
1,0,1,0,5,0,5,0,,,,,,,,1.2532710593279495,time,236.0,0.2653318181967359,0.00020095730040064602,0,31,[],0.011439666646765545,None,['space'],108.79893629997969,108.79893629997969,0.21049196663079783,1.4637630259587473,109.0100359999924,108.79893629997969,[-1.0802777000062633],,,,,,,,ofgjwt,002,fr,0,2022-04-27_17h32.26.159,Continuous,2022.1.1,None,
1,0,1,0,6,0,6,0,,,,,,,,1.2532710593279495,time,530.0,1.7767897226492906,8.19193130907856e-05,0,32,[],0.010200566670391709,0.20564566666143946,['space'],110.28430619998835,110.28430619998835,0.20564566666143946,1.458916725989389,110.49330409997492,110.28430619998835,[-1.0935694000218064],,,,,,,,ofgjwt,002,fr,0,2022-04-27_17h32.26.159,Continuous,2022.1.1,None,
1,0,1,0,7,0,7,0,,,,,,,,1.2532710593279495,time,,,,1,32,[],0.011341866658767685,None,['space'],111.77472970000235,111.77472970000235,0.21037986665032804,1.4636509259782775,111.98925789998611,111.77472970000235,[-1.048923399997875],,,,,,,,ofgjwt,002,fr,0,2022-04-27_17h32.26.159,Continuous,2022.1.1,None,
1,0,1,0,8,0,8,0,,,,,,,,1.2532710593279495,time,210.0,1.57537690474601,0.00029474037109431287,0,33,[],0.01257386666839011,None,['space'],113.26451589999488,113.26451589999488,0.21170156667358242,1.4649726260015319,113.48407069998211,113.26451589999488,[-0.5540360999875702],,,,,,,,ofgjwt,002,fr,0,2022-04-27_17h32.26.159,Continuous,2022.1.1,None,
1,0,1,0,9,0,9,0,,,,,,,,1.2532710593279495,time,750.0,-1.0510366330832714,3.600958967636359e-05,0,34,[],0.010430766677018255,None,['space'],114.75587470000028,114.75587470000028,0.2054355666914489,1.4587066260193984,114.96197489998303,114.75587470000028,[-0.9252730000007432],,,,,,,,ofgjwt,002,fr,0,2022-04-27_17h32.26.159,Continuous,2022.1.1,None,
2,0,2,0,0,0,0,0,,,,,0.16666666666666666,118.00596709997626,None,1.2805879317123197,frequency,141.0,2.517727013037722,0.0007753897988499695,0,26,[],0.0128907666367013,None,None,119.04899489998934,None,0.22661186664481647,1.5071997983571361,119.26313509998727,None,,116.24160879998817,None,,,,,,ofgjwt,002,fr,0,2022-04-27_17h32.26.159,Continuous,2022.1.1,None,
2,0,2,0,1,0,1,0,,,,,,,,2.540742765645378,frequency,158.0,0.28418502854176886,0.00044319269439810496,0,27,[],0.006686666660243645,0.19722046665265225,['space'],120.56300499997451,120.56300499997451,0.19722046665265225,2.7379632322980303,120.76621709999745,120.56300499997451,[-0.6207651000004262],,,,,,,,ofgjwt,002,fr,0,2022-04-27_17h32.26.159,Continuous,2022.1.1,None,
2,0,2,0,2,0,2,0,,,,,,,,1.1371646041785526,frequency,177.0,1.63107643315458,0.000421344802196829,0,28,[],0.008833466650685295,None,['space'],123.33110109998961,123.33110109998961,0.20225426665274426,1.3394188708312968,123.54129639998428,123.33110109998961,[-2.461003799980972],,,,,,,,ofgjwt,002,fr,0,2022-04-27_17h32.26.159,Continuous,2022.1.1,None,
2,0,2,0,3,0,3,0,,,,,,,,2.7404570745991066,frequency,199.0,3.1135374740168067,0.0003850925093000816,0,29,[],0.010785166639834642,None,['space'],124.70819219999248,124.70819219999248,0.211559066636255,2.9520161412353616,124.9288437999785,124.70819219999248,[-0.9904315000167117],,,,,,,,ofgjwt,002,fr,0,2022-04-27_17h32.26.159,Continuous,2022.1.1,None,
2,0,2,0,4,0,4,0,,,,,,,,2.945253204039546,frequency,223.0,0.6647381442792408,0.00023790894047624685,0,30,[],0.010896566702285782,None,['space'],127.69282149997889,127.69282149997889,0.20938066669623367,3.1546338707357795,127.9031113999954,127.69282149997889,[-2.550286799989408],,,,,,,,ofgjwt,002,fr,0,2022-04-27_17h32.26.159,Continuous,2022.1.1,None,
2,0,2,0,5,0,5,0,,,,,,,,2.1791764282201718,frequency,250.0,5.6128557175704605,0.00031960442987146343,0,31,[],0.0034116666356567293,0.1917451666377019,['space'],130.87899019999895,130.87899019999895,0.1917451666377019,2.3709215948578737,131.0819375999854,130.87899019999895,[-2.777215200010687],,,,,,,,ofgjwt,002,fr,0,2022-04-27_17h32.26.159,Continuous,2022.1.1,None,
2,0,2,0,6,0,6,0,,,,,,,,1.8709261760792444,frequency,281.0,1.071596729306731,0.00015232012917185705,0,32,[],0.010525666701141745,None,['space'],133.29140409998945,133.29140409998945,0.20951206667814404,2.0804382427573884,133.5013854999852,133.29140409998945,[-2.084464800020214],,,,,,,,ofgjwt,002,fr,0,2022-04-27_17h32.26.159,Continuous,2022.1.1,None,
2,0,2,0,7,0,7,0,,,,,,,,1.1045370654995441,frequency,315.0,-0.05496846367930264,9.799898579718967e-05,0,33,[],0.010743666643975303,None,['space'],135.40484299999662,135.40484299999662,0.21004896666272543,1.3145860321622695,135.6142561000015,135.40484299999662,[-1.6861795000149868],,,,,,,,ofgjwt,002,fr,0,2022-04-27_17h32.26.159,Continuous,2022.1.1,None,
2,0,2,0,8,0,8,0,,,,,,,,1.4205054078844908,frequency,354.0,-1.0,7.887248739356936e-05,0,34,[],0.010373866680311039,0.20862726666382514,['space'],136.74526830000104,136.74526830000104,0.20862726666382514,1.629132674548316,136.95049259997904,136.74526830000104,[-0.9630459999898449],,,,,,,,ofgjwt,002,fr,0,2022-04-27_17h32.26.159,Continuous,2022.1.1,None,
2,0,2,0,9,0,9,0,,,,,,,,1.1756783301525786,frequency,397.0,4.32508561981232,0.00012723900450193693,0,35,[],0.0049140666669700295,0.1964879666629713,['space'],138.40013069999986,138.40013069999986,0.1964879666629713,1.37216629681555,138.60987079999177,138.40013069999986,[-0.6015131000021938],,,,,,,,ofgjwt,002,fr,0,2022-04-27_17h32.26.159,Continuous,2022.1.1,None,
2,0,2,0,10,0,10,0,,,,,,,,1.1725753300511406,frequency,446.0,5.547391746529216,0.00014053886782440996,0,36,[],0.010326866671675816,None,['space'],139.81484969999292,139.81484969999292,0.2096580666839145,1.382233396735055,140.02797099997406,139.81484969999292,[-0.2878905000106897],,,,,,,,ofgjwt,002,fr,0,2022-04-27_17h32.26.159,Continuous,2022.1.1,None,
2,0,2,0,11,0,11,0,,,,,,,,2.5165002825417293,frequency,501.0,3.2021814380781803,0.00010306940100474543,0,37,[],0.010461966652655974,None,['space'],141.2338926999946,141.2338926999946,0.20946086666663177,2.725961149208361,141.44240020000143,141.2338926999946,[-0.6995126999972854],,,,,,,,ofgjwt,002,fr,0,2022-04-27_17h32.26.159,Continuous,2022.1.1,None,
2,0,2,0,12,0,12,0,,,,,,,,1.9449998390701473,frequency,562.0,-0.8240891270338753,5.618132159828634e-05,0,38,[],0.005794266675366089,0.1949092666618526,['space'],143.9879682000028,143.9879682000028,0.1949092666618526,2.139909105732,144.19064359998447,143.9879682000028,[-2.34974350000266],,,,,,,,ofgjwt,002,fr,0,2022-04-27_17h32.26.159,Continuous,2022.1.1,None,
2,0,2,0,13,0,13,0,,,,,,,,1.6942835753143317,frequency,,,,1,38,[],0.010592466685920954,None,['space'],146.16497099999106,146.16497099999106,0.20894756668712944,1.9032311420014612,146.3809498999908,146.16497099999106,[-1.5987456000002567],,,,,,,,ofgjwt,002,fr,0,2022-04-27_17h32.26.159,Continuous,2022.1.1,None,
2,0,2,0,14,0,14,0,,,,,,,,2.563867458784163,frequency,708.0,-0.9813735977343485,3.958916416608202e-05,0,39,[],0.00848906664759852,0.1993880666559562,None,148.09137270000065,148.09137270000065,0.1993880666559562,2.763255525440119,148.30065119999927,148.09137270000065,,,,,,,,,ofgjwt,002,fr,0,2022-04-27_17h32.26.159,Continuous,2022.1.1,None,
3,0,3,0,0,0,0,0,,,,,0.3333333333333333,153.0222162999853,None,1.1975275558129104,frequency,387.0,3.241239036229549,0.00011608280838513877,0,40,[],0.008144266670569777,0.20149856666103005,None,154.0411458000017,None,0.20149856666103005,1.3990261224739404,154.25799939999706,None,,150.8934864999901,None,,,,,,ofgjwt,002,fr,0,2022-04-27_17h32.26.159,Continuous,2022.1.1,None,
3,0,3,0,1,0,1,0,,,,,,,,2.9131484204636515,frequency,488.0,-0.33672800240388323,6.931782920706563e-05,0,41,[],0.008892666694009677,None,None,155.48178390000248,155.48178390000248,0.20741636666934937,3.120564787133001,155.6903478000022,155.48178390000248,,,,,,,,,ofgjwt,002,fr,0,2022-04-27_17h32.26.159,Continuous,2022.1.1,None,
3,0,3,0,2,0,2,0,,,,,,,,1.366768482266395,frequency,615.0,-0.28284784072521196,5.1790389538235405e-05,0,42,[],0.010273766645696014,0.20899736665887758,None,158.63466669997433,158.63466669997433,0.20899736665887758,1.5757658489252726,158.83987729999353,158.63466669997433,,,,,,,,,ofgjwt,002,fr,0,2022-04-27_17h32.26.159,Continuous,2022.1.1,None,
3,0,3,0,3,0,3,0,,,,,,,,2.4141915456902234,frequency,775.0,-1.265581015631366,3.414843603286111e-05,0,43,[],0.010190466651692986,0.20792836663895287,['space'],160.23603739999817,160.23603739999817,0.20792836663895287,2.6221199123291763,160.44115949998377,160.23603739999817,[-1.1898163000005297],,,,,,,,ofgjwt,002,fr,0,2022-04-27_17h32.26.159,Continuous,2022.1.1,None,
3,0,3,0,4,0,4,0,,,,,,,,2.2984484478065745,frequency,977.0,-1.0039648921984279,3.866151675571839e-05,0,44,[],0.009836666693445295,None,"['space', 'space']",162.88356759998715,162.88356759998715,0.20845446668681689,2.5069029144933914,163.1008224999823,162.88356759998715,"[-2.1734235000039916, -0.5410042000003159]",,,,,,,,ofgjwt,002,fr,0,2022-04-27_17h32.26.159,Continuous,2022.1.1,None,
3,0,3,0,5,0,5,0,,,,,,,,1.3103303504749695,frequency,1231.0,0.9540019330780185,5.995034808282365e-05,0,45,[],0.0073080666770692915,None,None,165.42593009999837,165.42593009999837,0.19901506666792557,1.509345417142895,165.6337930999871,165.42593009999837,,,,,,,,,ofgjwt,002,fr,0,2022-04-27_17h32.26.159,Continuous,2022.1.1,None,
3,0,3,0,6,0,6,0,,,,,,,,1.5772320808262092,frequency,1551.0,-0.9294928556971704,4.7271795509435406e-05,0,46,[],0.008989366673631594,0.20362616667989641,['space'],166.9768925999815,166.9768925999815,0.20362616667989641,1.7808582475061057,167.18107910000253,166.9768925999815,[-1.0498920000100043],,,,,,,,ofgjwt,002,fr,0,2022-04-27_17h32.26.159,Continuous,2022.1.1,None,
3,0,3,0,7,0,7,0,,,,,,,,2.2222356128140817,frequency,1954.0,-1.4147578968363614,6.18022086220162e-05,0,47,[],0.00855866665369831,None,['space'],168.7871390999935,168.7871390999935,0.2086197666649241,2.4308553794790058,169.00593429998844,168.7871390999935,[-1.356643000006443],,,,,,,,ofgjwt,002,fr,0,2022-04-27_17h32.26.159,Continuous,2022.1.1,None,
3,0,3,0,8,0,8,0,,,,,,,,2.782683440310154,frequency,2462.0,-1.0,7.580362217193044e-05,0,48,[],0.00569776666816324,0.197465066681616,['space'],171.24997819997952,171.24997819997952,0.197465066681616,2.98014850699177,171.45763469999656,171.24997819997952,[-2.124002800002927],,,,,,,,ofgjwt,002,fr,0,2022-04-27_17h32.26.159,Continuous,2022.1.1,None,
3,0,3,0,9,0,9,0,,,,,,,,2.2569672514330934,frequency,3102.0,-3.8721411170962754,4.128533894676742e-05,0,49,[],0.007546866632765159,None,['space'],174.26887139998144,174.26887139998144,0.20010056663886644,2.45706781807196,174.47554590000072,174.26887139998144,[-2.2303545999748167],,,,,,,,ofgjwt,002,fr,0,2022-04-27_17h32.26.159,Continuous,2022.1.1,None,
3,0,3,0,10,0,10,0,,,,,,,,2.1981602409055543,frequency,3908.0,-3.2187551007071216,5.683229092830007e-05,0,50,[],0.00971736665815115,None,None,176.7655452999752,176.7655452999752,0.206106166675454,2.4042664075810083,176.9813390999916,176.7655452999752,,,,,,,,,ofgjwt,002,fr,0,2022-04-27_17h32.26.159,Continuous,2022.1.1,None,
3,0,3,0,11,0,11,0,,,,,,,,1.2856683254201213,frequency,4924.0,-11.673497726349257,3.847393687405406e-05,0,51,[],0.007898966665379703,0.20200786666828208,['space'],179.2064121000003,179.2064121000003,0.20200786666828208,1.4876761920884034,179.41404899998452,179.2064121000003,[-1.999965399998473],,,,,,,,ofgjwt,002,fr,0,2022-04-27_17h32.26.159,Continuous,2022.1.1,None,
3,0,3,0,12,0,12,0,,,,,,,,1.1511832722749216,frequency,6204.0,-9.172434485692254,4.364813866703186e-05,0,52,[],0.009564266685629264,None,['space'],180.7341239999805,180.7341239999805,0.21252526668831706,1.3637085389632386,180.94681189997937,180.7341239999805,[-0.9834824000135995],,,,,,,,ofgjwt,002,fr,0,2022-04-27_17h32.26.159,Continuous,2022.1.1,None,
3,0,3,0,13,0,13,0,,,,,,,,2.6303760900639954,frequency,,,,1,52,[],0.007819066639058292,0.20151296665426344,['space'],182.12630099998205,182.12630099998205,0.20151296665426344,2.831889056718259,182.33682269998826,182.12630099998205,[-0.7439548000111245],,,,,,,,ofgjwt,002,fr,0,2022-04-27_17h32.26.159,Continuous,2022.1.1,None,
4,0,4,0,0,0,0,0,,,,,0.5833333333333334,188.04839650000213,None,1.6585466076633864,frequency,315.0,2.9749374928909376,0.00013890468021532308,0,53,[],0.013099166651954874,None,None,189.0641860999749,None,0.21945056665572338,1.8779971743191097,189.27276699998765,None,,184.99793339997996,None,,,,,,ofgjwt,002,fr,0,2022-04-27_17h32.26.159,Continuous,2022.1.1,None,
4,0,4,0,1,0,1,0,,,,,,,,2.063388761775939,frequency,472.0,-0.4391963244532482,6.928212134554663e-05,0,54,[],0.006250866659684107,None,None,190.9528191999998,190.9528191999998,0.19846546664484777,2.2618542284207868,191.16219429997727,190.9528191999998,,,,,,,,,ofgjwt,002,fr,0,2022-04-27_17h32.26.159,Continuous,2022.1.1,None,
4,0,4,0,2,0,2,0,,,,,,,,1.742384103124516,frequency,707.0,-2.410423954861679,3.364977640518969e-05,0,55,[],0.005560266668908298,0.1948363666597288,['space'],193.2575498999795,193.2575498999795,0.1948363666597288,1.9372204697842448,193.46602859999985,193.2575498999795,[-0.9470042000175454],,,,,,,,ofgjwt,002,fr,0,2022-04-27_17h32.26.159,Continuous,2022.1.1,None,
4,0,4,0,3,0,3,0,,,,,,,,2.534359545842605,frequency,1059.0,-7.032807592591063,2.0701489942561792e-05,0,56,[],0.009459366643568501,None,['space'],195.23885599998175,195.23885599998175,0.2104613666597288,2.744820912502334,195.44605599998613,195.23885599998175,[-1.472351800010074],,,,,,,,ofgjwt,002,fr,0,2022-04-27_17h32.26.159,Continuous,2022.1.1,None,
4,0,4,0,4,0,4,0,,,,,,,,2.175996623849408,frequency,1587.0,-2.5179937058394937,4.16469730256512e-05,0,57,[],0.008687266672495753,0.20533026667544618,None,198.00987149999128,198.00987149999128,0.20533026667544618,2.3813268905248544,198.21772159999819,198.00987149999128,,,,,,,,,ofgjwt,002,fr,0,2022-04-27_17h32.26.159,Continuous,2022.1.1,None,
4,0,4,0,5,0,5,0,,,,,,,,1.0371965639364906,frequency,2378.0,-7.802678908598091,3.387992671125204e-05,0,58,[],0.009439166693482548,None,None,200.4235794999986,200.4235794999986,0.20741476668627,1.2446113306227606,200.63895100000082,200.4235794999986,,,,,,,,,ofgjwt,002,fr,0,2022-04-27_17h32.26.159,Continuous,2022.1.1,None,
4,0,4,0,6,0,6,0,,,,,,,,2.1764021103011943,frequency,,,,1,58,[],0.009221566666383296,None,None,201.70531569997547,201.70531569997547,0.20617536664940417,2.3825774769505985,201.92030879997765,201.70531569997547,,,,,,,,,ofgjwt,002,fr,0,2022-04-27_17h32.26.159,Continuous,2022.1.1,None,
4,0,4,0,7,0,7,0,,,,,,,,1.0258997708031168,frequency,5339.0,-8.364803179064914,5.353615447676196e-05,0,59,[],0.010382766660768539,None,None,204.12363749998622,204.12363749998622,0.20988496666541323,1.23578473746853,204.34094159997767,204.12363749998622,,,,,,,,,ofgjwt,002,fr,0,2022-04-27_17h32.26.159,Continuous,2022.1.1,None,
4,0,4,0,8,0,8,0,,,,,,,,1.0078497097067785,frequency,8000.0,-8.0,7.22719885372964e-05,0,60,[],0.009575466654496267,None,['space'],205.39115159999346,205.39115159999346,0.2083902666636277,1.2162399763704062,205.61025839997455,205.39115159999346,[-0.7610980000172276],,,,,,,,ofgjwt,002,fr,0,2022-04-27_17h32.26.159,Continuous,2022.1.1,None,
5,0,5,0,0,0,0,0,,,,,0.5833333333333334,210.85801830000128,None,2.0390208416324156,frequency,135.0,6.333326293676361,0.0013138456600851626,0,61,[],0.012949766649398953,None,None,211.87899879997713,None,0.23032436665380374,2.2693452082862193,212.09810239999206,None,,206.64467989999685,None,,,,,,ofgjwt,002,fr,0,2022-04-27_17h32.26.159,Continuous,2022.1.1,None,
5,0,5,0,1,0,1,0,,,,,,,,1.9947103650964053,frequency,203.0,-8.0,0.00010333454916881236,0,62,[],0.005101466638734564,0.19524416665080935,['space'],214.16186969997943,214.16186969997943,0.19524416665080935,2.1899545317472144,214.36648830000195,214.16186969997943,[-1.6116435000149067],,,,,,,,ofgjwt,002,fr,0,2022-04-27_17h32.26.159,Continuous,2022.1.1,None,
5,0,5,0,2,0,2,0,,,,,,,,2.0703931892157312,frequency,304.0,2.227193341813461,0.00014250670473468492,0,63,[],0.009150766709353775,None,None,216.39065909999772,216.39065909999772,0.2099921666958835,2.2803853559116147,216.6059499999974,216.39065909999772,,,,,,,,,ofgjwt,002,fr,0,2022-04-27_17h32.26.159,Continuous,2022.1.1,None,
5,0,5,0,3,0,3,0,,,,,,,,1.5097354546062547,frequency,455.0,4.666984560698292,0.0001262049018944716,0,64,[],0.009054166643181816,None,None,218.70606339999358,218.70606339999358,0.21229416664573364,1.7220296212519883,218.92290149998735,218.70606339999358,,,,,,,,,ofgjwt,002,fr,0,2022-04-27_17h32.26.159,Continuous,2022.1.1,None,
5,0,5,0,4,0,4,0,,,,,,,,2.801030605605856,frequency,,,,1,64,[],0.004909166687866673,0.1960808666772209,['space'],220.45331529999385,220.45331529999385,0.1960808666772209,2.997111472283077,220.66688979999162,220.45331529999385,[-1.2149321000033524],,,,,,,,ofgjwt,002,fr,0,2022-04-27_17h32.26.159,Continuous,2022.1.1,None,
5,0,5,0,5,0,5,0,,,,,,,,1.4937408625601225,frequency,1022.0,-5.563487491348907,2.3701400638945344e-05,0,65,[],0.010156766657019034,0.20814936666283756,None,223.49830159998965,223.49830159998965,0.20814936666283756,1.70189022922296,223.7076917999948,223.49830159998965,,,,,,,,,ofgjwt,002,fr,0,2022-04-27_17h32.26.159,Continuous,2022.1.1,None,
5,0,5,0,6,0,6,0,,,,,,,,2.908958663860907,frequency,1531.0,0.3300875301394177,5.2893816928981564e-05,0,66,[],0.00894236666499637,None,None,225.23274310000124,225.23274310000124,0.20793136666179635,3.116890030522703,225.44666439999128,225.23274310000124,,,,,,,,,ofgjwt,002,fr,0,2022-04-27_17h32.26.159,Continuous,2022.1.1,None,
5,0,5,0,7,0,7,0,,,,,,,,2.0179156769392113,frequency,2294.0,-6.941109056794855,3.657545789007471e-05,0,67,[],0.008844966650940478,None,['space'],228.3854250999866,228.3854250999866,0.2081704666488804,2.2260861435880916,228.59914489998482,228.3854250999866,[-2.3791966999997385],,,,,,,,ofgjwt,002,fr,0,2022-04-27_17h32.26.159,Continuous,2022.1.1,None,
6,0,6,0,0,0,0,0,,,,,,232.39059329999145,None,1.4713139537517261,none,530.0,1.3296820998491121,7.780919475966362e-05,0,26,[],0.008072366676060483,None,None,233.42040839997935,None,0.20325086667435244,1.6745648204260786,233.63763169999584,None,,230.64417689997936,None,"[0.5833333333333334, 0.16666666666666666, 0.16666666666666666, 0.5833333333333334, 0.5833333333333334, 0.5833333333333334, 0.16666666666666666, 0.3333333333333333, 0.5833333333333334, 0.5833333333333334, 0.5833333333333334, 0.16666666666666666, 0.5833333333333334, 0.3333333333333333, 0.3333333333333333]",,,,,ofgjwt,002,fr,0,2022-04-27_17h32.26.159,Continuous,2022.1.1,None,
6,0,6,0,1,0,1,0,,,,,,,,2.963229837129129,none,1682.0,-0.5408418860573602,5.6803676937440915e-05,0,27,[],0.003953266685130075,0.19409086668747477,['space'],235.1362947000016,235.1362947000016,0.19409086668747477,3.1573207038166036,235.34770259997458,235.1362947000016,[-0.6495870999933686],,,,,,,,ofgjwt,002,fr,0,2022-04-27_17h32.26.159,Continuous,2022.1.1,None,
6,0,6,0,2,0,2,0,,,,,,,,1.4418385346249567,none,2119.0,-1.5645297515241645,6.468345164328293e-05,0,28,[],0.007765666669001803,0.20557016666862182,None,238.33636769998702,238.33636769998702,0.20557016666862182,1.6474087012935785,238.54414469999028,238.33636769998702,,,,,,,,,ofgjwt,002,fr,0,2022-04-27_17h32.26.159,Continuous,2022.1.1,None,
6,0,6,0,3,0,3,0,,,,,,,,1.1943615033559503,none,891.0,-1.0468800781485212,3.630422966930281e-05,0,29,[],0.008816366665996611,None,['space'],240.0150358999963,240.0150358999963,0.20946056669345126,1.4038220700494015,240.22161029998097,240.0150358999963,[-0.3923940000240691],,,,,,,,ofgjwt,002,fr,0,2022-04-27_17h32.26.159,Continuous,2022.1.1,None,
6,0,6,0,4,0,4,0,,,,,,,,2.573706800196252,none,1335.0,0.4610182216734342,5.5255246662580056e-05,0,30,[],0.008786666643572971,None,None,241.44974899999215,241.44974899999215,0.2110363666433841,2.784743166839636,241.66257669997867,241.44974899999215,,,,,,,,,ofgjwt,002,fr,0,2022-04-27_17h32.26.159,Continuous,2022.1.1,None,
6,0,6,0,5,0,5,0,,,,,,,,2.471535862403437,none,,,,1,30,[],0.008666166686452925,None,['space'],244.2679436999897,244.2679436999897,0.20879266667179763,2.6803285290752346,244.48335879997467,244.2679436999897,[-2.261680299998261],,,,,,,,ofgjwt,002,fr,0,2022-04-27_17h32.26.159,Continuous,2022.1.1,None,
6,0,6,0,6,0,6,0,,,,,,,,2.759628504525331,none,187.0,3.433143221198513,0.0004644159724066266,0,31,[],0.005294366681482643,0.1956554666685406,None,246.98234019998927,246.98234019998927,0.1956554666685406,2.9552839711938717,247.19466529999045,246.98234019998927,,,,,,,,,ofgjwt,002,fr,0,2022-04-27_17h32.26.159,Continuous,2022.1.1,None,
6,0,6,0,7,0,7,0,,,,,,,,2.595183800316651,none,794.0,-1.1577005159957703,3.3819102623155764e-05,0,32,[],0.002868266688892618,0.18932116669020616,['space'],250.0315029999765,250.0315029999765,0.18932116669020616,2.7845049670068573,250.2409921999788,250.0315029999765,[-2.6007730000128504],,,,,,,,ofgjwt,002,fr,0,2022-04-27_17h32.26.159,Continuous,2022.1.1,None,
6,0,6,0,8,0,8,0,,,,,,,,1.0867858483213275,none,354.0,-1.0,7.887248739356936e-05,0,33,[],0.006919766659848392,0.20046336666564457,['space'],252.86788779997732,252.86788779997732,0.20046336666564457,1.287249214986972,253.071681899979,252.86788779997732,[-2.2056530000118073],,,,,,,,ofgjwt,002,fr,0,2022-04-27_17h32.26.159,Continuous,2022.1.1,None,
7,0,7,0,0,0,0,0,,,,,,256.21955369997886,None,2.3476038570024995,none,4595.0,-7.0,5.578170605250276e-05,0,34,[],0.012718366662738845,None,None,257.2377770000021,None,0.21805306666647084,2.5656569236689704,257.44016909998027,None,,254.18710849998752,None,"[0.5833333333333334, 0.3333333333333333, 0.16666666666666666, 0.5833333333333334, 0.5833333333333334, 0.5833333333333334, 0.3333333333333333, 0.16666666666666666, 0.3333333333333333, 0.16666666666666666, 0.5833333333333334, 0.3333333333333333, 0.5833333333333334, 0.16666666666666666, 0.16666666666666666]",,,,,ofgjwt,002,fr,0,2022-04-27_17h32.26.159,Continuous,2022.1.1,None,
7,0,7,0,1,0,1,0,,,,,,,,2.9198121895080043,none,5158.0,-8.569586779483286,5.4777270535662165e-05,0,35,[],0.008050866628764197,None,['space'],259.8233118999924,259.8233118999924,0.2072862666391302,3.1270984561471344,260.0318750999868,259.8233118999924,[-2.0417192000022624],,,,,,,,ofgjwt,002,fr,0,2022-04-27_17h32.26.159,Continuous,2022.1.1,None,
7,0,7,0,2,0,2,0,,,,,,,,1.5827460507394706,none,683.0,-6.219993190472692,2.2730628639146666e-05,0,36,[],0.004346066649304703,0.193922066653613,['space'],262.9794415999786,262.9794415999786,0.193922066653613,1.7766681173930836,263.18875079997815,262.9794415999786,[-2.6852466000127606],,,,,,,,ofgjwt,002,fr,0,2022-04-27_17h32.26.159,Continuous,2022.1.1,None,
7,0,7,0,3,0,3,0,,,,,,,,2.657897714550906,none,,,,1,36,[],0.0017446666315663606,0.1901005666295532,None,264.8054111999809,264.8054111999809,0.1901005666295532,2.8479982811804594,265.0130187999748,264.8054111999809,,,,,,,,,ofgjwt,002,fr,0,2022-04-27_17h32.26.159,Continuous,2022.1.1,None,
7,0,7,0,4,0,4,0,,,,,,,,2.761851362226356,none,7728.0,-6.226479276670878,8.461740677270377e-05,0,37,[],0.008965066663222387,None,None,267.7004455999995,267.7004455999995,0.2082851666782517,2.9701365289046078,267.90953539998736,267.7004455999995,,,,,,,,,ofgjwt,002,fr,0,2022-04-27_17h32.26.159,Continuous,2022.1.1,None,
7,0,7,0,5,0,5,0,,,,,,,,1.836683357420893,none,542.0,0.8379578900628699,7.146503659731168e-05,0,38,[],0.007556766679044813,None,['space'],270.70399519999046,270.70399519999046,0.20372526667779312,2.040408624098686,270.9100535999751,270.70399519999046,[-2.5534475999884307],,,,,,,,ofgjwt,002,fr,0,2022-04-27_17h32.26.159,Continuous,2022.1.1,None,
7,0,7,0,6,0,6,0,,,,,,,,2.427230522027288,none,3647.0,-7.0,3.472679162913728e-05,0,39,[],0.0023384666710626334,0.19164166669361293,['space'],272.77877619999344,272.77877619999344,0.19164166669361293,2.6188721887209008,272.9880009999906,272.77877619999344,[-1.428829600015888],,,,,,,,ofgjwt,002,fr,0,2022-04-27_17h32.26.159,Continuous,2022.1.1,None,
7,0,7,0,7,0,7,0,,,,,,,,1.948167067827888,none,2579.0,-6.03588146282506,4.0421881453374746e-05,0,40,[],0.007948866637889296,None,['space'],275.44056859999546,275.44056859999546,0.2059939666360151,2.154161034463903,275.6497357999906,275.44056859999546,[-2.170619999989867],,,,,,,,ofgjwt,002,fr,0,2022-04-27_17h32.26.159,Continuous,2022.1.1,None,
7,0,7,0,8,0,8,0,,,,,,,,2.866165171112848,none,767.0,-4.336694393368218,2.419890679522707e-05,0,41,[],0.0036547666823025793,0.1941865666594822,None,277.628607199993,277.628607199993,0.1941865666594822,3.06035173777233,277.8321664999821,277.628607199993,,,,,,,,,ofgjwt,002,fr,0,2022-04-27_17h32.26.159,Continuous,2022.1.1,None,
7,0,7,0,9,0,9,0,,,,,,,,1.687842194281588,none,1149.0,-0.8856774188908233,4.541003785020562e-05,0,42,[],0.007947466656332836,None,None,280.7299602999992,280.7299602999992,0.2066469666606281,1.894489160942216,280.93771069997456,280.7299602999992,,,,,,,,,ofgjwt,002,fr,0,2022-04-27_17h32.26.159,Continuous,2022.1.1,None,
7,0,7,0,10,0,10,0,,,,,,,,1.2159233997867704,none,1721.0,-2.0281563256396673,4.925845349860337e-05,0,43,[],0.0007091666630003601,0.18984426668612286,None,282.65798899999936,282.65798899999936,0.18984426668612286,1.4057676664728933,282.86847219997435,282.65798899999936,,,,,,,,,ofgjwt,002,fr,0,2022-04-27_17h32.26.159,Continuous,2022.1.1,None,
8,0,8,0,0,0,0,0,,,,,,286.7188806999766,None,1.5503663396175356,none,1287.0,-1.4807798474112748,4.519078837035196e-05,0,44,[],0.0109424666443374,None,None,287.75823929999024,None,0.21262836665846407,1.7629947062759996,287.974404699984,None,,284.1019602000015,None,"[0.5833333333333334, 0.16666666666666666, 0.3333333333333333, 0.5833333333333334, 0.3333333333333333, 0.3333333333333333, 0.16666666666666666, 0.3333333333333333, 0.5833333333333334, 0.3333333333333333, 0.16666666666666666, 0.5833333333333334, 0.16666666666666666, 0.3333333333333333, 0.5833333333333334]",,,,,ofgjwt,002,fr,0,2022-04-27_17h32.26.159,Continuous,2022.1.1,None,
8,0,8,0,1,0,1,0,,,,,,,,2.330717182004983,none,135.0,8.010536844754686,0.0015936937827306125,0,45,[],0.007589966699015349,0.20697466668207198,None,289.55584699998144,289.55584699998144,0.20697466668207198,2.537691848687055,289.76072019999265,289.55584699998144,,,,,,,,,ofgjwt,002,fr,0,2022-04-27_17h32.26.159,Continuous,2022.1.1,None,
8,0,8,0,2,0,2,0,,,,,,,,2.168383649714303,none,859.0,-2.9561358872395656,2.849319212362781e-05,0,46,[],0.007648266706382856,None,['space'],292.1233609999763,292.1233609999763,0.20411896670702845,2.3725026164213316,292.33104799999273,292.1233609999763,[-2.100521699991077],,,,,,,,ofgjwt,002,fr,0,2022-04-27_17h32.26.159,Continuous,2022.1.1,None,
8,0,8,0,3,0,3,0,,,,,,,,2.41035376770517,none,682.0,-2.5888204007894062,3.459298494299427e-05,0,47,[],0.0020368666446302086,0.19415726664010435,['space'],294.53110449999804,294.53110449999804,0.19415726664010435,2.604511034345274,294.74435519997496,294.53110449999804,[-1.8847384999971837],,,,,,,,ofgjwt,002,fr,0,2022-04-27_17h32.26.159,Continuous,2022.1.1,None,
8,0,8,0,4,0,4,0,,,,,,,,1.7709382734810288,none,406.0,2.651280226669219,0.00010346448167549548,0,48,[],0.007522566680563614,None,['space'],297.18048059998546,297.18048059998546,0.20493986667133868,1.9758781401523675,297.38974079999025,297.18048059998546,[-1.9422010999987833],,,,,,,,ofgjwt,002,fr,0,2022-04-27_17h32.26.159,Continuous,2022.1.1,None,
8,0,8,0,5,0,5,0,,,,,,,,2.4264170129697678,none,152.0,-0.8146600823796337,0.0004391609786110997,0,49,[],0.007617366645717993,None,['space'],299.1923919999972,299.1923919999972,0.20956966665107757,2.6359866796208453,299.39957270000014,299.1923919999972,[-1.5224727999884635],,,,,,,,ofgjwt,002,fr,0,2022-04-27_17h32.26.159,Continuous,2022.1.1,None,
8,0,8,0,6,0,6,0,,,,,,,,2.9024585859337453,none,192.0,3.4327438949726052,0.00043735849551273224,0,50,[],0.0035149666655343026,0.1918278666853439,['space'],301.85436309999204,301.85436309999204,0.1918278666853439,3.094286452619089,302.0644584999827,301.85436309999204,[-2.1842324000026565],,,,,,,,ofgjwt,002,fr,0,2022-04-27_17h32.26.159,Continuous,2022.1.1,None,
8,0,8,0,7,0,7,0,,,,,,,,1.802612107945431,none,,,,1,50,[],0.0043953666754532605,0.19465326669160277,['space'],304.98986400000285,304.98986400000285,0.19465326669160277,1.9972653746370337,305.20400839997455,304.98986400000285,[-2.6156434000004083],,,,,,,,ofgjwt,002,fr,0,2022-04-27_17h32.26.159,Continuous,2022.1.1,None,
8,0,8,0,8,0,8,0,,,,,,,,2.155849989046918,none,287.0,-4.0,8.094210288535949e-05,0,51,[],0.0050780666642822325,0.19539826666004956,None,307.0286072999879,307.0286072999879,0.19539826666004956,2.3512482557069676,307.24192989998846,307.0286072999879,,,,,,,,,ofgjwt,002,fr,0,2022-04-27_17h32.26.159,Continuous,2022.1.1,None,
8,0,8,0,9,0,9,0,,,,,,,,2.870878669513619,none,362.0,5.1661540971052595,0.00015664607846175744,0,52,[],0.007469866657629609,None,None,309.4266688999778,309.4266688999778,0.2048672666423954,3.0757459361560144,309.63708519999636,309.4266688999778,,,,,,,,,ofgjwt,002,fr,0,2022-04-27_17h32.26.159,Continuous,2022.1.1,None,
9,0,9,0,0,0,0,0,,,,,,317.3415872999758,None,2.7774533891574142,none,902.0,-0.26677710790346154,4.0018897874534605e-05,0,53,[],0.007437966676661745,0.20011826665722765,None,318.3694649999961,None,0.20011826665722765,2.977571655814642,318.58514079998713,None,,312.5409423999954,None,"[0.5833333333333334, 0.16666666666666666, 0.3333333333333333, 0.3333333333333333, 0.5833333333333334, 0.3333333333333333, 0.5833333333333334, 0.5833333333333334, 0.5833333333333334, 0.3333333333333333, 0.5833333333333334, 0.3333333333333333, 0.3333333333333333, 0.16666666666666666, 0.16666666666666666]",,,,,ofgjwt,002,fr,0,2022-04-27_17h32.26.159,Continuous,2022.1.1,None,
9,0,9,0,1,0,1,0,,,,,,,,1.3503941681741671,none,1012.0,1.5898619255463236,5.350364809398926e-05,0,54,[],0.007205866684671491,None,None,321.3890586999769,321.3890586999769,0.2072272666846402,1.5576214348588073,321.5976686999784,321.3890586999769,,,,,,,,,ofgjwt,002,fr,0,2022-04-27_17h32.26.159,Continuous,2022.1.1,None,
9,0,9,0,2,0,2,0,,,,,,,,2.8905240398262007,none,804.0,0.8874801638076559,4.2621522158809643e-05,0,55,[],0.011403533309930936,None,['space'],322.98639499998535,322.98639499998535,0.20969703330774792,3.1002210731339486,323.2060320999881,322.98639499998535,[-0.5960361000034027],,,,,,,,ofgjwt,002,fr,0,2022-04-27_17h32.26.159,Continuous,2022.1.1,None,
9,0,9,0,3,0,3,0,,,,,,,,2.547126305647704,none,506.0,2.4254578708887764,9.322139004453644e-05,0,56,[],0.005118866654811427,None,['space'],326.12874409998767,326.12874409998767,0.21494306664681062,2.7620693722945147,326.3476949999749,326.12874409998767,[-1.962166299985256],,,,,,,,ofgjwt,002,fr,0,2022-04-27_17h32.26.159,Continuous,2022.1.1,None,
9,0,9,0,4,0,4,0,,,,,,,,1.199474604171537,none,338.0,3.0394028863317972,0.00013146682604648862,0,57,[],0.007086666650138795,None,['space'],328.92945060000056,328.92945060000056,0.2103414666489698,1.4098160708205068,329.13280870000017,328.92945060000056,[-1.9635190999833867],,,,,,,,ofgjwt,002,fr,0,2022-04-27_17h32.26.159,Continuous,2022.1.1,None,
9,0,9,0,5,0,5,0,,,,,,,,2.5450853320549505,none,,,,1,57,[],0.0073497666453476995,None,['space'],330.36661249998724,330.36661249998724,0.20470986666623503,2.7497951987211855,330.5735713999893,330.36661249998724,[-0.9196105000155512],,,,,,,,ofgjwt,002,fr,0,2022-04-27_17h32.26.159,Continuous,2022.1.1,None,
9,0,9,0,6,0,6,0,,,,,,,,1.991325514818344,none,268.0,2.0,0.0001868413480821184,0,58,[],0.008228966704336926,0.20588296669302508,None,333.1516725999827,333.1516725999827,0.20588296669302508,2.1972084815113693,333.35949159998563,333.1516725999827,,,,,,,,,ofgjwt,002,fr,0,2022-04-27_17h32.26.159,Continuous,2022.1.1,None,
9,0,9,0,7,0,7,0,,,,,,,,1.519481254532882,none,179.0,2.6145182951440145,0.00046201405137008284,0,59,[],0.002678766701137647,0.19320316668017767,['space'],335.37687359997653,335.37687359997653,0.19320316668017767,1.7126844212130596,335.5872251999972,335.37687359997653,[-1.7226335000013933],,,,,,,,ofgjwt,002,fr,0,2022-04-27_17h32.26.159,Continuous,2022.1.1,None,
10,0,10,0,0,0,0,0,,,,,0.5833333333333334,341.9466876999941,None,2.9510647106374726,frequency,126.0,0.7947502504805657,0.0007822119409893287,0,68,[],0.013157066656276584,None,None,342.978289199993,None,0.2174246666545514,3.168489377292024,343.19067599999835,None,,337.13947399999597,None,,,,,,ofgjwt,002,fr,0,2022-04-27_17h32.26.159,Continuous,2022.1.1,None,
10,0,10,0,1,0,1,0,,,,,,,,1.9309810563471768,frequency,189.0,-12.0,7.673912905831528e-05,0,69,[],0.002987566636875272,0.19713786663487554,None,346.1684858999797,346.1684858999797,0.19713786663487554,2.1281189229820523,346.3812812999822,346.1684858999797,,,,,,,,,ofgjwt,002,fr,0,2022-04-27_17h32.26.159,Continuous,2022.1.1,None,
10,0,10,0,2,0,2,0,,,,,,,,2.607407714545122,frequency,283.0,-4.075396386099378,8.289319808502929e-05,0,70,[],0.0032718666188884526,0.1938056666404009,None,348.3361343999859,348.3361343999859,0.1938056666404009,2.801213381185523,348.5477461999981,348.3361343999859,,,,,,,,,ofgjwt,002,fr,0,2022-04-27_17h32.26.159,Continuous,2022.1.1,None,
10,0,10,0,3,0,3,0,,,,,,,,2.75691603271736,frequency,424.0,-11.170193586060261,2.081838576816559e-05,0,71,[],0.006671566661680117,None,None,351.1878463999892,351.1878463999892,0.20514446665765718,2.962060499375017,351.39350609999383,351.1878463999892,,,,,,,,,ofgjwt,002,fr,0,2022-04-27_17h32.26.159,Continuous,2022.1.1,None,
10,0,10,0,4,0,4,0,,,,,,,,1.0114070979006688,frequency,635.0,-9.936449595864477,1.615882326991345e-05,0,72,[],0.015255433332640678,None,None,354.1851198999793,354.1851198999793,0.23429853332345374,1.2457056312241226,354.41258759997436,354.1851198999793,,,,,,,,,ofgjwt,002,fr,0,2022-04-27_17h32.26.159,Continuous,2022.1.1,None,
10,0,10,0,5,0,5,0,,,,,,,,1.3809375869289715,frequency,951.0,-6.132568206355321,2.1056691380089667e-05,0,73,[],0.002742466633208096,0.1935269666428212,None,355.4480132999888,355.4480132999888,0.1935269666428212,1.5744645535717927,355.6583357999916,355.4480132999888,,,,,,,,,ofgjwt,002,fr,0,2022-04-27_17h32.26.159,Continuous,2022.1.1,None,
10,0,10,0,6,0,6,0,,,,,,,,2.7096727520241455,frequency,,,,1,73,[],0.01585233330843039,None,None,357.0705192000023,357.0705192000023,0.2057789333339315,2.915451685358077,357.2827189999807,357.0705192000023,,,,,,,,,ofgjwt,002,fr,0,2022-04-27_17h32.26.159,Continuous,2022.1.1,None,
10,0,10,0,7,0,7,0,,,,,,,,2.7363511509689267,frequency,2135.0,-10.554932779225844,2.3081143536853415e-05,0,74,[],0.007956866640597582,None,None,360.02255589998094,360.02255589998094,0.20584146663895808,2.9421926176078848,360.23519449998275,360.02255589998094,,,,,,,,,ofgjwt,002,fr,0,2022-04-27_17h32.26.159,Continuous,2022.1.1,None,
11,0,11,0,0,0,0,0,,,,,0.16666666666666666,366.1125963999948,None,1.889211801083258,frequency,3174.0,-9.193911362634816,2.409446815141203e-05,0,75,[],0.010368666669819504,0.2043484666501172,None,367.1418139000016,None,0.2043484666501172,2.093560267733375,367.3424808999989,None,,363.0019735999813,None,,,,,,ofgjwt,002,fr,0,2022-04-27_17h32.26.159,Continuous,2022.1.1,None,
11,0,11,0,1,0,1,0,,,,,,,,2.3415142829084465,frequency,3563.0,-9.061820438591822,2.6869362315961148e-05,0,76,[],0.016371133329812437,None,None,369.26703669998096,369.26703669998096,0.23537833330919966,2.576892616217646,369.494763900002,369.26703669998096,,,,,,,,,ofgjwt,002,fr,0,2022-04-27_17h32.26.159,Continuous,2022.1.1,None,
11,0,11,0,2,0,2,0,,,,,,,,2.02541177533569,frequency,3999.0,-10.54383679469734,2.4927994071567033e-05,0,77,[],0.0025360666622873396,0.19409216666826978,['space'],371.86102989999927,371.86102989999927,0.19409216666826978,2.2195039420039597,372.0679003999976,371.86102989999927,[-1.8865473000041675],,,,,,,,ofgjwt,002,fr,0,2022-04-27_17h32.26.159,Continuous,2022.1.1,None,
11,0,11,0,3,0,3,0,,,,,,,,2.257041324686404,frequency,4489.0,-11.39366519383565,3.167184270496077e-05,0,78,[],0.015722933312645182,None,['space'],374.1213532999973,374.1213532999973,0.23408803332131356,2.4911293580077176,374.3453654999903,374.1213532999973,[-1.5872647000069264],,,,,,,,ofgjwt,002,fr,0,2022-04-27_17h32.26.159,Continuous,2022.1.1,None,
11,0,11,0,4,0,4,0,,,,,,,,1.2950017944873211,frequency,5039.0,-12.029091789250938,3.787973692574868e-05,0,79,[],0.0031481666665058583,None,['space'],376.6322235999978,376.6322235999978,0.1992211666656658,1.494222961152987,376.8471325999999,376.6322235999978,[-1.969794999982696],,,,,,,,ofgjwt,002,fr,0,2022-04-27_17h32.26.159,Continuous,2022.1.1,None,
11,0,11,0,5,0,5,0,,,,,,,,1.4546503730154485,frequency,5656.0,-12.12301861236382,3.1837479333887076e-05,0,80,[],0.0021133666741661727,0.1927176666795276,['space'],378.16871249998803,378.16871249998803,0.1927176666795276,1.6473680396949761,378.3773859999783,378.16871249998803,[-0.9781822999939322],,,,,,,,ofgjwt,002,fr,0,2022-04-27_17h32.26.159,Continuous,2022.1.1,None,
11,0,11,0,6,0,6,0,,,,,,,,1.4896725665799253,frequency,6349.0,-11.0,3.705984296570844e-05,0,81,[],0.006251166632864624,None,['space'],379.86280479998095,379.86280479998095,0.20439226663438603,1.6940648332143113,380.0805716999748,379.86280479998095,[-1.1374280000163708],,,,,,,,ofgjwt,002,fr,0,2022-04-27_17h32.26.159,Continuous,2022.1.1,None,
11,0,11,0,7,0,7,0,,,,,,,,1.9263477656791541,frequency,7127.0,-10.019312640693144,4.8930521994514644e-05,0,82,[],0.00270486663794145,0.19354496666346677,['space'],381.5899898999778,381.5899898999778,0.19354496666346677,2.119892732342621,381.8017526999756,381.5899898999778,[-1.2638571000134107],,,,,,,,ofgjwt,002,fr,0,2022-04-27_17h32.26.159,Continuous,2022.1.1,None,
11,0,11,0,8,0,8,0,,,,,,,,1.8240423082450188,frequency,8000.0,-11.0,5.116464961403774e-05,0,83,[],0.0025187666760757565,None,['space'],383.7599298999994,383.7599298999994,0.1921063666814007,2.0161486749264195,383.96998609998263,383.7599298999994,[-1.7213134999910835],,,,,,,,ofgjwt,002,fr,0,2022-04-27_17h32.26.159,Continuous,2022.1.1,None,
11,0,11,0,9,0,9,0,,,,,,,,1.9769831265297122,frequency,,,,1,83,[],0.002836566651239991,None,['space'],385.8254887999792,385.8254887999792,0.19890156664769165,2.175884693177404,386.0414421999885,385.8254887999792,[-1.4991369000053965],,,,,,,,ofgjwt,002,fr,0,2022-04-27_17h32.26.159,Continuous,2022.1.1,None,
12,0,12,0,0,0,0,0,,,,,0.16666666666666666,390.75366139999824,None,1.7914991941838854,both,977.0,0.3713553737227129,4.529444071052241e-05,0,40,[],0.012788666703272611,None,None,391.7850229999749,None,0.21693556668469682,2.008434760868582,391.99603309997474,None,,388.051827999996,None,,,,,,ofgjwt,002,fr,0,2022-04-27_17h32.26.159,Continuous,2022.1.1,None,
12,0,12,0,1,0,1,0,,,,,,,,1.7914991941838854,both,1097.0,0.8337051993495549,5.295630563768705e-05,0,41,[],0.005632666638121009,0.20320406663813628,None,393.8159335999808,393.8159335999808,0.20320406663813628,1.9947032608220217,394.0259670999949,393.8159335999808,,,,,,,,,ofgjwt,002,fr,0,2022-04-27_17h32.26.159,Continuous,2022.1.1,None,
12,0,12,0,2,0,2,0,,,,,,,,1.7914991941838854,both,1231.0,1.1731653674808469,6.148226815304947e-05,0,42,[],0.005934666667599231,None,['space'],395.8494693999819,395.8494693999819,0.20498966667219065,1.996488860856076,396.06219899997814,395.8494693999819,[-1.2666454999998678],,,,,,,,ofgjwt,002,fr,0,2022-04-27_17h32.26.159,Continuous,2022.1.1,None,
12,0,12,0,3,0,3,0,,,,,,,,1.7914991941838854,both,1382.0,1.302964545353658,5.9523760650789845e-05,0,43,[],0.004289966687792912,0.19855286667007022,['space'],397.8875707999978,397.8875707999978,0.19855286667007022,1.9900520608539556,398.0961924000003,397.8875707999978,[-1.5293501999985892],,,,,,,,ofgjwt,002,fr,0,2022-04-27_17h32.26.159,Continuous,2022.1.1,None,
12,0,12,0,4,0,4,0,,,,,,,,1.7914991941838854,both,1551.0,1.0,5.9030537959444375e-05,0,44,[],0.015960833319695666,None,['space'],399.9155475999869,399.9155475999869,0.20915953331859782,2.000658727502483,400.12950280000223,399.9155475999869,[-1.605595299974084],,,,,,,,ofgjwt,002,fr,0,2022-04-27_17h32.26.159,Continuous,2022.1.1,None,
12,0,12,0,5,0,5,0,,,,,,,,1.7914991941838854,both,1741.0,0.5329854496282617,6.711143198812684e-05,0,45,[],0.005782866646768525,0.2041022666671779,['space'],401.9558664999786,401.9558664999786,0.2041022666671779,1.9956014608510633,402.1716578999767,401.9558664999786,[-1.6461661999928765],,,,,,,,ofgjwt,002,fr,0,2022-04-27_17h32.26.159,Continuous,2022.1.1,None,
12,0,12,0,6,0,6,0,,,,,,,,1.7914991941838854,both,1954.0,0.428217392123484,7.641045049494894e-05,0,46,[],0.0047101666568778455,None,['space'],403.99002159998054,403.99002159998054,0.20975666667800397,2.0012558608618893,404.20897599999444,403.99002159998054,[-1.567320500005735],,,,,,,,ofgjwt,002,fr,0,2022-04-27_17h32.26.159,Continuous,2022.1.1,None,
12,0,12,0,7,0,7,0,,,,,,,,1.7914991941838854,both,2193.0,0.5099418935184166,8.387239323477093e-05,0,47,[],0.015270533331204206,None,['space'],406.03921219997574,406.03921219997574,0.2262712333467789,2.0177704275306643,406.2590163999994,406.03921219997574,[-1.6012384000059683],,,,,,,,ofgjwt,002,fr,0,2022-04-27_17h32.26.159,Continuous,2022.1.1,None,
12,0,12,0,8,0,8,0,,,,,,,,1.7914991941838854,both,2462.0,1.0,9.543110625828702e-05,0,48,[],0.004901666659861803,None,['space'],408.07944000000134,408.07944000000134,0.2051327666558791,1.9966319608397645,408.289655200002,408.07944000000134,[-1.5291004000173416],,,,,,,,ofgjwt,002,fr,0,2022-04-27_17h32.26.159,Continuous,2022.1.1,None,
12,0,12,0,9,0,9,0,,,,,,,,1.7914991941838854,both,2764.0,0.5751263467932253,7.424659109685433e-05,0,49,[],0.005476266669575125,0.20257696666521952,['space'],410.1161434999958,410.1161434999958,0.20257696666521952,1.9940761608491049,410.32069349999074,410.1161434999958,[-1.5829443999973591],,,,,,,,ofgjwt,002,fr,0,2022-04-27_17h32.26.159,Continuous,2022.1.1,None,
12,0,12,0,10,0,10,0,,,,,,,,1.7914991941838854,both,,,,1,49,[],0.01398093331954442,None,['space'],412.14712639999925,412.14712639999925,0.20748943332000636,1.9989886275038917,412.35631129998364,412.14712639999925,[-1.5171667999820784],,,,,,,,ofgjwt,002,fr,0,2022-04-27_17h32.26.159,Continuous,2022.1.1,None,
12,0,12,0,11,0,11,0,,,,,,,,1.7914991941838854,both,3482.0,-2.872753707111377,5.376971450571108e-05,0,50,[],0.0057576666586101055,None,['space'],414.18717459999607,414.18717459999607,0.20840666667209007,1.9999058608559754,414.39737890000106,414.18717459999607,[-0.5657549000170548],,,,,,,,ofgjwt,002,fr,0,2022-04-27_17h32.26.159,Continuous,2022.1.1,None,
12,0,12,0,12,0,12,0,,,,,,,,1.7914991941838854,both,3908.0,-3.616325660326673,5.428959914218197e-05,0,51,[],0.0037933666608296335,0.19854276668047532,None,416.2233319999941,416.2233319999941,0.19854276668047532,1.9900419608643607,416.42955879998044,416.2233319999941,,,,,,,,,ofgjwt,002,fr,0,2022-04-27_17h32.26.159,Continuous,2022.1.1,None,
12,0,12,0,13,0,13,0,,,,,,,,1.7914991941838854,both,4387.0,-0.39267428234971113,0.00010568077800365213,0,52,[],0.005148266645846888,None,['space'],418.25853890000144,418.25853890000144,0.2077584666549228,1.9992576608388082,418.4752652999887,418.25853890000144,[-1.6446301999967545],,,,,,,,ofgjwt,002,fr,0,2022-04-27_17h32.26.159,Continuous,2022.1.1,None,
12,0,12,0,14,0,14,0,,,,,,,,1.7914991941838854,both,4924.0,0.4701341628072253,0.00015572137238763784,0,53,[],0.003277066658483818,0.19657606663531624,['space'],420.2942586999852,420.2942586999852,0.19657606663531624,1.9880752608192016,420.4998565999849,420.2942586999852,[-1.7763212000136264],,,,,,,,ofgjwt,002,fr,0,2022-04-27_17h32.26.159,Continuous,2022.1.1,None,
13,0,13,0,0,0,0,0,,,,,,426.62775429998874,None,2.3721428009419636,none,1124.0,2.9543263057572005,6.918717550509384e-05,0,60,[],0.013138266687747091,None,None,427.66752209997503,None,0.2209826666803565,2.59312546762232,427.8835014999786,None,,422.3308029999898,None,"[0.16666666666666666, 0.16666666666666666, 0.5833333333333334, 0.3333333333333333, 0.5833333333333334, 0.16666666666666666, 0.16666666666666666, 0.16666666666666666, 0.16666666666666666, 0.16666666666666666, 0.3333333333333333, 0.16666666666666666, 0.16666666666666666, 0.5833333333333334, 0.3333333333333333]",,,,,ofgjwt,002,fr,0,2022-04-27_17h32.26.159,Continuous,2022.1.1,None,
13,0,13,0,1,0,1,0,,,,,,,,2.4625899771782644,none,631.0,2.4842741628903213,6.798901086832533e-05,0,61,[],0.004839166649617255,None,['space'],430.2861450999917,430.2861450999917,0.20396766666090116,2.6665576438391656,430.49726119998377,430.2861450999917,[-1.9751722000073642],,,,,,,,ofgjwt,002,fr,0,2022-04-27_17h32.26.159,Continuous,2022.1.1,None,
13,0,13,0,2,0,2,0,,,,,,,,1.6615455099310397,none,708.0,2.497204823255425,5.908881136568047e-05,0,62,[],0.0008598666463512927,None,None,432.99423849998857,432.99423849998857,0.19601536664413288,1.8575608765751725,433.2132939999865,432.99423849998857,,,,,,,,,ofgjwt,002,fr,0,2022-04-27_17h32.26.159,Continuous,2022.1.1,None,
13,0,13,0,3,0,3,0,,,,,,,,1.378100050026137,none,397.0,6.863852910288894,0.00017043493806135444,0,63,[],0.005180966691114008,None,None,434.90723869999056,434.90723869999056,0.20585186668904498,1.5839519167151819,435.1169716999866,434.90723869999056,,,,,,,,,ofgjwt,002,fr,0,2022-04-27_17h32.26.159,Continuous,2022.1.1,None,
13,0,13,0,4,0,4,0,,,,,,,,1.990408171758996,none,265.0,6.899787662281576,0.00033547833369098587,0,64,[],0.0032131666666828096,0.19634636666160077,['space'],436.52810379999573,436.52810379999573,0.19634636666160077,2.1867545384205966,436.73610749997897,436.52810379999573,[-0.5695453000080306],,,,,,,,ofgjwt,002,fr,0,2022-04-27_17h32.26.159,Continuous,2022.1.1,None,
13,0,13,0,5,0,5,0,,,,,,,,2.364369328470668,none,562.0,4.904657302369529,0.00010864988543371177,0,65,[],0.003781166684348136,0.1993473666952923,['space'],438.7634873999923,438.7634873999923,0.1993473666952923,2.5637166951659602,438.97099589998834,438.7634873999923,[-1.7808024999976624],,,,,,,,ofgjwt,002,fr,0,2022-04-27_17h32.26.159,Continuous,2022.1.1,None,
13,0,13,0,6,0,6,0,,,,,,,,2.835939418898411,none,,,,1,65,[],0.00502656665048562,None,['space'],441.36596309999004,441.36596309999004,0.2041298666736111,3.040069285572022,441.57606589997886,441.36596309999004,[-2.128148299991153],,,,,,,,ofgjwt,002,fr,0,2022-04-27_17h32.26.159,Continuous,2022.1.1,None,
13,0,13,0,7,0,7,0,,,,,,,,1.2453397423042174,none,2122.0,-1.0494529638090484,6.869415268498911e-05,0,66,[],0.006113966694101691,None,None,444.4487511999905,444.4487511999905,0.2030136666726321,1.4483534089768495,444.6588315999834,444.4487511999905,,,,,,,,,ofgjwt,002,fr,0,2022-04-27_17h32.26.159,Continuous,2022.1.1,None,
13,0,13,0,8,0,8,0,,,,,,,,1.3951650420563142,none,140.0,8.025917675612083,0.0014843699168926015,0,67,[],0.004052166652400047,None,['space'],445.9391146999842,445.9391146999842,0.2225867666711565,1.6177518087274707,446.1660910999926,445.9391146999842,[-0.5729631000140216],,,,,,,,ofgjwt,002,fr,0,2022-04-27_17h32.26.159,Continuous,2022.1.1,None,
13,0,13,0,9,0,9,0,,,,,,,,1.9833002899556587,none,892.0,-0.9822947110206979,3.6600564556348314e-05,0,68,[],0.004486066696699709,None,['space'],447.5884150999773,447.5884150999773,0.20467026668484323,2.1879705566405017,447.797316399985,447.5884150999773,[-1.0382194999838248],,,,,,,,ofgjwt,002,fr,0,2022-04-27_17h32.26.159,Continuous,2022.1.1,None,
13,0,13,0,10,0,10,0,,,,,,,,1.0728210115091306,none,1684.0,0.7740703680085775,6.618664029258445e-05,0,69,[],0.0008115666860248893,0.1892355666786898,None,449.8159423999896,449.8159423999896,0.1892355666786898,1.2620565781878204,450.023984999978,449.8159423999896,,,,,,,,,ofgjwt,002,fr,0,2022-04-27_17h32.26.159,Continuous,2022.1.1,None,
13,0,13,0,11,0,11,0,,,,,,,,2.1870266838293304,none,210.0,6.446120088923319,0.0005163887654543483,0,70,[],0.0040620666986797005,None,['space'],451.12820579999243,451.12820579999243,0.1999730666866526,2.386999750515983,451.3382621999772,451.12820579999243,[-0.8496645999839529],,,,,,,,ofgjwt,002,fr,0,2022-04-27_17h32.26.159,Continuous,2022.1.1,None,
13,0,13,0,12,0,12,0,,,,,,,,2.068417261494601,none,1001.0,-0.15813944756718135,4.329873340086844e-05,0,71,[],0.0045291666756384075,None,['space'],453.5623473000014,453.5623473000014,0.20374866665224545,2.2721659281468463,453.76674359999015,453.5623473000014,[-2.020620900002541],,,,,,,,ofgjwt,002,fr,0,2022-04-27_17h32.26.159,Continuous,2022.1.1,None,
13,0,13,0,13,0,13,0,,,,,,,,2.557643163259896,none,125.0,7.0,0.0016179682846481417,0,72,[],0.0009636666509322822,0.19201216666260734,['space'],455.86795469999197,455.86795469999197,0.19201216666260734,2.7496553299225033,456.0732244999963,455.86795469999197,[-1.8940988999966066],,,,,,,,ofgjwt,002,fr,0,2022-04-27_17h32.26.159,Continuous,2022.1.1,None,
13,0,13,0,14,0,14,0,,,,,,,,1.180917816864304,none,446.0,5.849427902557753,0.0001455118151881099,0,73,[],0.0045720666530542076,None,['space'],458.66757409999263,458.66757409999263,0.2016290666651912,1.3825468835294952,458.87339729999076,458.66757409999263,[-2.3737564000184648],,,,,,,,ofgjwt,002,fr,0,2022-04-27_17h32.26.159,Continuous,2022.1.1,None,
14,0,14,0,0,0,0,0,,,,,0.5833333333333334,466.8553550999786,None,2.5360637349497757,frequency,315.0,3.704589633228661,0.0001510773943870693,0,84,[],0.011344466678565368,None,None,467.88087349999114,None,0.2093764666642528,2.7454402016140285,468.09392990000197,None,,460.08697849998134,None,,,,,,ofgjwt,002,fr,0,2022-04-27_17h32.26.159,Continuous,2022.1.1,None,
14,0,14,0,1,0,1,0,,,,,,,,1.194227470119348,frequency,472.0,-9.571265590582637,2.4211277951321135e-05,0,85,[],0.0018989666714332998,None,None,470.66517769999336,470.66517769999336,0.1980363666662015,1.3922638367855495,470.8740061999997,470.66517769999336,,,,,,,,,ofgjwt,002,fr,0,2022-04-27_17h32.26.159,Continuous,2022.1.1,None,
14,0,14,0,2,0,2,0,,,,,,,,1.2278242613400834,frequency,707.0,-14.509730289788441,8.356354699141546e-06,0,86,[],0.0006167666579131037,0.19024916665512137,None,472.1007899999968,472.1007899999968,0.19024916665512137,1.4180734279952047,472.30513860000065,472.1007899999968,,,,,,,,,ofgjwt,002,fr,0,2022-04-27_17h32.26.159,Continuous,2022.1.1,None,
14,0,14,0,3,0,3,0,,,,,,,,2.1207098120408006,frequency,,,,1,86,[],0.016555233305552974,None,None,473.5685768999974,473.5685768999974,0.23493543331278488,2.3556452453535854,473.7979113999754,473.5685768999974,,,,,,,,,ofgjwt,002,fr,0,2022-04-27_17h32.26.159,Continuous,2022.1.1,None,
14,0,14,0,4,0,4,0,,,,,,,,2.3038416153324706,frequency,1587.0,-9.59278861918944,1.8443515113593442e-05,0,87,[],0.002612666692584753,0.19375216669868678,None,475.9408458999824,475.9408458999824,0.19375216669868678,2.4975937820311573,476.1517157999915,475.9408458999824,,,,,,,,,ofgjwt,002,fr,0,2022-04-27_17h32.26.159,Continuous,2022.1.1,None,
14,0,14,0,5,0,5,0,,,,,,,,1.241593730439317,frequency,2378.0,-5.97800580540624,4.179998417512719e-05,0,88,[],0.0035519666562322527,None,None,478.4885313999839,478.4885313999839,0.21004626667127013,1.451639997110587,478.7013595000026,478.4885313999839,,,,,,,,,ofgjwt,002,fr,0,2022-04-27_17h32.26.159,Continuous,2022.1.1,None,
14,0,14,0,6,0,6,0,,,,,,,,1.6819846941614536,frequency,3563.0,-8.482763891932645,2.8721702991089913e-05,0,89,[],0.003498366684652865,None,None,479.9729074999923,479.9729074999923,0.20973976666573435,1.891724460827188,480.1893254999886,479.9729074999923,,,,,,,,,ofgjwt,002,fr,0,2022-04-27_17h32.26.159,Continuous,2022.1.1,None,
14,0,14,0,7,0,7,0,,,,,,,,2.4637526462881425,frequency,5339.0,-14.822385126362027,2.5454705397975793e-05,0,90,[],0.0009997666347771883,0.19213256661896594,None,481.8958077999996,481.8958077999996,0.19213256661896594,2.6558852129071084,482.1098129999882,481.8958077999996,,,,,,,,,ofgjwt,002,fr,0,2022-04-27_17h32.26.159,Continuous,2022.1.1,None,
14,0,14,0,8,0,8,0,,,,,,,,1.6232331042559878,frequency,8000.0,-15.0,3.228271145173278e-05,0,91,[],0.0004925666435156018,0.1922766666393727,None,484.5978308999911,484.5978308999911,0.1922766666393727,1.8155097708953605,484.8064499999746,484.5978308999911,,,,,,,,,ofgjwt,002,fr,0,2022-04-27_17h32.26.159,Continuous,2022.1.1,None,
15,0,15,0,0,0,0,0,,,,,0.3333333333333333,489.9619622999744,None,1.9133572246341288,frequency,125.0,10.0,0.002285440948074376,0,92,[],0.012999666651012376,None,None,490.9839726999926,None,0.2230906666663941,2.1364478913005227,491.19993760000216,None,,486.45990479999455,None,,,,,,ofgjwt,002,fr,0,2022-04-27_17h32.26.159,Continuous,2022.1.1,None,
15,0,15,0,1,0,1,0,,,,,,,,2.2801078029489386,frequency,157.0,7.95988935548332,0.0010947116971655826,0,93,[],0.016645733354380354,None,['space'],493.1405451000028,493.1405451000028,0.2331591333495453,2.513266936298484,493.3699729999935,493.1405451000028,[-1.6939783999987412],,,,,,,,ofgjwt,002,fr,0,2022-04-27_17h32.26.159,Continuous,2022.1.1,None,
15,0,15,0,2,0,2,0,,,,,,,,2.850019953845038,frequency,198.0,7.4489867988475815,0.0006429484668585823,0,94,[],0.015809433301910758,None,['space'],495.6757708999794,495.6757708999794,0.23378913331544027,3.0838090871604784,495.90376970000216,495.6757708999794,[-2.1026953000109643],,,,,,,,ofgjwt,002,fr,0,2022-04-27_17h32.26.159,Continuous,2022.1.1,None,
15,0,15,0,3,0,3,0,,,,,,,,1.8180850805435886,frequency,249.0,9.01862878297181,0.000478577499773181,0,95,[],0.01658393332036212,None,['space'],498.77827889999026,498.77827889999026,0.23740773333702236,2.055492813880611,499.00935509998817,498.77827889999026,[-2.788315199984936],,,,,,,,ofgjwt,002,fr,0,2022-04-27_17h32.26.159,Continuous,2022.1.1,None,
15,0,15,0,4,0,4,0,,,,,,,,1.0348212055637662,frequency,314.0,7.029542253427263,0.0002239172335343527,0,96,[],0.0005604666366707534,0.1891594666230958,['space'],500.85281379998196,500.85281379998196,0.1891594666230958,1.223980672186862,501.0619433999818,500.85281379998196,[-1.5193203999951947],,,,,,,,ofgjwt,002,fr,0,2022-04-27_17h32.26.159,Continuous,2022.1.1,None,
15,0,15,0,5,0,5,0,,,,,,,,2.5279067537424593,frequency,,,,1,96,[],0.0004621666739694774,0.1902852666680701,['space'],502.1317333999905,502.1317333999905,0.1902852666680701,2.7181920204105294,502.34271159998025,502.1317333999905,[-0.8772947000106797],,,,,,,,ofgjwt,002,fr,0,2022-04-27_17h32.26.159,Continuous,2022.1.1,None,
15,0,15,0,6,0,6,0,,,,,,,,2.146064704473485,frequency,499.0,8.960931400811855,0.00020059821664998955,0,97,[],0.0011132666550111026,0.190556966670556,None,504.90240179997636,504.90240179997636,0.190556966670556,2.336621671144041,505.10828639997635,504.90240179997636,,,,,,,,,ofgjwt,002,fr,0,2022-04-27_17h32.26.159,Continuous,2022.1.1,None,
15,0,15,0,7,0,7,0,,,,,,,,2.427557730919909,frequency,629.0,6.275468154999642,0.00010569770458053655,0,98,[],0.0038973666669335216,None,['space'],507.28521489998093,507.28521489998093,0.20106366666732356,2.6286213975872323,507.4900587000011,507.28521489998093,[-2.0148910999996588],,,,,,,,ofgjwt,002,fr,0,2022-04-27_17h32.26.159,Continuous,2022.1.1,None,
15,0,15,0,8,0,8,0,,,,,,,,2.229932611838231,frequency,792.0,3.7987600836229394,5.99799340610777e-05,0,99,[],0.008444033359410241,None,['space'],509.95883399999,509.95883399999,0.2082704333588481,2.438203045197079,510.1751084999996,509.95883399999,[-2.2887092999881133],,,,,,,,ofgjwt,002,fr,0,2022-04-27_17h32.26.159,Continuous,2022.1.1,None,
15,0,15,0,9,0,9,0,,,,,,,,2.216957754480334,frequency,998.0,3.6956916800027715,6.732770771868073e-05,0,100,[],0.012997533340239897,None,['space'],512.4370668999909,512.4370668999909,0.20310373333632015,2.420061487816654,512.6497834999755,512.4370668999909,[-2.1275041999761015],,,,,,,,ofgjwt,002,fr,0,2022-04-27_17h32.26.159,Continuous,2022.1.1,None,
15,0,15,0,10,0,10,0,,,,,,,,1.879673926012596,frequency,1257.0,3.785529006458132,8.401553922130902e-05,0,101,[],0.00015106666251085699,0.18822556667146273,['space'],514.9009190999786,514.9009190999786,0.18822556667146273,2.0678994926840586,515.1102124000026,514.9009190999786,[-2.1109061000170186],,,,,,,,ofgjwt,002,fr,0,2022-04-27_17h32.26.159,Continuous,2022.1.1,None,
15,0,15,0,11,0,11,0,,,,,,,,2.794483846559076,frequency,1584.0,8.879727666631984,0.00015398812159894085,0,102,[],0.003539666678989306,None,['space'],517.028421199997,517.028421199997,0.20372206665342674,2.9982059132125025,517.2405492999824,517.028421199997,[-1.741826499986928],,,,,,,,ofgjwt,002,fr,0,2022-04-27_17h32.26.159,Continuous,2022.1.1,None,
15,0,15,0,12,0,12,0,,,,,,,,2.7486907030619228,frequency,1996.0,1.0377860128359364,8.410262536367202e-05,0,103,[],0.016423233319073915,None,['space'],520.0697682999889,520.0697682999889,0.23605363332899287,2.9847443363909156,520.3016205999884,520.0697682999889,[-2.591999800002668],,,,,,,,ofgjwt,002,fr,0,2022-04-27_17h32.26.159,Continuous,2022.1.1,None,
15,0,15,0,13,0,13,0,,,,,,,,2.327698371947336,frequency,2515.0,1.0123438916886274,9.546593583904822e-05,0,104,[],0.01608203331124969,None,['space'],523.0730252999929,523.0730252999929,0.25232343332027085,2.5800218052676067,523.3174024999898,523.0730252999929,[-2.47504520000075],,,,,,,,ofgjwt,002,fr,0,2022-04-27_17h32.26.159,Continuous,2022.1.1,None,
16,0,16,0,0,0,0,0,,,,,,528.0056811999821,None,1.0542150120953675,time,2462.0,0.0,8.505306297983944e-05,0,35,[],0.013123166660079733,None,None,529.0368741999846,None,0.22486316665890627,1.2790781787542738,529.2518796999939,None,,525.6716641999956,None,"[0.3333333333333333, 0.16666666666666666, 0.3333333333333333, 0.5833333333333334, 0.5833333333333334, 0.3333333333333333, 0.5833333333333334, 0.5833333333333334, 0.3333333333333333, 0.16666666666666666, 0.5833333333333334, 0.3333333333333333, 0.16666666666666666, 0.5833333333333334, 0.16666666666666666]",,,,,ofgjwt,002,fr,0,2022-04-27_17h32.26.159,Continuous,2022.1.1,None,
16,0,16,0,1,0,1,0,,,,,,,,1.0542150120953675,time,461.0,3.372071712301024,0.00010827328152038938,0,36,[],0.01636753330240026,None,None,530.3306215999764,530.3306215999764,0.2397663333103992,1.2939813454057667,530.5625244999828,530.3306215999764,,,,,,,,,ofgjwt,002,fr,0,2022-04-27_17h32.26.159,Continuous,2022.1.1,None,
16,0,16,0,2,0,2,0,,,,,,,,1.0542150120953675,time,244.0,3.722247090802852,0.00027513263296364795,0,37,[],0.0022866666549816728,None,None,531.6444960999943,531.6444960999943,0.19753716664854437,1.2517521787439119,531.8562320999918,531.6444960999943,,,,,,,,,ofgjwt,002,fr,0,2022-04-27_17h32.26.159,Continuous,2022.1.1,None,
16,0,16,0,3,0,3,0,,,,,,,,1.0542150120953675,time,217.0,2.4308182752873693,0.0003071025298714749,0,38,[],0.0010398666781838983,None,['space'],532.9461441999883,532.9461441999883,0.19335726668941788,1.2475722787847854,533.1566639999801,532.9461441999883,[-0.8755082999996375],,,,,,,,ofgjwt,002,fr,0,2022-04-27_17h32.26.159,Continuous,2022.1.1,None,
16,0,16,0,4,0,4,0,,,,,,,,1.0542150120953675,time,1304.0,0.2844281577359231,5.493846013554956e-05,0,39,[],0.004891033342573792,None,['space'],534.2576432999922,534.2576432999922,0.21119213334168307,1.2654071454370506,534.4859024999896,534.2576432999922,[-0.9398330999829341],,,,,,,,ofgjwt,002,fr,0,2022-04-27_17h32.26.159,Continuous,2022.1.1,None,
16,0,16,0,5,0,5,0,,,,,,,,1.0542150120953675,time,5856.0,-2.145430228512465,9.4658400334063e-05,0,40,[],0.015037833305541426,None,['space'],535.5701646999805,535.5701646999805,0.2348944333207328,1.2891094454161003,535.8012815999973,535.5701646999805,[-0.7958157999964897],,,,,,,,ofgjwt,002,fr,0,2022-04-27_17h32.26.159,Continuous,2022.1.1,None,
16,0,16,0,6,0,6,0,,,,,,,,1.0542150120953675,time,870.0,-1.6474670898230184,3.338504889942765e-05,0,41,[],0.003387666685739532,None,['space'],536.8831956999784,536.8831956999784,0.20205126667860895,1.2562662787739765,537.0894214999862,536.8831956999784,[-0.9262292000057641],,,,,,,,ofgjwt,002,fr,0,2022-04-27_17h32.26.159,Continuous,2022.1.1,None,
16,0,16,0,7,0,7,0,,,,,,,,1.0542150120953675,time,5217.0,-9.232963305964645,4.99979370536331e-05,0,42,[],0.013165633310563862,None,['space'],538.180767199985,538.180767199985,0.23183013332891278,1.2860451454242803,538.4093172999856,538.180767199985,[-0.9430605999950785],,,,,,,,ofgjwt,002,fr,0,2022-04-27_17h32.26.159,Continuous,2022.1.1,None,
16,0,16,0,8,0,8,0,,,,,,,,1.0542150120953675,time,4141.0,-8.253887458057743,3.620557947839254e-05,0,43,[],0.015932933310978115,None,['space'],539.4898689999827,539.4898689999827,0.23707663331879303,1.2912916454141605,539.720709199988,539.4898689999827,[-1.0369666000187863],,,,,,,,ofgjwt,002,fr,0,2022-04-27_17h32.26.159,Continuous,2022.1.1,None,
16,0,16,0,9,0,9,0,,,,,,,,1.0542150120953675,time,,,,1,43,[],0.0029847667028661817,0.1997128666844219,['space'],540.8042069999792,540.8042069999792,0.1997128666844219,1.2539278787797894,541.0118215999973,540.8042069999792,[-1.0227563999942504],,,,,,,,ofgjwt,002,fr,0,2022-04-27_17h32.26.159,Continuous,2022.1.1,None,
16,0,16,0,10,0,10,0,,,,,,,,1.0542150120953675,time,691.0,0.0,4.581539501273942e-05,0,44,[],0.012298533343710005,None,['space'],542.102333399991,542.102333399991,0.2110792333551217,1.2652942454504892,542.3230636999942,542.102333399991,[-0.2569597000256181],,,,,,,,ofgjwt,002,fr,0,2022-04-27_17h32.26.159,Continuous,2022.1.1,None,
16,0,16,0,11,0,11,0,,,,,,,,1.0542150120953675,time,308.0,1.9142318612349163,0.00013218099704867897,0,45,[],0.01524183331639506,None,['space'],543.4092540999991,543.4092540999991,0.23548853330430575,1.2897035453996732,543.642689499975,543.4092540999991,[0.0693883000058122],,,,,,,,ofgjwt,002,fr,0,2022-04-27_17h32.26.159,Continuous,2022.1.1,None,
16,0,16,0,12,0,12,0,,,,,,,,1.0542150120953675,time,2764.0,-0.28656443073803883,6.723446906369675e-05,0,46,[],0.002767066704109311,None,None,544.7251699999906,544.7251699999906,0.20162166669615544,1.255836678791523,544.9368221999903,544.7251699999906,,,,,,,,,ofgjwt,002,fr,0,2022-04-27_17h32.26.159,Continuous,2022.1.1,None,
17,0,17,0,0,0,0,0,,,,,0.5833333333333334,549.3257635999762,None,2.5123750803679212,both,158.0,-0.37507316595574025,0.00041079928887698423,0,54,[],0.012023766641505063,None,None,550.3530689999752,None,0.2214549666387029,2.733830047006624,550.5652813999914,None,,546.0264118999767,None,,,,,,ofgjwt,002,fr,0,2022-04-27_17h32.26.159,Continuous,2022.1.1,None,
17,0,17,0,1,0,1,0,,,,,,,,2.5123750803679212,both,236.0,1.8437277217686496,0.00024100362951225767,0,55,[],0.015563533321255818,None,None,553.1040142999846,553.1040142999846,0.2058134333055932,2.7181885136735144,553.3153582999948,553.1040142999846,,,,,,,,,ofgjwt,002,fr,0,2022-04-27_17h32.26.159,Continuous,2022.1.1,None,
17,0,17,0,2,0,2,0,,,,,,,,2.5123750803679212,both,354.0,-8.0,3.523104599084112e-05,0,56,[],0.002580566651886329,None,['space'],555.8697232999839,555.8697232999839,0.201361266663298,2.7137363470312192,556.0771824999829,555.8697232999839,[-2.2957071000128053],,,,,,,,ofgjwt,002,fr,0,2022-04-27_17h32.26.159,Continuous,2022.1.1,None,
17,0,17,0,3,0,3,0,,,,,,,,2.5123750803679212,both,530.0,-0.9427816047363269,5.989736752016242e-05,0,57,[],0.015770733327372,None,None,558.6243680999905,558.6243680999905,0.23738443330512382,2.749759513673045,558.8516529999906,558.6243680999905,,,,,,,,,ofgjwt,002,fr,0,2022-04-27_17h32.26.159,Continuous,2022.1.1,None,
17,0,17,0,4,0,4,0,,,,,,,,2.5123750803679212,both,794.0,-3.673518377883811,2.5314606823452732e-05,0,58,[],0.014462233317317441,None,['space'],561.3965557999909,561.3965557999909,0.23272133333375677,2.745096413701678,561.6283589999948,561.3965557999909,[-2.270540700003039],,,,,,,,ofgjwt,002,fr,0,2022-04-27_17h32.26.159,Continuous,2022.1.1,None,
17,0,17,0,5,0,5,0,,,,,,,,2.5123750803679212,both,1190.0,-3.753200877742933,3.375514170525303e-05,0,59,[],0.015319433325203136,None,['space'],564.1648200999771,564.1648200999771,0.23495773333706893,2.74733281370499,564.3974984999804,564.1648200999771,[-2.270519300014712],,,,,,,,ofgjwt,002,fr,0,2022-04-27_17h32.26.159,Continuous,2022.1.1,None,
17,0,17,0,6,0,6,0,,,,,,,,2.5123750803679212,both,,,,1,59,[],0.015517733321757987,None,"['space', 'space']",566.9332216999901,566.9332216999901,0.23719413334038109,2.7495692137083023,567.1682633000019,566.9332216999901,"[-2.367340400000103, 0.20917210000334308]",,,,,,,,ofgjwt,002,fr,0,2022-04-27_17h32.26.159,Continuous,2022.1.1,None,
17,0,17,0,7,0,7,0,,,,,,,,2.5123750803679212,both,2671.0,-4.3289069042968364,4.572677660996996e-05,0,60,[],0.013823633315041661,None,None,569.7101933999802,569.7101933999802,0.2232756333251018,2.735650713693023,569.9315657999832,569.7101933999802,,,,,,,,,ofgjwt,002,fr,0,2022-04-27_17h32.26.159,Continuous,2022.1.1,None,
17,0,17,0,8,0,8,0,,,,,,,,2.5123750803679212,both,4002.0,-8.730633345860408,3.0771575822950784e-05,0,61,[],0.015470533340703696,None,['space'],572.4729118999967,572.4729118999967,0.20766433334210888,2.72003941371003,572.6853509999928,572.4729118999967,[-2.195152700005565],,,,,,,,ofgjwt,002,fr,0,2022-04-27_17h32.26.159,Continuous,2022.1.1,None,
18,0,18,0,0,0,0,0,,,,,,577.5273578999913,None,1.386278641138294,time,245.0,4.201489190454149,0.0002875616348206647,0,47,[],0.013019366655498743,None,None,578.5499315999914,None,0.22907866665627807,1.615357307794572,578.7727011999814,None,,575.2398592999962,None,"[0.16666666666666666, 0.5833333333333334, 0.5833333333333334, 0.5833333333333334, 0.16666666666666666, 0.3333333333333333, 0.5833333333333334, 0.3333333333333333, 0.16666666666666666, 0.16666666666666666, 0.3333333333333333, 0.16666666666666666, 0.3333333333333333, 0.16666666666666666, 0.16666666666666666]",,,,,ofgjwt,002,fr,0,2022-04-27_17h32.26.159,Continuous,2022.1.1,None,
18,0,18,0,1,0,1,0,,,,,,,,1.386278641138294,time,173.0,0.15655173727812421,0.0003703916370370927,0,48,[],0.014482933300314471,None,['space'],580.1853136999998,580.1853136999998,0.21562253328738734,1.6019011744256813,580.4048414999852,580.1853136999998,[-1.1723727000062354],,,,,,,,ofgjwt,002,fr,0,2022-04-27_17h32.26.159,Continuous,2022.1.1,None,
18,0,18,0,2,0,2,0,,,,,,,,1.386278641138294,time,154.0,0.0,0.00046453822104200893,0,49,[],0.0013788666401524097,None,['space'],581.8331499999913,581.8331499999913,0.21750996663467959,1.6037886077729735,582.0548777999938,581.8331499999913,[-1.284320500009926],,,,,,,,ofgjwt,002,fr,0,2022-04-27_17h32.26.159,Continuous,2022.1.1,None,
18,0,18,0,3,0,3,0,,,,,,,,1.386278641138294,time,137.0,7.9080013029004945,0.0015307365880417013,0,50,[],0.014163833344355226,None,['space'],583.4723157999979,583.4723157999979,0.21567003332893364,1.6019486744672276,583.6904830999847,583.4723157999979,[-1.290755199996056],,,,,,,,ofgjwt,002,fr,0,2022-04-27_17h32.26.159,Continuous,2022.1.1,None,
18,0,18,0,4,0,4,0,,,,,,,,1.386278641138294,time,389.0,1.6095665553300282,9.557711498451851e-05,0,51,[],0.014391533361049369,None,['space'],585.1110843999777,585.1110843999777,0.21867603334248997,1.6049546744807839,585.3271499999973,585.1110843999777,[-1.3462673999893013],,,,,,,,ofgjwt,002,fr,0,2022-04-27_17h32.26.159,Continuous,2022.1.1,None,
18,0,18,0,5,0,5,0,,,,,,,,1.386278641138294,time,,,,1,51,[],0.001485466695157811,None,['space'],586.7549070999958,586.7549070999958,0.21107516667689197,1.5973538078151859,586.9764698999934,586.7549070999958,[-1.1493892999715172],,,,,,,,ofgjwt,002,fr,0,2022-04-27_17h32.26.159,Continuous,2022.1.1,None,
18,0,18,0,6,0,6,0,,,,,,,,1.386278641138294,time,309.0,2.3429603821868312,0.00013748161333968626,0,52,[],0.015359633340267465,None,['space'],588.3933808000002,588.3933808000002,0.22171533334767446,1.6079939744859684,588.6140661999816,588.3933808000002,[-0.2765001000079792],,,,,,,,ofgjwt,002,fr,0,2022-04-27_17h32.26.159,Continuous,2022.1.1,None,
18,0,18,0,7,0,7,0,,,,,,,,1.386278641138294,time,347.0,2.4930197390360385,0.00012033844022140227,0,53,[],0.0011930666805710644,None,['space'],590.0413165999926,590.0413165999926,0.21306246670428663,1.5993411078425805,590.2584495999909,590.0413165999926,[-0.8363768999988679],,,,,,,,ofgjwt,002,fr,0,2022-04-27_17h32.26.159,Continuous,2022.1.1,None,
19,0,19,0,0,0,0,0,,,,,,594.5300381999987,None,2.97127460367909,time,334.0,6.345995288717097,0.00019452989686364878,0,54,[],0.012741666694637388,None,None,595.5558240999817,None,0.20926016668090597,3.180534770359996,595.7663873999845,None,,591.6797123999859,None,"[0.16666666666666666, 0.5833333333333334, 0.16666666666666666, 0.3333333333333333, 0.3333333333333333, 0.3333333333333333, 0.16666666666666666, 0.3333333333333333, 0.3333333333333333, 0.3333333333333333, 0.16666666666666666, 0.16666666666666666, 0.5833333333333334, 0.5833333333333334, 0.16666666666666666]",,,,,ofgjwt,002,fr,0,2022-04-27_17h32.26.159,Continuous,2022.1.1,None,
19,0,19,0,1,0,1,0,,,,,,,,2.97127460367909,time,561.0,4.5333541130341946,0.0001043661097852372,0,55,[],0.0008304666553158313,None,['space'],598.768840499979,598.768840499979,0.20991646667243913,3.181191070351529,598.9841097999888,598.768840499979,[-2.668101699993713],,,,,,,,ofgjwt,002,fr,0,2022-04-27_17h32.26.159,Continuous,2022.1.1,None,
19,0,19,0,2,0,2,0,,,,,,,,2.97127460367909,time,1123.0,1.260762843916741,5.688245746829567e-05,0,56,[],0.008178233314538375,None,"['space', 'space']",601.98518779999,601.98518779999,0.22300693331635557,3.1942815369954456,602.2137480999809,601.98518779999,"[-2.9083380000083707, -0.1876369999954477]",,,,,,,,ofgjwt,002,fr,0,2022-04-27_17h32.26.159,Continuous,2022.1.1,None,
19,0,19,0,3,0,3,0,,,,,,,,2.97127460367909,time,2520.0,2.0084601130900417,0.00010667510933519944,0,57,[],0.015239933360135183,None,None,605.2132360999822,605.2132360999822,0.2320798333385028,3.203354437017593,605.4429234999989,605.2132360999822,,,,,,,,,ofgjwt,002,fr,0,2022-04-27_17h32.26.159,Continuous,2022.1.1,None,
19,0,19,0,4,0,4,0,,,,,,,,2.97127460367909,time,707.0,-0.1177629160660266,4.381423514584885e-05,0,58,[],0.0006695666525047272,None,['space'],608.4423619000008,608.4423619000008,0.1964650666632224,3.1677396703423124,608.6525520999858,608.4423619000008,[-2.771709799999371],,,,,,,,ofgjwt,002,fr,0,2022-04-27_17h32.26.159,Continuous,2022.1.1,None,
19,0,19,0,5,0,5,0,,,,,,,,2.97127460367909,time,1260.0,3.245243715200058,7.884054868204242e-05,0,59,[],0.0015061666490510106,None,['space'],611.6636146999954,611.6636146999954,0.19860856665764004,3.16988317033673,611.8772205999994,611.6636146999954,[-2.7624443999957293],,,,,,,,ofgjwt,002,fr,0,2022-04-27_17h32.26.159,Continuous,2022.1.1,None,
19,0,19,0,6,0,6,0,,,,,,,,2.97127460367909,time,891.0,-1.3647614122632534,3.4999606313299875e-05,0,60,[],0.000276766688330099,0.1951051666692365,['space'],614.8826085999899,614.8826085999899,0.1951051666692365,3.1663797703483265,615.0922283999971,614.8826085999899,[-2.7641417999984697],,,,,,,,ofgjwt,002,fr,0,2022-04-27_17h32.26.159,Continuous,2022.1.1,None,
19,0,19,0,7,0,7,0,,,,,,,,2.97127460367909,time,2829.0,-2.7759870582983677,4.754586216925054e-05,0,61,[],0.000754966662498191,None,['space'],618.1027231999906,618.1027231999906,0.19701606666785665,3.1682906703469467,618.316250999982,618.1027231999906,[-2.688210299995262],,,,,,,,ofgjwt,002,fr,0,2022-04-27_17h32.26.159,Continuous,2022.1.1,None,
19,0,19,0,8,0,8,0,,,,,,,,2.97127460367909,time,,,,1,61,[],0.00025136666954495013,0.19479166666860692,['space'],621.3231190999795,621.3231190999795,0.19479166666860692,3.166066270347697,621.5326643000008,621.3231190999795,[-2.661809400015045],,,,,,,,ofgjwt,002,fr,0,2022-04-27_17h32.26.159,Continuous,2022.1.1,None,
19,0,19,0,9,0,9,0,,,,,,,,2.97127460367909,time,8000.0,-2.6012704500753325,0.00013455705763834824,0,62,[],0.0027739666402339935,None,['space'],624.5422984999896,624.5422984999896,0.1997747666318901,3.17104937031098,624.7565623999981,624.5422984999896,[-1.959943399997428],,,,,,,,ofgjwt,002,fr,0,2022-04-27_17h32.26.159,Continuous,2022.1.1,None,
19,0,19,0,10,0,10,0,,,,,,,,2.97127460367909,time,500.0,4.976153221818775,0.00012670030648334265,0,63,[],0.015857133315876126,None,['space'],627.7636848999828,627.7636848999828,0.23864073332515545,3.2099153370042455,627.9928291999968,627.7636848999828,[-2.6062094000226352],,,,,,,,ofgjwt,002,fr,0,2022-04-27_17h32.26.159,Continuous,2022.1.1,None,
19,0,19,0,11,0,11,0,,,,,,,,2.97127460367909,time,4757.0,4.448931018364551,0.00022702266734590118,0,64,[],0.014495433337287977,None,['space'],630.9925095999788,630.9925095999788,0.23444273334462196,3.205717337023712,631.2213034000015,630.9925095999788,[-2.714533999998821],,,,,,,,ofgjwt,002,fr,0,2022-04-27_17h32.26.159,Continuous,2022.1.1,None,
19,0,19,0,12,0,12,0,,,,,,,,2.97127460367909,time,3175.0,-1.3360628790984874,5.955517997813654e-05,0,65,[],0.014045533345779404,None,['space'],634.2207258999988,634.2207258999988,0.23244713334133849,3.2037217370204285,634.440308099991,634.2207258999988,[-2.695754799991846],,,,,,,,ofgjwt,002,fr,0,2022-04-27_17h32.26.159,Continuous,2022.1.1,None,
19,0,19,0,13,0,13,0,,,,,,,,2.97127460367909,time,1587.0,2.826969619777597,7.706046190881987e-05,0,66,[],0.014403033332200721,0.21119663331774063,['space'],637.448800299986,637.448800299986,0.21119663331774063,3.1824712369968307,637.6609914999863,637.448800299986,[-2.642572200013092],,,,,,,,ofgjwt,002,fr,0,2022-04-27_17h32.26.159,Continuous,2022.1.1,None,
19,0,19,0,14,0,14,0,,,,,,,,2.97127460367909,time,2000.0,5.0,0.0001330362529899405,0,67,[],0.01407293335068971,None,['space'],640.6690756999888,640.6690756999888,0.2350629333523102,3.2063375370314002,640.8983284999849,640.6690756999888,[-2.647465000016382],,,,,,,,ofgjwt,002,fr,0,2022-04-27_17h32.26.159,Continuous,2022.1.1,None,
20,0,20,0,0,0,0,0,,,,,,647.0013441999909,None,2.1167421862128304,time,6805.0,-14.21252588038085,2.829347801317408e-05,0,68,[],0.009342866687802598,None,None,648.0286751999811,None,0.21583666669903323,2.3325788529118636,648.2395296999894,None,,643.8982868999883,None,"[0.16666666666666666, 0.5833333333333334, 0.3333333333333333, 0.3333333333333333, 0.16666666666666666, 0.5833333333333334, 0.16666666666666666, 0.16666666666666666, 0.16666666666666666, 0.16666666666666666, 0.5833333333333334, 0.5833333333333334, 0.16666666666666666, 0.16666666666666666, 0.5833333333333334]",,,,,ofgjwt,002,fr,0,2022-04-27_17h32.26.159,Continuous,2022.1.1,None,
20,0,20,0,1,0,1,0,,,,,,,,2.1167421862128304,time,2024.0,-7.724486164075947,3.0961585830814114e-05,0,69,[],0.009657033340772614,None,None,650.3858537999913,650.3858537999913,0.22661393333692104,2.3433561195497514,650.6141375000007,650.3858537999913,,,,,,,,,ofgjwt,002,fr,0,2022-04-27_17h32.26.159,Continuous,2022.1.1,None,
20,0,20,0,2,0,2,0,,,,,,,,2.1167421862128304,time,1072.0,-6.843881638901866,2.1403989131564583e-05,0,70,[],0.013706033350899816,None,None,652.7571418999869,652.7571418999869,0.23461433334159665,2.351356519554427,652.9887222999823,652.7571418999869,,,,,,,,,ofgjwt,002,fr,0,2022-04-27_17h32.26.159,Continuous,2022.1.1,None,
20,0,20,0,3,0,3,0,,,,,,,,2.1167421862128304,time,4813.0,-13.861910927997862,2.8356856975355057e-05,0,71,[],0.014181533333612606,None,None,655.1339314999932,655.1339314999932,0.22959353332407773,2.346335719536908,655.3610921999789,655.1339314999932,,,,,,,,,ofgjwt,002,fr,0,2022-04-27_17h32.26.159,Continuous,2022.1.1,None,
20,0,20,0,4,0,4,0,,,,,,,,2.1167421862128304,time,2550.0,-8.063511585773316,3.2718487550748574e-05,0,72,[],0.006964633357711136,0.1977157333458308,['space'],657.5084523999831,657.5084523999831,0.1977157333458308,2.314457919558661,657.7176290999923,657.5084523999831,[-1.7423165999935009],,,,,,,,ofgjwt,002,fr,0,2022-04-27_17h32.26.159,Continuous,2022.1.1,None,
20,0,20,0,5,0,5,0,,,,,,,,2.1167421862128304,time,2862.0,-10.26614470604449,1.944373084839383e-05,0,73,[],0.014278033340815455,None,['space'],659.8707890999794,659.8707890999794,0.2309558333363384,2.347698019549169,660.0968889999785,659.8707890999794,[-0.18511339998804033],,,,,,,,ofgjwt,002,fr,0,2022-04-27_17h32.26.159,Continuous,2022.1.1,None,
20,0,20,0,6,0,6,0,,,,,,,,2.1167421862128304,time,1606.0,-8.388128645262611,2.1708603987774467e-05,0,74,[],0.013907033309806138,None,None,662.2425316000008,662.2425316000008,0.23304823332000524,2.3497904195328356,662.4700892999826,662.2425316000008,,,,,,,,,ofgjwt,002,fr,0,2022-04-27_17h32.26.159,Continuous,2022.1.1,None,
20,0,20,0,7,0,7,0,,,,,,,,2.1167421862128304,time,,,,1,74,[],0.0006894666876178235,None,None,664.6177405999915,664.6177405999915,0.1962219666747842,2.3129641528876146,664.8300044999924,664.6177405999915,,,,,,,,,ofgjwt,002,fr,0,2022-04-27_17h32.26.159,Continuous,2022.1.1,None,
20,0,20,0,8,0,8,0,,,,,,,,2.1167421862128304,time,6063.0,-15.0,2.1132852729036766e-05,0,75,[],0.0019665666623041034,None,None,666.9870667999785,666.9870667999785,0.20100106665631756,2.317743252869148,667.1986182999972,666.9870667999785,,,,,,,,,ofgjwt,002,fr,0,2022-04-27_17h32.26.159,Continuous,2022.1.1,None,
20,0,20,0,9,0,9,0,,,,,,,,2.1167421862128304,time,5402.0,-13.839098939168638,2.803353638916594e-05,0,76,[],0.012036033323965967,None,None,669.3522418999928,669.3522418999928,0.22908533332520165,2.345827519538032,669.5778685999976,669.3522418999928,,,,,,,,,ofgjwt,002,fr,0,2022-04-27_17h32.26.159,Continuous,2022.1.1,None,
21,0,21,0,0,0,0,0,,,,,,674.8603123999783,None,2.7055766382576145,time,1108.0,-5.3551852412172085,2.6218437848655263e-05,0,77,[],0.012912466656416655,None,None,675.8994749999838,None,0.21318986665573902,2.9187665049133535,676.1127835999941,None,,671.7265733999957,None,"[0.5833333333333334, 0.5833333333333334, 0.5833333333333334, 0.5833333333333334, 0.3333333333333333, 0.16666666666666666, 0.3333333333333333, 0.16666666666666666, 0.16666666666666666, 0.3333333333333333, 0.3333333333333333, 0.5833333333333334, 0.5833333333333334, 0.5833333333333334, 0.3333333333333333]",,,,,ofgjwt,002,fr,0,2022-04-27_17h32.26.159,Continuous,2022.1.1,None,
21,0,21,0,1,0,1,0,,,,,,,,2.7055766382576145,time,987.0,-4.422307111584372,2.625407369002576e-05,0,78,[],0.012956833321368322,None,None,678.8526362999983,678.8526362999983,0.23368213331559673,2.9392587715732112,679.0821574000001,678.8526362999983,,,,,,,,,ofgjwt,002,fr,0,2022-04-27_17h32.26.159,Continuous,2022.1.1,None,
21,0,21,0,2,0,2,0,,,,,,,,2.7055766382576145,time,165.0,-7.0,0.00017550709212829738,0,79,[],0.016527333325939253,None,['space'],681.8199328999908,681.8199328999908,0.21277713333256543,2.91835377159018,682.0290270999831,681.8199328999908,[-2.16692280001007],,,,,,,,ofgjwt,002,fr,0,2022-04-27_17h32.26.159,Continuous,2022.1.1,None,
21,0,21,0,3,0,3,0,,,,,,,,2.7055766382576145,time,370.0,-1.8786406157305047,6.793837790720362e-05,0,80,[],0.01624013332184404,None,None,684.7728461999795,684.7728461999795,0.2506051333330106,2.956181771590625,685.0145105999836,684.7728461999795,,,,,,,,,ofgjwt,002,fr,0,2022-04-27_17h32.26.159,Continuous,2022.1.1,None,
21,0,21,0,4,0,4,0,,,,,,,,2.7055766382576145,time,783.0,-2.420763859022676,2.962062758709425e-05,0,81,[],0.013463233335642144,None,None,687.7460240999935,687.7460240999935,0.2317883333307691,2.9373649715883836,687.9773113999981,687.7460240999935,,,,,,,,,ofgjwt,002,fr,0,2022-04-27_17h32.26.159,Continuous,2022.1.1,None,
21,0,21,0,5,0,5,0,,,,,,,,2.7055766382576145,time,1244.0,-1.1977894133856357,4.7268999128611404e-05,0,82,[],0.009489233314525336,None,None,690.7113413999905,690.7113413999905,0.22859833331312984,2.9341749715707444,690.9407619999838,690.7113413999905,,,,,,,,,ofgjwt,002,fr,0,2022-04-27_17h32.26.159,Continuous,2022.1.1,None,
21,0,21,0,6,0,6,0,,,,,,,,2.7055766382576145,time,247.0,2.0682434525692557,0.00021996916020145888,0,83,[],0.009661233314545825,None,['space'],693.680872500001,693.680872500001,0.22911383330938406,2.9346904715669986,693.9124379999994,693.680872500001,[-2.554953299986664],,,,,,,,ofgjwt,002,fr,0,2022-04-27_17h32.26.159,Continuous,2022.1.1,None,
21,0,21,0,7,0,7,0,,,,,,,,2.7055766382576145,time,1567.0,-0.8024250053105231,4.920083073730909e-05,0,84,[],0.013489233300788328,None,None,696.6457319999754,696.6457319999754,0.20739833332481794,2.9129749715824325,696.8636912999791,696.6457319999754,,,,,,,,,ofgjwt,002,fr,0,2022-04-27_17h32.26.159,Continuous,2022.1.1,None,
21,0,21,0,8,0,8,0,,,,,,,,2.7055766382576145,time,698.0,-5.959255257235468,2.2760957470676947e-05,0,85,[],0.012858233327278867,None,['space'],699.6071558999829,699.6071558999829,0.23049823331530206,2.9360748715729166,699.8348708999984,699.6071558999829,[-2.3855482000217307],,,,,,,,ofgjwt,002,fr,0,2022-04-27_17h32.26.159,Continuous,2022.1.1,None,
21,0,21,0,9,0,9,0,,,,,,,,2.7055766382576145,time,6640.0,-8.052901198046131,5.552090383310762e-05,0,86,[],0.012924833310535178,None,None,702.5694760999759,702.5694760999759,0.2070328333065845,2.912609471564199,702.7842522999854,702.5694760999759,,,,,,,,,ofgjwt,002,fr,0,2022-04-27_17h32.26.159,Continuous,2022.1.1,None,
21,0,21,0,10,0,10,0,,,,,,,,2.7055766382576145,time,1974.0,-4.764087911987004,4.2549692092066825e-05,0,87,[],0.013244233326986432,None,['space'],705.5290151999798,705.5290151999798,0.2328985333442688,2.9384751716018833,705.7596621999983,705.5290151999798,[-2.547411600011401],,,,,,,,ofgjwt,002,fr,0,2022-04-27_17h32.26.159,Continuous,2022.1.1,None,
21,0,21,0,11,0,11,0,,,,,,,,2.7055766382576145,time,,,,1,87,[],0.01377803334617056,None,['space'],708.4910004999838,708.4910004999838,0.20878463334520347,2.914361271602818,708.7115791999968,708.4910004999838,[-2.181302000011783],,,,,,,,ofgjwt,002,fr,0,2022-04-27_17h32.26.159,Continuous,2022.1.1,None,
21,0,21,0,12,0,12,0,,,,,,,,2.7055766382576145,time,2958.0,-5.0819640818780565,3.199412440565682e-05,0,88,[],0.0011015666532330215,0.1982772666378878,None,711.4507543999935,711.4507543999935,0.1982772666378878,2.9038539048955023,711.6548883999931,711.4507543999935,,,,,,,,,ofgjwt,002,fr,0,2022-04-27_17h32.26.159,Continuous,2022.1.1,None,
21,0,21,0,13,0,13,0,,,,,,,,2.7055766382576145,time,4432.0,-8.00146914036742,4.524293178937237e-05,0,89,[],0.012040433299262077,None,None,714.3997342999792,714.3997342999792,0.23381073330529034,2.939387371562905,714.6314626999956,714.3997342999792,,,,,,,,,ofgjwt,002,fr,0,2022-04-27_17h32.26.159,Continuous,2022.1.1,None,
22,0,22,0,0,0,0,0,,,,,,728.4001158000028,None,2.1693765790297097,time,125.0,1.0,0.0008109050486794653,0,90,[],0.013161566661437973,None,None,729.4368772000016,None,0.21300836667069234,2.382384945700402,729.6469938999799,None,,717.3670749999874,None,"[0.5833333333333334, 0.16666666666666666, 0.3333333333333333, 0.16666666666666666, 0.5833333333333334, 0.5833333333333334, 0.16666666666666666, 0.16666666666666666, 0.3333333333333333, 0.3333333333333333, 0.3333333333333333, 0.3333333333333333, 0.16666666666666666, 0.16666666666666666, 0.5833333333333334]",,,,,ofgjwt,002,fr,0,2022-04-27_17h32.26.159,Continuous,2022.1.1,None,
22,0,22,0,1,0,1,0,,,,,,,,2.1693765790297097,time,444.0,1.9667105979025896,9.31880214965731e-05,0,91,[],0.009775033307960257,None,['space'],731.8538050999923,731.8538050999923,0.22928043329739012,2.3986570123271,732.0867335999792,731.8538050999923,[-1.6559542999893893],,,,,,,,ofgjwt,002,fr,0,2022-04-27_17h32.26.159,Continuous,2022.1.1,None,
22,0,22,0,2,0,2,0,,,,,,,,2.1693765790297097,time,,,,1,91,[],0.013500033295713365,None,['space'],734.2827594999981,734.2827594999981,0.24024133328930475,2.4096179123190145,734.5185814999859,734.2827594999981,[-2.005504700005986],,,,,,,,ofgjwt,002,fr,0,2022-04-27_17h32.26.159,Continuous,2022.1.1,None,
22,0,22,0,3,0,3,0,,,,,,,,2.1693765790297097,time,396.0,3.541129711436368,0.00011664817811692855,0,92,[],0.014295433298684657,None,None,736.7186418999918,736.7186418999918,0.20911903330124915,2.378495612330959,736.9395203999884,736.7186418999918,,,,,,,,,ofgjwt,002,fr,0,2022-04-27_17h32.26.159,Continuous,2022.1.1,None,
22,0,22,0,4,0,4,0,,,,,,,,2.1693765790297097,time,264.0,1.855878504547622,0.0001890138211417458,0,93,[],0.012243433331605047,0.20772653332096525,['space'],739.1424402999983,739.1424402999983,0.20772653332096525,2.377103112350675,739.3533689999895,739.1424402999983,[-1.8723668000020552],,,,,,,,ofgjwt,002,fr,0,2022-04-27_17h32.26.159,Continuous,2022.1.1,None,
22,0,22,0,5,0,5,0,,,,,,,,2.1693765790297097,time,1408.0,1.029988752113507,5.695540564738958e-05,0,94,[],0.013113733351929113,None,['space'],741.5596813999873,741.5596813999873,0.20643333334010094,2.3758099123698107,741.7779163999949,741.5596813999873,[-1.9377632999967318],,,,,,,,ofgjwt,002,fr,0,2022-04-27_17h32.26.159,Continuous,2022.1.1,None,
22,0,22,0,6,0,6,0,,,,,,,,2.1693765790297097,time,1254.0,1.253269839892166,6.28552504529452e-05,0,95,[],0.009011033340357244,None,['space'],743.9844077999878,743.9844077999878,0.2274620333337225,2.396838612363432,744.2136860000028,743.9844077999878,[-1.9304990000091493],,,,,,,,ofgjwt,002,fr,0,2022-04-27_17h32.26.159,Continuous,2022.1.1,None,
22,0,22,0,7,0,7,0,,,,,,,,2.1693765790297097,time,1580.0,0.5661371485778894,5.876929622791328e-05,0,96,[],0.012999033351661637,None,['space'],746.4138462999836,746.4138462999836,0.23478593333857134,2.404162512368281,746.6433030999906,746.4138462999836,[-2.0242986000084784],,,,,,,,ofgjwt,002,fr,0,2022-04-27_17h32.26.159,Continuous,2022.1.1,None,
22,0,22,0,8,0,8,0,,,,,,,,2.1693765790297097,time,2367.0,0.8317179589412405,9.128249077171234e-05,0,97,[],0.012285033299122006,None,['space'],748.8434669999988,748.8434669999988,0.23209423330263235,2.401470812332342,749.072935299977,748.8434669999988,[-1.9575805999920703],,,,,,,,ofgjwt,002,fr,0,2022-04-27_17h32.26.159,Continuous,2022.1.1,None,
22,0,22,0,9,0,9,0,,,,,,,,2.1693765790297097,time,498.0,1.0804519787837377,8.102394189282972e-05,0,98,[],0.009928133309585974,None,['space'],751.2738661999756,751.2738661999756,0.22772483332664706,2.3971014123563568,751.5017939999816,751.2738661999756,[-1.8915882000001147],,,,,,,,ofgjwt,002,fr,0,2022-04-27_17h32.26.159,Continuous,2022.1.1,None,
22,0,22,0,10,0,10,0,,,,,,,,2.1693765790297097,time,176.0,4.106533085925647,0.0005661302836134872,0,99,[],0.012243133300216869,None,['space'],753.7052459999977,753.7052459999977,0.237698733311845,2.4070753123415547,753.9388452999992,753.7052459999977,[-2.020563400001265],,,,,,,,ofgjwt,002,fr,0,2022-04-27_17h32.26.159,Continuous,2022.1.1,None,
22,0,22,0,11,0,11,0,,,,,,,,2.1693765790297097,time,627.0,1.3230611876863987,6.012810002920633e-05,0,100,[],0.01237173331901431,None,['space'],756.1422272999771,756.1422272999771,0.23622413331759162,2.4056007123473013,756.3784231999889,756.1422272999771,[-2.057465299993055],,,,,,,,ofgjwt,002,fr,0,2022-04-27_17h32.26.159,Continuous,2022.1.1,None,
22,0,22,0,12,0,12,0,,,,,,,,2.1693765790297097,time,157.0,5.853632866992073,0.0008589876783506003,0,101,[],0.011032933340175077,None,None,758.5767622999847,758.5767622999847,0.2024903333222028,2.3718669123519125,758.7947219999915,758.5767622999847,,,,,,,,,ofgjwt,002,fr,0,2022-04-27_17h32.26.159,Continuous,2022.1.1,None,
22,0,22,0,13,0,13,0,,,,,,,,2.1693765790297097,time,995.0,-1.0071912039955135,3.910273948104693e-05,0,102,[],0.010065433336421847,None,['space'],761.0009296999779,761.0009296999779,0.22676603333093226,2.396142612360642,761.2309295999876,761.0009296999779,[-2.0032692000095267],,,,,,,,ofgjwt,002,fr,0,2022-04-27_17h32.26.159,Continuous,2022.1.1,None,
