frequencies,training_trials.thisRepN,training_trials.thisTrialN,training_trials.thisN,training_trials.thisIndex,frequencies.thisRepN,frequencies.thisTrialN,frequencies.thisN,frequencies.thisIndex,trials.thisRepN,trials.thisTrialN,trials.thisN,trials.thisIndex,tFrequency,tLevel,tCorrect,Tprobe.started,Tprobe.stopped,tTriangle_cue.started,tTriangle_cue.stopped,Tfeedback.keys,Tfeedback.corr,Tfeedback.rt,Tfeedback.started,Tfeedback.stopped,reversals_nTrials.routineEndVal,track_dir.routineEndVal,step_up.routineEndVal,Correct,Frequency,Level,Psychopy_Level,Direction,Reversals,Track_dir,Step,probe.started,probe.stopped,cross_cue.started,cross_cue.stopped,circle_cue.started,circle_cue.stopped,triangle_cue.started,triangle_cue.stopped,feedback.keys,feedback.corr,feedback.rt,feedback.started,feedback.stopped,memo.started,memo.stopped,key_resp.keys,key_resp.rt,key_resp.started,key_resp.stopped,text.started,text.stopped,participant,session,skip_training,language (english or french),date,expName,psychopyVersion,frameRate,
850,0,0,0,2,,,,,,,,,850,30,left,32.89860022999928,33.112358600017615,None,None,left,1,1.4449095000163652,32.41694910003571,None,,,,,,,,,,,,,,,,,,,,,,,,,,,,,,,,,lkbxgs,001,0,fr,2022-04-29_11h34.18.271,3-AFC_adaptive_staircase_mess,2022.1.1,37.59049441413406,
450,0,1,1,1,,,,,,,,,450,30,right,40.82860583003494,41.040488700033166,40.77329380001174,41.09503870003391,right,1,2.847970800008625,38.35873200005153,None,,,,,,,,,,,,,,,,,,,,,,,,,,,,,,,,,lkbxgs,001,0,fr,2022-04-29_11h34.18.271,3-AFC_adaptive_staircase_mess,2022.1.1,37.59049441413406,
1300,0,2,2,3,,,,,,,,,1300,30,right,46.010028230032184,46.22523770004045,45.9426109000342,46.251813900016714,right,1,2.996573999989778,43.55444680002984,None,,,,,,,,,,,,,,,,,,,,,,,,,,,,,,,,,lkbxgs,001,0,fr,2022-04-29_11h34.18.271,3-AFC_adaptive_staircase_mess,2022.1.1,37.59049441413406,
200,0,3,3,0,,,,,,,,,200,30,left,49.622368330025346,49.83834760001628,None,None,left,1,1.0947267999872565,49.16720670001814,None,,,,,,,,,,,,,,,,,,,,,,,,,,,,,,,,,lkbxgs,001,0,fr,2022-04-29_11h34.18.271,3-AFC_adaptive_staircase_mess,2022.1.1,37.59049441413406,
5000,0,4,4,4,,,,,,,,,5000,30,up,54.817105130007256,55.03500340000028,None,None,up,1,1.8600036000134423,53.36187850002898,None,,,,,,,,,,,,,,,,,,,,,,,,,,,,,,,,,lkbxgs,001,0,fr,2022-04-29_11h34.18.271,3-AFC_adaptive_staircase_mess,2022.1.1,37.59049441413406,
,,,,,0,0,0,0,0,0,0,0,,,,,,,,,,,,,[],[],10,left,1000,30,0.0013930605843148849,0,0,-1,10,65.64085173002096,None,65.58685560000595,65.88955360004911,None,None,None,None,left,1,0.6169729999965057,65.64498760004062,None,None,None,,,,,,,lkbxgs,001,0,fr,2022-04-29_11h34.18.271,3-AFC_adaptive_staircase_mess,2022.1.1,37.59049441413406,
,,,,,0,0,0,0,1,0,1,0,,,,,,,,,,,,,,,,left,1000,30,0.0013930605843148849,0,0,-1,10,67.80048543000012,68.00993060000474,67.71234820003156,68.03680100000929,None,None,None,None,left,1,0.5091743000084534,67.8016022000229,None,None,None,,,,,,,lkbxgs,001,0,fr,2022-04-29_11h34.18.271,3-AFC_adaptive_staircase_mess,2022.1.1,37.59049441413406,
,,,,,0,0,0,0,2,0,2,0,,,,,,,,,,,,,,,,up,1000,10,0.00013930605843148847,-1,0,-1,-10,70.84631703002961,None,69.78348920005374,70.10995370004093,70.7922957999981,71.09973290003836,None,None,up,1,1.6176090999506414,69.8442760000471,None,None,None,,,,,,,lkbxgs,001,0,fr,2022-04-29_11h34.18.271,3-AFC_adaptive_staircase_mess,2022.1.1,37.59049441413406,
,,,,,0,0,0,0,3,0,3,0,,,,,,,,,,,,,,,,up,1000,10,0.00013930605843148847,-1,0,-1,-10,73.98638883000822,74.20164929999737,72.93085689999862,73.24806460004766,73.93121310003335,74.25970570003847,None,None,up,1,1.3874348000390455,72.98629030003212,None,None,None,,,,,,,lkbxgs,001,0,fr,2022-04-29_11h34.18.271,3-AFC_adaptive_staircase_mess,2022.1.1,37.59049441413406,
,,,,,0,0,0,0,4,0,4,0,,,,,,,,,,,,,,,,up,1000,0,4.405244365040069e-05,-1,0,-1,-10,76.88556263002684,77.09904560004361,75.85297010000795,76.17429860000266,76.83001170004718,77.15855530003319,77.82552410004428,78.15619330003392,up,1,5.65934399998514,75.88206309999805,None,78.38594860001467,None,,,,,,,lkbxgs,001,0,fr,2022-04-29_11h34.18.271,3-AFC_adaptive_staircase_mess,2022.1.1,37.59049441413406,
,,,,,0,0,0,0,5,0,5,0,,,,,,,,,,,,,,,,right,1000,0,4.405244365040069e-05,-1,0,-1,-10,85.07197663002299,None,83.0419054000522,83.36258700001054,84.02357160003157,84.3445826000534,85.01684880000539,85.3359771000105,right,1,4.0230639999499545,83.07052930002101,None,85.58948870003223,None,,,,,,,lkbxgs,001,0,fr,2022-04-29_11h34.18.271,3-AFC_adaptive_staircase_mess,2022.1.1,37.59049441413406,
,,,,,0,0,0,0,6,0,6,0,,,,,,,,,,,,,,,,right,1000,-10,1.3930605843148848e-05,-1,0,-1,-10,90.63252253004467,None,88.60321800003294,88.90846790000796,89.5993095000158,89.90792930003954,90.57262540003285,90.88315250002779,right,1,2.6662117999512702,88.63568880001549,None,91.1212627000059,None,,,,,,,lkbxgs,001,0,fr,2022-04-29_11h34.18.271,3-AFC_adaptive_staircase_mess,2022.1.1,37.59049441413406,
,,,,,0,0,0,0,7,0,7,0,,,,,,,,,,,,,,,,up,1000,-10,1.3930605843148848e-05,-1,0,-1,-10,93.83715093002539,None,92.79197620000923,93.11873490002472,93.77742440003203,94.08699470001739,94.79777230002219,95.12091540003894,up,1,2.454215399979148,92.84863410005346,None,95.3463416300423,None,,,,,,,lkbxgs,001,0,fr,2022-04-29_11h34.18.271,3-AFC_adaptive_staircase_mess,2022.1.1,37.59049441413406,
,,,,,0,0,0,0,8,0,8,0,,,,,,,,,,,,,,,,up,1000,-20,4.405244365040069e-06,-1,0,-1,-10,97.83633523004247,98.0568388000247,96.7989430000307,97.12262640002882,97.77898000000278,98.08765450003557,98.8046694000368,99.12552450003568,left,0,4.522431499965023,96.8271786000114,None,99.33079190005083,None,,,,,,,lkbxgs,001,0,fr,2022-04-29_11h34.18.271,3-AFC_adaptive_staircase_mess,2022.1.1,37.59049441413406,
,,,,,0,0,0,0,9,0,9,0,,,,,,,,,,,,,,,,right,1000,-15,7.833755350540743e-06,1,1,1,5,104.88301563001588,None,102.82542460004333,103.1598489000462,103.82448430004297,104.15572540002177,104.8284554000129,105.13318600005005,up,0,4.50348940002732,102.89546030003112,None,105.39305020001484,None,,,,,,,lkbxgs,001,0,fr,2022-04-29_11h34.18.271,3-AFC_adaptive_staircase_mess,2022.1.1,37.59049441413406,
,,,,,0,0,0,0,10,0,10,0,,,,,,,,,,,,,,,,up,1000,-10,1.3930605843148848e-05,1,1,1,5,109.96326803003322,110.18044830003055,108.89267300005304,109.22077320003882,109.90637140005128,110.20737570000347,110.90287660004105,111.22702250001021,right,0,5.002929799957201,108.95531360001769,None,111.4605991000426,None,,,,,,,lkbxgs,001,0,fr,2022-04-29_11h34.18.271,3-AFC_adaptive_staircase_mess,2022.1.1,37.59049441413406,
,,,,,0,0,0,0,11,0,11,0,,,,,,,,,,,,,,,,up,1000,-5,2.4772509540239506e-05,1,1,1,5,116.48043942999212,116.68712010001764,115.4488692000159,115.76347340003122,116.45331569999689,116.76972750003915,117.4287680000416,117.7548426000285,left,0,3.791943700052798,115.47810870001558,None,117.9870761000202,None,,,,,,,lkbxgs,001,0,fr,2022-04-29_11h34.18.271,3-AFC_adaptive_staircase_mess,2022.1.1,37.59049441413406,
,,,,,0,0,0,0,12,0,12,0,,,,,,,,,,,,,,,,left,1000,0,4.405244365040069e-05,1,1,1,5,120.80092573003495,None,120.74545670003863,121.04772820003564,121.76216130005196,122.08350020000944,122.7498153000488,123.06839220004622,right,0,4.049572499992792,120.80526870000176,None,123.30453070002841,None,,,,,,,lkbxgs,001,0,fr,2022-04-29_11h34.18.271,3-AFC_adaptive_staircase_mess,2022.1.1,37.59049441413406,
,,,,,0,0,0,0,13,0,13,0,,,,,,,,,,,,,,,,right,1000,5,7.833755350540742e-05,1,1,1,5,128.40520643001074,128.62070210004458,126.34456310002133,126.67278429999715,127.35978490003617,127.68372120003914,128.34946210001362,128.67732960003195,left,0,3.567283500044141,126.40667050000047,None,128.9114341000095,None,,,,,,,lkbxgs,001,0,fr,2022-04-29_11h34.18.271,3-AFC_adaptive_staircase_mess,2022.1.1,37.59049441413406,
,,,,,0,0,0,0,14,0,14,0,,,,,,,,,,,,,,,,up,1000,10,0.00013930605843148847,1,1,1,5,132.50999943004572,132.73218320001615,131.46118760004174,131.7848212000099,132.45179780002218,132.75939390005078,133.45877140003722,133.75950620003277,up,1,2.4687510000076145,131.4896546000382,None,133.9860665299988,None,,,,,,,lkbxgs,001,0,fr,2022-04-29_11h34.18.271,3-AFC_adaptive_staircase_mess,2022.1.1,37.59049441413406,
,,,,,0,0,0,0,15,0,15,0,,,,,,,,,,,,,,,,up,1000,10,0.00013930605843148847,1,1,1,5,136.46827762999456,136.67762120004045,135.41765710001346,135.73976940003922,136.44115389999934,136.75871360005112,137.43165760004194,None,up,1,2.0659835999831557,135.47641960001783,None,None,None,,,,,,,lkbxgs,001,0,fr,2022-04-29_11h34.18.271,3-AFC_adaptive_staircase_mess,2022.1.1,37.59049441413406,
,,,,,0,0,0,0,16,0,16,0,,,,,,,,,,,,,,,,up,1000,0,4.405244365040069e-05,-1,2,-1,-5.0,140.0781102300447,140.29690910002682,139.01958630001172,139.34939630003646,140.0187996000168,140.32726470002672,141.0325589000131,141.3345559000154,left,0,4.603960300039034,139.0817782000522,None,141.59272549999878,None,,,,,,,lkbxgs,001,0,fr,2022-04-29_11h34.18.271,3-AFC_adaptive_staircase_mess,2022.1.1,37.59049441413406,
,,,,,0,0,0,0,17,0,17,0,,,,,,,,,,,,,,,,up,1000,2.5,5.874487774697646e-05,1,3,1,2.5,146.2153953300498,None,145.19346500001848,145.5245979000465,146.18827160005458,146.497752700001,147.1735169000458,147.50128960004076,up,1,3.2426868000184186,145.2271568000433,None,147.73877610004274,None,,,,,,,lkbxgs,001,0,fr,2022-04-29_11h34.18.271,3-AFC_adaptive_staircase_mess,2022.1.1,37.59049441413406,
,,,,,0,0,0,0,18,0,18,0,,,,,,,,,,,,,,,,left,1000,2.5,5.874487774697646e-05,1,3,1,2.5,150.00269972999232,150.21523870003875,149.9755759999971,150.2790630000527,150.96768000000156,151.27881400001934,151.97349590004887,152.28730270004598,right,0,4.219449799973518,150.00985520001268,None,152.5041492000455,None,,,,,,,lkbxgs,001,0,fr,2022-04-29_11h34.18.271,3-AFC_adaptive_staircase_mess,2022.1.1,37.59049441413406,
,,,,,0,0,0,0,19,0,19,0,,,,,,,,,,,,,,,,left,1000,5.0,7.833755350540742e-05,1,3,1,2.5,155.7627608300012,155.9813334000064,155.735637100006,156.0431201000465,156.72793069999898,157.05451410001842,157.72844950004946,158.05070060002618,left,1,3.0054868000443093,155.76831640000455,None,158.26483729999745,None,,,,,,,lkbxgs,001,0,fr,2022-04-29_11h34.18.271,3-AFC_adaptive_staircase_mess,2022.1.1,37.59049441413406,
,,,,,0,0,0,0,20,0,20,0,,,,,,,,,,,,,,,,right,1000,5.0,7.833755350540742e-05,1,3,1,2.5,162.30686792999623,162.52275540004484,160.26611389999744,160.59004750003805,161.27894360001665,161.60962610004935,162.24840800004313,162.55487260001246,right,1,2.7763784999842755,160.33339730004082,None,162.823943000054,None,,,,,,,lkbxgs,001,0,fr,2022-04-29_11h34.18.271,3-AFC_adaptive_staircase_mess,2022.1.1,37.59049441413406,
,,,,,0,0,0,0,21,0,21,0,,,,,,,,,,,,,,,,right,1000,0.0,4.405244365040069e-05,-1,4,-1,-5.0,166.67301743000863,None,164.6119488000404,164.91537560004508,165.61667350004427,165.93940250005107,166.6142631000257,166.9334385000402,up,0,3.0253128000185825,164.67667740001343,None,167.14998919999925,None,,,,,,,lkbxgs,001,0,fr,2022-04-29_11h34.18.271,3-AFC_adaptive_staircase_mess,2022.1.1,37.59049441413406,
,,,,,0,0,0,0,22,0,22,0,,,,,,,,,,,,,,,,right,1000,2.5,5.874487774697646e-05,1,5,1,2.5,171.2558417299937,None,169.22325020004064,169.54713459999766,170.20994900004007,170.51488309999695,171.1954160000314,171.51613580004778,right,1,2.708066399965901,169.2501648000325,None,171.7472401999985,None,,,,,,,lkbxgs,001,0,fr,2022-04-29_11h34.18.271,3-AFC_adaptive_staircase_mess,2022.1.1,37.59049441413406,
,,,,,0,0,0,0,23,0,23,0,,,,,,,,,,,,,,,,right,1000,2.5,5.874487774697646e-05,1,5,1,2.5,175.4888698300405,175.7024306000094,173.46095610002521,173.77712300000712,174.4681560000172,174.78939980000723,175.46174610004527,175.79091650003102,up,0,3.6353108000475913,173.49018050002633,None,175.99164459999884,None,,,,,,,lkbxgs,001,0,fr,2022-04-29_11h34.18.271,3-AFC_adaptive_staircase_mess,2022.1.1,37.59049441413406,
,,,,,0,0,0,0,24,0,24,0,,,,,,,,,,,,,,,,up,1000,5.0,7.833755350540742e-05,1,5,1,2.5,179.6848017300421,179.9054516000324,178.6332705000532,178.9418973000138,179.65767800004687,179.96389030001592,180.63554290001048,None,up,1,2.111851299996488,178.69400890002726,None,None,None,,,,,,,lkbxgs,001,0,fr,2022-04-29_11h34.18.271,3-AFC_adaptive_staircase_mess,2022.1.1,37.59049441413406,
,,,,,0,0,0,0,25,0,25,0,,,,,,,,,,,,,,,,up,1000,5.0,7.833755350540742e-05,1,5,1,2.5,183.3544532300497,183.57259120000526,182.27617670001928,182.59417440003017,183.29581410001265,183.59780909999972,184.27978390001226,184.58238770003663,up,1,2.486161200038623,182.33579090004787,None,184.8394984000479,None,,,,,,,lkbxgs,001,0,fr,2022-04-29_11h34.18.271,3-AFC_adaptive_staircase_mess,2022.1.1,37.59049441413406,
,,,,,0,0,0,0,26,0,26,0,,,,,,,,,,,,,,,,left,1000,0.0,4.405244365040069e-05,-1,6,-1,-5.0,186.33800533001195,186.55448740004795,186.31088160001673,186.63758249999955,187.29744350002147,187.61953850003192,188.31060620001517,188.63213450001786,left,1,4.112986499967519,186.34197870001663,None,188.85197850002442,None,,,,,,,lkbxgs,001,0,fr,2022-04-29_11h34.18.271,3-AFC_adaptive_staircase_mess,2022.1.1,37.59049441413406,
,,,,,1,0,1,0,0,0,0,0,,,,,,,,,,,,,[],[],10,up,1500,30,0.001527460556607757,0,0,-1,10,204.7900482300378,None,203.75237940001534,204.07126009999774,204.7349331000005,205.04192930000136,None,None,up,1,1.6024067000253126,203.77953690005234,None,None,None,space,11.75429339997936,191.53139810002176,None,191.53139810002176,None,lkbxgs,001,0,fr,2022-04-29_11h34.18.271,3-AFC_adaptive_staircase_mess,2022.1.1,37.59049441413406,
,,,,,1,0,1,0,1,0,1,0,,,,,,,,,,,,,,,,left,1500,30,0.001527460556607757,0,0,-1,10,206.92352213000996,207.15135060000466,206.8673867000034,207.18016090005403,None,None,None,None,left,1,0.6288456000038423,206.9290997000062,None,None,None,,,,,,,lkbxgs,001,0,fr,2022-04-29_11h34.18.271,3-AFC_adaptive_staircase_mess,2022.1.1,37.59049441413406,
,,,,,1,0,1,0,2,0,2,0,,,,,,,,,,,,,,,,right,1500,10,0.0001527460556607757,-1,0,-1,-10,211.08788872999722,211.30407500005094,209.03731760004302,209.3626192000229,210.034732500033,210.33825060003437,211.02988230000483,211.33621210005367,right,1,2.3885849000071175,209.1047314000316,None,None,None,,,,,,,lkbxgs,001,0,fr,2022-04-29_11h34.18.271,3-AFC_adaptive_staircase_mess,2022.1.1,37.59049441413406,
,,,,,1,0,1,0,3,0,3,0,,,,,,,,,,,,,,,,up,1500,10,0.0001527460556607757,-1,0,-1,-10,214.02304093004787,214.24059330002638,212.98916550003923,213.30556430004071,213.96779030002654,214.2673018000205,None,None,up,1,1.6756846999633126,213.01795080001466,None,None,None,,,,,,,lkbxgs,001,0,fr,2022-04-29_11h34.18.271,3-AFC_adaptive_staircase_mess,2022.1.1,37.59049441413406,
,,,,,1,0,1,0,4,0,4,0,,,,,,,,,,,,,,,,left,1500,0,4.830254394949071e-05,-1,0,-1,-10,216.23033693002654,None,216.2032132000313,216.53055720002158,217.17985090002185,217.5126230000169,218.19798730005277,218.51409340003738,left,1,4.4623072000104,216.23233300005086,None,218.7451559000183,None,,,,,,,lkbxgs,001,0,fr,2022-04-29_11h34.18.271,3-AFC_adaptive_staircase_mess,2022.1.1,37.59049441413406,
,,,,,1,0,1,0,5,0,5,0,,,,,,,,,,,,,,,,up,1500,0,4.830254394949071e-05,-1,0,-1,-10,223.2287487300404,None,222.1805250000325,222.49914970004465,223.16727500001434,223.4838374000392,None,None,up,1,1.796523500001058,222.20876510004746,None,None,None,,,,,,,lkbxgs,001,0,fr,2022-04-29_11h34.18.271,3-AFC_adaptive_staircase_mess,2022.1.1,37.59049441413406,
,,,,,1,0,1,0,6,0,6,0,,,,,,,,,,,,,,,,up,1500,-10,1.527460556607758e-05,-1,0,-1,-10,226.5306590300228,226.74382690002676,225.5031200000085,225.82918210001662,226.50353530002758,226.8202597000054,227.4932527000201,227.8155341000529,left,0,3.9309249000507407,225.5315672000288,None,228.04361450002762,None,,,,,,,lkbxgs,001,0,fr,2022-04-29_11h34.18.271,3-AFC_adaptive_staircase_mess,2022.1.1,37.59049441413406,
,,,,,1,0,1,0,7,0,7,0,,,,,,,,,,,,,,,,left,1500,-5,2.716251657462168e-05,1,1,1,5,231.0115381300042,231.23167730000569,230.98441440000897,231.28574880002998,231.97464880003827,232.2975425000186,232.98367950000102,233.2919300000067,right,0,5.00942059996305,231.01372919999994,None,233.53662900003837,None,,,,,,,lkbxgs,001,0,fr,2022-04-29_11h34.18.271,3-AFC_adaptive_staircase_mess,2022.1.1,37.59049441413406,
,,,,,1,0,1,0,8,0,8,0,,,,,,,,,,,,,,,,right,1500,0,4.830254394949071e-05,1,1,1,5,239.57616543002078,239.79354230000172,237.5318391000037,237.85216110001784,238.49878330004867,238.8001401000074,239.52031630004058,239.8242710000486,right,1,2.5543754000100307,237.56400380004197,None,240.0532368000131,None,,,,,,,lkbxgs,001,0,fr,2022-04-29_11h34.18.271,3-AFC_adaptive_staircase_mess,2022.1.1,37.59049441413406,
,,,,,1,0,1,0,9,0,9,0,,,,,,,,,,,,,,,,right,1500,0,4.830254394949071e-05,1,1,1,5,243.69739873003564,243.9065333000035,241.6311199000338,241.94843320001382,242.63605370000005,242.95260950003285,243.63936250004917,243.95944480004255,right,1,2.6533054999890737,241.68782920000376,None,244.18624660000205,None,,,,,,,lkbxgs,001,0,fr,2022-04-29_11h34.18.271,3-AFC_adaptive_staircase_mess,2022.1.1,37.59049441413406,
,,,,,1,0,1,0,10,0,10,0,,,,,,,,,,,,,,,,right,1500,-10,1.527460556607758e-05,-1,2,-1,-5.0,247.88366153004463,248.10192690003896,245.8471968000522,246.16085620003287,246.82292910001706,247.13627230003476,247.8234053000342,248.13244830002077,up,0,4.0352315999916755,245.87477690004744,None,248.39310500002466,None,,,,,,,lkbxgs,001,0,fr,2022-04-29_11h34.18.271,3-AFC_adaptive_staircase_mess,2022.1.1,37.59049441413406,
,,,,,1,0,1,0,11,0,11,0,,,,,,,,,,,,,,,,up,1500,-7.5,2.036901389020565e-05,1,3,1,2.5,252.46494573000237,None,251.40874250000343,251.7255434000399,252.40448440000182,252.70060560002457,253.39087120001204,253.70501040003728,left,0,4.891276000009384,251.46606490004342,None,253.9638112000539,None,,,,,,,lkbxgs,001,0,fr,2022-04-29_11h34.18.271,3-AFC_adaptive_staircase_mess,2022.1.1,37.59049441413406,
,,,,,1,0,1,0,12,0,12,0,,,,,,,,,,,,,,,,right,1500,-5.0,2.716251657462168e-05,1,3,1,2.5,259.88956733001976,None,257.8444703000132,258.16579090000596,258.8562721000053,259.17606620001607,259.83371700003045,260.1516429000185,right,1,4.5322004000190645,257.8738039000309,None,260.3822950000176,None,,,,,,,lkbxgs,001,0,fr,2022-04-29_11h34.18.271,3-AFC_adaptive_staircase_mess,2022.1.1,37.59049441413406,
,,,,,1,0,1,0,13,0,13,0,,,,,,,,,,,,,,,,up,1500,-5.0,2.716251657462168e-05,1,3,1,2.5,264.93414233002693,265.15616710000904,263.85732060001465,264.1596821999992,264.8750800000271,265.18562930001644,265.8860393000068,266.20624880003743,up,1,5.02294640004402,263.9271448000218,None,266.4319426000002,None,,,,,,,lkbxgs,001,0,fr,2022-04-29_11h34.18.271,3-AFC_adaptive_staircase_mess,2022.1.1,37.59049441413406,
,,,,,1,0,1,0,14,0,14,0,,,,,,,,,,,,,,,,right,1500,-10.0,1.527460556607758e-05,-1,4,-1,-5.0,272.5037853299931,None,270.462872300006,270.7813447000226,271.4364204000449,271.754725900013,272.44682150002336,272.76455250004074,up,0,2.9556309999898076,270.49106610001763,None,272.9991115000448,None,,,,,,,lkbxgs,001,0,fr,2022-04-29_11h34.18.271,3-AFC_adaptive_staircase_mess,2022.1.1,37.59049441413406,
,,,,,1,0,1,0,15,0,15,0,,,,,,,,,,,,,,,,left,1500,-7.5,2.036901389020565e-05,1,5,1,2.5,275.0050903300347,275.2135377000086,274.93609160004416,275.2401550000068,275.9241565000266,276.23919290001504,276.9195504000527,277.24875980004435,left,1,4.873376100033056,275.0051270000404,None,277.47327519999817,None,,,,,,,lkbxgs,001,0,fr,2022-04-29_11h34.18.271,3-AFC_adaptive_staircase_mess,2022.1.1,37.59049441413406,
,,,,,1,0,1,0,16,0,16,0,,,,,,,,,,,,,,,,right,1500,-7.5,2.036901389020565e-05,1,5,1,2.5,283.40538903000413,283.61406590003753,281.3776832000003,281.6933476999984,282.37950969999656,282.69962100003613,283.37826530000893,283.6964401000296,left,0,5.156302899995353,281.40878510003677,None,283.9270853000344,None,,,,,,,lkbxgs,001,0,fr,2022-04-29_11h34.18.271,3-AFC_adaptive_staircase_mess,2022.1.1,37.59049441413406,
,,,,,1,0,1,0,17,0,17,0,,,,,,,,,,,,,,,,right,1500,-5.0,2.716251657462168e-05,1,5,1,2.5,290.1266205300402,290.34520110004814,288.07903790002456,288.3961393000209,289.082068000047,289.3994514000369,290.07082600001013,290.3766468000249,left,0,3.2900889000156894,288.1080187000334,None,290.6072333000484,None,,,,,,,lkbxgs,001,0,fr,2022-04-29_11h34.18.271,3-AFC_adaptive_staircase_mess,2022.1.1,37.59049441413406,
,,,,,1,0,1,0,18,0,18,0,,,,,,,,,,,,,,,,left,1500,-2.5,3.622179800374953e-05,1,5,1,2.5,292.9227988300321,None,292.8956751000369,293.2185901000048,293.8990685000317,294.2166727000149,294.87255670002196,295.18677030003164,left,1,3.4821807999978773,292.92369060002966,None,295.44756510003936,None,,,,,,,lkbxgs,001,0,fr,2022-04-29_11h34.18.271,3-AFC_adaptive_staircase_mess,2022.1.1,37.59049441413406,
,,,,,1,0,1,0,19,0,19,0,,,,,,,,,,,,,,,,up,1500,-2.5,3.622179800374953e-05,1,5,1,2.5,298.95270053001,None,297.8959123000386,298.2112001000205,298.8964456000249,299.1967565000523,299.9144638000289,300.23795150005026,right,0,3.062151200021617,297.95253629999934,None,300.4679968000273,None,,,,,,,lkbxgs,001,0,fr,2022-04-29_11h34.18.271,3-AFC_adaptive_staircase_mess,2022.1.1,37.59049441413406,
,,,,,1,0,1,0,20,0,20,0,,,,,,,,,,,,,,,,right,1500,0.0,4.830254394949071e-05,1,5,1,2.5,304.54105293000464,304.75311990000773,302.49417930003256,302.81524810002884,303.500960400037,303.8214170000283,304.51392920000944,304.83557410002686,right,1,4.382711999991443,302.5512302000425,None,305.06865370000014,None,,,,,,,lkbxgs,001,0,fr,2022-04-29_11h34.18.271,3-AFC_adaptive_staircase_mess,2022.1.1,37.59049441413406,
,,,,,1,0,1,0,21,0,21,0,,,,,,,,,,,,,,,,right,1500,0.0,4.830254394949071e-05,1,5,1,2.5,310.4668555299926,None,308.40544060000684,308.72560170001816,309.4412679000525,309.7641740000108,310.4201971000293,310.7297691000276,left,0,5.286703500023577,308.46328399999766,None,310.95864350005286,None,,,,,,,lkbxgs,001,0,fr,2022-04-29_11h34.18.271,3-AFC_adaptive_staircase_mess,2022.1.1,37.59049441413406,
,,,,,1,0,1,0,22,0,22,0,,,,,,,,,,,,,,,,left,1500,2.5,6.441247758465671e-05,1,5,1,2.5,315.26482163003527,315.47992140002316,315.2376979000401,315.5623254000093,316.22683140001027,316.55053220002446,317.2374376000371,317.56585970002925,left,1,2.5309734999900684,315.266731300042,None,317.7735826999997,None,,,,,,,lkbxgs,001,0,fr,2022-04-29_11h34.18.271,3-AFC_adaptive_staircase_mess,2022.1.1,37.59049441413406,
,,,,,1,0,1,0,23,0,23,0,,,,,,,,,,,,,,,,right,1500,2.5,6.441247758465671e-05,1,5,1,2.5,321.33503843000506,None,319.30120360001456,319.6304012000328,320.30808320001233,320.63780610001413,321.30791470000986,321.6409709000145,right,1,2.6263700000126846,319.3306536000455,None,321.8450364000164,None,,,,,,,lkbxgs,001,0,fr,2022-04-29_11h34.18.271,3-AFC_adaptive_staircase_mess,2022.1.1,37.59049441413406,
,,,,,1,0,1,0,24,0,24,0,,,,,,,,,,,,,,,,up,1500,-2.5,3.622179800374953e-05,-1,6,-1,-5.0,324.5145066300232,None,323.4730319000082,323.80877470003907,324.4574561000336,324.7794319000095,325.4457603000337,325.77238330000546,up,1,4.098620000004303,323.5067321000388,None,325.9943763000192,None,,,,,,,lkbxgs,001,0,fr,2022-04-29_11h34.18.271,3-AFC_adaptive_staircase_mess,2022.1.1,37.59049441413406,
,,,,,2,0,2,0,0,0,0,0,,,,,,,,,,,,,[],[],10,up,2000,30,0.0023657562948074026,0,0,-1,10,360.75612203003254,360.9690201000194,359.69675610004924,360.0136004000087,360.70033560000593,361.02480060001835,None,None,up,1,1.6127183000207879,359.7535896000336,None,None,None,space,30.54224419995444,328.6633614000166,None,328.6633614000166,None,lkbxgs,001,0,fr,2022-04-29_11h34.18.271,3-AFC_adaptive_staircase_mess,2022.1.1,37.59049441413406,
,,,,,2,0,2,0,1,0,1,0,,,,,,,,,,,,,,,,right,2000,30,0.0023657562948074026,0,0,-1,10,364.8815666300419,365.10013090004213,362.857507000037,363.1779832000029,363.83477730001323,364.16155330004403,364.8544429000467,365.1547514999984,right,1,2.5746592999785207,362.88799730001483,None,365.4140648000175,None,,,,,,,lkbxgs,001,0,fr,2022-04-29_11h34.18.271,3-AFC_adaptive_staircase_mess,2022.1.1,37.59049441413406,
,,,,,2,0,2,0,2,0,2,0,,,,,,,,,,,,,,,,up,2000,10,0.00023657562948074026,-1,0,-1,-10,368.0147224300366,368.23550370003795,366.95038809999824,367.2743511000299,367.9594367000391,368.26226530002896,None,None,up,1,1.7485860000015236,367.00956760003464,None,None,None,,,,,,,lkbxgs,001,0,fr,2022-04-29_11h34.18.271,3-AFC_adaptive_staircase_mess,2022.1.1,37.59049441413406,
,,,,,2,0,2,0,3,0,3,0,,,,,,,,,,,,,,,,up,2000,10,0.00023657562948074026,-1,0,-1,-10,371.2990722300077,371.51883280003676,370.22472200001357,370.5489689000533,371.2438913000515,371.5453596000443,None,None,up,1,1.4342461000196636,370.283149600029,None,None,None,,,,,,,lkbxgs,001,0,fr,2022-04-29_11h34.18.271,3-AFC_adaptive_staircase_mess,2022.1.1,37.59049441413406,
,,,,,2,0,2,0,4,0,4,0,,,,,,,,,,,,,,,,up,2000,0,7.481178280472168e-05,-1,0,-1,-10,374.23030373000654,374.4452404000331,373.2013757000095,373.51908790000016,374.20318000001134,374.52607640001224,375.1846951000043,375.5022452000412,up,1,3.034809300035704,373.25809540000046,None,375.7353701000102,None,,,,,,,lkbxgs,001,0,fr,2022-04-29_11h34.18.271,3-AFC_adaptive_staircase_mess,2022.1.1,37.59049441413406,
,,,,,2,0,2,0,5,0,5,0,,,,,,,,,,,,,,,,up,2000,0,7.481178280472168e-05,-1,0,-1,-10,378.855415930046,None,377.78951490001054,378.1077709000092,378.80074050003896,379.1072733000037,379.79358570004115,380.1137302000425,left,0,3.133866499993019,377.84793840005295,None,380.34431570000015,None,,,,,,,lkbxgs,001,0,fr,2022-04-29_11h34.18.271,3-AFC_adaptive_staircase_mess,2022.1.1,37.59049441413406,
,,,,,2,0,2,0,6,0,6,0,,,,,,,,,,,,,,,,left,2000,5,0.0001330362529899405,1,1,1,5,382.5267193300009,None,382.47095090005314,382.7760049000499,None,None,None,None,left,1,0.7700918999616988,382.5317286000354,None,None,None,,,,,,,lkbxgs,001,0,fr,2022-04-29_11h34.18.271,3-AFC_adaptive_staircase_mess,2022.1.1,37.59049441413406,
,,,,,2,0,2,0,7,0,7,0,,,,,,,,,,,,,,,,right,2000,5,0.0001330362529899405,1,1,1,5,386.85875673004773,387.0765750000137,384.79113170003984,385.096711900027,385.7917897000443,386.11595140001737,386.80133220000425,387.1077618999989,right,1,2.5340380999841727,384.84776970004896,None,387.34051599999657,None,,,,,,,lkbxgs,001,0,fr,2022-04-29_11h34.18.271,3-AFC_adaptive_staircase_mess,2022.1.1,37.59049441413406,
,,,,,2,0,2,0,8,0,8,0,,,,,,,,,,,,,,,,left,2000,-5,4.206975708225974e-05,-1,2,-1,-5.0,388.91625603003774,None,388.858108800021,389.16297669999767,389.87956380000105,390.1913108000299,390.85462230001576,391.1653347000247,left,1,3.9369080999749713,388.9160112000536,None,391.4230312000145,None,,,,,,,lkbxgs,001,0,fr,2022-04-29_11h34.18.271,3-AFC_adaptive_staircase_mess,2022.1.1,37.59049441413406,
,,,,,2,0,2,0,9,0,9,0,,,,,,,,,,,,,,,,right,2000,-5,4.206975708225974e-05,-1,2,-1,-5.0,396.3929417300445,None,394.3431477000122,394.6719912000117,395.3553469000035,395.6785807000124,396.36581800004933,396.66719270002795,right,1,3.5857118000276387,394.4043145000469,None,396.90003890002845,None,,,,,,,lkbxgs,001,0,fr,2022-04-29_11h34.18.271,3-AFC_adaptive_staircase_mess,2022.1.1,37.59049441413406,
,,,,,2,0,2,0,10,0,10,0,,,,,,,,,,,,,,,,left,2000,-10.0,2.3657562948074015e-05,-1,2,-1,-5.0,399.5052218300465,399.7217639000155,399.4780981000513,399.7854359000339,400.4820910000126,400.8129139000084,401.45702830003574,401.7589463000186,up,0,3.6489663000102155,399.50971710000886,None,402.01443060004385,None,,,,,,,lkbxgs,001,0,fr,2022-04-29_11h34.18.271,3-AFC_adaptive_staircase_mess,2022.1.1,37.59049441413406,
,,,,,2,0,2,0,11,0,11,0,,,,,,,,,,,,,,,,up,2000,-7.5,3.154786722400965e-05,1,3,1,2.5,405.6974455300427,405.91379459999735,404.66454310005065,404.9690240000491,405.67032180004753,405.9991468000226,406.6602675000322,406.9849515000242,up,1,4.740907699975651,404.7215856999974,None,407.2188134000171,None,,,,,,,lkbxgs,001,0,fr,2022-04-29_11h34.18.271,3-AFC_adaptive_staircase_mess,2022.1.1,37.59049441413406,
,,,,,2,0,2,0,12,0,12,0,,,,,,,,,,,,,,,,left,2000,-7.5,3.154786722400965e-05,1,3,1,2.5,411.0167273299943,411.2364753000438,410.960104400001,411.2678223000257,411.979378500022,412.30108980002115,412.98295340000186,413.2989707000088,right,0,4.231748100020923,411.02187470003264,None,413.531073500053,None,,,,,,,lkbxgs,001,0,fr,2022-04-29_11h34.18.271,3-AFC_adaptive_staircase_mess,2022.1.1,37.59049441413406,
,,,,,2,0,2,0,13,0,13,0,,,,,,,,,,,,,,,,up,2000,-5.0,4.206975708225974e-05,1,3,1,2.5,417.7885623300157,418.00943350000307,416.7528990000137,417.0708556000027,417.7614386000205,418.06812720000744,418.74304040003335,419.04593310004566,left,0,6.266489399946295,416.77931100002024,None,419.30277000000933,None,,,,,,,lkbxgs,001,0,fr,2022-04-29_11h34.18.271,3-AFC_adaptive_staircase_mess,2022.1.1,37.59049441413406,
,,,,,2,0,2,0,14,0,14,0,,,,,,,,,,,,,,,,up,2000,-2.5,5.610092271509818e-05,1,3,1,2.5,425.6027287300152,None,424.56202540005324,424.88041090004845,425.5472119000042,425.85248580004554,426.5562784000067,426.87753700005123,up,1,3.469577199954074,424.61676930001704,None,427.11216320004314,None,,,,,,,lkbxgs,001,0,fr,2022-04-29_11h34.18.271,3-AFC_adaptive_staircase_mess,2022.1.1,37.59049441413406,
,,,,,2,0,2,0,15,0,15,0,,,,,,,,,,,,,,,,up,2000,-2.5,5.610092271509818e-05,1,3,1,2.5,430.63546682999583,430.85217500000726,429.58287330000894,429.9144351000432,430.57632780005224,430.88563020003494,431.5712279000436,431.89175060001435,left,0,3.3326850999728777,429.6488571000518,None,432.1264261000324,None,,,,,,,lkbxgs,001,0,fr,2022-04-29_11h34.18.271,3-AFC_adaptive_staircase_mess,2022.1.1,37.59049441413406,
,,,,,2,0,2,0,16,0,16,0,,,,,,,,,,,,,,,,right,2000,0.0,7.481178280472168e-05,1,3,1,2.5,436.5348922300094,436.74793140002294,434.48656780004967,434.8178269000491,435.4944946000469,435.80030590004753,436.5077685000142,436.83234210003866,right,1,2.6734013000386767,434.5486110000056,None,437.04432720004115,None,,,,,,,lkbxgs,001,0,fr,2022-04-29_11h34.18.271,3-AFC_adaptive_staircase_mess,2022.1.1,37.59049441413406,
,,,,,2,0,2,0,17,0,17,0,,,,,,,,,,,,,,,,left,2000,0.0,7.481178280472168e-05,1,3,1,2.5,438.75300283003014,None,438.6973877000273,439.01029040000867,439.71014520002063,440.0159314000048,440.6873301000451,441.01820180000504,left,1,2.401461500034202,438.75717490003444,None,None,None,,,,,,,lkbxgs,001,0,fr,2022-04-29_11h34.18.271,3-AFC_adaptive_staircase_mess,2022.1.1,37.59049441413406,
,,,,,2,0,2,0,18,0,18,0,,,,,,,,,,,,,,,,right,2000,-5.0,4.206975708225974e-05,-1,4,-1,-5.0,444.6831494300335,444.9039681000286,442.6219098000438,442.9473984000506,443.6217436000006,443.94583090004744,444.6238986000535,444.9363166000112,left,0,3.993941599968821,442.68357710004784,None,445.1741073000012,None,,,,,,,lkbxgs,001,0,fr,2022-04-29_11h34.18.271,3-AFC_adaptive_staircase_mess,2022.1.1,37.59049441413406,
,,,,,2,0,2,0,19,0,19,0,,,,,,,,,,,,,,,,left,2000,-2.5,5.610092271509818e-05,1,5,1,2.5,448.23200073000623,448.4502622000291,448.17747270001564,448.4765011999989,449.1757342000492,449.4976236000075,450.1835319000529,450.48753209999995,left,1,2.509323400037829,448.2335010000388,None,450.7177324000513,None,,,,,,,lkbxgs,001,0,fr,2022-04-29_11h34.18.271,3-AFC_adaptive_staircase_mess,2022.1.1,37.59049441413406,
,,,,,2,0,2,0,20,0,20,0,,,,,,,,,,,,,,,,left,2000,-2.5,5.610092271509818e-05,1,5,1,2.5,452.27163522999615,452.4879182000295,452.2154475999996,452.51432790001854,453.22517460002564,453.5476259000134,454.2251734000165,454.52737210004125,right,0,2.885006200056523,452.2721791000222,None,454.7603425999987,None,,,,,,,lkbxgs,001,0,fr,2022-04-29_11h34.18.271,3-AFC_adaptive_staircase_mess,2022.1.1,37.59049441413406,
,,,,,2,0,2,0,21,0,21,0,,,,,,,,,,,,,,,,up,2000,0.0,7.481178280472168e-05,1,5,1,2.5,457.69861723000065,457.9164754000376,456.6626400000532,456.968131200003,457.67149350000545,457.9754992000526,458.653621729993,None,up,1,1.9190561000141315,456.69427850004286,None,None,None,,,,,,,lkbxgs,001,0,fr,2022-04-29_11h34.18.271,3-AFC_adaptive_staircase_mess,2022.1.1,37.59049441413406,
,,,,,2,0,2,0,22,0,22,0,,,,,,,,,,,,,,,,up,2000,0.0,7.481178280472168e-05,1,5,1,2.5,461.1507511300209,461.36901740002213,460.1239054000471,460.44815060001565,461.1236274000257,461.42323030001717,462.1259586000233,462.4501981000067,up,1,2.8603792000212707,460.15309780003736,None,462.6559659000486,None,,,,,,,lkbxgs,001,0,fr,2022-04-29_11h34.18.271,3-AFC_adaptive_staircase_mess,2022.1.1,37.59049441413406,
,,,,,2,0,2,0,23,0,23,0,,,,,,,,,,,,,,,,left,2000,-5.0,4.206975708225974e-05,-1,6,-1,-5.0,464.5495834300003,None,464.49409750005,464.7985925000394,465.49123450001935,465.81290300004184,466.51739839999937,466.8418179000146,right,0,3.341505100019276,464.55164790002163,None,467.0484618000337,None,,,,,,,lkbxgs,001,0,fr,2022-04-29_11h34.18.271,3-AFC_adaptive_staircase_mess,2022.1.1,37.59049441413406,
,,,,,3,0,3,0,0,0,0,0,,,,,,,,,,,,,[],[],10,up,3000,30,0.001733684252262658,0,0,-1,10,483.80273853004326,484.0199413000373,482.7637604000047,483.07915100001264,483.74741810001433,484.0464960000245,None,None,up,1,1.5184176999609917,482.7909522000118,None,None,None,space,13.290848100034054,468.9871400000411,None,468.9871400000411,None,lkbxgs,001,0,fr,2022-04-29_11h34.18.271,3-AFC_adaptive_staircase_mess,2022.1.1,37.59049441413406,
,,,,,3,0,3,0,1,0,1,0,,,,,,,,,,,,,,,,up,3000,30,0.001733684252262658,0,0,-1,10,486.87178633001747,487.07660430000396,485.80750410002656,486.1276157000102,486.81696760002524,487.1368385000387,None,None,up,1,1.35913040000014,485.8621739000082,None,None,None,,,,,,,lkbxgs,001,0,fr,2022-04-29_11h34.18.271,3-AFC_adaptive_staircase_mess,2022.1.1,37.59049441413406,
,,,,,3,0,3,0,2,0,2,0,,,,,,,,,,,,,,,,up,3000,10,0.00017336842522626576,-1,0,-1,-10,489.7516575300309,489.976412500022,488.7093931999989,489.0349086000351,489.6941842000233,490.0069551000488,None,None,up,1,1.4896250999881886,488.740712800005,None,None,None,,,,,,,lkbxgs,001,0,fr,2022-04-29_11h34.18.271,3-AFC_adaptive_staircase_mess,2022.1.1,37.59049441413406,
,,,,,3,0,3,0,3,0,3,0,,,,,,,,,,,,,,,,up,3000,10,0.00017336842522626576,-1,0,-1,-10,492.7778556300385,None,491.7399977000314,492.0587824000395,492.7225559000508,493.02348390000407,None,None,up,1,1.4548728000372648,491.7675641000387,None,None,None,,,,,,,lkbxgs,001,0,fr,2022-04-29_11h34.18.271,3-AFC_adaptive_staircase_mess,2022.1.1,37.59049441413406,
,,,,,3,0,3,0,4,0,4,0,,,,,,,,,,,,,,,,right,3000,0,5.482390980715923e-05,-1,0,-1,-10,496.7546737300057,None,494.6763119000243,494.9866109000286,495.6892932000337,496.01491990004433,496.69061050005257,497.02169230004074,right,1,2.6101465999963693,494.7236668000114,None,497.25580310000805,None,,,,,,,lkbxgs,001,0,fr,2022-04-29_11h34.18.271,3-AFC_adaptive_staircase_mess,2022.1.1,37.59049441413406,
,,,,,3,0,3,0,5,0,5,0,,,,,,,,,,,,,,,,up,3000,0,5.482390980715923e-05,-1,0,-1,-10,499.8690548299986,500.09178770001745,498.8242500000051,499.14947950001806,499.8419311000034,500.1497500000405,500.83674150001025,501.15459890000056,up,1,3.729745999968145,498.8842174000456,None,501.3927129000076,None,,,,,,,lkbxgs,001,0,fr,2022-04-29_11h34.18.271,3-AFC_adaptive_staircase_mess,2022.1.1,37.59049441413406,
,,,,,3,0,3,0,6,0,6,0,,,,,,,,,,,,,,,,left,3000,-10,1.7336842522626584e-05,-1,0,-1,-10,504.17498283001476,None,504.1138880000217,504.43107570003485,505.0977351000183,505.41576450003777,506.12953430000925,506.44510410004295,right,0,3.999140499974601,504.18234610004583,None,506.6664853999973,None,,,,,,,lkbxgs,001,0,fr,2022-04-29_11h34.18.271,3-AFC_adaptive_staircase_mess,2022.1.1,37.59049441413406,
,,,,,3,0,3,0,7,0,7,0,,,,,,,,,,,,,,,,right,3000,-5,3.082975009307411e-05,1,1,1,5,511.70245703001854,None,509.65413480001735,509.985224700009,510.6730657000444,511.00190880004084,511.65744880004786,511.98014810000313,up,0,2.84403709997423,509.7061823999975,None,512.2220176000264,None,,,,,,,lkbxgs,001,0,fr,2022-04-29_11h34.18.271,3-AFC_adaptive_staircase_mess,2022.1.1,37.59049441413406,
,,,,,3,0,3,0,8,0,8,0,,,,,,,,,,,,,,,,left,3000,0,5.482390980715923e-05,1,1,1,5,514.0820388300402,514.3053294999991,514.054915100045,514.3647569000022,515.0469644000405,515.3916290000197,516.0606754000182,516.3946128000389,right,0,3.178587000002153,514.0905400000047,None,516.6004204000346,None,,,,,,,lkbxgs,001,0,fr,2022-04-29_11h34.18.271,3-AFC_adaptive_staircase_mess,2022.1.1,37.59049441413406,
,,,,,3,0,3,0,9,0,9,0,,,,,,,,,,,,,,,,up,3000,5,9.749222998790222e-05,1,1,1,5,519.8254351300478,None,518.7720390000031,519.0989531000378,519.7983114000526,520.1300180000253,520.766296100046,521.0991667000344,up,1,2.2765749000245705,518.8338636000408,None,None,None,,,,,,,lkbxgs,001,0,fr,2022-04-29_11h34.18.271,3-AFC_adaptive_staircase_mess,2022.1.1,37.59049441413406,
,,,,,3,0,3,0,10,0,10,0,,,,,,,,,,,,,,,,up,3000,5,9.749222998790222e-05,1,1,1,5,523.6607556300063,523.8867733000079,522.6334692000528,522.9575005000224,523.6336319000111,523.9483509000274,524.6345696000499,None,up,1,2.059318199986592,522.6672196,None,None,None,,,,,,,lkbxgs,001,0,fr,2022-04-29_11h34.18.271,3-AFC_adaptive_staircase_mess,2022.1.1,37.59049441413406,
,,,,,3,0,3,0,11,0,11,0,,,,,,,,,,,,,,,,left,3000,-5,3.082975009307411e-05,-1,2,-1,-5.0,526.2674898300378,526.4859910000232,526.210875000048,526.5127557000378,527.238997300039,527.5735669000424,528.1937418000307,528.5078528000158,left,1,3.321165299974382,526.268393300008,None,528.7738478000392,None,,,,,,,lkbxgs,001,0,fr,2022-04-29_11h34.18.271,3-AFC_adaptive_staircase_mess,2022.1.1,37.59049441413406,
,,,,,3,0,3,0,12,0,12,0,,,,,,,,,,,,,,,,right,3000,-5,3.082975009307411e-05,-1,2,-1,-5.0,533.1385976300284,533.3617407000274,531.1068604000029,531.4428465000237,532.097711600014,532.4109882000485,533.1114739000332,533.4190123000299,right,1,4.016513699956704,531.1409241000074,None,533.6472492000321,None,,,,,,,lkbxgs,001,0,fr,2022-04-29_11h34.18.271,3-AFC_adaptive_staircase_mess,2022.1.1,37.59049441413406,
,,,,,3,0,3,0,13,0,13,0,,,,,,,,,,,,,,,,right,3000,-10.0,1.7336842522626584e-05,-1,2,-1,-5.0,538.7104764300224,538.9354771000217,536.67927100003,537.0161137000541,537.65088500001,537.9833375000162,538.6490593000199,538.963962400041,up,0,4.906993100012187,536.7137753000134,None,539.2197356000543,None,,,,,,,lkbxgs,001,0,fr,2022-04-29_11h34.18.271,3-AFC_adaptive_staircase_mess,2022.1.1,37.59049441413406,
,,,,,3,0,3,0,14,0,14,0,,,,,,,,,,,,,,,,up,3000,-7.5,2.3119051069963017e-05,1,3,1,2.5,544.1518041300063,544.3713683000533,543.0994242000161,543.4234796000528,544.0900851000333,544.4022743000533,545.0886378000141,545.392075300042,right,0,3.9164100000052713,543.1611005000304,None,545.6612431000103,None,,,,,,,lkbxgs,001,0,fr,2022-04-29_11h34.18.271,3-AFC_adaptive_staircase_mess,2022.1.1,37.59049441413406,
,,,,,3,0,3,0,15,0,15,0,,,,,,,,,,,,,,,,up,3000,-5.0,3.082975009307411e-05,1,3,1,2.5,549.6222263299918,549.8434902000008,548.5943985000486,548.9281200999976,549.5951025999966,549.9071095000254,550.5986265000538,550.9330783000332,right,0,4.016892200044822,548.6285806000233,None,551.1332303000381,None,,,,,,,lkbxgs,001,0,fr,2022-04-29_11h34.18.271,3-AFC_adaptive_staircase_mess,2022.1.1,37.59049441413406,
,,,,,3,0,3,0,16,0,16,0,,,,,,,,,,,,,,,,right,3000,-2.5,4.1112132497353565e-05,1,3,1,2.5,556.1974610300443,556.4121955000446,554.1681676000007,554.5006693000323,555.1342046000063,555.4672165000229,556.1703373000491,556.4731890000403,up,0,4.684154200018384,554.2018000000389,None,556.7042868999997,None,,,,,,,lkbxgs,001,0,fr,2022-04-29_11h34.18.271,3-AFC_adaptive_staircase_mess,2022.1.1,37.59049441413406,
,,,,,3,0,3,0,17,0,17,0,,,,,,,,,,,,,,,,left,3000,0.0,5.482390980715923e-05,1,3,1,2.5,560.4346826300083,560.651664200006,560.4075589000131,560.71236830001,561.4082739000442,561.7438344000257,562.3772794000106,562.7094154000515,left,1,4.428443599957973,560.4411296000471,None,562.946614800021,None,,,,,,,lkbxgs,001,0,fr,2022-04-29_11h34.18.271,3-AFC_adaptive_staircase_mess,2022.1.1,37.59049441413406,
,,,,,3,0,3,0,18,0,18,0,,,,,,,,,,,,,,,,right,3000,0.0,5.482390980715923e-05,1,3,1,2.5,568.4116032299993,568.632945600024,566.3801641000318,566.7120787000167,567.3804102000431,567.7170612000045,568.3844795000041,568.6883538000402,right,1,2.774793599965051,566.4138329999987,None,568.9186687000329,None,,,,,,,lkbxgs,001,0,fr,2022-04-29_11h34.18.271,3-AFC_adaptive_staircase_mess,2022.1.1,37.59049441413406,
,,,,,3,0,3,0,19,0,19,0,,,,,,,,,,,,,,,,right,3000,-5.0,3.082975009307411e-05,-1,4,-1,-5.0,572.7484106300457,572.9670199000393,570.71657530003,571.0545537000289,571.7195508000441,572.0538305000518,572.6872797000105,572.997713000048,left,0,4.630964399955701,570.7501388000092,None,573.2553742000018,None,,,,,,,lkbxgs,001,0,fr,2022-04-29_11h34.18.271,3-AFC_adaptive_staircase_mess,2022.1.1,37.59049441413406,
,,,,,3,0,3,0,20,0,20,0,,,,,,,,,,,,,,,,left,3000,-2.5,4.1112132497353565e-05,1,5,1,2.5,576.9175551300344,577.1371659000288,576.8904314000392,577.1950594000518,577.8912960000453,578.1956451000297,578.8615405000164,579.1919796000002,up,0,4.361508000001777,576.9241370000527,None,579.4286509000231,None,,,,,,,lkbxgs,001,0,fr,2022-04-29_11h34.18.271,3-AFC_adaptive_staircase_mess,2022.1.1,37.59049441413406,
,,,,,3,0,3,0,21,0,21,0,,,,,,,,,,,,,,,,left,3000,0.0,5.482390980715923e-05,1,5,1,2.5,582.8185828300251,583.0362479000469,582.7914591000299,583.0954678000417,583.7815406000009,584.1013807000127,584.7866798000177,585.1018073000014,right,0,5.514917000022251,582.8110474999994,None,585.3304816000164,None,,,,,,,lkbxgs,001,0,fr,2022-04-29_11h34.18.271,3-AFC_adaptive_staircase_mess,2022.1.1,37.59049441413406,
,,,,,3,0,3,0,22,0,22,0,,,,,,,,,,,,,,,,up,3000,2.5,7.310885872283589e-05,1,5,1,2.5,590.8585683300101,591.0800210000016,589.8240874000476,590.149510600022,590.831444600015,591.1384429000318,591.8277203000034,592.1464138000156,right,0,3.1306021999916993,589.8830016000429,None,592.3843626000453,None,,,,,,,lkbxgs,001,0,fr,2022-04-29_11h34.18.271,3-AFC_adaptive_staircase_mess,2022.1.1,37.59049441413406,
,,,,,3,0,3,0,23,0,23,0,,,,,,,,,,,,,,,,up,3000,5.0,9.749222998790222e-05,1,5,1,2.5,595.552428130008,595.7607674000319,594.490973500011,594.809980400023,595.494274800003,595.8137838999974,596.500749800005,None,up,1,2.0485829999670386,594.5488765000482,None,None,None,,,,,,,lkbxgs,001,0,fr,2022-04-29_11h34.18.271,3-AFC_adaptive_staircase_mess,2022.1.1,37.59049441413406,
,,,,,3,0,3,0,24,0,24,0,,,,,,,,,,,,,,,,right,3000,5.0,9.749222998790222e-05,1,5,1,2.5,600.1343968299974,600.3582039000466,598.0911295000114,598.410469800001,599.0746413000161,599.3962906000088,600.0769385000458,600.3877139000106,left,0,4.350251800031401,598.1193190000486,None,600.6179103000322,None,,,,,,,lkbxgs,001,0,fr,2022-04-29_11h34.18.271,3-AFC_adaptive_staircase_mess,2022.1.1,37.59049441413406,
,,,,,3,0,3,0,25,0,25,0,,,,,,,,,,,,,,,,up,3000,7.5,0.00013000797815826355,1,5,1,2.5,604.9924767300312,605.2081657000235,603.9659973000525,604.2836502999999,604.965353000036,605.291200000036,None,None,up,1,1.6113014000002295,603.9942773000221,None,None,None,,,,,,,lkbxgs,001,0,fr,2022-04-29_11h34.18.271,3-AFC_adaptive_staircase_mess,2022.1.1,37.59049441413406,
,,,,,3,0,3,0,26,0,26,0,,,,,,,,,,,,,,,,right,3000,7.5,0.00013000797815826355,1,5,1,2.5,609.1513856300211,609.3693860000349,607.089684800012,607.4094630000181,608.0918192000245,608.4108588000527,609.096736800042,609.3955166000524,right,1,2.5366403000080027,607.1489571999991,None,609.654146600049,None,,,,,,,lkbxgs,001,0,fr,2022-04-29_11h34.18.271,3-AFC_adaptive_staircase_mess,2022.1.1,37.59049441413406,
,,,,,3,0,3,0,27,0,27,0,,,,,,,,,,,,,,,,up,3000,2.5,7.310885872283589e-05,-1,6,-1,-5.0,612.2178107300482,612.4323159000487,611.1594321000157,611.4764528000378,612.1614130000235,612.4908864000463,613.1771265999996,613.4931490000454,up,1,2.7836095999809913,611.2066010000417,None,613.7216030000127,None,,,,,,,lkbxgs,001,0,fr,2022-04-29_11h34.18.271,3-AFC_adaptive_staircase_mess,2022.1.1,37.59049441413406,
,,,,,4,0,4,0,0,0,0,0,,,,,,,,,,,,,[],[],10,right,4000,30,0.0026544222211549416,0,0,-1,10,624.8465731300006,625.0685228000511,622.8100287000416,623.125177400012,623.8120592000196,624.1191662000492,624.7906208000495,625.0949985000188,right,1,2.500246799958404,622.8659975000191,None,625.3552595000365,None,space,7.295230099989567,615.0454081000062,None,615.0454081000062,None,lkbxgs,001,0,fr,2022-04-29_11h34.18.271,3-AFC_adaptive_staircase_mess,2022.1.1,37.59049441413406,
,,,,,4,0,4,0,1,0,1,0,,,,,,,,,,,,,,,,up,4000,30,0.0026544222211549416,0,0,-1,10,627.9015491300437,628.1219163000351,626.8376461000298,627.1583051000489,627.8456982000498,628.1492035000119,None,None,up,1,1.4274434000253677,626.8982066000463,None,None,None,,,,,,,lkbxgs,001,0,fr,2022-04-29_11h34.18.271,3-AFC_adaptive_staircase_mess,2022.1.1,37.59049441413406,
,,,,,4,0,4,0,2,0,2,0,,,,,,,,,,,,,,,,up,4000,10,0.00026544222211549425,-1,0,-1,-10,630.8609961300448,631.0766869000508,629.8279378000298,630.1444645000156,630.804849600012,631.1347663000342,None,None,up,1,1.3316638999967836,629.8570119000506,None,None,None,,,,,,,lkbxgs,001,0,fr,2022-04-29_11h34.18.271,3-AFC_adaptive_staircase_mess,2022.1.1,37.59049441413406,
,,,,,4,0,4,0,3,0,3,0,,,,,,,,,,,,,,,,right,4000,10,0.00026544222211549425,-1,0,-1,-10,634.7129662300052,634.9336592000327,632.6696058000089,632.9922313000425,633.6523171000299,633.9729997000541,634.6572646000423,634.9610402000253,right,1,2.3802686000126414,632.6974157000077,None,None,None,,,,,,,lkbxgs,001,0,fr,2022-04-29_11h34.18.271,3-AFC_adaptive_staircase_mess,2022.1.1,37.59049441413406,
,,,,,4,0,4,0,4,0,4,0,,,,,,,,,,,,,,,,left,4000,0,8.394020090612804e-05,-1,0,-1,-10,636.6080830300401,636.8278909000219,636.5509902000194,636.8591329000192,637.574609400006,637.8773960000253,None,None,left,1,1.4741825999808498,636.6113581000245,None,None,None,,,,,,,lkbxgs,001,0,fr,2022-04-29_11h34.18.271,3-AFC_adaptive_staircase_mess,2022.1.1,37.59049441413406,
,,,,,4,0,4,0,5,0,5,0,,,,,,,,,,,,,,,,right,4000,0,8.394020090612804e-05,-1,0,-1,-10,641.6372914300358,641.8516118000261,639.5873715000344,639.9116354000289,640.5691747000092,640.894105000014,641.5694994000369,641.8786074000527,right,1,2.48208650003653,639.6186671000323,None,642.1347375300305,None,,,,,,,lkbxgs,001,0,fr,2022-04-29_11h34.18.271,3-AFC_adaptive_staircase_mess,2022.1.1,37.59049441413406,
,,,,,4,0,4,0,6,0,6,0,,,,,,,,,,,,,,,,up,4000,-10,2.6544222211549425e-05,-1,0,-1,-10,644.6281282299955,644.8463014000445,643.5834930000128,643.910421800043,644.5747282000375,644.900863900024,None,None,up,1,1.6273123000282794,643.6104856000165,None,None,None,,,,,,,lkbxgs,001,0,fr,2022-04-29_11h34.18.271,3-AFC_adaptive_staircase_mess,2022.1.1,37.59049441413406,
,,,,,4,0,4,0,7,0,7,0,,,,,,,,,,,,,,,,right,4000,-10,2.6544222211549425e-05,-1,0,-1,-10,648.7594701300317,648.9769251000253,646.6959188000183,647.0311867000419,647.694679600012,648.023560600006,648.7051273999969,649.0318946000189,up,0,2.9781347999814898,646.755131700018,None,649.2651603000122,None,,,,,,,lkbxgs,001,0,fr,2022-04-29_11h34.18.271,3-AFC_adaptive_staircase_mess,2022.1.1,37.59049441413406,
,,,,,4,0,4,0,8,0,8,0,,,,,,,,,,,,,,,,left,4000,-5,4.720304381429618e-05,1,1,1,5,651.2452235299919,651.4589065000182,651.1883494000067,651.5126261000405,652.196458600054,652.5166028000531,653.1930467000348,653.5100500000408,up,0,3.123706200043671,651.2494153000298,None,653.7391913000029,None,,,,,,,lkbxgs,001,0,fr,2022-04-29_11h34.18.271,3-AFC_adaptive_staircase_mess,2022.1.1,37.59049441413406,
,,,,,4,0,4,0,9,0,9,0,,,,,,,,,,,,,,,,right,4000,0,8.394020090612804e-05,1,1,1,5,657.905309130036,658.1257583000115,655.8813355000457,656.1990416000481,656.8805469000363,657.1976770000183,657.8781854000408,658.1798088000505,right,1,2.5918620000011288,655.9100988000282,None,658.4374371000449,None,,,,,,,lkbxgs,001,0,fr,2022-04-29_11h34.18.271,3-AFC_adaptive_staircase_mess,2022.1.1,37.59049441413406,
,,,,,4,0,4,0,10,0,10,0,,,,,,,,,,,,,,,,left,4000,0,8.394020090612804e-05,1,1,1,5,660.0073014300491,660.227069000015,659.9801777000539,660.2815261000069,None,None,None,None,left,1,0.7031048000208102,660.0071132000303,None,None,None,,,,,,,lkbxgs,001,0,fr,2022-04-29_11h34.18.271,3-AFC_adaptive_staircase_mess,2022.1.1,37.59049441413406,
,,,,,4,0,4,0,11,0,11,0,,,,,,,,,,,,,,,,right,4000,-10,2.6544222211549425e-05,-1,2,-1,-5.0,664.2720990300353,664.4867792000296,662.2072158000083,662.5302183000022,663.2139635000494,663.5359771000221,664.2154828000348,664.54440480005,up,0,3.498431799991522,662.267618700047,None,664.7760640000342,None,,,,,,,lkbxgs,001,0,fr,2022-04-29_11h34.18.271,3-AFC_adaptive_staircase_mess,2022.1.1,37.59049441413406,
,,,,,4,0,4,0,12,0,12,0,,,,,,,,,,,,,,,,up,4000,-7.5,3.53972892192069e-05,1,3,1,2.5,668.2960997300164,668.5244905000436,667.2664045999991,667.5816106999991,668.2689760000212,668.5822415000293,669.2443461000221,669.5681100000511,right,0,3.73398720001569,667.2949398000492,None,669.795322000049,None,,,,,,,lkbxgs,001,0,fr,2022-04-29_11h34.18.271,3-AFC_adaptive_staircase_mess,2022.1.1,37.59049441413406,
,,,,,4,0,4,0,13,0,13,0,,,,,,,,,,,,,,,,up,4000,-5.0,4.720304381429618e-05,1,3,1,2.5,673.580322130007,None,672.5257093000109,672.8445498000365,673.5219507000293,673.8313234000234,674.5141593000153,674.8327340999967,left,0,2.956287599983625,672.5536246999982,None,675.0634364000289,None,,,,,,,lkbxgs,001,0,fr,2022-04-29_11h34.18.271,3-AFC_adaptive_staircase_mess,2022.1.1,37.59049441413406,
,,,,,4,0,4,0,14,0,14,0,,,,,,,,,,,,,,,,left,4000,-2.5,6.294627058970837e-05,1,3,1,2.5,677.0144603300199,677.2316785000148,676.9873366000247,677.2928431000328,677.9791533000534,678.2994687000173,678.9836968000163,679.3037046000245,right,0,3.1971079999930225,677.0163923000218,None,679.5328319000546,None,,,,,,,lkbxgs,001,0,fr,2022-04-29_11h34.18.271,3-AFC_adaptive_staircase_mess,2022.1.1,37.59049441413406,
,,,,,4,0,4,0,15,0,15,0,,,,,,,,,,,,,,,,right,4000,0.0,8.394020090612804e-05,1,3,1,2.5,683.721851130022,683.941749300051,681.6626530000358,681.9874986000359,682.6827645000303,683.0024665000383,683.6649606000283,683.9726130000199,right,1,3.834149800008163,681.7226195000112,None,684.2326978000347,None,,,,,,,lkbxgs,001,0,fr,2022-04-29_11h34.18.271,3-AFC_adaptive_staircase_mess,2022.1.1,37.59049441413406,
,,,,,4,0,4,0,16,0,16,0,,,,,,,,,,,,,,,,up,4000,0.0,8.394020090612804e-05,1,3,1,2.5,688.0610668300127,None,687.0233346000314,687.3455444000429,688.0339431000175,688.3374569000443,None,None,up,1,1.7096886000363156,687.0801607000176,None,None,None,,,,,,,lkbxgs,001,0,fr,2022-04-29_11h34.18.271,3-AFC_adaptive_staircase_mess,2022.1.1,37.59049441413406,
,,,,,4,0,4,0,17,0,17,0,,,,,,,,,,,,,,,,right,4000,-5.0,4.720304381429618e-05,-1,4,-1,-5.0,692.331160230044,692.5504009000142,690.2962010000483,690.6111662000185,691.2680660000187,691.587387400039,692.2726143000182,692.5813591000042,up,0,3.2660027000238188,690.3244046000182,None,692.8411602000124,None,,,,,,,lkbxgs,001,0,fr,2022-04-29_11h34.18.271,3-AFC_adaptive_staircase_mess,2022.1.1,37.59049441413406,
,,,,,4,0,4,0,18,0,18,0,,,,,,,,,,,,,,,,up,4000,-2.5,6.294627058970837e-05,1,5,1,2.5,696.1415808300429,696.3524561000522,695.0937013000366,695.4132039000397,696.0861824000021,696.4117716000183,697.0999687000294,697.416778200015,up,1,2.4184502999996766,695.1222492000088,None,None,None,,,,,,,lkbxgs,001,0,fr,2022-04-29_11h34.18.271,3-AFC_adaptive_staircase_mess,2022.1.1,37.59049441413406,
,,,,,4,0,4,0,19,0,19,0,,,,,,,,,,,,,,,,up,4000,-2.5,6.294627058970837e-05,1,5,1,2.5,700.0771574300073,None,699.0115565000451,699.3388722000527,700.0227909000241,700.3276821000036,None,None,up,1,1.6367858999874443,699.0726070000092,None,None,None,,,,,,,lkbxgs,001,0,fr,2022-04-29_11h34.18.271,3-AFC_adaptive_staircase_mess,2022.1.1,37.59049441413406,
,,,,,4,0,4,0,20,0,20,0,,,,,,,,,,,,,,,,up,4000,-7.5,3.53972892192069e-05,-1,6,-1,-5.0,703.2414934299944,703.4600358000025,702.2035355000407,702.5241017000517,703.2143696999992,703.5196978000458,704.2096331000212,704.5241215000278,up,1,2.877048599999398,702.2321249000379,None,704.7529190000496,None,,,,,,,lkbxgs,001,0,fr,2022-04-29_11h34.18.271,3-AFC_adaptive_staircase_mess,2022.1.1,37.59049441413406,
,,,,,5,0,5,0,0,0,0,0,,,,,,,,,,,,,[],[],10,up,6000,30,0.003664122665694519,0,0,-1,10,720.4967372299928,None,719.4528578000027,719.7765742000192,720.4696134999976,720.7735430000466,None,None,up,1,1.3596870999899693,719.5099926000112,None,None,None,space,12.791433000005782,706.1888899000478,None,706.1888899000478,None,lkbxgs,001,0,fr,2022-04-29_11h34.18.271,3-AFC_adaptive_staircase_mess,2022.1.1,37.59049441413406,
,,,,,5,0,5,0,1,0,1,0,,,,,,,,,,,,,,,,right,6000,30,0.003664122665694519,0,0,-1,10,724.4337524300266,None,722.380842100014,722.7004360000137,723.3598719000001,723.67649110005,724.3753759000101,724.6826903000474,right,1,2.4286904000327922,722.4087699000374,None,None,None,,,,,,,lkbxgs,001,0,fr,2022-04-29_11h34.18.271,3-AFC_adaptive_staircase_mess,2022.1.1,37.59049441413406,
,,,,,5,0,5,0,2,0,2,0,,,,,,,,,,,,,,,,right,6000,10,0.00036641226656945183,-1,0,-1,-10,728.3593782300071,728.568725500023,726.3304000000353,726.6472613000078,727.3119793000515,727.6386130000465,728.3322545000119,728.6491547000478,right,1,2.3511484999908134,726.3577172000078,None,None,None,,,,,,,lkbxgs,001,0,fr,2022-04-29_11h34.18.271,3-AFC_adaptive_staircase_mess,2022.1.1,37.59049441413406,
,,,,,5,0,5,0,3,0,3,0,,,,,,,,,,,,,,,,left,6000,10,0.00036641226656945183,-1,0,-1,-10,730.2692393300298,730.487692900002,730.2113555000396,730.5186672999989,None,None,None,None,left,1,0.51455070002703,730.2745714000193,None,None,None,,,,,,,lkbxgs,001,0,fr,2022-04-29_11h34.18.271,3-AFC_adaptive_staircase_mess,2022.1.1,37.59049441413406,
,,,,,5,0,5,0,4,0,4,0,,,,,,,,,,,,,,,,left,6000,0,0.00011586973249842387,-1,0,-1,-10,732.3322252300044,732.5488792000106,732.2757303000544,732.5756477999967,None,None,None,None,left,1,0.500468899961561,732.3359413000289,None,None,None,,,,,,,lkbxgs,001,0,fr,2022-04-29_11h34.18.271,3-AFC_adaptive_staircase_mess,2022.1.1,37.59049441413406,
,,,,,5,0,5,0,5,0,5,0,,,,,,,,,,,,,,,,up,6000,0,0.00011586973249842387,-1,0,-1,-10,735.3769514299987,None,734.339214400039,734.6412792000338,735.3182358000195,735.6275229000021,None,None,up,1,1.3622256999951787,734.3703915000078,None,None,None,,,,,,,lkbxgs,001,0,fr,2022-04-29_11h34.18.271,3-AFC_adaptive_staircase_mess,2022.1.1,37.59049441413406,
,,,,,5,0,5,0,6,0,6,0,,,,,,,,,,,,,,,,right,6000,-10,3.664122665694518e-05,-1,0,-1,-10,739.2573606300342,None,737.2156334000174,737.5400459000375,738.2126212000148,738.5359201000538,739.230236900039,739.5320156000089,right,1,2.712560400017537,737.2763260000502,None,739.7650905000046,None,,,,,,,lkbxgs,001,0,fr,2022-04-29_11h34.18.271,3-AFC_adaptive_staircase_mess,2022.1.1,37.59049441413406,
,,,,,5,0,5,0,7,0,7,0,,,,,,,,,,,,,,,,left,6000,-10,3.664122665694518e-05,-1,0,-1,-10,741.5334109300223,None,741.4782822999987,741.793900800054,742.4907217000145,742.8191921000252,743.4882895000046,743.8112684000516,right,0,3.1750072999857366,741.5349570000544,None,744.0178944000509,None,,,,,,,lkbxgs,001,0,fr,2022-04-29_11h34.18.271,3-AFC_adaptive_staircase_mess,2022.1.1,37.59049441413406,
,,,,,5,0,5,0,8,0,8,0,,,,,,,,,,,,,,,,up,6000,-5,6.515833892261494e-05,1,1,1,5,747.2439739300229,747.4675908000208,746.1858620000421,746.5141937000444,747.1854136000038,747.4994555000449,None,None,up,1,1.5226567999925464,746.2424794000108,None,None,None,,,,,,,lkbxgs,001,0,fr,2022-04-29_11h34.18.271,3-AFC_adaptive_staircase_mess,2022.1.1,37.59049441413406,
,,,,,5,0,5,0,9,0,9,0,,,,,,,,,,,,,,,,right,6000,-5,6.515833892261494e-05,1,1,1,5,751.2786462300049,751.4968874000479,749.2459671000252,749.5458842000226,750.2453667000518,750.5458931000321,751.2515225000097,751.5546707000467,right,1,2.4630579000222497,749.3023137000273,None,751.7898048000061,None,,,,,,,lkbxgs,001,0,fr,2022-04-29_11h34.18.271,3-AFC_adaptive_staircase_mess,2022.1.1,37.59049441413406,
,,,,,5,0,5,0,10,0,10,0,,,,,,,,,,,,,,,,right,6000,-15,2.0604875954866497e-05,-1,2,-1,-5.0,755.3263765299984,755.5462652000133,753.2916368000442,753.6209425000125,754.292205500009,754.6198163000518,755.26800370001,755.5772039000294,up,0,3.5462538999854587,753.3232662000228,None,755.8191620000289,None,,,,,,,lkbxgs,001,0,fr,2022-04-29_11h34.18.271,3-AFC_adaptive_staircase_mess,2022.1.1,37.59049441413406,
,,,,,5,0,5,0,11,0,11,0,,,,,,,,,,,,,,,,left,6000,-12.5,2.7477043692881217e-05,1,3,1,2.5,758.405077430018,758.6176013000077,758.3472053000005,758.6744485000381,759.3678134000511,759.6887721000239,760.3533811000525,760.6770917000249,up,0,2.81410220003454,758.4073158000247,None,760.9081023000181,None,,,,,,,lkbxgs,001,0,fr,2022-04-29_11h34.18.271,3-AFC_adaptive_staircase_mess,2022.1.1,37.59049441413406,
,,,,,5,0,5,0,12,0,12,0,,,,,,,,,,,,,,,,right,6000,-10.0,3.664122665694518e-05,1,3,1,2.5,None,None,762.7084672000492,763.0276524000219,None,None,None,None,left,0,0.8536676000221632,762.7675568000413,None,None,None,,,,,,,lkbxgs,001,0,fr,2022-04-29_11h34.18.271,3-AFC_adaptive_staircase_mess,2022.1.1,37.59049441413406,
,,,,,5,0,5,0,13,0,13,0,,,,,,,,,,,,,,,,left,6000,-7.5,4.886186104779051e-05,1,3,1,2.5,765.1689059300173,765.3902668000082,765.1103629000136,765.4183103000396,766.115914700029,766.4273285000236,767.105588400038,767.4278465000098,up,0,2.8051897999830544,765.1680947000277,None,767.6578430000227,None,,,,,,,lkbxgs,001,0,fr,2022-04-29_11h34.18.271,3-AFC_adaptive_staircase_mess,2022.1.1,37.59049441413406,
,,,,,5,0,5,0,14,0,14,0,,,,,,,,,,,,,,,,left,6000,-5.0,6.515833892261494e-05,1,3,1,2.5,769.4927199300204,769.7084632000187,769.4399747000425,769.7618182000006,None,None,None,None,left,1,0.6711646000039764,769.4939625000115,None,None,None,,,,,,,lkbxgs,001,0,fr,2022-04-29_11h34.18.271,3-AFC_adaptive_staircase_mess,2022.1.1,37.59049441413406,
,,,,,5,0,5,0,15,0,15,0,,,,,,,,,,,,,,,,up,6000,-5.0,6.515833892261494e-05,1,3,1,2.5,772.7185150299978,None,771.663968900044,771.9897168000462,772.6622971000033,772.9678550000535,None,None,up,1,1.5435168000403792,771.7263583000167,None,None,None,,,,,,,lkbxgs,001,0,fr,2022-04-29_11h34.18.271,3-AFC_adaptive_staircase_mess,2022.1.1,37.59049441413406,
,,,,,5,0,5,0,16,0,16,0,,,,,,,,,,,,,,,,left,6000,-10.0,3.664122665694518e-05,-1,4,-1,-5.0,774.7884868300229,775.0043971000123,774.7347903000191,775.062137800036,775.7536921999999,776.0747915000538,776.7334188000532,777.0606539000291,right,0,3.7079872000031173,774.7924243000452,None,777.2965747000417,None,,,,,,,lkbxgs,001,0,fr,2022-04-29_11h34.18.271,3-AFC_adaptive_staircase_mess,2022.1.1,37.59049441413406,
,,,,,5,0,5,0,17,0,17,0,,,,,,,,,,,,,,,,up,6000,-7.5,4.886186104779051e-05,1,5,1,2.5,781.0555199300346,781.2734698000131,779.9881667000009,780.3140447000042,781.001662100025,781.3325758000137,781.9892296000035,782.3092984000104,up,1,2.6912311000050977,780.0490999000031,None,782.5414865000057,None,,,,,,,lkbxgs,001,0,fr,2022-04-29_11h34.18.271,3-AFC_adaptive_staircase_mess,2022.1.1,37.59049441413406,
,,,,,5,0,5,0,18,0,18,0,,,,,,,,,,,,,,,,up,6000,-7.5,4.886186104779051e-05,1,5,1,2.5,785.2765744300035,785.4925885000266,784.2451600000495,784.5679020000389,785.2129400999984,785.520796900033,786.2415244000149,786.5606336000492,up,1,2.3043987000128254,784.2765161000425,None,None,None,,,,,,,lkbxgs,001,0,fr,2022-04-29_11h34.18.271,3-AFC_adaptive_staircase_mess,2022.1.1,37.59049441413406,
,,,,,5,0,5,0,19,0,19,0,,,,,,,,,,,,,,,,left,6000,-12.5,2.7477043692881217e-05,-1,6,-1,-5.0,788.0990682300238,788.3130502999993,788.0410569000524,788.3415313000442,789.0625209000427,789.3819628000492,790.0638958000345,790.3849389000097,right,0,2.6878570000408217,788.101914800005,None,790.6106632000301,None,,,,,,,lkbxgs,001,0,fr,2022-04-29_11h34.18.271,3-AFC_adaptive_staircase_mess,2022.1.1,37.59049441413406,
,,,,,6,0,6,0,0,0,0,0,,,,,,,,,,,,,[],[],10,up,8000,30,0.005740768107484416,0,0,-1,10,801.1373488300072,801.358679500001,800.0738202000502,800.3927498999983,801.0823838000069,801.3872582000331,None,None,up,1,1.3792238000314683,800.1300750000519,None,None,None,space,7.783573699998669,791.8543368000537,None,791.8543368000537,None,lkbxgs,001,0,fr,2022-04-29_11h34.18.271,3-AFC_adaptive_staircase_mess,2022.1.1,37.59049441413406,
,,,,,6,0,6,0,1,0,1,0,,,,,,,,,,,,,,,,left,8000,30,0.005740768107484416,0,0,-1,10,803.0386020300269,803.2601696000202,803.0114783000317,803.320375100011,None,None,None,None,left,1,0.548911300022155,803.0400262000039,None,None,None,,,,,,,lkbxgs,001,0,fr,2022-04-29_11h34.18.271,3-AFC_adaptive_staircase_mess,2022.1.1,37.59049441413406,
,,,,,6,0,6,0,2,0,2,0,,,,,,,,,,,,,,,,left,8000,10,0.0005740768107484417,-1,0,-1,-10,805.1232852300221,805.3459676000057,805.0680157000315,805.3722226000391,None,None,None,None,left,1,0.43192220001947135,805.1247510000248,None,None,None,,,,,,,lkbxgs,001,0,fr,2022-04-29_11h34.18.271,3-AFC_adaptive_staircase_mess,2022.1.1,37.59049441413406,
,,,,,6,0,6,0,3,0,3,0,,,,,,,,,,,,,,,,right,8000,10,0.0005740768107484417,-1,0,-1,-10,809.085673030006,809.2992535000085,807.0316099000047,807.346251400013,808.0337731000036,808.3505862000166,809.030186100048,809.3525864999974,right,1,2.38882829999784,807.0889180000522,None,None,None,,,,,,,lkbxgs,001,0,fr,2022-04-29_11h34.18.271,3-AFC_adaptive_staircase_mess,2022.1.1,37.59049441413406,
,,,,,6,0,6,0,4,0,4,0,,,,,,,,,,,,,,,,left,8000,0,0.0001815390273850507,-1,0,-1,-10,811.0301018300291,None,810.9750252000522,811.2766193000134,None,None,None,None,left,1,0.682570900011342,811.0344961000374,None,None,None,,,,,,,lkbxgs,001,0,fr,2022-04-29_11h34.18.271,3-AFC_adaptive_staircase_mess,2022.1.1,37.59049441413406,
,,,,,6,0,6,0,5,0,5,0,,,,,,,,,,,,,,,,left,8000,0,0.0001815390273850507,-1,0,-1,-10,813.247917230014,None,813.2207935000188,813.5382406000281,814.2189920000383,814.5370272000437,815.2136926000239,815.5241684000357,left,1,2.8290143000194803,813.2407581000007,None,815.7536874000216,None,,,,,,,lkbxgs,001,0,fr,2022-04-29_11h34.18.271,3-AFC_adaptive_staircase_mess,2022.1.1,37.59049441413406,
,,,,,6,0,6,0,6,0,6,0,,,,,,,,,,,,,,,,up,8000,-10,5.740768107484415e-05,-1,0,-1,-10,818.6070626300119,818.822520900052,817.5569127000053,817.8767954000505,818.5799389000167,818.905075800023,819.5474991000374,819.86989490001,up,1,3.4086828000145033,817.6198285000282,None,820.1087679000339,None,,,,,,,lkbxgs,001,0,fr,2022-04-29_11h34.18.271,3-AFC_adaptive_staircase_mess,2022.1.1,37.59049441413406,
,,,,,6,0,6,0,7,0,7,0,,,,,,,,,,,,,,,,left,8000,-10,5.740768107484415e-05,-1,0,-1,-10,822.586712530005,822.8070247000433,822.5304253000068,822.8377781000454,823.5424441000214,823.851629700046,824.550266300037,824.8673857999966,left,1,4.402482400008012,822.5794016,None,825.0691072000191,None,,,,,,,lkbxgs,001,0,fr,2022-04-29_11h34.18.271,3-AFC_adaptive_staircase_mess,2022.1.1,37.59049441413406,
,,,,,6,0,6,0,8,0,8,0,,,,,,,,,,,,,,,,right,8000,-20,1.815390273850507e-05,-1,0,-1,-10,830.5310727300297,830.7466131999972,828.4778566000168,828.7969460000168,829.4778100000112,829.7924892000156,830.4742864000145,830.7773926000227,left,0,3.6317121000029147,828.5334833000088,None,831.0365721000126,None,,,,,,,lkbxgs,001,0,fr,2022-04-29_11h34.18.271,3-AFC_adaptive_staircase_mess,2022.1.1,37.59049441413406,
,,,,,6,0,6,0,9,0,9,0,,,,,,,,,,,,,,,,left,8000,-15,3.228271145173278e-05,1,1,1,5,833.6995671300159,833.9150840000366,833.644064400054,833.9737294000224,834.6278196000494,834.9428561000386,835.6289675000007,835.9427728000446,right,0,2.9208575999946333,833.6918474000413,None,836.2056727000163,None,,,,,,,lkbxgs,001,0,fr,2022-04-29_11h34.18.271,3-AFC_adaptive_staircase_mess,2022.1.1,37.59049441413406,
,,,,,6,0,6,0,10,0,10,0,,,,,,,,,,,,,,,,right,8000,-10,5.740768107484415e-05,1,1,1,5,840.1473193300247,840.3621255000471,838.1314309000154,838.4447366000386,839.098186200019,839.4132951000356,840.1201956000295,840.4467896000133,up,0,3.618924700014759,838.1626499000122,None,840.652915600047,None,,,,,,,lkbxgs,001,0,fr,2022-04-29_11h34.18.271,3-AFC_adaptive_staircase_mess,2022.1.1,37.59049441413406,
,,,,,6,0,6,0,11,0,11,0,,,,,,,,,,,,,,,,right,8000,-5,0.00010208689723347648,1,1,1,5,845.3281447300163,845.5406070000026,843.2778146000346,843.5893922999967,844.2708353000344,844.586056900036,845.271357300051,845.5938560000504,right,1,2.6852706000208855,843.3364887000062,None,845.819927500037,None,,,,,,,lkbxgs,001,0,fr,2022-04-29_11h34.18.271,3-AFC_adaptive_staircase_mess,2022.1.1,37.59049441413406,
,,,,,6,0,6,0,12,0,12,0,,,,,,,,,,,,,,,,right,8000,-5,0.00010208689723347648,1,1,1,5,849.5500553300429,849.7627233000239,847.4988947000238,847.809059100051,848.4935368000297,848.8086506000254,849.4941503000446,849.8251850000233,up,0,2.899108099984005,847.5546800000011,None,850.0545003000298,None,,,,,,,lkbxgs,001,0,fr,2022-04-29_11h34.18.271,3-AFC_adaptive_staircase_mess,2022.1.1,37.59049441413406,
,,,,,6,0,6,0,13,0,13,0,,,,,,,,,,,,,,,,right,8000,0,0.0001815390273850507,1,1,1,5,853.9988607300387,854.2105316000525,851.9439916000119,852.2476067000534,852.9369320000405,853.2466711000307,853.9425282000448,854.264959000051,right,1,2.598990299971774,852.0139363000053,None,854.4991531000123,None,,,,,,,lkbxgs,001,0,fr,2022-04-29_11h34.18.271,3-AFC_adaptive_staircase_mess,2022.1.1,37.59049441413406,
,,,,,6,0,6,0,14,0,14,0,,,,,,,,,,,,,,,,left,8000,0,0.0001815390273850507,1,1,1,5,856.1425691300013,856.3558752000099,856.0836190000409,856.3719061000156,None,None,None,None,left,1,0.6630524999927729,856.1413805000484,None,None,None,,,,,,,lkbxgs,001,0,fr,2022-04-29_11h34.18.271,3-AFC_adaptive_staircase_mess,2022.1.1,37.59049441413406,
,,,,,6,0,6,0,15,0,15,0,,,,,,,,,,,,,,,,left,8000,-10,5.740768107484415e-05,-1,2,-1,-5.0,858.3296688300383,858.5496251000441,858.2690210000146,858.5764828000101,859.2873547000345,859.6019668000517,860.2829372000415,860.587570600037,up,0,3.07843039999716,858.3354834000347,None,860.8297114000306,None,,,,,,,lkbxgs,001,0,fr,2022-04-29_11h34.18.271,3-AFC_adaptive_staircase_mess,2022.1.1,37.59049441413406,
,,,,,6,0,6,0,16,0,16,0,,,,,,,,,,,,,,,,up,8000,-7.5,7.655437308410152e-05,1,3,1,2.5,863.9150271299935,864.1283385000424,862.8890900000115,863.2032873000135,863.8879033999983,864.1973040000303,864.8831402000505,865.1913936000201,up,1,4.0835166000179015,862.9144745000522,None,865.4402610000107,None,,,,,,,lkbxgs,001,0,fr,2022-04-29_11h34.18.271,3-AFC_adaptive_staircase_mess,2022.1.1,37.59049441413406,
,,,,,6,0,6,0,17,0,17,0,,,,,,,,,,,,,,,,up,8000,-7.5,7.655437308410152e-05,1,3,1,2.5,869.509918830014,None,868.4791619000025,868.8135004000505,869.4827951000188,869.7992429000442,870.4534090000088,870.7662439999986,left,0,2.6097846999764442,868.5473063000245,None,871.0188526000129,None,,,,,,,lkbxgs,001,0,fr,2022-04-29_11h34.18.271,3-AFC_adaptive_staircase_mess,2022.1.1,37.59049441413406,
,,,,,6,0,6,0,18,0,18,0,,,,,,,,,,,,,,,,up,8000,-5.0,0.00010208689723347648,1,3,1,2.5,873.7222968300397,None,872.6844464000314,873.0178735000081,873.6653600000427,873.9880434000515,874.6848771000514,874.9967668000027,up,1,3.687654500012286,872.7173731000512,None,875.2109138000524,None,,,,,,,lkbxgs,001,0,fr,2022-04-29_11h34.18.271,3-AFC_adaptive_staircase_mess,2022.1.1,37.59049441413406,
,,,,,6,0,6,0,19,0,19,0,,,,,,,,,,,,,,,,left,8000,-5.0,0.00010208689723347648,1,3,1,2.5,877.9500825300405,878.1708537000231,877.9229588000453,878.2310937000439,878.8999552000314,879.2112026000395,879.900418300007,880.2258217000053,right,0,3.9380415999912657,877.9559083000058,None,880.4606495000189,None,,,,,,,lkbxgs,001,0,fr,2022-04-29_11h34.18.271,3-AFC_adaptive_staircase_mess,2022.1.1,37.59049441413406,
,,,,,6,0,6,0,20,0,20,0,,,,,,,,,,,,,,,,up,8000,-2.5,0.00013613506540389563,1,3,1,2.5,884.430291830044,None,883.3971035000286,883.7288705000537,884.3696592000197,884.6978032000479,885.3663962000282,885.6990531000192,up,1,4.974548900034279,883.4303671000525,None,885.9365101000294,None,,,,,,,lkbxgs,001,0,fr,2022-04-29_11h34.18.271,3-AFC_adaptive_staircase_mess,2022.1.1,37.59049441413406,
,,,,,6,0,6,0,21,0,21,0,,,,,,,,,,,,,,,,left,8000,-2.5,0.00013613506540389563,1,3,1,2.5,889.9657772300474,None,889.9386535000522,890.2529057000065,890.9387879000278,891.2841208000318,891.9401825000532,892.2478086000192,right,0,3.554984999995213,889.9694582000375,None,892.4728037000168,None,,,,,,,lkbxgs,001,0,fr,2022-04-29_11h34.18.271,3-AFC_adaptive_staircase_mess,2022.1.1,37.59049441413406,
,,,,,6,0,6,0,22,0,22,0,,,,,,,,,,,,,,,,up,8000,0.0,0.0001815390273850507,1,3,1,2.5,896.07740503003,None,895.0403481000103,895.3745730000082,896.0136581000406,896.3432424000348,897.0093275000108,897.344756000035,left,0,3.776823400054127,895.07567010005,None,897.5825975000043,None,,,,,,,lkbxgs,001,0,fr,2022-04-29_11h34.18.271,3-AFC_adaptive_staircase_mess,2022.1.1,37.59049441413406,
,,,,,6,0,6,0,23,0,23,0,,,,,,,,,,,,,,,,right,8000,2.5,0.00024208618379204972,1,3,1,2.5,902.399831330002,None,900.3786515000393,900.71710910002,901.351422900043,901.6808735000086,902.3727076000068,902.6874272000277,right,1,2.64793550001923,900.4134187000454,None,902.9184351000004,None,,,,,,,lkbxgs,001,0,fr,2022-04-29_11h34.18.271,3-AFC_adaptive_staircase_mess,2022.1.1,37.59049441413406,
,,,,,6,0,6,0,24,0,24,0,,,,,,,,,,,,,,,,left,8000,2.5,0.00024208618379204972,1,3,1,2.5,904.6026980300143,None,904.5755743000191,904.8904059000197,None,None,None,None,left,1,0.6784413999994285,904.6057976000011,None,None,None,,,,,,,lkbxgs,001,0,fr,2022-04-29_11h34.18.271,3-AFC_adaptive_staircase_mess,2022.1.1,37.59049441413406,
,,,,,6,0,6,0,25,0,25,0,,,,,,,,,,,,,,,,up,8000,-2.5,0.00013613506540389563,-1,4,-1,-5.0,907.8153024300176,908.0340736000217,906.7863541000406,907.1225913000526,907.7881787000224,908.0963346000062,908.756244600052,909.0938258000533,up,1,2.608539299981203,906.8200843000086,None,909.3256198000163,None,,,,,,,lkbxgs,001,0,fr,2022-04-29_11h34.18.271,3-AFC_adaptive_staircase_mess,2022.1.1,37.59049441413406,
,,,,,6,0,6,0,26,0,26,0,,,,,,,,,,,,,,,,left,8000,-2.5,0.00013613506540389563,-1,4,-1,-5.0,910.9930152299988,None,910.9353564000339,911.2611432000413,911.963911800005,912.2937653000117,912.9615443000221,913.2972707000445,left,1,2.7352963000303134,910.9972672000295,None,913.4954699000227,None,,,,,,,lkbxgs,001,0,fr,2022-04-29_11h34.18.271,3-AFC_adaptive_staircase_mess,2022.1.1,37.59049441413406,
,,,,,6,0,6,0,27,0,27,0,,,,,,,,,,,,,,,,left,8000,-7.5,7.655437308410152e-05,-1,4,-1,-5.0,915.2554509300447,915.4755428000353,915.2283272000495,915.5381374999997,916.198684700008,916.530502300011,917.2065566000529,917.537444000016,up,0,4.19841880002059,915.262267800048,None,917.7676872000447,None,,,,,,,lkbxgs,001,0,fr,2022-04-29_11h34.18.271,3-AFC_adaptive_staircase_mess,2022.1.1,37.59049441413406,
,,,,,6,0,6,0,28,0,28,0,,,,,,,,,,,,,,,,right,8000,-5.0,0.00010208689723347648,1,5,1,2.5,922.9830510300293,None,920.9395259000012,921.2728241000441,921.9350915000541,922.2729956000112,922.9559273000341,923.2779232000466,right,1,2.9048768000211567,921.0032899000216,None,923.5118828000268,None,,,,,,,lkbxgs,001,0,fr,2022-04-29_11h34.18.271,3-AFC_adaptive_staircase_mess,2022.1.1,37.59049441413406,
,,,,,6,0,6,0,29,0,29,0,,,,,,,,,,,,,,,,left,8000,-5.0,0.00010208689723347648,1,5,1,2.5,925.4523997300479,925.6847524000332,925.4252760000527,925.7481006000307,926.4152452000417,926.7439703000127,927.4406659000088,927.7768665000331,left,1,3.234786399989389,925.4578979000216,None,927.9772072000196,None,,,,,,,lkbxgs,001,0,fr,2022-04-29_11h34.18.271,3-AFC_adaptive_staircase_mess,2022.1.1,37.59049441413406,
,,,,,6,0,6,0,30,0,30,0,,,,,,,,,,,,,,,,left,8000,-10.0,5.740768107484415e-05,-1,6,-1,-5.0,930.240294530004,None,930.1837985000457,930.5130400000489,931.2092772000469,931.5148142999969,932.2117475999985,932.5502751000458,up,0,3.7617766999755986,930.243118900049,None,932.7490432000486,None,,,,,,,lkbxgs,001,0,fr,2022-04-29_11h34.18.271,3-AFC_adaptive_staircase_mess,2022.1.1,37.59049441413406,
,,,,,7,0,7,0,0,0,0,0,,,,,,,,,,,,,[],[],10,right,750,30,0.0012851978913844323,0,0,-1,10,959.2998975300055,959.5188952000462,957.2731518000364,957.6080253000255,958.2729197000153,958.6093312000157,959.2727738000103,959.5810839000042,right,1,2.3773205999750644,957.3068979000091,None,None,None,space,21.71861009998247,935.0863812000025,None,935.0863812000025,None,lkbxgs,001,0,fr,2022-04-29_11h34.18.271,3-AFC_adaptive_staircase_mess,2022.1.1,37.59049441413406,
,,,,,7,0,7,0,1,0,1,0,,,,,,,,,,,,,,,,right,750,30,0.0012851978913844323,0,0,-1,10,963.2414782299951,963.4575088000274,961.2073348000413,961.544927800016,962.1860708000022,962.5133295000414,963.179729000025,963.4888893000316,right,1,2.3789471000200137,961.241788000043,None,None,None,,,,,,,lkbxgs,001,0,fr,2022-04-29_11h34.18.271,3-AFC_adaptive_staircase_mess,2022.1.1,37.59049441413406,
,,,,,7,0,7,0,2,0,2,0,,,,,,,,,,,,,,,,right,750,10,0.00012851978913844324,-1,0,-1,-10,967.1780156299995,967.3918347000144,965.1457450000453,965.4825554999989,966.1334785000072,966.4511777000153,967.1168477000319,967.4246878999984,right,1,2.649361200048588,965.1791703000199,None,967.6838771000039,None,,,,,,,lkbxgs,001,0,fr,2022-04-29_11h34.18.271,3-AFC_adaptive_staircase_mess,2022.1.1,37.59049441413406,
,,,,,7,0,7,0,3,0,3,0,,,,,,,,,,,,,,,,left,750,10,0.00012851978913844324,-1,0,-1,-10,969.3826638300146,None,969.3223906000494,969.6531829000451,None,None,None,None,left,1,0.6171883000060916,969.388987900049,None,None,None,,,,,,,lkbxgs,001,0,fr,2022-04-29_11h34.18.271,3-AFC_adaptive_staircase_mess,2022.1.1,37.59049441413406,
,,,,,7,0,7,0,4,0,4,0,,,,,,,,,,,,,,,,right,750,0,4.064152580820497e-05,-1,0,-1,-10,973.5491806300182,973.7665049000061,971.521938400052,971.8558737999992,972.4942157000187,972.824951000046,973.522056900023,973.8281995000434,up,0,3.4754897999810055,971.5550587000325,None,974.0586167000001,None,,,,,,,lkbxgs,001,0,fr,2022-04-29_11h34.18.271,3-AFC_adaptive_staircase_mess,2022.1.1,37.59049441413406,
,,,,,7,0,7,0,5,0,5,0,,,,,,,,,,,,,,,,left,750,5,7.22719885372964e-05,1,1,1,5,976.5488501300046,976.7689591000089,976.5217264000094,976.8318887000205,977.5287578999996,977.8623713999987,978.5015795000363,978.8323528000037,left,1,3.6575810000067577,976.5552140000509,None,979.0673961000284,None,,,,,,,lkbxgs,001,0,fr,2022-04-29_11h34.18.271,3-AFC_adaptive_staircase_mess,2022.1.1,37.59049441413406,
,,,,,7,0,7,0,6,0,6,0,,,,,,,,,,,,,,,,right,750,5,7.22719885372964e-05,1,1,1,5,983.758312330005,983.9764008000493,981.7298965000082,982.0687485000235,982.7301274000201,983.0685861000093,983.7311886000098,984.03880020004,right,1,2.6420168000040576,981.7632062000339,None,984.2688829000108,None,,,,,,,lkbxgs,001,0,fr,2022-04-29_11h34.18.271,3-AFC_adaptive_staircase_mess,2022.1.1,37.59049441413406,
,,,,,7,0,7,0,7,0,7,0,,,,,,,,,,,,,,,,up,750,-5,2.285440948074376e-05,-1,2,-1,-5.0,986.9460955300077,None,985.8952228000271,986.2072872000281,986.8884432000341,987.2120324000134,987.8979801000096,988.2037672000006,up,1,2.768278300005477,985.9241096000187,None,988.4380562000442,None,,,,,,,lkbxgs,001,0,fr,2022-04-29_11h34.18.271,3-AFC_adaptive_staircase_mess,2022.1.1,37.59049441413406,
,,,,,7,0,7,0,8,0,8,0,,,,,,,,,,,,,,,,left,750,-5,2.285440948074376e-05,-1,2,-1,-5.0,990.2346035300346,990.4476188000408,990.1787506000255,990.509143800009,991.1908846000442,991.5122522000456,992.1828082000138,992.5161299000029,left,1,2.980226799962111,990.2402391000069,None,992.7480502000544,None,,,,,,,lkbxgs,001,0,fr,2022-04-29_11h34.18.271,3-AFC_adaptive_staircase_mess,2022.1.1,37.59049441413406,
,,,,,7,0,7,0,9,0,9,0,,,,,,,,,,,,,,,,up,750,-10.0,1.2851978913844322e-05,-1,2,-1,-5.0,995.7382759300002,995.9590140000219,994.6840949000325,995.0133832000429,995.711152200005,996.0214353000047,996.6825382000534,996.999483200023,left,0,3.8630547000211664,994.7495212000213,None,997.2386037000106,None,,,,,,,lkbxgs,001,0,fr,2022-04-29_11h34.18.271,3-AFC_adaptive_staircase_mess,2022.1.1,37.59049441413406,
,,,,,7,0,7,0,10,0,10,0,,,,,,,,,,,,,,,,up,750,-7.5,1.7138389327322525e-05,1,3,1,2.5,1001.1504499299975,None,1000.1226479000179,1000.4536779000191,1001.1233262000023,1001.4585226000054,1002.0932717000251,1002.4223241000436,up,1,3.927844299993012,1000.1569341000286,None,1002.6622151000192,None,,,,,,,lkbxgs,001,0,fr,2022-04-29_11h34.18.271,3-AFC_adaptive_staircase_mess,2022.1.1,37.59049441413406,
,,,,,7,0,7,0,11,0,11,0,,,,,,,,,,,,,,,,left,750,-7.5,1.7138389327322525e-05,1,3,1,2.5,1005.6134879300429,1005.8331509000272,1005.5863642000477,1005.8976926000323,1006.6006246000179,1006.9311417000135,1007.5776987000136,1007.8815803000471,right,0,4.353696700010914,1005.6191710000276,None,1008.1247279000236,None,,,,,,,lkbxgs,001,0,fr,2022-04-29_11h34.18.271,3-AFC_adaptive_staircase_mess,2022.1.1,37.59049441413406,
,,,,,7,0,7,0,12,0,12,0,,,,,,,,,,,,,,,,up,750,-5.0,2.285440948074376e-05,1,3,1,2.5,1012.5322426300321,None,1011.4668001000537,1011.8044884999981,1012.468817200046,1012.7995341000496,1013.4852107000188,1013.7993093000259,left,0,3.6834605999756604,1011.537692700047,None,1014.0399252000498,None,,,,,,,lkbxgs,001,0,fr,2022-04-29_11h34.18.271,3-AFC_adaptive_staircase_mess,2022.1.1,37.59049441413406,
,,,,,7,0,7,0,13,0,13,0,,,,,,,,,,,,,,,,left,750,-2.5,3.0476844862008466e-05,1,3,1,2.5,1016.7478993299941,None,1016.7207755999989,1017.0368904000497,1017.7312324000522,1018.0662650000304,1018.7168129000347,1019.0338711000513,up,0,3.6716651000315323,1016.7491530000116,None,1019.2710113000358,None,,,,,,,lkbxgs,001,0,fr,2022-04-29_11h34.18.271,3-AFC_adaptive_staircase_mess,2022.1.1,37.59049441413406,
,,,,,7,0,7,0,14,0,14,0,,,,,,,,,,,,,,,,right,750,0.0,4.064152580820497e-05,1,3,1,2.5,1023.960384130018,1024.1813509000349,1021.90307390003,1022.2348984000273,1022.9072152000153,1023.2341305000009,1023.9036165000289,1024.2134923000121,right,1,3.462647000036668,1021.9657812000369,None,1024.4501900000032,None,,,,,,,lkbxgs,001,0,fr,2022-04-29_11h34.18.271,3-AFC_adaptive_staircase_mess,2022.1.1,37.59049441413406,
,,,,,7,0,7,0,15,0,15,0,,,,,,,,,,,,,,,,right,750,0.0,4.064152580820497e-05,1,3,1,2.5,1028.9594419300033,1029.1725694000488,1026.9174744000193,1027.2216474000015,1027.9332194000017,1028.255315300019,1028.932318200008,1029.257154400053,left,0,4.452605600003153,1026.9763190000085,None,1029.4660263000405,None,,,,,,,lkbxgs,001,0,fr,2022-04-29_11h34.18.271,3-AFC_adaptive_staircase_mess,2022.1.1,37.59049441413406,
,,,,,7,0,7,0,16,0,16,0,,,,,,,,,,,,,,,,left,750,2.5,5.419634570106019e-05,1,3,1,2.5,1032.9734118300316,None,1032.9462881000363,1033.2539214999997,1033.9455330000492,1034.2718345000176,1034.9474780000164,1035.2812237000326,up,0,3.347144900006242,1032.9773867000476,None,1035.4832650000462,None,,,,,,,lkbxgs,001,0,fr,2022-04-29_11h34.18.271,3-AFC_adaptive_staircase_mess,2022.1.1,37.59049441413406,
,,,,,7,0,7,0,17,0,17,0,,,,,,,,,,,,,,,,left,750,5.0,7.22719885372964e-05,1,3,1,2.5,1037.8410250300135,1038.0634976000292,1037.7851019000518,1038.0939143000287,1038.7933828000096,1039.1214387000073,1039.7839766000398,1040.0907103000209,left,1,3.8439447000273503,1037.8405336000142,None,1040.3380245000008,None,,,,,,,lkbxgs,001,0,fr,2022-04-29_11h34.18.271,3-AFC_adaptive_staircase_mess,2022.1.1,37.59049441413406,
,,,,,7,0,7,0,18,0,18,0,,,,,,,,,,,,,,,,right,750,5.0,7.22719885372964e-05,1,3,1,2.5,1045.191929130006,None,1043.1550131000113,1043.4872984000249,1044.1442125000176,1044.4550665999996,1045.1648054000107,1045.4698880000506,right,1,2.600536399986595,1043.2125068000169,None,1045.7125757000176,None,,,,,,,lkbxgs,001,0,fr,2022-04-29_11h34.18.271,3-AFC_adaptive_staircase_mess,2022.1.1,37.59049441413406,
,,,,,7,0,7,0,19,0,19,0,,,,,,,,,,,,,,,,right,750,0.0,4.064152580820497e-05,-1,4,-1,-5.0,1049.3524431299943,1049.573622099997,1047.3029954000376,1047.6150321000023,1048.3157112000044,1048.6266710000345,1049.2964876000187,1049.605971800047,right,1,3.217942400020547,1047.3623901000246,None,1049.8693020000355,None,,,,,,,lkbxgs,001,0,fr,2022-04-29_11h34.18.271,3-AFC_adaptive_staircase_mess,2022.1.1,37.59049441413406,
,,,,,7,0,7,0,20,0,20,0,,,,,,,,,,,,,,,,right,750,0.0,4.064152580820497e-05,-1,4,-1,-5.0,1054.1078944300011,None,1052.0469413000392,1052.37632140005,1053.049904000014,1053.3634685000288,1054.0512682000408,1054.3581564000342,up,0,3.341115200018976,1052.1039613000466,None,1054.600040600053,None,,,,,,,lkbxgs,001,0,fr,2022-04-29_11h34.18.271,3-AFC_adaptive_staircase_mess,2022.1.1,37.59049441413406,
,,,,,7,0,7,0,21,0,21,0,,,,,,,,,,,,,,,,right,750,2.5,5.419634570106019e-05,1,5,1,2.5,1058.9926303300367,1059.2183838000055,1056.9538468000246,1057.2845400000224,1057.9378587000538,1058.2657732000225,1058.9357018000446,1059.2474421000225,right,1,2.8812428999808617,1057.0114120000508,None,1059.4879641000298,None,,,,,,,lkbxgs,001,0,fr,2022-04-29_11h34.18.271,3-AFC_adaptive_staircase_mess,2022.1.1,37.59049441413406,
,,,,,7,0,7,0,22,0,22,0,,,,,,,,,,,,,,,,right,750,2.5,5.419634570106019e-05,1,5,1,2.5,1063.443380229996,1063.669609500037,1061.4052720000036,1061.7339578000247,1062.3976237000315,1062.7056058000308,1063.4162565000006,1063.7248212000122,right,1,2.6682367000030354,1061.4643932000035,None,1063.9616205000202,None,,,,,,,lkbxgs,001,0,fr,2022-04-29_11h34.18.271,3-AFC_adaptive_staircase_mess,2022.1.1,37.59049441413406,
,,,,,7,0,7,0,23,0,23,0,,,,,,,,,,,,,,,,up,750,-2.5,3.0476844862008466e-05,-1,6,-1,-5.0,1066.6763842300338,1066.8921081000008,1065.6302962000482,1065.9531713000033,1066.6181210000068,1066.9210343000013,1067.6173632999999,1067.9448460999993,left,0,3.6090796999633312,1065.6600774000399,None,1068.1732330000377,None,,,,,,,lkbxgs,001,0,fr,2022-04-29_11h34.18.271,3-AFC_adaptive_staircase_mess,2022.1.1,37.59049441413406,
,,,,,8,0,8,0,0,0,0,0,,,,,,,,,,,,,[],[],10,up,500,30,0.002259279721874612,0,0,-1,10,1075.6561778300152,1075.876349200029,1074.5942245000042,1074.9118943000212,1075.5994886000408,1075.9054208000307,None,None,up,1,1.5758502999669872,1074.6530146000441,None,None,None,space,3.7972821000148542,1070.3515877000173,None,1070.3515877000173,None,lkbxgs,001,0,fr,2022-04-29_11h34.18.271,3-AFC_adaptive_staircase_mess,2022.1.1,37.59049441413406,
,,,,,8,0,8,0,1,0,1,0,,,,,,,,,,,,,,,,left,500,30,0.002259279721874612,0,0,-1,10,1077.770067030046,1077.998253000027,1077.7132286000415,1078.031654600054,None,None,None,None,left,1,0.5839644999941811,1077.7722808000399,None,None,None,,,,,,,lkbxgs,001,0,fr,2022-04-29_11h34.18.271,3-AFC_adaptive_staircase_mess,2022.1.1,37.59049441413406,
,,,,,8,0,8,0,2,0,2,0,,,,,,,,,,,,,,,,right,500,10,0.0002259279721874612,-1,0,-1,-10,1081.9044862299984,1082.122956700041,1079.8759552999982,1080.2000855000224,1080.8683305000304,1081.191115499998,1081.877362500003,1082.1785198000143,right,1,2.4537148000090383,1079.903703900054,None,1082.4084756300495,None,,,,,,,lkbxgs,001,0,fr,2022-04-29_11h34.18.271,3-AFC_adaptive_staircase_mess,2022.1.1,37.59049441413406,
,,,,,8,0,8,0,3,0,3,0,,,,,,,,,,,,,,,,up,500,10,0.0002259279721874612,-1,0,-1,-10,1084.8984051300272,None,1083.8791689000209,1084.1813201000332,1084.8712814000319,1085.177570800006,None,None,up,1,1.6154421999817714,1083.910925400036,None,None,None,,,,,,,lkbxgs,001,0,fr,2022-04-29_11h34.18.271,3-AFC_adaptive_staircase_mess,2022.1.1,37.59049441413406,
,,,,,8,0,8,0,4,0,4,0,,,,,,,,,,,,,,,,left,500,0,7.144469792555515e-05,-1,0,-1,-10,1087.0614254300076,1087.281537300034,1087.0343017000123,1087.3428807000164,1088.0212956000469,1088.3495530000073,1089.0195868000155,1089.3556337000336,up,0,3.230799999961164,1087.0618832000182,None,1089.5836097000283,None,,,,,,,lkbxgs,001,0,fr,2022-04-29_11h34.18.271,3-AFC_adaptive_staircase_mess,2022.1.1,37.59049441413406,
,,,,,8,0,8,0,5,0,5,0,,,,,,,,,,,,,,,,left,500,5,0.00012704863527746526,1,1,1,5,1091.8121660300008,1092.0392422000295,1091.7561547000078,1092.0694188000052,None,None,None,None,left,1,0.6118061000015587,1091.8101372000528,None,None,None,,,,,,,lkbxgs,001,0,fr,2022-04-29_11h34.18.271,3-AFC_adaptive_staircase_mess,2022.1.1,37.59049441413406,
,,,,,8,0,8,0,6,0,6,0,,,,,,,,,,,,,,,,left,500,5,0.00012704863527746526,1,1,1,5,1093.9652034300439,None,1093.9086757000186,1094.2193601000472,None,None,None,None,left,1,0.5974970000097528,1093.9666229000431,None,None,None,,,,,,,lkbxgs,001,0,fr,2022-04-29_11h34.18.271,3-AFC_adaptive_staircase_mess,2022.1.1,37.59049441413406,
,,,,,8,0,8,0,7,0,7,0,,,,,,,,,,,,,,,,right,500,-5,4.017630610928089e-05,-1,2,-1,-5.0,1098.076883230015,None,1096.0589551000157,1096.3884112000233,1097.028361100005,1097.3550711999997,1098.0497595000197,1098.3621867000475,up,0,3.0811769000138156,1096.0913629000424,None,1098.5974808000028,None,,,,,,,lkbxgs,001,0,fr,2022-04-29_11h34.18.271,3-AFC_adaptive_staircase_mess,2022.1.1,37.59049441413406,
,,,,,8,0,8,0,8,0,8,0,,,,,,,,,,,,,,,,left,500,-2.5,5.357596526188033e-05,1,3,1,2.5,1100.703247730044,1100.9254424000392,1100.6482447000453,1100.9548709000228,1101.6519944000174,1101.9746110000415,1102.676908000023,1102.9946362000192,left,1,3.043815499986522,1100.7040947000496,None,1103.2084889000398,None,,,,,,,lkbxgs,001,0,fr,2022-04-29_11h34.18.271,3-AFC_adaptive_staircase_mess,2022.1.1,37.59049441413406,
,,,,,8,0,8,0,9,0,9,0,,,,,,,,,,,,,,,,right,500,-2.5,5.357596526188033e-05,1,3,1,2.5,1107.2911207299971,1107.520098500012,1105.2291722000227,1105.5379701000056,1106.2484220000333,1106.5670722000068,1107.2448710000026,1107.5508552000392,right,1,2.6573152000200935,1105.29987050005,None,1107.7992940000258,None,,,,,,,lkbxgs,001,0,fr,2022-04-29_11h34.18.271,3-AFC_adaptive_staircase_mess,2022.1.1,37.59049441413406,
,,,,,8,0,8,0,10,0,10,0,,,,,,,,,,,,,,,,left,500,-7.5,3.0127979303717903e-05,-1,4,-1,-5.0,1109.5009112299945,1109.7252534000436,1109.4458389000501,1109.7538471000153,1110.4344345999998,1110.771135600051,1111.441444600001,1111.7685701000155,up,0,2.8699646999593824,1109.5022445000359,None,1111.9979466000223,None,,,,,,,lkbxgs,001,0,fr,2022-04-29_11h34.18.271,3-AFC_adaptive_staircase_mess,2022.1.1,37.59049441413406,
,,,,,8,0,8,0,11,0,11,0,,,,,,,,,,,,,,,,up,500,-5.0,4.017630610928089e-05,1,5,1,2.5,1114.9390334300174,1115.1649921000353,1113.9019356000354,1114.2212065000203,1114.911909700022,1115.226814900001,1115.899344400037,1116.2085535000078,left,0,3.320412800007034,1113.9321742000175,None,1116.447733100038,None,,,,,,,lkbxgs,001,0,fr,2022-04-29_11h34.18.271,3-AFC_adaptive_staircase_mess,2022.1.1,37.59049441413406,
,,,,,8,0,8,0,12,0,12,0,,,,,,,,,,,,,,,,right,500,-2.5,5.357596526188033e-05,1,5,1,2.5,1120.8052608300409,None,1118.7486779000028,1119.04735550005,1119.767355900025,1120.0782449000399,1120.7480700000306,1121.062235600024,right,1,2.874480600003153,1118.8099798000185,None,1121.32367360004,None,,,,,,,lkbxgs,001,0,fr,2022-04-29_11h34.18.271,3-AFC_adaptive_staircase_mess,2022.1.1,37.59049441413406,
,,,,,8,0,8,0,13,0,13,0,,,,,,,,,,,,,,,,up,500,-2.5,5.357596526188033e-05,1,5,1,2.5,1124.2600112300192,None,1123.1895138000255,1123.4998768000514,1124.1988531000097,1124.5168546000496,None,None,up,1,1.6666102999588475,1123.2511995000532,None,None,None,,,,,,,lkbxgs,001,0,fr,2022-04-29_11h34.18.271,3-AFC_adaptive_staircase_mess,2022.1.1,37.59049441413406,
,,,,,8,0,8,0,14,0,14,0,,,,,,,,,,,,,,,,right,500,-7.5,3.0127979303717903e-05,-1,6,-1,-5.0,1128.476286930038,1128.6836813000264,1126.4152222000412,1126.7195750000537,1127.4222710000467,1127.7361131000216,1128.4205923000118,1128.7390675000497,right,1,2.7324728000094183,1126.4723932000343,None,1128.9688324000454,None,,,,,,,lkbxgs,001,0,fr,2022-04-29_11h34.18.271,3-AFC_adaptive_staircase_mess,2022.1.1,37.59049441413406,
,,,,,9,0,9,0,0,0,0,0,,,,,,,,,,,,,[],[],10,up,250,30,0.005296268625886445,0,0,-1,10,1133.549777630024,None,1132.4966003000154,1132.7925913000363,1133.5226539000287,1133.8430262000184,None,None,up,1,1.4792893000412732,1132.5573880000156,None,None,None,space,1.790529099991545,1130.2617641999968,None,1130.2617641999968,None,lkbxgs,001,0,fr,2022-04-29_11h34.18.271,3-AFC_adaptive_staircase_mess,2022.1.1,37.59049441413406,
,,,,,9,0,9,0,1,0,1,0,,,,,,,,,,,,,,,,left,250,30,0.005296268625886445,0,0,-1,10,1135.55690163002,1135.768876600021,1135.5297779000248,1135.8561482000514,None,None,None,None,left,1,0.5576471000094898,1135.5604960000492,None,None,None,,,,,,,lkbxgs,001,0,fr,2022-04-29_11h34.18.271,3-AFC_adaptive_staircase_mess,2022.1.1,37.59049441413406,
,,,,,9,0,9,0,2,0,2,0,,,,,,,,,,,,,,,,left,250,10,0.0005296268625886444,-1,0,-1,-10,1137.6642850300473,None,1137.637161300052,1137.9551190000493,None,None,None,None,left,1,0.5472436999552883,1137.665090000024,None,None,None,,,,,,,lkbxgs,001,0,fr,2022-04-29_11h34.18.271,3-AFC_adaptive_staircase_mess,2022.1.1,37.59049441413406,
,,,,,9,0,9,0,3,0,3,0,,,,,,,,,,,,,,,,left,250,10,0.0005296268625886444,-1,0,-1,-10,1139.7170529300406,1139.9356508000055,1139.6899292000453,1139.9890032000258,None,None,None,None,left,1,0.49389199999859557,1139.7186950000469,None,None,None,,,,,,,lkbxgs,001,0,fr,2022-04-29_11h34.18.271,3-AFC_adaptive_staircase_mess,2022.1.1,37.59049441413406,
,,,,,9,0,9,0,4,0,4,0,,,,,,,,,,,,,,,,up,250,0,0.0001674827195789138,-1,0,-1,-10,None,None,1141.6696884999983,1141.9893381000147,None,None,None,None,left,0,0.53387639997527,1141.726442300016,None,None,None,,,,,,,lkbxgs,001,0,fr,2022-04-29_11h34.18.271,3-AFC_adaptive_staircase_mess,2022.1.1,37.59049441413406,
,,,,,9,0,9,0,5,0,5,0,,,,,,,,,,,,,,,,up,250,5,0.0002978310717645052,1,1,1,5,1144.7849570300373,None,1143.7457666000118,1144.0534378000302,1144.728327000048,1145.0400064000278,1145.753748600022,1146.0623162999982,up,1,3.546459799981676,1143.8024930000538,None,1146.2997709000483,None,,,,,,,lkbxgs,001,0,fr,2022-04-29_11h34.18.271,3-AFC_adaptive_staircase_mess,2022.1.1,37.59049441413406,
,,,,,9,0,9,0,6,0,6,0,,,,,,,,,,,,,,,,right,250,5,0.0002978310717645052,1,1,1,5,1150.8953274300497,None,1148.852701900003,1149.1771100000478,1149.8362189000472,1150.1607999000116,1150.8388833000208,1151.1520295000519,right,1,2.5013684000005014,1148.8806122000096,None,1151.414582330041,None,,,,,,,lkbxgs,001,0,fr,2022-04-29_11h34.18.271,3-AFC_adaptive_staircase_mess,2022.1.1,37.59049441413406,
,,,,,9,0,9,0,7,0,7,0,,,,,,,,,,,,,,,,left,250,-5,9.418245447449e-05,-1,2,-1,-5.0,1152.9123811300437,None,1152.8578182000201,1153.1804683000082,1153.8613497000188,1154.190681100008,1154.882733800041,1155.1972359000356,up,0,3.1378894000081345,1152.914785800036,None,1155.43123560003,None,,,,,,,lkbxgs,001,0,fr,2022-04-29_11h34.18.271,3-AFC_adaptive_staircase_mess,2022.1.1,37.59049441413406,
,,,,,9,0,9,0,8,0,8,0,,,,,,,,,,,,,,,,up,250,-2.5,0.00012559432157547898,1,3,1,2.5,1158.612932430004,None,1157.551806100004,1157.8711575000198,1158.5858087000088,1158.8863238000195,1159.5685521000414,1159.8735143000376,right,0,2.649409800011199,1157.6107241000282,None,1160.1239591000485,None,,,,,,,lkbxgs,001,0,fr,2022-04-29_11h34.18.271,3-AFC_adaptive_staircase_mess,2022.1.1,37.59049441413406,
,,,,,9,0,9,0,9,0,9,0,,,,,,,,,,,,,,,,up,250,0.0,0.0001674827195789138,1,3,1,2.5,1162.7938355300053,1163.0211195000447,1161.722574000014,1162.0439747000346,1162.736983300012,1163.0512804000173,None,None,up,1,1.5820406000129879,1161.782149900042,None,None,None,,,,,,,lkbxgs,001,0,fr,2022-04-29_11h34.18.271,3-AFC_adaptive_staircase_mess,2022.1.1,37.59049441413406,
,,,,,9,0,9,0,10,0,10,0,,,,,,,,,,,,,,,,up,250,0.0,0.0001674827195789138,1,3,1,2.5,1165.9014082300187,1166.117751300044,1164.8499331000494,1165.1761319000507,1165.8466436000308,1166.1760719000013,1166.8452668000245,1167.1776973000378,up,1,2.425430500006769,1164.907395300048,None,1167.385386030021,None,,,,,,,lkbxgs,001,0,fr,2022-04-29_11h34.18.271,3-AFC_adaptive_staircase_mess,2022.1.1,37.59049441413406,
,,,,,9,0,9,0,11,0,11,0,,,,,,,,,,,,,,,,left,250,-5.0,9.418245447449e-05,-1,4,-1,-5.0,1168.8978778300284,1169.1126002000528,1168.8294204000267,1169.1371490000165,1169.830011400045,1170.1536201999988,1170.836418400053,1171.1510000000126,right,0,3.0274518999503925,1168.8974844000186,None,1171.3824204000412,None,,,,,,,lkbxgs,001,0,fr,2022-04-29_11h34.18.271,3-AFC_adaptive_staircase_mess,2022.1.1,37.59049441413406,
,,,,,9,0,9,0,12,0,12,0,,,,,,,,,,,,,,,,up,250,-2.5,0.00012559432157547898,1,5,1,2.5,1174.4882857300167,1174.7033087000018,1173.4437451999984,1173.7626585000544,1174.432197200018,1174.7576175000286,1175.4362068000482,1175.7401648000232,left,0,2.7301049000234343,1173.5004478000337,None,1175.9941448000027,None,,,,,,,lkbxgs,001,0,fr,2022-04-29_11h34.18.271,3-AFC_adaptive_staircase_mess,2022.1.1,37.59049441413406,
,,,,,9,0,9,0,13,0,13,0,,,,,,,,,,,,,,,,up,250,0.0,0.0001674827195789138,1,5,1,2.5,1178.77446043003,1178.9917642000364,1177.7041394000407,1178.0091026000446,1178.704469600052,1179.020114200015,1179.7219244000153,1180.0354792000144,up,1,3.20683260000078,1177.7743533000466,None,1180.2691902000224,None,,,,,,,lkbxgs,001,0,fr,2022-04-29_11h34.18.271,3-AFC_adaptive_staircase_mess,2022.1.1,37.59049441413406,
,,,,,9,0,9,0,14,0,14,0,,,,,,,,,,,,,,,,up,250,0.0,0.0001674827195789138,1,5,1,2.5,1183.5145621300385,None,1182.47260930005,1182.7975943000056,1183.457504500053,1183.77603550005,1184.4578860000474,1184.7725808999967,left,0,2.961970600008499,1182.530632000009,None,1185.0282109000254,None,,,,,,,lkbxgs,001,0,fr,2022-04-29_11h34.18.271,3-AFC_adaptive_staircase_mess,2022.1.1,37.59049441413406,
,,,,,9,0,9,0,15,0,15,0,,,,,,,,,,,,,,,,up,250,2.5,0.0002233417960754815,1,5,1,2.5,1188.0201763300051,1188.2319196000462,1186.9628369000275,1187.2825857000425,1187.9644704000093,1188.2871694000205,1188.9640889000148,1189.2840210000286,up,1,2.9639680000254884,1187.0244204000337,None,1189.5174178000307,None,,,,,,,lkbxgs,001,0,fr,2022-04-29_11h34.18.271,3-AFC_adaptive_staircase_mess,2022.1.1,37.59049441413406,
,,,,,9,0,9,0,16,0,16,0,,,,,,,,,,,,,,,,left,250,2.5,0.0002233417960754815,1,5,1,2.5,1191.533108630049,1191.7513170000166,1191.4773656000034,1191.7783198000398,1192.4780441000476,1192.8017417000374,1193.4794276000466,1193.802648300014,left,1,2.661614099983126,1191.5346472000238,None,1194.0373672000133,None,,,,,,,lkbxgs,001,0,fr,2022-04-29_11h34.18.271,3-AFC_adaptive_staircase_mess,2022.1.1,37.59049441413406,
,,,,,9,0,9,0,17,0,17,0,,,,,,,,,,,,,,,,right,250,-2.5,0.00012559432157547898,-1,6,-1,-5.0,1197.732235530048,1197.9525574000436,1195.691395300033,1196.0149816000485,1196.686801200034,1197.0171215000446,1197.6744666000013,1197.9844281999976,right,1,2.749237500014715,1195.719270200003,None,1198.2466854000231,None,,,,,,,lkbxgs,001,0,fr,2022-04-29_11h34.18.271,3-AFC_adaptive_staircase_mess,2022.1.1,37.59049441413406,
,,,,,10,0,10,0,0,0,0,0,,,,,,,,,,,,,[],[],10,left,125,30,0.02285440948074376,0,0,-1,10,1201.458637230046,1201.6709037999972,1201.3995507000363,1201.7256678999984,1202.3891950000543,None,None,None,left,1,0.9947444000281394,1201.4580684000393,None,None,None,space,1.3886310000088997,1199.5439510000288,None,1199.5439510000288,None,lkbxgs,001,0,fr,2022-04-29_11h34.18.271,3-AFC_adaptive_staircase_mess,2022.1.1,37.59049441413406,
,,,,,10,0,10,0,1,0,1,0,,,,,,,,,,,,,,,,up,125,30,0.02285440948074376,0,0,-1,10,1204.9951617300453,1205.2134403000236,1203.9517140000244,1204.264904700045,1204.9408994000405,1205.2401033000206,None,None,up,1,1.4801021000021137,1203.980237700045,None,None,None,,,,,,,lkbxgs,001,0,fr,2022-04-29_11h34.18.271,3-AFC_adaptive_staircase_mess,2022.1.1,37.59049441413406,
,,,,,10,0,10,0,2,0,2,0,,,,,,,,,,,,,,,,left,125,10,0.002285440948074376,-1,0,-1,-10,1206.9771061300476,1207.1928263000445,1206.9499824000522,1207.2515924000181,None,None,None,None,left,1,0.6245970000163652,1206.9815300000482,None,None,None,,,,,,,lkbxgs,001,0,fr,2022-04-29_11h34.18.271,3-AFC_adaptive_staircase_mess,2022.1.1,37.59049441413406,
,,,,,10,0,10,0,3,0,3,0,,,,,,,,,,,,,,,,left,125,10,0.002285440948074376,-1,0,-1,-10,1209.184152730048,1209.4066671000328,1209.1289087000187,1209.434231900028,None,None,None,None,left,1,0.5945953000336885,1209.1860827000346,None,None,None,,,,,,,lkbxgs,001,0,fr,2022-04-29_11h34.18.271,3-AFC_adaptive_staircase_mess,2022.1.1,37.59049441413406,
,,,,,10,0,10,0,4,0,4,0,,,,,,,,,,,,,,,,left,125,0,0.000722719885372964,-1,0,-1,-10,1211.3019805300341,1211.5208083000034,1211.2463512000395,1211.5480597999995,1212.2766805000138,1212.599272500025,1213.244865500019,1213.5504200000432,up,0,3.0524264999548905,1211.3041394000174,None,1213.7936230000341,None,,,,,,,lkbxgs,001,0,fr,2022-04-29_11h34.18.271,3-AFC_adaptive_staircase_mess,2022.1.1,37.59049441413406,
,,,,,10,0,10,0,5,0,5,0,,,,,,,,,,,,,,,,up,125,5,0.0012851978913844323,1,1,1,5,1216.9115381300276,1217.129839900008,1215.8465487000067,1216.1592655000277,1216.8441188000143,1217.1556242000079,1217.8560685000266,1218.1844401000417,up,1,2.3956513999728486,1215.9125039000064,None,None,None,,,,,,,lkbxgs,001,0,fr,2022-04-29_11h34.18.271,3-AFC_adaptive_staircase_mess,2022.1.1,37.59049441413406,
,,,,,10,0,10,0,6,0,6,0,,,,,,,,,,,,,,,,left,125,5,0.0012851978913844323,1,1,1,5,1219.8548474300246,1220.0757091999985,1219.7964683000464,1220.108752900036,1220.814921900048,1221.1341243000352,1221.8298440000508,1222.1535249000299,left,1,3.202477299957536,1219.8580306000076,None,1222.3702301000012,None,,,,,,,lkbxgs,001,0,fr,2022-04-29_11h34.18.271,3-AFC_adaptive_staircase_mess,2022.1.1,37.59049441413406,
,,,,,10,0,10,0,7,0,7,0,,,,,,,,,,,,,,,,left,125,-5,0.00040641525808204974,-1,2,-1,-5.0,1224.5790138299985,None,1224.5223703000229,1224.829643700039,1225.5360330000403,1225.8612864000024,1226.5212880000472,1226.8522354000015,up,0,3.0077142999507487,1224.5812917000148,None,1227.087083200051,None,,,,,,,lkbxgs,001,0,fr,2022-04-29_11h34.18.271,3-AFC_adaptive_staircase_mess,2022.1.1,37.59049441413406,
,,,,,10,0,10,0,8,0,8,0,,,,,,,,,,,,,,,,left,125,-2.5,0.000541963457010602,1,3,1,2.5,1229.14417053003,None,1229.0863207000075,1229.4090951000107,1230.0955342000234,1230.4198174000485,1231.1008651000448,1231.407837100036,right,0,3.883348700008355,1229.14505000005,None,1231.644767000049,None,,,,,,,lkbxgs,001,0,fr,2022-04-29_11h34.18.271,3-AFC_adaptive_staircase_mess,2022.1.1,37.59049441413406,
,,,,,10,0,10,0,9,0,9,0,,,,,,,,,,,,,,,,left,125,0.0,0.000722719885372964,1,3,1,2.5,1234.5547036300472,None,1234.498243900016,1234.8191463000257,1235.5147255000193,1235.8230378000299,1236.5109979000408,1236.8360579000437,left,1,2.9038895000121556,1234.556697699998,None,1237.052144300018,None,,,,,,,lkbxgs,001,0,fr,2022-04-29_11h34.18.271,3-AFC_adaptive_staircase_mess,2022.1.1,37.59049441413406,
,,,,,10,0,10,0,10,0,10,0,,,,,,,,,,,,,,,,left,125,0.0,0.000722719885372964,1,3,1,2.5,1239.0136829300377,1239.2310341999982,1238.9548536000075,1239.262136400037,1239.9498147999984,1240.2739415999968,1240.9573336000321,1241.2784567000344,up,0,3.081767400028184,1239.019070600043,None,1241.507839100028,None,,,,,,,lkbxgs,001,0,fr,2022-04-29_11h34.18.271,3-AFC_adaptive_staircase_mess,2022.1.1,37.59049441413406,
,,,,,10,0,10,0,11,0,11,0,,,,,,,,,,,,,,,,left,125,2.5,0.0009637624565954683,1,3,1,2.5,1243.6399172300066,1243.8675499000237,1243.6127935000113,1243.9285401000525,1244.5892636000062,1244.8916785000474,1245.5863097000401,1245.8904534000321,left,1,3.08267109998269,1243.6420116000227,None,1246.159571700031,None,,,,,,,lkbxgs,001,0,fr,2022-04-29_11h34.18.271,3-AFC_adaptive_staircase_mess,2022.1.1,37.59049441413406,
,,,,,10,0,10,0,12,0,12,0,,,,,,,,,,,,,,,,up,125,2.5,0.0009637624565954683,1,3,1,2.5,1249.2367669300352,1249.4503452000208,1248.1958847000496,1248.5138443000033,1249.2096432000399,1249.5360243000323,1250.1923836000497,1250.5123802000307,up,1,2.4628446999704465,1248.2620803000173,None,1250.7499886000296,None,,,,,,,lkbxgs,001,0,fr,2022-04-29_11h34.18.271,3-AFC_adaptive_staircase_mess,2022.1.1,37.59049441413406,
,,,,,10,0,10,0,13,0,13,0,,,,,,,,,,,,,,,,up,125,-2.5,0.000541963457010602,-1,4,-1,-5.0,1253.2960699300224,1253.511978100054,1252.237486500002,1252.5626710000215,1253.235707600019,1253.543426600052,1254.2603423999972,1254.5950294000213,left,0,3.112748500017915,1252.299141400028,None,1254.8017756000045,None,,,,,,,lkbxgs,001,0,fr,2022-04-29_11h34.18.271,3-AFC_adaptive_staircase_mess,2022.1.1,37.59049441413406,
,,,,,10,0,10,0,14,0,14,0,,,,,,,,,,,,,,,,up,125,0.0,0.000722719885372964,1,5,1,2.5,1257.9517993300165,None,1256.9201010999968,1257.243641900015,1257.9246756000211,1258.2429533000104,1258.92600950005,1259.2436161000514,right,0,3.8874260999727994,1256.9491246000398,None,1259.4614723999985,None,,,,,,,lkbxgs,001,0,fr,2022-04-29_11h34.18.271,3-AFC_adaptive_staircase_mess,2022.1.1,37.59049441413406,
,,,,,10,0,10,0,15,0,15,0,,,,,,,,,,,,,,,,left,125,2.5,0.0009637624565954683,1,5,1,2.5,1262.367173829995,1262.590515500051,1262.3089159000083,1262.618571900006,1263.3052366000484,1263.6372117000283,1264.3200957000372,1264.624366700009,up,0,3.1040536999935284,1262.3723422000185,None,1264.8604209000478,None,,,,,,,lkbxgs,001,0,fr,2022-04-29_11h34.18.271,3-AFC_adaptive_staircase_mess,2022.1.1,37.59049441413406,
