frequencies,training_trials.thisRepN,training_trials.thisTrialN,training_trials.thisN,training_trials.thisIndex,frequencies.thisRepN,frequencies.thisTrialN,frequencies.thisN,frequencies.thisIndex,trials.thisRepN,trials.thisTrialN,trials.thisN,trials.thisIndex,tFrequency,tLevel,tCorrect,Tprobe.started,Tprobe.stopped,tTriangle_cue.started,tTriangle_cue.stopped,Tfeedback.keys,Tfeedback.corr,Tfeedback.rt,Tfeedback.started,Tfeedback.stopped,reversals_nTrials.routineEndVal,track_dir.routineEndVal,step_up.routineEndVal,Correct,Frequency,Level,Psychopy_Level,Direction,Reversals,Track_dir,Step,probe.started,probe.stopped,cross_cue.started,cross_cue.stopped,circle_cue.started,circle_cue.stopped,triangle_cue.started,triangle_cue.stopped,feedback.keys,feedback.corr,feedback.rt,feedback.started,feedback.stopped,memo.started,memo.stopped,key_resp.keys,key_resp.rt,key_resp.started,key_resp.stopped,text.started,text.stopped,participant,session,skip_training,language (english or french),date,expName,psychopyVersion,frameRate,
200,0,0,0,0,,,,,,,,,200,30,right,49.50702876673701,None,49.49036210007034,49.82983390009031,right,1,2.9084295000648126,47.01429439999629,None,,,,,,,,,,,,,,,,,,,,,,,,,,,,,,,,,cbtxie,001,0,fr,2022-05-05_16h06.46.354,3-AFC_adaptive_staircase_mess,2022.1.1,35.214144248919624,
850,0,1,1,2,,,,,,,,,850,30,right,55.18334326666469,None,55.16667659999803,55.5024773000041,right,1,2.7950501000741497,52.71226790000219,None,,,,,,,,,,,,,,,,,,,,,,,,,,,,,,,,,cbtxie,001,0,fr,2022-05-05_16h06.46.354,3-AFC_adaptive_staircase_mess,2022.1.1,35.214144248919624,
450,0,2,2,1,,,,,,,,,450,30,left,57.795157166725645,None,None,None,left,1,1.0119701999938115,57.327069199993275,None,,,,,,,,,,,,,,,,,,,,,,,,,,,,,,,,,cbtxie,001,0,fr,2022-05-05_16h06.46.354,3-AFC_adaptive_staircase_mess,2022.1.1,35.214144248919624,
1300,0,3,3,3,,,,,,,,,1300,30,right,62.58827346674322,None,62.57160680007655,62.884149600053206,right,1,2.7944345000432804,60.136199700064026,None,,,,,,,,,,,,,,,,,,,,,,,,,,,,,,,,,cbtxie,001,0,fr,2022-05-05_16h06.46.354,3-AFC_adaptive_staircase_mess,2022.1.1,35.214144248919624,
5000,0,4,4,4,,,,,,,,,5000,30,up,66.0090755667227,None,None,None,up,1,1.7984335999935865,64.54132940003183,None,,,,,,,,,,,,,,,,,,,,,,,,,,,,,,,,,cbtxie,001,0,fr,2022-05-05_16h06.46.354,3-AFC_adaptive_staircase_mess,2022.1.1,35.214144248919624,
,,,,,0,0,0,0,0,0,0,0,,,,,,,,,,,,,[],[],10,left,1000,30,0.0013930605843148849,0,0,-1,10,76.97342916665754,None,76.95676249999087,77.2870090000797,None,None,None,None,left,1,0.39267289999406785,76.98642309999559,None,None,None,,,,,,,cbtxie,001,0,fr,2022-05-05_16h06.46.354,3-AFC_adaptive_staircase_mess,2022.1.1,35.214144248919624,
,,,,,0,0,0,0,1,0,1,0,,,,,,,,,,,,,,,,right,1000,30,0.0013930605843148849,0,0,-1,10,80.92451016669317,None,78.8929846000392,79.21941580006387,79.89683890005108,80.22259050002322,80.87583020003513,None,right,1,2.2116967999609187,78.95892430003732,None,None,None,,,,,,,cbtxie,001,0,fr,2022-05-05_16h06.46.354,3-AFC_adaptive_staircase_mess,2022.1.1,35.214144248919624,
,,,,,0,0,0,0,2,0,2,0,,,,,,,,,,,,,,,,right,1000,10,0.00013930605843148847,-1,0,-1,-10,84.7428205666986,None,82.68824420007877,83.01710180006921,83.68589170009363,84.0280576000223,84.69152330001816,85.033687200048,right,1,2.2832875000312924,82.7436351000797,None,None,None,,,,,,,cbtxie,001,0,fr,2022-05-05_16h06.46.354,3-AFC_adaptive_staircase_mess,2022.1.1,35.214144248919624,
,,,,,0,0,0,0,3,0,3,0,,,,,,,,,,,,,,,,left,1000,10,0.00013930605843148847,-1,0,-1,-10,86.54836896673466,None,86.53170230006799,86.87051420006901,None,None,None,None,left,1,0.41986979998182505,86.56022960005794,None,None,None,,,,,,,cbtxie,001,0,fr,2022-05-05_16h06.46.354,3-AFC_adaptive_staircase_mess,2022.1.1,35.214144248919624,
,,,,,0,0,0,0,4,0,4,0,,,,,,,,,,,,,,,,up,1000,0,4.405244365040069e-05,-1,0,-1,-10,89.53937046666785,None,88.50128110009246,88.8314846000867,89.52270380000118,89.84117010002956,90.50651970005129,90.82121130009182,up,1,3.1812239000573754,88.56659569998737,None,91.07127399998717,None,,,,,,,cbtxie,001,0,fr,2022-05-05_16h06.46.354,3-AFC_adaptive_staircase_mess,2022.1.1,35.214144248919624,
,,,,,0,0,0,0,5,0,5,0,,,,,,,,,,,,,,,,up,1000,0,4.405244365040069e-05,-1,0,-1,-10,94.31870546675442,None,93.28221710002981,93.61090159998275,94.26857950002886,94.61279829998966,95.26705740008038,95.60609720007051,up,1,2.6108144999016076,93.31201059999876,None,95.83646320004482,None,,,,,,,cbtxie,001,0,fr,2022-05-05_16h06.46.354,3-AFC_adaptive_staircase_mess,2022.1.1,35.214144248919624,
,,,,,0,0,0,0,6,0,6,0,,,,,,,,,,,,,,,,right,1000,-10,1.3930605843148848e-05,-1,0,-1,-10,99.49200186675104,None,97.45013270003255,97.77218510000966,98.46142980002332,98.80575910001062,99.44411889999174,99.78422090003733,left,0,2.254969200002961,97.50822870002594,None,None,None,,,,,,,cbtxie,001,0,fr,2022-05-05_16h06.46.354,3-AFC_adaptive_staircase_mess,2022.1.1,35.214144248919624,
,,,,,0,0,0,0,7,0,7,0,,,,,,,,,,,,,,,,left,1000,-5,2.4772509540239506e-05,1,1,1,5,101.30622656672882,None,101.28955990006216,101.60901140002534,102.29152660002,102.61376089998521,103.28689530002885,103.62790750002023,up,0,2.700946699944325,101.31959359999746,None,103.83308420004323,None,,,,,,,cbtxie,001,0,fr,2022-05-05_16h06.46.354,3-AFC_adaptive_staircase_mess,2022.1.1,35.214144248919624,
,,,,,0,0,0,0,8,0,8,0,,,,,,,,,,,,,,,,up,1000,0,4.405244365040069e-05,1,1,1,5,106.60094246670293,106.82940480008256,105.54997970000841,105.88718790002167,106.55061350006144,106.88905680004973,107.55159430007916,107.88734470005147,up,1,2.2558086999924853,105.61875860008877,None,None,None,,,,,,,cbtxie,001,0,fr,2022-05-05_16h06.46.354,3-AFC_adaptive_staircase_mess,2022.1.1,35.214144248919624,
,,,,,0,0,0,0,9,0,9,0,,,,,,,,,,,,,,,,right,1000,0,4.405244365040069e-05,1,1,1,5,111.43778126669737,None,109.38675489998423,109.72207450005226,110.38629040005617,110.72498310008086,111.38741040008608,111.72823620005511,right,1,2.5807258000131696,109.45395790005568,None,111.95375740004238,None,,,,,,,cbtxie,001,0,fr,2022-05-05_16h06.46.354,3-AFC_adaptive_staircase_mess,2022.1.1,35.214144248919624,
,,,,,0,0,0,0,10,0,10,0,,,,,,,,,,,,,,,,right,1000,-10,1.3930605843148848e-05,-1,2,-1,-5.0,115.61092246667637,None,113.55536840006243,113.89221270009875,114.55461680004373,114.89308330009226,115.559101400082,115.9017259000102,up,0,2.8438654999481514,113.62390830006916,None,116.10624180000741,None,,,,,,,cbtxie,001,0,fr,2022-05-05_16h06.46.354,3-AFC_adaptive_staircase_mess,2022.1.1,35.214144248919624,
,,,,,0,0,0,0,11,0,11,0,,,,,,,,,,,,,,,,right,1000,-7.5,1.8576761454858622e-05,1,3,1,2.5,120.05365416669908,None,117.99799830000848,118.33579280006234,119.00776340009179,119.33234279998578,120.00133240001742,120.33808840007987,right,1,2.492420999915339,118.06975700007752,None,120.57275550009217,None,,,,,,,cbtxie,001,0,fr,2022-05-05_16h06.46.354,3-AFC_adaptive_staircase_mess,2022.1.1,35.214144248919624,
,,,,,0,0,0,0,12,0,12,0,,,,,,,,,,,,,,,,right,1000,-7.5,1.8576761454858622e-05,1,3,1,2.5,124.12328716676372,None,122.07166550005786,122.40762340009678,123.07206820009742,123.40780879999511,124.07095150009263,124.41100560000632,left,0,2.645055199973285,122.14118899998721,None,124.61019680008758,None,,,,,,,cbtxie,001,0,fr,2022-05-05_16h06.46.354,3-AFC_adaptive_staircase_mess,2022.1.1,35.214144248919624,
,,,,,0,0,0,0,13,0,13,0,,,,,,,,,,,,,,,,up,1000,-5.0,2.4772509540239506e-05,1,3,1,2.5,127.36198686674858,None,126.30904630001169,126.6440728000598,127.31034520000685,127.64506980008446,128.31229340005666,128.6422074000584,right,0,2.9851635999511927,126.37742270005401,None,128.88049060001504,None,,,,,,,cbtxie,001,0,fr,2022-05-05_16h06.46.354,3-AFC_adaptive_staircase_mess,2022.1.1,35.214144248919624,
,,,,,0,0,0,0,14,0,14,0,,,,,,,,,,,,,,,,right,1000,-2.5,3.303467240037979e-05,1,3,1,2.5,132.93569276674341,None,130.88079229998402,131.211856000009,131.87945040001068,132.21891809999943,132.8831485999981,133.18431500007864,left,0,3.1677222999278456,130.94730450003408,None,133.44928950001486,None,,,,,,,cbtxie,001,0,fr,2022-05-05_16h06.46.354,3-AFC_adaptive_staircase_mess,2022.1.1,35.214144248919624,
,,,,,0,0,0,0,15,0,15,0,,,,,,,,,,,,,,,,left,1000,0.0,4.405244365040069e-05,1,3,1,2.5,135.67239676666603,None,135.65573009999935,135.9885366000235,136.6569576000329,136.98614789999556,137.65607320005074,137.99123010004405,up,0,2.8906720000086352,135.68924500001594,None,138.2250065000262,None,,,,,,,cbtxie,001,0,fr,2022-05-05_16h06.46.354,3-AFC_adaptive_staircase_mess,2022.1.1,35.214144248919624,
,,,,,0,0,0,0,16,0,16,0,,,,,,,,,,,,,,,,left,1000,2.5,5.874487774697646e-05,1,3,1,2.5,140.13603476673987,None,140.0863948999904,140.4264273000881,141.09162990003824,141.4205726000946,142.09170520002954,142.42268670001067,left,1,2.7467699999688193,140.15251470007934,None,142.65689390001353,None,,,,,,,cbtxie,001,0,fr,2022-05-05_16h06.46.354,3-AFC_adaptive_staircase_mess,2022.1.1,35.214144248919624,
,,,,,0,0,0,0,17,0,17,0,,,,,,,,,,,,,,,,right,1000,2.5,5.874487774697646e-05,1,3,1,2.5,146.44151166669715,None,144.4088652000064,144.7545109000057,145.41454670007806,145.75624710007105,146.42484500003047,146.75291450007353,right,1,2.6232475000433624,144.46786890004296,None,146.96683200006373,None,,,,,,,cbtxie,001,0,fr,2022-05-05_16h06.46.354,3-AFC_adaptive_staircase_mess,2022.1.1,35.214144248919624,
,,,,,0,0,0,0,18,0,18,0,,,,,,,,,,,,,,,,left,1000,-2.5,3.303467240037979e-05,-1,4,-1,-5.0,148.64470516675308,148.87047010008246,148.59482050000224,148.93275330006145,149.5953298000386,149.93207330000587,150.59621790004894,150.93401840003207,left,1,2.860616800026037,148.6622041000519,None,151.16553530003875,None,,,,,,,cbtxie,001,0,fr,2022-05-05_16h06.46.354,3-AFC_adaptive_staircase_mess,2022.1.1,35.214144248919624,
,,,,,0,0,0,0,19,0,19,0,,,,,,,,,,,,,,,,left,1000,-2.5,3.303467240037979e-05,-1,4,-1,-5.0,153.08178066666395,None,153.0315512000816,153.37434330000542,154.02083090005908,154.36928850004915,155.03484790003859,155.36971780005842,right,0,2.760035299928859,153.09858310001437,None,155.6039913999848,None,,,,,,,cbtxie,001,0,fr,2022-05-05_16h06.46.354,3-AFC_adaptive_staircase_mess,2022.1.1,35.214144248919624,
,,,,,0,0,0,0,20,0,20,0,,,,,,,,,,,,,,,,right,1000,0.0,4.405244365040069e-05,1,5,1,2.5,159.42233286676154,None,157.36530800000764,157.70168360008392,158.37257720006164,158.70640390005428,159.37189180008136,159.6880837000208,left,0,3.4654135999735445,157.43287950009108,None,159.94266300008167,None,,,,,,,cbtxie,001,0,fr,2022-05-05_16h06.46.354,3-AFC_adaptive_staircase_mess,2022.1.1,35.214144248919624,
,,,,,0,0,0,0,21,0,21,0,,,,,,,,,,,,,,,,left,1000,2.5,5.874487774697646e-05,1,5,1,2.5,162.4546755667,None,162.40420960006304,162.74468920007348,163.4101321999915,163.74624570005108,164.40915570000652,164.74539060005918,right,0,2.7626146000111476,162.47210550005548,None,164.98002120002639,None,,,,,,,cbtxie,001,0,fr,2022-05-05_16h06.46.354,3-AFC_adaptive_staircase_mess,2022.1.1,35.214144248919624,
,,,,,0,0,0,0,22,0,22,0,,,,,,,,,,,,,,,,left,1000,5.0,7.833755350540742e-05,1,5,1,2.5,166.7790652666629,None,166.73224959999789,167.04614790005144,167.74517310003284,None,None,None,left,1,1.0488680999260396,166.79344680008944,None,None,None,,,,,,,cbtxie,001,0,fr,2022-05-05_16h06.46.354,3-AFC_adaptive_staircase_mess,2022.1.1,35.214144248919624,
,,,,,0,0,0,0,23,0,23,0,,,,,,,,,,,,,,,,left,1000,5.0,7.833755350540742e-05,1,5,1,2.5,169.39888026676297,None,169.34892800007947,169.68785039999057,170.3479592000367,None,None,None,left,1,1.002229299978353,169.4164731000783,None,None,None,,,,,,,cbtxie,001,0,fr,2022-05-05_16h06.46.354,3-AFC_adaptive_staircase_mess,2022.1.1,35.214144248919624,
,,,,,0,0,0,0,24,0,24,0,,,,,,,,,,,,,,,,left,1000,0.0,4.405244365040069e-05,-1,6,-1,-5.0,171.99572386668686,None,171.94567660009488,172.28848600003403,172.95214970002417,173.29049010004383,173.95094390003942,174.28613860008772,left,1,2.870208900072612,172.01275220001116,None,174.52291940001305,None,,,,,,,cbtxie,001,0,fr,2022-05-05_16h06.46.354,3-AFC_adaptive_staircase_mess,2022.1.1,35.214144248919624,
,,,,,1,0,1,0,0,0,0,0,,,,,,,,,,,,,[],[],10,right,1500,30,0.001527460556607757,0,0,-1,10,181.75764436665148,None,179.7281951000914,180.05830979999155,180.75353870005347,181.0932904999936,181.7409776999848,182.08756950008683,right,1,2.4670194999780506,179.79124530008994,None,182.28823240008205,None,space,3.2805701999459416,175.95438960008323,None,175.95438960008323,None,cbtxie,001,0,fr,2022-05-05_16h06.46.354,3-AFC_adaptive_staircase_mess,2022.1.1,35.214144248919624,
,,,,,1,0,1,0,1,0,1,0,,,,,,,,,,,,,,,,up,1500,30,0.001527460556607757,0,0,-1,10,184.84234776668407,None,183.7904356000945,184.1286796000786,184.79135730001144,185.13768929999787,None,None,up,1,1.5533172000432387,183.85758519999217,None,None,None,,,,,,,cbtxie,001,0,fr,2022-05-05_16h06.46.354,3-AFC_adaptive_staircase_mess,2022.1.1,35.214144248919624,
,,,,,1,0,1,0,2,0,2,0,,,,,,,,,,,,,,,,up,1500,10,0.0001527460556607757,-1,0,-1,-10,187.98053116671898,None,186.92671860009432,187.26527540001553,187.93047960009426,188.2685406000819,None,None,up,1,1.441307400004007,186.99410250002984,None,None,None,,,,,,,cbtxie,001,0,fr,2022-05-05_16h06.46.354,3-AFC_adaptive_staircase_mess,2022.1.1,35.214144248919624,
,,,,,1,0,1,0,3,0,3,0,,,,,,,,,,,,,,,,up,1500,10,0.0001527460556607757,-1,0,-1,-10,191.00342866668169,None,189.95869110000785,190.29919170006178,190.986762000015,191.31804949999787,None,None,up,1,1.4098665999481454,190.0173272000393,None,None,None,,,,,,,cbtxie,001,0,fr,2022-05-05_16h06.46.354,3-AFC_adaptive_staircase_mess,2022.1.1,35.214144248919624,
,,,,,1,0,1,0,4,0,4,0,,,,,,,,,,,,,,,,left,1500,0,4.830254394949071e-05,-1,0,-1,-10,192.9550700666771,193.18264470004942,192.93840340001043,193.27469480002765,193.9104023000691,194.2468467000872,194.93465320009273,195.2731573000783,left,1,2.8571558999828994,192.96950610005297,None,195.4856410000939,None,,,,,,,cbtxie,001,0,fr,2022-05-05_16h06.46.354,3-AFC_adaptive_staircase_mess,2022.1.1,35.214144248919624,
,,,,,1,0,1,0,5,0,5,0,,,,,,,,,,,,,,,,right,1500,0,4.830254394949071e-05,-1,0,-1,-10,199.39246016665518,199.62307470000815,197.37941819999833,197.7189720000606,198.35226000007242,198.6837993999943,199.3757934999885,199.71649890008848,right,1,2.701406400068663,197.41313440003432,None,199.93781640008092,None,,,,,,,cbtxie,001,0,fr,2022-05-05_16h06.46.354,3-AFC_adaptive_staircase_mess,2022.1.1,35.214144248919624,
,,,,,1,0,1,0,6,0,6,0,,,,,,,,,,,,,,,,right,1500,-10,1.527460556607758e-05,-1,0,-1,-10,203.67222006671753,None,201.63262910000049,201.9517698000418,202.61421670007985,202.95168579998426,203.6210198000772,203.94532500009518,left,0,2.658625300042331,201.664729500073,None,204.18079970008694,None,,,,,,,cbtxie,001,0,fr,2022-05-05_16h06.46.354,3-AFC_adaptive_staircase_mess,2022.1.1,35.214144248919624,
,,,,,1,0,1,0,7,0,7,0,,,,,,,,,,,,,,,,left,1500,-5,2.716251657462168e-05,1,1,1,5,205.90263696673017,None,205.85494760004804,206.18241540004965,206.84738829999696,207.17367660009768,207.84985009999946,208.17877850006334,left,1,2.7883573999861255,205.91834219999146,None,208.3977969000116,None,,,,,,,cbtxie,001,0,fr,2022-05-05_16h06.46.354,3-AFC_adaptive_staircase_mess,2022.1.1,35.214144248919624,
,,,,,1,0,1,0,8,0,8,0,,,,,,,,,,,,,,,,up,1500,-5,2.716251657462168e-05,1,1,1,5,211.2730796667204,None,210.2275767000392,210.5410829000175,211.22531590005383,211.55100590002257,212.22382120008115,212.53740060003474,right,0,2.6712884000735357,210.29151570005342,None,212.78800629999023,None,,,,,,,cbtxie,001,0,fr,2022-05-05_16h06.46.354,3-AFC_adaptive_staircase_mess,2022.1.1,35.214144248919624,
,,,,,1,0,1,0,9,0,9,0,,,,,,,,,,,,,,,,up,1500,0,4.830254394949071e-05,1,1,1,5,215.5277558667042,None,214.47599390009418,214.8235077999998,215.48063730006106,215.82002940005623,216.4995739000151,216.816166200093,left,0,2.921379299950786,214.5374623000389,None,217.03047350002453,None,,,,,,,cbtxie,001,0,fr,2022-05-05_16h06.46.354,3-AFC_adaptive_staircase_mess,2022.1.1,35.214144248919624,
,,,,,1,0,1,0,10,0,10,0,,,,,,,,,,,,,,,,left,1500,5,8.589541935787943e-05,1,1,1,5,219.02466136665706,None,218.9765048000263,219.29065640002955,None,None,None,None,left,1,0.7080627999966964,219.03842540003825,None,None,None,,,,,,,cbtxie,001,0,fr,2022-05-05_16h06.46.354,3-AFC_adaptive_staircase_mess,2022.1.1,35.214144248919624,
,,,,,1,0,1,0,11,0,11,0,,,,,,,,,,,,,,,,left,1500,5,8.589541935787943e-05,1,1,1,5,221.29291166674037,None,221.25868040008936,221.5971942000324,None,None,None,None,left,1,0.8491168000036851,221.31324650009628,None,None,None,,,,,,,cbtxie,001,0,fr,2022-05-05_16h06.46.354,3-AFC_adaptive_staircase_mess,2022.1.1,35.214144248919624,
,,,,,1,0,1,0,12,0,12,0,,,,,,,,,,,,,,,,right,1500,-5,2.716251657462168e-05,-1,2,-1,-5.0,225.73563026666332,None,223.68592550000176,224.02688810008112,224.7067425000714,225.01867810008116,225.68868980009574,226.03175239998382,up,0,2.701005300041288,223.74919300002512,None,226.24830700003076,None,,,,,,,cbtxie,001,0,fr,2022-05-05_16h06.46.354,3-AFC_adaptive_staircase_mess,2022.1.1,35.214144248919624,
,,,,,1,0,1,0,13,0,13,0,,,,,,,,,,,,,,,,up,1500,-2.5,3.622179800374953e-05,1,3,1,2.5,229.00177196675602,None,227.96496530005243,228.2781285000965,228.98510530008934,229.3265284000663,229.9655480000656,230.27881520008668,right,0,2.6757392999716103,228.031167200068,None,230.52817820000928,None,,,,,,,cbtxie,001,0,fr,2022-05-05_16h06.46.354,3-AFC_adaptive_staircase_mess,2022.1.1,35.214144248919624,
,,,,,1,0,1,0,14,0,14,0,,,,,,,,,,,,,,,,up,1500,0.0,4.830254394949071e-05,1,3,1,2.5,233.23624666670028,None,232.2234198000515,232.55744850006886,233.2195800000336,233.5583762000315,234.2141219000332,234.54535230004694,left,0,2.7585350000299513,232.25204360007774,None,234.75489169999491,None,,,,,,,cbtxie,001,0,fr,2022-05-05_16h06.46.354,3-AFC_adaptive_staircase_mess,2022.1.1,35.214144248919624,
,,,,,1,0,1,0,15,0,15,0,,,,,,,,,,,,,,,,left,1500,2.5,6.441247758465671e-05,1,3,1,2.5,236.56415806670364,None,236.5163337000413,236.85543700004928,237.530873300042,237.8728466000175,238.5074705000734,238.82538809999824,left,1,2.6715519999852404,236.5787703000242,None,239.07439379999414,None,,,,,,,cbtxie,001,0,fr,2022-05-05_16h06.46.354,3-AFC_adaptive_staircase_mess,2022.1.1,35.214144248919624,
,,,,,1,0,1,0,16,0,16,0,,,,,,,,,,,,,,,,up,1500,2.5,6.441247758465671e-05,1,3,1,2.5,None,None,240.7651704000309,241.10641040001065,None,None,None,None,left,0,0.7896266001043841,240.82860050001182,None,None,None,,,,,,,cbtxie,001,0,fr,2022-05-05_16h06.46.354,3-AFC_adaptive_staircase_mess,2022.1.1,35.214144248919624,
,,,,,1,0,1,0,17,0,17,0,,,,,,,,,,,,,,,,up,1500,5.0,8.589541935787943e-05,1,3,1,2.5,244.1730705666744,None,243.11213750008028,243.45246980001684,244.1258365000831,244.4473919000011,None,None,up,1,1.820587299996987,243.17425310006365,None,None,None,,,,,,,cbtxie,001,0,fr,2022-05-05_16h06.46.354,3-AFC_adaptive_staircase_mess,2022.1.1,35.214144248919624,
,,,,,1,0,1,0,18,0,18,0,,,,,,,,,,,,,,,,up,1500,5.0,8.589541935787943e-05,1,3,1,2.5,247.5642681667271,None,246.53518170001917,246.8504433000926,247.5177085000323,247.85937510000076,248.52514010004234,248.86414389999118,up,1,2.8466536999912933,246.57927630003542,None,249.08841450000182,None,,,,,,,cbtxie,001,0,fr,2022-05-05_16h06.46.354,3-AFC_adaptive_staircase_mess,2022.1.1,35.214144248919624,
,,,,,1,0,1,0,19,0,19,0,,,,,,,,,,,,,,,,right,1500,0.0,4.830254394949071e-05,-1,4,-1,-5.0,253.00868916669086,253.23841200000606,250.95420889998786,251.27605470002163,251.95901190000586,252.29869030008558,252.95928070007358,253.30098520009778,right,1,2.5012779999524355,251.02146299998276,None,253.52406980004162,None,,,,,,,cbtxie,001,0,fr,2022-05-05_16h06.46.354,3-AFC_adaptive_staircase_mess,2022.1.1,35.214144248919624,
,,,,,1,0,1,0,20,0,20,0,,,,,,,,,,,,,,,,left,1500,0.0,4.830254394949071e-05,-1,4,-1,-5.0,255.06909616670262,None,255.00946560001466,255.3370956000872,256.01281870005187,256.34197190008126,257.01551310007926,257.3609172999859,right,0,2.6659716999856755,255.081032600021,None,257.6006384000648,None,,,,,,,cbtxie,001,0,fr,2022-05-05_16h06.46.354,3-AFC_adaptive_staircase_mess,2022.1.1,35.214144248919624,
,,,,,1,0,1,0,21,0,21,0,,,,,,,,,,,,,,,,right,1500,2.5,6.441247758465671e-05,1,5,1,2.5,261.3108186666543,None,259.2661419000942,259.59824269998353,260.26654720003717,260.5976684000343,261.29415199998766,261.6341114999959,right,1,2.994200599961914,259.3286075000651,None,261.80605240003206,None,,,,,,,cbtxie,001,0,fr,2022-05-05_16h06.46.354,3-AFC_adaptive_staircase_mess,2022.1.1,35.214144248919624,
,,,,,1,0,1,0,22,0,22,0,,,,,,,,,,,,,,,,left,1500,2.5,6.441247758465671e-05,1,5,1,2.5,263.88822746667233,264.12279530009255,263.8357015000656,264.14875620009843,264.86700700002257,265.20751830004156,265.843342200038,266.17988559999503,left,1,2.784709300030954,263.90549260005355,None,266.40248100005556,None,,,,,,,cbtxie,001,0,fr,2022-05-05_16h06.46.354,3-AFC_adaptive_staircase_mess,2022.1.1,35.214144248919624,
,,,,,1,0,1,0,23,0,23,0,,,,,,,,,,,,,,,,right,1500,-2.5,3.622179800374953e-05,-1,6,-1,-5.0,270.2593032667103,270.49091930000577,268.22104950004723,268.56974860001355,269.2078080000356,269.54149700002745,270.20929890009575,270.5574150000466,right,1,2.5566726999823004,268.27813710004557,None,270.7802938000532,None,,,,,,,cbtxie,001,0,fr,2022-05-05_16h06.46.354,3-AFC_adaptive_staircase_mess,2022.1.1,35.214144248919624,
,,,,,2,0,2,0,0,0,0,0,,,,,,,,,,,,,[],[],10,up,2000,30,0.0023657562948074026,0,0,-1,10,274.26192626665966,None,273.2099184000399,273.5467857000185,274.245259599993,274.5892288000323,None,None,up,1,1.4304369000019506,273.27723730006255,None,None,None,right,0.827432099962607,271.9111237000907,None,271.9111237000907,None,cbtxie,001,0,fr,2022-05-05_16h06.46.354,3-AFC_adaptive_staircase_mess,2022.1.1,35.214144248919624,
,,,,,2,0,2,0,1,0,1,0,,,,,,,,,,,,,,,,up,2000,30,0.0023657562948074026,0,0,-1,10,277.26502506673955,277.49836910003796,276.21556260006037,276.548716600053,277.21286570001394,277.53092180006206,None,None,up,1,1.242690599989146,276.2796137999976,None,None,None,,,,,,,cbtxie,001,0,fr,2022-05-05_16h06.46.354,3-AFC_adaptive_staircase_mess,2022.1.1,35.214144248919624,
,,,,,2,0,2,0,2,0,2,0,,,,,,,,,,,,,,,,up,2000,10,0.00023657562948074026,-1,0,-1,-10,280.088619566701,None,279.04647460009437,279.3842428000644,280.0415360000916,280.368358500069,None,None,up,1,1.4051893999567255,279.1092512999894,None,None,None,,,,,,,cbtxie,001,0,fr,2022-05-05_16h06.46.354,3-AFC_adaptive_staircase_mess,2022.1.1,35.214144248919624,
,,,,,2,0,2,0,3,0,3,0,,,,,,,,,,,,,,,,left,2000,10,0.00023657562948074026,-1,0,-1,-10,282.07065146667105,None,282.02106510009617,282.36424540006556,None,None,None,None,up,0,0.4753408998949453,282.08783440000843,None,None,None,,,,,,,cbtxie,001,0,fr,2022-05-05_16h06.46.354,3-AFC_adaptive_staircase_mess,2022.1.1,35.214144248919624,
,,,,,2,0,2,0,4,0,4,0,,,,,,,,,,,,,,,,up,2000,15,0.0004206975708225976,1,1,1,5,None,None,284.0891569000669,None,None,None,None,None,left,0,-1.2075695000821725,284.15569899999537,None,None,None,,,,,,,cbtxie,001,0,fr,2022-05-05_16h06.46.354,3-AFC_adaptive_staircase_mess,2022.1.1,35.214144248919624,
,,,,,2,0,2,0,5,0,5,0,,,,,,,,,,,,,,,,right,2000,20,0.0007481178280472167,1,1,1,5,287.6827258667365,None,285.6568741000956,285.9808633000357,286.65775520005263,286.97877970000263,287.66605920006987,287.99698340008035,right,1,2.452113499981351,285.7260003000265,None,288.203795266749,None,,,,,,,cbtxie,001,0,fr,2022-05-05_16h06.46.354,3-AFC_adaptive_staircase_mess,2022.1.1,35.214144248919624,
,,,,,2,0,2,0,6,0,6,0,,,,,,,,,,,,,,,,up,2000,20,0.0007481178280472167,1,1,1,5,290.7452838667125,None,289.69390910002403,290.0300706999842,290.6988679000642,291.0364154999843,None,None,up,1,1.4888748000375926,289.7619108000072,None,None,None,,,,,,,cbtxie,001,0,fr,2022-05-05_16h06.46.354,3-AFC_adaptive_staircase_mess,2022.1.1,35.214144248919624,
,,,,,2,0,2,0,7,0,7,0,,,,,,,,,,,,,,,,up,2000,10,0.00023657562948074026,-1,2,-1,-5.0,293.8174664667497,294.0443126000464,292.7961658000713,293.1335585000925,293.80079980008304,294.1344756000908,None,None,up,1,1.300463999970816,292.83006710000336,None,None,None,,,,,,,cbtxie,001,0,fr,2022-05-05_16h06.46.354,3-AFC_adaptive_staircase_mess,2022.1.1,35.214144248919624,
,,,,,2,0,2,0,8,0,8,0,,,,,,,,,,,,,,,,up,2000,10,0.00023657562948074026,-1,2,-1,-5.0,296.6853640666852,296.91903150000144,295.63505909999367,295.9685347999912,296.6355550000444,296.94910090009216,None,None,up,1,1.375219100038521,295.7008806000231,None,None,None,,,,,,,cbtxie,001,0,fr,2022-05-05_16h06.46.354,3-AFC_adaptive_staircase_mess,2022.1.1,35.214144248919624,
,,,,,2,0,2,0,9,0,9,0,,,,,,,,,,,,,,,,up,2000,5.0,0.0001330362529899405,-1,2,-1,-5.0,299.625605566722,None,298.6044080000138,298.93970600003377,299.60893890005536,299.9436080000596,None,None,up,1,1.4427848000777885,298.6714577000821,None,None,None,,,,,,,cbtxie,001,0,fr,2022-05-05_16h06.46.354,3-AFC_adaptive_staircase_mess,2022.1.1,35.214144248919624,
,,,,,2,0,2,0,10,0,10,0,,,,,,,,,,,,,,,,right,2000,5.0,0.0001330362529899405,-1,2,-1,-5.0,303.69400076667466,303.92381250008475,301.6411269000964,301.96344940003473,302.64141510007903,302.9719350000378,303.64410160004627,303.9842712000245,right,1,2.326110199908726,301.7089308000868,None,None,None,,,,,,,cbtxie,001,0,fr,2022-05-05_16h06.46.354,3-AFC_adaptive_staircase_mess,2022.1.1,35.214144248919624,
,,,,,2,0,2,0,11,0,11,0,,,,,,,,,,,,,,,,right,2000,0.0,7.481178280472168e-05,-1,2,-1,-5.0,307.5666374667237,None,305.54419140005484,305.8788690000074,306.529933599988,306.8457822999917,307.54997080005705,307.8788892000448,right,1,2.3091023999731988,305.61453310004435,None,None,None,,,,,,,cbtxie,001,0,fr,2022-05-05_16h06.46.354,3-AFC_adaptive_staircase_mess,2022.1.1,35.214144248919624,
,,,,,2,0,2,0,12,0,12,0,,,,,,,,,,,,,,,,right,2000,0.0,7.481178280472168e-05,-1,2,-1,-5.0,311.5032402667605,None,309.4483119000215,309.78179909999017,310.4530788999982,310.7849399000406,311.45319790008944,311.7963693999918,right,1,2.342126499977894,309.5170632000081,None,None,None,,,,,,,cbtxie,001,0,fr,2022-05-05_16h06.46.354,3-AFC_adaptive_staircase_mess,2022.1.1,35.214144248919624,
,,,,,2,0,2,0,13,0,13,0,,,,,,,,,,,,,,,,left,2000,-5.0,4.206975708225974e-05,-1,2,-1,-5.0,313.43782296666564,None,313.38879440003075,313.7247150000185,314.38786770007573,314.7241421000799,315.39182640006766,315.72212779999245,left,1,2.788696700008586,313.4541912000859,None,315.9552699000342,None,,,,,,,cbtxie,001,0,fr,2022-05-05_16h06.46.354,3-AFC_adaptive_staircase_mess,2022.1.1,35.214144248919624,
,,,,,2,0,2,0,14,0,14,0,,,,,,,,,,,,,,,,left,2000,-5.0,4.206975708225974e-05,-1,2,-1,-5.0,317.81159886665796,None,317.75765949999914,318.073176600039,318.76306920009665,319.0920685000019,319.7634934000671,320.09296819998417,left,1,2.736056499998085,317.82832199998666,None,320.3324277000502,None,,,,,,,cbtxie,001,0,fr,2022-05-05_16h06.46.354,3-AFC_adaptive_staircase_mess,2022.1.1,35.214144248919624,
,,,,,2,0,2,0,15,0,15,0,,,,,,,,,,,,,,,,left,2000,-10.0,2.3657562948074015e-05,-1,2,-1,-5.0,322.1142373666555,None,322.0646848999895,322.4018688000506,323.06427139998414,323.3942444000859,324.0603453000076,324.40003220003564,up,0,2.797858699923381,322.1326343000401,None,324.6345809000777,None,,,,,,,cbtxie,001,0,fr,2022-05-05_16h06.46.354,3-AFC_adaptive_staircase_mess,2022.1.1,35.214144248919624,
,,,,,2,0,2,0,16,0,16,0,,,,,,,,,,,,,,,,right,2000,-7.5,3.154786722400965e-05,1,3,1,2.5,328.4814153666996,None,326.4460553000681,326.78152210009284,327.43387790001,327.76730690000113,328.43254840001464,328.7741635000566,left,0,2.6781250999774784,326.47657400008757,None,328.9940573000349,None,,,,,,,cbtxie,001,0,fr,2022-05-05_16h06.46.354,3-AFC_adaptive_staircase_mess,2022.1.1,35.214144248919624,
,,,,,2,0,2,0,17,0,17,0,,,,,,,,,,,,,,,,left,2000,-5.0,4.206975708225974e-05,1,3,1,2.5,330.72218616673877,None,330.67148530005943,331.00583979999647,331.6710659000091,332.00337340007536,332.6748309000395,333.0058058000868,up,0,2.6888325000181794,330.7388150000479,None,333.23352470004465,None,,,,,,,cbtxie,001,0,fr,2022-05-05_16h06.46.354,3-AFC_adaptive_staircase_mess,2022.1.1,35.214144248919624,
,,,,,2,0,2,0,18,0,18,0,,,,,,,,,,,,,,,,right,2000,-2.5,5.610092271509818e-05,1,3,1,2.5,336.96408136672494,None,334.94095160008874,335.2762092000339,335.9441664000042,336.2786345999921,336.9474147000583,337.27690200007055,right,1,2.5888131000101566,335.0131402000552,None,337.4923764000414,None,,,,,,,cbtxie,001,0,fr,2022-05-05_16h06.46.354,3-AFC_adaptive_staircase_mess,2022.1.1,35.214144248919624,
,,,,,2,0,2,0,19,0,19,0,,,,,,,,,,,,,,,,right,2000,-2.5,5.610092271509818e-05,1,3,1,2.5,341.1668276667517,None,339.11361410003155,339.45181630004663,340.1155523000052,340.44655220001005,341.1154691000702,341.4588010000298,right,1,2.6303612999618053,339.179685399984,None,341.6715669000987,None,,,,,,,cbtxie,001,0,fr,2022-05-05_16h06.46.354,3-AFC_adaptive_staircase_mess,2022.1.1,35.214144248919624,
,,,,,2,0,2,0,20,0,20,0,,,,,,,,,,,,,,,,left,2000,-7.5,3.154786722400965e-05,-1,4,-1,-5.0,343.3619847667326,None,343.31334800005425,343.6544068000512,344.31661209999584,344.6503083000425,345.32258170004934,345.65638960001525,right,0,2.818385799997486,343.3760127000278,None,345.87745470006485,None,,,,,,,cbtxie,001,0,fr,2022-05-05_16h06.46.354,3-AFC_adaptive_staircase_mess,2022.1.1,35.214144248919624,
,,,,,2,0,2,0,21,0,21,0,,,,,,,,,,,,,,,,right,2000,-5.0,4.206975708225974e-05,1,5,1,2.5,349.77441376675074,None,347.721515799989,348.0464060000377,348.7246546000242,349.0605729999952,349.7249638000503,350.06609960005153,left,0,2.6909124999074265,347.791639400064,None,350.27684020006564,None,,,,,,,cbtxie,001,0,fr,2022-05-05_16h06.46.354,3-AFC_adaptive_staircase_mess,2022.1.1,35.214144248919624,
,,,,,2,0,2,0,22,0,22,0,,,,,,,,,,,,,,,,right,2000,-2.5,5.610092271509818e-05,1,5,1,2.5,354.0442742667549,None,351.9950461999979,352.3243148000911,352.9957880000584,353.3260865000775,353.99478519998956,354.33766800002195,left,0,2.7087933000875637,352.0615039000986,None,354.5506255000364,None,,,,,,,cbtxie,001,0,fr,2022-05-05_16h06.46.354,3-AFC_adaptive_staircase_mess,2022.1.1,35.214144248919624,
,,,,,2,0,2,0,23,0,23,0,,,,,,,,,,,,,,,,up,2000,0.0,7.481178280472168e-05,1,5,1,2.5,357.31651136669484,None,356.265604400076,356.59630630002357,357.26683420001063,357.6066033000825,358.2680841999827,None,up,1,1.9265742000425234,356.3320103000151,None,None,None,,,,,,,cbtxie,001,0,fr,2022-05-05_16h06.46.354,3-AFC_adaptive_staircase_mess,2022.1.1,35.214144248919624,
,,,,,2,0,2,0,24,0,24,0,,,,,,,,,,,,,,,,right,2000,0.0,7.481178280472168e-05,1,5,1,2.5,361.82183616672796,None,359.76805970002897,360.09919169999193,360.75739839999005,361.10232720000204,361.76929180009756,362.0807072999887,right,1,2.5533057000720873,359.83341250009835,None,362.3387258000439,None,,,,,,,cbtxie,001,0,fr,2022-05-05_16h06.46.354,3-AFC_adaptive_staircase_mess,2022.1.1,35.214144248919624,
,,,,,2,0,2,0,25,0,25,0,,,,,,,,,,,,,,,,left,2000,-5.0,4.206975708225974e-05,-1,6,-1,-5.0,363.9333409667636,None,363.91667430009693,364.2417587999953,364.91407280007843,365.2402904999908,365.90855980000924,366.2326340000145,left,1,2.873665999970399,363.945589400013,None,366.47729380009696,None,,,,,,,cbtxie,001,0,fr,2022-05-05_16h06.46.354,3-AFC_adaptive_staircase_mess,2022.1.1,35.214144248919624,
,,,,,3,0,3,0,0,0,0,0,,,,,,,,,,,,,[],[],10,right,3000,30,0.001733684252262658,0,0,-1,10,371.23118836671733,None,369.17980410007294,369.51114090008195,370.18056370003615,370.5119175000582,371.1807859999826,371.5142044000095,right,1,2.2435454999795184,369.24751840007957,None,None,None,right,0.7959139000158757,367.9116309999954,None,367.9116309999954,None,cbtxie,001,0,fr,2022-05-05_16h06.46.354,3-AFC_adaptive_staircase_mess,2022.1.1,35.214144248919624,
,,,,,3,0,3,0,1,0,1,0,,,,,,,,,,,,,,,,right,3000,30,0.001733684252262658,0,0,-1,10,375.07004456670643,375.2947374000214,373.02892370009795,373.35076450009365,374.0193349000765,374.3511405000463,375.01600190007593,None,right,1,2.2245434999931604,373.05932190001477,None,None,None,,,,,,,cbtxie,001,0,fr,2022-05-05_16h06.46.354,3-AFC_adaptive_staircase_mess,2022.1.1,35.214144248919624,
,,,,,3,0,3,0,2,0,2,0,,,,,,,,,,,,,,,,left,3000,10,0.00017336842522626576,-1,0,-1,-10,376.83045976673407,None,376.7816824000329,377.11974980006926,None,None,None,None,left,1,0.4874267999548465,376.8431329000741,None,None,None,,,,,,,cbtxie,001,0,fr,2022-05-05_16h06.46.354,3-AFC_adaptive_staircase_mess,2022.1.1,35.214144248919624,
,,,,,3,0,3,0,3,0,3,0,,,,,,,,,,,,,,,,up,3000,10,0.00017336842522626576,-1,0,-1,-10,379.89832246670653,None,378.8796358000254,379.2191991000436,379.8816558000399,380.2224481999874,None,None,up,1,1.3989145999075845,378.90753309999127,None,None,None,,,,,,,cbtxie,001,0,fr,2022-05-05_16h06.46.354,3-AFC_adaptive_staircase_mess,2022.1.1,35.214144248919624,
,,,,,3,0,3,0,4,0,4,0,,,,,,,,,,,,,,,,right,3000,0,5.482390980715923e-05,-1,0,-1,-10,383.8456957666824,None,381.82179020007607,382.16167900001165,382.83187800005544,383.16105130000506,383.82902910001576,384.16322930005845,right,1,2.3512290000217035,381.89153220003936,None,None,None,,,,,,,cbtxie,001,0,fr,2022-05-05_16h06.46.354,3-AFC_adaptive_staircase_mess,2022.1.1,35.214144248919624,
,,,,,3,0,3,0,5,0,5,0,,,,,,,,,,,,,,,,right,3000,0,5.482390980715923e-05,-1,0,-1,-10,387.7819631667264,None,385.76105159998406,386.0920924000675,386.7638664999977,387.0974829000188,387.7652965000598,388.1022261000471,right,1,2.268754299962893,385.8302455000812,None,None,None,,,,,,,cbtxie,001,0,fr,2022-05-05_16h06.46.354,3-AFC_adaptive_staircase_mess,2022.1.1,35.214144248919624,
,,,,,3,0,3,0,6,0,6,0,,,,,,,,,,,,,,,,right,3000,-10,1.7336842522626584e-05,-1,0,-1,-10,391.6526305666814,None,389.59654589998536,389.9403065000661,390.60029490001034,390.9303863000823,391.6022101000417,391.94348220003303,left,0,3.203343000030145,389.6630274000345,None,392.16907519998495,None,,,,,,,cbtxie,001,0,fr,2022-05-05_16h06.46.354,3-AFC_adaptive_staircase_mess,2022.1.1,35.214144248919624,
,,,,,3,0,3,0,7,0,7,0,,,,,,,,,,,,,,,,right,3000,-5,3.082975009307411e-05,1,1,1,5,396.4235085667499,None,394.3685543000465,394.70995110005606,395.37353360001,395.70678590005264,396.3731196000008,396.71277300000656,up,0,3.2453892999328673,394.4366191000445,None,396.94242680002935,None,,,,,,,cbtxie,001,0,fr,2022-05-05_16h06.46.354,3-AFC_adaptive_staircase_mess,2022.1.1,35.214144248919624,
,,,,,3,0,3,0,8,0,8,0,,,,,,,,,,,,,,,,up,3000,0,5.482390980715923e-05,1,1,1,5,400.22859256674224,400.45481490006205,399.1729555000784,399.5081688000355,400.17761990008876,400.51620780001394,401.1800955000799,None,up,1,2.2168376999907196,399.24130410002545,None,None,None,,,,,,,cbtxie,001,0,fr,2022-05-05_16h06.46.354,3-AFC_adaptive_staircase_mess,2022.1.1,35.214144248919624,
,,,,,3,0,3,0,9,0,9,0,,,,,,,,,,,,,,,,right,3000,0,5.482390980715923e-05,1,1,1,5,405.00104706670777,405.22589590004645,402.97864119999576,403.31431769998744,403.9807185000973,404.31614640005864,404.9843804000411,405.3190217000665,right,1,2.329176799976267,403.0499012999935,None,None,None,,,,,,,cbtxie,001,0,fr,2022-05-05_16h06.46.354,3-AFC_adaptive_staircase_mess,2022.1.1,35.214144248919624,
,,,,,3,0,3,0,10,0,10,0,,,,,,,,,,,,,,,,up,3000,-10,1.7336842522626584e-05,-1,2,-1,-5.0,407.91951646673647,None,406.8849050999852,407.21649900008924,407.87342860002536,408.22213330003433,408.8865335000446,409.2213272000663,right,0,3.0187452000100166,406.95120380003937,None,409.454924800084,None,,,,,,,cbtxie,001,0,fr,2022-05-05_16h06.46.354,3-AFC_adaptive_staircase_mess,2022.1.1,35.214144248919624,
,,,,,3,0,3,0,11,0,11,0,,,,,,,,,,,,,,,,left,3000,-7.5,2.3119051069963017e-05,1,3,1,2.5,411.5395791667436,None,411.4885092000477,411.8013756000437,412.4911422000732,412.81881870003417,413.4923277000198,413.82798100006767,right,0,2.7493263999931514,411.5577516000485,None,414.05982590001076,None,,,,,,,cbtxie,001,0,fr,2022-05-05_16h06.46.354,3-AFC_adaptive_staircase_mess,2022.1.1,35.214144248919624,
,,,,,3,0,3,0,12,0,12,0,,,,,,,,,,,,,,,,up,3000,-5.0,3.082975009307411e-05,1,3,1,2.5,416.8761196666785,None,415.82375029998366,416.15496220008936,416.8258081000531,417.1735215000808,417.8358861000743,418.1701749000931,left,0,2.752307299990207,415.8901585000567,None,418.37053010007367,None,,,,,,,cbtxie,001,0,fr,2022-05-05_16h06.46.354,3-AFC_adaptive_staircase_mess,2022.1.1,35.214144248919624,
,,,,,3,0,3,0,13,0,13,0,,,,,,,,,,,,,,,,up,3000,-2.5,4.1112132497353565e-05,1,3,1,2.5,421.18721696670787,421.4119229000062,420.1352221000707,420.4669053000398,421.13461340009235,421.4770125000505,422.1417766000377,422.47106310003437,up,1,2.8871455000480637,420.2034349000314,None,422.7076021000976,None,,,,,,,cbtxie,001,0,fr,2022-05-05_16h06.46.354,3-AFC_adaptive_staircase_mess,2022.1.1,35.214144248919624,
,,,,,3,0,3,0,14,0,14,0,,,,,,,,,,,,,,,,right,3000,-2.5,4.1112132497353565e-05,1,3,1,2.5,426.65987976669953,None,424.63760190003086,424.9716438000323,425.63863529998343,425.9784535000799,426.6432131000329,426.9731194000924,right,1,2.5879047999624163,424.71021400007885,None,427.212489400059,None,,,,,,,cbtxie,001,0,fr,2022-05-05_16h06.46.354,3-AFC_adaptive_staircase_mess,2022.1.1,35.214144248919624,
,,,,,3,0,3,0,15,0,15,0,,,,,,,,,,,,,,,,left,3000,-7.5,2.3119051069963017e-05,-1,4,-1,-5.0,428.86206066672844,None,428.81422150006983,429.14726290002,429.8128609000705,430.14862370002083,430.81115060008597,431.1470256000757,right,0,2.677550600026734,428.8765337000368,None,431.3836580000352,None,,,,,,,cbtxie,001,0,fr,2022-05-05_16h06.46.354,3-AFC_adaptive_staircase_mess,2022.1.1,35.214144248919624,
,,,,,3,0,3,0,16,0,16,0,,,,,,,,,,,,,,,,up,3000,-5.0,3.082975009307411e-05,1,5,1,2.5,434.13324096665406,None,433.08291800005827,433.41672340000514,434.0809143000515,434.421402100008,435.0884681000607,435.4184171000961,up,1,2.2445724999997765,433.14985290006734,None,None,None,,,,,,,cbtxie,001,0,fr,2022-05-05_16h06.46.354,3-AFC_adaptive_staircase_mess,2022.1.1,35.214144248919624,
,,,,,3,0,3,0,17,0,17,0,,,,,,,,,,,,,,,,right,3000,-5.0,3.082975009307411e-05,1,5,1,2.5,438.97440246673455,439.2048629000783,436.9173590000719,437.25036340008955,437.92280729999766,438.25377370009664,438.92287360003684,439.26493180007674,left,0,2.63008210004773,436.98816730000544,None,439.4874270000728,None,,,,,,,cbtxie,001,0,fr,2022-05-05_16h06.46.354,3-AFC_adaptive_staircase_mess,2022.1.1,35.214144248919624,
,,,,,3,0,3,0,18,0,18,0,,,,,,,,,,,,,,,,left,3000,-2.5,4.1112132497353565e-05,1,5,1,2.5,441.1727295667554,441.39757989998907,441.1234567000065,441.4629160000477,442.1268466000911,442.4570987999905,443.12365010008216,443.46011490002275,left,1,2.6331615999806672,441.19304230005946,None,443.6632529000053,None,,,,,,,cbtxie,001,0,fr,2022-05-05_16h06.46.354,3-AFC_adaptive_staircase_mess,2022.1.1,35.214144248919624,
,,,,,3,0,3,0,19,0,19,0,,,,,,,,,,,,,,,,left,3000,-2.5,4.1112132497353565e-05,1,5,1,2.5,445.3789025666813,None,445.33125390007626,445.6671037999913,446.3332290999824,446.6604063999839,447.33034610003233,447.66372220008634,right,0,2.849563999916427,445.3932391999988,None,447.9021564000286,None,,,,,,,cbtxie,001,0,fr,2022-05-05_16h06.46.354,3-AFC_adaptive_staircase_mess,2022.1.1,35.214144248919624,
,,,,,3,0,3,0,20,0,20,0,,,,,,,,,,,,,,,,left,3000,0.0,5.482390980715923e-05,1,5,1,2.5,449.80750066665155,None,449.75788540008944,450.1002221000381,450.7625209999969,None,None,None,left,1,1.1365846000844613,449.825219499995,None,None,None,,,,,,,cbtxie,001,0,fr,2022-05-05_16h06.46.354,3-AFC_adaptive_staircase_mess,2022.1.1,35.214144248919624,
,,,,,3,0,3,0,21,0,21,0,,,,,,,,,,,,,,,,right,3000,0.0,5.482390980715923e-05,1,5,1,2.5,454.5175920667282,None,452.46533450006973,452.7989372999873,453.46485270000994,453.7991577000357,454.4660355000524,454.80043519998435,right,1,2.6700722000095993,452.5321273000445,None,455.03650150005706,None,,,,,,,cbtxie,001,0,fr,2022-05-05_16h06.46.354,3-AFC_adaptive_staircase_mess,2022.1.1,35.214144248919624,
,,,,,3,0,3,0,22,0,22,0,,,,,,,,,,,,,,,,up,3000,-5.0,3.082975009307411e-05,-1,6,-1,-5.0,457.7540843666686,None,456.7039666000055,457.04199300007895,457.70334740006365,458.04677450004965,458.71361680002883,459.042853299994,up,1,2.7999119999585673,456.77069869998377,None,459.2736498999875,None,,,,,,,cbtxie,001,0,fr,2022-05-05_16h06.46.354,3-AFC_adaptive_staircase_mess,2022.1.1,35.214144248919624,
,,,,,4,0,4,0,0,0,0,0,,,,,,,,,,,,,[],[],10,up,4000,30,0.0026544222211549416,0,0,-1,10,465.15671026666337,None,464.104231000063,464.44003880000673,465.1073758000275,465.4515721000498,None,None,up,1,1.4648949999827892,464.1697168000974,None,None,None,up,2.9772397000342607,460.64116640004795,None,460.64116640004795,None,cbtxie,001,0,fr,2022-05-05_16h06.46.354,3-AFC_adaptive_staircase_mess,2022.1.1,35.214144248919624,
,,,,,4,0,4,0,1,0,1,0,,,,,,,,,,,,,,,,up,4000,30,0.0026544222211549416,0,0,-1,10,468.19642796676294,None,467.1446420000866,467.4812783000525,468.15006550005637,468.4819281999953,None,None,up,1,1.285548000014387,467.2136780000292,None,None,None,,,,,,,cbtxie,001,0,fr,2022-05-05_16h06.46.354,3-AFC_adaptive_staircase_mess,2022.1.1,35.214144248919624,
,,,,,4,0,4,0,2,0,2,0,,,,,,,,,,,,,,,,up,4000,10,0.00026544222211549425,-1,0,-1,-10,471.06702126673576,None,470.01485160004813,470.34866180003155,471.0175091000274,471.35414140007924,None,None,up,1,1.3479878000216559,470.0785837000003,None,None,None,,,,,,,cbtxie,001,0,fr,2022-05-05_16h06.46.354,3-AFC_adaptive_staircase_mess,2022.1.1,35.214144248919624,
,,,,,4,0,4,0,3,0,3,0,,,,,,,,,,,,,,,,left,4000,10,0.00026544222211549425,-1,0,-1,-10,473.0052308666675,None,472.95224760007113,473.28441249998286,None,None,None,None,left,1,0.4551136000081897,473.0190270000603,None,None,None,,,,,,,cbtxie,001,0,fr,2022-05-05_16h06.46.354,3-AFC_adaptive_staircase_mess,2022.1.1,35.214144248919624,
,,,,,4,0,4,0,4,0,4,0,,,,,,,,,,,,,,,,up,4000,0,8.394020090612804e-05,-1,0,-1,-10,476.0385169666881,None,474.9868565000361,475.31858100008685,475.98764880001545,476.3266953000566,None,None,up,1,1.4461180999642238,475.05375279998407,None,None,None,,,,,,,cbtxie,001,0,fr,2022-05-05_16h06.46.354,3-AFC_adaptive_staircase_mess,2022.1.1,35.214144248919624,
,,,,,4,0,4,0,5,0,5,0,,,,,,,,,,,,,,,,right,4000,0,8.394020090612804e-05,-1,0,-1,-10,480.04091756669027,None,478.018793300027,478.354499100009,479.0218283000868,479.35436720005237,480.0242509000236,480.3585460000904,right,1,2.395524900057353,478.0867178000044,None,None,None,,,,,,,cbtxie,001,0,fr,2022-05-05_16h06.46.354,3-AFC_adaptive_staircase_mess,2022.1.1,35.214144248919624,
,,,,,4,0,4,0,6,0,6,0,,,,,,,,,,,,,,,,left,4000,-10,2.6544222211549425e-05,-1,0,-1,-10,482.01822476665643,None,482.0015580999898,482.33305050001945,483.0014867000282,483.3265492999926,484.0062107000267,484.32558830000926,up,0,3.1865688998950645,482.03143360000104,None,484.55235000001267,None,,,,,,,cbtxie,001,0,fr,2022-05-05_16h06.46.354,3-AFC_adaptive_staircase_mess,2022.1.1,35.214144248919624,
,,,,,4,0,4,0,7,0,7,0,,,,,,,,,,,,,,,,right,4000,-5,4.720304381429618e-05,1,1,1,5,488.7810563666901,None,486.7431360000046,487.0844984999858,487.7572992000496,488.09699270001147,488.76438970002346,489.10183609998785,right,1,2.416718899970874,486.8015390000073,None,None,None,,,,,,,cbtxie,001,0,fr,2022-05-05_16h06.46.354,3-AFC_adaptive_staircase_mess,2022.1.1,35.214144248919624,
,,,,,4,0,4,0,8,0,8,0,,,,,,,,,,,,,,,,left,4000,-5,4.720304381429618e-05,1,1,1,5,490.75862906669886,None,490.7419624000322,491.0648506000871,None,None,None,None,left,1,0.7990053999237716,490.7718169,None,None,None,,,,,,,cbtxie,001,0,fr,2022-05-05_16h06.46.354,3-AFC_adaptive_staircase_mess,2022.1.1,35.214144248919624,
,,,,,4,0,4,0,9,0,9,0,,,,,,,,,,,,,,,,right,4000,-15,1.4926913094589802e-05,-1,2,-1,-5.0,495.14587936673,None,493.1002029000083,493.4436336000217,494.0996228000149,494.4365852000192,495.0955603000475,495.414571100031,left,0,3.320009799906984,493.16237240005285,None,495.66989230003674,None,,,,,,,cbtxie,001,0,fr,2022-05-05_16h06.46.354,3-AFC_adaptive_staircase_mess,2022.1.1,35.214144248919624,
,,,,,4,0,4,0,10,0,10,0,,,,,,,,,,,,,,,,up,4000,-12.5,1.9905358527674868e-05,1,3,1,2.5,499.0479274667489,None,498.01081980008166,498.3497921000235,499.03126080008224,499.34687240002677,500.01779479999095,500.3591766000027,left,0,2.6634959999937564,498.07472080003936,None,500.57489190006163,None,,,,,,,cbtxie,001,0,fr,2022-05-05_16h06.46.354,3-AFC_adaptive_staircase_mess,2022.1.1,35.214144248919624,
,,,,,4,0,4,0,11,0,11,0,,,,,,,,,,,,,,,,right,4000,-10.0,2.6544222211549425e-05,1,3,1,2.5,504.2704964667248,None,502.26107260002755,502.6060643000528,503.2582950000651,503.57533740007784,504.25382980005816,504.5702929000836,right,1,2.4143657999811694,502.29240100004245,None,None,None,,,,,,,cbtxie,001,0,fr,2022-05-05_16h06.46.354,3-AFC_adaptive_staircase_mess,2022.1.1,35.214144248919624,
,,,,,4,0,4,0,12,0,12,0,,,,,,,,,,,,,,,,left,4000,-10.0,2.6544222211549425e-05,1,3,1,2.5,506.26226776669887,None,506.2124374000123,506.53154460003134,507.2132811000338,507.52692209999077,508.21513290004805,508.5527492000256,up,0,2.6677577000809833,506.2784834000049,None,508.76637440000195,None,,,,,,,cbtxie,001,0,fr,2022-05-05_16h06.46.354,3-AFC_adaptive_staircase_mess,2022.1.1,35.214144248919624,
,,,,,4,0,4,0,13,0,13,0,,,,,,,,,,,,,,,,right,4000,-7.5,3.53972892192069e-05,1,3,1,2.5,512.5016424667012,None,510.4638764000265,510.78301000001375,511.4425307000056,511.7855319000082,512.4532996000489,512.7939766000491,right,1,2.821364999981597,510.49291620007716,None,513.0188224000158,None,,,,,,,cbtxie,001,0,fr,2022-05-05_16h06.46.354,3-AFC_adaptive_staircase_mess,2022.1.1,35.214144248919624,
,,,,,4,0,4,0,14,0,14,0,,,,,,,,,,,,,,,,right,4000,-7.5,3.53972892192069e-05,1,3,1,2.5,516.8875228666623,None,514.8399793000426,515.1886421000818,515.8382937000133,516.1622103999835,516.840757500031,517.1801746999845,right,1,2.8628522000508383,514.899287300068,None,517.4009466000134,None,,,,,,,cbtxie,001,0,fr,2022-05-05_16h06.46.354,3-AFC_adaptive_staircase_mess,2022.1.1,35.214144248919624,
,,,,,4,0,4,0,15,0,15,0,,,,,,,,,,,,,,,,left,4000,-12.5,1.9905358527674868e-05,-1,4,-1,-5.0,519.314378466752,None,519.2664737000596,519.6094929000828,520.2732352000894,520.5986844000872,521.2833191000391,521.6227314000716,left,1,2.6919324999907985,519.3269045000197,None,521.8365240000421,None,,,,,,,cbtxie,001,0,fr,2022-05-05_16h06.46.354,3-AFC_adaptive_staircase_mess,2022.1.1,35.214144248919624,
,,,,,4,0,4,0,16,0,16,0,,,,,,,,,,,,,,,,up,4000,-12.5,1.9905358527674868e-05,-1,4,-1,-5.0,524.5669533666844,None,523.5367711000144,523.8783084000461,524.5502867000178,524.8624253000598,525.5363281000173,525.8525574000087,right,0,2.7077171000419185,523.5982793000294,None,526.1000159000978,None,,,,,,,cbtxie,001,0,fr,2022-05-05_16h06.46.354,3-AFC_adaptive_staircase_mess,2022.1.1,35.214144248919624,
,,,,,4,0,4,0,17,0,17,0,,,,,,,,,,,,,,,,left,4000,-10.0,2.6544222211549425e-05,1,5,1,2.5,527.8467861667198,None,527.8301195000531,528.1480151000433,528.8268259000033,529.1669752000598,529.8100644000806,530.1249216999859,left,1,2.780810699914582,527.8610391000984,None,530.3649393999949,None,,,,,,,cbtxie,001,0,fr,2022-05-05_16h06.46.354,3-AFC_adaptive_staircase_mess,2022.1.1,35.214144248919624,
,,,,,4,0,4,0,18,0,18,0,,,,,,,,,,,,,,,,up,4000,-10.0,2.6544222211549425e-05,1,5,1,2.5,533.1859325667067,None,532.1454404999968,532.4807953999843,533.1412811999908,533.4824559000554,534.1388274000492,534.4749825000763,left,0,2.6428373999660835,532.2069943000097,None,534.6840903999982,None,,,,,,,cbtxie,001,0,fr,2022-05-05_16h06.46.354,3-AFC_adaptive_staircase_mess,2022.1.1,35.214144248919624,
,,,,,4,0,4,0,19,0,19,0,,,,,,,,,,,,,,,,left,4000,-7.5,3.53972892192069e-05,1,5,1,2.5,536.3893829667397,None,536.3727163000731,536.7053402999882,537.3684830000857,None,None,None,left,1,1.1963596000568941,536.4056406000163,None,None,None,,,,,,,cbtxie,001,0,fr,2022-05-05_16h06.46.354,3-AFC_adaptive_staircase_mess,2022.1.1,35.214144248919624,
,,,,,4,0,4,0,20,0,20,0,,,,,,,,,,,,,,,,left,4000,-7.5,3.53972892192069e-05,1,5,1,2.5,539.1506594666901,None,539.1339928000234,539.450599300093,None,None,None,None,left,1,0.6141363999340683,539.164306599996,None,None,None,,,,,,,cbtxie,001,0,fr,2022-05-05_16h06.46.354,3-AFC_adaptive_staircase_mess,2022.1.1,35.214144248919624,
,,,,,4,0,4,0,21,0,21,0,,,,,,,,,,,,,,,,left,4000,-12.5,1.9905358527674868e-05,-1,6,-1,-5.0,541.3285188667398,None,541.3118522000732,541.6537460000254,542.3119680000236,542.6429063000251,543.2892636000179,543.6250837000553,right,0,2.753204300068319,541.3451139000244,None,543.8495417000959,None,,,,,,,cbtxie,001,0,fr,2022-05-05_16h06.46.354,3-AFC_adaptive_staircase_mess,2022.1.1,35.214144248919624,
,,,,,5,0,5,0,0,0,0,0,,,,,,,,,,,,,[],[],10,left,6000,30,0.003664122665694519,0,0,-1,10,546.3987684667266,546.6240063000005,546.3482934000203,546.687757799984,None,None,None,None,left,1,0.6251699000131339,546.417501399992,None,None,None,right,0.6866469999076799,545.1873787000077,None,545.1873787000077,None,cbtxie,001,0,fr,2022-05-05_16h06.46.354,3-AFC_adaptive_staircase_mess,2022.1.1,35.214144248919624,
,,,,,5,0,5,0,1,0,1,0,,,,,,,,,,,,,,,,up,6000,30,0.003664122665694519,0,0,-1,10,549.5918913667012,None,548.5832656000275,548.9068871000782,549.5752247000346,549.9184668000089,None,None,up,1,1.3378679999150336,548.6168142000679,None,None,None,,,,,,,cbtxie,001,0,fr,2022-05-05_16h06.46.354,3-AFC_adaptive_staircase_mess,2022.1.1,35.214144248919624,
,,,,,5,0,5,0,2,0,2,0,,,,,,,,,,,,,,,,right,6000,10,0.00036641226656945183,-1,0,-1,-10,553.5231725667293,None,551.4579886000138,551.7733555000741,552.4959444000851,552.8357528999913,553.4741323000053,None,right,1,2.2370908999582753,551.52634760004,None,None,None,,,,,,,cbtxie,001,0,fr,2022-05-05_16h06.46.354,3-AFC_adaptive_staircase_mess,2022.1.1,35.214144248919624,
,,,,,5,0,5,0,3,0,3,0,,,,,,,,,,,,,,,,right,6000,10,0.00036641226656945183,-1,0,-1,-10,557.33930216666,None,555.2951564000687,555.6282989000902,556.2978568000253,556.6263877000893,557.3226354999933,557.6349922000663,right,1,2.2633838000474498,555.3547805000562,None,None,None,,,,,,,cbtxie,001,0,fr,2022-05-05_16h06.46.354,3-AFC_adaptive_staircase_mess,2022.1.1,35.214144248919624,
,,,,,5,0,5,0,4,0,4,0,,,,,,,,,,,,,,,,left,6000,0,0.00011586973249842387,-1,0,-1,-10,559.1768206667077,None,559.114053199999,559.438768699998,None,None,None,None,left,1,0.4777642999542877,559.1886133000953,None,None,None,,,,,,,cbtxie,001,0,fr,2022-05-05_16h06.46.354,3-AFC_adaptive_staircase_mess,2022.1.1,35.214144248919624,
,,,,,5,0,5,0,5,0,5,0,,,,,,,,,,,,,,,,right,6000,0,0.00011586973249842387,-1,0,-1,-10,563.2146520667632,None,561.1634554000339,561.5012742000399,562.1665346000809,562.4994454000844,563.1635497000534,563.5000160000054,right,1,2.259323399979621,561.2309886000585,None,None,None,,,,,,,cbtxie,001,0,fr,2022-05-05_16h06.46.354,3-AFC_adaptive_staircase_mess,2022.1.1,35.214144248919624,
,,,,,5,0,5,0,6,0,6,0,,,,,,,,,,,,,,,,right,6000,-10,3.664122665694518e-05,-1,0,-1,-10,567.037283166723,None,565.000563000096,565.3369918999961,565.990203000023,566.3056542000268,567.0206165000563,567.3418560000136,left,0,3.318316899938509,565.0684155999916,None,567.5724597000517,None,,,,,,,cbtxie,001,0,fr,2022-05-05_16h06.46.354,3-AFC_adaptive_staircase_mess,2022.1.1,35.214144248919624,
,,,,,5,0,5,0,7,0,7,0,,,,,,,,,,,,,,,,right,6000,-5,6.515833892261494e-05,1,1,1,5,571.9415949667493,None,569.9089080999838,570.2417634000303,570.9081873000832,571.2461405000649,571.8958516999846,572.2312293000286,right,1,2.4589131000684574,569.9751730000135,None,572.4600293667211,None,,,,,,,cbtxie,001,0,fr,2022-05-05_16h06.46.354,3-AFC_adaptive_staircase_mess,2022.1.1,35.214144248919624,
,,,,,5,0,5,0,8,0,8,0,,,,,,,,,,,,,,,,up,6000,-5,6.515833892261494e-05,1,1,1,5,574.9977024667353,None,573.9326897000428,574.2777067000279,574.9465607000748,575.2626886999933,None,None,up,1,1.4325664000352845,574.0111349000363,None,None,None,,,,,,,cbtxie,001,0,fr,2022-05-05_16h06.46.354,3-AFC_adaptive_staircase_mess,2022.1.1,35.214144248919624,
,,,,,5,0,5,0,9,0,9,0,,,,,,,,,,,,,,,,up,6000,-15,2.0604875954866497e-05,-1,2,-1,-5.0,577.9694464667157,None,576.9430575000588,577.2819470000686,577.952779800049,578.2886847000336,578.9527936000377,579.2533485000022,up,1,2.759927000035532,577.0024474000093,None,579.484487400041,None,,,,,,,cbtxie,001,0,fr,2022-05-05_16h06.46.354,3-AFC_adaptive_staircase_mess,2022.1.1,35.214144248919624,
,,,,,5,0,5,0,10,0,10,0,,,,,,,,,,,,,,,,right,6000,-15,2.0604875954866497e-05,-1,2,-1,-5.0,583.3168329666989,None,581.2883249000879,581.6229195999913,582.2820327000227,582.6129898000509,583.3001663000323,583.6206439000089,left,0,3.140337000018917,581.3583701000316,None,583.8407576000318,None,,,,,,,cbtxie,001,0,fr,2022-05-05_16h06.46.354,3-AFC_adaptive_staircase_mess,2022.1.1,35.214144248919624,
,,,,,5,0,5,0,11,0,11,0,,,,,,,,,,,,,,,,left,6000,-12.5,2.7477043692881217e-05,1,3,1,2.5,586.0440758667576,None,586.0274092000909,586.3670830000192,587.0038509999868,587.3258179000113,588.0283461000072,588.3607788000954,right,0,2.6280224999645725,586.0617332000984,None,588.5645328999963,None,,,,,,,cbtxie,001,0,fr,2022-05-05_16h06.46.354,3-AFC_adaptive_staircase_mess,2022.1.1,35.214144248919624,
,,,,,5,0,5,0,12,0,12,0,,,,,,,,,,,,,,,,up,6000,-10.0,3.664122665694518e-05,1,3,1,2.5,591.2470306667421,None,590.2092296000337,590.5386789999902,591.1966533000814,591.5103118000552,592.2044509000843,592.5442490000278,left,0,2.6295965000754222,590.2362665000837,None,592.7582430000184,None,,,,,,,cbtxie,001,0,fr,2022-05-05_16h06.46.354,3-AFC_adaptive_staircase_mess,2022.1.1,35.214144248919624,
,,,,,5,0,5,0,13,0,13,0,,,,,,,,,,,,,,,,left,6000,-7.5,4.886186104779051e-05,1,3,1,2.5,594.4440028666907,None,594.3948590999935,594.734005000093,595.3988090000348,595.7382716999855,596.4014689000323,596.735962600098,right,0,2.729900300037116,594.4565002000891,None,596.97050210007,None,,,,,,,cbtxie,001,0,fr,2022-05-05_16h06.46.354,3-AFC_adaptive_staircase_mess,2022.1.1,35.214144248919624,
,,,,,5,0,5,0,14,0,14,0,,,,,,,,,,,,,,,,right,6000,-5.0,6.515833892261494e-05,1,3,1,2.5,600.7530020666929,None,598.6994832000928,599.0402523000957,599.706730700098,600.0418254000833,600.7034029000206,601.0441523999907,right,1,2.394064799998887,598.7604025000473,None,None,None,,,,,,,cbtxie,001,0,fr,2022-05-05_16h06.46.354,3-AFC_adaptive_staircase_mess,2022.1.1,35.214144248919624,
,,,,,5,0,5,0,15,0,15,0,,,,,,,,,,,,,,,,left,6000,-5.0,6.515833892261494e-05,1,3,1,2.5,602.7197140666578,None,602.6707769000204,603.010503700003,None,None,None,None,left,1,0.5193811000790447,602.7314605000429,None,None,None,,,,,,,cbtxie,001,0,fr,2022-05-05_16h06.46.354,3-AFC_adaptive_staircase_mess,2022.1.1,35.214144248919624,
,,,,,5,0,5,0,16,0,16,0,,,,,,,,,,,,,,,,left,6000,-10.0,3.664122665694518e-05,-1,4,-1,-5.0,604.8277657667097,None,604.776123000076,605.0888675000751,605.7776246999856,606.1121141000185,606.778640500037,607.1118916000705,right,0,2.662347400095314,604.8452748000855,None,607.3477771000471,None,,,,,,,cbtxie,001,0,fr,2022-05-05_16h06.46.354,3-AFC_adaptive_staircase_mess,2022.1.1,35.214144248919624,
,,,,,5,0,5,0,17,0,17,0,,,,,,,,,,,,,,,,left,6000,-7.5,4.886186104779051e-05,1,5,1,2.5,609.06696676667,None,609.0140624000924,609.3287979000015,None,None,None,None,left,1,0.6133667000103742,609.0853354000719,None,None,None,,,,,,,cbtxie,001,0,fr,2022-05-05_16h06.46.354,3-AFC_adaptive_staircase_mess,2022.1.1,35.214144248919624,
,,,,,5,0,5,0,18,0,18,0,,,,,,,,,,,,,,,,up,6000,-7.5,4.886186104779051e-05,1,5,1,2.5,612.2704816667285,None,611.2242356000934,611.5601067000534,612.2194714000216,612.5539007000625,None,None,up,1,1.4837059000274166,611.255017700023,None,None,None,,,,,,,cbtxie,001,0,fr,2022-05-05_16h06.46.354,3-AFC_adaptive_staircase_mess,2022.1.1,35.214144248919624,
,,,,,5,0,5,0,19,0,19,0,,,,,,,,,,,,,,,,right,6000,-12.5,2.7477043692881217e-05,-1,6,-1,-5.0,616.3089414666795,None,614.2610021000728,614.5894621000625,615.2617063000798,615.5946040999843,616.2575498000951,616.5896654000971,left,0,2.6533471000147983,614.2924384000944,None,616.8206057000207,None,,,,,,,cbtxie,001,0,fr,2022-05-05_16h06.46.354,3-AFC_adaptive_staircase_mess,2022.1.1,35.214144248919624,
,,,,,6,0,6,0,0,0,0,0,,,,,,,,,,,,,[],[],10,left,8000,30,0.005740768107484416,0,0,-1,10,620.0138861666821,None,619.9596939000767,620.2956703000236,None,None,None,None,left,1,0.5635333999525756,620.0321223000064,None,None,None,up,1.444933700026013,618.0293026000727,None,618.0293026000727,None,cbtxie,001,0,fr,2022-05-05_16h06.46.354,3-AFC_adaptive_staircase_mess,2022.1.1,35.214144248919624,
,,,,,6,0,6,0,1,0,1,0,,,,,,,,,,,,,,,,right,8000,30,0.005740768107484416,0,0,-1,10,624.1835159666991,None,622.1255382000236,622.4638226000825,623.1247300000396,623.4621616000077,624.1320399000542,None,right,1,2.223183499998413,622.1956069000298,None,None,None,,,,,,,cbtxie,001,0,fr,2022-05-05_16h06.46.354,3-AFC_adaptive_staircase_mess,2022.1.1,35.214144248919624,
,,,,,6,0,6,0,2,0,2,0,,,,,,,,,,,,,,,,up,8000,10,0.0005740768107484417,-1,0,-1,-10,626.9548222666529,None,625.9323234000476,626.2731726000784,626.9381555999862,627.281425400055,627.9359859999968,628.2707558000693,up,1,2.6245338999433443,626.0012915000552,None,628.5034167000558,None,,,,,,,cbtxie,001,0,fr,2022-05-05_16h06.46.354,3-AFC_adaptive_staircase_mess,2022.1.1,35.214144248919624,
,,,,,6,0,6,0,3,0,3,0,,,,,,,,,,,,,,,,up,8000,10,0.0005740768107484417,-1,0,-1,-10,631.1698275666606,None,630.1424416000955,630.472030300065,631.1255032999907,631.4745099000866,None,None,up,1,1.493773499969393,630.2042199000716,None,None,None,,,,,,,cbtxie,001,0,fr,2022-05-05_16h06.46.354,3-AFC_adaptive_staircase_mess,2022.1.1,35.214144248919624,
,,,,,6,0,6,0,4,0,4,0,,,,,,,,,,,,,,,,up,8000,0,0.0001815390273850507,-1,0,-1,-10,634.2269328666773,None,633.2073693000712,633.5406654999824,634.2102662000107,634.5529954000376,635.189928799984,635.5072448999854,up,1,3.1611601999029517,633.2408270000014,None,635.7411871000659,None,,,,,,,cbtxie,001,0,fr,2022-05-05_16h06.46.354,3-AFC_adaptive_staircase_mess,2022.1.1,35.214144248919624,
,,,,,6,0,6,0,5,0,5,0,,,,,,,,,,,,,,,,up,8000,0,0.0001815390273850507,-1,0,-1,-10,638.975392866709,None,637.9126831000904,638.2425024000695,638.929166899994,639.2443451000145,639.9122887999984,640.2477344000945,up,1,2.6316072000190616,637.9779761000536,None,640.4829246000154,None,,,,,,,cbtxie,001,0,fr,2022-05-05_16h06.46.354,3-AFC_adaptive_staircase_mess,2022.1.1,35.214144248919624,
,,,,,6,0,6,0,6,0,6,0,,,,,,,,,,,,,,,,left,8000,-10,5.740768107484415e-05,-1,0,-1,-10,642.1665072667568,None,642.1170069000218,642.4570323000662,643.1182600000175,643.4575645000441,644.1177911000559,644.4550339999842,left,1,2.6040697999997064,642.183095299988,None,644.6870679000858,None,,,,,,,cbtxie,001,0,fr,2022-05-05_16h06.46.354,3-AFC_adaptive_staircase_mess,2022.1.1,35.214144248919624,
,,,,,6,0,6,0,7,0,7,0,,,,,,,,,,,,,,,,right,8000,-10,5.740768107484415e-05,-1,0,-1,-10,648.3089562666758,None,646.2820538000669,646.619709999999,647.2679064000258,647.6041598999873,648.2922896000091,648.6266751000658,right,1,2.524099799920805,646.3416795000667,None,648.8452007999877,None,,,,,,,cbtxie,001,0,fr,2022-05-05_16h06.46.354,3-AFC_adaptive_staircase_mess,2022.1.1,35.214144248919624,
,,,,,6,0,6,0,8,0,8,0,,,,,,,,,,,,,,,,left,8000,-20,1.815390273850507e-05,-1,0,-1,-10,650.4220774666794,None,650.3778145000106,650.7250032000011,651.3932232999941,651.7257132000523,652.3954293000279,652.7308296000119,left,1,2.620867000077851,650.4367494999897,None,652.9604513000231,None,,,,,,,cbtxie,001,0,fr,2022-05-05_16h06.46.354,3-AFC_adaptive_staircase_mess,2022.1.1,35.214144248919624,
,,,,,6,0,6,0,9,0,9,0,,,,,,,,,,,,,,,,up,8000,-20,1.815390273850507e-05,-1,0,-1,-10,655.6122466667478,None,654.5618424999993,654.8943252000026,655.5620115000056,655.9049425000558,656.5654609000776,656.8930633000564,right,0,2.636969599989243,654.6287751999917,None,657.1067387000658,None,,,,,,,cbtxie,001,0,fr,2022-05-05_16h06.46.354,3-AFC_adaptive_staircase_mess,2022.1.1,35.214144248919624,
,,,,,6,0,6,0,10,0,10,0,,,,,,,,,,,,,,,,left,8000,-15,3.228271145173278e-05,1,1,1,5,658.815989866682,659.0462253000587,658.7634585000342,659.0771126000909,659.7748290000018,660.1032570000971,660.7666570000583,661.1033054,right,0,2.593646500026807,658.8326850000303,None,661.3375252999831,None,,,,,,,cbtxie,001,0,fr,2022-05-05_16h06.46.354,3-AFC_adaptive_staircase_mess,2022.1.1,35.214144248919624,
,,,,,6,0,6,0,11,0,11,0,,,,,,,,,,,,,,,,left,8000,-10,5.740768107484415e-05,1,1,1,5,662.984513366657,None,662.934902900015,663.2782328000758,663.9382583000697,664.2738790999865,664.9497853000648,665.2836342999944,left,1,2.61618799995631,663.0018028999912,None,665.4972332000034,None,,,,,,,cbtxie,001,0,fr,2022-05-05_16h06.46.354,3-AFC_adaptive_staircase_mess,2022.1.1,35.214144248919624,
,,,,,6,0,6,0,12,0,12,0,,,,,,,,,,,,,,,,right,8000,-10,5.740768107484415e-05,1,1,1,5,669.1604077667619,None,667.1202340000309,667.4435232999967,668.1098400000483,668.4437897000462,669.110054000048,669.4543525000336,up,0,2.70944119989872,667.1502506000688,None,669.6821021999931,None,,,,,,,cbtxie,001,0,fr,2022-05-05_16h06.46.354,3-AFC_adaptive_staircase_mess,2022.1.1,35.214144248919624,
,,,,,6,0,6,0,13,0,13,0,,,,,,,,,,,,,,,,up,8000,-5,0.00010208689723347648,1,1,1,5,672.434725066709,None,671.3806195000652,671.717410900048,672.3824967000401,672.7265387000516,673.383708700072,673.7199135000119,right,0,2.614140299963765,671.4522006000625,None,673.9534333000192,None,,,,,,,cbtxie,001,0,fr,2022-05-05_16h06.46.354,3-AFC_adaptive_staircase_mess,2022.1.1,35.214144248919624,
,,,,,6,0,6,0,14,0,14,0,,,,,,,,,,,,,,,,left,8000,0,0.0001815390273850507,1,1,1,5,675.6358083667621,None,675.5837122000521,675.9252683999948,None,None,None,None,left,1,0.5720802000723779,675.6537877999945,None,None,None,,,,,,,cbtxie,001,0,fr,2022-05-05_16h06.46.354,3-AFC_adaptive_staircase_mess,2022.1.1,35.214144248919624,
,,,,,6,0,6,0,15,0,15,0,,,,,,,,,,,,,,,,up,8000,0,0.0001815390273850507,1,1,1,5,678.8058677666743,None,677.7543358000694,678.088976600091,678.7552447000053,679.0896046999842,679.7512978999875,680.0898977000033,left,0,2.6474683999549598,677.8188729000976,None,680.3262745999964,None,,,,,,,cbtxie,001,0,fr,2022-05-05_16h06.46.354,3-AFC_adaptive_staircase_mess,2022.1.1,35.214144248919624,
,,,,,6,0,6,0,16,0,16,0,,,,,,,,,,,,,,,,left,8000,5,0.00032282711451732784,1,1,1,5,682.0412683666839,None,681.9916073000059,682.3358014000114,None,None,None,None,left,1,0.5838364999508485,682.0578636000864,None,None,None,,,,,,,cbtxie,001,0,fr,2022-05-05_16h06.46.354,3-AFC_adaptive_staircase_mess,2022.1.1,35.214144248919624,
,,,,,6,0,6,0,17,0,17,0,,,,,,,,,,,,,,,,right,8000,5,0.00032282711451732784,1,1,1,5,686.1833519667309,None,684.1605154999997,684.494522400084,685.1671628000913,685.498167200014,686.1666853000643,686.5089135000017,right,1,2.381233800086193,684.2285534000257,None,None,None,,,,,,,cbtxie,001,0,fr,2022-05-05_16h06.46.354,3-AFC_adaptive_staircase_mess,2022.1.1,35.214144248919624,
,,,,,6,0,6,0,18,0,18,0,,,,,,,,,,,,,,,,right,8000,-5,0.00010208689723347648,-1,2,-1,-5.0,690.1563233667441,690.3816873000469,688.1354671000736,688.4714524000883,689.1444897000911,689.4830084000714,690.1396567000775,690.4746004000772,left,0,2.6649398000445217,688.2016191000585,None,690.7057459000498,None,,,,,,,cbtxie,001,0,fr,2022-05-05_16h06.46.354,3-AFC_adaptive_staircase_mess,2022.1.1,35.214144248919624,
,,,,,6,0,6,0,19,0,19,0,,,,,,,,,,,,,,,,up,8000,-2.5,0.00013613506540389563,1,3,1,2.5,693.4163992667493,None,692.3797391999979,692.7179503000807,693.3699710000074,693.6883032000624,None,None,up,1,1.5611337999580428,692.4086733000586,None,None,None,,,,,,,cbtxie,001,0,fr,2022-05-05_16h06.46.354,3-AFC_adaptive_staircase_mess,2022.1.1,35.214144248919624,
,,,,,6,0,6,0,20,0,20,0,,,,,,,,,,,,,,,,left,8000,-2.5,0.00013613506540389563,1,3,1,2.5,695.4941561667404,None,695.4774895000737,695.8023879000684,None,None,None,None,left,1,0.6239188999170437,695.5058076999849,None,None,None,,,,,,,cbtxie,001,0,fr,2022-05-05_16h06.46.354,3-AFC_adaptive_staircase_mess,2022.1.1,35.214144248919624,
,,,,,6,0,6,0,21,0,21,0,,,,,,,,,,,,,,,,right,8000,-7.5,7.655437308410152e-05,-1,4,-1,-5.0,699.6998636667306,None,697.6414912000764,697.9743801000295,698.6428261999972,698.9786096999887,699.6494877000805,699.9863567000721,left,0,2.741163900005631,697.7095834000502,None,700.2130356000271,None,,,,,,,cbtxie,001,0,fr,2022-05-05_16h06.46.354,3-AFC_adaptive_staircase_mess,2022.1.1,35.214144248919624,
,,,,,6,0,6,0,22,0,22,0,,,,,,,,,,,,,,,,left,8000,-5.0,0.00010208689723347648,1,5,1,2.5,701.9904595667651,None,701.9404896000633,702.2830577000277,702.9609973999904,703.2792228000471,703.9505164000439,704.280536300037,left,1,2.874580700066872,702.0073402000125,None,704.5148740999866,None,,,,,,,cbtxie,001,0,fr,2022-05-05_16h06.46.354,3-AFC_adaptive_staircase_mess,2022.1.1,35.214144248919624,
,,,,,6,0,6,0,23,0,23,0,,,,,,,,,,,,,,,,left,8000,-5.0,0.00010208689723347648,1,5,1,2.5,706.4539731667066,None,706.4087522000773,706.7486963000847,707.4159920000238,707.7519373000832,708.428874000092,708.7488664999837,left,1,2.7366338000865653,706.4673174000345,None,708.9828376000514,None,,,,,,,cbtxie,001,0,fr,2022-05-05_16h06.46.354,3-AFC_adaptive_staircase_mess,2022.1.1,35.214144248919624,
,,,,,6,0,6,0,24,0,24,0,,,,,,,,,,,,,,,,right,8000,-10.0,5.740768107484415e-05,-1,6,-1,-5.0,712.7700539667314,None,710.7160036000423,711.0509302000282,711.7169098000741,712.0527060000459,712.7199060000712,713.063023100025,right,1,2.691115599940531,710.7828971000854,None,713.2801547000417,None,,,,,,,cbtxie,001,0,fr,2022-05-05_16h06.46.354,3-AFC_adaptive_staircase_mess,2022.1.1,35.214144248919624,
,,,,,7,0,7,0,0,0,0,0,,,,,,,,,,,,,[],[],10,up,750,30,0.0012851978913844323,0,0,-1,10,717.9782706667359,None,716.9467914000852,717.2939738000277,717.9273506000172,718.2667534000939,None,None,up,1,1.5518943999195471,716.9792196000926,None,None,None,right,1.8726870999671519,714.5606153000845,None,714.5606153000845,None,cbtxie,001,0,fr,2022-05-05_16h06.46.354,3-AFC_adaptive_staircase_mess,2022.1.1,35.214144248919624,
,,,,,7,0,7,0,1,0,1,0,,,,,,,,,,,,,,,,left,750,30,0.0012851978913844323,0,0,-1,10,720.1191021666784,None,720.0661855000071,720.4020304000005,None,None,None,None,left,1,0.5192422999534756,720.1385274000932,None,None,None,,,,,,,cbtxie,001,0,fr,2022-05-05_16h06.46.354,3-AFC_adaptive_staircase_mess,2022.1.1,35.214144248919624,
,,,,,7,0,7,0,2,0,2,0,,,,,,,,,,,,,,,,left,750,10,0.00012851978913844324,-1,0,-1,-10,722.2211976666624,722.4493518000236,722.1732286000624,722.5096809000243,723.168109600083,723.5086731000338,724.1720959000522,724.5063321000198,left,1,2.6325000999495387,722.2351652000798,None,724.7431500999955,None,,,,,,,cbtxie,001,0,fr,2022-05-05_16h06.46.354,3-AFC_adaptive_staircase_mess,2022.1.1,35.214144248919624,
,,,,,7,0,7,0,3,0,3,0,,,,,,,,,,,,,,,,up,750,10,0.00012851978913844324,-1,0,-1,-10,727.4292214667114,727.6587677000789,726.3788308000658,726.705780700082,727.3773686999921,727.7144075999968,None,None,up,1,1.5781064999755472,726.4397887000814,None,None,None,,,,,,,cbtxie,001,0,fr,2022-05-05_16h06.46.354,3-AFC_adaptive_staircase_mess,2022.1.1,35.214144248919624,
,,,,,7,0,7,0,4,0,4,0,,,,,,,,,,,,,,,,right,750,0,4.064152580820497e-05,-1,0,-1,-10,731.5930793666669,None,729.5374359000707,729.873323900043,730.5397916000802,730.8787434000988,731.5405498000327,731.881570000085,left,0,2.766965899965726,729.603119000094,None,732.1088115000166,None,,,,,,,cbtxie,001,0,fr,2022-05-05_16h06.46.354,3-AFC_adaptive_staircase_mess,2022.1.1,35.214144248919624,
,,,,,7,0,7,0,5,0,5,0,,,,,,,,,,,,,,,,left,750,5,7.22719885372964e-05,1,1,1,5,733.9266277667523,None,733.8768286000704,734.2168053000933,None,None,None,None,left,1,0.6468025000067428,733.9474836000009,None,None,None,,,,,,,cbtxie,001,0,fr,2022-05-05_16h06.46.354,3-AFC_adaptive_staircase_mess,2022.1.1,35.214144248919624,
,,,,,7,0,7,0,6,0,6,0,,,,,,,,,,,,,,,,left,750,5,7.22719885372964e-05,1,1,1,5,736.1580450666991,None,736.1085879000602,736.4449676000513,None,None,None,None,left,1,0.4520112000172958,736.1736827000277,None,None,None,,,,,,,cbtxie,001,0,fr,2022-05-05_16h06.46.354,3-AFC_adaptive_staircase_mess,2022.1.1,35.214144248919624,
,,,,,7,0,7,0,7,0,7,0,,,,,,,,,,,,,,,,right,750,-5,2.285440948074376e-05,-1,2,-1,-5.0,740.2033847666501,None,738.167073699995,738.4836858999915,739.1509594999952,739.4877024000743,740.1524849000853,740.4879224000033,left,0,4.04462619998958,738.1975037000375,None,740.7173876999877,None,,,,,,,cbtxie,001,0,fr,2022-05-05_16h06.46.354,3-AFC_adaptive_staircase_mess,2022.1.1,35.214144248919624,
,,,,,7,0,7,0,8,0,8,0,,,,,,,,,,,,,,,,left,750,-2.5,3.0476844862008466e-05,1,3,1,2.5,743.8034897667278,None,743.7534277000232,744.0938965000678,744.7573506000917,745.0911320000887,745.7573635000736,746.0958148000063,up,0,2.8194255001144484,743.822281400091,None,746.3268600000301,None,,,,,,,cbtxie,001,0,fr,2022-05-05_16h06.46.354,3-AFC_adaptive_staircase_mess,2022.1.1,35.214144248919624,
,,,,,7,0,7,0,9,0,9,0,,,,,,,,,,,,,,,,right,750,0.0,4.064152580820497e-05,1,3,1,2.5,750.1881491667048,None,748.1573881000513,748.4864214999834,749.1509485000279,749.4909420000622,750.1421235000016,750.4576855000341,right,1,2.5284589999355376,748.2263773999875,None,750.7035766000627,None,,,,,,,cbtxie,001,0,fr,2022-05-05_16h06.46.354,3-AFC_adaptive_staircase_mess,2022.1.1,35.214144248919624,
,,,,,7,0,7,0,10,0,10,0,,,,,,,,,,,,,,,,up,750,0.0,4.064152580820497e-05,1,3,1,2.5,753.3139449667108,None,752.289926800062,752.6257992000319,753.2972783000441,753.6346508000279,754.2715310000349,754.6010035000509,up,1,2.638903599930927,752.3227563999826,None,754.8368370000971,None,,,,,,,cbtxie,001,0,fr,2022-05-05_16h06.46.354,3-AFC_adaptive_staircase_mess,2022.1.1,35.214144248919624,
,,,,,7,0,7,0,11,0,11,0,,,,,,,,,,,,,,,,left,750,-5.0,2.285440948074376e-05,-1,4,-1,-5.0,756.5190181667606,None,756.4693433000939,756.8051829000469,757.4782656000461,757.8045167000964,758.4658666000469,758.8001591000939,left,1,2.6658158999634907,756.5356196000939,None,759.0351613000967,None,,,,,,,cbtxie,001,0,fr,2022-05-05_16h06.46.354,3-AFC_adaptive_staircase_mess,2022.1.1,35.214144248919624,
,,,,,7,0,7,0,12,0,12,0,,,,,,,,,,,,,,,,up,750,-5.0,2.285440948074376e-05,-1,4,-1,-5.0,761.7494725667095,761.9785858000396,760.7186992000788,761.0407164000208,761.6995426000794,762.0466947000241,762.7032147999853,763.0387665000744,left,0,2.5659218999790028,760.7485446000937,None,763.270748400013,None,,,,,,,cbtxie,001,0,fr,2022-05-05_16h06.46.354,3-AFC_adaptive_staircase_mess,2022.1.1,35.214144248919624,
,,,,,7,0,7,0,13,0,13,0,,,,,,,,,,,,,,,,up,750,-2.5,3.0476844862008466e-05,1,5,1,2.5,765.8895424666737,766.1187212000368,764.8363986000186,765.1723622999853,765.8393441000953,766.1802068999968,766.8423438000027,767.1737595000304,left,0,2.617722299997695,764.9037101999857,None,767.3988901000703,None,,,,,,,cbtxie,001,0,fr,2022-05-05_16h06.46.354,3-AFC_adaptive_staircase_mess,2022.1.1,35.214144248919624,
,,,,,7,0,7,0,14,0,14,0,,,,,,,,,,,,,,,,up,750,0.0,4.064152580820497e-05,1,5,1,2.5,770.0748633667283,None,769.0568901000079,769.3857369000325,770.0581967000617,770.3777856000233,771.0458118000533,771.3812478000764,left,0,2.867999800015241,769.0857132000383,None,771.6132661000593,None,,,,,,,cbtxie,001,0,fr,2022-05-05_16h06.46.354,3-AFC_adaptive_staircase_mess,2022.1.1,35.214144248919624,
,,,,,7,0,7,0,15,0,15,0,,,,,,,,,,,,,,,,up,750,2.5,5.419634570106019e-05,1,5,1,2.5,774.5361875667625,None,773.4691672000336,773.7893439000472,774.4863990000449,774.8126199999824,775.4881718000397,775.8170371000888,left,0,2.7589149000123143,773.5311147000175,None,776.0433163000271,None,,,,,,,cbtxie,001,0,fr,2022-05-05_16h06.46.354,3-AFC_adaptive_staircase_mess,2022.1.1,35.214144248919624,
,,,,,7,0,7,0,16,0,16,0,,,,,,,,,,,,,,,,left,750,5.0,7.22719885372964e-05,1,5,1,2.5,777.8410093667374,None,777.7948240000987,778.1347784000682,778.7845714000287,779.1186711000046,779.786402800004,780.1194565000478,left,1,2.7202950000064448,777.857131900033,None,780.3535563000478,None,,,,,,,cbtxie,001,0,fr,2022-05-05_16h06.46.354,3-AFC_adaptive_staircase_mess,2022.1.1,35.214144248919624,
,,,,,7,0,7,0,17,0,17,0,,,,,,,,,,,,,,,,up,750,5.0,7.22719885372964e-05,1,5,1,2.5,783.1404297666779,None,782.0868185000727,782.4272103999974,783.0906462999992,783.4317347999895,784.0728878000518,None,up,1,2.1200715999584645,782.1533903999953,None,None,None,,,,,,,cbtxie,001,0,fr,2022-05-05_16h06.46.354,3-AFC_adaptive_staircase_mess,2022.1.1,35.214144248919624,
,,,,,7,0,7,0,18,0,18,0,,,,,,,,,,,,,,,,up,750,0.0,4.064152580820497e-05,-1,6,-1,-5.0,786.8102571666861,None,785.776861099992,786.0992285000393,786.7935905000195,787.1330068000825,787.7839487000601,788.1254744000034,up,1,2.9644066999899223,785.8383033000864,None,788.3295654000249,None,,,,,,,cbtxie,001,0,fr,2022-05-05_16h06.46.354,3-AFC_adaptive_staircase_mess,2022.1.1,35.214144248919624,
,,,,,8,0,8,0,0,0,0,0,,,,,,,,,,,,,[],[],10,left,500,30,0.002259279721874612,0,0,-1,10,791.9747411667524,None,791.927412900026,792.2691633000504,None,None,None,None,left,1,0.7336698999861255,791.9887888000812,None,None,None,up,1.560080699971877,789.8975898000645,None,789.8975898000645,None,cbtxie,001,0,fr,2022-05-05_16h06.46.354,3-AFC_adaptive_staircase_mess,2022.1.1,35.214144248919624,
,,,,,8,0,8,0,1,0,1,0,,,,,,,,,,,,,,,,left,500,30,0.002259279721874612,0,0,-1,10,794.2896373667211,None,794.2404664000496,794.5690181000391,None,None,None,None,left,1,0.48230599996168166,794.3040069000563,None,None,None,,,,,,,cbtxie,001,0,fr,2022-05-05_16h06.46.354,3-AFC_adaptive_staircase_mess,2022.1.1,35.214144248919624,
,,,,,8,0,8,0,2,0,2,0,,,,,,,,,,,,,,,,left,500,10,0.0002259279721874612,-1,0,-1,-10,796.3602309666496,None,796.3135640000692,796.6386432000436,797.3003514000447,797.6376771000214,798.3022853999864,798.6396895000944,left,1,2.7772673999425024,796.3764298000606,None,798.856148299994,None,,,,,,,cbtxie,001,0,fr,2022-05-05_16h06.46.354,3-AFC_adaptive_staircase_mess,2022.1.1,35.214144248919624,
,,,,,8,0,8,0,3,0,3,0,,,,,,,,,,,,,,,,left,500,10,0.0002259279721874612,-1,0,-1,-10,800.72654096672,None,800.6794930000324,801.0157633000053,801.6911823999835,802.0353528000414,802.67563469999,803.0089028000366,left,1,2.7822840000735596,800.7399571000133,None,803.2429658999899,None,,,,,,,cbtxie,001,0,fr,2022-05-05_16h06.46.354,3-AFC_adaptive_staircase_mess,2022.1.1,35.214144248919624,
,,,,,8,0,8,0,4,0,4,0,,,,,,,,,,,,,,,,left,500,0,7.144469792555515e-05,-1,0,-1,-10,805.1047461666788,None,805.0542743999977,805.3756016000407,806.0585342000704,806.3923070000019,807.0725255000871,807.4105528000509,left,1,2.752694600028917,805.1215109000914,None,807.6205691000214,None,,,,,,,cbtxie,001,0,fr,2022-05-05_16h06.46.354,3-AFC_adaptive_staircase_mess,2022.1.1,35.214144248919624,
,,,,,8,0,8,0,5,0,5,0,,,,,,,,,,,,,,,,up,500,0,7.144469792555515e-05,-1,0,-1,-10,810.4264023666658,None,809.3960700000171,809.7261336999945,810.3794633999933,810.7233499999857,811.3963814000599,811.7150351000018,left,0,2.803189400001429,809.423201900092,None,811.9524534000084,None,,,,,,,cbtxie,001,0,fr,2022-05-05_16h06.46.354,3-AFC_adaptive_staircase_mess,2022.1.1,35.214144248919624,
,,,,,8,0,8,0,6,0,6,0,,,,,,,,,,,,,,,,right,500,5,0.00012704863527746526,1,1,1,5,815.7774315666795,None,813.7379929000745,814.0704968000064,814.7627094000345,815.0960766000208,815.7607649000129,816.0978311999934,right,1,2.8773650999646634,813.7972912000259,None,816.3134900000878,None,,,,,,,cbtxie,001,0,fr,2022-05-05_16h06.46.354,3-AFC_adaptive_staircase_mess,2022.1.1,35.214144248919624,
,,,,,8,0,8,0,7,0,7,0,,,,,,,,,,,,,,,,up,500,5,0.00012704863527746526,1,1,1,5,819.2485457667538,819.4735208000056,818.2220051999902,818.5541197999846,819.2318791000871,819.5647100000642,820.2182209000457,820.558455600054,left,0,2.69431369996164,818.2512360000983,None,820.7733660000376,None,,,,,,,cbtxie,001,0,fr,2022-05-05_16h06.46.354,3-AFC_adaptive_staircase_mess,2022.1.1,35.214144248919624,
,,,,,8,0,8,0,8,0,8,0,,,,,,,,,,,,,,,,right,500,10,0.0002259279721874612,1,1,1,5,824.5123912667079,None,822.4961345000193,822.8297925000079,823.4931393000297,823.8317889000755,824.4957246000413,824.8394882000284,right,1,2.483251199941151,822.5262796999887,None,825.0213139000116,None,,,,,,,cbtxie,001,0,fr,2022-05-05_16h06.46.354,3-AFC_adaptive_staircase_mess,2022.1.1,35.214144248919624,
,,,,,8,0,8,0,9,0,9,0,,,,,,,,,,,,,,,,left,500,10,0.0002259279721874612,1,1,1,5,826.558109466747,None,826.5414428000804,826.8819390999852,827.5400664000772,827.8763412000844,828.5186106000328,828.8591208000435,left,1,2.725503799971193,826.573549700086,None,829.0682202000171,None,,,,,,,cbtxie,001,0,fr,2022-05-05_16h06.46.354,3-AFC_adaptive_staircase_mess,2022.1.1,35.214144248919624,
,,,,,8,0,8,0,10,0,10,0,,,,,,,,,,,,,,,,left,500,0,7.144469792555515e-05,-1,2,-1,-5.0,830.8590094666617,None,830.8423427999951,831.1797077000374,831.8173390000593,832.1621122000506,832.8377550999867,833.1578529000981,left,1,2.649505399982445,830.872223500046,None,833.3663774000015,None,,,,,,,cbtxie,001,0,fr,2022-05-05_16h06.46.354,3-AFC_adaptive_staircase_mess,2022.1.1,35.214144248919624,
,,,,,8,0,8,0,11,0,11,0,,,,,,,,,,,,,,,,left,500,0,7.144469792555515e-05,-1,2,-1,-5.0,835.080371566761,None,835.0213701000903,835.3441852000542,836.0357014000183,836.3713755999925,837.0322392000817,837.3614530999912,right,0,2.730759899946861,835.0951040000655,None,837.5910347000463,None,,,,,,,cbtxie,001,0,fr,2022-05-05_16h06.46.354,3-AFC_adaptive_staircase_mess,2022.1.1,35.214144248919624,
,,,,,8,0,8,0,12,0,12,0,,,,,,,,,,,,,,,,right,500,2.5,9.527303589816237e-05,1,3,1,2.5,841.3922571667392,841.6216330000898,839.3504864000715,839.6625669000205,840.3633175999857,840.6825480000116,841.3755905000726,841.7132892000955,right,1,2.6402034999337047,839.4096407000907,None,841.9405835000798,None,,,,,,,cbtxie,001,0,fr,2022-05-05_16h06.46.354,3-AFC_adaptive_staircase_mess,2022.1.1,35.214144248919624,
,,,,,8,0,8,0,13,0,13,0,,,,,,,,,,,,,,,,left,500,2.5,9.527303589816237e-05,1,3,1,2.5,843.5968095666651,None,843.5443406000268,843.8641133999918,844.5470424999949,844.885376600083,845.5542722000973,845.9043798000785,left,1,2.724548500031233,843.6131928000832,None,846.1138099000091,None,,,,,,,cbtxie,001,0,fr,2022-05-05_16h06.46.354,3-AFC_adaptive_staircase_mess,2022.1.1,35.214144248919624,
,,,,,8,0,8,0,14,0,14,0,,,,,,,,,,,,,,,,right,500,-2.5,5.357596526188033e-05,-1,4,-1,-5.0,849.9021068666518,850.1347107000183,847.8498657000018,848.1838223000523,848.8516471000621,849.1708074000198,849.851916500018,850.1647272000555,left,0,2.7733105000806972,847.9166049000341,None,850.4208916000789,None,,,,,,,cbtxie,001,0,fr,2022-05-05_16h06.46.354,3-AFC_adaptive_staircase_mess,2022.1.1,35.214144248919624,
,,,,,8,0,8,0,15,0,15,0,,,,,,,,,,,,,,,,left,500,0.0,7.144469792555515e-05,1,5,1,2.5,852.2377644667324,None,852.1859651000705,852.5315513000824,853.1896916000405,853.5233583000954,854.1907427000115,854.5246201000409,left,1,2.691313900053501,852.2543165000388,None,854.759466700023,None,,,,,,,cbtxie,001,0,fr,2022-05-05_16h06.46.354,3-AFC_adaptive_staircase_mess,2022.1.1,35.214144248919624,
,,,,,8,0,8,0,16,0,16,0,,,,,,,,,,,,,,,,left,500,0.0,7.144469792555515e-05,1,5,1,2.5,856.4759655667624,None,856.4592989000957,856.7728676000843,857.4526999000227,857.7772850000765,858.4538631000323,858.7811196000548,left,1,2.772198999999091,856.4933989000274,None,859.0223422000417,None,,,,,,,cbtxie,001,0,fr,2022-05-05_16h06.46.354,3-AFC_adaptive_staircase_mess,2022.1.1,35.214144248919624,
,,,,,8,0,8,0,17,0,17,0,,,,,,,,,,,,,,,,up,500,-5.0,4.017630610928089e-05,-1,6,-1,-5.0,861.8024420666663,None,860.7571453000419,861.080643500085,861.7857753999997,862.1152932000114,862.7747127000475,863.1013575000688,left,0,2.6594967000419274,860.8141214000061,None,863.3334747999907,None,,,,,,,cbtxie,001,0,fr,2022-05-05_16h06.46.354,3-AFC_adaptive_staircase_mess,2022.1.1,35.214144248919624,
,,,,,9,0,9,0,0,0,0,0,,,,,,,,,,,,,[],[],10,left,250,30,0.005296268625886445,0,0,-1,10,866.7850923666886,None,866.7392150000669,867.0796810000902,None,None,None,None,left,1,0.606783099938184,866.802383900038,None,None,None,up,1.691574800061062,864.5661389000015,None,864.5661389000015,None,cbtxie,001,0,fr,2022-05-05_16h06.46.354,3-AFC_adaptive_staircase_mess,2022.1.1,35.214144248919624,
,,,,,9,0,9,0,1,0,1,0,,,,,,,,,,,,,,,,left,250,30,0.005296268625886445,0,0,-1,10,868.9890513667526,869.2211484999862,868.972384700086,869.3120124000125,None,None,None,None,left,1,0.35569590004161,869.0058725000126,None,None,None,,,,,,,cbtxie,001,0,fr,2022-05-05_16h06.46.354,3-AFC_adaptive_staircase_mess,2022.1.1,35.214144248919624,
,,,,,9,0,9,0,2,0,2,0,,,,,,,,,,,,,,,,right,250,10,0.0005296268625886444,-1,0,-1,-10,872.8928713667594,None,870.8587053000228,871.175276300055,871.875096200034,872.2088809000561,872.8762047000928,873.2164920000359,right,1,2.5118208000203595,870.9144067000598,None,873.4107880000956,None,,,,,,,cbtxie,001,0,fr,2022-05-05_16h06.46.354,3-AFC_adaptive_staircase_mess,2022.1.1,35.214144248919624,
,,,,,9,0,9,0,3,0,3,0,,,,,,,,,,,,,,,,up,250,10,0.0005296268625886444,-1,0,-1,-10,875.9959735667255,None,874.9481261000037,875.2799167000921,875.9456731000682,876.2584060000954,876.9454472000943,877.2821020000847,left,0,2.71829119999893,875.0112685000058,None,877.5150562000927,None,,,,,,,cbtxie,001,0,fr,2022-05-05_16h06.46.354,3-AFC_adaptive_staircase_mess,2022.1.1,35.214144248919624,
,,,,,9,0,9,0,4,0,4,0,,,,,,,,,,,,,,,,up,250,15,0.0009418245447449003,1,1,1,5,880.2850277666623,None,879.2476381000597,879.5831918000476,880.2362857999979,880.5841390000423,None,None,up,1,1.5654294999549165,879.3160899000941,None,None,None,,,,,,,cbtxie,001,0,fr,2022-05-05_16h06.46.354,3-AFC_adaptive_staircase_mess,2022.1.1,35.214144248919624,
,,,,,9,0,9,0,5,0,5,0,,,,,,,,,,,,,,,,up,250,15,0.0009418245447449003,1,1,1,5,883.4374543666529,883.6689372999826,882.3848483000183,882.7202954000095,883.3872148999944,883.7295577999903,None,None,up,1,1.3896086999448016,882.4523875000887,None,None,None,,,,,,,cbtxie,001,0,fr,2022-05-05_16h06.46.354,3-AFC_adaptive_staircase_mess,2022.1.1,35.214144248919624,
,,,,,9,0,9,0,6,0,6,0,,,,,,,,,,,,,,,,left,250,5,0.0002978310717645052,-1,2,-1,-5.0,885.3902321666867,None,885.3414082000963,885.6896776000503,886.3570116000483,886.6915443000617,887.3570571000455,887.6914649000391,left,1,2.7106706000631675,885.4029213000322,None,887.9265644000843,None,,,,,,,cbtxie,001,0,fr,2022-05-05_16h06.46.354,3-AFC_adaptive_staircase_mess,2022.1.1,35.214144248919624,
,,,,,9,0,9,0,7,0,7,0,,,,,,,,,,,,,,,,left,250,5,0.0002978310717645052,-1,2,-1,-5.0,889.6745643667566,None,889.6246494000079,889.9397401000606,890.6266299000708,890.9617485000053,891.6353577000555,891.9644372999901,left,1,2.77427599998191,889.6915260000387,None,892.1980069000274,None,,,,,,,cbtxie,001,0,fr,2022-05-05_16h06.46.354,3-AFC_adaptive_staircase_mess,2022.1.1,35.214144248919624,
,,,,,9,0,9,0,8,0,8,0,,,,,,,,,,,,,,,,up,250,0.0,0.0001674827195789138,-1,2,-1,-5.0,895.0185250667312,None,893.9617549000541,894.2959082000889,894.9658963000402,895.3013369999826,895.9678277000785,896.302334100008,left,0,2.7480518999509513,894.0213854000904,None,896.5374199000653,None,,,,,,,cbtxie,001,0,fr,2022-05-05_16h06.46.354,3-AFC_adaptive_staircase_mess,2022.1.1,35.214144248919624,
,,,,,9,0,9,0,9,0,9,0,,,,,,,,,,,,,,,,left,250,2.5,0.0002233417960754815,1,3,1,2.5,898.3205240667487,898.5534697000403,898.2686840000097,898.5837727000471,899.2731344000204,899.6036556999898,900.2737548000878,900.5996357999975,left,1,2.6256205000681803,898.3365167999873,None,900.8283976000967,None,,,,,,,cbtxie,001,0,fr,2022-05-05_16h06.46.354,3-AFC_adaptive_staircase_mess,2022.1.1,35.214144248919624,
,,,,,9,0,9,0,10,0,10,0,,,,,,,,,,,,,,,,up,250,2.5,0.0002233417960754815,1,3,1,2.5,903.5274291666612,903.7568026999943,902.4728080000496,902.8097015999956,903.4769067000598,903.821976999985,904.4764773000497,904.8107016000431,left,0,2.725692300009541,902.5399695000378,None,905.0451809000224,None,,,,,,,cbtxie,001,0,fr,2022-05-05_16h06.46.354,3-AFC_adaptive_staircase_mess,2022.1.1,35.214144248919624,
,,,,,9,0,9,0,11,0,11,0,,,,,,,,,,,,,,,,right,250,5.0,0.0002978310717645052,1,3,1,2.5,908.8308426667393,None,906.7749553000322,907.1099050000776,907.779090700089,908.1136000000406,908.7809482000303,909.1275282000424,right,1,2.538797000073828,906.8388160000322,None,909.3489531000378,None,,,,,,,cbtxie,001,0,fr,2022-05-05_16h06.46.354,3-AFC_adaptive_staircase_mess,2022.1.1,35.214144248919624,
,,,,,9,0,9,0,12,0,12,0,,,,,,,,,,,,,,,,up,250,5.0,0.0002978310717645052,1,3,1,2.5,911.9334548666995,None,910.881034500082,911.2169530000538,911.8831685000332,912.2308037000475,912.8840989000164,913.2209742000559,right,0,2.667902800021693,910.9493114000652,None,913.4306907000719,None,,,,,,,cbtxie,001,0,fr,2022-05-05_16h06.46.354,3-AFC_adaptive_staircase_mess,2022.1.1,35.214144248919624,
,,,,,9,0,9,0,13,0,13,0,,,,,,,,,,,,,,,,up,250,7.5,0.0003971641173621407,1,3,1,2.5,916.155989366762,None,915.1097232000902,915.4342313000234,916.1071478000376,916.4540763000259,917.1056976000546,917.4325877000811,left,0,3.6506240000016987,915.1670422999887,None,917.6688814000227,None,,,,,,,cbtxie,001,0,fr,2022-05-05_16h06.46.354,3-AFC_adaptive_staircase_mess,2022.1.1,35.214144248919624,
,,,,,9,0,9,0,14,0,14,0,,,,,,,,,,,,,,,,up,250,10.0,0.0005296268625886444,1,3,1,2.5,921.3640253666711,None,920.323699700064,920.6603747000918,921.317294800072,921.6622528000735,None,None,up,1,1.5774750000564381,920.3929233000381,None,None,None,,,,,,,cbtxie,001,0,fr,2022-05-05_16h06.46.354,3-AFC_adaptive_staircase_mess,2022.1.1,35.214144248919624,
,,,,,9,0,9,0,15,0,15,0,,,,,,,,,,,,,,,,left,250,10.0,0.0005296268625886444,1,3,1,2.5,923.5334536666671,None,923.4862341000699,923.8317167999921,924.4966333000921,924.8328469999833,925.4964887000388,925.8316951000597,left,1,2.6973493000259623,923.5443958000978,None,926.0653865000932,None,,,,,,,cbtxie,001,0,fr,2022-05-05_16h06.46.354,3-AFC_adaptive_staircase_mess,2022.1.1,35.214144248919624,
,,,,,9,0,9,0,16,0,16,0,,,,,,,,,,,,,,,,up,250,5.0,0.0002978310717645052,-1,4,-1,-5.0,928.8180115667094,None,927.7691901000217,928.10088370007,928.7670028000139,929.0797524000518,929.7671443000436,930.1015349000227,left,0,2.6499935999745503,927.8314072000794,None,930.3317505000159,None,,,,,,,cbtxie,001,0,fr,2022-05-05_16h06.46.354,3-AFC_adaptive_staircase_mess,2022.1.1,35.214144248919624,
,,,,,9,0,9,0,17,0,17,0,,,,,,,,,,,,,,,,up,250,7.5,0.0003971641173621407,1,5,1,2.5,933.0460114667114,None,932.0124112000922,932.3391590000829,933.0000980000477,933.3401974000735,934.0018661000067,934.3395652000327,left,0,2.695184800075367,932.0425497000106,None,934.5654128000606,None,,,,,,,cbtxie,001,0,fr,2022-05-05_16h06.46.354,3-AFC_adaptive_staircase_mess,2022.1.1,35.214144248919624,
,,,,,9,0,9,0,18,0,18,0,,,,,,,,,,,,,,,,up,250,10.0,0.0005296268625886444,1,5,1,2.5,937.285104566665,None,936.2407265000511,936.5744903000304,937.2397571000038,937.5787301000673,None,None,up,1,1.664832100039348,936.3047483999981,None,None,None,,,,,,,cbtxie,001,0,fr,2022-05-05_16h06.46.354,3-AFC_adaptive_staircase_mess,2022.1.1,35.214144248919624,
,,,,,9,0,9,0,19,0,19,0,,,,,,,,,,,,,,,,right,250,10.0,0.0005296268625886444,1,5,1,2.5,941.5031559667007,None,939.4834849000908,939.8128159000771,940.4709198999917,940.813367200084,941.486489300034,941.8190706000896,right,1,2.4254741000477225,939.5449678000296,None,None,None,,,,,,,cbtxie,001,0,fr,2022-05-05_16h06.46.354,3-AFC_adaptive_staircase_mess,2022.1.1,35.214144248919624,
,,,,,9,0,9,0,20,0,20,0,,,,,,,,,,,,,,,,up,250,5.0,0.0002978310717645052,-1,6,-1,-5.0,944.5196433667481,None,943.492108500097,943.8240534000797,944.4739764999831,944.8166255000979,945.4821654000552,945.8163155000657,up,1,2.5592375999549404,943.5223458000692,None,946.0302881000098,None,,,,,,,cbtxie,001,0,fr,2022-05-05_16h06.46.354,3-AFC_adaptive_staircase_mess,2022.1.1,35.214144248919624,
,,,,,10,0,10,0,0,0,0,0,,,,,,,,,,,,,[],[],10,left,125,30,0.02285440948074376,0,0,-1,10,948.4940044667494,None,948.448753500008,948.7900691000978,None,None,None,None,left,1,0.5512140999780968,948.506417100085,None,None,None,up,0.8323248999658972,947.1535739999963,None,947.1535739999963,None,cbtxie,001,0,fr,2022-05-05_16h06.46.354,3-AFC_adaptive_staircase_mess,2022.1.1,35.214144248919624,
,,,,,10,0,10,0,1,0,1,0,,,,,,,,,,,,,,,,left,125,30,0.02285440948074376,0,0,-1,10,950.5820488667271,None,950.5653822000604,950.8909387000604,None,None,None,None,left,1,0.38224669999908656,950.5954053000314,None,None,None,,,,,,,cbtxie,001,0,fr,2022-05-05_16h06.46.354,3-AFC_adaptive_staircase_mess,2022.1.1,35.214144248919624,
,,,,,10,0,10,0,2,0,2,0,,,,,,,,,,,,,,,,left,125,10,0.002285440948074376,-1,0,-1,-10,952.5425715667118,None,952.4896983000217,952.8050285000354,953.4955808999948,953.8284745999845,954.4939380000578,954.8286832000595,left,1,2.7866337000159547,952.5592956000473,None,955.0339037000667,None,,,,,,,cbtxie,001,0,fr,2022-05-05_16h06.46.354,3-AFC_adaptive_staircase_mess,2022.1.1,35.214144248919624,
,,,,,10,0,10,0,3,0,3,0,,,,,,,,,,,,,,,,right,125,10,0.002285440948074376,-1,0,-1,-10,958.9162088666965,None,956.8620628000936,957.1967439000728,957.8741677000653,958.1988565000938,958.8652428000933,959.2122007000726,right,1,2.367216599988751,956.9302023000782,None,None,None,,,,,,,cbtxie,001,0,fr,2022-05-05_16h06.46.354,3-AFC_adaptive_staircase_mess,2022.1.1,35.214144248919624,
,,,,,10,0,10,0,4,0,4,0,,,,,,,,,,,,,,,,up,125,0,0.000722719885372964,-1,0,-1,-10,961.8538828667408,962.0803214000771,960.8011236999882,961.1369292000309,961.8021772000939,962.1421975999838,962.8079422999872,963.1401748000644,left,0,2.669654499972239,960.8679914000677,None,963.3735786000034,None,,,,,,,cbtxie,001,0,fr,2022-05-05_16h06.46.354,3-AFC_adaptive_staircase_mess,2022.1.1,35.214144248919624,
,,,,,10,0,10,0,5,0,5,0,,,,,,,,,,,,,,,,right,125,5,0.0012851978913844323,1,1,1,5,967.1265858667359,None,965.0718629000476,965.4073496999918,966.071599500021,966.4091148000443,967.0764212000649,967.3895784000633,left,0,2.686266899923794,965.1397159000626,None,967.6423818999901,None,,,,,,,cbtxie,001,0,fr,2022-05-05_16h06.46.354,3-AFC_adaptive_staircase_mess,2022.1.1,35.214144248919624,
,,,,,10,0,10,0,6,0,6,0,,,,,,,,,,,,,,,,up,125,10,0.002285440948074376,1,1,1,5,970.3966116667182,None,969.3339993000263,969.6738791000098,970.3451624000445,970.6575679000234,971.3430211000377,971.675147300004,right,0,2.5932555000763386,969.3919700999977,None,971.9129180000164,None,,,,,,,cbtxie,001,0,fr,2022-05-05_16h06.46.354,3-AFC_adaptive_staircase_mess,2022.1.1,35.214144248919624,
,,,,,10,0,10,0,7,0,7,0,,,,,,,,,,,,,,,,right,125,15,0.004064152580820497,1,1,1,5,975.545621966656,None,973.5101413000375,973.8403401999967,974.5138433000538,974.82539490005,975.5005106000463,975.8335263000336,right,1,2.5090636999811977,973.5403817000333,None,976.047875200049,None,,,,,,,cbtxie,001,0,fr,2022-05-05_16h06.46.354,3-AFC_adaptive_staircase_mess,2022.1.1,35.214144248919624,
,,,,,10,0,10,0,8,0,8,0,,,,,,,,,,,,,,,,right,125,15,0.004064152580820497,1,1,1,5,979.6225912667035,None,977.5814571999945,977.9183971000602,978.5868987999856,978.9210453000851,979.5767628999893,979.923357599997,right,1,2.4344224999658763,977.647558900062,None,None,None,,,,,,,cbtxie,001,0,fr,2022-05-05_16h06.46.354,3-AFC_adaptive_staircase_mess,2022.1.1,35.214144248919624,
,,,,,10,0,10,0,9,0,9,0,,,,,,,,,,,,,,,,left,125,5,0.0012851978913844323,-1,2,-1,-5.0,981.6202565667375,None,981.6035899000708,981.9226839999901,982.5901901000179,982.9253690000623,983.589251400088,983.9266318000155,right,0,2.5795534000499174,981.6311775000067,None,984.160328200087,None,,,,,,,cbtxie,001,0,fr,2022-05-05_16h06.46.354,3-AFC_adaptive_staircase_mess,2022.1.1,35.214144248919624,
,,,,,10,0,10,0,10,0,10,0,,,,,,,,,,,,,,,,right,125,7.5,0.0017138389327322524,1,3,1,2.5,987.7774987667256,None,985.7244018000783,986.0612955000252,986.7245059000561,987.0619635999901,987.7273410999915,988.0709526999854,right,1,2.5809976999880746,985.7900417000055,None,988.2963834999828,None,,,,,,,cbtxie,001,0,fr,2022-05-05_16h06.46.354,3-AFC_adaptive_staircase_mess,2022.1.1,35.214144248919624,
,,,,,10,0,10,0,11,0,11,0,,,,,,,,,,,,,,,,left,125,7.5,0.0017138389327322524,1,3,1,2.5,989.9333426666601,None,989.8880801000632,990.2312303000363,990.89824400004,991.2357135000639,991.907747099991,992.2356293000048,up,0,2.6632444999413565,989.9465195999946,None,992.4675272000022,None,,,,,,,cbtxie,001,0,fr,2022-05-05_16h06.46.354,3-AFC_adaptive_staircase_mess,2022.1.1,35.214144248919624,
,,,,,10,0,10,0,12,0,12,0,,,,,,,,,,,,,,,,up,125,10.0,0.002285440948074376,1,3,1,2.5,995.1641504667389,None,994.146561200032,994.4701111000031,995.1474838000722,995.4717720000772,None,None,up,1,1.696660100016743,994.177181600011,None,None,None,,,,,,,cbtxie,001,0,fr,2022-05-05_16h06.46.354,3-AFC_adaptive_staircase_mess,2022.1.1,35.214144248919624,
,,,,,10,0,10,0,13,0,13,0,,,,,,,,,,,,,,,,right,125,10.0,0.002285440948074376,1,3,1,2.5,999.457414466717,None,997.3949107000371,997.7402947000228,998.4066327000037,998.7417045000475,999.4066282000858,999.7481785999844,right,1,2.4833208000054583,997.4541627999861,None,999.9665278000757,None,,,,,,,cbtxie,001,0,fr,2022-05-05_16h06.46.354,3-AFC_adaptive_staircase_mess,2022.1.1,35.214144248919624,
,,,,,10,0,10,0,14,0,14,0,,,,,,,,,,,,,,,,up,125,5.0,0.0012851978913844323,-1,4,-1,-5.0,1002.5269449666996,None,1001.461956800078,1001.7769591000397,1002.4765699000563,1002.8161861000117,1003.4765845000511,1003.8120042000664,left,0,2.736886899918318,1001.521305500064,None,1004.0458007000852,None,,,,,,,cbtxie,001,0,fr,2022-05-05_16h06.46.354,3-AFC_adaptive_staircase_mess,2022.1.1,35.214144248919624,
,,,,,10,0,10,0,15,0,15,0,,,,,,,,,,,,,,,,up,125,7.5,0.0017138389327322524,1,5,1,2.5,1006.8076228666507,None,1005.774047999992,1006.116733300034,1006.7909561999841,1007.1160276000155,1007.7829900000943,None,up,1,2.139044899959117,1005.8324463000754,None,None,None,,,,,,,cbtxie,001,0,fr,2022-05-05_16h06.46.354,3-AFC_adaptive_staircase_mess,2022.1.1,35.214144248919624,
,,,,,10,0,10,0,16,0,16,0,,,,,,,,,,,,,,,,right,125,7.5,0.0017138389327322524,1,5,1,2.5,1011.511556966758,None,1009.4949905000394,1009.8200141000561,1010.497542600031,1010.8207982000895,1011.4948903000914,1011.8223156000022,right,1,2.619809100055136,1009.5253959000111,None,1012.0253009999869,None,,,,,,,cbtxie,001,0,fr,2022-05-05_16h06.46.354,3-AFC_adaptive_staircase_mess,2022.1.1,35.214144248919624,
,,,,,10,0,10,0,17,0,17,0,,,,,,,,,,,,,,,,left,125,2.5,0.0009637624565954683,-1,6,-1,-5.0,1013.7075725667567,1013.9327479000203,1013.6554138000356,1013.996038399986,1014.6612586000701,1014.9972691000439,1015.6617045000894,1015.9941537000705,left,1,2.790736399940215,1013.7233950000955,None,1016.2282965000486,None,,,,,,,cbtxie,001,0,fr,2022-05-05_16h06.46.354,3-AFC_adaptive_staircase_mess,2022.1.1,35.214144248919624,
,,,,,,,,,,,,,,,,,,,,,,,,,,,,,,,,,,,,,,,,,,,,,,,,,,,left,0.8044128998881206,1017.5976446000859,None,1017.5976446000859,None,,,,,,,,,
