frequencies,training_trials.thisRepN,training_trials.thisTrialN,training_trials.thisN,training_trials.thisIndex,frequencies.thisRepN,frequencies.thisTrialN,frequencies.thisN,frequencies.thisIndex,trials.thisRepN,trials.thisTrialN,trials.thisN,trials.thisIndex,tFrequency,tLevel,tCorrect,Tprobe.started,Tprobe.stopped,tTriangle_cue.started,tTriangle_cue.stopped,Tfeedback.keys,Tfeedback.corr,Tfeedback.rt,Tfeedback.started,Tfeedback.stopped,reversals_nTrials.routineEndVal,track_dir.routineEndVal,step_up.routineEndVal,Correct,Frequency,Level,Psychopy_Level,Direction,Reversals,Track_dir,Step,probe.started,probe.stopped,cross_cue.started,cross_cue.stopped,circle_cue.started,circle_cue.stopped,triangle_cue.started,triangle_cue.stopped,feedback.keys,feedback.corr,feedback.rt,feedback.started,feedback.stopped,memo.started,memo.stopped,key_resp.keys,key_resp.rt,key_resp.started,key_resp.stopped,text.started,text.stopped,participant,session,skip_training,language (english or french),date,expName,psychopyVersion,frameRate,
200,0,0,0,0,,,,,,,,,200,30,right,49.95802486670824,None,49.91258859995287,50.25310430000536,right,1,3.3125805999152362,47.4790763000492,None,,,,,,,,,,,,,,,,,,,,,,,,,,,,,,,,,rdzaqd,001,0,fr,2022-05-06_14h16.33.025,3-AFC_adaptive_staircase_mess,2022.1.1,35.524470867393255,
1300,0,1,1,3,,,,,,,,,1300,30,left,54.317704066696265,None,None,None,left,1,1.5052522999467328,53.86390450003091,None,,,,,,,,,,,,,,,,,,,,,,,,,,,,,,,,,rdzaqd,001,0,fr,2022-05-06_14h16.33.025,3-AFC_adaptive_staircase_mess,2022.1.1,35.524470867393255,
450,0,2,2,1,,,,,,,,,450,30,right,61.452689666712345,None,61.40544610004872,61.739638500032015,right,1,2.9906235000817105,58.969185399939306,None,,,,,,,,,,,,,,,,,,,,,,,,,,,,,,,,,rdzaqd,001,0,fr,2022-05-06_14h16.33.025,3-AFC_adaptive_staircase_mess,2022.1.1,35.524470867393255,
850,0,3,3,2,,,,,,,,,850,30,left,64.7624244666115,None,None,None,left,1,1.1125439999159425,64.30454409995582,None,,,,,,,,,,,,,,,,,,,,,,,,,,,,,,,,,rdzaqd,001,0,fr,2022-05-06_14h16.33.025,3-AFC_adaptive_staircase_mess,2022.1.1,35.524470867393255,
5000,0,4,4,4,,,,,,,,,5000,30,right,70.03050056664894,None,69.9812910000328,70.31479790003505,right,1,2.9269636999815702,67.54555349994916,None,,,,,,,,,,,,,,,,,,,,,,,,,,,,,,,,,rdzaqd,001,0,fr,2022-05-06_14h16.33.025,3-AFC_adaptive_staircase_mess,2022.1.1,35.524470867393255,
,,,,,0,0,0,0,0,0,0,0,,,,,,,,,,,,,[],[],10,up,1000,30,0.0013930605843148849,0,0,-1,10,78.71199216664924,None,77.67226819996722,77.98808669997379,78.69532549998257,79.03276940004434,None,None,up,1,1.4575311000226066,77.7355121000437,None,None,None,,,,,,,rdzaqd,001,0,fr,2022-05-06_14h16.33.025,3-AFC_adaptive_staircase_mess,2022.1.1,35.524470867393255,
,,,,,0,0,0,0,1,0,1,0,,,,,,,,,,,,,,,,up,1000,30,0.0013930605843148849,0,0,-1,10,81.71563206665839,None,80.69977840001229,81.02698480000254,81.69896539999172,82.03992430004291,None,None,up,1,1.4430379000259563,80.72628119995352,None,None,None,,,,,,,rdzaqd,001,0,fr,2022-05-06_14h16.33.025,3-AFC_adaptive_staircase_mess,2022.1.1,35.524470867393255,
,,,,,0,0,0,0,2,0,2,0,,,,,,,,,,,,,,,,up,1000,10,0.00013930605843148847,-1,0,-1,-10,84.71563536668351,None,83.67330489994492,83.99827550002374,84.6709357999498,85.00684109993745,None,None,up,1,1.3809357000282034,83.73136340000201,None,None,None,,,,,,,rdzaqd,001,0,fr,2022-05-06_14h16.33.025,3-AFC_adaptive_staircase_mess,2022.1.1,35.524470867393255,
,,,,,0,0,0,0,3,0,3,0,,,,,,,,,,,,,,,,left,1000,10,0.00013930605843148847,-1,0,-1,-10,86.6684941666356,None,86.62341869994998,86.9681023999583,None,None,None,None,left,1,0.6063536999281496,86.68299550004303,None,None,None,,,,,,,rdzaqd,001,0,fr,2022-05-06_14h16.33.025,3-AFC_adaptive_staircase_mess,2022.1.1,35.524470867393255,
,,,,,0,0,0,0,4,0,4,0,,,,,,,,,,,,,,,,left,1000,0,4.405244365040069e-05,-1,0,-1,-10,88.85472616664289,89.08172440005,88.80972939997446,89.14206640003249,89.81055499997456,90.13506590004545,90.81343360000756,91.13911959994584,right,0,3.028801599983126,88.86700710002333,None,91.3442363999784,None,,,,,,,rdzaqd,001,0,fr,2022-05-06_14h16.33.025,3-AFC_adaptive_staircase_mess,2022.1.1,35.524470867393255,
,,,,,0,0,0,0,5,0,5,0,,,,,,,,,,,,,,,,right,1000,5,7.833755350540742e-05,1,1,1,5,95.4511508666367,None,93.41110579995438,93.73457710002549,94.40751020004973,94.73184739996213,95.40662120003253,95.73425610002596,right,1,2.570830399985425,93.46986499999184,None,95.96852009999566,None,,,,,,,rdzaqd,001,0,fr,2022-05-06_14h16.33.025,3-AFC_adaptive_staircase_mess,2022.1.1,35.524470867393255,
,,,,,0,0,0,0,6,0,6,0,,,,,,,,,,,,,,,,right,1000,5,7.833755350540742e-05,1,1,1,5,99.57364786666973,None,97.54637720005121,97.86612809996586,98.54966370004695,98.88756679999642,99.55698120000307,99.88219839998055,right,1,2.3591691000619903,97.601639600005,None,None,None,,,,,,,rdzaqd,001,0,fr,2022-05-06_14h16.33.025,3-AFC_adaptive_staircase_mess,2022.1.1,35.524470867393255,
,,,,,0,0,0,0,7,0,7,0,,,,,,,,,,,,,,,,right,1000,-5,2.4772509540239506e-05,-1,2,-1,-5.0,103.48931306664987,None,101.48548060003668,101.80909809994046,102.45277550001629,102.77616050001234,103.4726463999832,103.80426899995655,right,1,2.3181217999663204,101.5146178000141,None,None,None,,,,,,,rdzaqd,001,0,fr,2022-05-06_14h16.33.025,3-AFC_adaptive_staircase_mess,2022.1.1,35.524470867393255,
,,,,,0,0,0,0,8,0,8,0,,,,,,,,,,,,,,,,up,1000,-5,2.4772509540239506e-05,-1,2,-1,-5.0,106.3702370667054,None,105.330408000038,105.6647238000296,106.32647059997544,106.65155119996052,107.32197079993784,107.6439234999707,right,0,2.346458200016059,105.35803919995669,None,None,None,,,,,,,rdzaqd,001,0,fr,2022-05-06_14h16.33.025,3-AFC_adaptive_staircase_mess,2022.1.1,35.524470867393255,
,,,,,0,0,0,0,9,0,9,0,,,,,,,,,,,,,,,,right,1000,-2.5,3.303467240037979e-05,1,3,1,2.5,None,None,109.22580539993942,109.55971619999036,110.24104390002321,110.5656073000282,None,None,up,0,1.3195754999760538,109.29631350003183,None,None,None,,,,,,,rdzaqd,001,0,fr,2022-05-06_14h16.33.025,3-AFC_adaptive_staircase_mess,2022.1.1,35.524470867393255,
,,,,,0,0,0,0,10,0,10,0,,,,,,,,,,,,,,,,right,1000,0.0,4.405244365040069e-05,1,3,1,2.5,114.18078646663731,None,112.13370969996322,112.46008270001039,113.12817130004987,113.47129779995885,114.13512170000467,114.46165449998807,right,1,3.241268999991007,112.1917500999989,None,114.66788239998277,None,,,,,,,rdzaqd,001,0,fr,2022-05-06_14h16.33.025,3-AFC_adaptive_staircase_mess,2022.1.1,35.524470867393255,
,,,,,0,0,0,0,11,0,11,0,,,,,,,,,,,,,,,,right,1000,0.0,4.405244365040069e-05,1,3,1,2.5,118.98648436664759,None,116.95656570000574,117.28110539994668,117.9520267000189,118.2702411999926,118.94955569994636,119.28027640003711,right,1,2.3695289999013767,117.0148967000423,None,None,None,,,,,,,rdzaqd,001,0,fr,2022-05-06_14h16.33.025,3-AFC_adaptive_staircase_mess,2022.1.1,35.524470867393255,
,,,,,0,0,0,0,12,0,12,0,,,,,,,,,,,,,,,,right,1000,-5.0,2.4772509540239506e-05,-1,4,-1,-5.0,122.91258936660985,None,120.88049180002417,121.2048017999623,121.87078160000965,122.19563660002314,122.86804600001778,123.19696129998192,right,1,2.8148652999661863,120.9380529000191,None,123.43111809995025,None,,,,,,,rdzaqd,001,0,fr,2022-05-06_14h16.33.025,3-AFC_adaptive_staircase_mess,2022.1.1,35.524470867393255,
,,,,,0,0,0,0,13,0,13,0,,,,,,,,,,,,,,,,right,1000,-5.0,2.4772509540239506e-05,-1,4,-1,-5.0,127.28317846666711,None,125.24426069995388,125.5684902999783,126.24511629994959,126.56517560000066,127.23693260003347,127.563081100001,left,0,2.688540200004354,125.30418630002532,None,127.79619280004408,None,,,,,,,rdzaqd,001,0,fr,2022-05-06_14h16.33.025,3-AFC_adaptive_staircase_mess,2022.1.1,35.524470867393255,
,,,,,0,0,0,0,14,0,14,0,,,,,,,,,,,,,,,,right,1000,-2.5,3.303467240037979e-05,1,5,1,2.5,None,None,129.48090219998267,129.8062157999957,130.48128169996198,130.80511089996435,None,None,left,0,1.3329681999748573,129.5389590000268,None,None,None,,,,,,,rdzaqd,001,0,fr,2022-05-06_14h16.33.025,3-AFC_adaptive_staircase_mess,2022.1.1,35.524470867393255,
,,,,,0,0,0,0,15,0,15,0,,,,,,,,,,,,,,,,up,1000,0.0,4.405244365040069e-05,1,5,1,2.5,133.4435652666182,None,132.396137899952,132.73047459998634,133.39678169996478,133.7356282999972,None,None,up,1,1.533803700003773,132.45910580002237,None,None,None,,,,,,,rdzaqd,001,0,fr,2022-05-06_14h16.33.025,3-AFC_adaptive_staircase_mess,2022.1.1,35.524470867393255,
,,,,,0,0,0,0,16,0,16,0,,,,,,,,,,,,,,,,up,1000,0.0,4.405244365040069e-05,1,5,1,2.5,136.5582258667021,None,135.5212707000319,135.8450545000378,136.5121194999665,136.85196370002814,None,None,up,1,1.677823600010015,135.57953760004602,None,None,None,,,,,,,rdzaqd,001,0,fr,2022-05-06_14h16.33.025,3-AFC_adaptive_staircase_mess,2022.1.1,35.524470867393255,
,,,,,0,0,0,0,17,0,17,0,,,,,,,,,,,,,,,,right,1000,-5.0,2.4772509540239506e-05,-1,6,-1,-5.0,140.79223326669697,None,138.75570480001625,139.08181639993563,139.75059279997367,140.07469699997455,140.74731789994985,None,up,0,2.0727716999826953,138.81491369998548,None,None,None,,,,,,,rdzaqd,001,0,fr,2022-05-06_14h16.33.025,3-AFC_adaptive_staircase_mess,2022.1.1,35.524470867393255,
,,,,,1,0,1,0,0,0,0,0,,,,,,,,,,,,,[],[],10,left,1500,30,0.001527460556607757,0,0,1,10,144.26681366662186,None,144.2208509000484,144.55145609995816,145.2199561999878,145.54335249995347,146.21489329996984,146.53084879997186,right,0,2.688805100042373,144.27909009996802,None,146.77878529997543,None,space,1.7538018999621272,141.98186920001172,None,141.98186920001172,None,rdzaqd,001,0,fr,2022-05-06_14h16.33.025,3-AFC_adaptive_staircase_mess,2022.1.1,35.524470867393255,
,,,,,1,0,1,0,1,0,1,0,,,,,,,,,,,,,,,,right,1500,40,0.004830254394949068,1,0,1,10,150.5333668667047,None,148.4931991000194,148.81473220000044,149.48517749994062,149.801084500039,150.4886753000319,150.8243159999838,right,1,2.4010916999541223,148.5521996000316,None,None,None,,,,,,,rdzaqd,001,0,fr,2022-05-06_14h16.33.025,3-AFC_adaptive_staircase_mess,2022.1.1,35.524470867393255,
,,,,,1,0,1,0,2,0,2,0,,,,,,,,,,,,,,,,right,1500,40,0.004830254394949068,1,0,1,10,154.5246972666976,None,152.4850447999779,152.807230800041,153.50825089996215,153.82932280004025,154.475672999979,154.80716940003913,right,1,2.3123281999723986,152.54403610003646,None,None,None,,,,,,,rdzaqd,001,0,fr,2022-05-06_14h16.33.025,3-AFC_adaptive_staircase_mess,2022.1.1,35.524470867393255,
,,,,,1,0,1,0,3,0,3,0,,,,,,,,,,,,,,,,right,1500,20,0.00048302543949490677,-1,1,-1,-10,158.40732556669198,None,156.3636245999951,156.69071540003642,157.3668558000354,157.6899157000007,158.3614988999907,158.69490849995054,right,1,2.2587109999731183,156.42186290002428,None,None,None,,,,,,,rdzaqd,001,0,fr,2022-05-06_14h16.33.025,3-AFC_adaptive_staircase_mess,2022.1.1,35.524470867393255,
,,,,,1,0,1,0,4,0,4,0,,,,,,,,,,,,,,,,up,1500,20,0.00048302543949490677,-1,1,-1,-10,161.2415866666163,None,160.1997591999825,160.52981600002386,161.19348290003836,161.52947169996332,None,None,right,0,1.4430420999415219,160.26108940003905,None,None,None,,,,,,,rdzaqd,001,0,fr,2022-05-06_14h16.33.025,3-AFC_adaptive_staircase_mess,2022.1.1,35.524470867393255,
,,,,,1,0,1,0,5,0,5,0,,,,,,,,,,,,,,,,up,1500,25,0.0008589541935787943,1,2,1,2.5,None,None,163.2326998000499,None,None,None,None,None,up,1,-1.3209058999782428,163.28164980001748,None,None,None,,,,,,,rdzaqd,001,0,fr,2022-05-06_14h16.33.025,3-AFC_adaptive_staircase_mess,2022.1.1,35.524470867393255,
,,,,,1,0,1,0,6,0,6,0,,,,,,,,,,,,,,,,up,1500,25,0.0008589541935787943,1,2,1,2.5,165.83550086670246,None,164.79654619994108,165.12238509999588,165.79033500002697,166.11973919998854,None,None,up,1,1.3904112000018358,164.85794080002233,None,None,None,,,,,,,rdzaqd,001,0,fr,2022-05-06_14h16.33.025,3-AFC_adaptive_staircase_mess,2022.1.1,35.524470867393255,
,,,,,1,0,1,0,7,0,7,0,,,,,,,,,,,,,,,,right,1500,20.0,0.00048302543949490677,-1,3,-1,-5.0,169.7971704666891,None,167.76575030002277,168.0890443000244,168.76191989996005,169.08264449995477,169.7505516000092,None,right,1,2.2625183999771252,167.79400560003705,None,None,None,,,,,,,rdzaqd,001,0,fr,2022-05-06_14h16.33.025,3-AFC_adaptive_staircase_mess,2022.1.1,35.524470867393255,
,,,,,1,0,1,0,8,0,8,0,,,,,,,,,,,,,,,,left,1500,20.0,0.00048302543949490677,-1,3,-1,-5.0,171.60135436669614,None,171.5553602,171.8813242999604,None,None,None,None,left,1,0.5543631000909954,171.61446089996025,None,None,None,,,,,,,rdzaqd,001,0,fr,2022-05-06_14h16.33.025,3-AFC_adaptive_staircase_mess,2022.1.1,35.524470867393255,
,,,,,1,0,1,0,9,0,9,0,,,,,,,,,,,,,,,,right,1500,15.0,0.00027162516574621667,-1,3,-1,-5.0,175.68474306661327,None,173.65706929995213,173.9923936999403,174.6462086000247,174.9719558999641,175.66807639994659,175.9946097000502,right,1,2.2765250999946147,173.71622309996746,None,None,None,,,,,,,rdzaqd,001,0,fr,2022-05-06_14h16.33.025,3-AFC_adaptive_staircase_mess,2022.1.1,35.524470867393255,
,,,,,1,0,1,0,10,0,10,0,,,,,,,,,,,,,,,,up,1500,15.0,0.00027162516574621667,-1,3,-1,-5.0,178.53198366664972,None,177.49802599998657,177.82161530002486,178.48691109998617,178.82107659999747,None,None,up,1,1.445832600002177,177.5539648999693,None,None,None,,,,,,,rdzaqd,001,0,fr,2022-05-06_14h16.33.025,3-AFC_adaptive_staircase_mess,2022.1.1,35.524470867393255,
,,,,,1,0,1,0,11,0,11,0,,,,,,,,,,,,,,,,left,1500,10.0,0.0001527460556607757,-1,3,-1,-5.0,180.5726627666193,None,180.52831359999254,180.85301700001583,None,None,None,None,left,1,0.512455000076443,180.5840170000447,None,None,None,,,,,,,rdzaqd,001,0,fr,2022-05-06_14h16.33.025,3-AFC_adaptive_staircase_mess,2022.1.1,35.524470867393255,
,,,,,1,0,1,0,12,0,12,0,,,,,,,,,,,,,,,,right,1500,10.0,0.0001527460556607757,-1,3,-1,-5.0,184.64772696671233,None,182.5964083999861,182.91630759998225,183.6127255000174,183.93439800001215,184.6016356999753,184.927919400041,right,1,2.2504269999917597,182.65433329995722,None,None,None,,,,,,,rdzaqd,001,0,fr,2022-05-06_14h16.33.025,3-AFC_adaptive_staircase_mess,2022.1.1,35.524470867393255,
,,,,,1,0,1,0,13,0,13,0,,,,,,,,,,,,,,,,right,1500,5.0,8.589541935787943e-05,-1,3,-1,-5.0,188.46823726670507,None,186.4289027999621,186.7523160999408,187.42445990000851,187.7502145000035,188.4203214000445,188.76087869994808,right,1,2.3057600000174716,186.48639269999694,None,None,None,,,,,,,rdzaqd,001,0,fr,2022-05-06_14h16.33.025,3-AFC_adaptive_staircase_mess,2022.1.1,35.524470867393255,
,,,,,1,0,1,0,14,0,14,0,,,,,,,,,,,,,,,,right,1500,5.0,8.589541935787943e-05,-1,3,-1,-5.0,192.3525515666154,None,190.3156252000481,190.63860039995052,191.33798499999102,191.6625355000142,192.33588489994872,192.66364189994056,right,1,2.3398850000230595,190.3733922999818,None,None,None,,,,,,,rdzaqd,001,0,fr,2022-05-06_14h16.33.025,3-AFC_adaptive_staircase_mess,2022.1.1,35.524470867393255,
,,,,,1,0,1,0,15,0,15,0,,,,,,,,,,,,,,,,left,1500,0.0,4.830254394949071e-05,-1,3,-1,-5.0,194.26178216661017,None,194.21593519998714,194.54909059999045,195.21278669999447,195.53358519996982,196.22953579993919,196.5612562999595,right,0,2.3416071999818087,194.2745710000163,None,None,None,,,,,,,rdzaqd,001,0,fr,2022-05-06_14h16.33.025,3-AFC_adaptive_staircase_mess,2022.1.1,35.524470867393255,
,,,,,1,0,1,0,16,0,16,0,,,,,,,,,,,,,,,,left,1500,2.5,6.441247758465671e-05,1,4,1,2.5,198.156596366611,None,198.11049899994396,198.44166100001894,None,None,None,None,left,1,0.6729613000061363,198.16785149998032,None,None,None,,,,,,,rdzaqd,001,0,fr,2022-05-06_14h16.33.025,3-AFC_adaptive_staircase_mess,2022.1.1,35.524470867393255,
,,,,,1,0,1,0,17,0,17,0,,,,,,,,,,,,,,,,right,1500,2.5,6.441247758465671e-05,1,4,1,2.5,202.42129946669255,None,200.36855989997275,200.71226279996336,201.3732993999729,201.70356449997053,202.37213909998536,202.71082789998036,up,0,2.5055292999604717,200.4311218999792,None,202.9248907000292,None,,,,,,,rdzaqd,001,0,fr,2022-05-06_14h16.33.025,3-AFC_adaptive_staircase_mess,2022.1.1,35.524470867393255,
,,,,,1,0,1,0,18,0,18,0,,,,,,,,,,,,,,,,up,1500,5.0,8.589541935787943e-05,1,4,1,2.5,205.49884316669002,None,204.4505429000128,204.78159909998067,205.45263900002465,205.77829579997342,None,None,up,1,1.5319117000326514,204.50864799995907,None,None,None,,,,,,,rdzaqd,001,0,fr,2022-05-06_14h16.33.025,3-AFC_adaptive_staircase_mess,2022.1.1,35.524470867393255,
,,,,,1,0,1,0,19,0,19,0,,,,,,,,,,,,,,,,right,1500,5.0,8.589541935787943e-05,1,4,1,2.5,209.56958796660572,None,207.53710009995848,207.8578699999489,208.53123910003342,208.8536587000126,209.52330749994144,209.851035199943,right,1,2.4909309000940993,207.59717019996606,None,210.08839159994386,None,,,,,,,rdzaqd,001,0,fr,2022-05-06_14h16.33.025,3-AFC_adaptive_staircase_mess,2022.1.1,35.524470867393255,
,,,,,1,0,1,0,20,0,20,0,,,,,,,,,,,,,,,,right,1500,0.0,4.830254394949071e-05,-1,5,-1,-5.0,213.63518976670846,None,211.58732429996599,211.9219150999561,212.59382209996693,212.9220621000277,213.589771799976,213.91835079994053,right,1,2.40708089992404,211.64840629999526,None,None,None,,,,,,,rdzaqd,001,0,fr,2022-05-06_14h16.33.025,3-AFC_adaptive_staircase_mess,2022.1.1,35.524470867393255,
,,,,,1,0,1,0,21,0,21,0,,,,,,,,,,,,,,,,left,1500,0.0,4.830254394949071e-05,-1,5,-1,-5.0,215.61511786660802,None,215.57035059994087,215.89058739994653,216.56037700001616,None,None,None,left,1,0.9427197000477463,215.62616570002865,None,None,None,,,,,,,rdzaqd,001,0,fr,2022-05-06_14h16.33.025,3-AFC_adaptive_staircase_mess,2022.1.1,35.524470867393255,
,,,,,1,0,1,0,22,0,22,0,,,,,,,,,,,,,,,,right,1500,-5.0,2.716251657462168e-05,-1,5,-1,-5.0,220.1182135666643,None,218.09409999998752,218.4306028999854,219.10085569997318,219.43192350002937,220.10154689999763,220.43482640001457,right,1,2.622481400030665,218.15389329998288,None,220.64293269999325,None,,,,,,,rdzaqd,001,0,fr,2022-05-06_14h16.33.025,3-AFC_adaptive_staircase_mess,2022.1.1,35.524470867393255,
,,,,,1,0,1,0,23,0,23,0,,,,,,,,,,,,,,,,up,1500,-5.0,2.716251657462168e-05,-1,5,-1,-5.0,223.34700516664114,None,222.30307449994143,222.6276794000296,223.30190920003224,223.6361493000295,224.31399910000619,224.63761299999896,left,0,2.542393399984576,222.36222000000998,None,224.8439495000057,None,,,,,,,rdzaqd,001,0,fr,2022-05-06_14h16.33.025,3-AFC_adaptive_staircase_mess,2022.1.1,35.524470867393255,
,,,,,1,0,1,0,24,0,24,0,,,,,,,,,,,,,,,,right,1500,-2.5,3.622179800374953e-05,1,6,1,2.5,228.4412905666434,None,226.39411280001514,226.72702610003762,227.396075299941,227.72560799994972,228.39452380000148,228.73256050003693,up,0,2.4151324999984354,226.45696680003311,None,None,None,,,,,,,rdzaqd,001,0,fr,2022-05-06_14h16.33.025,3-AFC_adaptive_staircase_mess,2022.1.1,35.524470867393255,
,,,,,2,0,2,0,0,0,0,0,,,,,,,,,,,,,[],[],10,right,2000,30,0.0023657562948074026,0,0,-1,10,234.27573746670194,None,232.22410039999522,232.55033570004161,233.22861019999254,233.5532137999544,234.23127170000225,234.5723647000268,right,1,2.3812277000397444,232.28355870000087,None,None,None,space,1.7763191999401897,229.97555670002475,None,229.97555670002475,None,rdzaqd,001,0,fr,2022-05-06_14h16.33.025,3-AFC_adaptive_staircase_mess,2022.1.1,35.524470867393255,
,,,,,2,0,2,0,1,0,1,0,,,,,,,,,,,,,,,,right,2000,30,0.0023657562948074026,0,0,-1,10,238.22480566666152,None,236.1794443000108,236.5106403999962,237.1833178999368,237.50714280002285,238.1779023000272,238.51273329998367,right,1,2.297517400002107,236.23898699996062,None,None,None,,,,,,,rdzaqd,001,0,fr,2022-05-06_14h16.33.025,3-AFC_adaptive_staircase_mess,2022.1.1,35.524470867393255,
,,,,,2,0,2,0,2,0,2,0,,,,,,,,,,,,,,,,right,2000,10,0.00023657562948074026,-1,0,-1,-10,242.06039526669,None,240.04034329997376,240.37014769995585,241.04590459994506,241.36696659994777,242.04372860002331,242.379639999941,right,1,2.2623449999373406,240.0986952999374,None,None,None,,,,,,,rdzaqd,001,0,fr,2022-05-06_14h16.33.025,3-AFC_adaptive_staircase_mess,2022.1.1,35.524470867393255,
,,,,,2,0,2,0,3,0,3,0,,,,,,,,,,,,,,,,right,2000,10,0.00023657562948074026,-1,0,-1,-10,245.90689926670555,None,243.88528599997517,244.21217780001462,244.8828872999875,245.2202319999924,245.89023260003887,246.21684669994283,right,1,2.430280299973674,243.91394879994914,None,None,None,,,,,,,rdzaqd,001,0,fr,2022-05-06_14h16.33.025,3-AFC_adaptive_staircase_mess,2022.1.1,35.524470867393255,
,,,,,2,0,2,0,4,0,4,0,,,,,,,,,,,,,,,,left,2000,0,7.481178280472168e-05,-1,0,-1,-10,247.90961206664022,None,247.89294539997354,248.21969619998708,248.87388219998684,249.20776250003837,249.88297200005036,250.21554909995757,right,0,3.047384100034833,247.9213841999881,None,250.44778479996603,None,,,,,,,rdzaqd,001,0,fr,2022-05-06_14h16.33.025,3-AFC_adaptive_staircase_mess,2022.1.1,35.524470867393255,
,,,,,2,0,2,0,5,0,5,0,,,,,,,,,,,,,,,,left,2000,5,0.0001330362529899405,1,1,1,5,252.55075316661194,None,252.50493759999517,252.81935490004253,None,None,None,None,left,1,0.37217310001142323,252.56371410004795,None,None,None,,,,,,,rdzaqd,001,0,fr,2022-05-06_14h16.33.025,3-AFC_adaptive_staircase_mess,2022.1.1,35.524470867393255,
,,,,,2,0,2,0,6,0,6,0,,,,,,,,,,,,,,,,left,2000,5,0.0001330362529899405,1,1,1,5,254.47847726667922,None,254.46181060001254,254.79075859999284,None,None,None,None,left,1,0.4933352000080049,254.49075989995617,None,None,None,,,,,,,rdzaqd,001,0,fr,2022-05-06_14h16.33.025,3-AFC_adaptive_staircase_mess,2022.1.1,35.524470867393255,
,,,,,2,0,2,0,7,0,7,0,,,,,,,,,,,,,,,,left,2000,-5,4.206975708225974e-05,-1,2,-1,-5.0,256.54152716667545,None,256.49377960001584,256.8290860999841,257.4784897000063,257.7926835999824,258.47971059998963,258.81786529999226,up,0,2.5073099000146613,256.55740449996665,None,259.0571839000331,None,,,,,,,rdzaqd,001,0,fr,2022-05-06_14h16.33.025,3-AFC_adaptive_staircase_mess,2022.1.1,35.524470867393255,
,,,,,2,0,2,0,8,0,8,0,,,,,,,,,,,,,,,,right,2000,-2.5,5.610092271509818e-05,1,3,1,2.5,262.6443662666172,None,260.59528719994705,260.9283818999538,261.6004063000437,261.9377315000165,262.59703389997594,262.93830579996575,up,0,2.4104639000725,260.65334049996454,None,None,None,,,,,,,rdzaqd,001,0,fr,2022-05-06_14h16.33.025,3-AFC_adaptive_staircase_mess,2022.1.1,35.524470867393255,
,,,,,2,0,2,0,9,0,9,0,,,,,,,,,,,,,,,,right,2000,0.0,7.481178280472168e-05,1,3,1,2.5,None,None,264.59593319997657,None,None,None,None,None,right,1,-1.2373422000091523,264.65280179993715,None,None,None,,,,,,,rdzaqd,001,0,fr,2022-05-06_14h16.33.025,3-AFC_adaptive_staircase_mess,2022.1.1,35.524470867393255,
,,,,,2,0,2,0,10,0,10,0,,,,,,,,,,,,,,,,up,2000,0.0,7.481178280472168e-05,1,3,1,2.5,267.18703946663686,None,266.1645025999751,266.4920433999505,267.1703727999702,267.48222949996125,None,None,right,0,1.5471554000396281,266.221544799977,None,None,None,,,,,,,rdzaqd,001,0,fr,2022-05-06_14h16.33.025,3-AFC_adaptive_staircase_mess,2022.1.1,35.524470867393255,
,,,,,2,0,2,0,11,0,11,0,,,,,,,,,,,,,,,,left,2000,2.5,9.976311574844399e-05,1,3,1,2.5,269.3025417666106,None,269.2569032999454,None,None,None,None,None,up,0,-1.4188809000188485,269.31535589997657,None,None,None,,,,,,,rdzaqd,001,0,fr,2022-05-06_14h16.33.025,3-AFC_adaptive_staircase_mess,2022.1.1,35.524470867393255,
,,,,,2,0,2,0,12,0,12,0,,,,,,,,,,,,,,,,left,2000,5.0,0.0001330362529899405,1,3,1,2.5,270.87362286664234,None,270.82931189995725,271.17169460002333,None,None,None,None,left,1,0.46717840002384037,270.8851724000415,None,None,None,,,,,,,rdzaqd,001,0,fr,2022-05-06_14h16.33.025,3-AFC_adaptive_staircase_mess,2022.1.1,35.524470867393255,
,,,,,2,0,2,0,13,0,13,0,,,,,,,,,,,,,,,,right,2000,5.0,0.0001330362529899405,1,3,1,2.5,None,None,272.8845335999504,273.2238777000457,273.8755725999363,274.20888509997167,None,None,up,0,1.8491514000343159,272.91195890004747,None,None,None,,,,,,,rdzaqd,001,0,fr,2022-05-06_14h16.33.025,3-AFC_adaptive_staircase_mess,2022.1.1,35.524470867393255,
,,,,,2,0,2,0,14,0,14,0,,,,,,,,,,,,,,,,left,2000,7.5,0.00017740669461678777,1,3,1,2.5,276.3248313667175,None,276.2782512999838,276.6189144999953,None,None,None,None,left,1,0.5197181000839919,276.33628739998676,None,None,None,,,,,,,rdzaqd,001,0,fr,2022-05-06_14h16.33.025,3-AFC_adaptive_staircase_mess,2022.1.1,35.524470867393255,
,,,,,2,0,2,0,15,0,15,0,,,,,,,,,,,,,,,,up,2000,7.5,0.00017740669461678777,1,3,1,2.5,279.4096977667107,None,278.3706130000064,278.70490669994615,279.393031100044,279.7281855000183,None,None,up,1,1.3548047000076622,278.429255999974,None,None,None,,,,,,,rdzaqd,001,0,fr,2022-05-06_14h16.33.025,3-AFC_adaptive_staircase_mess,2022.1.1,35.524470867393255,
,,,,,2,0,2,0,16,0,16,0,,,,,,,,,,,,,,,,left,2000,2.5,9.976311574844399e-05,-1,4,-1,-5.0,281.33400326670767,None,281.2850206999574,281.6221339999465,None,None,None,None,left,1,0.6254031000426039,281.3508011000231,None,None,None,,,,,,,rdzaqd,001,0,fr,2022-05-06_14h16.33.025,3-AFC_adaptive_staircase_mess,2022.1.1,35.524470867393255,
,,,,,2,0,2,0,17,0,17,0,,,,,,,,,,,,,,,,left,2000,2.5,9.976311574844399e-05,-1,4,-1,-5.0,283.5244249666032,None,283.47594319994096,283.79246359993704,None,None,None,None,left,1,0.5187678000656888,283.53773410001304,None,None,None,,,,,,,rdzaqd,001,0,fr,2022-05-06_14h16.33.025,3-AFC_adaptive_staircase_mess,2022.1.1,35.524470867393255,
,,,,,2,0,2,0,18,0,18,0,,,,,,,,,,,,,,,,up,2000,-2.5,5.610092271509818e-05,-1,4,-1,-5.0,286.62006436667093,None,285.57789379998576,285.92128809995484,286.5742955999449,286.89090120000765,None,None,up,1,1.3959197000367567,285.6359635000117,None,None,None,,,,,,,rdzaqd,001,0,fr,2022-05-06_14h16.33.025,3-AFC_adaptive_staircase_mess,2022.1.1,35.524470867393255,
,,,,,2,0,2,0,19,0,19,0,,,,,,,,,,,,,,,,right,2000,-2.5,5.610092271509818e-05,-1,4,-1,-5.0,290.5915669666758,None,288.55857909994666,288.87364799994975,289.559667399968,289.89385889994446,290.5484735999489,290.8814600999467,right,1,2.4253547000698745,288.59111779998057,None,None,None,,,,,,,rdzaqd,001,0,fr,2022-05-06_14h16.33.025,3-AFC_adaptive_staircase_mess,2022.1.1,35.524470867393255,
,,,,,2,0,2,0,20,0,20,0,,,,,,,,,,,,,,,,up,2000,-7.5,3.154786722400965e-05,-1,4,-1,-5.0,293.5372086666214,None,292.52612269995734,292.8620299999602,293.52054199995473,293.83459740004037,294.50343189993873,294.82030899997335,right,0,2.6838376000523567,292.5563521999866,None,295.0649224999361,None,,,,,,,rdzaqd,001,0,fr,2022-05-06_14h16.33.025,3-AFC_adaptive_staircase_mess,2022.1.1,35.524470867393255,
,,,,,2,0,2,0,21,0,21,0,,,,,,,,,,,,,,,,right,2000,-5.0,4.206975708225974e-05,1,5,1,2.5,298.8202997666706,None,296.75620910001453,297.088794899988,297.7530392999761,298.0861007999629,298.77052539994475,299.0820226999931,up,0,2.809930599993095,296.81505640002433,None,299.3258580999682,None,,,,,,,rdzaqd,001,0,fr,2022-05-06_14h16.33.025,3-AFC_adaptive_staircase_mess,2022.1.1,35.524470867393255,
,,,,,2,0,2,0,22,0,22,0,,,,,,,,,,,,,,,,right,2000,-2.5,5.610092271509818e-05,1,5,1,2.5,303.1893895666037,None,301.12736669997685,301.46637369995005,302.1333272999618,302.4707061999943,303.1404203999555,303.4767490000231,right,1,2.374259400065057,301.18595499999356,None,None,None,,,,,,,rdzaqd,001,0,fr,2022-05-06_14h16.33.025,3-AFC_adaptive_staircase_mess,2022.1.1,35.524470867393255,
,,,,,2,0,2,0,23,0,23,0,,,,,,,,,,,,,,,,left,2000,-2.5,5.610092271509818e-05,1,5,1,2.5,305.1107749667174,None,305.0646052999655,305.4069292000495,None,None,None,None,left,1,0.7402939000166953,305.12353910005186,None,None,None,,,,,,,rdzaqd,001,0,fr,2022-05-06_14h16.33.025,3-AFC_adaptive_staircase_mess,2022.1.1,35.524470867393255,
,,,,,2,0,2,0,24,0,24,0,,,,,,,,,,,,,,,,up,2000,-7.5,3.154786722400965e-05,-1,6,-1,-5.0,308.4255053667041,None,307.3661226000404,307.709329699981,308.3763725999743,308.71862569998484,None,None,up,1,1.4629300000378862,307.4248442000244,None,None,None,,,,,,,rdzaqd,001,0,fr,2022-05-06_14h16.33.025,3-AFC_adaptive_staircase_mess,2022.1.1,35.524470867393255,
,,,,,3,0,3,0,0,0,0,0,,,,,,,,,,,,,[],[],10,right,3000,30,0.001733684252262658,0,0,-1,10,314.1565533666328,None,312.11263430002145,312.44781479996163,313.13092549995054,313.4488462000154,314.10752209997736,314.45264729997143,right,1,2.3783216999145225,312.17490510002244,None,None,None,space,1.6588887000689283,309.9812679999741,None,309.9812679999741,None,rdzaqd,001,0,fr,2022-05-06_14h16.33.025,3-AFC_adaptive_staircase_mess,2022.1.1,35.524470867393255,
,,,,,3,0,3,0,1,0,1,0,,,,,,,,,,,,,,,,left,3000,30,0.001733684252262658,0,0,-1,10,316.13456926664026,None,316.0858925000066,316.42227640002966,None,None,None,None,left,1,0.5453433999791741,316.1506561000133,None,None,None,,,,,,,rdzaqd,001,0,fr,2022-05-06_14h16.33.025,3-AFC_adaptive_staircase_mess,2022.1.1,35.524470867393255,
,,,,,3,0,3,0,2,0,2,0,,,,,,,,,,,,,,,,right,3000,10,0.00017336842522626576,-1,0,-1,-10,320.26951756660515,None,318.2067536000395,318.54506689996924,319.22696210001595,319.54606920003425,320.22070219996385,320.5626685000025,right,1,2.3372670999960974,318.263850599993,None,None,None,,,,,,,rdzaqd,001,0,fr,2022-05-06_14h16.33.025,3-AFC_adaptive_staircase_mess,2022.1.1,35.524470867393255,
,,,,,3,0,3,0,3,0,3,0,,,,,,,,,,,,,,,,up,3000,10,0.00017336842522626576,-1,0,-1,-10,323.17254826665544,None,322.11110989993904,322.4256489999825,323.12538880005013,323.4687365000136,None,None,up,1,1.568020600010641,322.16942599997856,None,None,None,,,,,,,rdzaqd,001,0,fr,2022-05-06_14h16.33.025,3-AFC_adaptive_staircase_mess,2022.1.1,35.524470867393255,
,,,,,3,0,3,0,4,0,4,0,,,,,,,,,,,,,,,,right,3000,0,5.482390980715923e-05,-1,0,-1,-10,327.3010954666572,None,325.25902610004414,325.6010603000177,326.27361100004055,326.5944868000224,327.2559089999413,327.58376920002047,right,1,2.751721700071357,325.3205543999793,None,327.8230741999578,None,,,,,,,rdzaqd,001,0,fr,2022-05-06_14h16.33.025,3-AFC_adaptive_staircase_mess,2022.1.1,35.524470867393255,
,,,,,3,0,3,0,5,0,5,0,,,,,,,,,,,,,,,,left,3000,0,5.482390980715923e-05,-1,0,-1,-10,329.5881617667076,None,329.5714951000409,329.9108892000513,330.5752412000438,330.8887973999372,331.5730353000108,331.8937331000343,right,0,2.7565499999327585,329.60383839998394,None,332.1348711999599,None,,,,,,,rdzaqd,001,0,fr,2022-05-06_14h16.33.025,3-AFC_adaptive_staircase_mess,2022.1.1,35.524470867393255,
,,,,,3,0,3,0,6,0,6,0,,,,,,,,,,,,,,,,left,3000,5,9.749222998790222e-05,1,1,1,5,333.9233703666289,None,333.8745768000372,334.19488159997854,None,None,None,None,left,1,0.5803487999364734,333.93942089995835,None,None,None,,,,,,,rdzaqd,001,0,fr,2022-05-06_14h16.33.025,3-AFC_adaptive_staircase_mess,2022.1.1,35.524470867393255,
,,,,,3,0,3,0,7,0,7,0,,,,,,,,,,,,,,,,up,3000,5,9.749222998790222e-05,1,1,1,5,337.0754072666789,None,336.0378476999467,336.3727154999506,337.02811800001655,337.36090810003225,None,None,up,1,1.4596476999577135,336.10037410003133,None,None,None,,,,,,,rdzaqd,001,0,fr,2022-05-06_14h16.33.025,3-AFC_adaptive_staircase_mess,2022.1.1,35.524470867393255,
,,,,,3,0,3,0,8,0,8,0,,,,,,,,,,,,,,,,left,3000,-5,3.082975009307411e-05,-1,2,-1,-5.0,339.10738076671646,None,339.0616272999905,339.39003500004765,340.0660260999575,340.3974644000409,341.07337420003023,341.40148310002405,right,0,2.5993862999603152,339.11995860002935,None,341.6133043000009,None,,,,,,,rdzaqd,001,0,fr,2022-05-06_14h16.33.025,3-AFC_adaptive_staircase_mess,2022.1.1,35.524470867393255,
,,,,,3,0,3,0,9,0,9,0,,,,,,,,,,,,,,,,right,3000,-2.5,4.1112132497353565e-05,1,3,1,2.5,345.29077996669025,None,343.24589959997684,343.5736786000198,344.25141999998596,344.58552500000224,345.2441385999555,345.5817818000214,right,1,2.4150356000754982,343.3051153999986,None,None,None,,,,,,,rdzaqd,001,0,fr,2022-05-06_14h16.33.025,3-AFC_adaptive_staircase_mess,2022.1.1,35.524470867393255,
,,,,,3,0,3,0,10,0,10,0,,,,,,,,,,,,,,,,right,3000,-2.5,4.1112132497353565e-05,1,3,1,2.5,349.2678496667106,None,347.25060919998214,347.58014289999846,348.24398599995766,348.58171339996625,349.25118300004397,349.5951318000443,right,1,2.474851300008595,347.31008670001756,None,349.8135768000502,None,,,,,,,rdzaqd,001,0,fr,2022-05-06_14h16.33.025,3-AFC_adaptive_staircase_mess,2022.1.1,35.524470867393255,
,,,,,3,0,3,0,11,0,11,0,,,,,,,,,,,,,,,,right,3000,-7.5,2.3119051069963017e-05,-1,4,-1,-5.0,353.3296461667089,None,351.30899489996955,351.6363070999505,352.3047832000302,352.6302671999438,353.3129795000423,353.6547070000088,up,0,2.813974100048654,351.338030599989,None,353.8376371000195,None,,,,,,,rdzaqd,001,0,fr,2022-05-06_14h16.33.025,3-AFC_adaptive_staircase_mess,2022.1.1,35.524470867393255,
,,,,,3,0,3,0,12,0,12,0,,,,,,,,,,,,,,,,up,3000,-5.0,3.082975009307411e-05,1,5,1,2.5,356.7068435666772,None,355.6750755000394,356.0082377999788,356.6577038000105,357.0046272999607,357.65748289995827,357.99108519998845,right,0,2.5917765999911353,355.70436440000776,None,358.220601900015,None,,,,,,,rdzaqd,001,0,fr,2022-05-06_14h16.33.025,3-AFC_adaptive_staircase_mess,2022.1.1,35.524470867393255,
,,,,,3,0,3,0,13,0,13,0,,,,,,,,,,,,,,,,up,3000,-2.5,4.1112132497353565e-05,1,5,1,2.5,360.8580892666398,None,359.82030799996573,360.1456983999815,360.813176900032,361.14748629997484,361.8240417999914,362.1467171999393,right,0,2.5769990000408143,359.8794327999931,None,362.3757021999918,None,,,,,,,rdzaqd,001,0,fr,2022-05-06_14h16.33.025,3-AFC_adaptive_staircase_mess,2022.1.1,35.524470867393255,
,,,,,3,0,3,0,14,0,14,0,,,,,,,,,,,,,,,,up,3000,0.0,5.482390980715923e-05,1,5,1,2.5,364.99363816663777,None,363.9684384999564,364.30027250002604,364.9769714999711,365.3035524999723,365.9458544667034,None,up,1,1.8851644999813288,364.0270296999952,None,None,None,,,,,,,rdzaqd,001,0,fr,2022-05-06_14h16.33.025,3-AFC_adaptive_staircase_mess,2022.1.1,35.524470867393255,
,,,,,3,0,3,0,15,0,15,0,,,,,,,,,,,,,,,,left,3000,0.0,5.482390980715923e-05,1,5,1,2.5,367.4606665666836,None,367.44399990001693,367.78143019997515,368.4564979999559,368.7767550999997,369.45109520002734,369.77902330004144,up,0,2.675740799983032,367.47632130002603,None,369.98693400004413,None,,,,,,,rdzaqd,001,0,fr,2022-05-06_14h16.33.025,3-AFC_adaptive_staircase_mess,2022.1.1,35.524470867393255,
,,,,,3,0,3,0,16,0,16,0,,,,,,,,,,,,,,,,right,3000,2.5,7.310885872283589e-05,1,5,1,2.5,None,None,371.68816889997106,372.02599799993914,None,None,None,None,left,0,0.6177329000784084,371.7579466999741,None,None,None,,,,,,,rdzaqd,001,0,fr,2022-05-06_14h16.33.025,3-AFC_adaptive_staircase_mess,2022.1.1,35.524470867393255,
,,,,,3,0,3,0,17,0,17,0,,,,,,,,,,,,,,,,up,3000,5.0,9.749222998790222e-05,1,5,1,2.5,374.9074464666812,None,373.8703841000097,374.20101910002995,374.8698551999405,375.2024643999757,None,None,up,1,1.482462999993004,373.9331125000026,None,None,None,,,,,,,rdzaqd,001,0,fr,2022-05-06_14h16.33.025,3-AFC_adaptive_staircase_mess,2022.1.1,35.524470867393255,
,,,,,3,0,3,0,18,0,18,0,,,,,,,,,,,,,,,,left,3000,5.0,9.749222998790222e-05,1,5,1,2.5,376.9545999667064,None,376.93793330003973,377.2510086999973,None,None,None,None,left,1,0.5602358999894932,376.9683755999431,None,None,None,,,,,,,rdzaqd,001,0,fr,2022-05-06_14h16.33.025,3-AFC_adaptive_staircase_mess,2022.1.1,35.524470867393255,
,,,,,3,0,3,0,19,0,19,0,,,,,,,,,,,,,,,,up,3000,0.0,5.482390980715923e-05,-1,6,-1,-5.0,380.09163476661,None,379.0293905000435,379.3653715000255,380.0454438000452,380.37938709999435,381.05393860000186,381.3848955000285,right,0,2.6654638999607414,379.102641299949,None,381.5964170000516,None,,,,,,,rdzaqd,001,0,fr,2022-05-06_14h16.33.025,3-AFC_adaptive_staircase_mess,2022.1.1,35.524470867393255,
,,,,,4,0,4,0,0,0,0,0,,,,,,,,,,,,,[],[],10,up,4000,30,0.0026544222211549416,0,0,-1,10,386.1801846667115,None,385.15058010001667,385.4820660999976,386.16351800004486,386.5001002999488,None,None,up,1,1.4003301999764517,385.1995049000252,None,None,None,space,1.7950802999548614,382.86984159995336,None,382.86984159995336,None,rdzaqd,001,0,fr,2022-05-06_14h16.33.025,3-AFC_adaptive_staircase_mess,2022.1.1,35.524470867393255,
,,,,,4,0,4,0,1,0,1,0,,,,,,,,,,,,,,,,left,4000,30,0.0026544222211549416,0,0,-1,10,388.14452556666606,None,388.0980606999947,388.42502770002466,None,None,None,None,left,1,0.5080480000469834,388.1571947999764,None,None,None,,,,,,,rdzaqd,001,0,fr,2022-05-06_14h16.33.025,3-AFC_adaptive_staircase_mess,2022.1.1,35.524470867393255,
,,,,,4,0,4,0,2,0,2,0,,,,,,,,,,,,,,,,right,4000,10,0.00026544222211549425,-1,0,-1,-10,392.22367566667185,None,390.1817802999867,390.50470169994514,391.1770948000485,391.5006216999609,392.17613689997233,392.50796039996203,right,1,2.425532699911855,390.2388953999616,None,None,None,,,,,,,rdzaqd,001,0,fr,2022-05-06_14h16.33.025,3-AFC_adaptive_staircase_mess,2022.1.1,35.524470867393255,
,,,,,4,0,4,0,3,0,3,0,,,,,,,,,,,,,,,,up,4000,10,0.00026544222211549425,-1,0,-1,-10,395.2114211666087,None,394.1718598000007,394.49638110003434,395.16608360002283,395.49505050003063,None,None,up,1,1.4893819000571966,394.23045829997864,None,None,None,,,,,,,rdzaqd,001,0,fr,2022-05-06_14h16.33.025,3-AFC_adaptive_staircase_mess,2022.1.1,35.524470867393255,
,,,,,4,0,4,0,4,0,4,0,,,,,,,,,,,,,,,,left,4000,0,8.394020090612804e-05,-1,0,-1,-10,397.2636218666487,None,397.24695519998204,397.5761867000256,None,None,None,None,left,1,0.829109700047411,397.2754549999954,None,None,None,,,,,,,rdzaqd,001,0,fr,2022-05-06_14h16.33.025,3-AFC_adaptive_staircase_mess,2022.1.1,35.524470867393255,
,,,,,4,0,4,0,5,0,5,0,,,,,,,,,,,,,,,,right,4000,0,8.394020090612804e-05,-1,0,-1,-10,401.6507910666444,None,399.61620319995563,399.9393396000378,400.6108013000339,400.9341796999797,401.63412439997774,401.9669406999601,right,1,2.365313700051047,399.6738114999607,None,None,None,,,,,,,rdzaqd,001,0,fr,2022-05-06_14h16.33.025,3-AFC_adaptive_staircase_mess,2022.1.1,35.524470867393255,
,,,,,4,0,4,0,6,0,6,0,,,,,,,,,,,,,,,,up,4000,-10,2.6544222211549425e-05,-1,0,-1,-10,404.6021318666792,None,403.5627342000371,403.88601260003634,404.553373200004,404.88599700003397,405.5529591999948,405.8741975999437,right,0,2.308540800004266,403.61940259998664,None,None,None,,,,,,,rdzaqd,001,0,fr,2022-05-06_14h16.33.025,3-AFC_adaptive_staircase_mess,2022.1.1,35.524470867393255,
,,,,,4,0,4,0,7,0,7,0,,,,,,,,,,,,,,,,left,4000,-5,4.720304381429618e-05,1,1,1,5,407.5196907666434,None,407.47388740000315,407.8053967000451,408.4757527000038,408.79012779996265,409.4772264000494,409.81511019996833,right,0,2.4842868000268936,407.5227501000045,None,410.04209180001635,None,,,,,,,rdzaqd,001,0,fr,2022-05-06_14h16.33.025,3-AFC_adaptive_staircase_mess,2022.1.1,35.524470867393255,
,,,,,4,0,4,0,8,0,8,0,,,,,,,,,,,,,,,,left,4000,0,8.394020090612804e-05,1,1,1,5,411.5666700666227,None,411.55000339995604,411.8793169000419,None,None,None,None,left,1,0.6526247999863699,411.5787618999602,None,None,None,,,,,,,rdzaqd,001,0,fr,2022-05-06_14h16.33.025,3-AFC_adaptive_staircase_mess,2022.1.1,35.524470867393255,
,,,,,4,0,4,0,9,0,9,0,,,,,,,,,,,,,,,,up,4000,0,8.394020090612804e-05,1,1,1,5,414.80328656669394,None,413.78349219996016,414.11389769997913,414.7866199000273,415.11597419995815,None,None,up,1,1.4117373999906704,413.81233430001885,None,None,None,,,,,,,rdzaqd,001,0,fr,2022-05-06_14h16.33.025,3-AFC_adaptive_staircase_mess,2022.1.1,35.524470867393255,
,,,,,4,0,4,0,10,0,10,0,,,,,,,,,,,,,,,,left,4000,-10,2.6544222211549425e-05,-1,2,-1,-5.0,416.7734136667025,None,416.72793930000626,417.0555675999494,417.7267825000454,418.05137380003,418.7512508999789,419.085741900024,up,0,2.726060999906622,416.78601429995615,None,419.2934731999412,None,,,,,,,rdzaqd,001,0,fr,2022-05-06_14h16.33.025,3-AFC_adaptive_staircase_mess,2022.1.1,35.524470867393255,
,,,,,4,0,4,0,11,0,11,0,,,,,,,,,,,,,,,,right,4000,-7.5,3.53972892192069e-05,1,3,1,2.5,423.05775656662104,None,421.00329709996004,421.3348887000466,422.00756139995065,422.33068959997036,423.00796009995975,423.3410658000503,up,0,2.9785202000057325,421.0620187999448,None,423.5522246999899,None,,,,,,,rdzaqd,001,0,fr,2022-05-06_14h16.33.025,3-AFC_adaptive_staircase_mess,2022.1.1,35.524470867393255,
,,,,,4,0,4,0,12,0,12,0,,,,,,,,,,,,,,,,left,4000,-5.0,4.720304381429618e-05,1,3,1,2.5,425.58940006670696,None,425.54339010000695,425.8750605999958,426.54370489995927,426.8630751000019,427.55518310004845,427.87611189996824,right,0,2.790739000076428,425.6019104999723,None,428.11313940002583,None,,,,,,,rdzaqd,001,0,fr,2022-05-06_14h16.33.025,3-AFC_adaptive_staircase_mess,2022.1.1,35.524470867393255,
,,,,,4,0,4,0,13,0,13,0,,,,,,,,,,,,,,,,right,4000,-2.5,6.294627058970837e-05,1,3,1,2.5,431.9165971666264,None,429.877616200014,430.20296110003255,430.87634239997715,431.19827009993605,431.8720246000448,432.2044901000336,up,0,2.935281200101599,429.9369144999655,None,432.44017980003264,None,,,,,,,rdzaqd,001,0,fr,2022-05-06_14h16.33.025,3-AFC_adaptive_staircase_mess,2022.1.1,35.524470867393255,
,,,,,4,0,4,0,14,0,14,0,,,,,,,,,,,,,,,,right,4000,0.0,8.394020090612804e-05,1,3,1,2.5,436.41216556664244,None,434.3767332000425,434.6982033000095,435.39379380003083,435.72011280001607,436.3954988999758,436.7151221999666,right,1,2.452685600030236,434.43445029994473,None,436.9052582666666,None,,,,,,,rdzaqd,001,0,fr,2022-05-06_14h16.33.025,3-AFC_adaptive_staircase_mess,2022.1.1,35.524470867393255,
,,,,,4,0,4,0,15,0,15,0,,,,,,,,,,,,,,,,right,4000,0.0,8.394020090612804e-05,1,3,1,2.5,440.4217907667082,None,438.380157400039,438.7065263999393,439.38104649994057,439.70292930002324,440.3761648000218,440.7079964999575,right,1,2.4664861001074314,438.4377092999639,None,440.93019676668723,None,,,,,,,rdzaqd,001,0,fr,2022-05-06_14h16.33.025,3-AFC_adaptive_staircase_mess,2022.1.1,35.524470867393255,
,,,,,4,0,4,0,16,0,16,0,,,,,,,,,,,,,,,,left,4000,-5.0,4.720304381429618e-05,-1,4,-1,-5.0,442.4574926666139,None,442.4082725000335,442.7451682999963,443.4173922999762,None,None,None,left,1,0.9928119999822229,442.47195749997627,None,None,None,,,,,,,rdzaqd,001,0,fr,2022-05-06_14h16.33.025,3-AFC_adaptive_staircase_mess,2022.1.1,35.524470867393255,
,,,,,4,0,4,0,17,0,17,0,,,,,,,,,,,,,,,,left,4000,-5.0,4.720304381429618e-05,-1,4,-1,-5.0,445.00162636669506,None,444.95551680005156,445.28035879996605,445.9540583000053,446.27729210001417,446.94777079997584,447.27455840003677,right,0,2.5322553000878543,445.0129934999859,None,447.5070882999571,None,,,,,,,rdzaqd,001,0,fr,2022-05-06_14h16.33.025,3-AFC_adaptive_staircase_mess,2022.1.1,35.524470867393255,
,,,,,4,0,4,0,18,0,18,0,,,,,,,,,,,,,,,,left,4000,-2.5,6.294627058970837e-05,1,5,1,2.5,449.1182742666608,None,449.0733727000188,449.4029228000436,450.07010639994405,450.39328930003103,451.0687662999844,451.39003629994113,right,0,2.668263199971989,449.1315906000091,None,451.6221437000204,None,,,,,,,rdzaqd,001,0,fr,2022-05-06_14h16.33.025,3-AFC_adaptive_staircase_mess,2022.1.1,35.524470867393255,
,,,,,4,0,4,0,19,0,19,0,,,,,,,,,,,,,,,,left,4000,0.0,8.394020090612804e-05,1,5,1,2.5,453.3776948666821,None,453.3313257000409,453.6563542999793,454.32821619999595,None,None,None,left,1,1.0822153000626713,453.38913330005016,None,None,None,,,,,,,rdzaqd,001,0,fr,2022-05-06_14h16.33.025,3-AFC_adaptive_staircase_mess,2022.1.1,35.524470867393255,
,,,,,4,0,4,0,20,0,20,0,,,,,,,,,,,,,,,,left,4000,0.0,8.394020090612804e-05,1,5,1,2.5,456.02089886664567,None,455.9750368000241,456.2987199999625,None,None,None,None,left,1,0.598225999972783,456.03339130000677,None,None,None,,,,,,,rdzaqd,001,0,fr,2022-05-06_14h16.33.025,3-AFC_adaptive_staircase_mess,2022.1.1,35.524470867393255,
,,,,,4,0,4,0,21,0,21,0,,,,,,,,,,,,,,,,left,4000,-5.0,4.720304381429618e-05,-1,6,-1,-5.0,458.1886982666949,None,458.14308149996214,458.4670742000453,459.1392988000298,459.46161630004644,460.1535247999709,460.4779402000131,left,1,2.5747052000369877,458.2015487999888,None,460.7131497999653,None,,,,,,,rdzaqd,001,0,fr,2022-05-06_14h16.33.025,3-AFC_adaptive_staircase_mess,2022.1.1,35.524470867393255,
,,,,,5,0,5,0,0,0,0,0,,,,,,,,,,,,,[],[],10,left,6000,30,0.003664122665694519,0,0,-1,10,463.35349496669755,None,463.30744000000414,463.63743370003067,None,None,None,None,left,1,0.6265790000325069,463.36539519997314,None,None,None,left,0.9762499999487773,461.8636592000257,None,461.8636592000257,None,rdzaqd,001,0,fr,2022-05-06_14h16.33.025,3-AFC_adaptive_staircase_mess,2022.1.1,35.524470867393255,
,,,,,5,0,5,0,1,0,1,0,,,,,,,,,,,,,,,,up,6000,30,0.003664122665694519,0,0,-1,10,466.54972286668294,None,465.51225210004486,465.83554689993616,466.5005710000405,466.836154300021,None,None,up,1,1.6034138000104576,465.54128899995703,None,None,None,,,,,,,rdzaqd,001,0,fr,2022-05-06_14h16.33.025,3-AFC_adaptive_staircase_mess,2022.1.1,35.524470867393255,
,,,,,5,0,5,0,2,0,2,0,,,,,,,,,,,,,,,,left,6000,10,0.00036641226656945183,-1,0,-1,-10,468.7085025666204,None,468.66408390004653,468.9881332999794,None,None,None,None,left,1,0.5027642999775708,468.72052650002297,None,None,None,,,,,,,rdzaqd,001,0,fr,2022-05-06_14h16.33.025,3-AFC_adaptive_staircase_mess,2022.1.1,35.524470867393255,
,,,,,5,0,5,0,3,0,3,0,,,,,,,,,,,,,,,,left,6000,10,0.00036641226656945183,-1,0,-1,-10,470.78555986663946,None,470.7364167999476,471.0739134999458,None,None,None,None,left,1,0.40830420004203916,470.80017860000953,None,None,None,,,,,,,rdzaqd,001,0,fr,2022-05-06_14h16.33.025,3-AFC_adaptive_staircase_mess,2022.1.1,35.524470867393255,
,,,,,5,0,5,0,4,0,4,0,,,,,,,,,,,,,,,,right,6000,0,0.00011586973249842387,-1,0,-1,-10,474.76095216669296,None,472.7246194999898,473.050538499956,473.72633700002916,474.048285100027,474.71594989998266,475.0444243999664,right,1,2.6319464000407606,472.78317790001165,None,475.27792569994926,None,,,,,,,rdzaqd,001,0,fr,2022-05-06_14h16.33.025,3-AFC_adaptive_staircase_mess,2022.1.1,35.524470867393255,
,,,,,5,0,5,0,5,0,5,0,,,,,,,,,,,,,,,,left,6000,0,0.00011586973249842387,-1,0,-1,-10,476.9680228667023,None,476.95135620003566,477.2857064999407,477.9523804000346,478.2763224999653,478.94547200005036,479.2749186999863,right,0,2.900842300034128,476.9797507999465,None,479.5070743999677,None,,,,,,,rdzaqd,001,0,fr,2022-05-06_14h16.33.025,3-AFC_adaptive_staircase_mess,2022.1.1,35.524470867393255,
,,,,,5,0,5,0,6,0,6,0,,,,,,,,,,,,,,,,right,6000,5,0.000206048759548665,1,1,1,5,483.43851636670684,None,481.4017706000013,481.7269338000333,482.3970382999396,482.7318547000177,483.3904110000003,483.7255950999679,right,1,2.560027200030163,481.4317326999735,None,483.93729549995624,None,,,,,,,rdzaqd,001,0,fr,2022-05-06_14h16.33.025,3-AFC_adaptive_staircase_mess,2022.1.1,35.524470867393255,
,,,,,5,0,5,0,7,0,7,0,,,,,,,,,,,,,,,,up,6000,5,0.000206048759548665,1,1,1,5,486.5235742666448,None,485.4917422999861,485.8158699000487,486.47883219993673,486.8074156000512,None,None,left,0,1.511746900039725,485.55197299993597,None,None,None,,,,,,,rdzaqd,001,0,fr,2022-05-06_14h16.33.025,3-AFC_adaptive_staircase_mess,2022.1.1,35.524470867393255,
,,,,,5,0,5,0,8,0,8,0,,,,,,,,,,,,,,,,right,6000,10,0.00036641226656945183,1,1,1,5,None,None,488.5723385999445,None,None,None,None,None,up,0,-1.4551791000412777,488.6315369999502,None,None,None,,,,,,,rdzaqd,001,0,fr,2022-05-06_14h16.33.025,3-AFC_adaptive_staircase_mess,2022.1.1,35.524470867393255,
,,,,,5,0,5,0,9,0,9,0,,,,,,,,,,,,,,,,up,6000,15,0.0006515833892261495,1,1,1,5,None,None,490.1349882000359,490.4617841000436,None,None,None,None,left,0,0.6323352999752387,490.19219700002577,None,None,None,,,,,,,rdzaqd,001,0,fr,2022-05-06_14h16.33.025,3-AFC_adaptive_staircase_mess,2022.1.1,35.524470867393255,
,,,,,5,0,5,0,10,0,10,0,,,,,,,,,,,,,,,,up,6000,20,0.0011586973249842392,1,1,1,5,493.38488936663293,None,492.34324980003294,492.66735959996004,493.3380453999853,493.6728358999826,None,None,up,1,1.3975357000017539,492.40251980000176,None,None,None,,,,,,,rdzaqd,001,0,fr,2022-05-06_14h16.33.025,3-AFC_adaptive_staircase_mess,2022.1.1,35.524470867393255,
,,,,,5,0,5,0,11,0,11,0,,,,,,,,,,,,,,,,up,6000,20,0.0011586973249842392,1,1,1,5,496.35651216662177,None,495.31623620004393,495.63793460000306,496.3117956999922,496.63939639995806,None,None,up,1,1.4024121999973431,495.37278440000955,None,None,None,,,,,,,rdzaqd,001,0,fr,2022-05-06_14h16.33.025,3-AFC_adaptive_staircase_mess,2022.1.1,35.524470867393255,
,,,,,5,0,5,0,12,0,12,0,,,,,,,,,,,,,,,,left,6000,10,0.00036641226656945183,-1,2,-1,-5.0,498.3250559666815,None,498.2782416000264,498.6084627000382,None,None,None,None,left,1,0.7113038999959826,498.33652000001166,None,None,None,,,,,,,rdzaqd,001,0,fr,2022-05-06_14h16.33.025,3-AFC_adaptive_staircase_mess,2022.1.1,35.524470867393255,
,,,,,5,0,5,0,13,0,13,0,,,,,,,,,,,,,,,,up,6000,10,0.00036641226656945183,-1,2,-1,-5.0,501.61638446670645,None,500.5783961999696,500.9011916000163,501.5684346000198,501.9093921999447,None,None,up,1,1.420241699903272,500.6349138999358,None,None,None,,,,,,,rdzaqd,001,0,fr,2022-05-06_14h16.33.025,3-AFC_adaptive_staircase_mess,2022.1.1,35.524470867393255,
,,,,,5,0,5,0,14,0,14,0,,,,,,,,,,,,,,,,up,6000,5.0,0.000206048759548665,-1,2,-1,-5.0,504.5925695666267,None,503.5539826999884,503.874914700049,504.54751449998,504.88153599994257,None,None,up,1,1.3868076000362635,503.6124318999937,None,None,None,,,,,,,rdzaqd,001,0,fr,2022-05-06_14h16.33.025,3-AFC_adaptive_staircase_mess,2022.1.1,35.524470867393255,
,,,,,5,0,5,0,15,0,15,0,,,,,,,,,,,,,,,,left,6000,5.0,0.000206048759548665,-1,2,-1,-5.0,506.5698979666379,None,506.5242855999386,506.84804960002657,None,None,None,None,left,1,0.7043365000281483,506.5828985000262,None,None,None,,,,,,,rdzaqd,001,0,fr,2022-05-06_14h16.33.025,3-AFC_adaptive_staircase_mess,2022.1.1,35.524470867393255,
,,,,,5,0,5,0,16,0,16,0,,,,,,,,,,,,,,,,left,6000,0.0,0.00011586973249842387,-1,2,-1,-5.0,508.861119466663,None,508.81671970000025,509.1445248000091,None,None,None,None,left,1,0.812628599931486,508.87656570004765,None,None,None,,,,,,,rdzaqd,001,0,fr,2022-05-06_14h16.33.025,3-AFC_adaptive_staircase_mess,2022.1.1,35.524470867393255,
,,,,,5,0,5,0,17,0,17,0,,,,,,,,,,,,,,,,right,6000,0.0,0.00011586973249842387,-1,2,-1,-5.0,513.2396698666892,None,511.2074606999522,511.5300338999368,512.2281629999634,512.550793100032,513.2230032000225,513.5485978999641,right,1,2.711094700032845,511.2653513000114,None,513.7551870000316,None,,,,,,,rdzaqd,001,0,fr,2022-05-06_14h16.33.025,3-AFC_adaptive_staircase_mess,2022.1.1,35.524470867393255,
,,,,,5,0,5,0,18,0,18,0,,,,,,,,,,,,,,,,up,6000,-5.0,6.515833892261494e-05,-1,2,-1,-5.0,516.534704166643,None,515.4961558999494,515.8177241999656,516.488975699991,516.8184489000123,517.4697008000221,517.7938288999721,right,0,3.0745392000535503,515.52573819994,None,518.0302968999604,None,,,,,,,rdzaqd,001,0,fr,2022-05-06_14h16.33.025,3-AFC_adaptive_staircase_mess,2022.1.1,35.524470867393255,
,,,,,5,0,5,0,19,0,19,0,,,,,,,,,,,,,,,,left,6000,-2.5,8.689004143746872e-05,1,3,1,2.5,520.1696340667006,520.3997872000327,520.1204021000303,520.4605071999831,521.1311326000141,521.4553870999953,522.1233913999749,522.4553317000391,right,0,2.880440799985081,520.1829812000506,None,522.6893360000104,None,,,,,,,rdzaqd,001,0,fr,2022-05-06_14h16.33.025,3-AFC_adaptive_staircase_mess,2022.1.1,35.524470867393255,
,,,,,5,0,5,0,20,0,20,0,,,,,,,,,,,,,,,,right,6000,0.0,0.00011586973249842387,1,3,1,2.5,526.6141111666259,None,524.5801595000084,524.8966980000259,525.5943338000216,525.926237000036,526.5974444999592,526.9296225999715,up,0,2.764835700043477,524.6353923999704,None,527.1390283999499,None,,,,,,,rdzaqd,001,0,fr,2022-05-06_14h16.33.025,3-AFC_adaptive_staircase_mess,2022.1.1,35.524470867393255,
,,,,,5,0,5,0,21,0,21,0,,,,,,,,,,,,,,,,right,6000,2.5,0.00015451477162567947,1,3,1,2.5,530.9168452666529,None,528.8897123000352,529.217831899994,529.8907685000449,530.2069705999456,530.9001785999862,531.2343624000205,right,1,2.5312411999329925,528.9479067999637,None,531.4457749000285,None,,,,,,,rdzaqd,001,0,fr,2022-05-06_14h16.33.025,3-AFC_adaptive_staircase_mess,2022.1.1,35.524470867393255,
,,,,,5,0,5,0,22,0,22,0,,,,,,,,,,,,,,,,up,6000,2.5,0.00015451477162567947,1,3,1,2.5,534.0130369666188,None,532.989421700011,533.3163670999929,533.9963702999521,534.3084551000502,None,None,up,1,1.900864199968055,533.0185618000105,None,None,None,,,,,,,rdzaqd,001,0,fr,2022-05-06_14h16.33.025,3-AFC_adaptive_staircase_mess,2022.1.1,35.524470867393255,
,,,,,5,0,5,0,23,0,23,0,,,,,,,,,,,,,,,,left,6000,-2.5,8.689004143746872e-05,-1,4,-1,-5.0,536.4767845667122,None,536.4322398999939,536.7730628999416,537.4197918999707,537.7436833999818,538.41787200002,538.7479583999375,right,0,2.781329400022514,536.4902489000233,None,538.9849306000397,None,,,,,,,rdzaqd,001,0,fr,2022-05-06_14h16.33.025,3-AFC_adaptive_staircase_mess,2022.1.1,35.524470867393255,
,,,,,5,0,5,0,24,0,24,0,,,,,,,,,,,,,,,,up,6000,0.0,0.00011586973249842387,1,5,1,2.5,541.8119586666037,None,540.7893980999943,541.1152437999845,541.795291999937,542.1115422999719,542.7728163000429,None,up,1,1.9283443000167608,540.8472796999849,None,None,None,,,,,,,rdzaqd,001,0,fr,2022-05-06_14h16.33.025,3-AFC_adaptive_staircase_mess,2022.1.1,35.524470867393255,
,,,,,5,0,5,0,25,0,25,0,,,,,,,,,,,,,,,,up,6000,0.0,0.00011586973249842387,1,5,1,2.5,545.3319760666384,None,544.3025907999836,544.6262169999536,545.3153093999717,545.651717599947,None,None,up,1,1.5664142000023276,544.3621229999699,None,None,None,,,,,,,rdzaqd,001,0,fr,2022-05-06_14h16.33.025,3-AFC_adaptive_staircase_mess,2022.1.1,35.524470867393255,
,,,,,5,0,5,0,26,0,26,0,,,,,,,,,,,,,,,,right,6000,-5.0,6.515833892261494e-05,-1,6,-1,-5.0,549.4891548666094,None,547.4473027000204,547.7731040000217,548.4452998000197,548.7692189000081,549.4435170999495,549.775016300031,right,1,2.32701010000892,547.5049805999734,None,None,None,,,,,,,rdzaqd,001,0,fr,2022-05-06_14h16.33.025,3-AFC_adaptive_staircase_mess,2022.1.1,35.524470867393255,
,,,,,6,0,6,0,0,0,0,0,,,,,,,,,,,,,[],[],10,right,8000,30,0.005740768107484416,0,0,-1,10,554.304975466632,554.5351352000143,552.2517227999633,552.5824588999385,553.2587411999702,553.5909687000094,554.2544645000016,554.59609310003,right,1,2.385039799963124,552.3103703999659,None,None,None,left,0.8610985000850633,550.9075836000266,None,550.9075836000266,None,rdzaqd,001,0,fr,2022-05-06_14h16.33.025,3-AFC_adaptive_staircase_mess,2022.1.1,35.524470867393255,
,,,,,6,0,6,0,1,0,1,0,,,,,,,,,,,,,,,,up,8000,30,0.005740768107484416,0,0,-1,10,557.2717520666231,None,556.2100388000254,556.5431962000439,557.223775099963,557.5653603000101,None,None,up,1,1.6747136000776663,556.2691379999742,None,None,None,,,,,,,rdzaqd,001,0,fr,2022-05-06_14h16.33.025,3-AFC_adaptive_staircase_mess,2022.1.1,35.524470867393255,
,,,,,6,0,6,0,2,0,2,0,,,,,,,,,,,,,,,,left,8000,10,0.0005740768107484417,-1,0,-1,-10,559.5121319667126,None,559.4630873999558,559.8018217999488,None,None,None,None,left,1,0.5281435999786481,559.5276181999361,None,None,None,,,,,,,rdzaqd,001,0,fr,2022-05-06_14h16.33.025,3-AFC_adaptive_staircase_mess,2022.1.1,35.524470867393255,
,,,,,6,0,6,0,3,0,3,0,,,,,,,,,,,,,,,,left,8000,10,0.0005740768107484417,-1,0,-1,-10,561.5994834666528,None,561.5532635999843,561.9008165999549,None,None,None,None,left,1,0.4281448000110686,561.6119054999435,None,None,None,,,,,,,rdzaqd,001,0,fr,2022-05-06_14h16.33.025,3-AFC_adaptive_staircase_mess,2022.1.1,35.524470867393255,
,,,,,6,0,6,0,4,0,4,0,,,,,,,,,,,,,,,,left,8000,0,0.0001815390273850507,-1,0,-1,-10,563.595748466618,None,563.5790817999514,563.8949868000345,None,None,None,None,left,1,0.3994528000475839,563.6084552999819,None,None,None,,,,,,,rdzaqd,001,0,fr,2022-05-06_14h16.33.025,3-AFC_adaptive_staircase_mess,2022.1.1,35.524470867393255,
,,,,,6,0,6,0,5,0,5,0,,,,,,,,,,,,,,,,up,8000,0,0.0001815390273850507,-1,0,-1,-10,566.5481988666036,None,565.5245313999476,565.8534220999572,566.5315321999369,566.8708065999672,None,None,up,1,1.5592163999099284,565.5537033999572,None,None,None,,,,,,,rdzaqd,001,0,fr,2022-05-06_14h16.33.025,3-AFC_adaptive_staircase_mess,2022.1.1,35.524470867393255,
,,,,,6,0,6,0,6,0,6,0,,,,,,,,,,,,,,,,up,8000,-10,5.740768107484415e-05,-1,0,-1,-10,569.665782166707,None,568.6248320000013,568.9694736000383,569.6491155000404,569.9782111999812,570.6378723999951,570.9712455000263,right,0,2.7824188999366015,568.6803235999541,None,571.179328899947,None,,,,,,,rdzaqd,001,0,fr,2022-05-06_14h16.33.025,3-AFC_adaptive_staircase_mess,2022.1.1,35.524470867393255,
,,,,,6,0,6,0,7,0,7,0,,,,,,,,,,,,,,,,up,8000,-5,0.00010208689723347648,1,1,1,5,574.028207666652,None,572.9966193999862,573.3314588000067,573.9784355999436,574.2962841000408,None,None,up,1,1.7975921999895945,573.0263413999928,None,None,None,,,,,,,rdzaqd,001,0,fr,2022-05-06_14h16.33.025,3-AFC_adaptive_staircase_mess,2022.1.1,35.524470867393255,
,,,,,6,0,6,0,8,0,8,0,,,,,,,,,,,,,,,,up,8000,-5,0.00010208689723347648,1,1,1,5,577.3450626666347,None,576.3345100999577,576.6652834999841,577.328395999968,577.6412838000106,None,None,up,1,1.5935117999324575,576.3664109000238,None,None,None,,,,,,,rdzaqd,001,0,fr,2022-05-06_14h16.33.025,3-AFC_adaptive_staircase_mess,2022.1.1,35.524470867393255,
,,,,,6,0,6,0,9,0,9,0,,,,,,,,,,,,,,,,up,8000,-15,3.228271145173278e-05,-1,2,-1,-5.0,580.5149607667156,None,579.4702417999506,579.8047787999967,580.468451499939,580.8109792999458,581.4645220999373,581.7991305999458,right,0,2.6860984000377357,579.5296228999505,None,582.0338156999787,None,,,,,,,rdzaqd,001,0,fr,2022-05-06_14h16.33.025,3-AFC_adaptive_staircase_mess,2022.1.1,35.524470867393255,
,,,,,6,0,6,0,10,0,10,0,,,,,,,,,,,,,,,,right,8000,-12.5,4.304968760923004e-05,1,3,1,2.5,585.7563261666257,None,583.722398999962,584.0545420999406,584.7185427000513,585.0490779000102,585.7104546000483,586.0531163000269,up,0,2.7817570999031886,583.7852349999594,None,586.2601026999764,None,,,,,,,rdzaqd,001,0,fr,2022-05-06_14h16.33.025,3-AFC_adaptive_staircase_mess,2022.1.1,35.524470867393255,
,,,,,6,0,6,0,11,0,11,0,,,,,,,,,,,,,,,,up,8000,-10.0,5.740768107484415e-05,1,3,1,2.5,589.1279382666728,None,588.0751974999439,588.3907590999734,589.0814012000337,589.426871899981,590.0912362999516,590.428371499991,right,0,2.834373199963011,588.1339561999775,None,590.6499242000282,None,,,,,,,rdzaqd,001,0,fr,2022-05-06_14h16.33.025,3-AFC_adaptive_staircase_mess,2022.1.1,35.524470867393255,
,,,,,6,0,6,0,12,0,12,0,,,,,,,,,,,,,,,,up,8000,-7.5,7.655437308410152e-05,1,3,1,2.5,593.4988791666149,None,592.4596925999504,592.7937935000518,593.4531089999946,593.8011526999762,None,None,up,1,1.7931876999791712,592.51793490001,None,None,None,,,,,,,rdzaqd,001,0,fr,2022-05-06_14h16.33.025,3-AFC_adaptive_staircase_mess,2022.1.1,35.524470867393255,
,,,,,6,0,6,0,13,0,13,0,,,,,,,,,,,,,,,,left,8000,-7.5,7.655437308410152e-05,1,3,1,2.5,595.8826757666577,None,595.833829900017,596.1475444999523,596.8344925999409,597.1468044000212,597.8421730999835,598.1539714999963,right,0,2.7816810000222176,595.8989278000081,None,598.3919013999403,None,,,,,,,rdzaqd,001,0,fr,2022-05-06_14h16.33.025,3-AFC_adaptive_staircase_mess,2022.1.1,35.524470867393255,
,,,,,6,0,6,0,14,0,14,0,,,,,,,,,,,,,,,,left,8000,-5.0,0.00010208689723347648,1,3,1,2.5,600.2425493666126,None,600.2258826999459,600.5718712999951,601.2315290999832,601.5682968000183,602.2270376000088,602.5692158000311,right,0,2.6321525999810547,600.2553804999916,None,602.7762338999892,None,,,,,,,rdzaqd,001,0,fr,2022-05-06_14h16.33.025,3-AFC_adaptive_staircase_mess,2022.1.1,35.524470867393255,
,,,,,6,0,6,0,15,0,15,0,,,,,,,,,,,,,,,,up,8000,-2.5,0.00013613506540389563,1,3,1,2.5,605.4303025666779,None,604.4097654999932,604.7223595000105,605.4136359000113,605.739477599971,None,None,up,1,1.8541280999779701,604.4742459999397,None,None,None,,,,,,,rdzaqd,001,0,fr,2022-05-06_14h16.33.025,3-AFC_adaptive_staircase_mess,2022.1.1,35.524470867393255,
,,,,,6,0,6,0,16,0,16,0,,,,,,,,,,,,,,,,up,8000,-2.5,0.00013613506540389563,1,3,1,2.5,608.8946517666957,None,607.8384205000475,608.1794388999697,608.8459523000056,609.186933799996,None,None,up,1,1.630835699965246,607.89640279999,None,None,None,,,,,,,rdzaqd,001,0,fr,2022-05-06_14h16.33.025,3-AFC_adaptive_staircase_mess,2022.1.1,35.524470867393255,
,,,,,6,0,6,0,17,0,17,0,,,,,,,,,,,,,,,,left,8000,-7.5,7.655437308410152e-05,-1,4,-1,-5.0,611.0625486666725,None,611.0458820000058,611.3835507000331,612.0208788999589,612.3429751000367,613.0394804000389,613.382797600003,right,0,2.80181580001954,611.0778211000143,None,613.59300480003,None,,,,,,,rdzaqd,001,0,fr,2022-05-06_14h16.33.025,3-AFC_adaptive_staircase_mess,2022.1.1,35.524470867393255,
,,,,,6,0,6,0,18,0,18,0,,,,,,,,,,,,,,,,up,8000,-5.0,0.00010208689723347648,1,5,1,2.5,616.4171511666539,None,615.3893794999458,615.7075733999955,616.4004844999872,616.7194041999755,None,None,up,1,1.6436837000073865,615.4531470000511,None,None,None,,,,,,,rdzaqd,001,0,fr,2022-05-06_14h16.33.025,3-AFC_adaptive_staircase_mess,2022.1.1,35.524470867393255,
,,,,,6,0,6,0,19,0,19,0,,,,,,,,,,,,,,,,right,8000,-5.0,0.00010208689723347648,1,5,1,2.5,620.6724164666996,None,618.629319199943,618.9411388000008,619.6203600999434,619.9548762999475,620.6228923000162,620.9621603999985,right,1,2.5321738000493497,618.659667299944,None,621.1836563999532,None,,,,,,,rdzaqd,001,0,fr,2022-05-06_14h16.33.025,3-AFC_adaptive_staircase_mess,2022.1.1,35.524470867393255,
,,,,,6,0,6,0,20,0,20,0,,,,,,,,,,,,,,,,left,8000,-10.0,5.740768107484415e-05,-1,6,-1,-5.0,622.7691546666358,None,622.722540399991,623.066126700025,623.7284471000312,624.0419832000043,624.7325729000149,625.0466627000133,right,0,3.0958477000240237,622.7840369000332,None,625.2910881999414,None,,,,,,,rdzaqd,001,0,fr,2022-05-06_14h16.33.025,3-AFC_adaptive_staircase_mess,2022.1.1,35.524470867393255,
,,,,,7,0,7,0,0,0,0,0,,,,,,,,,,,,,[],[],10,up,750,30,0.0012851978913844323,0,0,-1,10,630.1434376666477,None,629.1199561000103,629.4628916999791,630.1267709999811,630.4393920999719,None,None,up,1,1.6444315999979153,629.1786964000203,None,None,None,left,1.6910448000999168,626.956315599964,None,626.956315599964,None,rdzaqd,001,0,fr,2022-05-06_14h16.33.025,3-AFC_adaptive_staircase_mess,2022.1.1,35.524470867393255,
,,,,,7,0,7,0,1,0,1,0,,,,,,,,,,,,,,,,right,750,30,0.0012851978913844323,0,0,-1,10,634.3760923667035,None,632.3513195000123,632.6744489000412,633.3351013000356,633.6692271999782,634.3298744000494,634.6693725000368,right,1,2.4757140000583604,632.3809444999788,None,634.8783647000091,None,,,,,,,rdzaqd,001,0,fr,2022-05-06_14h16.33.025,3-AFC_adaptive_staircase_mess,2022.1.1,35.524470867393255,
,,,,,7,0,7,0,2,0,2,0,,,,,,,,,,,,,,,,left,750,10,0.00012851978913844324,-1,0,-1,-10,636.4047576666965,None,636.3880910000298,636.7150645999936,637.3720150999725,637.7028454999672,638.3801291999407,638.7138556999853,up,0,3.240015499992296,636.4158632999752,None,638.9240240999497,None,,,,,,,rdzaqd,001,0,fr,2022-05-06_14h16.33.025,3-AFC_adaptive_staircase_mess,2022.1.1,35.524470867393255,
,,,,,7,0,7,0,3,0,3,0,,,,,,,,,,,,,,,,left,750,15,0.0002285440948074376,1,1,1,5,641.2306424666351,None,641.1829076999566,641.5150762000121,642.1639534999849,642.4925272000255,643.1771368000191,643.511829999974,right,0,2.4926388000603765,641.2430714999791,None,643.7203987999819,None,,,,,,,rdzaqd,001,0,fr,2022-05-06_14h16.33.025,3-AFC_adaptive_staircase_mess,2022.1.1,35.524470867393255,
,,,,,7,0,7,0,4,0,4,0,,,,,,,,,,,,,,,,up,750,20,0.00040641525808204974,1,1,1,5,646.3068876666405,None,645.2805114999646,645.6099969999632,646.2561687999405,646.5936119999969,None,None,up,1,1.7834312999621034,645.3128988000099,None,None,None,,,,,,,rdzaqd,001,0,fr,2022-05-06_14h16.33.025,3-AFC_adaptive_staircase_mess,2022.1.1,35.524470867393255,
,,,,,7,0,7,0,5,0,5,0,,,,,,,,,,,,,,,,right,750,20,0.00040641525808204974,1,1,1,5,650.6700427666694,None,648.6194072000217,648.9479277000064,649.6265590999974,649.9584340000292,650.6181466999697,650.9648101000348,right,1,2.484327599988319,648.6750011999393,None,651.1824210999766,None,,,,,,,rdzaqd,001,0,fr,2022-05-06_14h16.33.025,3-AFC_adaptive_staircase_mess,2022.1.1,35.524470867393255,
,,,,,7,0,7,0,6,0,6,0,,,,,,,,,,,,,,,,up,750,10,0.00012851978913844324,-1,2,-1,-5.0,653.7288786667089,None,652.7018732000142,653.037809100002,653.6824730000226,654.0213059999514,654.6921770999907,655.0237832999555,right,0,2.702362300013192,652.7289331000065,None,655.2314601000398,None,,,,,,,rdzaqd,001,0,fr,2022-05-06_14h16.33.025,3-AFC_adaptive_staircase_mess,2022.1.1,35.524470867393255,
,,,,,7,0,7,0,7,0,7,0,,,,,,,,,,,,,,,,up,750,12.5,0.00017138389327322524,1,3,1,2.5,658.0008677666231,None,656.9530293999705,657.2869196999818,657.9404752999544,658.2579411000479,None,None,up,1,1.840490199974738,657.0148467000108,None,None,None,,,,,,,rdzaqd,001,0,fr,2022-05-06_14h16.33.025,3-AFC_adaptive_staircase_mess,2022.1.1,35.524470867393255,
,,,,,7,0,7,0,8,0,8,0,,,,,,,,,,,,,,,,left,750,12.5,0.00017138389327322524,1,3,1,2.5,660.4149488666483,None,660.3982821999816,660.7347784000449,661.3714041999774,661.7012100999709,662.3725831999909,662.70221639995,right,0,2.570597500074655,660.4283529999666,None,662.9400989999995,None,,,,,,,rdzaqd,001,0,fr,2022-05-06_14h16.33.025,3-AFC_adaptive_staircase_mess,2022.1.1,35.524470867393255,
,,,,,7,0,7,0,9,0,9,0,,,,,,,,,,,,,,,,left,750,15.0,0.0002285440948074376,1,3,1,2.5,664.5168743666184,None,664.5002076999517,664.8430216000415,665.4876713999547,665.8171235000482,666.4875873000128,666.8217276999494,right,0,2.4560775998979807,664.5284933999646,None,None,None,,,,,,,rdzaqd,001,0,fr,2022-05-06_14h16.33.025,3-AFC_adaptive_staircase_mess,2022.1.1,35.524470867393255,
,,,,,7,0,7,0,10,0,10,0,,,,,,,,,,,,,,,,left,750,17.5,0.0003047684486200847,1,3,1,2.5,668.5483422666478,None,668.503079899936,668.8380235999357,None,None,None,None,left,1,0.832058799918741,668.5525632000063,None,None,None,,,,,,,rdzaqd,001,0,fr,2022-05-06_14h16.33.025,3-AFC_adaptive_staircase_mess,2022.1.1,35.524470867393255,
,,,,,7,0,7,0,11,0,11,0,,,,,,,,,,,,,,,,right,750,17.5,0.0003047684486200847,1,3,1,2.5,672.9077448666251,None,670.8889639000408,671.2165512000211,671.8859709999524,672.2156228999374,672.8910781999584,673.2212284000125,right,1,2.5455437999917194,670.9177447999828,None,673.432251399965,None,,,,,,,rdzaqd,001,0,fr,2022-05-06_14h16.33.025,3-AFC_adaptive_staircase_mess,2022.1.1,35.524470867393255,
,,,,,7,0,7,0,12,0,12,0,,,,,,,,,,,,,,,,left,750,12.5,0.00017138389327322524,-1,4,-1,-5.0,675.025796666687,None,674.9797978999559,675.3157390999841,None,None,None,None,left,1,0.8259584000334144,675.0381642000284,None,None,None,,,,,,,rdzaqd,001,0,fr,2022-05-06_14h16.33.025,3-AFC_adaptive_staircase_mess,2022.1.1,35.524470867393255,
,,,,,7,0,7,0,13,0,13,0,,,,,,,,,,,,,,,,up,750,12.5,0.00017138389327322524,-1,4,-1,-5.0,678.4017681666339,None,677.362811399973,677.6887297000503,678.3540071999887,678.6909772000508,679.3584597000154,679.6835899000289,right,0,2.825603500008583,677.3914823000086,None,679.8945834999904,None,,,,,,,rdzaqd,001,0,fr,2022-05-06_14h16.33.025,3-AFC_adaptive_staircase_mess,2022.1.1,35.524470867393255,
,,,,,7,0,7,0,14,0,14,0,,,,,,,,,,,,,,,,right,750,15.0,0.0002285440948074376,1,5,1,2.5,683.7811074666135,None,681.7355868000304,682.0658889999613,682.731751000043,683.0629462000215,683.7331763999537,684.0816901000217,right,1,2.467493399977684,681.7958282999462,None,684.2796941666786,None,,,,,,,rdzaqd,001,0,fr,2022-05-06_14h16.33.025,3-AFC_adaptive_staircase_mess,2022.1.1,35.524470867393255,
,,,,,7,0,7,0,15,0,15,0,,,,,,,,,,,,,,,,right,750,15.0,0.0002285440948074376,1,5,1,2.5,687.81508756668,None,685.766961999936,686.1006162000122,686.773287900025,687.1001563000027,687.7694642000133,688.0988585000159,right,1,2.411504299961962,685.8369483000133,None,None,None,,,,,,,rdzaqd,001,0,fr,2022-05-06_14h16.33.025,3-AFC_adaptive_staircase_mess,2022.1.1,35.524470867393255,
,,,,,7,0,7,0,16,0,16,0,,,,,,,,,,,,,,,,up,750,10.0,0.00012851978913844324,-1,6,-1,-5.0,690.8123305666415,None,689.7732369999867,690.0942743000342,690.7956638999749,691.1230549999746,691.7673872000305,692.0895034000278,right,0,2.607072899932973,689.8321043000324,None,692.3300168999704,None,,,,,,,rdzaqd,001,0,fr,2022-05-06_14h16.33.025,3-AFC_adaptive_staircase_mess,2022.1.1,35.524470867393255,
,,,,,8,0,8,0,0,0,0,0,,,,,,,,,,,,,[],[],10,up,500,30,0.002259279721874612,0,0,1,10,695.9764210666219,696.2076846000273,694.949804599979,695.2946819999488,695.9147712000413,696.237862000009,696.9304364999989,697.2601661999943,right,0,2.6119383999612182,694.9799164000433,None,697.4975479999557,None,left,0.9128710998920724,693.5262749999529,None,693.5262749999529,None,rdzaqd,001,0,fr,2022-05-06_14h16.33.025,3-AFC_adaptive_staircase_mess,2022.1.1,35.524470867393255,
,,,,,8,0,8,0,1,0,1,0,,,,,,,,,,,,,,,,up,500,40,0.007144469792555516,1,0,1,10,700.1365955667027,None,699.0977269000141,699.4295122999465,700.0815831000218,700.4015010000439,None,None,up,1,1.7685609000036493,699.1661727000028,None,None,None,,,,,,,rdzaqd,001,0,fr,2022-05-06_14h16.33.025,3-AFC_adaptive_staircase_mess,2022.1.1,35.524470867393255,
,,,,,8,0,8,0,2,0,2,0,,,,,,,,,,,,,,,,right,500,40,0.007144469792555516,1,0,1,10,704.5028812667044,None,702.4658500000369,702.7765770000406,703.4904852999607,703.8183767000446,704.457721899962,704.7859730999917,right,1,2.576266200048849,702.5190948999953,None,705.020596300019,None,,,,,,,rdzaqd,001,0,fr,2022-05-06_14h16.33.025,3-AFC_adaptive_staircase_mess,2022.1.1,35.524470867393255,
,,,,,8,0,8,0,3,0,3,0,,,,,,,,,,,,,,,,up,500,20,0.0007144469792555515,-1,1,-1,-10,707.655615866712,None,706.607065499993,706.9423517000396,707.5938221999677,707.9202108000172,708.6079133000458,None,up,1,2.035268299980089,706.6762452999828,None,None,None,,,,,,,rdzaqd,001,0,fr,2022-05-06_14h16.33.025,3-AFC_adaptive_staircase_mess,2022.1.1,35.524470867393255,
,,,,,8,0,8,0,4,0,4,0,,,,,,,,,,,,,,,,left,500,20,0.0007144469792555515,-1,1,-1,-10,710.2758950666214,None,710.2304011000087,710.5593557000393,None,None,None,None,left,1,0.6952620999654755,710.2885739000048,None,None,None,,,,,,,rdzaqd,001,0,fr,2022-05-06_14h16.33.025,3-AFC_adaptive_staircase_mess,2022.1.1,35.524470867393255,
,,,,,8,0,8,0,5,0,5,0,,,,,,,,,,,,,,,,right,500,10,0.0002259279721874612,-1,1,-1,-10,714.5361735666559,None,712.4865186000243,712.8119895999553,713.4847242999822,713.8093835000182,714.4897227999754,714.8146557,right,1,2.711176000069827,712.544658800005,None,715.0500539999921,None,,,,,,,rdzaqd,001,0,fr,2022-05-06_14h16.33.025,3-AFC_adaptive_staircase_mess,2022.1.1,35.524470867393255,
,,,,,8,0,8,0,6,0,6,0,,,,,,,,,,,,,,,,left,500,10,0.0002259279721874612,-1,1,-1,-10,716.8408221667089,None,716.7982347999932,717.1219278000062,717.7938663000241,718.1173886000179,718.7854074999923,719.1002859999426,right,0,2.7215110999532044,716.8538893000223,None,719.3367800000124,None,,,,,,,rdzaqd,001,0,fr,2022-05-06_14h16.33.025,3-AFC_adaptive_staircase_mess,2022.1.1,35.524470867393255,
,,,,,8,0,8,0,7,0,7,0,,,,,,,,,,,,,,,,right,500,15,0.0004017630610928086,1,2,1,2.5,723.1367386666282,None,721.0926864000503,721.417155400035,722.0879611000419,722.4199302999768,723.087767799967,723.4202949999599,left,0,2.5373872000491247,721.1506230999948,None,723.655914700008,None,,,,,,,rdzaqd,001,0,fr,2022-05-06_14h16.33.025,3-AFC_adaptive_staircase_mess,2022.1.1,35.524470867393255,
,,,,,8,0,8,0,8,0,8,0,,,,,,,,,,,,,,,,up,500,17.5,0.0005357596526188033,1,2,1,2.5,726.217876566636,None,725.1738374000415,725.5086081000045,726.1748453000328,726.4986715000123,None,None,up,1,1.4633817999856547,725.2323331000516,None,None,None,,,,,,,rdzaqd,001,0,fr,2022-05-06_14h16.33.025,3-AFC_adaptive_staircase_mess,2022.1.1,35.524470867393255,
,,,,,8,0,8,0,9,0,9,0,,,,,,,,,,,,,,,,right,500,17.5,0.0005357596526188033,1,2,1,2.5,730.2475011667159,None,728.2063105000416,728.5437359999632,729.2150845000288,729.5369215999963,730.2029441000195,730.536706999992,right,1,2.5913021999876946,728.2647301999386,None,730.741762300022,None,,,,,,,rdzaqd,001,0,fr,2022-05-06_14h16.33.025,3-AFC_adaptive_staircase_mess,2022.1.1,35.524470867393255,
,,,,,8,0,8,0,10,0,10,0,,,,,,,,,,,,,,,,up,500,12.5,0.0003012797930371789,-1,3,-1,-5.0,733.3777604667159,None,732.3410056999419,732.6629276999738,733.3610938000493,733.7012081999565,734.3451416000025,734.6714653000236,right,0,2.9844177999766544,732.3994286999805,None,734.9067547000013,None,,,,,,,rdzaqd,001,0,fr,2022-05-06_14h16.33.025,3-AFC_adaptive_staircase_mess,2022.1.1,35.524470867393255,
,,,,,8,0,8,0,11,0,11,0,,,,,,,,,,,,,,,,up,500,15.0,0.0004017630610928086,1,4,1,2.5,737.9376937666132,None,736.8863371999469,737.2127035999438,737.8921295000473,738.2227873000083,738.8974551999709,739.222182199941,right,0,2.5672235999954864,736.9443386000348,None,739.457033899962,None,,,,,,,rdzaqd,001,0,fr,2022-05-06_14h16.33.025,3-AFC_adaptive_staircase_mess,2022.1.1,35.524470867393255,
,,,,,8,0,8,0,12,0,12,0,,,,,,,,,,,,,,,,up,500,17.5,0.0005357596526188033,1,4,1,2.5,742.056407166707,None,741.0171447000466,741.3381753000431,742.0094106999459,742.3488740000175,743.0220976000419,None,up,1,2.0522294000256807,741.074919500039,None,None,None,,,,,,,rdzaqd,001,0,fr,2022-05-06_14h16.33.025,3-AFC_adaptive_staircase_mess,2022.1.1,35.524470867393255,
,,,,,8,0,8,0,13,0,13,0,,,,,,,,,,,,,,,,right,500,17.5,0.0005357596526188033,1,4,1,2.5,746.6876503666319,None,744.6495874000248,744.9770627999678,745.6465636000503,745.972017299966,746.6285193000222,746.9388721999712,right,1,2.6256820000708103,744.6783077999717,None,747.2028276999481,None,,,,,,,rdzaqd,001,0,fr,2022-05-06_14h16.33.025,3-AFC_adaptive_staircase_mess,2022.1.1,35.524470867393255,
,,,,,8,0,8,0,14,0,14,0,,,,,,,,,,,,,,,,right,500,12.5,0.0003012797930371789,-1,5,-1,-5.0,750.8704599666564,None,748.8335735000437,749.1588208000176,749.8271305999951,750.1495621999493,750.81989839999,751.1464443999575,right,1,2.6664601999800652,748.8608449000167,None,751.3780931000365,None,,,,,,,rdzaqd,001,0,fr,2022-05-06_14h16.33.025,3-AFC_adaptive_staircase_mess,2022.1.1,35.524470867393255,
,,,,,8,0,8,0,15,0,15,0,,,,,,,,,,,,,,,,right,500,12.5,0.0003012797930371789,-1,5,-1,-5.0,755.0968807666252,None,753.0613500999752,753.3873985999962,754.0557360999519,754.3812846000073,755.0802140999585,755.394613499986,right,1,2.6963811999885365,753.1189747999888,None,755.6019454000052,None,,,,,,,rdzaqd,001,0,fr,2022-05-06_14h16.33.025,3-AFC_adaptive_staircase_mess,2022.1.1,35.524470867393255,
,,,,,8,0,8,0,16,0,16,0,,,,,,,,,,,,,,,,up,500,7.5,0.00016942207806960129,-1,5,-1,-5.0,758.3735294666296,None,757.3373554999707,757.6561685999623,758.3246398000047,758.6614449999761,759.3247820000397,759.6536348999944,right,0,3.0102797999279574,757.3649163999362,None,759.8850175000262,None,,,,,,,rdzaqd,001,0,fr,2022-05-06_14h16.33.025,3-AFC_adaptive_staircase_mess,2022.1.1,35.524470867393255,
,,,,,8,0,8,0,17,0,17,0,,,,,,,,,,,,,,,,up,500,10.0,0.0002259279721874612,1,6,1,2.5,762.9454322666318,None,761.9038418999407,762.2261685000267,762.8994724999648,763.2311385000357,763.8989770000335,764.2256199000403,up,1,2.8781020999886096,761.9615177999949,None,764.4574623999652,None,,,,,,,rdzaqd,001,0,fr,2022-05-06_14h16.33.025,3-AFC_adaptive_staircase_mess,2022.1.1,35.524470867393255,
,,,,,9,0,9,0,0,0,0,0,,,,,,,,,,,,,[],[],10,right,250,30,0.005296268625886445,0,0,-1,10,769.3052873666786,None,767.2519716999959,767.5748370999936,768.267269999953,768.5955769999418,769.2600825999398,769.5894044999732,right,1,2.393108799937181,767.3108426999534,None,None,None,left,0.861059800023213,765.9145284999395,None,765.9145284999395,None,rdzaqd,001,0,fr,2022-05-06_14h16.33.025,3-AFC_adaptive_staircase_mess,2022.1.1,35.524470867393255,
,,,,,9,0,9,0,1,0,1,0,,,,,,,,,,,,,,,,up,250,30,0.005296268625886445,0,0,-1,10,772.253646166708,None,771.2193882999709,771.5417538000038,772.2077141000191,772.5386486999923,None,None,up,1,1.8782543999841437,771.2486860000063,None,None,None,,,,,,,rdzaqd,001,0,fr,2022-05-06_14h16.33.025,3-AFC_adaptive_staircase_mess,2022.1.1,35.524470867393255,
,,,,,9,0,9,0,2,0,2,0,,,,,,,,,,,,,,,,right,250,10,0.0005296268625886444,-1,0,-1,-10,776.6929626666863,None,774.6600404999917,774.9784409999847,775.6514732999494,775.975381599972,776.6440883999458,776.9793235999532,right,1,2.87087869993411,774.6879176000366,None,777.2147008000175,None,,,,,,,rdzaqd,001,0,fr,2022-05-06_14h16.33.025,3-AFC_adaptive_staircase_mess,2022.1.1,35.524470867393255,
,,,,,9,0,9,0,3,0,3,0,,,,,,,,,,,,,,,,up,250,10,0.0005296268625886444,-1,0,-1,-10,780.1282821666139,None,779.0828400000464,779.4100438000169,780.0798030999722,780.4164747999748,781.0814685999649,781.4120873999782,right,0,2.6880922000855207,779.1427776999772,None,781.6469627999468,None,,,,,,,rdzaqd,001,0,fr,2022-05-06_14h16.33.025,3-AFC_adaptive_staircase_mess,2022.1.1,35.524470867393255,
,,,,,9,0,9,0,4,0,4,0,,,,,,,,,,,,,,,,right,250,15,0.0009418245447449003,1,1,1,5,785.366370166714,785.5989933999954,783.3290799999377,783.6529353000224,784.3194094999926,784.6507578999735,785.3173442999832,785.6591306000482,right,1,2.3953168999869376,783.3880054999609,None,None,None,,,,,,,rdzaqd,001,0,fr,2022-05-06_14h16.33.025,3-AFC_adaptive_staircase_mess,2022.1.1,35.524470867393255,
,,,,,9,0,9,0,5,0,5,0,,,,,,,,,,,,,,,,left,250,15,0.0009418245447449003,1,1,1,5,787.3486122666548,None,787.3024147000397,787.6267713999841,None,None,None,None,left,1,0.8540677999844775,787.3614283000352,None,None,None,,,,,,,rdzaqd,001,0,fr,2022-05-06_14h16.33.025,3-AFC_adaptive_staircase_mess,2022.1.1,35.524470867393255,
,,,,,9,0,9,0,6,0,6,0,,,,,,,,,,,,,,,,up,250,5,0.0002978310717645052,-1,2,-1,-5.0,790.7741776666992,None,789.7397630000487,790.0642362999497,790.7575110000325,791.0922013999661,791.7337445999729,792.0573650000151,right,0,2.575573300011456,789.7993699000217,None,792.2896245999727,None,,,,,,,rdzaqd,001,0,fr,2022-05-06_14h16.33.025,3-AFC_adaptive_staircase_mess,2022.1.1,35.524470867393255,
,,,,,9,0,9,0,7,0,7,0,,,,,,,,,,,,,,,,left,250,7.5,0.0003971641173621407,1,3,1,2.5,793.9108693666678,None,793.8942027000012,794.2276591999689,794.8987790000392,795.2233125000494,795.8929513000185,796.2151977999602,right,0,2.656233899993822,793.9271524000214,None,796.450198699953,None,,,,,,,rdzaqd,001,0,fr,2022-05-06_14h16.33.025,3-AFC_adaptive_staircase_mess,2022.1.1,35.524470867393255,
,,,,,9,0,9,0,8,0,8,0,,,,,,,,,,,,,,,,left,250,10.0,0.0005296268625886444,1,3,1,2.5,798.1306017666977,None,798.0859271000372,798.4085805000504,799.0788163000252,799.4036385000218,800.0761155999498,800.399984800024,right,0,3.2098999000154436,798.1424323000247,None,800.6330168000422,None,,,,,,,rdzaqd,001,0,fr,2022-05-06_14h16.33.025,3-AFC_adaptive_staircase_mess,2022.1.1,35.524470867393255,
,,,,,9,0,9,0,9,0,9,0,,,,,,,,,,,,,,,,up,250,12.5,0.0007062687723113773,1,3,1,2.5,803.9201440666259,None,802.8767434000038,803.2025878999848,803.8714277000399,804.2077309000306,804.8819560999982,805.2075607000152,left,0,2.928031299961731,802.9365718000336,None,805.4170869999798,None,,,,,,,rdzaqd,001,0,fr,2022-05-06_14h16.33.025,3-AFC_adaptive_staircase_mess,2022.1.1,35.524470867393255,
,,,,,9,0,9,0,10,0,10,0,,,,,,,,,,,,,,,,right,250,15.0,0.0009418245447449003,1,3,1,2.5,809.4212260667157,None,807.3810889000306,807.710940000019,808.3792812000029,808.70686939999,809.3726392999524,809.7000521000009,right,1,2.486287000006996,807.4414687999524,None,809.933303299942,None,,,,,,,rdzaqd,001,0,fr,2022-05-06_14h16.33.025,3-AFC_adaptive_staircase_mess,2022.1.1,35.524470867393255,
,,,,,9,0,9,0,11,0,11,0,,,,,,,,,,,,,,,,up,250,15.0,0.0009418245447449003,1,3,1,2.5,812.4944229666764,None,811.4456656000111,811.7770221999381,812.4460921999998,812.7814068000298,813.4513862000313,813.7800969999516,right,0,2.545092499931343,811.5100359000498,None,813.9822347000008,None,,,,,,,rdzaqd,001,0,fr,2022-05-06_14h16.33.025,3-AFC_adaptive_staircase_mess,2022.1.1,35.524470867393255,
,,,,,9,0,9,0,12,0,12,0,,,,,,,,,,,,,,,,up,250,17.5,0.0012559432157547902,1,3,1,2.5,816.6179983666555,None,815.57254069997,815.8979595999699,816.5719317999901,816.9133445000043,817.584010999999,None,up,1,2.023252799990587,815.632352399989,None,None,None,,,,,,,rdzaqd,001,0,fr,2022-05-06_14h16.33.025,3-AFC_adaptive_staircase_mess,2022.1.1,35.524470867393255,
,,,,,9,0,9,0,13,0,13,0,,,,,,,,,,,,,,,,right,250,17.5,0.0012559432157547902,1,3,1,2.5,821.2377162667146,None,819.1899665000383,819.5159655000316,820.1862816000357,820.5165249999845,821.1880694000283,821.5246822000481,right,1,2.4053570999531075,819.2500195000321,None,None,None,,,,,,,rdzaqd,001,0,fr,2022-05-06_14h16.33.025,3-AFC_adaptive_staircase_mess,2022.1.1,35.524470867393255,
,,,,,9,0,9,0,14,0,14,0,,,,,,,,,,,,,,,,left,250,12.5,0.0007062687723113773,-1,4,-1,-5.0,823.227865566678,None,823.1826684999978,823.5085604999913,824.1787019999465,824.5035363000352,825.1811248000013,825.5144899999723,up,0,2.7961307999212295,823.2435715999454,None,825.7166288000299,None,,,,,,,rdzaqd,001,0,fr,2022-05-06_14h16.33.025,3-AFC_adaptive_staircase_mess,2022.1.1,35.524470867393255,
,,,,,9,0,9,0,15,0,15,0,,,,,,,,,,,,,,,,left,250,15.0,0.0009418245447449003,1,5,1,2.5,827.6270919666315,None,827.582299200003,827.906126899994,828.5800852000248,828.9026513999561,829.5742429000093,829.9071778999642,left,1,2.4507112000137568,827.638090100023,None,830.1280304666764,None,,,,,,,rdzaqd,001,0,fr,2022-05-06_14h16.33.025,3-AFC_adaptive_staircase_mess,2022.1.1,35.524470867393255,
,,,,,9,0,9,0,16,0,16,0,,,,,,,,,,,,,,,,left,250,15.0,0.0009418245447449003,1,5,1,2.5,831.6232778666929,None,831.6066112000262,831.933834800031,832.5983082000166,832.9345144999679,833.5882833000505,833.9174939000513,left,1,2.6129779999610037,831.6345444000326,None,834.1599413000513,None,,,,,,,rdzaqd,001,0,fr,2022-05-06_14h16.33.025,3-AFC_adaptive_staircase_mess,2022.1.1,35.524470867393255,
,,,,,9,0,9,0,17,0,17,0,,,,,,,,,,,,,,,,left,250,10.0,0.0005296268625886444,-1,6,-1,-5.0,835.8162903666419,None,835.7687031000387,836.1087033000076,836.787879099953,837.1098275999539,837.7847787999781,838.1103120000334,left,1,2.6599593000719324,835.827326699975,None,838.3171795000089,None,,,,,,,rdzaqd,001,0,fr,2022-05-06_14h16.33.025,3-AFC_adaptive_staircase_mess,2022.1.1,35.524470867393255,
,,,,,10,0,10,0,0,0,0,0,,,,,,,,,,,,,[],[],10,up,125,30,0.02285440948074376,0,0,-1,10,842.0151444667174,None,840.967819500016,841.2973658000119,841.9658839999465,842.3115749999415,None,None,up,1,1.6636075999122113,841.0317015999462,None,None,None,left,0.9190640000160784,839.5844186999602,None,839.5844186999602,None,rdzaqd,001,0,fr,2022-05-06_14h16.33.025,3-AFC_adaptive_staircase_mess,2022.1.1,35.524470867393255,
,,,,,10,0,10,0,1,0,1,0,,,,,,,,,,,,,,,,up,125,30,0.02285440948074376,0,0,-1,10,845.2589566666322,None,844.2337601999752,844.5681920000352,845.2116114000091,845.5529528999468,None,None,up,1,1.7603506000014022,844.2632007000502,None,None,None,,,,,,,rdzaqd,001,0,fr,2022-05-06_14h16.33.025,3-AFC_adaptive_staircase_mess,2022.1.1,35.524470867393255,
,,,,,10,0,10,0,2,0,2,0,,,,,,,,,,,,,,,,right,125,10,0.002285440948074376,-1,0,-1,-10,849.552068266614,None,847.5036927999463,847.8290908000199,848.5159288999857,848.8486793000484,849.505685799988,849.8410971999401,left,0,3.071270800079219,847.5595470999833,None,850.0746996999951,None,,,,,,,rdzaqd,001,0,fr,2022-05-06_14h16.33.025,3-AFC_adaptive_staircase_mess,2022.1.1,35.524470867393255,
,,,,,10,0,10,0,3,0,3,0,,,,,,,,,,,,,,,,left,125,15,0.004064152580820497,1,1,1,5,852.2147406666229,None,852.1681382999523,852.5043368999613,853.1491876000073,853.4830286999932,854.1668807000387,854.5001673999941,right,0,2.901192900026217,852.2261967000086,None,854.7061460999539,None,,,,,,,rdzaqd,001,0,fr,2022-05-06_14h16.33.025,3-AFC_adaptive_staircase_mess,2022.1.1,35.524470867393255,
,,,,,10,0,10,0,4,0,4,0,,,,,,,,,,,,,,,,left,125,20,0.00722719885372964,1,1,1,5,856.6702923667074,856.9032657999778,856.6228364999406,856.9647624000208,None,None,None,None,left,1,0.6852550999028608,856.6818537999643,None,None,None,,,,,,,rdzaqd,001,0,fr,2022-05-06_14h16.33.025,3-AFC_adaptive_staircase_mess,2022.1.1,35.524470867393255,
,,,,,10,0,10,0,5,0,5,0,,,,,,,,,,,,,,,,up,125,20,0.00722719885372964,1,1,1,5,859.9158284667103,None,858.8958785999566,859.222178200027,859.8991618000437,860.2237109999405,860.8798986000475,861.2039329999825,up,1,2.4533676999853924,858.9296378999716,None,861.4279606666571,None,,,,,,,rdzaqd,001,0,fr,2022-05-06_14h16.33.025,3-AFC_adaptive_staircase_mess,2022.1.1,35.524470867393255,
,,,,,10,0,10,0,6,0,6,0,,,,,,,,,,,,,,,,left,125,10,0.002285440948074376,-1,2,-1,-5.0,862.9795730666413,None,862.9308045000071,863.2691862999927,863.9371521000285,864.2660865000216,864.922004000051,865.2561400999548,right,0,2.516136800055392,862.9957186999964,None,865.4996499000117,None,,,,,,,rdzaqd,001,0,fr,2022-05-06_14h16.33.025,3-AFC_adaptive_staircase_mess,2022.1.1,35.524470867393255,
,,,,,10,0,10,0,7,0,7,0,,,,,,,,,,,,,,,,right,125,12.5,0.0030476844862008467,1,3,1,2.5,869.0856959666746,None,867.0439831999829,867.384208500036,868.038766099955,868.3770964000141,869.0371445999481,869.3779000999639,left,0,2.743352000019513,867.071539800032,None,869.6016267000232,None,,,,,,,rdzaqd,001,0,fr,2022-05-06_14h16.33.025,3-AFC_adaptive_staircase_mess,2022.1.1,35.524470867393255,
,,,,,10,0,10,0,8,0,8,0,,,,,,,,,,,,,,,,right,125,15.0,0.004064152580820497,1,3,1,2.5,873.3487222666774,None,871.3294211999746,871.6705343000358,872.3397359000519,872.6736201000167,873.3320556000108,873.6773130999645,left,0,2.872042200062424,871.3595685999608,None,873.8660226999782,None,,,,,,,rdzaqd,001,0,fr,2022-05-06_14h16.33.025,3-AFC_adaptive_staircase_mess,2022.1.1,35.524470867393255,
,,,,,10,0,10,0,9,0,9,0,,,,,,,,,,,,,,,,up,125,17.5,0.005419634570106019,1,3,1,2.5,876.7772327666792,None,875.7297293000156,876.0725713999709,876.7302383000497,877.0526619999437,877.7442037999863,878.0798071000027,left,0,2.8262634000275284,875.7901214000303,None,878.2917216999922,None,,,,,,,rdzaqd,001,0,fr,2022-05-06_14h16.33.025,3-AFC_adaptive_staircase_mess,2022.1.1,35.524470867393255,
,,,,,10,0,10,0,10,0,10,0,,,,,,,,,,,,,,,,up,125,20.0,0.00722719885372964,1,3,1,2.5,881.1557579666298,None,880.1283836000366,880.4479718999937,881.107004999998,881.4230631999671,882.1262774999486,None,up,1,1.961113200057298,880.1583252999699,None,None,None,,,,,,,rdzaqd,001,0,fr,2022-05-06_14h16.33.025,3-AFC_adaptive_staircase_mess,2022.1.1,35.524470867393255,
,,,,,10,0,10,0,11,0,11,0,,,,,,,,,,,,,,,,left,125,20.0,0.00722719885372964,1,3,1,2.5,883.6631063667048,None,883.6464397000382,883.9594007999403,884.6527976000216,884.9860613000346,885.6518878999632,885.9959922999842,left,1,2.7497197000775486,883.6749292999739,None,886.1949367000489,None,,,,,,,rdzaqd,001,0,fr,2022-05-06_14h16.33.025,3-AFC_adaptive_staircase_mess,2022.1.1,35.524470867393255,
,,,,,10,0,10,0,12,0,12,0,,,,,,,,,,,,,,,,left,125,15.0,0.004064152580820497,-1,4,-1,-5.0,887.9586936666785,None,887.9128186999587,888.2547600000398,888.9224545999896,889.2574519000482,889.915015000035,890.2582322999369,right,0,2.692743799998425,887.9711218000157,None,890.471998999943,None,,,,,,,rdzaqd,001,0,fr,2022-05-06_14h16.33.025,3-AFC_adaptive_staircase_mess,2022.1.1,35.524470867393255,
,,,,,10,0,10,0,13,0,13,0,,,,,,,,,,,,,,,,left,125,17.5,0.005419634570106019,1,5,1,2.5,892.2077402666366,None,892.19107359997,892.5333151000086,893.1655694999499,893.4772575999377,None,None,left,1,1.2429057999979705,892.2209126999369,None,None,None,,,,,,,rdzaqd,001,0,fr,2022-05-06_14h16.33.025,3-AFC_adaptive_staircase_mess,2022.1.1,35.524470867393255,
,,,,,10,0,10,0,14,0,14,0,,,,,,,,,,,,,,,,up,125,17.5,0.005419634570106019,1,5,1,2.5,896.01617786667,None,894.9667990000453,895.3022321000462,895.9683877000352,896.2874179000501,None,None,up,1,1.6781231999630108,895.0328442000318,None,None,None,,,,,,,rdzaqd,001,0,fr,2022-05-06_14h16.33.025,3-AFC_adaptive_staircase_mess,2022.1.1,35.524470867393255,
,,,,,10,0,10,0,15,0,15,0,,,,,,,,,,,,,,,,right,125,12.5,0.0030476844862008467,-1,6,-1,-5.0,900.2498076667,None,898.1932690000394,898.5331753999926,899.2000980000012,899.5339060999686,900.2003275000025,900.5425874999491,right,1,2.939953700057231,898.2511723999633,None,900.7531958000036,None,,,,,,,rdzaqd,001,0,fr,2022-05-06_14h16.33.025,3-AFC_adaptive_staircase_mess,2022.1.1,35.524470867393255,
,,,,,,,,,,,,,,,,,,,,,,,,,,,,,,,,,,,,,,,,,,,,,,,,,,,left,1.7571123000234365,902.2654889000114,None,902.2654889000114,None,,,,,,,,,
