tTrials.thisRepN,tTrials.thisTrialN,tTrials.thisN,tTrials.thisIndex,blocks.thisRepN,blocks.thisTrialN,blocks.thisN,blocks.thisIndex,trials.thisRepN,trials.thisTrialN,trials.thisN,trials.thisIndex,tStart_text.started,tStart_text.stopped,Prediction,practice_Frequency,practice_Level,practice_Psychopy_Level,practice_isCatchTrial,Practice_trial_detection,practice_Cue_Delays,practice_Cue_Frequencies,practice_Interval,practice_Cue_Intensities,tCue_visual_cue.started,tCue_visual_cue.stopped,tProbe_visual_cue.started,tProbe_visual_cue.stopped,tFeedback.keys,tFeedback.corr,tFeedback.rt,tFeedback.started,tFeedback.stopped,tToo_late.keys,tToo_late.corr,tToo_early.keys,tToo_early.corr,more_instructions.started,more_instructions.stopped,readyy.keys,readyy.rt,readyy.started,readyy.stopped,txt_rhythm.started,txt_rhythm.stopped,sound_1.started,sound_1.stopped,sound_2.started,sound_2.stopped,sound_3.started,sound_3.stopped,sound_4.started,sound_4.stopped,cross.started,cross.stopped,sound_5.started,sound_5.stopped,circle.started,circle.stopped,rhythm_ready.keys,rhythm_ready.rt,rhythm_ready.started,rhythm_ready.stopped,rhytm_ready_txt.started,rhytm_ready_txt.stopped,txt_freq.started,txt_freq.stopped,sound_6.started,sound_6.stopped,sound_7.started,sound_7.stopped,sound_8.started,sound_8.stopped,sound_9.started,sound_9.stopped,cross_2.started,cross_2.stopped,sound_10.started,sound_10.stopped,circle_2.started,circle_2.stopped,freq_ready.keys,freq_ready.rt,freq_ready.started,freq_ready.stopped,freq_ready_txt.started,freq_ready_txt.stopped,txt_freq_2.started,txt_freq_2.stopped,sound_11.started,sound_11.stopped,sound_12.started,sound_12.stopped,sound_13.started,sound_13.stopped,sound_14.started,sound_14.stopped,cross_3.started,cross_3.stopped,sound_15.started,sound_15.stopped,circle_3.started,circle_3.stopped,freq_ready_2.keys,freq_ready_2.rt,freq_ready_2.started,freq_ready_2.stopped,freq_ready_txt_2.started,freq_ready_txt_2.stopped,txt_freq_3.started,txt_freq_3.stopped,sound_16.started,sound_16.stopped,sound_17.started,sound_17.stopped,sound_18.started,sound_18.stopped,sound_19.started,sound_19.stopped,cross_4.started,cross_4.stopped,sound_20.started,sound_20.stopped,circle_4.started,circle_4.stopped,freq_ready_txt_3.started,freq_ready_txt_3.stopped,tStart_text_2.started,tStart_text_2.stopped,this_trial_is.started,this_trial_is.stopped,Frequency,Level,Psychopy_Level,Real trial detection,Cue Delays,Cue Frequencies,Interval,Cue Intensities,Catch trial,cue_visual_cue.started,cue_visual_cue.stopped,probe_visual_cue.started,probe_visual_cue.stopped,feedback.keys,feedback.corr,feedback.rt,feedback.started,feedback.stopped,answer_too_late.keys,answer_too_late.corr,answer_too_early.keys,answer_too_early.corr,Catch trial answer,Audiogram_time,Audiogram_frequency,Audiogram_both,Audiogram_none,participant,session,Language (english or french),Skip training? (1 for yes),Resume previous experiment,date,expName,psychopyVersion,frameRate,
0,0,0,0,,,,,,,,,15.72955990000628,None,none,1000,30,0.0013930605843148849,False,1,"[0.5728068348362143, 0.6399338543478771, 0.45034466295323333, 0.46308211045716774]","[2672.085063725157, 1219.219145030609, 137.73194203120346, 181.1833190298302]",None,"[30, 30, 30, 30]",34.347910600015894,36.94393860013224,36.94393860013224,38.15079180011526,['space'],1,[0.40774279995821416],36.94393860013224,38.61128710000776,None,1,None,1,,,,,,,,,,,,,,,,,,,,,,,,,,,,,,,,,,,,,,,,,,,,,,,,,,,,,,,,,,,,,,,,,,,,,,,,,,,,,,,,,,,,,,,,,,,,,,,,,,,,,,,,,,,,,,,,,,,,,,,,,,vqnuwy,001,fr,0,0,2022-05-10_10h33.47.531,Cluster,2022.1.1,36.490690288268084,
1,0,1,0,,,,,,,,,,,time,2500,30,0.002716251657462167,False,1,"[0.731454772123568, 0.731454772123568, 0.731454772123568, 0.731454772123568]","[1699.8534559229115, 2456.58113829084, 145.70743580843182, 254.77173543525896]",None,"[30, 30, 30, 30]",45.98997370013967,49.11231420002878,49.11231420002878,50.343320599989966,['space'],1,[0.3991906999144703],49.11231420002878,51.07153940014541,None,1,None,1,,,,,,,,,,,,,,,,,,,,,,,,,,,,,,,,,,,,,,,,,,,,,,,,,,,,,,,,,,,,,,,,,,,,,,,,,,,,,,,,,,,,,,,,,,,,,,,,,,,,,,,,,,,,,,,,,,,,,,,,,,vqnuwy,001,fr,0,0,2022-05-10_10h33.47.531,Cluster,2022.1.1,36.490690288268084,
2,0,2,0,,,,,,,,,,,time,6000,30,0.003664122665694519,True,1,"[0.6968233291798496, 0.6968233291798496, 0.6968233291798496, 0.6968233291798496]","[456.70082948757175, 1350.7253246759813, 727.3727019919876, 1722.7251915400122]",None,"[30, 30, 30, 30]",55.29908760008402,58.29996130010113,58.29996130010113,59.5010987999849,None,1,,58.29996130010113,60.22121710004285,None,1,None,1,,,,,,,,,,,,,,,,,,,,,,,,,,,,,,,,,,,,,,,,,,,,,,,,,,,,,,,,,,,,,,,,,,,,,,,,,,,,,,,,,,,,,,,,,,,,,,,,,,,,,,,,,,,,,,,,,,,,,,,,,,vqnuwy,001,fr,0,0,2022-05-10_10h33.47.531,Cluster,2022.1.1,36.490690288268084,
3,0,3,0,,,,,,,,,,,frequency,440,30,0.0023562289915021436,False,1,"[0.4350377787337094, 0.49815091686538904, 0.46814121434315864, 0.7629479849157345]","[277.182630976872, 311.12698372208087, 349.2282314330038, 391.99543598174927]",Tone,"[30, 30, 30, 30]",65.13462599995546,67.46506000007503,67.46506000007503,68.69090609997511,['space'],1,[1.1346812997944653],67.46506000007503,69.4488683999516,None,1,None,1,,,,,,,,,,,,,,,,,,,,,,,,,,,,,,,,,,,,,,,,,,,,,,,,,,,,,,,,,,,,,,,,,,,,,,,,,,,,,,,,,,,,,,,,,,,,,,,,,,,,,,,,,,,,,,,,,,,,,,,,,,vqnuwy,001,fr,0,0,2022-05-10_10h33.47.531,Cluster,2022.1.1,36.490690288268084,
4,0,4,0,,,,,,,,,,,frequency,250,30,0.005296268625886445,True,1,"[0.4414730645126375, 0.6032882916673612, 0.4223890215103233, 0.5875547014059659]","[1259.9210498948732, 840.8964152537146, 561.2310241546866, 374.5767692191704]",Perfect_5th,"[30, 30, 30, 30]",73.03488020016812,75.41769820009358,75.41769820009358,76.62558030011132,None,1,,75.41769820009358,77.23520680004731,None,1,None,1,,,,,,,,,,,,,,,,,,,,,,,,,,,,,,,,,,,,,,,,,,,,,,,,,,,,,,,,,,,,,,,,,,,,,,,,,,,,,,,,,,,,,,,,,,,,,,,,,,,,,,,,,,,,,,,,,,,,,,,,,,vqnuwy,001,fr,0,0,2022-05-10_10h33.47.531,Cluster,2022.1.1,36.490690288268084,
,,,,,,,,,,,,,,,,,,,,,,,,,,,,,,,,,,,,,80.31436720001511,None,space,41.06936639989726,80.31436720001511,None,,,,,,,,,,,,,,,,,,,,,,,,,,,,,,,,,,,,,,,,,,,,,,,,,,,,,,,,,,,,,,,,,,,,,,,,,,,,,,,,,,,,,,,,,,,,,,,,,,,,,,,,,,,,,,,,,,,,vqnuwy,001,fr,0,0,2022-05-10_10h33.47.531,Cluster,2022.1.1,36.490690288268084,
,,,,,,,,,,,,,,,,,,,,,,,,,,,,,,,,,,,,,,,,,,,121.44306190009229,122.44896499998868,122.91474566017277,None,123.43428126014769,None,123.91261125998571,None,124.43620516001246,None,122.8307370999828,124.61731470003724,124.93173166005872,None,124.61731470003724,125.44282810017467,space,1.651971000013873,125.61976170004345,None,,,,,,,,,,,,,,,,,,,,,,,,,,,,,,,,,,,,,,,,,,,,,,,,,,,,,,,,,,,,,,,,,,,,,,,,,,,,,,,,,,,,,,,,,,,,,,,,vqnuwy,001,fr,0,0,2022-05-10_10h33.47.531,Cluster,2022.1.1,36.490690288268084,
,,,,,,,,,,,,,,,,,,,,,,,,,,,,,,,,,,,,,,,,,,,,,,,,,,,,,,,,,,,,,,,125.61976170004345,None,127.3311863001436,128.33409350016154,128.799090260081,129.01544950017706,129.09765946017578,129.3207273001317,129.7881492601242,None,130.18717416017316,130.41444459999911,128.68426940008067,130.49887470016256,130.79761276012286,131.01632840000093,130.49887470016256,131.3108806000091,space,2.132087300065905,131.49170330003835,None,,,,,,,,,,,,,,,,,,,,,,,,,,,,,,,,,,,,,,,,,,,,,,,,,,,,,,,,,,,,,,,,,,,,,,,,,,vqnuwy,001,fr,0,0,2022-05-10_10h33.47.531,Cluster,2022.1.1,36.490690288268084,
,,,,,,,,,,,,,,,,,,,,,,,,,,,,,,,,,,,,,,,,,,,,,,,,,,,,,,,,,,,,,,,,,,,,,,,,,,,,,,,,,,,,,131.49170330003835,None,133.67616330017336,134.69287599995732,135.1567855599802,135.38182270014659,135.64751526005566,135.87634740001522,136.15840766010805,136.37532800016925,136.65610546004027,None,135.0377593000885,136.83436690014787,137.14891476011834,137.37735199998133,136.83436690014787,137.6622377000749,space,4.6190126000437886,137.8364620001521,None,,,,,,,,,,,,,,,,,,,,,,,,,,,,,,,,,,,,,,,,,,,,,,,,,,,,vqnuwy,001,fr,0,0,2022-05-10_10h33.47.531,Cluster,2022.1.1,36.490690288268084,
,,,,0,0,0,0,0,0,0,0,,,none,,,,,,,,,,,,,,,,,,,,,,,,,,,,,,,,,,,,,,,,,,,,,,,,,,,,,,,,,,,,,,,,,,,,,,,,,,,,,,,,,,,,,,,,,,,,,137.8364620001521,None,142.49450969998725,143.5190304000862,143.94732316015288,None,144.23996316003613,None,144.94355416009202,None,145.3409730600193,145.56495440006256,143.86140560009517,145.64818550017662,145.9465036600828,None,145.64818550017662,146.47318520001136,146.6496533001773,None,147.68390870001167,None,173.3401617000345,None,7099.946234023021,-2.146904814682626,0.00012047516773187276,1,"[0.55158384656122, 0.7156150875642744, 0.5451668372428946, 0.4500157294183763]","[391.2830376203567, 437.41046382323685, 5558.841397481129, 365.4690349594195]",None,"[5.741907487963515, 5.0, 4.2774474070648925, 6.0]",False,174.32231159997173,177.15860560000874,177.15860560000874,178.35782390017994,['space'],1,[0.42568410001695156],3.3028157399967313,4.310574339935556,None,1,None,1,,,,,,vqnuwy,001,fr,0,0,2022-05-10_10h33.47.531,Cluster,2022.1.1,36.490690288268084,
,,,,0,0,0,0,1,0,1,0,,,time,,,,,,,,,,,,,,,,,,,,,,,,,,,,,,,,,,,,,,,,,,,,,,,,,,,,,,,,,,,,,,,,,,,,,,,,,,,,,,,,,,,,,,,,,,,,,,,,,,,,,,,,,,,,,,,,,,,178.6572298000101,None,131.62339112222836,0.0,0.0006637530528401436,1,"[0.4278377749844137, 0.4278377749844137, 0.4278377749844137, 0.4278377749844137]","[263.3036122645643, 5015.868868603849, 128.90989087158815, 141.06493363325728]",None,"[5.4538397514273385, 3.5228952685843766, 6.0, 5.329310811326203]",False,179.66524530015886,181.97702450002544,181.97702450002544,183.18980050017126,['space'],1,[0.4768354999832809],2.7579460402484983,3.791591640096158,None,1,None,1,,,,,,vqnuwy,001,fr,0,0,2022-05-10_10h33.47.531,Cluster,2022.1.1,36.490690288268084,
,,,,0,0,0,0,2,0,2,0,,,both,,,,,,,,,,,,,,,,,,,,,,,,,,,,,,,,,,,,,,,,,,,,,,,,,,,,,,,,,,,,,,,,,,,,,,,,,,,,,,,,,,,,,,,,,,,,,,,,,,,,,,,,,,,,,,,,,,,183.48639420000836,None,483.4641812777248,-1.600715169637848,6.012294018170275e-05,1,"[0.5830717329352845, 0.5830717329352845, 0.5830717329352845, 0.5830717329352845]","[767.4515499492047, 683.7216020845631, 609.1266988619964, 542.670195201209]",Tone,"[3.7686474663733214, 3.782709253408681, 3.929068038609894, 4.195232343931734]",False,184.47305719996803,187.25576329999603,187.25576329999603,188.48097570007667,['space'],1,[0.34814210003241897],3.391540439799428,4.403095539892092,None,1,None,1,,,,,,vqnuwy,001,fr,0,0,2022-05-10_10h33.47.531,Cluster,2022.1.1,36.490690288268084,
,,,,0,0,0,0,3,0,3,0,,,both,,,,,,,,,,,,,,,,,,,,,,,,,,,,,,,,,,,,,,,,,,,,,,,,,,,,,,,,,,,,,,,,,,,,,,,,,,,,,,,,,,,,,,,,,,,,,,,,,,,,,,,,,,,,,,,,,,,188.90102450014092,None,287.17458874925893,-3.0,9.068759088766197e-05,0,"[0.6075791939209987, 0.6075791939209987, 0.6075791939209987, 0.6075791939209987]","[180.90865468004733, 203.06309908905897, 227.93062213955432, 255.84347299919386]",Tone,"[3.913862982404187, 3.818360559965809, 4.4884503318268765, 5.0]",False,190.45265990006737,193.31439750012942,193.31439750012942,194.5216950001195,None,0,,3.4799712400417775,4.512802539858967,None,1,None,1,,,,,,vqnuwy,001,fr,0,0,2022-05-10_10h33.47.531,Cluster,2022.1.1,36.490690288268084,
,,,,0,0,0,0,4,0,4,0,,,frequency,,,,,,,,,,,,,,,,,,,,,,,,,,,,,,,,,,,,,,,,,,,,,,,,,,,,,,,,,,,,,,,,,,,,,,,,,,,,,,,,,,,,,,,,,,,,,,,,,,,,,,,,,,,,,,,,,,,194.98690830008127,None,1103.1522576320876,-0.8860299198322282,4.3676487808412404e-05,1,"[0.6360194760193661, 0.6097521934007173, 0.7332824417761146, 0.5645146558359884]","[2779.7695012594395, 2206.3045152641757, 1751.1450542462703, 1389.8847506297195]",Major_3rd,"[6.0968051215392105, 8.285997035684538, 7.805797075407877, 6.881509471780701]",False,195.97770060016774,198.97649929998443,198.97649929998443,200.18296570004895,['space'],1,[0.3297792999073863],3.5862564397975802,4.598821739898995,None,1,None,1,,,,,,vqnuwy,001,fr,0,0,2022-05-10_10h33.47.531,Cluster,2022.1.1,36.490690288268084,
,,,,0,0,0,0,5,0,5,0,,,time,,,,,,,,,,,,,,,,,,,,,,,,,,,,,,,,,,,,,,,,,,,,,,,,,,,,,,,,,,,,,,,,,,,,,,,,,,,,,,,,,,,,,,,,,,,,,,,,,,,,,,,,,,,,,,,,,,,200.5929225999862,None,353.5533905932738,-2.0,7.038727582816145e-05,0,"[0.4847011326890629, 0.4847011326890629, 0.4847011326890629, 0.4847011326890629]","[5717.5250480875875, 144.75722821069297, 537.3804493787123, 250.1184906180196]",None,"[4.2774474070648925, 5.329310811326203, 4.195232343931734, 4.971546958525594]",False,201.6012158000376,204.0701501001604,204.0701501001604,205.27195439999923,None,0,,2.9717481401748955,3.9749848400242627,None,1,None,1,,,,,,vqnuwy,001,fr,0,0,2022-05-10_10h33.47.531,Cluster,2022.1.1,36.490690288268084,
,,,,0,0,0,0,6,0,6,0,,,time,,,,,,,,,,,,,,,,,,,,,,,,,,,,,,,,,,,,,,,,,,,,,,,,,,,,,,,,,,,,,,,,,,,,,,,,,,,,,,,,,,,,,,,,,,,,,,,,,,,,,,,,,,,,,,,,,,,205.62407550006174,None,5775.485481019274,-1.7225525929351073,0.00010181590002840602,1,"[0.4967770467264214, 0.4967770467264214, 0.4967770467264214, 0.4967770467264214]","[5294.614420331072, 2137.07322996539, 638.4729364139206, 1233.9777468910322]",None,"[3.96922683325707, 8.285997035684538, 3.8418237079927344, 6.077457641183139]",False,206.61905910004862,209.1356932001654,209.1356932001654,210.3359893001616,['space'],1,[0.33141189999878407],3.038211340084672,4.052792239934206,None,1,None,1,,,,,,vqnuwy,001,fr,0,0,2022-05-10_10h33.47.531,Cluster,2022.1.1,36.490690288268084,
,,,,0,0,0,0,7,0,7,0,,,time,,,,,,,,,,,,,,,,,,,,,,,,,,,,,,,,,,,,,,,,,,,,,,,,,,,,,,,,,,,,,,,,,,,,,,,,,,,,,,,,,,,,,,,,,,,,,,,,,,,,,,,,,,,,,,,,,,,210.70183619996533,None,217.63764082403114,-1.0,0.0002057780162255133,0,"[0.5727275877901665, 0.5727275877901665, 0.5727275877901665, 0.5727275877901665]","[2389.9612708515965, 1179.8365564811847, 639.0733136664982, 137.39874102019436]",None,"[8.0, 5.596429090407045, 3.8418237079927344, 5.8910254988826285]",False,212.31647279998288,215.05051710014232,215.05051710014232,216.2558814000804,None,0,,3.3180699604563415,4.345609160605818,None,1,None,1,,,,,,vqnuwy,001,fr,0,0,2022-05-10_10h33.47.531,Cluster,2022.1.1,36.490690288268084,
,,,,0,0,0,0,8,0,8,0,,,frequency,,,,,,,,,,,,,,,,,,,,,,,,,,,,,,,,,,,,,,,,,,,,,,,,,,,,,,,,,,,,,,,,,,,,,,,,,,,,,,,,,,,,,,,,,,,,,,,,,,,,,,,,,,,,,,,,,,,216.70121830003336,None,,,,,"[0.6222948181311362, 0.649383063359567, 0.45845460697881374, 0.5021676908242286]","[321.9873364726972, 255.5615183185991, 202.83931151076723, 160.9936682363486]",Major_3rd,"[6.142550337123474, 5.0, 3.818360559965809, 4.26729073901503]",True,217.69210000010207,220.42872339999303,220.42872339999303,221.63804610003717,None,1,,3.272426940035075,4.277885340154171,None,1,None,1,0,,,,,vqnuwy,001,fr,0,0,2022-05-10_10h33.47.531,Cluster,2022.1.1,36.490690288268084,
,,,,0,0,0,0,9,0,9,0,,,time,,,,,,,,,,,,,,,,,,,,,,,,,,,,,,,,,,,,,,,,,,,,,,,,,,,,,,,,,,,,,,,,,,,,,,,,,,,,,,,,,,,,,,,,,,,,,,,,,,,,,,,,,,,,,,,,,,,221.99513639998622,None,1024.3551481216339,-1.3518758379179294,3.8574902950969597e-05,1,"[0.7560871934218304, 0.7560871934218304, 0.7560871934218304, 0.7560871934218304]","[223.77344841397363, 1686.865744865159, 820.9921838343662, 888.2898542504047]",None,"[4.08510527353482, 7.805797075407877, 3.828595765580237, 4.0]",False,222.9856394000817,226.28096560016274,226.28096560016274,227.46982280001976,['space'],1,[0.4501604000106454],4.0557929400820285,5.060371340019628,None,1,None,1,,,,,,vqnuwy,001,fr,0,0,2022-05-10_10h33.47.531,Cluster,2022.1.1,36.490690288268084,
,,,,0,0,0,0,10,0,10,0,,,none,,,,,,,,,,,,,,,,,,,,,,,,,,,,,,,,,,,,,,,,,,,,,,,,,,,,,,,,,,,,,,,,,,,,,,,,,,,,,,,,,,,,,,,,,,,,,,,,,,,,,,,,,,,,,,,,,,,228.07692500017583,None,353.5533905932738,-1.0,7.897582242723967e-05,0,"[0.529379528106023, 0.6226682483864721, 0.5413114317635426, 0.4616141213864583]","[204.77634840092227, 395.9470502776966, 1105.2083091858442, 7794.223417989721]",None,"[3.818360559965809, 5.396443685819114, 5.113970080167772, 3.0]",False,229.10378290014341,231.8404260999523,231.8404260999523,233.05497790011577,None,0,,3.1815742400940508,4.182810640195385,None,1,None,1,,,,,,vqnuwy,001,fr,0,0,2022-05-10_10h33.47.531,Cluster,2022.1.1,36.490690288268084,
,,,,0,0,0,0,11,0,11,0,,,none,,,,,,,,,,,,,,,,,,,,,,,,,,,,,,,,,,,,,,,,,,,,,,,,,,,,,,,,,,,,,,,,,,,,,,,,,,,,,,,,,,,,,,,,,,,,,,,,,,,,,,,,,,,,,,,,,,,233.3174135000445,None,681.8252811394732,-2.1581762920072656,3.6363275546578295e-05,1,"[0.5994451528470638, 0.690130383294082, 0.7401425474415526, 0.523657101257244]","[2063.9156484035043, 343.3964529907827, 750.9401070628992, 3145.5784955634517]",None,"[8.246242005825867, 6.014149552543074, 3.7686474663733214, 5.0]",False,234.32522980007343,237.37749950005673,237.37749950005673,238.61579640000127,['space'],1,[0.30337179987691343],3.5987305401358753,4.62077434011735,None,1,None,1,,,,,,vqnuwy,001,fr,0,0,2022-05-10_10h33.47.531,Cluster,2022.1.1,36.490690288268084,
,,,,0,0,0,0,12,0,12,0,,,both,,,,,,,,,,,,,,,,,,,,,,,,,,,,,,,,,,,,,,,,,,,,,,,,,,,,,,,,,,,,,,,,,,,,,,,,,,,,,,,,,,,,,,,,,,,,,,,,,,,,,,,,,,,,,,,,,,,238.97608550009318,None,,,,,"[0.643145791135868, 0.643145791135868, 0.643145791135868, 0.643145791135868]","[177.6705037422426, 199.42839755467574, 223.8508076102773, 251.26403602593922]",Tone,"[3.913862982404187, 3.818360559965809, 4.08510527353482, 5.0]",True,239.97265360015444,242.93643790017813,242.93643790017813,244.15567740006372,None,1,,3.6089793399441987,4.622019540052861,None,1,None,1,0,,,,,vqnuwy,001,fr,0,0,2022-05-10_10h33.47.531,Cluster,2022.1.1,36.490690288268084,
,,,,0,0,0,0,13,0,13,0,,,time,,,,,,,,,,,,,,,,,,,,,,,,,,,,,,,,,,,,,,,,,,,,,,,,,,,,,,,,,,,,,,,,,,,,,,,,,,,,,,,,,,,,,,,,,,,,,,,,,,,,,,,,,,,,,,,,,,,244.62608369998634,None,2462.2888266898335,-1.0,7.580932840616338e-05,1,"[0.7975981824554278, 0.7975981824554278, 0.7975981824554278, 0.7975981824554278]","[539.4702016979853, 654.7476981419287, 2001.3431957773566, 4107.8571558490985]",None,"[4.195232343931734, 3.8418237079927344, 8.246242005825867, 2.5399654969860643]",False,245.714885200141,249.13624550006352,249.13624550006352,250.35404979996383,['space'],1,[0.2637069998309016],4.214728260179982,5.235090360045433,None,1,None,1,,,,,,vqnuwy,001,fr,0,0,2022-05-10_10h33.47.531,Cluster,2022.1.1,36.490690288268084,
,,,,0,0,0,0,14,0,14,0,,,time,,,,,,,,,,,,,,,,,,,,,,,,,,,,,,,,,,,,,,,,,,,,,,,,,,,,,,,,,,,,,,,,,,,,,,,,,,,,,,,,,,,,,,,,,,,,,,,,,,,,,,,,,,,,,,,,,,,250.98836320010014,None,655.9290555488033,-2.1581762920072656,3.813457133086376e-05,1,"[0.7582370666313784, 0.7582370666313784, 0.7582370666313784, 0.7582370666313784]","[1582.2125026789558, 3217.582387764556, 2807.849358295139, 183.36778756834016]",None,"[7.524989386653478, 4.092900644768424, 6.0968051215392105, 3.7577902486280257]",False,251.9810582001228,255.28027730016038,255.28027730016038,256.5147943000775,['space'],1,[0.3273387998342514],4.079862339887768,5.097507139900699,None,1,None,1,,,,,,vqnuwy,001,fr,0,0,2022-05-10_10h33.47.531,Cluster,2022.1.1,36.490690288268084,
,,,,0,0,0,0,15,0,15,0,,,time,,,,,,,,,,,,,,,,,,,,,,,,,,,,,,,,,,,,,,,,,,,,,,,,,,,,,,,,,,,,,,,,,,,,,,,,,,,,,,,,,,,,,,,,,,,,,,,,,,,,,,,,,,,,,,,,,,,257.1147133000195,None,1515.7165665103996,-4.0,3.131458903779733e-05,0,"[0.7644289424507584, 0.7644289424507584, 0.7644289424507584, 0.7644289424507584]","[308.8195609867029, 931.6923607243717, 194.5921991842416, 2258.8014853181594]",None,"[6.084267729419362, 4.275566113720469, 3.7577902486280257, 8.11565914851633]",False,258.9325904001016,262.2371110001113,262.2371110001113,263.45379599998705,None,0,,4.061327320290729,5.071732620475814,None,1,None,1,,,,,,vqnuwy,001,fr,0,0,2022-05-10_10h33.47.531,Cluster,2022.1.1,36.490690288268084,
,,,,0,0,0,0,16,0,16,0,,,time,,,,,,,,,,,,,,,,,,,,,,,,,,,,,,,,,,,,,,,,,,,,,,,,,,,,,,,,,,,,,,,,,,,,,,,,,,,,,,,,,,,,,,,,,,,,,,,,,,,,,,,,,,,,,,,,,,,264.04988489998505,None,2619.253507477946,1.0,8.806122160062835e-05,1,"[0.7901937703956069, 0.7901937703956069, 0.7901937703956069, 0.7901937703956069]","[1099.4638412422457, 3132.415941143246, 2663.5912983301587, 168.3494189782569]",None,"[5.113970080167772, 5.0, 6.99557474867503, 4.26729073901503]",False,265.0591303999536,268.4681539000012,268.4681539000012,269.6771235000342,['space'],1,[0.2772594001144171],4.187045640079305,5.208179640118033,None,1,None,1,,,,,,vqnuwy,001,fr,0,0,2022-05-10_10h33.47.531,Cluster,2022.1.1,36.490690288268084,
,,,,0,0,0,0,17,0,17,0,,,both,,,,,,,,,,,,,,,,,,,,,,,,,,,,,,,,,,,,,,,,,,,,,,,,,,,,,,,,,,,,,,,,,,,,,,,,,,,,,,,,,,,,,,,,,,,,,,,,,,,,,,,,,,,,,,,,,,,270.2976667000912,None,778.8598510104104,-2.2313525336266786,3.0419253426334295e-05,1,"[0.5715618530145188, 0.5715618530145188, 0.5715618530145188, 0.5715618530145188]","[490.6509606030003, 550.7370822434052, 618.1814734148602, 693.8852428761502]",Tone,"[4.399284830362152, 4.195232343931734, 3.929068038609894, 3.782709253408681]",False,271.2976262001321,274.03035490005277,274.03035490005277,275.25304149999283,['space'],1,[0.3065470000728965],3.3428701399825513,4.345062240026891,None,1,None,1,,,,,,vqnuwy,001,fr,0,0,2022-05-10_10h33.47.531,Cluster,2022.1.1,36.490690288268084,
,,,,0,0,0,0,18,0,18,0,,,time,,,,,,,,,,,,,,,,,,,,,,,,,,,,,,,,,,,,,,,,,,,,,,,,,,,,,,,,,,,,,,,,,,,,,,,,,,,,,,,,,,,,,,,,,,,,,,,,,,,,,,,,,,,,,,,,,,,275.67350390017964,None,4000.0,-4.0,5.296268625886443e-05,1,"[0.5088602462040595, 0.5088602462040595, 0.5088602462040595, 0.5088602462040595]","[169.37469383954905, 669.1357084935233, 495.45713511384537, 1744.4565187679293]",None,"[4.26729073901503, 3.8418237079927344, 4.399284830362152, 7.805797075407877]",False,276.68083250010386,279.221078600036,279.221078600036,280.4362982001621,['space'],1,[0.3064120998606086],3.047874140087515,4.072628240101039,None,1,None,1,,,,,,vqnuwy,001,fr,0,0,2022-05-10_10h33.47.531,Cluster,2022.1.1,36.490690288268084,
,,,,0,0,0,0,19,0,19,0,,,time,,,,,,,,,,,,,,,,,,,,,,,,,,,,,,,,,,,,,,,,,,,,,,,,,,,,,,,,,,,,,,,,,,,,,,,,,,,,,,,,,,,,,,,,,,,,,,,,,,,,,,,,,,,,,,,,,,,280.7917861000169,None,,,,,"[0.6904699029174972, 0.6904699029174972, 0.6904699029174972, 0.6904699029174972]","[6632.114205685202, 707.2190126542747, 1005.267987844937, 259.27456746121226]",None,"[4.0, 3.782709253408681, 4.648124162082071, 5.0]",True,281.80373809998855,284.90785790001974,284.90785790001974,286.1130230000708,None,1,,3.8184652402997017,4.8499054403509945,None,1,None,1,0,,,,,vqnuwy,001,fr,0,0,2022-05-10_10h33.47.531,Cluster,2022.1.1,36.490690288268084,
,,,,1,0,1,0,0,0,0,0,,,both,,,,,,,,,,,,,,,,,,,,,,,,,,,,,,,,,,,,,,,,,,,,,,,,,,,,,,,,,,,,,,,,,,,,,,,,,,,,,,,,,,,,,,,,,,,,,,,,,,,,,,,,,,,,,,,,,,,292.3204153000843,None,2462.2888266898335,-2.0,6.756513506128234e-05,1,"[0.6574544308629021, 0.6574544308629021, 0.6574544308629021, 0.6574544308629021]","[977.1599684342466, 1231.144413344917, 1551.1447618337354, 1954.3199368684927]",Major_3rd,"[4.648124162082071, 6.077457641183139, 7.224731753229348, 8.246242005825867]",False,293.344611100154,296.3416152000427,296.3416152000427,297.5643283999525,['space'],1,[0.3098643000703305],3.651582940015942,4.672678739996627,None,1,None,1,,,,,,vqnuwy,001,fr,0,0,2022-05-10_10h33.47.531,Cluster,2022.1.1,36.490690288268084,
,,,,1,0,1,0,1,0,1,0,,,frequency,,,,,,,,,,,,,,,,,,,,,,,,,,,,,,,,,,,,,,,,,,,,,,,,,,,,,,,,,,,,,,,,,,,,,,,,,,,,,,,,,,,,,,,,,,,,,,,,,,,,,,,,,,,,,,,,,,,298.0694562001154,None,287.17458874925893,-3.0,9.068759088766197e-05,0,"[0.579865272735703, 0.49073090375695794, 0.45865809130742863, 0.48409288998782385]","[180.90865468004733, 203.06309908905897, 227.93062213955432, 255.84347299919386]",Tone,"[3.913862982404187, 3.818360559965809, 4.4884503318268765, 5.0]",False,299.07713290001266,301.6249945999589,301.6249945999589,302.8595569001045,None,0,,3.0454912399873137,4.0643491400405765,None,1,None,1,,,,,,vqnuwy,001,fr,0,0,2022-05-10_10h33.47.531,Cluster,2022.1.1,36.490690288268084,
,,,,1,0,1,0,2,0,2,0,,,none,,,,,,,,,,,,,,,,,,,,,,,,,,,,,,,,,,,,,,,,,,,,,,,,,,,,,,,,,,,,,,,,,,,,,,,,,,,,,,,,,,,,,,,,,,,,,,,,,,,,,,,,,,,,,,,,,,,303.18746830010787,None,203.0630990890589,1.0,0.0002910976221793013,1,"[0.6642411188240827, 0.6387128458066798, 0.43252828008521627, 0.46539781352793597]","[6807.688527053697, 1691.3868404664306, 6672.455871477753, 335.07981895266005]",None,"[4.0, 7.805797075407877, 4.0, 6.142550337123474]",False,304.22175110015087,306.98222670005634,306.98222670005634,308.18588460003957,['space'],1,[0.35067819990217686],3.232865040190518,4.244764540111646,None,1,None,1,,,,,,vqnuwy,001,fr,0,0,2022-05-10_10h33.47.531,Cluster,2022.1.1,36.490690288268084,
,,,,1,0,1,0,3,0,3,0,,,time,,,,,,,,,,,,,,,,,,,,,,,,,,,,,,,,,,,,,,,,,,,,,,,,,,,,,,,,,,,,,,,,,,,,,,,,,,,,,,,,,,,,,,,,,,,,,,,,,,,,,,,,,,,,,,,,,,,308.5099864001386,None,,,,,"[0.5117580815685944, 0.5117580815685944, 0.5117580815685944, 0.5117580815685944]","[526.7018690278232, 4226.461038288747, 251.80181545313334, 318.5786353677981]",None,"[4.195232343931734, 2.667815118831211, 5.0, 6.084267729419362]",True,309.5146017000079,312.09042430017143,312.09042430017143,313.2920433001127,None,1,,3.0631102800834924,4.0813352800905704,None,1,None,1,0,,,,,vqnuwy,001,fr,0,0,2022-05-10_10h33.47.531,Cluster,2022.1.1,36.490690288268084,
,,,,1,0,1,0,4,0,4,0,,,both,,,,,,,,,,,,,,,,,,,,,,,,,,,,,,,,,,,,,,,,,,,,,,,,,,,,,,,,,,,,,,,,,,,,,,,,,,,,,,,,,,,,,,,,,,,,,,,,,,,,,,,,,,,,,,,,,,,313.6472394000739,None,586.8621201476303,-2.0,4.5986977750891864e-05,1,"[0.7783149665943274, 0.7783149665943274, 0.7783149665943274, 0.7783149665943274]","[232.8963867206591, 293.4310600738152, 369.69996927996687, 465.79277344131816]",Major_3rd,"[4.4884503318268765, 5.835761582523043, 5.741907487963515, 4.67174424223777]",False,314.6572446001228,318.00820520007983,318.00820520007983,319.20997800002806,['space'],1,[0.2429170000832528],4.160263440106064,5.1798453400842845,None,1,None,1,,,,,,vqnuwy,001,fr,0,0,2022-05-10_10h33.47.531,Cluster,2022.1.1,36.490690288268084,
,,,,1,0,1,0,5,0,5,0,,,both,,,,,,,,,,,,,,,,,,,,,,,,,,,,,,,,,,,,,,,,,,,,,,,,,,,,,,,,,,,,,,,,,,,,,,,,,,,,,,,,,,,,,,,,,,,,,,,,,,,,,,,,,,,,,,,,,,,319.86134480009787,None,203.0630990890589,-1.0,0.00023122706035812028,1,"[0.7746583816101001, 0.7746583816101001, 0.7746583816101001, 0.7746583816101001]","[1023.3738919967751, 683.0201283771979, 455.8612442791085, 304.2508784176478]",Perfect_5th,"[4.648124162082071, 3.8418237079927344, 4.67174424223777, 6.0]",False,321.86208300013095,325.1964628000278,325.1964628000278,326.40440360014327,['space'],1,[0.23844280000776052],4.136856500292197,5.158295300323516,None,1,None,1,,,,,,vqnuwy,001,fr,0,0,2022-05-10_10h33.47.531,Cluster,2022.1.1,36.490690288268084,
,,,,1,0,1,0,6,0,6,0,,,frequency,,,,,,,,,,,,,,,,,,,,,,,,,,,,,,,,,,,,,,,,,,,,,,,,,,,,,,,,,,,,,,,,,,,,,,,,,,,,,,,,,,,,,,,,,,,,,,,,,,,,,,,,,,,,,,,,,,,327.05162789998576,None,176.3115201838944,-2.086137017595813,0.0002766204003500035,0,"[0.7228062457559198, 0.7163266501514636, 0.6899372149442318, 0.41395310217844106]","[444.27719123730674, 352.6230403677888, 279.8770926140264, 222.13859561865337]",Major_3rd,"[5.0, 6.014149552543074, 5.835761582523043, 4.08510527353482]",False,328.06405590008944,331.21832610014826,331.21832610014826,332.4463736000471,None,0,,3.5795691402163357,4.589026540052146,None,1,None,1,,,,,,vqnuwy,001,fr,0,0,2022-05-10_10h33.47.531,Cluster,2022.1.1,36.490690288268084,
,,,,1,0,1,0,7,0,7,0,,,both,,,,,,,,,,,,,,,,,,,,,,,,,,,,,,,,,,,,,,,,,,,,,,,,,,,,,,,,,,,,,,,,,,,,,,,,,,,,,,,,,,,,,,,,,,,,,,,,,,,,,,,,,,,,,,,,,,,332.6952280001715,None,793.678701995083,-2.171404234419763,3.0105168200176247e-05,1,"[0.42528262189548505, 0.42528262189548505, 0.42528262189548505, 0.42528262189548505]","[3999.8900139873804, 2669.606301483546, 1781.7484430818506, 1189.1744159655316]",Perfect_5th,"[2.5399654969860643, 6.99557474867503, 7.805797075407877, 6.0]",False,333.70937309996225,336.02355460007675,336.02355460007675,337.2265111999586,['space'],1,[0.3075426002033055],2.737307740142569,3.761381140211597,None,1,None,1,,,,,,vqnuwy,001,fr,0,0,2022-05-10_10h33.47.531,Cluster,2022.1.1,36.490690288268084,
,,,,1,0,1,0,8,0,8,0,,,none,,,,,,,,,,,,,,,,,,,,,,,,,,,,,,,,,,,,,,,,,,,,,,,,,,,,,,,,,,,,,,,,,,,,,,,,,,,,,,,,,,,,,,,,,,,,,,,,,,,,,,,,,,,,,,,,,,,337.5000034000259,None,,,,,"[0.49442460943674, 0.5161895924643348, 0.43256857592482717, 0.5331134364059283]","[143.05218984131224, 1100.9343877538456, 499.3794998327983, 321.9899005937899]",None,"[5.329310811326203, 5.113970080167772, 4.399284830362152, 6.142550337123474]",True,338.51148270000704,340.98886670009233,340.98886670009233,342.19999020011164,None,1,,3.031863340176642,4.049012140138075,None,1,None,1,0,,,,,vqnuwy,001,fr,0,0,2022-05-10_10h33.47.531,Cluster,2022.1.1,36.490690288268084,
,,,,1,0,1,0,9,0,9,0,,,both,,,,,,,,,,,,,,,,,,,,,,,,,,,,,,,,,,,,,,,,,,,,,,,,,,,,,,,,,,,,,,,,,,,,,,,,,,,,,,,,,,,,,,,,,,,,,,,,,,,,,,,,,,,,,,,,,,,342.58504840009846,None,1319.5079107728945,-4.0,3.3304181786869376e-05,0,"[0.7879109555940855, 0.7879109555940855, 0.7879109555940855, 0.7879109555940855]","[261.82353070515677, 392.2920489483755, 587.7739531418046, 880.6658735961487]",Perfect_5th,"[5.4538397514273385, 5.741907487963515, 4.0, 4.0]",False,343.59349820017815,346.9854425000958,346.9854425000958,348.2052790999878,None,0,,4.186079639941454,5.212494239909574,None,1,None,1,,,,,,vqnuwy,001,fr,0,0,2022-05-10_10h33.47.531,Cluster,2022.1.1,36.490690288268084,
,,,,1,0,1,0,10,0,10,0,,,none,,,,,,,,,,,,,,,,,,,,,,,,,,,,,,,,,,,,,,,,,,,,,,,,,,,,,,,,,,,,,,,,,,,,,,,,,,,,,,,,,,,,,,,,,,,,,,,,,,,,,,,,,,,,,,,,,,,348.85225420002826,None,737.4930597137916,-2.2313525336266786,3.2282492465183596e-05,1,"[0.7486691565147151, 0.7563096354094121, 0.5068398517105561, 0.7337974629437459]","[953.2418643866179, 126.43306931743885, 189.94511206517709, 1885.029169325783]",None,"[4.275566113720469, 6.393197332969853, 3.7577902486280257, 8.064588523086202]",False,349.84174840012565,352.8829693000298,352.8829693000298,354.09276910009794,['space'],1,[0.28645700006745756],3.7967684399336576,4.825416039908305,None,1,None,1,,,,,,vqnuwy,001,fr,0,0,2022-05-10_10h33.47.531,Cluster,2022.1.1,36.490690288268084,
,,,,1,0,1,0,11,0,11,0,,,frequency,,,,,,,,,,,,,,,,,,,,,,,,,,,,,,,,,,,,,,,,,,,,,,,,,,,,,,,,,,,,,,,,,,,,,,,,,,,,,,,,,,,,,,,,,,,,,,,,,,,,,,,,,,,,,,,,,,,354.6992268001195,None,2639.015821545789,-1.0,6.885497846131265e-05,1,"[0.40919443218800466, 0.5518212996170203, 0.6532210900216824, 0.6009556586989143]","[1662.4757922855756, 1866.065983073615, 2094.5882456412537, 2351.0958125672178]",Tone,"[7.524989386653478, 8.064588523086202, 8.285997035684538, 8.0]",False,355.7658307000529,358.41844060015865,358.41844060015865,359.64750279998407,['space'],1,[0.2648708999622613],3.2349089602939785,4.253474660217762,None,1,None,1,,,,,,vqnuwy,001,fr,0,0,2022-05-10_10h33.47.531,Cluster,2022.1.1,36.490690288268084,
,,,,1,0,1,0,12,0,12,0,,,time,,,,,,,,,,,,,,,,,,,,,,,,,,,,,,,,,,,,,,,,,,,,,,,,,,,,,,,,,,,,,,,,,,,,,,,,,,,,,,,,,,,,,,,,,,,,,,,,,,,,,,,,,,,,,,,,,,,360.0641773000825,None,1925.2265617752273,2.064588523086202,9.060323338161206e-05,1,"[0.4802381117709214, 0.4802381117709214, 0.4802381117709214, 0.4802381117709214]","[1063.469389478702, 1214.78210527098, 6417.507134678182, 3805.164807948867]",None,"[5.113970080167772, 6.0, 4.202064993440029, 2.731226031221053]",False,361.053829099983,363.53281130013056,363.53281130013056,364.74572600005195,['space'],1,[0.3333095000125468],2.967729340074584,3.9964525401592255,None,1,None,1,,,,,,vqnuwy,001,fr,0,0,2022-05-10_10h33.47.531,Cluster,2022.1.1,36.490690288268084,
,,,,1,0,1,0,13,0,13,0,,,time,,,,,,,,,,,,,,,,,,,,,,,,,,,,,,,,,,,,,,,,,,,,,,,,,,,,,,,,,,,,,,,,,,,,,,,,,,,,,,,,,,,,,,,,,,,,,,,,,,,,,,,,,,,,,,,,,,,365.0765617999714,None,,,,,"[0.407112236315748, 0.407112236315748, 0.407112236315748, 0.407112236315748]","[1277.8336739969332, 396.4320550751019, 217.1460941283657, 1905.863360102192]",None,"[6.507908756958133, 5.396443685819114, 4.08510527353482, 8.064588523086202]",True,366.09612740017474,368.356983799953,368.356983799953,369.5596773000434,None,1,,2.662327039754018,3.68107913993299,None,1,None,1,0,,,,,vqnuwy,001,fr,0,0,2022-05-10_10h33.47.531,Cluster,2022.1.1,36.490690288268084,
,,,,1,0,1,0,14,0,14,0,,,none,,,,,,,,,,,,,,,,,,,,,,,,,,,,,,,,,,,,,,,,,,,,,,,,,,,,,,,,,,,,,,,,,,,,,,,,,,,,,,,,,,,,,,,,,,,,,,,,,,,,,,,,,,,,,,,,,,,369.80407990003005,None,2462.2888266898335,-1.0,7.580932840616338e-05,1,"[0.4663451039944939, 0.7045494530396761, 0.4223139881396998, 0.4423096806953806]","[511.53007347081143, 210.19033188655018, 273.0453495892986, 3973.0308148040403]",None,"[4.399284830362152, 4.0, 5.4538397514273385, 2.5399654969860643]",False,370.8106221000198,373.4216311001219,373.4216311001219,374.6290517000016,['space'],1,[0.3360603000037372],3.0492633401881903,4.051183440024033,None,1,None,1,,,,,,vqnuwy,001,fr,0,0,2022-05-10_10h33.47.531,Cluster,2022.1.1,36.490690288268084,
,,,,1,0,1,0,15,0,15,0,,,none,,,,,,,,,,,,,,,,,,,,,,,,,,,,,,,,,,,,,,,,,,,,,,,,,,,,,,,,,,,,,,,,,,,,,,,,,,,,,,,,,,,,,,,,,,,,,,,,,,,,,,,,,,,,,,,,,,,374.90445820009336,None,4610.806583395787,-2.9539969630354452,8.965156372420966e-05,1,"[0.512660303521794, 0.7938507327399992, 0.44392868341281533, 0.4115618665995515]","[1497.5324994489324, 335.4625432940779, 425.9136277178043, 493.30857233568753]",None,"[7.224731753229348, 6.142550337123474, 5.021264373999748, 4.399284830362152]",False,375.9202219999861,378.705097500002,378.705097500002,379.9288397000637,['space'],1,[0.37998219998553395],3.188919140258804,4.196011840132996,None,1,None,1,,,,,,vqnuwy,001,fr,0,0,2022-05-10_10h33.47.531,Cluster,2022.1.1,36.490690288268084,
,,,,1,0,1,0,16,0,16,0,,,time,,,,,,,,,,,,,,,,,,,,,,,,,,,,,,,,,,,,,,,,,,,,,,,,,,,,,,,,,,,,,,,,,,,,,,,,,,,,,,,,,,,,,,,,,,,,,,,,,,,,,,,,,,,,,,,,,,,380.15712850005366,None,466.5164957684038,-1.0,6.519999376391703e-05,1,"[0.7920699303650083, 0.7920699303650083, 0.7920699303650083, 0.7920699303650083]","[1651.6189061189525, 451.52946244753355, 2533.169165414379, 3629.3060724899697]",None,"[7.524989386653478, 5.0, 7.684362669786086, 3.0]",False,381.17915079998784,384.5787729001604,384.5787729001604,385.78436439996585,['space'],1,[0.3442460000514984],4.186381740029901,5.21631084010005,None,1,None,1,,,,,,vqnuwy,001,fr,0,0,2022-05-10_10h33.47.531,Cluster,2022.1.1,36.490690288268084,
,,,,1,0,1,0,17,0,17,0,,,none,,,,,,,,,,,,,,,,,,,,,,,,,,,,,,,,,,,,,,,,,,,,,,,,,,,,,,,,,,,,,,,,,,,,,,,,,,,,,,,,,,,,,,,,,,,,,,,,,,,,,,,,,,,,,,,,,,,386.4374902001582,None,1414.213562373095,-3.0,3.570336253224866e-05,0,"[0.6459822329225755, 0.5808777556763223, 0.729010675624212, 0.7213464631397035]","[3774.423973399206, 5839.670132907964, 3859.0481038408807, 127.10376106413405]",None,"[2.731226031221053, 4.2774474070648925, 2.731226031221053, 6.393197332969853]",False,387.44285530014895,390.42806440009736,390.42806440009736,391.6503387000412,None,0,,3.6954142400063574,4.706878439988941,None,1,None,1,,,,,,vqnuwy,001,fr,0,0,2022-05-10_10h33.47.531,Cluster,2022.1.1,36.490690288268084,
,,,,1,0,1,0,18,0,18,0,,,both,,,,,,,,,,,,,,,,,,,,,,,,,,,,,,,,,,,,,,,,,,,,,,,,,,,,,,,,,,,,,,,,,,,,,,,,,,,,,,,,,,,,,,,,,,,,,,,,,,,,,,,,,,,,,,,,,,,392.19555189996026,None,1561.3635717611778,1.2247317532293476,6.158586764313848e-05,1,"[0.49725352389900335, 0.49725352389900335, 0.49725352389900335, 0.49725352389900335]","[619.6275440796298, 780.681785880589, 983.5974153004762, 1239.2550881592595]",Major_3rd,"[3.929068038609894, 3.7686474663733214, 4.648124162082071, 6.077457641183139]",False,393.19249820010737,395.72076020017266,395.72076020017266,396.9247483999934,['space'],1,[0.33635229989886284],3.018836340168491,4.040850140154362,None,1,None,1,,,,,,vqnuwy,001,fr,0,0,2022-05-10_10h33.47.531,Cluster,2022.1.1,36.490690288268084,
,,,,1,0,1,0,19,0,19,0,,,both,,,,,,,,,,,,,,,,,,,,,,,,,,,,,,,,,,,,,,,,,,,,,,,,,,,,,,,,,,,,,,,,,,,,,,,,,,,,,,,,,,,,,,,,,,,,,,,,,,,,,,,,,,,,,,,,,,,397.2605045000091,None,4287.0938501451765,-3.0,7.340968674065446e-05,1,"[0.7701014326812563, 0.7701014326812563, 0.7701014326812563, 0.7701014326812563]","[6805.337287606852, 6062.8662660415985, 5401.399784672765, 4812.100144328471]",Tone,"[4.0, 4.355224463318485, 4.0, 3.5228952685843766]",False,399.07851380016655,402.4105537000578,402.4105537000578,403.6200682001654,['space'],1,[0.25286790006794035],4.107570920372382,5.126354220323265,None,1,None,1,,,,,,vqnuwy,001,fr,0,0,2022-05-10_10h33.47.531,Cluster,2022.1.1,36.490690288268084,
,,,,2,0,2,0,0,0,0,0,,,none,,,,,,,,,,,,,,,,,,,,,,,,,,,,,,,,,,,,,,,,,,,,,,,,,,,,,,,,,,,,,,,,,,,,,,,,,,,,,,,,,,,,,,,,,,,,,,,,,,,,,,,,,,,,,,,,,,,407.8034035000019,None,,,,,"[0.6999045912703847, 0.46013406360444103, 0.4458131754663446, 0.728385303170906]","[5921.703320716613, 290.2856639043009, 217.4655691057599, 2092.507476968687]",None,"[4.355224463318485, 5.835761582523043, 4.08510527353482, 8.285997035684538]",True,408.8055346000474,411.4325811001472,411.4325811001472,412.6381387000438,None,1,,3.3666346401441842,4.378182240063325,None,1,None,1,0,,,,,vqnuwy,001,fr,0,0,2022-05-10_10h33.47.531,Cluster,2022.1.1,36.490690288268084,
,,,,2,0,2,0,1,0,1,0,,,both,,,,,,,,,,,,,,,,,,,,,,,,,,,,,,,,,,,,,,,,,,,,,,,,,,,,,,,,,,,,,,,,,,,,,,,,,,,,,,,,,,,,,,,,,,,,,,,,,,,,,,,,,,,,,,,,,,,413.21736470004544,None,1145.063060376515,-0.40357090959295533,4.784456829770915e-05,1,"[0.43147163526355337, 0.43147163526355337, 0.43147163526355337, 0.43147163526355337]","[454.4185766529016, 572.5315301882576, 721.3445266127078, 908.837153305803]",Major_3rd,"[4.67174424223777, 4.044332107522097, 3.782709253408681, 4.275566113720469]",False,414.2340314001776,416.5516419999767,416.5516419999767,417.7875386001542,['space'],1,[0.4776262999512255],2.7623636398930103,3.7938690399751067,None,1,None,1,,,,,,vqnuwy,001,fr,0,0,2022-05-10_10h33.47.531,Cluster,2022.1.1,36.490690288268084,
,,,,2,0,2,0,2,0,2,0,,,time,,,,,,,,,,,,,,,,,,,,,,,,,,,,,,,,,,,,,,,,,,,,,,,,,,,,,,,,,,,,,,,,,,,,,,,,,,,,,,,,,,,,,,,,,,,,,,,,,,,,,,,,,,,,,,,,,,,418.0735935000703,None,129.20810449942806,0.0,0.0006852559052577599,1,"[0.7409190657510336, 0.7409190657510336, 0.7409190657510336, 0.7409190657510336]","[1182.0542417442348, 142.05555302121914, 138.81300565277297, 1053.4744912857066]",None,"[5.596429090407045, 5.329310811326203, 5.329310811326203, 5.0]",False,419.07478790008463,422.3301799001638,422.3301799001638,423.5653127999976,['space'],1,[0.31907119997777045],4.00168664008379,5.032973740017042,None,1,None,1,,,,,,vqnuwy,001,fr,0,0,2022-05-10_10h33.47.531,Cluster,2022.1.1,36.490690288268084,
,,,,2,0,2,0,3,0,3,0,,,frequency,,,,,,,,,,,,,,,,,,,,,,,,,,,,,,,,,,,,,,,,,,,,,,,,,,,,,,,,,,,,,,,,,,,,,,,,,,,,,,,,,,,,,,,,,,,,,,,,,,,,,,,,,,,,,,,,,,,424.1512527000159,None,5799.767828185397,-1.7225525929351073,0.00010108153726650558,1,"[0.5342837015389017, 0.5163753468543821, 0.4232363045756543, 0.4405697993760956]","[1150.8196939541024, 1724.2812916604883, 2583.502861820975, 3870.880620997526]",Perfect_5th,"[5.596429090407045, 7.805797075407877, 7.0, 2.5399654969860643]",False,425.1668805000372,427.68122140015475,427.68122140015475,428.9136679000221,['space'],1,[0.586022799834609],2.9567762399092317,3.989989140070975,None,1,None,1,,,,,,vqnuwy,001,fr,0,0,2022-05-10_10h33.47.531,Cluster,2022.1.1,36.490690288268084,
,,,,2,0,2,0,4,0,4,0,,,none,,,,,,,,,,,,,,,,,,,,,,,,,,,,,,,,,,,,,,,,,,,,,,,,,,,,,,,,,,,,,,,,,,,,,,,,,,,,,,,,,,,,,,,,,,,,,,,,,,,,,,,,,,,,,,,,,,,429.19599260017276,None,7997.98281873176,-3.0232063344373064,0.00012813370525915644,1,"[0.5536716739013154, 0.6958577761176088, 0.45454659491915955, 0.5735900144271445]","[246.86627016222567, 2917.1653816289, 7475.8207611217595, 3418.64901038323]",None,"[4.971546958525594, 6.0, 3.4223689832933437, 3.2740908097218444]",False,430.2074295999482,432.95114410016686,432.95114410016686,434.1832887001801,['space'],1,[0.3412156000267714],3.3268505402375013,4.344883940182626,None,1,None,1,,,,,,vqnuwy,001,fr,0,0,2022-05-10_10h33.47.531,Cluster,2022.1.1,36.490690288268084,
,,,,2,0,2,0,5,0,5,0,,,time,,,,,,,,,,,,,,,,,,,,,,,,,,,,,,,,,,,,,,,,,,,,,,,,,,,,,,,,,,,,,,,,,,,,,,,,,,,,,,,,,,,,,,,,,,,,,,,,,,,,,,,,,,,,,,,,,,,434.59148790012114,None,267.9433656340732,2.0,0.00018691688229128915,1,"[0.591289123889676, 0.591289123889676, 0.591289123889676, 0.591289123889676]","[218.94172390314677, 2670.906403502543, 6570.104702323078, 834.1527587207469]",None,"[4.08510527353482, 6.99557474867503, 4.202064993440029, 3.828595765580237]",False,435.62018420011736,438.42239550012164,438.42239550012164,439.6568136999849,['space'],1,[0.37877759989351034],3.394927839981392,4.418225239962339,None,1,None,1,,,,,,vqnuwy,001,fr,0,0,2022-05-10_10h33.47.531,Cluster,2022.1.1,36.490690288268084,
,,,,2,0,2,0,6,0,6,0,,,time,,,,,,,,,,,,,,,,,,,,,,,,,,,,,,,,,,,,,,,,,,,,,,,,,,,,,,,,,,,,,,,,,,,,,,,,,,,,,,,,,,,,,,,,,,,,,,,,,,,,,,,,,,,,,,,,,,,440.09158900007606,None,3471.497339924344,-2.7259091902781556,5.455177365687798e-05,1,"[0.7299390178889957, 0.7299390178889957, 0.7299390178889957, 0.7299390178889957]","[173.30191025117605, 412.112142699789, 6866.448775922315, 4378.3623027550875]",None,"[4.0, 5.396443685819114, 3.853095185317374, 2.667815118831211]",False,441.1076108000707,444.32817770005204,444.32817770005204,445.55041970009916,['space'],1,[0.3353120000101626],3.953592540230602,4.987455740105361,None,1,None,1,,,,,,vqnuwy,001,fr,0,0,2022-05-10_10h33.47.531,Cluster,2022.1.1,36.490690288268084,
,,,,2,0,2,0,7,0,7,0,,,none,,,,,,,,,,,,,,,,,,,,,,,,,,,,,,,,,,,,,,,,,,,,,,,,,,,,,,,,,,,,,,,,,,,,,,,,,,,,,,,,,,,,,,,,,,,,,,,,,,,,,,,,,,,,,,,,,,,446.1384642999619,None,,,,,"[0.6905972769715911, 0.629274252569178, 0.5290069401741709, 0.5344310971042476]","[742.2040046331366, 483.01128598452635, 204.46741247025213, 1760.716133156319]",None,"[3.7686474663733214, 4.67174424223777, 3.818360559965809, 7.805797075407877]",True,447.1403431999497,450.02102109999396,450.02102109999396,451.2534134001471,None,1,,3.428405140293762,4.461177540244535,None,1,None,1,0,,,,,vqnuwy,001,fr,0,0,2022-05-10_10h33.47.531,Cluster,2022.1.1,36.490690288268084,
,,,,2,0,2,0,8,0,8,0,,,none,,,,,,,,,,,,,,,,,,,,,,,,,,,,,,,,,,,,,,,,,,,,,,,,,,,,,,,,,,,,,,,,,,,,,,,,,,,,,,,,,,,,,,,,,,,,,,,,,,,,,,,,,,,,,,,,,,,451.63424780010246,None,466.5164957684038,-1.0,6.519999376391703e-05,1,"[0.5863256590570666, 0.7147642960016752, 0.5995295847494295, 0.7953446876744811]","[181.3230272640612, 173.58226231025944, 197.66955066701888, 5343.491377777562]",None,"[3.913862982404187, 4.0, 3.818360559965809, 4.0]",False,452.65907489997335,455.59019890008494,455.59019890008494,456.82978489995,['space'],1,[0.37787849991582334],3.7331433400977403,4.7649201401509345,None,1,None,1,,,,,,vqnuwy,001,fr,0,0,2022-05-10_10h33.47.531,Cluster,2022.1.1,36.490690288268084,
,,,,2,0,2,0,9,0,9,0,,,both,,,,,,,,,,,,,,,,,,,,,,,,,,,,,,,,,,,,,,,,,,,,,,,,,,,,,,,,,,,,,,,,,,,,,,,,,,,,,,,,,,,,,,,,,,,,,,,,,,,,,,,,,,,,,,,,,,,457.4724129999522,None,378.9291416275994,-2.0,6.515442175522428e-05,0,"[0.5941282099285962, 0.5941282099285962, 0.5941282099285962, 0.5941282099285962]","[238.71040097760402, 267.9433656340732, 300.75625902052906, 337.5874865420474]",Tone,"[4.4884503318268765, 5.4538397514273385, 6.0, 6.142550337123474]",False,458.49494979996234,461.30344450008124,461.30344450008124,462.53159989998676,None,0,,3.402331840014085,4.429396440042183,None,1,None,1,,,,,,vqnuwy,001,fr,0,0,2022-05-10_10h33.47.531,Cluster,2022.1.1,36.490690288268084,
,,,,2,0,2,0,10,0,10,0,,,time,,,,,,,,,,,,,,,,,,,,,,,,,,,,,,,,,,,,,,,,,,,,,,,,,,,,,,,,,,,,,,,,,,,,,,,,,,,,,,,,,,,,,,,,,,,,,,,,,,,,,,,,,,,,,,,,,,,462.971579000121,None,8000.0,-5.0,0.00010208689723347648,1,"[0.7712314338897734, 0.7712314338897734, 0.7712314338897734, 0.7712314338897734]","[3345.1020877781416, 455.5313562800987, 2112.578866976445, 825.7560454068364]",None,"[4.0, 4.67174424223777, 8.285997035684538, 3.828595765580237]",False,464.0000555999577,467.3345370001625,467.3345370001625,468.56811380013824,['space'],1,[0.3412389999721199],4.1206427400466055,5.153689040103927,None,1,None,1,,,,,,vqnuwy,001,fr,0,0,2022-05-10_10h33.47.531,Cluster,2022.1.1,36.490690288268084,
,,,,2,0,2,0,11,0,11,0,,,time,,,,,,,,,,,,,,,,,,,,,,,,,,,,,,,,,,,,,,,,,,,,,,,,,,,,,,,,,,,,,,,,,,,,,,,,,,,,,,,,,,,,,,,,,,,,,,,,,,,,,,,,,,,,,,,,,,,469.2108351001516,None,7436.202747496488,-2.5776310167066563,0.0001222220768109405,0,"[0.52932344284002, 0.52932344284002, 0.52932344284002, 0.52932344284002]","[228.0522090615831, 3837.1466459269927, 991.6012565244562, 6884.596673257055]",None,"[4.4884503318268765, 2.731226031221053, 4.648124162082071, 3.853095185317374]",False,470.2314752000384,472.8410218001809,472.8410218001809,474.06771480012685,None,0,,3.1537831402383745,4.185049440246075,None,1,None,1,,,,,,vqnuwy,001,fr,0,0,2022-05-10_10h33.47.531,Cluster,2022.1.1,36.490690288268084,
,,,,2,0,2,0,12,0,12,0,,,both,,,,,,,,,,,,,,,,,,,,,,,,,,,,,,,,,,,,,,,,,,,,,,,,,,,,,,,,,,,,,,,,,,,,,,,,,,,,,,,,,,,,,,,,,,,,,,,,,,,,,,,,,,,,,,,,,,,474.45860600005835,None,265.5369925646469,-0.5461602485726618,0.00014181892537239377,0,"[0.5664521757936734, 0.5664521757936734, 0.5664521757936734, 0.5664521757936734]","[421.51370133359245, 375.52601619668735, 334.55564645797705, 298.0551965760243]",Tone,"[5.021264373999748, 5.741907487963515, 6.142550337123474, 6.0]",False,475.45911650010385,478.1766099999659,478.1766099999659,479.39669000008143,None,0,,3.2952973400242627,4.305858540115878,None,1,None,1,,,,,,vqnuwy,001,fr,0,0,2022-05-10_10h33.47.531,Cluster,2022.1.1,36.490690288268084,
,,,,2,0,2,0,13,0,13,0,,,frequency,,,,,,,,,,,,,,,,,,,,,,,,,,,,,,,,,,,,,,,,,,,,,,,,,,,,,,,,,,,,,,,,,,,,,,,,,,,,,,,,,,,,,,,,,,,,,,,,,,,,,,,,,,,,,,,,,,,479.8054531000089,None,1624.5047927124701,-4.0,3.650530429335395e-05,0,"[0.7587676216260897, 0.5525731362024855, 0.49833899148338495, 0.4619942596105894]","[1023.3738919967741, 1148.6983549970341, 1289.3703084395784, 1447.2692374403773]",Tone,"[4.648124162082071, 5.596429090407045, 6.507908756958133, 7.0]",False,480.8434766000137,483.6839728001505,483.6839728001505,484.8972096000798,None,0,,3.3028823400381953,4.318041840102524,None,1,None,1,,,,,,vqnuwy,001,fr,0,0,2022-05-10_10h33.47.531,Cluster,2022.1.1,36.490690288268084,
,,,,2,0,2,0,14,0,14,0,,,frequency,,,,,,,,,,,,,,,,,,,,,,,,,,,,,,,,,,,,,,,,,,,,,,,,,,,,,,,,,,,,,,,,,,,,,,,,,,,,,,,,,,,,,,,,,,,,,,,,,,,,,,,,,,,,,,,,,,,485.1996087001171,None,,,,,"[0.47627779650642893, 0.5585852052593311, 0.5659867013073453, 0.6192408250879082]","[195.64035840474236, 219.59887742696696, 246.49140576311228, 276.6772482035198]",Tone,"[3.7577902486280257, 4.08510527353482, 4.971546958525594, 5.4538397514273385]",True,486.19281670008786,488.80737560009584,488.80737560009584,490.033776700031,None,1,,3.2679837399628013,4.295033340109512,None,1,None,1,0,,,,,vqnuwy,001,fr,0,0,2022-05-10_10h33.47.531,Cluster,2022.1.1,36.490690288268084,
,,,,2,0,2,0,15,0,15,0,,,both,,,,,,,,,,,,,,,,,,,,,,,,,,,,,,,,,,,,,,,,,,,,,,,,,,,,,,,,,,,,,,,,,,,,,,,,,,,,,,,,,,,,,,,,,,,,,,,,,,,,,,,,,,,,,,,,,,,490.5135570000857,None,2000.0,-4.0,4.720304381429618e-05,0,"[0.7757203731914354, 0.7757203731914354, 0.7757203731914354, 0.7757203731914354]","[3174.8021039364003, 2828.427124746191, 2519.842099789747, 2244.9240966187463]",Tone,"[4.092900644768424, 6.0968051215392105, 7.684362669786086, 8.11565914851633]",False,491.5231019000057,494.89018480014056,494.89018480014056,496.10818680003285,None,0,,4.139540040167049,5.1421181401237845,None,1,None,1,,,,,,vqnuwy,001,fr,0,0,2022-05-10_10h33.47.531,Cluster,2022.1.1,36.490690288268084,
,,,,2,0,2,0,16,0,16,0,,,frequency,,,,,,,,,,,,,,,,,,,,,,,,,,,,,,,,,,,,,,,,,,,,,,,,,,,,,,,,,,,,,,,,,,,,,,,,,,,,,,,,,,,,,,,,,,,,,,,,,,,,,,,,,,,,,,,,,,,496.70911199995317,None,210.04605032693564,-2.0,0.00019521418660980555,0,"[0.4902602663585569, 0.7774683711857651, 0.7627683343648191, 0.6163448518013415]","[132.32072012709205, 148.524986547627, 166.7136606253715, 187.12975698670814]",Tone,"[6.0, 5.0, 4.26729073901503, 3.7577902486280257]",False,497.7002058001235,500.7585096000694,500.7585096000694,501.96804299997166,None,0,,3.6939214400481433,4.722722640028223,None,1,None,1,,,,,,vqnuwy,001,fr,0,0,2022-05-10_10h33.47.531,Cluster,2022.1.1,36.490690288268084,
,,,,2,0,2,0,17,0,17,0,,,frequency,,,,,,,,,,,,,,,,,,,,,,,,,,,,,,,,,,,,,,,,,,,,,,,,,,,,,,,,,,,,,,,,,,,,,,,,,,,,,,,,,,,,,,,,,,,,,,,,,,,,,,,,,,,,,,,,,,,502.4562052001711,None,4000.0,-4.0,5.296268625886443e-05,1,"[0.727045298604078, 0.5567446020586054, 0.7079819848137808, 0.6977512765547358]","[1587.4010519682001, 2000.0000000000007, 2519.842099789747, 3174.8021039363994]",Major_3rd,"[7.524989386653478, 8.246242005825867, 7.684362669786086, 4.092900644768424]",False,504.2877094000578,507.32106430013664,507.32106430013664,508.5419227001257,['space'],1,[0.3079466000199318],3.7196663403883576,4.72534494032152,None,1,None,1,,,,,,vqnuwy,001,fr,0,0,2022-05-10_10h33.47.531,Cluster,2022.1.1,36.490690288268084,
,,,,2,0,2,0,18,0,18,0,,,both,,,,,,,,,,,,,,,,,,,,,,,,,,,,,,,,,,,,,,,,,,,,,,,,,,,,,,,,,,,,,,,,,,,,,,,,,,,,,,,,,,,,,,,,,,,,,,,,,,,,,,,,,,,,,,,,,,,509.05199790000916,None,1790.7177295873873,2.0,8.228593118786416e-05,1,"[0.5025485699160864, 0.5025485699160864, 0.5025485699160864, 0.5025485699160864]","[710.6468019312813, 895.3588647936938, 1128.0814809635524, 1421.2936038625623]",Major_3rd,"[3.782709253408681, 4.0, 5.596429090407045, 6.881509471780701]",False,510.0666625001468,512.6003284000326,512.6003284000326,513.8170088999905,['space'],1,[0.14627650007605553],3.0535879402887076,4.082761540077627,None,1,None,1,,,,,,vqnuwy,001,fr,0,0,2022-05-10_10h33.47.531,Cluster,2022.1.1,36.490690288268084,
,,,,2,0,2,0,19,0,19,0,,,time,,,,,,,,,,,,,,,,,,,,,,,,,,,,,,,,,,,,,,,,,,,,,,,,,,,,,,,,,,,,,,,,,,,,,,,,,,,,,,,,,,,,,,,,,,,,,,,,,,,,,,,,,,,,,,,,,,,514.1758428001776,None,,,,,"[0.5985082703341037, 0.5985082703341037, 0.5985082703341037, 0.5985082703341037]","[197.2169730244015, 311.2172940786715, 524.4974694343389, 884.7886959666757]",None,"[3.818360559965809, 6.084267729419362, 4.195232343931734, 4.0]",True,515.1961119000334,518.0147762000561,518.0147762000561,519.2147962001618,None,1,,3.4384643400553614,4.444520140066743,None,1,None,1,0,,,,,vqnuwy,001,fr,0,0,2022-05-10_10h33.47.531,Cluster,2022.1.1,36.490690288268084,
,,,,3,0,3,0,0,0,0,0,,,frequency,,,,,,,,,,,,,,,,,,,,,,,,,,,,,,,,,,,,,,,,,,,,,,,,,,,,,,,,,,,,,,,,,,,,,,,,,,,,,,,,,,,,,,,,,,,,,,,,,,,,,,,,,,,,,,,,,,,521.7683449001051,None,131.18419899777692,0.0,0.0006676630995177961,1,"[0.764532277698938, 0.49237184581661014, 0.7933864659237397, 0.5603957681730324]","[330.5634674617941, 262.36839799555383, 208.2419354906767, 165.28173373089706]",Major_3rd,"[6.142550337123474, 5.4538397514273385, 4.0, 4.26729073901503]",False,522.7366671001073,525.8003982000519,525.8003982000519,527.0224371999502,['space'],1,[0.29105690005235374],3.6461539398878813,4.679264939855784,None,1,None,1,,,,,,vqnuwy,001,fr,0,0,2022-05-10_10h33.47.531,Cluster,2022.1.1,36.490690288268084,
,,,,3,0,3,0,1,0,1,0,,,both,,,,,,,,,,,,,,,,,,,,,,,,,,,,,,,,,,,,,,,,,,,,,,,,,,,,,,,,,,,,,,,,,,,,,,,,,,,,,,,,,,,,,,,,,,,,,,,,,,,,,,,,,,,,,,,,,,,527.4516879001167,None,8000.0,-5.0,0.00010208689723347648,1,"[0.6647047697591599, 0.6647047697591599, 0.6647047697591599, 0.6647047697591599]","[1587.4010519681997, 2378.4142300054423, 3563.5948725613575, 5339.359416680138]",Perfect_5th,"[7.524989386653478, 8.0, 3.0, 4.0]",False,528.4786535000894,531.4916414001491,531.4916414001491,532.7045805000234,['space'],1,[0.377086800057441],3.6948602399788797,4.7316565399523824,None,1,None,1,,,,,,vqnuwy,001,fr,0,0,2022-05-10_10h33.47.531,Cluster,2022.1.1,36.490690288268084,
,,,,3,0,3,0,2,0,2,0,,,time,,,,,,,,,,,,,,,,,,,,,,,,,,,,,,,,,,,,,,,,,,,,,,,,,,,,,,,,,,,,,,,,,,,,,,,,,,,,,,,,,,,,,,,,,,,,,,,,,,,,,,,,,,,,,,,,,,,533.2479636999778,None,2143.5469250725882,-4.0,4.9210777778194787e-05,1,"[0.6254666698998538, 0.6254666698998538, 0.6254666698998538, 0.6254666698998538]","[340.2519310081939, 636.9648697528607, 3548.432203918726, 256.6734551073934]",None,"[6.142550337123474, 3.929068038609894, 3.0, 5.0]",False,534.2750403000973,537.1817218000069,537.1817218000069,538.3972559000831,['space'],1,[0.35367199988104403],3.536452040076256,4.555874740006402,None,1,None,1,,,,,,vqnuwy,001,fr,0,0,2022-05-10_10h33.47.531,Cluster,2022.1.1,36.490690288268084,
,,,,3,0,3,0,3,0,3,0,,,none,,,,,,,,,,,,,,,,,,,,,,,,,,,,,,,,,,,,,,,,,,,,,,,,,,,,,,,,,,,,,,,,,,,,,,,,,,,,,,,,,,,,,,,,,,,,,,,,,,,,,,,,,,,,,,,,,,,538.8696785999928,None,,,,,"[0.43239314838337456, 0.7757855474760842, 0.4330644279517506, 0.6432051911389495]","[1795.9252867861132, 4489.157634172331, 1736.1664284788799, 971.7555873747066]",None,"[8.0, 3.0, 7.805797075407877, 4.648124162082071]",True,539.8857520001475,542.5494427001104,542.5494427001104,543.7546218000352,None,1,,3.3218266400508583,4.318939240183681,None,1,None,1,0,,,,,vqnuwy,001,fr,0,0,2022-05-10_10h33.47.531,Cluster,2022.1.1,36.490690288268084,
,,,,3,0,3,0,4,0,4,0,,,time,,,,,,,,,,,,,,,,,,,,,,,,,,,,,,,,,,,,,,,,,,,,,,,,,,,,,,,,,,,,,,,,,,,,,,,,,,,,,,,,,,,,,,,,,,,,,,,,,,,,,,,,,,,,,,,,,,,544.2334871999919,None,5311.585116421887,-2.0,0.00011220358322397452,1,"[0.5355611030157087, 0.5355611030157087, 0.5355611030157087, 0.5355611030157087]","[344.7914054949802, 238.24176579457713, 206.31355177691492, 1364.1044523190565]",None,"[6.014149552543074, 4.4884503318268765, 3.818360559965809, 6.507908756958133]",False,545.2381212001201,547.8864768000785,547.8864768000785,549.0921227000654,['space'],1,[0.22970349993556738],3.191625339910388,4.218349139904603,None,1,None,1,,,,,,vqnuwy,001,fr,0,0,2022-05-10_10h33.47.531,Cluster,2022.1.1,36.490690288268084,
,,,,3,0,3,0,5,0,5,0,,,none,,,,,,,,,,,,,,,,,,,,,,,,,,,,,,,,,,,,,,,,,,,,,,,,,,,,,,,,,,,,,,,,,,,,,,,,,,,,,,,,,,,,,,,,,,,,,,,,,,,,,,,,,,,,,,,,,,,549.4868175000884,None,2898.922636549272,0.0,6.110516233480107e-05,1,"[0.61094218795849, 0.47022953777820553, 0.5051690770273428, 0.40519127629996904]","[1034.8543147321438, 267.7802766449047, 201.98930469111605, 326.40422857265685]",None,"[5.0, 5.4538397514273385, 3.818360559965809, 6.142550337123474]",False,550.4808344000485,553.1058611001354,553.1058611001354,554.3238814000506,['space'],1,[0.446510799927637],3.02739814016968,4.064749940065667,None,1,None,1,,,,,,vqnuwy,001,fr,0,0,2022-05-10_10h33.47.531,Cluster,2022.1.1,36.490690288268084,
,,,,3,0,3,0,6,0,6,0,,,time,,,,,,,,,,,,,,,,,,,,,,,,,,,,,,,,,,,,,,,,,,,,,,,,,,,,,,,,,,,,,,,,,,,,,,,,,,,,,,,,,,,,,,,,,,,,,,,,,,,,,,,,,,,,,,,,,,,554.5768204999622,None,659.7539553864473,-6.0,2.4335369146397992e-05,0,"[0.7235292498825168, 0.7235292498825168, 0.7235292498825168, 0.7235292498825168]","[1010.5817777477587, 995.9064001670116, 703.3141683904653, 834.3934970981969]",None,"[4.648124162082071, 4.648124162082071, 3.782709253408681, 3.828595765580237]",False,555.6047994999681,558.8010641001165,558.8010641001165,560.0266150000971,None,0,,3.910463740117848,4.935670540202409,None,1,None,1,,,,,,vqnuwy,001,fr,0,0,2022-05-10_10h33.47.531,Cluster,2022.1.1,36.490690288268084,
,,,,3,0,3,0,7,0,7,0,,,none,,,,,,,,,,,,,,,,,,,,,,,,,,,,,,,,,,,,,,,,,,,,,,,,,,,,,,,,,,,,,,,,,,,,,,,,,,,,,,,,,,,,,,,,,,,,,,,,,,,,,,,,,,,,,,,,,,,560.5922054999974,None,,,,,"[0.671900845435395, 0.5572981610311057, 0.6703461876064973, 0.6842225459378233]","[2673.1440459671753, 487.5513941742146, 5775.033346890081, 149.07817961050156]",None,"[6.99557474867503, 4.399284830362152, 4.2774474070648925, 5.0]",True,561.6085857001599,564.5410651001148,564.5410651001148,565.7622748001013,None,1,,3.627634439850226,4.632147939875722,None,1,None,1,0,,,,,vqnuwy,001,fr,0,0,2022-05-10_10h33.47.531,Cluster,2022.1.1,36.490690288268084,
,,,,3,0,3,0,8,0,8,0,,,none,,,,,,,,,,,,,,,,,,,,,,,,,,,,,,,,,,,,,,,,,,,,,,,,,,,,,,,,,,,,,,,,,,,,,,,,,,,,,,,,,,,,,,,,,,,,,,,,,,,,,,,,,,,,,,,,,,,566.2656152001582,None,233.2582478842019,-2.0,0.000159090436875498,0,"[0.7521148448118932, 0.6452039348868929, 0.7328864995901055, 0.6375434454315497]","[6291.636691124519, 779.9037894518195, 358.6631493156603, 412.0779192370123]",None,"[4.202064993440029, 3.7686474663733214, 6.0, 5.396443685819114]",False,567.2792716000695,570.4431551001035,570.4431551001035,571.6605522001628,None,0,,3.778177839703858,4.784096339717507,None,1,None,1,,,,,,vqnuwy,001,fr,0,0,2022-05-10_10h33.47.531,Cluster,2022.1.1,36.490690288268084,
,,,,3,0,3,0,9,0,9,0,,,none,,,,,,,,,,,,,,,,,,,,,,,,,,,,,,,,,,,,,,,,,,,,,,,,,,,,,,,,,,,,,,,,,,,,,,,,,,,,,,,,,,,,,,,,,,,,,,,,,,,,,,,,,,,,,,,,,,,572.1107014999725,None,2021.7994640347129,2.2462420058258665,9.75165523759522e-05,1,"[0.6715559065275116, 0.7370710680014357, 0.42246206482981524, 0.48974353605442084]","[155.58936469957013, 2894.0180176804643, 1449.4041598780846, 3817.958671631233]",None,"[4.75112332176877, 6.0, 7.0, 2.731226031221053]",False,573.100502199959,575.9517202000134,575.9517202000134,577.1510599001776,['space'],1,[0.34513709996826947],3.373738340102136,4.3982662400230765,None,1,None,1,,,,,,vqnuwy,001,fr,0,0,2022-05-10_10h33.47.531,Cluster,2022.1.1,36.490690288268084,
,,,,3,0,3,0,10,0,10,0,,,time,,,,,,,,,,,,,,,,,,,,,,,,,,,,,,,,,,,,,,,,,,,,,,,,,,,,,,,,,,,,,,,,,,,,,,,,,,,,,,,,,,,,,,,,,,,,,,,,,,,,,,,,,,,,,,,,,,,577.5345608999487,None,160.57727026776197,-1.7327092609849706,0.00033504869766871155,1,"[0.4646649335094414, 0.4646649335094414, 0.4646649335094414, 0.4646649335094414]","[394.46471735323973, 339.3797493890874, 1675.671921181059, 250.1622702577898]",None,"[5.396443685819114, 6.142550337123474, 7.524989386653478, 4.971546958525594]",False,578.5465033000801,580.9610779001378,580.9610779001378,582.1751179001294,['space'],1,[0.344329799991101],2.887486240128055,3.916003340156749,None,1,None,1,,,,,,vqnuwy,001,fr,0,0,2022-05-10_10h33.47.531,Cluster,2022.1.1,36.490690288268084,
,,,,3,0,3,0,11,0,11,0,,,none,,,,,,,,,,,,,,,,,,,,,,,,,,,,,,,,,,,,,,,,,,,,,,,,,,,,,,,,,,,,,,,,,,,,,,,,,,,,,,,,,,,,,,,,,,,,,,,,,,,,,,,,,,,,,,,,,,,582.4943359000608,None,,,,,"[0.5185478667149919, 0.6352869648081607, 0.48084692788002054, 0.6945868553477412]","[138.29919099442753, 4120.809716182161, 1331.4495337939907, 3681.235606334887]",None,"[5.8910254988826285, 2.5399654969860643, 6.507908756958133, 2.731226031221053]",True,583.5046522000339,586.1668398000766,586.1668398000766,587.3984779000748,None,1,,3.380985939875245,4.400588440010324,None,1,None,1,0,,,,,vqnuwy,001,fr,0,0,2022-05-10_10h33.47.531,Cluster,2022.1.1,36.490690288268084,
,,,,3,0,3,0,12,0,12,0,,,frequency,,,,,,,,,,,,,,,,,,,,,,,,,,,,,,,,,,,,,,,,,,,,,,,,,,,,,,,,,,,,,,,,,,,,,,,,,,,,,,,,,,,,,,,,,,,,,,,,,,,,,,,,,,,,,,,,,,,587.932117999997,None,707.1067811865476,-5.0,2.4969612569079748e-05,1,"[0.44192598513669257, 0.6958336670914858, 0.6090333073173535, 0.625351025840008]","[1781.797436280679, 1414.2135623730953, 1122.4620483093731, 890.8987181403394]",Major_3rd,"[7.805797075407877, 6.881509471780701, 5.596429090407045, 4.0]",False,588.9668054999784,591.7355774999596,591.7355774999596,592.9487742001656,['space'],1,[0.36061610002070665],3.3926396400202066,4.410785839892924,None,1,None,1,,,,,,vqnuwy,001,fr,0,0,2022-05-10_10h33.47.531,Cluster,2022.1.1,36.490690288268084,
,,,,3,0,3,0,13,0,13,0,,,frequency,,,,,,,,,,,,,,,,,,,,,,,,,,,,,,,,,,,,,,,,,,,,,,,,,,,,,,,,,,,,,,,,,,,,,,,,,,,,,,,,,,,,,,,,,,,,,,,,,,,,,,,,,,,,,,,,,,,593.426611199975,None,1634.2640522644167,1.5249893866534776,6.948653574121398e-05,1,"[0.46054441758465875, 0.7951286756723894, 0.7693509143323117, 0.5418392958472591]","[2594.232475758348, 2311.198387211151, 2059.043680534434, 1834.3993755830934]",Tone,"[7.0, 8.11565914851633, 8.246242005825867, 8.0]",False,594.4216402000748,597.4737784001045,597.4737784001045,598.7004168999847,['space'],1,[0.2989148998167366],3.619230940239504,4.64416174008511,None,1,None,1,,,,,,vqnuwy,001,fr,0,0,2022-05-10_10h33.47.531,Cluster,2022.1.1,36.490690288268084,
,,,,3,0,3,0,14,0,14,0,,,none,,,,,,,,,,,,,,,,,,,,,,,,,,,,,,,,,,,,,,,,,,,,,,,,,,,,,,,,,,,,,,,,,,,,,,,,,,,,,,,,,,,,,,,,,,,,,,,,,,,,,,,,,,,,,,,,,,,599.0988761000335,None,1866.0659830736151,-2.0,5.462138219158348e-05,1,"[0.7820477180131932, 0.7884898654556824, 0.5101885338843468, 0.7393509745755596]","[2036.155325975273, 1316.3477863478502, 178.80338121784294, 1906.7969726082192]",None,"[8.246242005825867, 6.507908756958133, 3.913862982404187, 8.064588523086202]",False,600.1828459000681,603.2993115000427,603.2993115000427,604.5039417000953,['space'],1,[0.4504466999787837],3.8453399599529803,4.867459460161626,None,1,None,1,,,,,,vqnuwy,001,fr,0,0,2022-05-10_10h33.47.531,Cluster,2022.1.1,36.490690288268084,
,,,,3,0,3,0,15,0,15,0,,,time,,,,,,,,,,,,,,,,,,,,,,,,,,,,,,,,,,,,,,,,,,,,,,,,,,,,,,,,,,,,,,,,,,,,,,,,,,,,,,,,,,,,,,,,,,,,,,,,,,,,,,,,,,,,,,,,,,,605.101040800102,None,,,,,"[0.7724171672391409, 0.7724171672391409, 0.7724171672391409, 0.7724171672391409]","[1239.9736991386603, 939.9123781913854, 708.8697915097815, 543.4818447841063]",None,"[6.077457641183139, 4.275566113720469, 3.782709253408681, 4.195232343931734]",True,606.1138208000921,609.459761200007,609.459761200007,610.6709280000068,None,1,,4.12771064019762,5.150275740073994,None,1,None,1,0,,,,,vqnuwy,001,fr,0,0,2022-05-10_10h33.47.531,Cluster,2022.1.1,36.490690288268084,
,,,,3,0,3,0,16,0,16,0,,,none,,,,,,,,,,,,,,,,,,,,,,,,,,,,,,,,,,,,,,,,,,,,,,,,,,,,,,,,,,,,,,,,,,,,,,,,,,,,,,,,,,,,,,,,,,,,,,,,,,,,,,,,,,,,,,,,,,,611.2964433999732,None,7301.960465964302,-2.5776310167066563,0.00011919775614100268,0,"[0.4590853667667271, 0.5497713651296685, 0.5935755331610003, 0.542408223846822]","[468.0349570663283, 4822.921795293862, 198.4220316184904, 2739.5213916004755]",None,"[4.67174424223777, 3.5228952685843766, 3.818360559965809, 6.0968051215392105]",False,612.3096610000357,614.9339781000745,614.9339781000745,616.152106900001,None,0,,3.1987282398622483,4.199198939837515,None,1,None,1,,,,,,vqnuwy,001,fr,0,0,2022-05-10_10h33.47.531,Cluster,2022.1.1,36.490690288268084,
,,,,3,0,3,0,17,0,17,0,,,none,,,,,,,,,,,,,,,,,,,,,,,,,,,,,,,,,,,,,,,,,,,,,,,,,,,,,,,,,,,,,,,,,,,,,,,,,,,,,,,,,,,,,,,,,,,,,,,,,,,,,,,,,,,,,,,,,,,616.541022800142,None,125.0,2.0,0.000909850429304992,1,"[0.4894708057899996, 0.4521472429996247, 0.41730941552029716, 0.6507239922401122]","[2830.6561440797095, 6471.787043971765, 7997.498206418405, 514.301349162314]",None,"[6.0968051215392105, 4.202064993440029, 2.9767936655626936, 4.399284830362152]",False,618.4208374000154,620.8149600999895,620.8149600999895,622.0169116000179,['space'],1,[0.3514157000463456],3.0477032004855573,4.063525100471452,None,1,None,1,,,,,,vqnuwy,001,fr,0,0,2022-05-10_10h33.47.531,Cluster,2022.1.1,36.490690288268084,
,,,,3,0,3,0,18,0,18,0,,,time,,,,,,,,,,,,,,,,,,,,,,,,,,,,,,,,,,,,,,,,,,,,,,,,,,,,,,,,,,,,,,,,,,,,,,,,,,,,,,,,,,,,,,,,,,,,,,,,,,,,,,,,,,,,,,,,,,,622.5250279000029,None,1071.7734625362941,-4.0,2.968939571619039e-05,0,"[0.7874523919492996, 0.7874523919492996, 0.7874523919492996, 0.7874523919492996]","[6493.059709629554, 2376.1958701283356, 1568.8047385333887, 176.16011078598729]",None,"[4.202064993440029, 8.0, 7.224731753229348, 3.913862982404187]",False,623.5530707000289,626.9562101999763,626.9562101999763,628.1615271000192,None,0,,4.164847939973697,5.186232140054926,None,1,None,1,,,,,,vqnuwy,001,fr,0,0,2022-05-10_10h33.47.531,Cluster,2022.1.1,36.490690288268084,
,,,,3,0,3,0,19,0,19,0,,,frequency,,,,,,,,,,,,,,,,,,,,,,,,,,,,,,,,,,,,,,,,,,,,,,,,,,,,,,,,,,,,,,,,,,,,,,,,,,,,,,,,,,,,,,,,,,,,,,,,,,,,,,,,,,,,,,,,,,,628.7807375001721,None,,,,,"[0.7433964622689636, 0.6497119328870156, 0.7135234948763325, 0.602193177104666]","[1651.9490163108708, 1311.1528031448543, 1040.6626695015975, 825.9745081554353]",Major_3rd,"[7.524989386653478, 6.507908756958133, 5.0, 3.828595765580237]",True,629.7941125000361,632.9233625000343,632.9233625000343,634.1529811001383,None,1,,3.762737440178171,4.774650540202856,None,1,None,1,0,,,,,vqnuwy,001,fr,0,0,2022-05-10_10h33.47.531,Cluster,2022.1.1,36.490690288268084,
,,,,4,0,4,0,0,0,0,0,,,none,,,,,,,,,,,,,,,,,,,,,,,,,,,,,,,,,,,,,,,,,,,,,,,,,,,,,,,,,,,,,,,,,,,,,,,,,,,,,,,,,,,,,,,,,,,,,,,,,,,,,,,,,,,,,,,,,,,637.0666202001739,None,272.22694890553885,-0.5461602485726618,0.00013516345253755682,1,"[0.6403512062295116, 0.6343910192056007, 0.596016442311116, 0.7219946486743225]","[534.3152760220439, 7901.091160219735, 702.8840253605257, 244.70610202905561]",None,"[4.195232343931734, 3.0, 3.782709253408681, 4.971546958525594]",False,638.0508741000667,640.9526393001433,640.9526393001433,642.1627226001583,['space'],1,[0.2996817999519408],3.619595339987427,4.646684739971533,None,1,None,1,,,,,,vqnuwy,001,fr,0,0,2022-05-10_10h33.47.531,Cluster,2022.1.1,36.490690288268084,
,,,,4,0,4,0,1,0,1,0,,,none,,,,,,,,,,,,,,,,,,,,,,,,,,,,,,,,,,,,,,,,,,,,,,,,,,,,,,,,,,,,,,,,,,,,,,,,,,,,,,,,,,,,,,,,,,,,,,,,,,,,,,,,,,,,,,,,,,,642.7329233000055,None,3249.0095854249403,-5.0,3.9789718818038276e-05,0,"[0.5920917332819572, 0.4835384687004688, 0.4611581338646292, 0.5984364616706503]","[3986.66217681239, 1997.1502319685262, 7393.017347123353, 6875.353631170376]",None,"[2.5399654969860643, 8.246242005825867, 3.4223689832933437, 3.853095185317374]",False,644.741236400092,647.311014499981,647.311014499981,648.5117109001148,None,0,,3.153627740452066,4.171471240464598,None,1,None,1,,,,,,vqnuwy,001,fr,0,0,2022-05-10_10h33.47.531,Cluster,2022.1.1,36.490690288268084,
,,,,4,0,4,0,2,0,2,0,,,frequency,,,,,,,,,,,,,,,,,,,,,,,,,,,,,,,,,,,,,,,,,,,,,,,,,,,,,,,,,,,,,,,,,,,,,,,,,,,,,,,,,,,,,,,,,,,,,,,,,,,,,,,,,,,,,,,,,,,648.960044800071,None,353.5533905932738,-2.0,7.038727582816145e-05,0,"[0.7711179515521313, 0.6772107213047658, 0.5473550387599504, 0.42751243937715633]","[561.2310241546867, 500.0000000000001, 445.44935907016975, 396.8502629920499]",Tone,"[4.044332107522097, 4.399284830362152, 5.0, 5.396443685819114]",False,649.9902761999983,653.0068131999578,653.0068131999578,654.2099451001268,None,0,,3.4517368401866406,4.483495040098205,None,1,None,1,,,,,,vqnuwy,001,fr,0,0,2022-05-10_10h33.47.531,Cluster,2022.1.1,36.490690288268084,
,,,,4,0,4,0,3,0,3,0,,,frequency,,,,,,,,,,,,,,,,,,,,,,,,,,,,,,,,,,,,,,,,,,,,,,,,,,,,,,,,,,,,,,,,,,,,,,,,,,,,,,,,,,,,,,,,,,,,,,,,,,,,,,,,,,,,,,,,,,,654.5141740001272,None,823.763367671672,-2.171404234419763,3.040732619959134e-05,1,"[0.6646599751565345, 0.7153074796987373, 0.6245868465138522, 0.49902805983257026]","[2075.7536141236587, 1647.526735343344, 1307.6428364148787, 1037.8768070618294]",Major_3rd,"[8.285997035684538, 7.524989386653478, 6.507908756958133, 5.0]",False,655.5380957999732,658.5683930001687,658.5683930001687,659.7732655000873,['space'],1,[0.32711429987102747],3.5445923400111496,4.564206040231511,None,1,None,1,,,,,,vqnuwy,001,fr,0,0,2022-05-10_10h33.47.531,Cluster,2022.1.1,36.490690288268084,
,,,,4,0,4,0,4,0,4,0,,,none,,,,,,,,,,,,,,,,,,,,,,,,,,,,,,,,,,,,,,,,,,,,,,,,,,,,,,,,,,,,,,,,,,,,,,,,,,,,,,,,,,,,,,,,,,,,,,,,,,,,,,,,,,,,,,,,,,,660.1378753001336,None,,,,,"[0.49102780710289845, 0.6831353218127163, 0.4658624860797511, 0.5009669141367069]","[4368.83037303493, 1014.2563777098785, 190.53449454591183, 1505.0235386034294]",None,"[2.667815118831211, 4.648124162082071, 3.7577902486280257, 7.224731753229348]",True,661.1579863000661,663.818424000172,663.818424000172,665.023369200062,None,1,,3.1813783401157707,4.2003801399841905,None,1,None,1,0,,,,,vqnuwy,001,fr,0,0,2022-05-10_10h33.47.531,Cluster,2022.1.1,36.490690288268084,
,,,,4,0,4,0,5,0,5,0,,,none,,,,,,,,,,,,,,,,,,,,,,,,,,,,,,,,,,,,,,,,,,,,,,,,,,,,,,,,,,,,,,,,,,,,,,,,,,,,,,,,,,,,,,,,,,,,,,,,,,,,,,,,,,,,,,,,,,,665.3822678001598,None,5764.100355393309,-1.7225525929351073,0.00010216021650827791,0,"[0.6418501817428525, 0.7887122677281218, 0.677855388357255, 0.7071776319580438]","[2864.190250975942, 3891.3642343259453, 234.21563952477715, 3913.073794959582]",None,"[6.0, 2.5399654969860643, 4.4884503318268765, 2.5399654969860643]",False,666.3978347999509,669.5242463999894,669.5242463999894,670.730081200134,None,0,,3.8472700400743634,4.874782040016726,None,1,None,1,,,,,,vqnuwy,001,fr,0,0,2022-05-10_10h33.47.531,Cluster,2022.1.1,36.490690288268084,
,,,,4,0,4,0,6,0,6,0,,,none,,,,,,,,,,,,,,,,,,,,,,,,,,,,,,,,,,,,,,,,,,,,,,,,,,,,,,,,,,,,,,,,,,,,,,,,,,,,,,,,,,,,,,,,,,,,,,,,,,,,,,,,,,,,,,,,,,,671.3062827000394,None,1071.7734625362941,-3.0,3.331204989063927e-05,0,"[0.42832816468896945, 0.45218762179507865, 0.5733030168864559, 0.6238678292796233]","[616.776883833078, 152.98762173215547, 2053.9473382862816, 176.74460241950027]",None,"[3.929068038609894, 4.75112332176877, 8.246242005825867, 3.913862982404187]",False,673.2665556001011,675.7482378000859,675.7482378000859,676.9728175001219,None,0,,3.1058787803631276,4.13172108028084,None,1,None,1,,,,,,vqnuwy,001,fr,0,0,2022-05-10_10h33.47.531,Cluster,2022.1.1,36.490690288268084,
,,,,4,0,4,0,7,0,7,0,,,frequency,,,,,,,,,,,,,,,,,,,,,,,,,,,,,,,,,,,,,,,,,,,,,,,,,,,,,,,,,,,,,,,,,,,,,,,,,,,,,,,,,,,,,,,,,,,,,,,,,,,,,,,,,,,,,,,,,,,677.4323321999982,None,267.9433656340732,2.0,0.00018691688229128915,1,"[0.40227803832648024, 0.5321779847304398, 0.7816309449844003, 0.7173945800392476]","[1350.3499461681895, 901.2504626108299, 601.5125180410581, 401.46144093168806]",Perfect_5th,"[6.507908756958133, 4.0, 4.0, 5.396443685819114]",False,678.443772100145,681.1959598001558,681.1959598001558,682.4099059000146,['space'],1,[0.26399379991926253],3.4564832400064915,4.461387539980933,None,1,None,1,,,,,,vqnuwy,001,fr,0,0,2022-05-10_10h33.47.531,Cluster,2022.1.1,36.490690288268084,
,,,,4,0,4,0,8,0,8,0,,,both,,,,,,,,,,,,,,,,,,,,,,,,,,,,,,,,,,,,,,,,,,,,,,,,,,,,,,,,,,,,,,,,,,,,,,,,,,,,,,,,,,,,,,,,,,,,,,,,,,,,,,,,,,,,,,,,,,,682.956978400005,None,203.01321361940518,-2.181639440034191,0.00020189253447211477,1,"[0.6086402977141477, 0.6086402977141477, 0.6086402977141477, 0.6086402977141477]","[127.89031062294656, 143.55202002075455, 161.1316944314443, 180.86421177907894]",Tone,"[6.393197332969853, 5.329310811326203, 4.26729073901503, 3.913862982404187]",False,683.9603318001609,686.8029755000025,686.8029755000025,688.0084763001651,['space'],1,[0.49119110009633005],3.487565139774233,4.498266539769247,None,1,None,1,,,,,,vqnuwy,001,fr,0,0,2022-05-10_10h33.47.531,Cluster,2022.1.1,36.490690288268084,
,,,,4,0,4,0,9,0,9,0,,,none,,,,,,,,,,,,,,,,,,,,,,,,,,,,,,,,,,,,,,,,,,,,,,,,,,,,,,,,,,,,,,,,,,,,,,,,,,,,,,,,,,,,,,,,,,,,,,,,,,,,,,,,,,,,,,,,,,,688.4976850999519,None,287.4601375498944,-0.1642384174769568,0.00012540334631182265,0,"[0.613416049795529, 0.6350122450788164, 0.658225470460865, 0.4040800527624715]","[328.5670317626356, 3723.142083818576, 126.79877045037433, 4212.535185736409]",None,"[6.142550337123474, 2.731226031221053, 6.393197332969853, 2.667815118831211]",False,689.5109089000616,692.4537098000292,692.4537098000292,693.6872123000212,None,0,,3.3497769399546087,4.366564739961177,None,1,None,1,,,,,,vqnuwy,001,fr,0,0,2022-05-10_10h33.47.531,Cluster,2022.1.1,36.490690288268084,
,,,,4,0,4,0,10,0,10,0,,,frequency,,,,,,,,,,,,,,,,,,,,,,,,,,,,,,,,,,,,,,,,,,,,,,,,,,,,,,,,,,,,,,,,,,,,,,,,,,,,,,,,,,,,,,,,,,,,,,,,,,,,,,,,,,,,,,,,,,,693.9166435000952,None,302.0325888063454,0.0,0.00011235892848675178,0,"[0.6973439716376412, 0.5976400964404267, 0.548959829326748, 0.760189599463891]","[479.44684919987134, 427.13858336858993, 380.5372163913572, 339.02011828775306]",Tone,"[4.67174424223777, 5.021264373999748, 5.741907487963515, 6.142550337123474]",False,694.9390835000668,697.813593500061,697.813593500061,699.023619200103,None,0,,3.6463814401067793,4.657416640082374,None,1,None,1,,,,,,vqnuwy,001,fr,0,0,2022-05-10_10h33.47.531,Cluster,2022.1.1,36.490690288268084,
,,,,4,0,4,0,11,0,11,0,,,time,,,,,,,,,,,,,,,,,,,,,,,,,,,,,,,,,,,,,,,,,,,,,,,,,,,,,,,,,,,,,,,,,,,,,,,,,,,,,,,,,,,,,,,,,,,,,,,,,,,,,,,,,,,,,,,,,,,699.6317571999971,None,4424.792020363231,-3.0,8.011707681044164e-05,1,"[0.5490709981119872, 0.5490709981119872, 0.5490709981119872, 0.5490709981119872]","[277.2052432564843, 267.45964958303455, 4084.8558633991115, 1151.612426589987]",None,"[5.4538397514273385, 5.4538397514273385, 2.5399654969860643, 5.596429090407045]",False,700.646280300105,703.3197180000134,703.3197180000134,704.5196775000077,['space'],1,[0.3052735000383109],3.227554639801383,4.241619839798659,None,1,None,1,,,,,,vqnuwy,001,fr,0,0,2022-05-10_10h33.47.531,Cluster,2022.1.1,36.490690288268084,
,,,,4,0,4,0,12,0,12,0,,,frequency,,,,,,,,,,,,,,,,,,,,,,,,,,,,,,,,,,,,,,,,,,,,,,,,,,,,,,,,,,,,,,,,,,,,,,,,,,,,,,,,,,,,,,,,,,,,,,,,,,,,,,,,,,,,,,,,,,,704.9309460001532,None,,,,,"[0.6084776875876869, 0.6905897402242795, 0.7590193922928665, 0.4308382126068384]","[925.654632747379, 1166.2517567311309, 1469.3851377824265, 1851.3092654947575]",Major_3rd,"[4.275566113720469, 5.596429090407045, 7.0, 8.064588523086202]",True,705.948779999977,709.0378630000632,709.0378630000632,710.2668445000891,None,1,,3.5238080399576575,4.534262140048668,None,1,None,1,0,,,,,vqnuwy,001,fr,0,0,2022-05-10_10h33.47.531,Cluster,2022.1.1,36.490690288268084,
,,,,4,0,4,0,13,0,13,0,,,frequency,,,,,,,,,,,,,,,,,,,,,,,,,,,,,,,,,,,,,,,,,,,,,,,,,,,,,,,,,,,,,,,,,,,,,,,,,,,,,,,,,,,,,,,,,,,,,,,,,,,,,,,,,,,,,,,,,,,710.5164885001723,None,2462.2888266898335,-4.0,5.366889446213605e-05,1,"[0.5041244030246873, 0.40448484477466473, 0.5408613848259186, 0.6548938898131225]","[1551.144761833735, 1741.1011265922486, 1954.3199368684925, 2193.6499593892527]",Tone,"[7.224731753229348, 7.805797075407877, 8.246242005825867, 8.285997035684538]",False,711.5291555000003,714.0053781000897,714.0053781000897,715.2401966000907,['space'],1,[0.35163490008562803],3.1338549403008074,4.152988840127364,None,1,None,1,,,,,,vqnuwy,001,fr,0,0,2022-05-10_10h33.47.531,Cluster,2022.1.1,36.490690288268084,
,,,,4,0,4,0,14,0,14,0,,,both,,,,,,,,,,,,,,,,,,,,,,,,,,,,,,,,,,,,,,,,,,,,,,,,,,,,,,,,,,,,,,,,,,,,,,,,,,,,,,,,,,,,,,,,,,,,,,,,,,,,,,,,,,,,,,,,,,,715.7258437001146,None,5278.031643091578,-6.0,7.141580827330639e-05,0,"[0.44311129454247794, 0.44311129454247794, 0.44311129454247794, 0.44311129454247794]","[2094.5882456412546, 2639.01582154579, 3324.9515845711526, 4189.176491282508]",Major_3rd,"[8.285997035684538, 6.99557474867503, 4.0, 2.667815118831211]",False,716.8001033000182,719.1444485001266,719.1444485001266,720.36838790006,None,0,,2.802137860096991,3.8276671601925045,None,1,None,1,,,,,,vqnuwy,001,fr,0,0,2022-05-10_10h33.47.531,Cluster,2022.1.1,36.490690288268084,
,,,,4,0,4,0,15,0,15,0,,,frequency,,,,,,,,,,,,,,,,,,,,,,,,,,,,,,,,,,,,,,,,,,,,,,,,,,,,,,,,,,,,,,,,,,,,,,,,,,,,,,,,,,,,,,,,,,,,,,,,,,,,,,,,,,,,,,,,,,,720.6744375999551,None,156.46178883561458,-1.2488766782312302,0.0003833438870122374,1,"[0.5832765437332262, 0.42276663796365666, 0.6491753329362381, 0.7492634704759132]","[394.25900251639496, 312.92357767122917, 248.3676081904809, 197.12950125819748]",Major_3rd,"[5.396443685819114, 6.084267729419362, 4.971546958525594, 3.818360559965809]",False,721.6700406000018,724.3494892001618,724.3494892001618,725.5823894999921,['space'],1,[0.29608860006555915],3.4447258398868144,4.454885339830071,None,1,None,1,,,,,,vqnuwy,001,fr,0,0,2022-05-10_10h33.47.531,Cluster,2022.1.1,36.490690288268084,
,,,,4,0,4,0,16,0,16,0,,,frequency,,,,,,,,,,,,,,,,,,,,,,,,,,,,,,,,,,,,,,,,,,,,,,,,,,,,,,,,,,,,,,,,,,,,,,,,,,,,,,,,,,,,,,,,,,,,,,,,,,,,,,,,,,,,,,,,,,,726.1580616000574,None,1071.7734625362941,-5.0,2.6460701784678686e-05,0,"[0.7718575338238874, 0.6465684088414985, 0.7619928024503743, 0.717888876347502]","[425.33358047542845, 535.8867312681473, 675.1749730840958, 850.6671609508566]",Major_3rd,"[5.021264373999748, 4.195232343931734, 3.8418237079927344, 3.995552402311497]",False,728.2424802000169,731.4583150001708,731.4583150001708,732.6820735000074,None,0,,3.943221280584112,4.947204180760309,None,1,None,1,,,,,,vqnuwy,001,fr,0,0,2022-05-10_10h33.47.531,Cluster,2022.1.1,36.490690288268084,
,,,,4,0,4,0,17,0,17,0,,,none,,,,,,,,,,,,,,,,,,,,,,,,,,,,,,,,,,,,,,,,,,,,,,,,,,,,,,,,,,,,,,,,,,,,,,,,,,,,,,,,,,,,,,,,,,,,,,,,,,,,,,,,,,,,,,,,,,,733.2309055000078,None,,,,,"[0.545812803500361, 0.6633946801734945, 0.554641434682618, 0.4783102460438218]","[1193.8503300776151, 905.802122173135, 3926.897078018275, 3109.584465462516]",None,"[6.0, 4.275566113720469, 2.5399654969860643, 5.0]",True,734.2486837999895,737.0322641001549,737.0322641001549,738.2377019000705,None,1,,3.2956502402666956,4.307491640327498,None,1,None,1,0,,,,,vqnuwy,001,fr,0,0,2022-05-10_10h33.47.531,Cluster,2022.1.1,36.490690288268084,
,,,,4,0,4,0,18,0,18,0,,,both,,,,,,,,,,,,,,,,,,,,,,,,,,,,,,,,,,,,,,,,,,,,,,,,,,,,,,,,,,,,,,,,,,,,,,,,,,,,,,,,,,,,,,,,,,,,,,,,,,,,,,,,,,,,,,,,,,,738.5872242001351,None,6169.327869303998,-1.6447755366815153,0.00010248405114519674,0,"[0.5124138971241653, 0.5124138971241653, 0.5124138971241653, 0.5124138971241653]","[2448.299387417475, 3084.6639346519996, 3886.4330231195977, 4896.598774834949]",Major_3rd,"[7.684362669786086, 5.0, 2.5399654969860643, 3.5228952685843766]",False,739.5968423001468,742.1708937999792,742.1708937999792,743.4023182000965,None,0,,3.0772028397768736,4.0850655399262905,None,1,None,1,,,,,,vqnuwy,001,fr,0,0,2022-05-10_10h33.47.531,Cluster,2022.1.1,36.490690288268084,
,,,,4,0,4,0,19,0,19,0,,,frequency,,,,,,,,,,,,,,,,,,,,,,,,,,,,,,,,,,,,,,,,,,,,,,,,,,,,,,,,,,,,,,,,,,,,,,,,,,,,,,,,,,,,,,,,,,,,,,,,,,,,,,,,,,,,,,,,,,,743.7263744999655,None,2852.258101553744,0.0,6.400503742438799e-05,1,"[0.6908493186527795, 0.6576972642635737, 0.5794335335861849, 0.5320297800169249]","[1131.9193777228086, 1426.1290507768724, 1796.8100109403758, 2263.8387554456167]",Major_3rd,"[5.596429090407045, 6.881509471780701, 8.0, 8.11565914851633]",False,744.7285470999777,747.6792240000796,747.6792240000796,748.9144296001177,['space'],1,[0.4231704999692738],3.491050439886749,4.4985741400159895,None,1,None,1,,,,,,vqnuwy,001,fr,0,0,2022-05-10_10h33.47.531,Cluster,2022.1.1,36.490690288268084,
,,,,5,0,5,0,0,0,0,0,,,frequency,,,,,,,,,,,,,,,,,,,,,,,,,,,,,,,,,,,,,,,,,,,,,,,,,,,,,,,,,,,,,,,,,,,,,,,,,,,,,,,,,,,,,,,,,,,,,,,,,,,,,,,,,,,,,,,,,,,754.3055990000721,None,8000.0,-5.0,0.00010208689723347648,0,"[0.4091128297968152, 0.7055529055924427, 0.5001899096660923, 0.7635637573201776]","[1587.4010519681997, 2378.4142300054423, 3563.5948725613575, 5339.359416680138]",Perfect_5th,"[7.524989386653478, 8.0, 3.0, 4.0]",False,755.3137938000727,757.9651317000389,757.9651317000389,759.1770097999834,None,0,,3.401810940122232,4.420840440085158,None,1,None,1,,,,,,vqnuwy,001,fr,0,0,2022-05-10_10h33.47.531,Cluster,2022.1.1,36.490690288268084,
,,,,5,0,5,0,1,0,1,0,,,frequency,,,,,,,,,,,,,,,,,,,,,,,,,,,,,,,,,,,,,,,,,,,,,,,,,,,,,,,,,,,,,,,,,,,,,,,,,,,,,,,,,,,,,,,,,,,,,,,,,,,,,,,,,,,,,,,,,,,759.7735878000967,None,6065.48029793405,-1.6447755366815153,9.843426736819173e-05,0,"[0.4317741025754725, 0.5246886072098936, 0.7914210388461326, 0.5353230307619383]","[2407.0874514082257, 3032.740148967026, 3821.013152544869, 4814.17490281645]",Major_3rd,"[7.684362669786086, 5.080848605091975, 2.731226031221053, 3.5228952685843766]",False,760.7778521999717,763.5547766000964,763.5547766000964,764.7575374001171,None,0,,3.338964039925486,4.35476343985647,None,1,None,1,,,,,,vqnuwy,001,fr,0,0,2022-05-10_10h33.47.531,Cluster,2022.1.1,36.490690288268084,
,,,,5,0,5,0,2,0,2,0,,,frequency,,,,,,,,,,,,,,,,,,,,,,,,,,,,,,,,,,,,,,,,,,,,,,,,,,,,,,,,,,,,,,,,,,,,,,,,,,,,,,,,,,,,,,,,,,,,,,,,,,,,,,,,,,,,,,,,,,,765.1670272999909,None,,,,,"[0.4965515815796776, 0.6190838191237806, 0.4877947027259004, 0.7081268679817363]","[2768.583254937638, 3488.1963212823935, 4394.851971349547, 5537.166509875274]",Major_3rd,"[6.0968051215392105, 3.2740908097218444, 2.667815118831211, 4.2774474070648925]",True,766.1596558999736,768.7959657001775,768.7959657001775,770.0234420001507,None,1,,3.35214184015058,4.375271840021014,None,1,None,1,0,,,,,vqnuwy,001,fr,0,0,2022-05-10_10h33.47.531,Cluster,2022.1.1,36.490690288268084,
,,,,5,0,5,0,3,0,3,0,,,both,,,,,,,,,,,,,,,,,,,,,,,,,,,,,,,,,,,,,,,,,,,,,,,,,,,,,,,,,,,,,,,,,,,,,,,,,,,,,,,,,,,,,,,,,,,,,,,,,,,,,,,,,,,,,,,,,,,770.5640308000147,None,3249.0095854249403,-6.0,3.546262422465457e-05,1,"[0.7086968540761307, 0.7086968540761307, 0.7086968540761307, 0.7086968540761307]","[5157.481233758315, 4594.793419988138, 4093.4955679870977, 3646.8899542328654]",Tone,"[3.96922683325707, 3.0460030369645548, 2.5399654969860643, 3.0]",False,771.5977616000455,774.7526998999529,774.7526998999529,775.9613114001695,['space'],1,[0.2846580999903381],3.8658184399828315,4.8859906401485205,None,1,None,1,,,,,,vqnuwy,001,fr,0,0,2022-05-10_10h33.47.531,Cluster,2022.1.1,36.490690288268084,
,,,,5,0,5,0,4,0,4,0,,,both,,,,,,,,,,,,,,,,,,,,,,,,,,,,,,,,,,,,,,,,,,,,,,,,,,,,,,,,,,,,,,,,,,,,,,,,,,,,,,,,,,,,,,,,,,,,,,,,,,,,,,,,,,,,,,,,,,,776.5261216000654,None,164.76070251495486,-1.7327092609849706,0.0003225681241287065,1,"[0.6229933722518625, 0.6229933722518625, 0.6229933722518625, 0.6229933722518625]","[415.1709545881176, 329.5214050299097, 261.5413124952589, 207.5854772940588]",Major_3rd,"[5.396443685819114, 6.142550337123474, 5.4538397514273385, 3.818360559965809]",False,777.5244241000619,780.4061643001623,780.4061643001623,781.6078252999578,['space'],1,[0.32979660015553236],3.5237545401323587,4.538701239973307,None,1,None,1,,,,,,vqnuwy,001,fr,0,0,2022-05-10_10h33.47.531,Cluster,2022.1.1,36.490690288268084,
,,,,5,0,5,0,5,0,5,0,,,time,,,,,,,,,,,,,,,,,,,,,,,,,,,,,,,,,,,,,,,,,,,,,,,,,,,,,,,,,,,,,,,,,,,,,,,,,,,,,,,,,,,,,,,,,,,,,,,,,,,,,,,,,,,,,,,,,,,782.1087277999613,None,2828.42712474619,-7.0,2.925150664956155e-05,0,"[0.4648466676938072, 0.4648466676938072, 0.4648466676938072, 0.4648466676938072]","[204.416529480019, 205.1864709357219, 191.995575950793, 429.7069629493972]",None,"[3.818360559965809, 3.818360559965809, 3.7577902486280257, 5.021264373999748]",False,783.1145818000659,785.5318521000445,785.5318521000445,786.7487327000126,None,0,,2.8988056401722133,3.921983040170744,None,1,None,1,,"{'estimation': [[125.0, -1.6176893823747882], [133.19572940134043, -2.0], [133.9716828170366, -2.03384335140414], [143.5872943746293, -2.367404742897202], [153.89305166811442, -2.5286292151679532], [164.93848884661162, -2.482903542202539], [176.77669529663666, -2.225862615785731], [183.2140736060663, -2.0], [189.46457081379947, -1.7882700814415227], [203.0630990890585, -1.2629394930630946], [209.80122646703595, -1.0], [217.6376408240306, -0.7091668463651375], [233.25824788420132, -0.23272094891635553], [243.9655661266013, 0.0], [249.99999999999937, 0.1275668338286864], [267.94336563407256, 0.3126811960981255], [287.1745887492579, 0.3117092978990086], [307.78610333622805, 0.12698572719673262], [315.4943040705909, 0.0], [329.87697769322244, -0.22884860793349135], [353.55339059327247, -0.7080030825566684], [366.0658544035635, -1.0], [378.929141627598, -1.2919928111871104], [406.12619817811606, -1.9094956064883553], [410.25849560880584, -2.0], [435.2752816480601, -2.5265107798919035], [461.6423687528306, -3.0], [466.5164957684015, -3.0864855810704404], [499.9999999999975, -3.5504056166242033], [535.8867312681438, -3.9007820257837533], [551.0422069685827, -4.0], [574.3491774985143, -4.143948333077879], [615.5722066724546, -4.278013600715839], [659.7539553864432, -4.322766277833299], [707.1067811865431, -4.29237182833979], [757.8582832551941, -4.190025822288959], [812.2523963562301, -4.007180821779479], [813.7048154204241, -4.0], [870.5505632961181, -3.7419624390164383], [933.0329915368008, -3.398762589617745], [995.9087445354478, -3.0], [999.9999999999926, -2.975357962262763], [1071.773462536285, -2.5258297572359982], [1148.6983549970273, -2.10703308826386], [1176.086605709419, -2.0], [1231.1444133449063, -1.780842646614157], [1319.5079107728832, -1.636205589659221], [1414.2135623730828, -1.7172841602844944], [1500.3161700863486, -2.0], [1515.7165665103846, -2.0495121243495587], [1624.5047927124563, -2.596275249569005], [1688.605957880457, -3.0], [1741.1011265922318, -3.314255423129474], [1849.0019793713432, -4.0], [1866.065983073597, -4.1044010858117606], [1999.9999999999802, -4.872082198403207], [2026.2464668057387, -5.0], [2143.5469250725646, -5.549033212388216], [2276.317787900342, -6.0], [2297.396709994046, -6.0721499053752925], [2462.2888266898062, -6.428962401316952], [2639.01582154576, -6.631922767846425], [2828.427124746159, -6.727385017414146], [3031.4331330207615, -6.761022042838285], [3249.0095854249043, -6.769585290165382], [3482.202253184451, -6.770597975655766], [3732.1319661471844, -6.7592667225807475], [3999.9999999999504, -6.713717106412373], [4287.093850145118, -6.606053359290678], [4594.793419988081, -6.413911242193659], [4924.577653379601, -6.126541769189109], [5043.365632739041, -6.0], [5278.031643091506, -5.763399412344046], [5656.854249492303, -5.374650324522413], [6049.661456811341, -5.0], [6062.866266041508, -4.988012589275132], [6498.019170849792, -4.670150760047056], [6964.404506368894, -4.452568769351437], [7464.2639322943505, -4.344030487796235], [7999.999999999892, -4.335805471810306]], 'plus_line': [[125.0, -3.847783977089743], [130.16604263722175, -4.0], [133.9716828170366, -4.121788329023722], [143.5872943746293, -4.442797835761128], [153.89305166811442, -4.649480048840729], [164.93848884661162, -4.6683633084230785], [176.77669529663677, -4.460812989756006], [189.46457081379947, -4.010746674270223], [189.6985113449056, -4.0], [203.0630990890585, -3.485775270935198], [214.52087100221866, -3.0], [217.6376408240306, -2.8837764273361213], [233.25824788420132, -2.396277434339498], [249.99999999999937, -2.0084959464182726], [250.76403465382356, -2.0], [267.94336563407256, -1.8477554920052057], [287.1745887492579, -1.872573104023961], [300.31861383169297, -2.0], [307.78610333622805, -2.084081474742103], [329.87697769322244, -2.471971271701632], [353.55339059327247, -2.9496625599886204], [355.6779670157019, -3.0], [378.929141627598, -3.5709479100283676], [397.4412559375501, -4.0], [406.12619817811606, -4.21474007072506], [435.2752816480601, -4.844403833276622], [443.8830937548967, -5.0], [466.5164957684015, -5.430248749810078], [499.9999999999975, -5.859735255574338], [517.0609686861067, -6.0], [535.8867312681438, -6.1699171925140615], [574.3491774985143, -6.3491611117211875], [615.5722066724546, -6.428708766790785], [659.753955386444, -6.460377430367902], [707.1067811865431, -6.460035482457545], [757.8582832551951, -6.3998682194714505], [812.2523963562301, -6.225703125631438], [850.3467780153932, -6.0], [870.5505632961181, -5.9020991440689485], [933.0329915368008, -5.488962894812664], [993.7733736394607, -5.0], [999.9999999999926, -4.9575728790305735], [1071.773462536285, -4.510126504624523], [1148.698354997026, -4.1259266417009615], [1191.1664747808047, -4.0], [1231.1444133449063, -3.899587672672929], [1319.5079107728848, -3.860864380422063], [1410.1130373127667, -4.0], [1414.2135623730828, -4.007482983581195], [1515.7165665103828, -4.390222966156843], [1624.5047927124563, -4.918210300298275], [1637.9440176692392, -5.0], [1741.1011265922318, -5.630360104169741], [1800.9154131980747, -6.0], [1866.065983073597, -6.408764272643002], [1970.722502719789, -7.0], [1999.9999999999802, -7.17161194071204], [2143.5469250725646, -7.862154842034931], [2181.6544220999363, -8.0], [2297.396709994046, -8.448376484548632], [2462.2888266898062, -8.837821257206883], [2588.533948703925, -9.0], [2639.01582154576, -9.074892745111518], [2828.427124746162, -9.182768648977714], [3031.4331330207615, -9.180756858958702], [3249.0095854249043, -9.12008231399238], [3482.2022531844555, -9.041239498651242], [3621.7239230604414, -9.0], [3732.1319661471844, -8.974827511691837], [3999.9999999999504, -8.92160260596647], [4287.093850145118, -8.847935602293731], [4594.7934199880865, -8.714394698325975], [4924.577653379601, -8.483811136720998], [5278.031643091506, -8.129641524176694], [5384.043073413557, -8.0], [5656.854249492303, -7.723349088682907], [6062.866266041508, -7.298644711553412], [6372.011581151289, -7.0], [6498.019170849792, -6.899724845598445], [6964.4045063688845, -6.658667229801175], [7464.2639322943505, -6.586258244551783], [7999.999999999872, -6.7131760674616014]], 'minus_line': [[125.0, 0.5232822606275384], [132.68074039889737, 0.0], [133.9716828170366, -0.07384079081449656], [143.5872943746293, -0.41576351415322776], [153.89305166811442, -0.5280839689326261], [164.93848884661162, -0.41035541069135234], [176.77669529663666, -0.10698919768049879], [179.74978990592942, 0.0], [189.46457081379947, 0.3770378260194933], [203.0630990890584, 0.8911017916917205], [206.0041304280769, 1.0], [217.6376408240306, 1.4492337935492454], [233.25824788420132, 1.9020860608730354], [237.86980165194467, 2.0], [249.99999999999937, 2.283694032760241], [267.94336563407256, 2.494663310804314], [287.1745887492579, 2.5219770528197474], [307.78610333622805, 2.361368911109107], [329.6965667926846, 2.0], [329.87697769322244, 1.9974160825344418], [353.55339059327247, 1.5455314620083205], [376.6354550011771, 1.0], [378.929141627598, 0.9507784041694374], [406.12619817811606, 0.3628802407387488], [422.59233186561755, 0.0], [435.2752816480607, -0.2506374342543512], [466.5164957684015, -0.8045128221837594], [478.6705393090793, -1.0], [499.9999999999975, -1.2934341161191907], [535.8867312681438, -1.6887486194937997], [572.0537756711508, -2.0], [574.3491774985143, -2.0164931406731426], [615.5722066724546, -2.190660246460121], [659.7539553864432, -2.24549761331616], [707.1067811865431, -2.192629480540955], [757.8582832551941, -2.064223883203889], [777.4630802798239, -2.0], [812.2523963562301, -1.8703245902528716], [870.5505632961181, -1.6405215127788975], [933.0329915368008, -1.3758656265646154], [999.9999999999926, -1.042882235239042], [1006.7233666878376, -1.0], [1071.773462536285, -0.5569769718138854], [1148.698354997026, -0.07135085444375752], [1162.3503837495755, 0.0], [1231.1444133449063, 0.4125085568789707], [1319.5079107728832, 0.6821336030405949], [1414.2135623730828, 0.6848558711377556], [1515.7165665103846, 0.3872441398914055], [1583.5697082865343, 0.0], [1624.5047927124563, -0.20468880663961544], [1741.1011265922318, -0.9906945566978053], [1742.340693640672, -1.0], [1866.065983073597, -1.827768765656491], [1892.1699718163488, -2.0], [1999.9999999999802, -2.6353044787763436], [2071.9636830275067, -3.0], [2143.5469250725646, -3.3250956636895905], [2297.396709994046, -3.822616824034977], [2383.2316957348494, -4.0], [2462.2888266898062, -4.141268358562961], [2639.0158215457564, -4.296755103376576], [2828.427124746159, -4.37582124586958], [3031.4331330207615, -4.43340876085003], [3249.0095854249043, -4.502098104329553], [3482.2022531844555, -4.581235030165022], [3732.1319661471844, -4.638522368045004], [3999.9999999999504, -4.626311255801127], [4287.093850145118, -4.510685390200615], [4594.793419988076, -4.289976510478352], [4903.6543381787005, -4.0], [4924.577653379601, -3.9774375917837976], [5278.031643091506, -3.5721269957073103], [5656.854249492303, -3.196312318001712], [5888.914173578765, -3.0], [6062.866266041508, -2.8396066551605186], [6498.019170849792, -2.552120961149642], [6964.404506368902, -2.3583628154767187], [7464.2639322943505, -2.2170311163698826], [7999.999999999882, -2.0812961800978735]]}",,,,vqnuwy,001,fr,0,0,2022-05-10_10h33.47.531,Cluster,2022.1.1,36.490690288268084,
,,,,5,0,5,0,6,0,6,0,,,none,,,,,,,,,,,,,,,,,,,,,,,,,,,,,,,,,,,,,,,,,,,,,,,,,,,,,,,,,,,,,,,,,,,,,,,,,,,,,,,,,,,,,,,,,,,,,,,,,,,,,,,,,,,,,,,,,,,787.0847100000829,None,,,,,"[0.7135999609549443, 0.7210251025669283, 0.5071930046696256, 0.7082245119642774]","[2206.989974326669, 886.1214252745923, 169.91116636257712, 1538.172807818547]",None,"[8.285997035684538, 4.0, 4.0, 7.224731753229348]",True,788.0993944001384,791.0690129001159,791.0690129001159,792.2950763001572,None,1,,3.7003420398104936,4.711860639741644,None,1,None,1,0,,,,,vqnuwy,001,fr,0,0,2022-05-10_10h33.47.531,Cluster,2022.1.1,36.490690288268084,
,,,,5,0,5,0,7,0,7,0,,,both,,,,,,,,,,,,,,,,,,,,,,,,,,,,,,,,,,,,,,,,,,,,,,,,,,,,,,,,,,,,,,,,,,,,,,,,,,,,,,,,,,,,,,,,,,,,,,,,,,,,,,,,,,,,,,,,,,,792.8424419001676,None,353.5533905932738,2.0,0.0001115563142959358,1,"[0.7597832626256549, 0.7597832626256549, 0.7597832626256549, 0.7597832626256549]","[140.30775603867167, 176.77669529663694, 222.72467953508487, 280.6155120773433]",Major_3rd,"[5.329310811326203, 3.913862982404187, 4.08510527353482, 5.835761582523043]",False,793.8753484000918,797.198387700133,797.198387700133,798.405948900152,['space'],1,[0.2692459998652339],4.049883240135387,5.061466240091249,None,1,None,1,,,,,,vqnuwy,001,fr,0,0,2022-05-10_10h33.47.531,Cluster,2022.1.1,36.490690288268084,
