frequencies,training_trials.thisRepN,training_trials.thisTrialN,training_trials.thisN,training_trials.thisIndex,frequencies.thisRepN,frequencies.thisTrialN,frequencies.thisN,frequencies.thisIndex,trials.thisRepN,trials.thisTrialN,trials.thisN,trials.thisIndex,tFrequency,tLevel,tCorrect,Tprobe.started,Tprobe.stopped,tTriangle_cue.started,tTriangle_cue.stopped,Tfeedback.keys,Tfeedback.corr,Tfeedback.rt,Tfeedback.started,Tfeedback.stopped,reversals_nTrials.routineEndVal,track_dir.routineEndVal,step_up.routineEndVal,Correct,Frequency,Level,Psychopy_Level,Direction,Reversals,Track_dir,Step,probe.started,probe.stopped,cross_cue.started,cross_cue.stopped,circle_cue.started,circle_cue.stopped,triangle_cue.started,triangle_cue.stopped,feedback.keys,feedback.corr,feedback.rt,feedback.started,feedback.stopped,memo.started,memo.stopped,key_resp.keys,key_resp.rt,key_resp.started,key_resp.stopped,text.started,text.stopped,participant,session,skip_training,language (english or french),date,expName,psychopyVersion,frameRate,
5000,0,0,0,4,,,,,,,,,5000,30,up,35.655832266729945,None,None,None,up,1,1.9248337000608444,34.16446270002052,None,,,,,,,,,,,,,,,,,,,,,,,,,,,,,,,,,udoety,001,0,fr,2022-05-03_11h47.16.565,3-AFC_adaptive_staircase_mess,2022.1.1,36.31006911300613,
850,0,1,1,2,,,,,,,,,850,30,left,39.25454536668646,None,None,None,left,1,1.0052410999778658,38.76471230003517,None,,,,,,,,,,,,,,,,,,,,,,,,,,,,,,,,,udoety,001,0,fr,2022-05-03_11h47.16.565,3-AFC_adaptive_staircase_mess,2022.1.1,36.31006911300613,
450,0,2,2,1,,,,,,,,,450,30,up,43.46176676667916,None,None,None,up,1,2.006417600088753,42.003547800006345,None,,,,,,,,,,,,,,,,,,,,,,,,,,,,,,,,,udoety,001,0,fr,2022-05-03_11h47.16.565,3-AFC_adaptive_staircase_mess,2022.1.1,36.31006911300613,
1300,0,3,3,3,,,,,,,,,1300,30,right,48.37802556675548,None,48.33124610001687,None,right,1,2.5591112000402063,45.91487940005027,None,,,,,,,,,,,,,,,,,,,,,,,,,,,,,,,,,udoety,001,0,fr,2022-05-03_11h47.16.565,3-AFC_adaptive_staircase_mess,2022.1.1,36.31006911300613,
200,0,4,4,0,,,,,,,,,200,30,right,53.10322196671429,None,53.043253600015305,53.364731000037864,up,0,2.9633572000311688,50.629952900111675,None,,,,,,,,,,,,,,,,,,,,,,,,,,,,,,,,,udoety,001,0,fr,2022-05-03_11h47.16.565,3-AFC_adaptive_staircase_mess,2022.1.1,36.31006911300613,
,,,,,0,0,0,0,0,0,0,0,,,,,,,,,,,,,[],[],10,up,1000,30,0.0013930605843148849,0,0,-1,10,62.68202586676149,None,61.63709800003562,61.96437910001259,62.66535920009483,63.00057360006031,None,None,up,1,1.4489461000775918,61.697869700030424,None,None,None,,,,,,,udoety,001,0,fr,2022-05-03_11h47.16.565,3-AFC_adaptive_staircase_mess,2022.1.1,36.31006911300613,
,,,,,0,0,0,0,1,0,1,0,,,,,,,,,,,,,,,,right,1000,30,0.0013930605843148849,0,0,-1,10,66.71704466670441,None,64.66650540009141,64.98962900007609,65.6689584000269,65.99522280006204,66.65731310006231,66.97730510006659,right,1,2.599123200052418,64.72287110006437,None,67.22681670007296,None,,,,,,,udoety,001,0,fr,2022-05-03_11h47.16.565,3-AFC_adaptive_staircase_mess,2022.1.1,36.31006911300613,
,,,,,0,0,0,0,2,0,2,0,,,,,,,,,,,,,,,,left,1000,10,0.00013930605843148847,-1,0,-1,-10,68.87964546675018,None,68.83518380008172,69.17745960003231,69.83128730009776,70.15827900008298,None,None,left,1,1.3397718999767676,68.89455340011045,None,None,None,,,,,,,udoety,001,0,fr,2022-05-03_11h47.16.565,3-AFC_adaptive_staircase_mess,2022.1.1,36.31006911300613,
,,,,,0,0,0,0,3,0,3,0,,,,,,,,,,,,,,,,right,1000,10,0.00013930605843148847,-1,0,-1,-10,73.80069486675008,None,71.75208940007724,72.07676560000982,72.76045260007959,73.08222590002697,73.75489940005355,74.08855670003686,right,1,2.7755928999977186,71.81014360010158,None,74.29491090006195,None,,,,,,,udoety,001,0,fr,2022-05-03_11h47.16.565,3-AFC_adaptive_staircase_mess,2022.1.1,36.31006911300613,
,,,,,0,0,0,0,4,0,4,0,,,,,,,,,,,,,,,,left,1000,0,4.405244365040069e-05,-1,0,-1,-10,76.13220436667713,None,76.08254550001584,76.41523600008804,None,None,None,None,left,1,0.6459031000267714,76.14801990007982,None,None,None,,,,,,,udoety,001,0,fr,2022-05-03_11h47.16.565,3-AFC_adaptive_staircase_mess,2022.1.1,36.31006911300613,
,,,,,0,0,0,0,5,0,5,0,,,,,,,,,,,,,,,,right,1000,0,4.405244365040069e-05,-1,0,-1,-10,80.35637016670468,None,78.31463440007064,78.64031909999903,79.31312040006742,79.63500330003444,80.30788080010097,80.64349140005652,right,1,2.7597458999371156,78.37074920011219,None,80.8784113000147,None,,,,,,,udoety,001,0,fr,2022-05-03_11h47.16.565,3-AFC_adaptive_staircase_mess,2022.1.1,36.31006911300613,
,,,,,0,0,0,0,6,0,6,0,,,,,,,,,,,,,,,,right,1000,-10,1.3930605843148848e-05,-1,0,-1,-10,84.68335186673018,None,82.64106490008999,82.96760190010536,83.63997170003131,83.9658580000978,84.63668970006984,84.96695780009031,left,0,3.8540267000207677,82.69979670003522,None,85.20068580005318,None,,,,,,,udoety,001,0,fr,2022-05-03_11h47.16.565,3-AFC_adaptive_staircase_mess,2022.1.1,36.31006911300613,
,,,,,0,0,0,0,7,0,7,0,,,,,,,,,,,,,,,,right,1000,-5,2.4772509540239506e-05,1,1,1,5,90.11636776669572,None,88.05929590004962,88.39044160000049,89.06233169999905,89.39551500009838,90.06558410008438,90.39311620010994,right,1,3.327262199949473,88.12222790007945,None,90.62837000004947,None,,,,,,,udoety,001,0,fr,2022-05-03_11h47.16.565,3-AFC_adaptive_staircase_mess,2022.1.1,36.31006911300613,
,,,,,0,0,0,0,8,0,8,0,,,,,,,,,,,,,,,,up,1000,-5,2.4772509540239506e-05,1,1,1,5,93.99858736672128,None,92.95794930006377,93.28248350007925,93.95348130003549,94.27714420005213,94.94719450001139,95.2728603000287,up,1,3.074158300063573,93.01630110002588,None,95.50738439999986,None,,,,,,,udoety,001,0,fr,2022-05-03_11h47.16.565,3-AFC_adaptive_staircase_mess,2022.1.1,36.31006911300613,
,,,,,0,0,0,0,9,0,9,0,,,,,,,,,,,,,,,,up,1000,-15,7.833755350540743e-06,-1,2,-1,-5.0,98.65365246677926,None,97.60880950000137,97.93557840003632,98.60485800006427,98.94234540010802,99.58845180005301,99.91180040000472,up,1,2.964669100008905,97.63785930001177,None,100.14839330001269,None,,,,,,,udoety,001,0,fr,2022-05-03_11h47.16.565,3-AFC_adaptive_staircase_mess,2022.1.1,36.31006911300613,
,,,,,0,0,0,0,10,0,10,0,,,,,,,,,,,,,,,,left,1000,-15,7.833755350540743e-06,-1,2,-1,-5.0,102.12187906675196,None,102.10521240008529,102.4440494000446,103.09310110006481,103.4173509000102,104.09276670007966,104.41484830004629,up,0,3.2517370999557897,102.1335398000665,None,104.65029360004701,None,,,,,,,udoety,001,0,fr,2022-05-03_11h47.16.565,3-AFC_adaptive_staircase_mess,2022.1.1,36.31006911300613,
,,,,,0,0,0,0,11,0,11,0,,,,,,,,,,,,,,,,up,1000,-12.5,1.0446480654270193e-05,1,3,1,2.5,107.93209276668883,None,106.8923189000925,107.21515480009839,107.88626570010092,108.21976870007347,108.89295500004664,109.22883500007447,left,0,2.8827644999837503,106.95108170004096,None,109.43653120007366,None,,,,,,,udoety,001,0,fr,2022-05-03_11h47.16.565,3-AFC_adaptive_staircase_mess,2022.1.1,36.31006911300613,
,,,,,0,0,0,0,12,0,12,0,,,,,,,,,,,,,,,,right,1000,-10.0,1.3930605843148848e-05,1,3,1,2.5,113.40500516671842,None,111.36236220004503,111.68976190011017,112.3631470000837,112.70234090008307,113.35525470005814,113.6920898000244,left,0,2.92317369999364,111.39043430006132,None,113.90068110008724,None,,,,,,,udoety,001,0,fr,2022-05-03_11h47.16.565,3-AFC_adaptive_staircase_mess,2022.1.1,36.31006911300613,
,,,,,0,0,0,0,13,0,13,0,,,,,,,,,,,,,,,,right,1000,-7.5,1.8576761454858622e-05,1,3,1,2.5,117.87710956676553,None,115.8226157000754,116.15318730007857,116.82509740011301,117.15775650006253,117.82819200004451,118.14973810000811,right,1,2.379607099923305,115.88635690009687,None,None,None,,,,,,,udoety,001,0,fr,2022-05-03_11h47.16.565,3-AFC_adaptive_staircase_mess,2022.1.1,36.31006911300613,
,,,,,0,0,0,0,14,0,14,0,,,,,,,,,,,,,,,,left,1000,-7.5,1.8576761454858622e-05,1,3,1,2.5,119.78476226673617,None,119.7680956000695,120.08997040009126,120.76272100000642,121.07799270004034,121.75104350002948,122.0750710000284,right,0,5.09364670002833,119.79643460002262,None,122.32236610003747,None,,,,,,,udoety,001,0,fr,2022-05-03_11h47.16.565,3-AFC_adaptive_staircase_mess,2022.1.1,36.31006911300613,
,,,,,0,0,0,0,15,0,15,0,,,,,,,,,,,,,,,,up,1000,-5.0,2.4772509540239506e-05,1,3,1,2.5,127.44938306667997,None,126.39039860002231,126.71611640008632,127.40116980008315,127.74360040004831,128.39116190001369,128.73512730002403,left,0,3.3998328000307083,126.45013300003484,None,128.93842640006915,None,,,,,,,udoety,001,0,fr,2022-05-03_11h47.16.565,3-AFC_adaptive_staircase_mess,2022.1.1,36.31006911300613,
,,,,,0,0,0,0,16,0,16,0,,,,,,,,,,,,,,,,left,1000,-2.5,3.303467240037979e-05,1,3,1,2.5,131.41677816672407,None,131.36940490000416,131.71013620006852,132.3882579000201,132.70225220010616,133.37344110000413,133.70652040001005,left,1,2.5017592000076547,131.42799430002924,None,133.94242960005067,None,,,,,,,udoety,001,0,fr,2022-05-03_11h47.16.565,3-AFC_adaptive_staircase_mess,2022.1.1,36.31006911300613,
,,,,,0,0,0,0,17,0,17,0,,,,,,,,,,,,,,,,left,1000,-2.5,3.303467240037979e-05,1,3,1,2.5,135.45701146667514,None,135.44034480000846,135.7793039000826,136.4329309000168,136.76782980002463,137.43925560009666,137.76650180004071,left,1,3.0653415000997484,135.47161290002987,None,137.96831080003176,None,,,,,,,udoety,001,0,fr,2022-05-03_11h47.16.565,3-AFC_adaptive_staircase_mess,2022.1.1,36.31006911300613,
,,,,,0,0,0,0,18,0,18,0,,,,,,,,,,,,,,,,up,1000,-7.5,1.8576761454858622e-05,-1,4,-1,-5.0,141.09838216676533,None,140.06573530007154,140.40151290001813,141.08171550009865,141.41927500010934,142.0853029000573,142.42205390008166,right,0,2.972831099992618,140.1253537000157,None,142.62853750004433,None,,,,,,,udoety,001,0,fr,2022-05-03_11h47.16.565,3-AFC_adaptive_staircase_mess,2022.1.1,36.31006911300613,
,,,,,0,0,0,0,19,0,19,0,,,,,,,,,,,,,,,,left,1000,-5.0,2.4772509540239506e-05,1,5,1,2.5,144.65783046669483,None,144.64116380002815,144.95757700002287,145.65246130002197,145.98438920010813,146.63924590009265,146.97637790010776,left,1,2.9551797000458464,144.67045990005136,None,147.1805530000711,None,,,,,,,udoety,001,0,fr,2022-05-03_11h47.16.565,3-AFC_adaptive_staircase_mess,2022.1.1,36.31006911300613,
,,,,,0,0,0,0,20,0,20,0,,,,,,,,,,,,,,,,right,1000,-5.0,2.4772509540239506e-05,1,5,1,2.5,151.1640280667382,None,149.12490590009838,149.43501360004302,150.13480070000514,150.4637222000165,151.1173213000875,151.46131640009116,right,1,2.851243900018744,149.19070890010335,None,151.6771248000441,None,,,,,,,udoety,001,0,fr,2022-05-03_11h47.16.565,3-AFC_adaptive_staircase_mess,2022.1.1,36.31006911300613,
,,,,,0,0,0,0,21,0,21,0,,,,,,,,,,,,,,,,right,1000,-10.0,1.3930605843148848e-05,-1,6,-1,-5.0,155.60212746676214,None,153.5604897000594,153.8938252000371,154.54021130001638,154.87307600001805,155.5538653000258,155.89797250006814,up,0,2.89847999997437,153.59131110005546,None,156.10932030004915,None,,,,,,,udoety,001,0,fr,2022-05-03_11h47.16.565,3-AFC_adaptive_staircase_mess,2022.1.1,36.31006911300613,
,,,,,1,0,1,0,0,0,0,0,,,,,,,,,,,,,[],[],10,up,1500,30,0.001527460556607757,0,0,-1,10,160.5578315667265,None,159.51414240000304,159.83345990011003,160.51174810004886,160.85219990008045,None,None,up,1,1.6702048999723047,159.5721176000079,None,None,None,right,1.4509591999230906,157.56633550010156,None,157.56633550010156,None,udoety,001,0,fr,2022-05-03_11h47.16.565,3-AFC_adaptive_staircase_mess,2022.1.1,36.31006911300613,
,,,,,1,0,1,0,1,0,1,0,,,,,,,,,,,,,,,,up,1500,30,0.001527460556607757,0,0,-1,10,163.80250546668347,None,162.76913300005253,163.10496780008543,163.7858388000168,164.10171910002828,None,None,up,1,1.5437315999297425,162.8339218000183,None,None,None,,,,,,,udoety,001,0,fr,2022-05-03_11h47.16.565,3-AFC_adaptive_staircase_mess,2022.1.1,36.31006911300613,
,,,,,1,0,1,0,2,0,2,0,,,,,,,,,,,,,,,,up,1500,10,0.0001527460556607757,-1,0,-1,-10,166.93727396667626,None,165.90127400006168,166.23162780003622,166.89059380011167,167.20672850008123,None,None,up,1,1.4906004999065772,165.95957679999992,None,None,None,,,,,,,udoety,001,0,fr,2022-05-03_11h47.16.565,3-AFC_adaptive_staircase_mess,2022.1.1,36.31006911300613,
,,,,,1,0,1,0,3,0,3,0,,,,,,,,,,,,,,,,up,1500,10,0.0001527460556607757,-1,0,-1,-10,170.01933466672588,None,168.97847180010285,169.3186761001125,169.97483850002754,170.3168378000846,None,None,up,1,1.5750560000305995,169.04336560005322,None,None,None,,,,,,,udoety,001,0,fr,2022-05-03_11h47.16.565,3-AFC_adaptive_staircase_mess,2022.1.1,36.31006911300613,
,,,,,1,0,1,0,4,0,4,0,,,,,,,,,,,,,,,,right,1500,0,4.830254394949071e-05,-1,0,-1,-10,174.19019996672094,None,172.16696070006583,172.48467650008388,173.15928870008793,173.47179560002405,174.14595640008338,174.48507000005338,right,1,3.3974987999536097,172.1961014000699,None,174.69996460003313,None,,,,,,,udoety,001,0,fr,2022-05-03_11h47.16.565,3-AFC_adaptive_staircase_mess,2022.1.1,36.31006911300613,
,,,,,1,0,1,0,5,0,5,0,,,,,,,,,,,,,,,,left,1500,0,4.830254394949071e-05,-1,0,-1,-10,177.1464540666823,None,177.12978740001563,177.4648179000942,178.12239580007736,178.43707990006078,179.1226702000713,179.43713620002382,left,1,2.835866699926555,177.15817900002003,None,179.67950120009482,None,,,,,,,udoety,001,0,fr,2022-05-03_11h47.16.565,3-AFC_adaptive_staircase_mess,2022.1.1,36.31006911300613,
,,,,,1,0,1,0,6,0,6,0,,,,,,,,,,,,,,,,right,1500,-10,1.527460556607758e-05,-1,0,-1,-10,183.52395946666755,None,181.49086940009147,181.80527150002308,182.4961856000591,182.82477230008226,183.477772800019,183.82390020007733,up,0,2.918185199960135,181.5237863000948,None,184.04538850008976,None,,,,,,,udoety,001,0,fr,2022-05-03_11h47.16.565,3-AFC_adaptive_staircase_mess,2022.1.1,36.31006911300613,
,,,,,1,0,1,0,7,0,7,0,,,,,,,,,,,,,,,,up,1500,-5,2.716251657462168e-05,1,1,1,5,187.02412816667155,None,185.9964622000698,186.3149354000343,186.97744950000197,187.29362270003185,187.9906427001115,188.32957900001202,up,1,3.517203800030984,186.02876200003084,None,188.5434215000132,None,,,,,,,udoety,001,0,fr,2022-05-03_11h47.16.565,3-AFC_adaptive_staircase_mess,2022.1.1,36.31006911300613,
,,,,,1,0,1,0,8,0,8,0,,,,,,,,,,,,,,,,up,1500,-5,2.716251657462168e-05,1,1,1,5,192.10803226667147,None,191.0751111001009,191.39714690006804,192.06214870000258,192.40646900003776,193.07519660005346,193.39191290002782,right,0,2.9395441999658942,191.10300380003173,None,193.63585840002634,None,,,,,,,udoety,001,0,fr,2022-05-03_11h47.16.565,3-AFC_adaptive_staircase_mess,2022.1.1,36.31006911300613,
,,,,,1,0,1,0,9,0,9,0,,,,,,,,,,,,,,,,up,1500,0,4.830254394949071e-05,1,1,1,5,196.57873956667416,None,195.54155960003845,195.86622270010412,196.53326690010726,196.87313090008684,197.55114100000355,197.87119430000894,up,1,2.627317500067875,195.6062452000333,None,198.08001120004337,None,,,,,,,udoety,001,0,fr,2022-05-03_11h47.16.565,3-AFC_adaptive_staircase_mess,2022.1.1,36.31006911300613,
,,,,,1,0,1,0,10,0,10,0,,,,,,,,,,,,,,,,right,1500,0,4.830254394949071e-05,1,1,1,5,201.79533656669471,None,199.739199200063,200.074182500015,200.741050700075,201.07496940006968,201.74617070006207,202.06755510007497,up,0,2.307689300039783,199.7979342000326,None,None,None,,,,,,,udoety,001,0,fr,2022-05-03_11h47.16.565,3-AFC_adaptive_staircase_mess,2022.1.1,36.31006911300613,
,,,,,1,0,1,0,11,0,11,0,,,,,,,,,,,,,,,,up,1500,5,8.589541935787943e-05,1,1,1,5,204.66517926677287,None,203.63407830009237,203.97931730002165,204.6485126001062,204.97729770001024,None,None,up,1,1.8525739000178874,203.69337860005908,None,None,None,,,,,,,udoety,001,0,fr,2022-05-03_11h47.16.565,3-AFC_adaptive_staircase_mess,2022.1.1,36.31006911300613,
,,,,,1,0,1,0,12,0,12,0,,,,,,,,,,,,,,,,left,1500,5,8.589541935787943e-05,1,1,1,5,207.08881836670142,None,207.04323700000532,207.38660740002524,None,None,None,None,left,1,0.8599199999589473,207.10184540005866,None,None,None,,,,,,,udoety,001,0,fr,2022-05-03_11h47.16.565,3-AFC_adaptive_staircase_mess,2022.1.1,36.31006911300613,
,,,,,1,0,1,0,13,0,13,0,,,,,,,,,,,,,,,,left,1500,-5,2.716251657462168e-05,-1,2,-1,-5.0,209.50723386666894,None,209.46230260003358,209.7874706001021,210.46746010007337,210.78561520006042,211.48864950006828,211.8115841000108,up,0,3.142818799940869,209.5232388000004,None,212.0258276000386,None,,,,,,,udoety,001,0,fr,2022-05-03_11h47.16.565,3-AFC_adaptive_staircase_mess,2022.1.1,36.31006911300613,
,,,,,1,0,1,0,14,0,14,0,,,,,,,,,,,,,,,,left,1500,-2.5,3.622179800374953e-05,1,3,1,2.5,214.1871910667435,None,214.17052440007683,214.48754790006205,215.1631578000961,215.49021470011212,216.16151290002745,216.48954690003302,left,1,2.9600361000047997,214.2006604000926,None,216.69819780008402,None,,,,,,,udoety,001,0,fr,2022-05-03_11h47.16.565,3-AFC_adaptive_staircase_mess,2022.1.1,36.31006911300613,
,,,,,1,0,1,0,15,0,15,0,,,,,,,,,,,,,,,,right,1500,-2.5,3.622179800374953e-05,1,3,1,2.5,220.68588086677872,None,218.6602300000377,218.99738720001187,219.65561890008394,219.99449579999782,220.66921420011204,220.9908745000139,right,1,2.7875101999379694,218.72558230010327,None,221.20266900002025,None,,,,,,,udoety,001,0,fr,2022-05-03_11h47.16.565,3-AFC_adaptive_staircase_mess,2022.1.1,36.31006911300613,
,,,,,1,0,1,0,16,0,16,0,,,,,,,,,,,,,,,,left,1500,-7.5,2.036901389020565e-05,-1,4,-1,-5.0,223.08047886676312,None,223.06381220009644,223.4014693000354,224.04159720009193,224.363205700065,225.06143360002898,225.39876440004446,up,0,2.465198500081897,223.09646000002977,None,225.58972276671946,None,,,,,,,udoety,001,0,fr,2022-05-03_11h47.16.565,3-AFC_adaptive_staircase_mess,2022.1.1,36.31006911300613,
,,,,,1,0,1,0,17,0,17,0,,,,,,,,,,,,,,,,up,1500,-5.0,2.716251657462168e-05,1,5,1,2.5,228.09541166673105,None,227.06495110003743,227.39317150006536,228.07874500006437,228.41297850001138,229.0692662000656,229.40299080009572,left,0,2.983505000011064,227.12278309999965,None,229.6111214000266,None,,,,,,,udoety,001,0,fr,2022-05-03_11h47.16.565,3-AFC_adaptive_staircase_mess,2022.1.1,36.31006911300613,
,,,,,1,0,1,0,18,0,18,0,,,,,,,,,,,,,,,,right,1500,-2.5,3.622179800374953e-05,1,5,1,2.5,233.65744706668582,None,231.62528510007542,231.95507470006123,232.62265450006817,232.95059250004124,233.61057780007832,233.94919350009877,right,1,2.706197699997574,231.65568870003335,None,234.1606481000781,None,,,,,,,udoety,001,0,fr,2022-05-03_11h47.16.565,3-AFC_adaptive_staircase_mess,2022.1.1,36.31006911300613,
,,,,,1,0,1,0,19,0,19,0,,,,,,,,,,,,,,,,left,1500,-2.5,3.622179800374953e-05,1,5,1,2.5,235.93490746670093,None,235.88537170004565,236.2223404000979,236.8714754000539,237.20348350005224,237.8954958000686,238.22398700006306,right,0,3.181959700072184,235.94827860000078,None,238.43511160009075,None,,,,,,,udoety,001,0,fr,2022-05-03_11h47.16.565,3-AFC_adaptive_staircase_mess,2022.1.1,36.31006911300613,
,,,,,1,0,1,0,20,0,20,0,,,,,,,,,,,,,,,,up,1500,0.0,4.830254394949071e-05,1,5,1,2.5,241.70626946672954,None,240.65029350004625,240.98077540006489,241.6600903000217,241.97260540002026,242.65178420010488,None,up,1,2.166374599910341,240.70781870000064,None,None,None,,,,,,,udoety,001,0,fr,2022-05-03_11h47.16.565,3-AFC_adaptive_staircase_mess,2022.1.1,36.31006911300613,
,,,,,1,0,1,0,21,0,21,0,,,,,,,,,,,,,,,,right,1500,0.0,4.830254394949071e-05,1,5,1,2.5,246.43629516667377,None,244.3971369001083,244.73616830003448,245.38287200010382,245.71433760004584,246.3859480000101,246.72675480006728,right,1,2.8645462999120355,244.45775370008778,None,246.9296290000202,None,,,,,,,udoety,001,0,fr,2022-05-03_11h47.16.565,3-AFC_adaptive_staircase_mess,2022.1.1,36.31006911300613,
,,,,,1,0,1,0,22,0,22,0,,,,,,,,,,,,,,,,up,1500,-5.0,2.716251657462168e-05,-1,6,-1,-5.0,249.86285336671088,None,248.83955410006456,249.1662495000055,249.8461867000442,250.17885370005388,250.84384980006143,251.17277790000662,right,0,3.23795009998139,248.86776460008696,None,251.3886416000314,None,,,,,,,udoety,001,0,fr,2022-05-03_11h47.16.565,3-AFC_adaptive_staircase_mess,2022.1.1,36.31006911300613,
,,,,,2,0,2,0,0,0,0,0,,,,,,,,,,,,,[],[],10,up,2000,30,0.0023657562948074026,0,0,-1,10,256.14555276668784,None,255.11254220001865,255.4487758000614,256.09935100004077,256.43834310001694,None,None,up,1,1.6362647999776527,255.17374800005928,None,None,None,up,1.4549540999578312,253.1785349000711,None,253.1785349000711,None,udoety,001,0,fr,2022-05-03_11h47.16.565,3-AFC_adaptive_staircase_mess,2022.1.1,36.31006911300613,
,,,,,2,0,2,0,1,0,1,0,,,,,,,,,,,,,,,,right,2000,30,0.0023657562948074026,0,0,-1,10,260.3722625667617,None,258.3403027000604,258.6703984000487,259.3499515000731,259.67527220002376,260.3261910000583,260.6685421000002,right,1,2.3780171000398695,258.40028240007814,None,None,None,,,,,,,udoety,001,0,fr,2022-05-03_11h47.16.565,3-AFC_adaptive_staircase_mess,2022.1.1,36.31006911300613,
,,,,,2,0,2,0,2,0,2,0,,,,,,,,,,,,,,,,up,2000,10,0.00023657562948074026,-1,0,-1,-10,263.3454326667745,None,262.2848923000274,262.62554840010125,263.2996546000941,263.6181640001014,None,None,up,1,1.7003339000511914,262.3571562001016,None,None,None,,,,,,,udoety,001,0,fr,2022-05-03_11h47.16.565,3-AFC_adaptive_staircase_mess,2022.1.1,36.31006911300613,
,,,,,2,0,2,0,3,0,3,0,,,,,,,,,,,,,,,,left,2000,10,0.00023657562948074026,-1,0,-1,-10,265.6303715666911,None,265.5818861000007,265.9122895000037,None,None,None,None,left,1,0.5412900000810623,265.6441118000075,None,None,None,,,,,,,udoety,001,0,fr,2022-05-03_11h47.16.565,3-AFC_adaptive_staircase_mess,2022.1.1,36.31006911300613,
,,,,,2,0,2,0,4,0,4,0,,,,,,,,,,,,,,,,up,2000,0,7.481178280472168e-05,-1,0,-1,-10,268.72587356676036,None,267.68945659999736,268.0004955000477,268.7092069000937,269.05517639999744,None,None,up,1,1.4131150000030175,267.7631977000274,None,None,None,,,,,,,udoety,001,0,fr,2022-05-03_11h47.16.565,3-AFC_adaptive_staircase_mess,2022.1.1,36.31006911300613,
,,,,,2,0,2,0,5,0,5,0,,,,,,,,,,,,,,,,right,2000,0,7.481178280472168e-05,-1,0,-1,-10,272.73098086676714,None,270.703089900082,271.0324221000774,271.70481590006966,272.03658200008795,272.68426790006924,273.02522570011206,right,1,2.397549199988134,270.7326993000461,None,None,None,,,,,,,udoety,001,0,fr,2022-05-03_11h47.16.565,3-AFC_adaptive_staircase_mess,2022.1.1,36.31006911300613,
,,,,,2,0,2,0,6,0,6,0,,,,,,,,,,,,,,,,right,2000,-10,2.3657562948074015e-05,-1,0,-1,-10,276.679451666718,None,274.65242510009557,274.98376530001406,275.6579517000355,275.9879879000364,276.6336842000019,276.9688484000508,left,0,4.463483899948187,274.68219060008414,None,277.2045560000697,None,,,,,,,udoety,001,0,fr,2022-05-03_11h47.16.565,3-AFC_adaptive_staircase_mess,2022.1.1,36.31006911300613,
,,,,,2,0,2,0,7,0,7,0,,,,,,,,,,,,,,,,right,2000,-5,4.206975708225974e-05,1,1,1,5,282.7016134666667,None,280.6544700000668,280.98355290002655,281.6702292000409,282.0100414000917,282.6564430000726,282.9924833000405,right,1,2.905225499998778,280.70364850002807,None,283.2274432000704,None,,,,,,,udoety,001,0,fr,2022-05-03_11h47.16.565,3-AFC_adaptive_staircase_mess,2022.1.1,36.31006911300613,
,,,,,2,0,2,0,8,0,8,0,,,,,,,,,,,,,,,,right,2000,-5,4.206975708225974e-05,1,1,1,5,287.16623226675824,None,285.1295024000574,285.46613600000273,286.1108190000523,286.43847860000096,287.11903500009794,287.44515530008357,up,0,2.8979519000276923,285.15921180008445,None,287.6814178000204,None,,,,,,,udoety,001,0,fr,2022-05-03_11h47.16.565,3-AFC_adaptive_staircase_mess,2022.1.1,36.31006911300613,
,,,,,2,0,2,0,9,0,9,0,,,,,,,,,,,,,,,,right,2000,0,7.481178280472168e-05,1,1,1,5,291.5897872667449,None,289.55819310003426,289.87774600007106,290.560879800003,290.89870620006695,291.5449835000327,291.8689515000442,right,1,2.511769499978982,289.6103349000914,None,292.1028137000976,None,,,,,,,udoety,001,0,fr,2022-05-03_11h47.16.565,3-AFC_adaptive_staircase_mess,2022.1.1,36.31006911300613,
,,,,,2,0,2,0,10,0,10,0,,,,,,,,,,,,,,,,right,2000,0,7.481178280472168e-05,1,1,1,5,295.682111366714,None,293.6426599000115,293.9745452000061,294.65444790001493,294.98298660002183,295.6364913000725,295.97146390005946,right,1,2.3729816999984905,293.70104890002403,None,None,None,,,,,,,udoety,001,0,fr,2022-05-03_11h47.16.565,3-AFC_adaptive_staircase_mess,2022.1.1,36.31006911300613,
,,,,,2,0,2,0,11,0,11,0,,,,,,,,,,,,,,,,up,2000,-10,2.3657562948074015e-05,-1,2,-1,-5.0,298.63727166672857,None,297.602728900034,297.91984490002505,298.5997113001067,298.9226047000848,299.61558350000996,299.93511000007857,left,0,2.628938899957575,297.65289530006703,None,300.143537200056,None,,,,,,,udoety,001,0,fr,2022-05-03_11h47.16.565,3-AFC_adaptive_staircase_mess,2022.1.1,36.31006911300613,
,,,,,2,0,2,0,12,0,12,0,,,,,,,,,,,,,,,,up,2000,-7.5,3.154786722400965e-05,1,3,1,2.5,302.8135743666828,None,301.79044530005194,302.11974310001824,302.79690770001616,303.12058160000015,303.79463900008705,304.1215582001023,left,0,2.8796435999684036,301.85019790008664,None,304.328252300038,None,,,,,,,udoety,001,0,fr,2022-05-03_11h47.16.565,3-AFC_adaptive_staircase_mess,2022.1.1,36.31006911300613,
,,,,,2,0,2,0,13,0,13,0,,,,,,,,,,,,,,,,up,2000,-5.0,4.206975708225974e-05,1,3,1,2.5,307.2919133667058,None,306.2606174000539,306.57484090002254,307.27524670003913,307.5979949000757,308.2814521000255,308.598486800096,left,0,3.0199731999309734,306.3183716000058,None,308.8149714000756,None,,,,,,,udoety,001,0,fr,2022-05-03_11h47.16.565,3-AFC_adaptive_staircase_mess,2022.1.1,36.31006911300613,
,,,,,2,0,2,0,14,0,14,0,,,,,,,,,,,,,,,,right,2000,-2.5,5.610092271509818e-05,1,3,1,2.5,312.8916427667175,None,310.8305425000144,311.1438490001019,311.84473180002533,312.1678482000716,312.84185190009885,313.17066540010273,right,1,4.228594100102782,310.90198270010296,None,313.4080940000713,None,,,,,,,udoety,001,0,fr,2022-05-03_11h47.16.565,3-AFC_adaptive_staircase_mess,2022.1.1,36.31006911300613,
,,,,,2,0,2,0,15,0,15,0,,,,,,,,,,,,,,,,left,2000,-2.5,5.610092271509818e-05,1,3,1,2.5,316.66568946669963,None,316.649022800033,316.9616788000567,317.62949170009233,317.9578290000791,318.6290902000619,318.9536139999982,left,1,2.677256499999203,316.6767372000031,None,319.1895835000323,None,,,,,,,udoety,001,0,fr,2022-05-03_11h47.16.565,3-AFC_adaptive_staircase_mess,2022.1.1,36.31006911300613,
,,,,,2,0,2,0,16,0,16,0,,,,,,,,,,,,,,,,left,2000,-7.5,3.154786722400965e-05,-1,4,-1,-5.0,320.90616676671584,None,320.86005120002665,321.19355460000224,321.87223590002395,322.19749240006786,322.86740630003624,323.1932624001056,left,1,2.4442408001050353,320.90968480007723,None,323.3862972667596,None,,,,,,,udoety,001,0,fr,2022-05-03_11h47.16.565,3-AFC_adaptive_staircase_mess,2022.1.1,36.31006911300613,
,,,,,2,0,2,0,17,0,17,0,,,,,,,,,,,,,,,,left,2000,-7.5,3.154786722400965e-05,-1,4,-1,-5.0,324.893875366721,None,324.8479789000703,325.1811346000759,325.85690950008575,326.1955117000034,326.864647300099,327.19698190002237,left,1,2.814720800030045,324.9065600000322,None,327.40391280001495,None,,,,,,,udoety,001,0,fr,2022-05-03_11h47.16.565,3-AFC_adaptive_staircase_mess,2022.1.1,36.31006911300613,
,,,,,2,0,2,0,18,0,18,0,,,,,,,,,,,,,,,,right,2000,-12.5,1.7740669461678767e-05,-1,4,-1,-5.0,331.2742340667794,None,329.2412406000076,329.5706546000438,330.24204170005396,330.575555400108,331.25756740011275,331.58734930003993,up,0,4.259579400066286,329.30281450005714,None,331.7889212000882,None,,,,,,,udoety,001,0,fr,2022-05-03_11h47.16.565,3-AFC_adaptive_staircase_mess,2022.1.1,36.31006911300613,
,,,,,2,0,2,0,19,0,19,0,,,,,,,,,,,,,,,,up,2000,-10.0,2.3657562948074015e-05,1,5,1,2.5,336.1177547667796,None,335.05777320009656,335.3849967001006,336.0587854000041,336.3807681000326,337.082501100027,337.4074849000899,up,1,3.1480673999758437,335.1173262000084,None,337.61090970004443,None,,,,,,,udoety,001,0,fr,2022-05-03_11h47.16.565,3-AFC_adaptive_staircase_mess,2022.1.1,36.31006911300613,
,,,,,2,0,2,0,20,0,20,0,,,,,,,,,,,,,,,,left,2000,-10.0,2.3657562948074015e-05,1,5,1,2.5,339.8135573666698,None,339.76525290007703,340.09967400005553,340.8001005999977,341.13179300003685,341.77911620005034,342.1100215000333,left,1,3.8801710000261664,339.82479250000324,None,342.3123911001021,None,,,,,,,udoety,001,0,fr,2022-05-03_11h47.16.565,3-AFC_adaptive_staircase_mess,2022.1.1,36.31006911300613,
,,,,,2,0,2,0,21,0,21,0,,,,,,,,,,,,,,,,right,2000,-15.0,1.3303625298994042e-05,-1,6,-1,-5.0,347.2380566667455,None,345.21287320007104,345.53523320006207,346.21121420001145,346.54980390006676,347.2213900000788,347.56101140007377,up,0,2.980309800012037,345.2696216000477,None,347.75899170001503,None,,,,,,,udoety,001,0,fr,2022-05-03_11h47.16.565,3-AFC_adaptive_staircase_mess,2022.1.1,36.31006911300613,
,,,,,3,0,3,0,0,0,0,0,,,,,,,,,,,,,[],[],10,up,3000,30,0.001733684252262658,0,0,-1,10,351.9675494667065,352.19840940006543,350.9107935000211,351.2521451000357,351.92019060009625,352.2590024000965,None,None,up,1,1.4719488000264391,350.96945240010973,None,None,None,up,1.0961844000266865,349.3299237000756,None,349.3299237000756,None,udoety,001,0,fr,2022-05-03_11h47.16.565,3-AFC_adaptive_staircase_mess,2022.1.1,36.31006911300613,
,,,,,3,0,3,0,1,0,1,0,,,,,,,,,,,,,,,,up,3000,30,0.001733684252262658,0,0,-1,10,355.0111443667595,355.23566440003924,353.9632022000151,354.2927511000307,354.9660939000314,355.2972887000069,None,None,up,1,1.3866078000282869,354.03105170000345,None,None,None,,,,,,,udoety,001,0,fr,2022-05-03_11h47.16.565,3-AFC_adaptive_staircase_mess,2022.1.1,36.31006911300613,
,,,,,3,0,3,0,2,0,2,0,,,,,,,,,,,,,,,,left,3000,10,0.00017336842522626576,-1,0,-1,-10,356.98097956675724,357.2104196000146,356.930714600021,357.27124360005837,None,None,None,None,left,1,0.5618232999695465,356.9989995000651,None,None,None,,,,,,,udoety,001,0,fr,2022-05-03_11h47.16.565,3-AFC_adaptive_staircase_mess,2022.1.1,36.31006911300613,
,,,,,3,0,3,0,3,0,3,0,,,,,,,,,,,,,,,,up,3000,10,0.00017336842522626576,-1,0,-1,-10,360.1209436667307,None,359.06967300002,359.4045416000299,360.0696113000158,360.4039784000488,None,None,up,1,1.5480076000094414,359.13374710001517,None,None,None,,,,,,,udoety,001,0,fr,2022-05-03_11h47.16.565,3-AFC_adaptive_staircase_mess,2022.1.1,36.31006911300613,
,,,,,3,0,3,0,4,0,4,0,,,,,,,,,,,,,,,,up,3000,0,5.482390980715923e-05,-1,0,-1,-10,363.25630186667354,363.4847236000933,362.20161340001505,362.53453000006266,363.20588030002546,363.5476162000559,None,None,up,1,1.4452962001087144,362.25998110009823,None,None,None,,,,,,,udoety,001,0,fr,2022-05-03_11h47.16.565,3-AFC_adaptive_staircase_mess,2022.1.1,36.31006911300613,
,,,,,3,0,3,0,5,0,5,0,,,,,,,,,,,,,,,,up,3000,0,5.482390980715923e-05,-1,0,-1,-10,366.29263996676696,None,365.24246990005486,365.57670470001176,366.2415464000078,366.55504390003625,None,None,up,1,1.4014227000297979,365.3115862000268,None,None,None,,,,,,,udoety,001,0,fr,2022-05-03_11h47.16.565,3-AFC_adaptive_staircase_mess,2022.1.1,36.31006911300613,
,,,,,3,0,3,0,6,0,6,0,,,,,,,,,,,,,,,,right,3000,-10,1.7336842522626584e-05,-1,0,-1,-10,370.28873106668857,None,368.2447872000048,368.5764335000422,369.24600390007254,369.5757494000718,370.24162540002726,370.5814861000981,up,0,3.6948499999707565,368.31492570007686,None,370.78588090010453,None,,,,,,,udoety,001,0,fr,2022-05-03_11h47.16.565,3-AFC_adaptive_staircase_mess,2022.1.1,36.31006911300613,
,,,,,3,0,3,0,7,0,7,0,,,,,,,,,,,,,,,,left,3000,-5,3.082975009307411e-05,1,1,1,5,373.55298046669145,None,373.5087235000683,373.83204230002593,374.5095612000441,374.8380165999988,375.5112803000957,375.8328817000147,left,1,2.412450199946761,373.5652951000957,None,None,None,,,,,,,udoety,001,0,fr,2022-05-03_11h47.16.565,3-AFC_adaptive_staircase_mess,2022.1.1,36.31006911300613,
,,,,,3,0,3,0,8,0,8,0,,,,,,,,,,,,,,,,right,3000,-5,3.082975009307411e-05,1,1,1,5,379.51755056676143,None,377.4933487001108,377.82494150009006,378.49438110005576,378.8154084000271,379.5008839000948,379.83286680001765,up,0,2.8587060999125242,377.5506671000039,None,380.03901920001954,None,,,,,,,udoety,001,0,fr,2022-05-03_11h47.16.565,3-AFC_adaptive_staircase_mess,2022.1.1,36.31006911300613,
,,,,,3,0,3,0,9,0,9,0,,,,,,,,,,,,,,,,up,3000,0,5.482390980715923e-05,1,1,1,5,382.95498346671616,None,381.91252550005447,382.23958310007583,382.9085936000338,383.2388585000299,None,None,up,1,1.591698299976997,381.9709006000776,None,None,None,,,,,,,udoety,001,0,fr,2022-05-03_11h47.16.565,3-AFC_adaptive_staircase_mess,2022.1.1,36.31006911300613,
,,,,,3,0,3,0,10,0,10,0,,,,,,,,,,,,,,,,up,3000,0,5.482390980715923e-05,1,1,1,5,386.12001596676805,None,385.084413100034,385.40540620009415,386.0733605000423,386.40053510002326,None,None,up,1,1.4099748999578878,385.1436770000728,None,None,None,,,,,,,udoety,001,0,fr,2022-05-03_11h47.16.565,3-AFC_adaptive_staircase_mess,2022.1.1,36.31006911300613,
,,,,,3,0,3,0,11,0,11,0,,,,,,,,,,,,,,,,up,3000,-10,1.7336842522626584e-05,-1,2,-1,-5.0,389.1318364666697,None,388.08671740000136,388.41041170002427,389.0864940000465,389.40986430004705,390.0927117000101,390.43449010001495,up,1,2.745440899976529,388.1437973000575,None,390.6375415000366,None,,,,,,,udoety,001,0,fr,2022-05-03_11h47.16.565,3-AFC_adaptive_staircase_mess,2022.1.1,36.31006911300613,
,,,,,3,0,3,0,12,0,12,0,,,,,,,,,,,,,,,,up,3000,-10,1.7336842522626584e-05,-1,2,-1,-5.0,393.4311833667491,None,392.40990080009215,392.7332524000667,393.41451670008246,393.75007390009705,394.3994163000025,394.73001250007655,up,1,2.8376096000429243,392.4677146000322,None,394.9651160000358,None,,,,,,,udoety,001,0,fr,2022-05-03_11h47.16.565,3-AFC_adaptive_staircase_mess,2022.1.1,36.31006911300613,
,,,,,3,0,3,0,13,0,13,0,,,,,,,,,,,,,,,,left,3000,-15.0,9.749222998790228e-06,-1,2,-1,-5.0,396.87710686674495,None,396.83269450010266,397.1552744000219,397.82497030007653,398.1585286000045,398.8328372000251,399.15502950001974,left,1,2.816313200048171,396.8892900000792,None,399.3933359000366,None,,,,,,,udoety,001,0,fr,2022-05-03_11h47.16.565,3-AFC_adaptive_staircase_mess,2022.1.1,36.31006911300613,
,,,,,3,0,3,0,14,0,14,0,,,,,,,,,,,,,,,,left,3000,-15.0,9.749222998790228e-06,-1,2,-1,-5.0,401.26803896675506,None,401.22228560002986,401.5599943000125,402.2392111000372,402.5608300000895,403.2333914000774,403.55857870006,right,0,3.047967099933885,401.2808617000701,None,403.76893140003085,None,,,,,,,udoety,001,0,fr,2022-05-03_11h47.16.565,3-AFC_adaptive_staircase_mess,2022.1.1,36.31006911300613,
,,,,,3,0,3,0,15,0,15,0,,,,,,,,,,,,,,,,left,3000,-12.5,1.300079781582636e-05,1,3,1,2.5,405.8826057667068,406.10678840009496,405.83397620008327,406.16259080008604,406.8346661000978,407.1637828000821,407.83567120006774,408.15976780001074,up,0,3.2363836000440642,405.8939633000409,None,408.37372020003386,None,,,,,,,udoety,001,0,fr,2022-05-03_11h47.16.565,3-AFC_adaptive_staircase_mess,2022.1.1,36.31006911300613,
,,,,,3,0,3,0,16,0,16,0,,,,,,,,,,,,,,,,up,3000,-10.0,1.7336842522626584e-05,1,3,1,2.5,411.6870425667769,None,410.6619187000906,410.99197830003686,411.63806970010046,411.96937080007046,412.6531296001049,412.9856873000972,left,0,5.523875599959865,410.6941302000778,None,413.1933692001039,None,,,,,,,udoety,001,0,fr,2022-05-03_11h47.16.565,3-AFC_adaptive_staircase_mess,2022.1.1,36.31006911300613,
,,,,,3,0,3,0,17,0,17,0,,,,,,,,,,,,,,,,right,3000,-7.5,2.3119051069963017e-05,1,3,1,2.5,419.76344056666517,None,417.7185886000516,418.0458822000073,418.72397980000824,419.05862910009455,419.7166916000424,420.04749640007503,up,0,2.9828267000848427,417.7787621000316,None,420.2905099000782,None,,,,,,,udoety,001,0,fr,2022-05-03_11h47.16.565,3-AFC_adaptive_staircase_mess,2022.1.1,36.31006911300613,
,,,,,3,0,3,0,18,0,18,0,,,,,,,,,,,,,,,,right,3000,-5.0,3.082975009307411e-05,1,3,1,2.5,424.287616366699,None,422.2706906000385,422.59645050007384,423.25130410003476,423.5961161000887,424.27094970003236,424.6042224999983,up,0,3.0053993000183254,422.299826100003,None,424.80996880005114,None,,,,,,,udoety,001,0,fr,2022-05-03_11h47.16.565,3-AFC_adaptive_staircase_mess,2022.1.1,36.31006911300613,
,,,,,3,0,3,0,19,0,19,0,,,,,,,,,,,,,,,,left,3000,-2.5,4.1112132497353565e-05,1,3,1,2.5,426.8714163667212,None,426.8233101000078,427.16950290009845,427.83324950002134,428.1682220000075,428.8466252000071,429.17014890001155,left,1,2.6309494000161067,426.8832347000716,None,429.3763317000121,None,,,,,,,udoety,001,0,fr,2022-05-03_11h47.16.565,3-AFC_adaptive_staircase_mess,2022.1.1,36.31006911300613,
,,,,,3,0,3,0,20,0,20,0,,,,,,,,,,,,,,,,up,3000,-2.5,4.1112132497353565e-05,1,3,1,2.5,432.05709626671546,None,431.0367335000774,431.37056270008907,432.0404296000488,432.3783410000615,433.03527830005623,433.3714048000984,up,1,2.7813755000242963,431.0999201000668,None,433.5759111000225,None,,,,,,,udoety,001,0,fr,2022-05-03_11h47.16.565,3-AFC_adaptive_staircase_mess,2022.1.1,36.31006911300613,
,,,,,3,0,3,0,21,0,21,0,,,,,,,,,,,,,,,,up,3000,-7.5,2.3119051069963017e-05,-1,4,-1,-5.0,436.4157942666827,None,435.3733661000151,435.6994430000195,436.37101990007795,436.7133437000448,437.3678090000758,437.6983523000963,right,0,2.8331918000476435,435.4320818000706,None,437.9410859000636,None,,,,,,,udoety,001,0,fr,2022-05-03_11h47.16.565,3-AFC_adaptive_staircase_mess,2022.1.1,36.31006911300613,
,,,,,3,0,3,0,22,0,22,0,,,,,,,,,,,,,,,,right,3000,-5.0,3.082975009307411e-05,1,5,1,2.5,441.8218916666849,None,439.7903233000543,440.1192570000421,440.79262010008097,441.12363560008816,441.7773309000768,None,left,0,2.12688670004718,439.8184228000464,None,None,None,,,,,,,udoety,001,0,fr,2022-05-03_11h47.16.565,3-AFC_adaptive_staircase_mess,2022.1.1,36.31006911300613,
,,,,,3,0,3,0,23,0,23,0,,,,,,,,,,,,,,,,left,3000,-2.5,4.1112132497353565e-05,1,5,1,2.5,443.5286413666947,None,443.48213610006496,443.82266400009394,None,None,None,None,left,1,0.6929538000840694,443.5401817000238,None,None,None,,,,,,,udoety,001,0,fr,2022-05-03_11h47.16.565,3-AFC_adaptive_staircase_mess,2022.1.1,36.31006911300613,
,,,,,3,0,3,0,24,0,24,0,,,,,,,,,,,,,,,,right,3000,-2.5,4.1112132497353565e-05,1,5,1,2.5,447.78449346666844,None,445.7516963001108,446.0862723001046,446.75925060000736,447.0870757000521,447.7678268000018,448.0948243000312,up,0,2.3105648000491783,445.81041400006507,None,None,None,,,,,,,udoety,001,0,fr,2022-05-03_11h47.16.565,3-AFC_adaptive_staircase_mess,2022.1.1,36.31006911300613,
,,,,,3,0,3,0,25,0,25,0,,,,,,,,,,,,,,,,right,3000,0.0,5.482390980715923e-05,1,5,1,2.5,None,None,449.61892710009124,449.9583316000644,450.6229238000233,450.9579727000091,None,None,left,0,1.8028139000525698,449.6784531000303,None,None,None,,,,,,,udoety,001,0,fr,2022-05-03_11h47.16.565,3-AFC_adaptive_staircase_mess,2022.1.1,36.31006911300613,
,,,,,3,0,3,0,26,0,26,0,,,,,,,,,,,,,,,,up,3000,2.5,7.310885872283589e-05,1,5,1,2.5,454.0337398667509,None,453.0037785000168,453.3340238000965,453.98550320009235,454.3004948000889,None,None,up,1,1.3608328000409529,453.0322348000482,None,None,None,,,,,,,udoety,001,0,fr,2022-05-03_11h47.16.565,3-AFC_adaptive_staircase_mess,2022.1.1,36.31006911300613,
,,,,,3,0,3,0,27,0,27,0,,,,,,,,,,,,,,,,right,3000,2.5,7.310885872283589e-05,1,5,1,2.5,457.93782916671285,None,455.89568940002937,456.2295342000434,456.8831202000147,457.22550240007695,457.8929099000525,458.2354159000097,right,1,2.432359700091183,455.9285890000174,None,None,None,,,,,,,udoety,001,0,fr,2022-05-03_11h47.16.565,3-AFC_adaptive_staircase_mess,2022.1.1,36.31006911300613,
,,,,,3,0,3,0,28,0,28,0,,,,,,,,,,,,,,,,up,3000,-2.5,4.1112132497353565e-05,-1,6,-1,-5.0,460.9039826667324,None,459.8665764000034,460.20373910001945,460.88731600006577,461.2345763000194,461.86714440002106,462.2021794000175,up,1,2.800041600014083,459.92997690010816,None,462.43980950000696,None,,,,,,,udoety,001,0,fr,2022-05-03_11h47.16.565,3-AFC_adaptive_staircase_mess,2022.1.1,36.31006911300613,
,,,,,4,0,4,0,0,0,0,0,,,,,,,,,,,,,[],[],10,right,4000,30,0.0026544222211549416,0,0,-1,10,467.3864281667086,None,465.3392379001016,465.6735575000057,466.3256775001064,466.65765090007335,467.33970960008446,467.6816958000418,right,1,2.301110400003381,465.404353100108,None,None,None,left,1.0357829000568017,463.82198790006805,None,463.82198790006805,None,udoety,001,0,fr,2022-05-03_11h47.16.565,3-AFC_adaptive_staircase_mess,2022.1.1,36.31006911300613,
,,,,,4,0,4,0,1,0,1,0,,,,,,,,,,,,,,,,left,4000,30,0.0026544222211549416,0,0,-1,10,469.25355466670976,None,469.2081373000983,469.5500675000949,None,None,None,None,left,1,0.6628059999784455,469.26576100010425,None,None,None,,,,,,,udoety,001,0,fr,2022-05-03_11h47.16.565,3-AFC_adaptive_staircase_mess,2022.1.1,36.31006911300613,
,,,,,4,0,4,0,2,0,2,0,,,,,,,,,,,,,,,,right,4000,10,0.00026544222211549425,-1,0,-1,-10,473.4545685667001,None,471.4399960000301,471.77708590007387,472.4205456000054,472.7453888000455,473.43790190003347,473.7530726999976,right,1,2.444892799947411,471.46928180009127,None,None,None,,,,,,,udoety,001,0,fr,2022-05-03_11h47.16.565,3-AFC_adaptive_staircase_mess,2022.1.1,36.31006911300613,
,,,,,4,0,4,0,3,0,3,0,,,,,,,,,,,,,,,,up,4000,10,0.00026544222211549425,-1,0,-1,-10,476.47389426670657,None,475.4351715000812,475.7693830000935,476.42926490004174,476.74565360008273,None,None,up,1,1.4419130999594927,475.4640158000402,None,None,None,,,,,,,udoety,001,0,fr,2022-05-03_11h47.16.565,3-AFC_adaptive_staircase_mess,2022.1.1,36.31006911300613,
,,,,,4,0,4,0,4,0,4,0,,,,,,,,,,,,,,,,left,4000,0,8.394020090612804e-05,-1,0,-1,-10,478.4343328667494,None,478.41766620008275,478.75585440010764,None,None,None,None,left,1,0.5685415000189096,478.44843470002525,None,None,None,,,,,,,udoety,001,0,fr,2022-05-03_11h47.16.565,3-AFC_adaptive_staircase_mess,2022.1.1,36.31006911300613,
,,,,,4,0,4,0,5,0,5,0,,,,,,,,,,,,,,,,left,4000,0,8.394020090612804e-05,-1,0,-1,-10,480.5727201667071,None,480.55605350004043,480.8921870000195,None,None,None,None,left,1,0.46172899997327477,480.58790790010244,None,None,None,,,,,,,udoety,001,0,fr,2022-05-03_11h47.16.565,3-AFC_adaptive_staircase_mess,2022.1.1,36.31006911300613,
,,,,,4,0,4,0,6,0,6,0,,,,,,,,,,,,,,,,up,4000,-10,2.6544222211549425e-05,-1,0,-1,-10,483.5753650667068,483.80345820006914,482.5575624000048,482.8902025000425,483.55869840004016,483.8940591000719,484.5374307000311,484.8500319001032,right,0,4.6524558999808505,482.58942060009576,None,485.1167901000008,None,,,,,,,udoety,001,0,fr,2022-05-03_11h47.16.565,3-AFC_adaptive_staircase_mess,2022.1.1,36.31006911300613,
,,,,,4,0,4,0,7,0,7,0,,,,,,,,,,,,,,,,left,4000,-5,4.720304381429618e-05,1,1,1,5,488.8127079667213,None,488.763788600103,489.1023007000331,489.77834900002927,490.1011361000128,490.76815960009117,491.08034840004984,left,1,2.7171033000340685,488.8287992000114,None,491.33261770009995,None,,,,,,,udoety,001,0,fr,2022-05-03_11h47.16.565,3-AFC_adaptive_staircase_mess,2022.1.1,36.31006911300613,
,,,,,4,0,4,0,8,0,8,0,,,,,,,,,,,,,,,,up,4000,-5,4.720304381429618e-05,1,1,1,5,494.11983176676245,None,493.0621614000993,493.4023772000801,494.07003480009735,494.3916882000631,495.05963710008655,495.4021590000484,up,1,2.631791800027713,493.1219072000822,None,495.61188070010394,None,,,,,,,udoety,001,0,fr,2022-05-03_11h47.16.565,3-AFC_adaptive_staircase_mess,2022.1.1,36.31006911300613,
,,,,,4,0,4,0,9,0,9,0,,,,,,,,,,,,,,,,right,4000,-15,1.4926913094589802e-05,-1,2,-1,-5.0,499.3325201667069,None,497.2808500000974,497.6085288000759,498.2949415000621,498.6149246999994,499.2802446000278,499.5922417000402,right,1,2.6272378999274224,497.3500028999988,None,499.82863980007824,None,,,,,,,udoety,001,0,fr,2022-05-03_11h47.16.565,3-AFC_adaptive_staircase_mess,2022.1.1,36.31006911300613,
,,,,,4,0,4,0,10,0,10,0,,,,,,,,,,,,,,,,up,4000,-15,1.4926913094589802e-05,-1,2,-1,-5.0,502.53781236667805,None,501.48917140008416,501.8075969000347,502.48593630001415,502.81354960007593,503.48521600000095,503.814695600071,left,0,3.2266022000694647,501.55044140003156,None,504.0493575000437,None,,,,,,,udoety,001,0,fr,2022-05-03_11h47.16.565,3-AFC_adaptive_staircase_mess,2022.1.1,36.31006911300613,
,,,,,4,0,4,0,11,0,11,0,,,,,,,,,,,,,,,,left,4000,-12.5,1.9905358527674868e-05,1,3,1,2.5,506.3204963667706,None,506.27528780000284,506.61772340000607,507.29245480010286,507.6181709000375,508.28796670003794,508.6157676000148,up,0,3.1001644000643864,506.3335073000053,None,508.826827700017,None,,,,,,,udoety,001,0,fr,2022-05-03_11h47.16.565,3-AFC_adaptive_staircase_mess,2022.1.1,36.31006911300613,
,,,,,4,0,4,0,12,0,12,0,,,,,,,,,,,,,,,,up,4000,-10.0,2.6544222211549425e-05,1,3,1,2.5,511.97730116668777,None,510.95015990000684,511.2862732000649,511.9606345000211,512.2887461000355,512.957322500064,513.2795737000415,left,0,2.871489300043322,511.0099617000669,None,513.5170590000926,None,,,,,,,udoety,001,0,fr,2022-05-03_11h47.16.565,3-AFC_adaptive_staircase_mess,2022.1.1,36.31006911300613,
,,,,,4,0,4,0,13,0,13,0,,,,,,,,,,,,,,,,left,4000,-7.5,3.53972892192069e-05,1,3,1,2.5,515.4309542667509,None,515.3859325000085,515.7306013000198,516.378483400098,516.7223584000021,517.3965638000518,517.7237113000592,up,0,2.3730550999753177,515.4444689000957,None,None,None,,,,,,,udoety,001,0,fr,2022-05-03_11h47.16.565,3-AFC_adaptive_staircase_mess,2022.1.1,36.31006911300613,
,,,,,4,0,4,0,14,0,14,0,,,,,,,,,,,,,,,,left,4000,-5.0,4.720304381429618e-05,1,3,1,2.5,519.4081564667324,None,519.3586703001056,519.6732455000747,520.3489125000779,520.6854869000381,521.3546976000071,521.6956179999979,left,1,2.6341248999815434,519.4231586001115,None,521.9062585000647,None,,,,,,,udoety,001,0,fr,2022-05-03_11h47.16.565,3-AFC_adaptive_staircase_mess,2022.1.1,36.31006911300613,
,,,,,4,0,4,0,15,0,15,0,,,,,,,,,,,,,,,,left,4000,-5.0,4.720304381429618e-05,1,3,1,2.5,523.6150743667424,None,523.56665110006,523.8813499000389,524.5593742000638,524.8965296000242,525.5674268000294,525.8872991000535,right,0,2.970017099985853,523.6316396000329,None,526.1272765001049,None,,,,,,,udoety,001,0,fr,2022-05-03_11h47.16.565,3-AFC_adaptive_staircase_mess,2022.1.1,36.31006911300613,
,,,,,4,0,4,0,16,0,16,0,,,,,,,,,,,,,,,,left,4000,-2.5,6.294627058970837e-05,1,3,1,2.5,528.1413283667682,None,528.1246617001016,528.4478672000114,529.1002177000046,529.4516706001014,530.1138886000263,530.4279747999972,left,1,2.4472344000823796,528.1540042000124,None,None,None,,,,,,,udoety,001,0,fr,2022-05-03_11h47.16.565,3-AFC_adaptive_staircase_mess,2022.1.1,36.31006911300613,
,,,,,4,0,4,0,17,0,17,0,,,,,,,,,,,,,,,,left,4000,-2.5,6.294627058970837e-05,1,3,1,2.5,532.1348325666661,None,532.1181658999994,532.4558765999973,None,None,None,None,left,1,0.6469607999315485,532.1465103001101,None,None,None,,,,,,,udoety,001,0,fr,2022-05-03_11h47.16.565,3-AFC_adaptive_staircase_mess,2022.1.1,36.31006911300613,
,,,,,4,0,4,0,18,0,18,0,,,,,,,,,,,,,,,,left,4000,-7.5,3.53972892192069e-05,-1,4,-1,-5.0,534.3196832667493,None,534.3030166000826,534.6414205000037,535.2918207000475,535.6249684001086,536.3094541000901,536.6531140001025,left,1,2.938716199947521,534.3350221000146,None,536.8375264001079,None,,,,,,,udoety,001,0,fr,2022-05-03_11h47.16.565,3-AFC_adaptive_staircase_mess,2022.1.1,36.31006911300613,
,,,,,4,0,4,0,19,0,19,0,,,,,,,,,,,,,,,,right,4000,-7.5,3.53972892192069e-05,-1,4,-1,-5.0,540.8215536666723,None,538.7873903000727,539.0996689000167,539.7863312000409,540.1225198000902,540.7752747000195,541.1028679000447,left,0,3.4298443999141455,538.8197325000074,None,541.3326614000835,None,,,,,,,udoety,001,0,fr,2022-05-03_11h47.16.565,3-AFC_adaptive_staircase_mess,2022.1.1,36.31006911300613,
,,,,,4,0,4,0,20,0,20,0,,,,,,,,,,,,,,,,up,4000,-5.0,4.720304381429618e-05,1,5,1,2.5,544.8013094667733,None,543.7585849000607,544.0977832000935,544.7508306000382,545.0930190000217,None,None,up,1,1.7400359000312164,543.8216258001048,None,None,None,,,,,,,udoety,001,0,fr,2022-05-03_11h47.16.565,3-AFC_adaptive_staircase_mess,2022.1.1,36.31006911300613,
,,,,,4,0,4,0,21,0,21,0,,,,,,,,,,,,,,,,up,4000,-5.0,4.720304381429618e-05,1,5,1,2.5,548.1081164667305,None,547.0623673000373,547.3950617000228,548.0623299001018,548.3952351000626,None,None,up,1,1.5881377999903634,547.1256694000913,None,None,None,,,,,,,udoety,001,0,fr,2022-05-03_11h47.16.565,3-AFC_adaptive_staircase_mess,2022.1.1,36.31006911300613,
,,,,,4,0,4,0,22,0,22,0,,,,,,,,,,,,,,,,left,4000,-10.0,2.6544222211549425e-05,-1,6,-1,-5.0,550.2647292666991,None,550.2480626000324,550.5883894000435,551.2484957000706,551.582807400031,552.2259542000247,552.5547871000599,right,0,3.33152909995988,550.2777782001067,None,552.7873576000566,None,,,,,,,udoety,001,0,fr,2022-05-03_11h47.16.565,3-AFC_adaptive_staircase_mess,2022.1.1,36.31006911300613,
,,,,,5,0,5,0,0,0,0,0,,,,,,,,,,,,,[],[],10,up,6000,30,0.003664122665694519,0,0,-1,10,562.7381727666982,None,561.7000572000397,562.0455647000344,562.6881558001041,563.034976300085,None,None,up,1,1.3368440000340343,561.7600631000241,None,None,None,left,6.495723000029102,554.7140084001003,None,554.7140084001003,None,udoety,001,0,fr,2022-05-03_11h47.16.565,3-AFC_adaptive_staircase_mess,2022.1.1,36.31006911300613,
,,,,,5,0,5,0,1,0,1,0,,,,,,,,,,,,,,,,right,6000,30,0.003664122665694519,0,0,-1,10,566.6740294667582,None,564.6463458000217,564.9792005000636,565.6559050000506,565.9834999000886,566.6573628000915,566.9909750000807,right,1,2.2923167999833822,564.677588700084,None,None,None,,,,,,,udoety,001,0,fr,2022-05-03_11h47.16.565,3-AFC_adaptive_staircase_mess,2022.1.1,36.31006911300613,
,,,,,5,0,5,0,2,0,2,0,,,,,,,,,,,,,,,,up,6000,10,0.00036641226656945183,-1,0,-1,-10,569.5186549666726,None,568.4906844000798,568.822072400013,569.4587596000638,569.7774545000866,None,None,up,1,1.4751620000461116,568.5174564000918,None,None,None,,,,,,,udoety,001,0,fr,2022-05-03_11h47.16.565,3-AFC_adaptive_staircase_mess,2022.1.1,36.31006911300613,
,,,,,5,0,5,0,3,0,3,0,,,,,,,,,,,,,,,,right,6000,10,0.00036641226656945183,-1,0,-1,-10,573.5807258666648,None,571.527053100057,571.862559500034,572.5262503999984,572.8552672000369,573.5310495001031,573.8676127000945,right,1,2.2974124000174925,571.5993592001032,None,None,None,,,,,,,udoety,001,0,fr,2022-05-03_11h47.16.565,3-AFC_adaptive_staircase_mess,2022.1.1,36.31006911300613,
,,,,,5,0,5,0,4,0,4,0,,,,,,,,,,,,,,,,up,6000,0,0.00011586973249842387,-1,0,-1,-10,576.4178581666822,None,575.3949000000721,575.72566310002,576.4011915000156,576.7358560001012,None,None,up,1,1.6414866000413895,575.4562882001046,None,None,None,,,,,,,udoety,001,0,fr,2022-05-03_11h47.16.565,3-AFC_adaptive_staircase_mess,2022.1.1,36.31006911300613,
,,,,,5,0,5,0,5,0,5,0,,,,,,,,,,,,,,,,up,6000,0,0.00011586973249842387,-1,0,-1,-10,579.6404341667114,None,578.6216392000206,578.9523060000502,579.6237675000448,579.9583470000653,None,None,up,1,1.3757549000438303,578.6495723000262,None,None,None,,,,,,,udoety,001,0,fr,2022-05-03_11h47.16.565,3-AFC_adaptive_staircase_mess,2022.1.1,36.31006911300613,
,,,,,5,0,5,0,6,0,6,0,,,,,,,,,,,,,,,,left,6000,-10,3.664122665694518e-05,-1,0,-1,-10,581.5641065667771,None,581.5179853000445,581.8551557000028,582.5362689000322,582.8616202000994,583.5374208000721,583.8597433000105,left,1,2.6015964000253007,581.5675063000526,None,584.0941012001131,None,,,,,,,udoety,001,0,fr,2022-05-03_11h47.16.565,3-AFC_adaptive_staircase_mess,2022.1.1,36.31006911300613,
,,,,,5,0,5,0,7,0,7,0,,,,,,,,,,,,,,,,right,6000,-10,3.664122665694518e-05,-1,0,-1,-10,587.7083591666926,None,585.6735058000777,585.9951126000378,586.6663512000814,586.9908740000101,587.6638613000978,587.990990600083,left,0,2.8683666000142694,585.7332698000828,None,588.225654500071,None,,,,,,,udoety,001,0,fr,2022-05-03_11h47.16.565,3-AFC_adaptive_staircase_mess,2022.1.1,36.31006911300613,
,,,,,5,0,5,0,8,0,8,0,,,,,,,,,,,,,,,,up,6000,-5,6.515833892261494e-05,1,1,1,5,591.1515494667149,None,590.1030121000949,590.4267913000658,591.1051979000913,591.438835100038,None,None,up,1,1.608423399971798,590.1605537000578,None,None,None,,,,,,,udoety,001,0,fr,2022-05-03_11h47.16.565,3-AFC_adaptive_staircase_mess,2022.1.1,36.31006911300613,
,,,,,5,0,5,0,9,0,9,0,,,,,,,,,,,,,,,,left,6000,-5,6.515833892261494e-05,1,1,1,5,593.3107858667538,None,593.2648816000437,593.5953341000713,None,None,None,None,left,1,0.6147907000267878,593.3148832001025,None,None,None,,,,,,,udoety,001,0,fr,2022-05-03_11h47.16.565,3-AFC_adaptive_staircase_mess,2022.1.1,36.31006911300613,
,,,,,5,0,5,0,10,0,10,0,,,,,,,,,,,,,,,,left,6000,-15,2.0604875954866497e-05,-1,2,-1,-5.0,595.4913421667336,None,595.4455342000583,595.771305500064,596.4449470000109,596.7530100001022,597.4421098000603,597.7548142001033,up,0,3.929267800063826,595.5045173000544,None,598.0161050000461,None,,,,,,,udoety,001,0,fr,2022-05-03_11h47.16.565,3-AFC_adaptive_staircase_mess,2022.1.1,36.31006911300613,
,,,,,5,0,5,0,11,0,11,0,,,,,,,,,,,,,,,,right,6000,-12.5,2.7477043692881217e-05,1,3,1,2.5,602.9885500667772,None,600.9443416000577,601.2682688001078,601.9365962001029,602.2577871000394,602.9387070001103,603.272262500017,up,0,2.9282343999948353,601.0015701000812,None,603.4912469000556,None,,,,,,,udoety,001,0,fr,2022-05-03_11h47.16.565,3-AFC_adaptive_staircase_mess,2022.1.1,36.31006911300613,
,,,,,5,0,5,0,12,0,12,0,,,,,,,,,,,,,,,,right,6000,-10.0,3.664122665694518e-05,1,3,1,2.5,607.5097171667187,None,605.466355200042,605.788712700014,606.4560143999988,606.7827100000577,607.4609403000213,607.7948473000433,left,0,3.4255566999781877,605.527261500014,None,608.0292323000031,None,,,,,,,udoety,001,0,fr,2022-05-03_11h47.16.565,3-AFC_adaptive_staircase_mess,2022.1.1,36.31006911300613,
,,,,,5,0,5,0,13,0,13,0,,,,,,,,,,,,,,,,up,6000,-7.5,4.886186104779051e-05,1,3,1,2.5,611.552718666677,None,610.4965543000726,610.8367864000611,611.5061221000506,611.8483937000856,612.514618700021,612.8391859000549,up,1,2.880758999963291,610.567990200012,None,613.0490235000616,None,,,,,,,udoety,001,0,fr,2022-05-03_11h47.16.565,3-AFC_adaptive_staircase_mess,2022.1.1,36.31006911300613,
,,,,,5,0,5,0,14,0,14,0,,,,,,,,,,,,,,,,left,6000,-7.5,4.886186104779051e-05,1,3,1,2.5,614.9864492667296,None,614.9697826000629,615.3034830000252,615.9801196000772,616.3037887000246,616.9507884000195,617.2817971000914,left,1,2.323821899946779,614.9978572000982,None,None,None,,,,,,,udoety,001,0,fr,2022-05-03_11h47.16.565,3-AFC_adaptive_staircase_mess,2022.1.1,36.31006911300613,
,,,,,5,0,5,0,15,0,15,0,,,,,,,,,,,,,,,,right,6000,-12.5,2.7477043692881217e-05,-1,4,-1,-5.0,620.8929772667509,None,618.8399763000198,619.1845060000196,619.850894000032,620.175421699998,620.844283600105,621.1776689001126,up,0,4.102534300065599,618.8980342000723,None,621.4138290000847,None,,,,,,,udoety,001,0,fr,2022-05-03_11h47.16.565,3-AFC_adaptive_staircase_mess,2022.1.1,36.31006911300613,
,,,,,5,0,5,0,16,0,16,0,,,,,,,,,,,,,,,,right,6000,-10.0,3.664122665694518e-05,1,5,1,2.5,626.5644662667221,None,624.5491909000557,624.8935180000262,625.5317971000914,625.8474468000932,626.5277239000425,626.8575324000558,right,1,2.7597420000238344,624.5785050000995,None,627.0910089000827,None,,,,,,,udoety,001,0,fr,2022-05-03_11h47.16.565,3-AFC_adaptive_staircase_mess,2022.1.1,36.31006911300613,
,,,,,5,0,5,0,17,0,17,0,,,,,,,,,,,,,,,,left,6000,-10.0,3.664122665694518e-05,1,5,1,2.5,628.9145061667698,None,628.868976400001,629.2025532000698,629.862799399998,630.1853417000966,630.8581392000197,631.1812330000103,up,0,3.26665350003168,628.9183684000745,None,631.4176078001037,None,,,,,,,udoety,001,0,fr,2022-05-03_11h47.16.565,3-AFC_adaptive_staircase_mess,2022.1.1,36.31006911300613,
,,,,,5,0,5,0,18,0,18,0,,,,,,,,,,,,,,,,left,6000,-7.5,4.886186104779051e-05,1,5,1,2.5,633.7415122667483,None,633.6967828000197,634.0244347000262,634.7043825000292,635.0335344000487,635.705110500101,636.0333169000223,left,1,2.653064199956134,633.756351100048,None,636.2394947001012,None,,,,,,,udoety,001,0,fr,2022-05-03_11h47.16.565,3-AFC_adaptive_staircase_mess,2022.1.1,36.31006911300613,
,,,,,5,0,5,0,19,0,19,0,,,,,,,,,,,,,,,,up,6000,-7.5,4.886186104779051e-05,1,5,1,2.5,638.9683846667797,None,637.9272575000068,638.2491842000745,638.9232750000665,639.2518135000719,None,None,up,1,1.5593903000699356,637.985296000028,None,None,None,,,,,,,udoety,001,0,fr,2022-05-03_11h47.16.565,3-AFC_adaptive_staircase_mess,2022.1.1,36.31006911300613,
,,,,,5,0,5,0,20,0,20,0,,,,,,,,,,,,,,,,up,6000,-12.5,2.7477043692881217e-05,-1,6,-1,-5.0,642.0851510667164,None,641.0670978000853,641.394028800074,642.0684844000498,642.3946964000352,643.052586600068,643.3804890000029,up,1,2.835835300036706,641.1256024000468,None,643.6138321000617,None,,,,,,,udoety,001,0,fr,2022-05-03_11h47.16.565,3-AFC_adaptive_staircase_mess,2022.1.1,36.31006911300613,
,,,,,6,0,6,0,0,0,0,0,,,,,,,,,,,,,[],[],10,left,8000,30,0.005740768107484416,0,0,-1,10,647.0566915667771,None,647.0126771000214,647.3366375000915,None,None,None,None,left,1,0.5873462999006733,647.0690916000167,None,None,None,space,1.4995637000538409,645.0531514000613,None,645.0531514000613,None,udoety,001,0,fr,2022-05-03_11h47.16.565,3-AFC_adaptive_staircase_mess,2022.1.1,36.31006911300613,
,,,,,6,0,6,0,1,0,1,0,,,,,,,,,,,,,,,,up,8000,30,0.005740768107484416,0,0,-1,10,650.2031041667253,None,649.1608975999989,649.4851136000361,650.1538864000468,650.4913565000752,None,None,up,1,1.3959088999545202,649.1893875000533,None,None,None,,,,,,,udoety,001,0,fr,2022-05-03_11h47.16.565,3-AFC_adaptive_staircase_mess,2022.1.1,36.31006911300613,
,,,,,6,0,6,0,2,0,2,0,,,,,,,,,,,,,,,,up,8000,10,0.0005740768107484417,-1,0,-1,-10,653.1532371667602,None,652.1084950000513,652.4369406000478,653.1068916000659,653.4394129000138,None,None,up,1,1.5543888000538573,652.1670903000049,None,None,None,,,,,,,udoety,001,0,fr,2022-05-03_11h47.16.565,3-AFC_adaptive_staircase_mess,2022.1.1,36.31006911300613,
,,,,,6,0,6,0,3,0,3,0,,,,,,,,,,,,,,,,up,8000,10,0.0005740768107484417,-1,0,-1,-10,656.2878440666866,None,655.2351091000019,655.5592828000663,656.2417846000753,656.569825500017,None,None,up,1,1.5006590000120923,655.2921850000275,None,None,None,,,,,,,udoety,001,0,fr,2022-05-03_11h47.16.565,3-AFC_adaptive_staircase_mess,2022.1.1,36.31006911300613,
,,,,,6,0,6,0,4,0,4,0,,,,,,,,,,,,,,,,left,8000,0,0.0001815390273850507,-1,0,-1,-10,658.3484721667521,None,658.3032280000625,658.6336330000777,None,None,None,None,left,1,0.5612500999122858,658.3609518000158,None,None,None,,,,,,,udoety,001,0,fr,2022-05-03_11h47.16.565,3-AFC_adaptive_staircase_mess,2022.1.1,36.31006911300613,
,,,,,6,0,6,0,5,0,5,0,,,,,,,,,,,,,,,,left,8000,0,0.0001815390273850507,-1,0,-1,-10,660.4733946667441,None,660.4288646000205,660.7512041000882,None,None,None,None,left,1,0.43581389996688813,660.4853341000853,None,None,None,,,,,,,udoety,001,0,fr,2022-05-03_11h47.16.565,3-AFC_adaptive_staircase_mess,2022.1.1,36.31006911300613,
,,,,,6,0,6,0,6,0,6,0,,,,,,,,,,,,,,,,up,8000,-10,5.740768107484415e-05,-1,0,-1,-10,663.493173566709,None,662.452404800104,662.7770171000157,663.4467047000071,663.7725996000227,None,None,up,1,1.2901359000243247,662.5110826001037,None,None,None,,,,,,,udoety,001,0,fr,2022-05-03_11h47.16.565,3-AFC_adaptive_staircase_mess,2022.1.1,36.31006911300613,
,,,,,6,0,6,0,7,0,7,0,,,,,,,,,,,,,,,,right,8000,-10,5.740768107484415e-05,-1,0,-1,-10,667.3312156666691,None,665.2894469000166,665.6142359001096,666.2827593000839,666.6054818000412,667.285399000044,667.6208658000687,right,1,2.676888999994844,665.3481818001019,None,667.8588757000398,None,,,,,,,udoety,001,0,fr,2022-05-03_11h47.16.565,3-AFC_adaptive_staircase_mess,2022.1.1,36.31006911300613,
,,,,,6,0,6,0,8,0,8,0,,,,,,,,,,,,,,,,up,8000,-20,1.815390273850507e-05,-1,0,-1,-10,670.5540922667753,None,669.5223994000116,669.8522877000505,670.5374256001087,670.875773100066,671.519390600035,671.8418663000921,up,1,3.084404799970798,669.5807266000193,None,672.0764177000383,None,,,,,,,udoety,001,0,fr,2022-05-03_11h47.16.565,3-AFC_adaptive_staircase_mess,2022.1.1,36.31006911300613,
,,,,,6,0,6,0,9,0,9,0,,,,,,,,,,,,,,,,left,8000,-20,1.815390273850507e-05,-1,0,-1,-10,674.2220476667319,None,674.1635159000289,674.5036318000639,675.1767024000874,675.5002178000286,676.1726373001002,676.5006932000397,up,0,3.2950051999650896,674.2337597000878,None,676.7357419000473,None,,,,,,,udoety,001,0,fr,2022-05-03_11h47.16.565,3-AFC_adaptive_staircase_mess,2022.1.1,36.31006911300613,
,,,,,6,0,6,0,10,0,10,0,,,,,,,,,,,,,,,,left,8000,-15,3.228271145173278e-05,1,1,1,5,679.0824325667384,None,679.0371453000698,679.3604571000906,680.0307115000905,680.3552236000542,None,None,up,0,1.4108660999918357,679.0934535000706,None,None,None,,,,,,,udoety,001,0,fr,2022-05-03_11h47.16.565,3-AFC_adaptive_staircase_mess,2022.1.1,36.31006911300613,
,,,,,6,0,6,0,11,0,11,0,,,,,,,,,,,,,,,,left,8000,-10,5.740768107484415e-05,1,1,1,5,682.0873622666734,None,682.0407300000079,682.3710194000741,683.0442942000227,683.3697243001079,684.0397467000876,684.3533003000775,left,1,2.309806799981743,682.0999065000797,None,None,None,,,,,,,udoety,001,0,fr,2022-05-03_11h47.16.565,3-AFC_adaptive_staircase_mess,2022.1.1,36.31006911300613,
,,,,,6,0,6,0,12,0,12,0,,,,,,,,,,,,,,,,up,8000,-10,5.740768107484415e-05,1,1,1,5,686.9854045666909,None,685.9406706000445,686.2677562000463,686.9392104001017,687.268437000108,None,None,up,1,1.608807499986142,685.9997482000617,None,None,None,,,,,,,udoety,001,0,fr,2022-05-03_11h47.16.565,3-AFC_adaptive_staircase_mess,2022.1.1,36.31006911300613,
,,,,,6,0,6,0,13,0,13,0,,,,,,,,,,,,,,,,left,8000,-20,1.815390273850507e-05,-1,2,-1,-5.0,689.1684786667504,None,689.1234929000493,689.4482517000288,690.1488651999971,690.4742743000388,691.131138500059,691.4599371000659,left,1,2.604391200002283,689.1810762000969,None,691.6924180000788,None,,,,,,,udoety,001,0,fr,2022-05-03_11h47.16.565,3-AFC_adaptive_staircase_mess,2022.1.1,36.31006911300613,
,,,,,6,0,6,0,14,0,14,0,,,,,,,,,,,,,,,,right,8000,-20,1.815390273850507e-05,-1,2,-1,-5.0,695.3108219666794,None,693.2771034000907,693.599076100043,694.2695981001016,694.5956740000984,695.2635943000205,695.5884744001087,up,0,2.8640264000277966,693.3363105000462,None,695.8276999000227,None,,,,,,,udoety,001,0,fr,2022-05-03_11h47.16.565,3-AFC_adaptive_staircase_mess,2022.1.1,36.31006911300613,
,,,,,6,0,6,0,15,0,15,0,,,,,,,,,,,,,,,,up,8000,-17.5,2.420861837920497e-05,1,3,1,2.5,698.7404380667178,None,697.7003041000571,698.0237374000717,698.6944545001024,699.0248267001007,699.7073471000185,700.0203068000264,up,1,2.906460899976082,697.7580570999999,None,700.2537261000834,None,,,,,,,udoety,001,0,fr,2022-05-03_11h47.16.565,3-AFC_adaptive_staircase_mess,2022.1.1,36.31006911300613,
,,,,,6,0,6,0,16,0,16,0,,,,,,,,,,,,,,,,right,8000,-17.5,2.420861837920497e-05,1,3,1,2.5,704.190712966669,None,702.1739038000815,702.5075846000109,703.1752275000326,703.5052607000107,704.1740463000024,704.5133891000878,left,0,2.8936273000435904,702.2039474000921,None,704.7206619000062,None,,,,,,,udoety,001,0,fr,2022-05-03_11h47.16.565,3-AFC_adaptive_staircase_mess,2022.1.1,36.31006911300613,
,,,,,6,0,6,0,17,0,17,0,,,,,,,,,,,,,,,,up,8000,-15.0,3.228271145173278e-05,1,3,1,2.5,707.6450718667513,None,706.6080849000718,706.9285356000764,707.6005500000902,707.9242275001016,708.595955900033,708.92693470011,up,1,2.334538200055249,706.6664515000302,None,None,None,,,,,,,udoety,001,0,fr,2022-05-03_11h47.16.565,3-AFC_adaptive_staircase_mess,2022.1.1,36.31006911300613,
,,,,,6,0,6,0,18,0,18,0,,,,,,,,,,,,,,,,right,8000,-15.0,3.228271145173278e-05,1,3,1,2.5,None,None,710.520213300013,710.8511647999985,711.5054055000655,711.8291936001042,None,None,up,0,1.2991249999031425,710.5815353000071,None,None,None,,,,,,,udoety,001,0,fr,2022-05-03_11h47.16.565,3-AFC_adaptive_staircase_mess,2022.1.1,36.31006911300613,
,,,,,6,0,6,0,19,0,19,0,,,,,,,,,,,,,,,,left,8000,-12.5,4.304968760923004e-05,1,3,1,2.5,713.4281604666651,None,713.3814336000942,713.7204995000502,None,None,None,None,left,1,0.695726600009948,713.4410805000225,None,None,None,,,,,,,udoety,001,0,fr,2022-05-03_11h47.16.565,3-AFC_adaptive_staircase_mess,2022.1.1,36.31006911300613,
,,,,,6,0,6,0,20,0,20,0,,,,,,,,,,,,,,,,up,8000,-12.5,4.304968760923004e-05,1,3,1,2.5,716.7021395667145,None,715.676582400105,716.0015584001085,716.6854729000479,717.0245436000405,717.6818327000365,718.0141238000942,up,1,3.408456099918112,715.7045944000129,None,718.2195190000348,None,,,,,,,udoety,001,0,fr,2022-05-03_11h47.16.565,3-AFC_adaptive_staircase_mess,2022.1.1,36.31006911300613,
,,,,,6,0,6,0,21,0,21,0,,,,,,,,,,,,,,,,left,8000,-17.5,2.420861837920497e-05,-1,4,-1,-5.0,720.6866939666836,None,720.6422099000774,720.9707484000828,721.6447162000695,721.970417900011,722.6458597000455,722.9739275000757,up,0,2.9582848000572994,720.6982817000244,None,723.1844840000849,None,,,,,,,udoety,001,0,fr,2022-05-03_11h47.16.565,3-AFC_adaptive_staircase_mess,2022.1.1,36.31006911300613,
,,,,,6,0,6,0,22,0,22,0,,,,,,,,,,,,,,,,left,8000,-15.0,3.228271145173278e-05,1,5,1,2.5,725.2111770667291,None,725.1637570000021,725.5040643000975,726.1763296000427,726.5073168000672,727.1632407000288,727.4863455001032,left,1,2.9623478000285104,725.2222883000504,None,727.7234993000748,None,,,,,,,udoety,001,0,fr,2022-05-03_11h47.16.565,3-AFC_adaptive_staircase_mess,2022.1.1,36.31006911300613,
,,,,,6,0,6,0,23,0,23,0,,,,,,,,,,,,,,,,up,8000,-15.0,3.228271145173278e-05,1,5,1,2.5,730.7255289666975,None,729.6988973000553,730.0357476000208,730.6806696000276,731.0079782000976,731.6822315000463,732.00623430009,left,0,3.0532890999456868,729.7555943001062,None,732.2448117000749,None,,,,,,,udoety,001,0,fr,2022-05-03_11h47.16.565,3-AFC_adaptive_staircase_mess,2022.1.1,36.31006911300613,
,,,,,6,0,6,0,24,0,24,0,,,,,,,,,,,,,,,,right,8000,-12.5,4.304968760923004e-05,1,5,1,2.5,736.3463811667791,None,734.3195368000306,734.64433930011,735.3190709000919,735.6477039000019,736.300539100077,736.6433886000887,up,0,3.0478213999886066,734.3525257000001,None,736.8545376000693,None,,,,,,,udoety,001,0,fr,2022-05-03_11h47.16.565,3-AFC_adaptive_staircase_mess,2022.1.1,36.31006911300613,
,,,,,6,0,6,0,25,0,25,0,,,,,,,,,,,,,,,,up,8000,-10.0,5.740768107484415e-05,1,5,1,2.5,739.9665691666926,None,738.9179107000818,739.253282800084,739.9162660000147,740.2462028000737,740.904069900047,741.2240788000636,up,1,2.8943780000554398,738.9866839000024,None,741.4852121000877,None,,,,,,,udoety,001,0,fr,2022-05-03_11h47.16.565,3-AFC_adaptive_staircase_mess,2022.1.1,36.31006911300613,
,,,,,6,0,6,0,26,0,26,0,,,,,,,,,,,,,,,,left,8000,-10.0,5.740768107484415e-05,1,5,1,2.5,743.4387682667623,None,743.3943371000933,743.722599400091,744.3817550000967,744.7272985000163,None,None,left,1,1.2938803000142798,743.4512953000376,None,None,None,,,,,,,udoety,001,0,fr,2022-05-03_11h47.16.565,3-AFC_adaptive_staircase_mess,2022.1.1,36.31006911300613,
,,,,,6,0,6,0,27,0,27,0,,,,,,,,,,,,,,,,right,8000,-15.0,3.228271145173278e-05,-1,6,-1,-5.0,748.3050944667232,None,746.2526537000667,746.5852023001062,747.2593710001092,747.5715147000737,748.2550255000824,748.5898230000166,left,0,3.010735800024122,746.3107544000959,None,748.7955241000745,None,,,,,,,udoety,001,0,fr,2022-05-03_11h47.16.565,3-AFC_adaptive_staircase_mess,2022.1.1,36.31006911300613,
,,,,,7,0,7,0,0,0,0,0,,,,,,,,,,,,,[],[],10,left,750,30,0.0012851978913844323,0,0,-1,10,752.7408716667599,None,752.6914645000361,753.0324537000852,None,None,None,None,left,1,0.7420871000504121,752.7545264000073,None,None,None,ralt,1.8091500999871641,750.3939355000621,None,750.3939355000621,None,udoety,001,0,fr,2022-05-03_11h47.16.565,3-AFC_adaptive_staircase_mess,2022.1.1,36.31006911300613,
,,,,,7,0,7,0,1,0,1,0,,,,,,,,,,,,,,,,up,750,30,0.0012851978913844323,0,0,-1,10,756.0454165667218,None,754.984448900097,755.3131067000795,755.9962626000633,756.3318734000204,None,None,up,1,1.5428712000139058,755.0427859000629,None,None,None,,,,,,,udoety,001,0,fr,2022-05-03_11h47.16.565,3-AFC_adaptive_staircase_mess,2022.1.1,36.31006911300613,
,,,,,7,0,7,0,2,0,2,0,,,,,,,,,,,,,,,,up,750,10,0.00012851978913844324,-1,0,-1,-10,759.149753566777,None,758.1008321000263,758.4162737000734,759.1005850000074,759.4111010000343,None,None,up,1,1.444330699974671,758.1657898999983,None,None,None,,,,,,,udoety,001,0,fr,2022-05-03_11h47.16.565,3-AFC_adaptive_staircase_mess,2022.1.1,36.31006911300613,
,,,,,7,0,7,0,3,0,3,0,,,,,,,,,,,,,,,,right,750,10,0.00012851978913844324,-1,0,-1,-10,763.1654954667358,None,761.1377175000962,761.4587592000607,762.1254347000504,762.4700661000097,763.1488288000692,763.4703366000904,right,1,2.358593299984932,761.2021470000036,None,None,None,,,,,,,udoety,001,0,fr,2022-05-03_11h47.16.565,3-AFC_adaptive_staircase_mess,2022.1.1,36.31006911300613,
,,,,,7,0,7,0,4,0,4,0,,,,,,,,,,,,,,,,up,750,0,4.064152580820497e-05,-1,0,-1,-10,766.1238028667324,None,765.0825238000834,765.3951166000916,766.075667200028,766.4041976000881,None,None,up,1,1.6024727000622079,765.1111500000115,None,None,None,,,,,,,udoety,001,0,fr,2022-05-03_11h47.16.565,3-AFC_adaptive_staircase_mess,2022.1.1,36.31006911300613,
,,,,,7,0,7,0,5,0,5,0,,,,,,,,,,,,,,,,right,750,0,4.064152580820497e-05,-1,0,-1,-10,770.2933377667252,None,768.2312042000704,768.5752899000654,769.2423616000451,769.5785781000741,770.2435816000216,770.5571738000726,right,1,2.4241421000333503,768.2900944000576,None,None,None,,,,,,,udoety,001,0,fr,2022-05-03_11h47.16.565,3-AFC_adaptive_staircase_mess,2022.1.1,36.31006911300613,
,,,,,7,0,7,0,6,0,6,0,,,,,,,,,,,,,,,,right,750,-10,1.2851978913844322e-05,-1,0,-1,-10,774.2807615667737,None,772.2350628999993,772.5825913000153,773.2305043000961,773.5463591000298,774.2341261000838,774.572754300083,right,1,2.4993999999715015,772.293738800101,None,774.8151050000452,None,,,,,,,udoety,001,0,fr,2022-05-03_11h47.16.565,3-AFC_adaptive_staircase_mess,2022.1.1,36.31006911300613,
,,,,,7,0,7,0,7,0,7,0,,,,,,,,,,,,,,,,up,750,-10,1.2851978913844322e-05,-1,0,-1,-10,777.3369750667518,None,776.3195108000655,776.6372133000987,777.3203084000852,777.641964700073,778.3055660000537,778.6498818000546,right,0,2.824590800097212,776.3525571000064,None,778.8565034000203,None,,,,,,,udoety,001,0,fr,2022-05-03_11h47.16.565,3-AFC_adaptive_staircase_mess,2022.1.1,36.31006911300613,
,,,,,7,0,7,0,8,0,8,0,,,,,,,,,,,,,,,,left,750,-5,2.285440948074376e-05,1,1,1,5,780.7276751667416,None,780.6827527000569,781.0260269000428,781.7016233000904,782.0191748000216,782.6914736001054,783.0059662000276,left,1,2.659341499907896,780.7417099000886,None,783.2587521000532,None,,,,,,,udoety,001,0,fr,2022-05-03_11h47.16.565,3-AFC_adaptive_staircase_mess,2022.1.1,36.31006911300613,
,,,,,7,0,7,0,9,0,9,0,,,,,,,,,,,,,,,,left,750,-5,2.285440948074376e-05,1,1,1,5,784.9494306666932,None,784.9035456000129,785.2241675000405,785.9136351000052,786.2579821000108,786.9281551000895,787.2646610001102,left,1,2.6311760999960825,784.9615984000266,None,787.4596629000735,None,,,,,,,udoety,001,0,fr,2022-05-03_11h47.16.565,3-AFC_adaptive_staircase_mess,2022.1.1,36.31006911300613,
,,,,,7,0,7,0,10,0,10,0,,,,,,,,,,,,,,,,up,750,-15,7.22719885372964e-06,-1,2,-1,-5.0,790.1502015666958,None,789.1045268001035,789.4280895000556,790.0999727000017,790.4415869000368,791.1058902000077,791.4428975000046,left,0,2.3625230999896303,789.1337910000002,None,None,None,,,,,,,udoety,001,0,fr,2022-05-03_11h47.16.565,3-AFC_adaptive_staircase_mess,2022.1.1,36.31006911300613,
,,,,,7,0,7,0,11,0,11,0,,,,,,,,,,,,,,,,up,750,-12.5,9.637624565954684e-06,1,3,1,2.5,794.0583545667507,None,793.001714700018,793.339818000095,794.0057996000396,794.3213644000934,795.0086453000549,795.344359000097,up,1,3.387635900056921,793.0685889000306,None,795.5486874000635,None,,,,,,,udoety,001,0,fr,2022-05-03_11h47.16.565,3-AFC_adaptive_staircase_mess,2022.1.1,36.31006911300613,
,,,,,7,0,7,0,12,0,12,0,,,,,,,,,,,,,,,,left,750,-12.5,9.637624565954684e-06,1,3,1,2.5,798.0231412667238,None,798.0064746000571,798.31960050005,798.9924065000378,799.3345105000772,800.0054473000346,800.3442961000837,right,0,3.1217102999798954,798.0390149001032,None,800.5576005000621,None,,,,,,,udoety,001,0,fr,2022-05-03_11h47.16.565,3-AFC_adaptive_staircase_mess,2022.1.1,36.31006911300613,
,,,,,7,0,7,0,13,0,13,0,,,,,,,,,,,,,,,,up,750,-10.0,1.2851978913844322e-05,1,3,1,2.5,803.7258578667572,None,802.6705312000122,803.0086990999989,803.6769392000278,804.015142200049,804.6730080000125,805.010023000068,left,0,2.8466419000178576,802.7301840001019,None,805.218514700071,None,,,,,,,udoety,001,0,fr,2022-05-03_11h47.16.565,3-AFC_adaptive_staircase_mess,2022.1.1,36.31006911300613,
,,,,,7,0,7,0,14,0,14,0,,,,,,,,,,,,,,,,left,750,-7.5,1.7138389327322525e-05,1,3,1,2.5,807.121800266734,None,807.0762404000852,807.4222184000537,808.0978832000401,808.4152213000925,809.0852377000265,809.4142892000964,up,0,2.8749243000056595,807.1349222999997,None,809.65459010005,None,,,,,,,udoety,001,0,fr,2022-05-03_11h47.16.565,3-AFC_adaptive_staircase_mess,2022.1.1,36.31006911300613,
,,,,,7,0,7,0,15,0,15,0,,,,,,,,,,,,,,,,left,750,-5.0,2.285440948074376e-05,1,3,1,2.5,811.567983166726,None,811.5513165000593,811.8876355000539,812.5341488000704,812.8484583001118,813.5461051000748,813.8862757000607,left,1,2.329634499968961,811.5837405000348,None,None,None,,,,,,,udoety,001,0,fr,2022-05-03_11h47.16.565,3-AFC_adaptive_staircase_mess,2022.1.1,36.31006911300613,
,,,,,7,0,7,0,16,0,16,0,,,,,,,,,,,,,,,,right,750,-5.0,2.285440948074376e-05,1,3,1,2.5,817.4772133667177,None,815.4296412999975,815.7470373000251,816.4194005000172,816.7579696000321,817.4277166000102,817.7546953000128,up,0,2.9627930000424385,815.4618949000724,None,817.9947863999987,None,,,,,,,udoety,001,0,fr,2022-05-03_11h47.16.565,3-AFC_adaptive_staircase_mess,2022.1.1,36.31006911300613,
,,,,,7,0,7,0,17,0,17,0,,,,,,,,,,,,,,,,left,750,-2.5,3.0476844862008466e-05,1,3,1,2.5,819.9709148667209,None,819.9226156000514,820.2654879000038,820.9303030000301,821.2567960000597,821.9241917000618,822.2505972000072,up,0,2.8713939000153914,819.9856869000942,None,822.4612801000476,None,,,,,,,udoety,001,0,fr,2022-05-03_11h47.16.565,3-AFC_adaptive_staircase_mess,2022.1.1,36.31006911300613,
,,,,,7,0,7,0,18,0,18,0,,,,,,,,,,,,,,,,up,750,0.0,4.064152580820497e-05,1,3,1,2.5,825.3991220667415,None,824.3917031000601,824.720330900047,825.3824554000748,825.7239770001033,None,None,up,1,1.6381699999328703,824.419351800112,None,None,None,,,,,,,udoety,001,0,fr,2022-05-03_11h47.16.565,3-AFC_adaptive_staircase_mess,2022.1.1,36.31006911300613,
,,,,,7,0,7,0,19,0,19,0,,,,,,,,,,,,,,,,left,750,0.0,4.064152580820497e-05,1,3,1,2.5,827.605125866776,None,827.5587861000095,827.9011880001053,None,None,None,None,left,1,0.45546990004368126,827.6177493000869,None,None,None,,,,,,,udoety,001,0,fr,2022-05-03_11h47.16.565,3-AFC_adaptive_staircase_mess,2022.1.1,36.31006911300613,
,,,,,7,0,7,0,20,0,20,0,,,,,,,,,,,,,,,,left,750,-5.0,2.285440948074376e-05,-1,4,-1,-5.0,829.6443344667243,None,829.5851905000163,829.9086440000683,None,None,None,None,left,1,0.47949549998156726,829.6575314000947,None,None,None,,,,,,,udoety,001,0,fr,2022-05-03_11h47.16.565,3-AFC_adaptive_staircase_mess,2022.1.1,36.31006911300613,
,,,,,7,0,7,0,21,0,21,0,,,,,,,,,,,,,,,,left,750,-5.0,2.285440948074376e-05,-1,4,-1,-5.0,831.6893957667673,None,831.6411851000739,831.983677100041,None,None,None,None,left,1,0.6105432999320328,831.7023591001052,None,None,None,,,,,,,udoety,001,0,fr,2022-05-03_11h47.16.565,3-AFC_adaptive_staircase_mess,2022.1.1,36.31006911300613,
,,,,,7,0,7,0,22,0,22,0,,,,,,,,,,,,,,,,left,750,-10.0,1.2851978913844322e-05,-1,4,-1,-5.0,833.831348866752,None,833.8146822000854,834.1486130000558,834.8057852000929,835.1290854000254,835.8127093000803,836.1267522000708,left,1,2.675497099990025,833.8449710001005,None,836.3629581000423,None,,,,,,,udoety,001,0,fr,2022-05-03_11h47.16.565,3-AFC_adaptive_staircase_mess,2022.1.1,36.31006911300613,
,,,,,7,0,7,0,23,0,23,0,,,,,,,,,,,,,,,,up,750,-10.0,1.2851978913844322e-05,-1,4,-1,-5.0,839.0944196667444,None,838.0311172000365,838.3586736000143,839.0449765000958,839.3844134000828,840.043549300055,840.3782209000783,up,1,3.4225099999457598,838.0896854000166,None,840.5840117000043,None,,,,,,,udoety,001,0,fr,2022-05-03_11h47.16.565,3-AFC_adaptive_staircase_mess,2022.1.1,36.31006911300613,
,,,,,7,0,7,0,24,0,24,0,,,,,,,,,,,,,,,,right,750,-15.0,7.22719885372964e-06,-1,4,-1,-5.0,845.0468705667338,845.2715754000237,843.0052349000471,843.3326615000842,844.0152415001066,844.3307360000908,844.9989128001034,845.32828840008,right,1,4.704806099995039,843.0641488000983,None,845.5401204000227,None,,,,,,,udoety,001,0,fr,2022-05-03_11h47.16.565,3-AFC_adaptive_staircase_mess,2022.1.1,36.31006911300613,
,,,,,7,0,7,0,25,0,25,0,,,,,,,,,,,,,,,,left,750,-15.0,7.22719885372964e-06,-1,4,-1,-5.0,849.3077851667224,None,849.2911185000557,849.6358528001001,850.2912890000734,850.6152494000271,851.2922642000485,851.6161548000528,up,0,2.9608354000374675,849.3202993000159,None,851.8498621000908,None,,,,,,,udoety,001,0,fr,2022-05-03_11h47.16.565,3-AFC_adaptive_staircase_mess,2022.1.1,36.31006911300613,
,,,,,7,0,7,0,26,0,26,0,,,,,,,,,,,,,,,,left,750,-12.5,9.637624565954684e-06,1,5,1,2.5,853.8479753666945,None,853.8313087000279,854.1715060001006,854.8186516000424,855.1464198000031,855.8195287000854,856.1461580001051,left,1,2.7391415999736637,853.8618951000972,None,856.3561334999977,None,,,,,,,udoety,001,0,fr,2022-05-03_11h47.16.565,3-AFC_adaptive_staircase_mess,2022.1.1,36.31006911300613,
,,,,,7,0,7,0,27,0,27,0,,,,,,,,,,,,,,,,right,750,-12.5,9.637624565954684e-06,1,5,1,2.5,860.1350776666698,None,858.0980203000363,858.4293717000401,859.0770754000405,859.4080261000199,860.0881918000523,860.424854000099,up,0,3.018544499995187,858.1259182000067,None,860.6348821000429,None,,,,,,,udoety,001,0,fr,2022-05-03_11h47.16.565,3-AFC_adaptive_staircase_mess,2022.1.1,36.31006911300613,
,,,,,7,0,7,0,28,0,28,0,,,,,,,,,,,,,,,,left,750,-10.0,1.2851978913844322e-05,1,5,1,2.5,862.7091906667376,None,862.6606088000117,862.9966025000904,863.6521072000032,863.9879964001011,864.6406874000095,864.9791996000567,left,1,2.869125899975188,862.7233628000831,None,865.2182690000627,None,,,,,,,udoety,001,0,fr,2022-05-03_11h47.16.565,3-AFC_adaptive_staircase_mess,2022.1.1,36.31006911300613,
,,,,,7,0,7,0,29,0,29,0,,,,,,,,,,,,,,,,left,750,-10.0,1.2851978913844322e-05,1,5,1,2.5,867.1505569667245,None,867.1338903000578,867.4560237000696,868.1233843000373,868.4489204999991,869.1246862000553,869.4514999000821,left,1,2.9078937000595033,867.1654439000413,None,869.6887264000252,None,,,,,,,udoety,001,0,fr,2022-05-03_11h47.16.565,3-AFC_adaptive_staircase_mess,2022.1.1,36.31006911300613,
,,,,,7,0,7,0,30,0,30,0,,,,,,,,,,,,,,,,right,750,-15.0,7.22719885372964e-06,-1,6,-1,-5.0,873.6285428667363,None,871.583272100077,871.9152167000575,872.5996422000462,872.9326153000584,873.5823934000218,873.924291400006,up,0,3.024612299981527,871.6413961000508,None,874.1317695000907,None,,,,,,,udoety,001,0,fr,2022-05-03_11h47.16.565,3-AFC_adaptive_staircase_mess,2022.1.1,36.31006911300613,
,,,,,8,0,8,0,0,0,0,0,,,,,,,,,,,,,[],[],10,right,500,30,0.002259279721874612,0,0,-1,10,879.2968631666774,None,877.2326336000115,877.568242700072,878.2474658000283,878.5772700000089,879.2473851001123,879.5615917000687,right,1,2.406919899978675,877.2976907000411,None,None,None,down,0.9981355000054464,875.7631004001014,None,875.7631004001014,None,udoety,001,0,fr,2022-05-03_11h47.16.565,3-AFC_adaptive_staircase_mess,2022.1.1,36.31006911300613,
,,,,,8,0,8,0,1,0,1,0,,,,,,,,,,,,,,,,left,500,30,0.002259279721874612,0,0,-1,10,881.2978955667388,None,881.2508636000566,881.5872138000559,None,None,None,None,left,1,0.6745220000157133,881.3021499000024,None,None,None,,,,,,,udoety,001,0,fr,2022-05-03_11h47.16.565,3-AFC_adaptive_staircase_mess,2022.1.1,36.31006911300613,
,,,,,8,0,8,0,2,0,2,0,,,,,,,,,,,,,,,,up,500,10,0.0002259279721874612,-1,0,-1,-10,884.5435409667591,None,883.4996034000069,883.8243340000045,884.4999702000059,884.8063534001121,None,None,up,1,1.649207399925217,883.5598107000114,None,None,None,,,,,,,udoety,001,0,fr,2022-05-03_11h47.16.565,3-AFC_adaptive_staircase_mess,2022.1.1,36.31006911300613,
,,,,,8,0,8,0,3,0,3,0,,,,,,,,,,,,,,,,up,500,10,0.0002259279721874612,-1,0,-1,-10,887.7791771667,None,886.7386328000575,887.0603316000197,887.732532300055,888.0633730000118,None,None,up,1,1.4536194999236614,886.7949178999988,None,None,None,,,,,,,udoety,001,0,fr,2022-05-03_11h47.16.565,3-AFC_adaptive_staircase_mess,2022.1.1,36.31006911300613,
,,,,,8,0,8,0,4,0,4,0,,,,,,,,,,,,,,,,left,500,0,7.144469792555515e-05,-1,0,-1,-10,889.8256038667789,None,889.7798796000425,890.1161533000413,None,None,None,None,left,1,0.5832209000363946,889.8413166000973,None,None,None,,,,,,,udoety,001,0,fr,2022-05-03_11h47.16.565,3-AFC_adaptive_staircase_mess,2022.1.1,36.31006911300613,
,,,,,8,0,8,0,5,0,5,0,,,,,,,,,,,,,,,,right,500,0,7.144469792555515e-05,-1,0,-1,-10,893.9806290667659,None,891.9469830000307,892.2829737000866,892.9382499000058,893.2653631001012,893.9639624000993,894.3016819000477,right,1,2.376525599975139,892.0160454000579,None,None,None,,,,,,,udoety,001,0,fr,2022-05-03_11h47.16.565,3-AFC_adaptive_staircase_mess,2022.1.1,36.31006911300613,
,,,,,8,0,8,0,6,0,6,0,,,,,,,,,,,,,,,,up,500,-10,2.259279721874613e-05,-1,0,-1,-10,896.9566824667311,None,895.9435126000317,896.2660059001064,896.9400158000644,897.2722563000862,897.9230075000087,898.2470355000114,right,0,3.2857227000640705,895.9713670000201,None,898.4850709000602,None,,,,,,,udoety,001,0,fr,2022-05-03_11h47.16.565,3-AFC_adaptive_staircase_mess,2022.1.1,36.31006911300613,
,,,,,8,0,8,0,7,0,7,0,,,,,,,,,,,,,,,,left,500,-5,4.017630610928089e-05,1,1,1,5,900.7854928667114,None,900.7688262000447,901.101914400002,901.7706722000148,902.1023885000031,902.7520781001076,903.0741062000161,left,1,2.839760300004855,900.8013818000909,None,903.3098996001063,None,,,,,,,udoety,001,0,fr,2022-05-03_11h47.16.565,3-AFC_adaptive_staircase_mess,2022.1.1,36.31006911300613,
,,,,,8,0,8,0,8,0,8,0,,,,,,,,,,,,,,,,right,500,-5,4.017630610928089e-05,1,1,1,5,907.1992740666649,None,905.1941928000888,905.5177070000209,906.1645593000576,906.488668300095,907.1826073999982,907.5118811000139,right,1,2.5587868998991325,905.2250297000865,None,907.717856500065,None,,,,,,,udoety,001,0,fr,2022-05-03_11h47.16.565,3-AFC_adaptive_staircase_mess,2022.1.1,36.31006911300613,
,,,,,8,0,8,0,9,0,9,0,,,,,,,,,,,,,,,,left,500,-15,1.2704863527746532e-05,-1,2,-1,-5.0,909.3457520667619,None,909.3092356000561,909.6320439000847,910.3172730000224,910.6487341000466,911.3177523000631,911.6514267000603,right,0,5.708713699947111,909.3722925001057,None,911.8903246000409,None,,,,,,,udoety,001,0,fr,2022-05-03_11h47.16.565,3-AFC_adaptive_staircase_mess,2022.1.1,36.31006911300613,
,,,,,8,0,8,0,10,0,10,0,,,,,,,,,,,,,,,,left,500,-12.5,1.6942207806960138e-05,1,3,1,2.5,916.6309006667618,916.8619500000495,916.5839226000244,916.9253480000189,917.571562300087,917.9012035001069,918.5896560000256,918.9082691000076,left,1,3.2067518000258133,916.6421276000328,None,919.1457676000427,None,,,,,,,udoety,001,0,fr,2022-05-03_11h47.16.565,3-AFC_adaptive_staircase_mess,2022.1.1,36.31006911300613,
,,,,,8,0,8,0,11,0,11,0,,,,,,,,,,,,,,,,up,500,-12.5,1.6942207806960138e-05,1,3,1,2.5,922.3937792666877,None,921.3650978000369,921.6937787000788,922.3771126000211,922.6931638000533,923.3748855000595,923.6948031000793,up,1,2.682742499979213,921.4223748000804,None,923.930344200111,None,,,,,,,udoety,001,0,fr,2022-05-03_11h47.16.565,3-AFC_adaptive_staircase_mess,2022.1.1,36.31006911300613,
,,,,,8,0,8,0,12,0,12,0,,,,,,,,,,,,,,,,right,500,-17.5,9.52730358981624e-06,-1,4,-1,-5.0,927.7014929666805,None,925.6520174000179,925.9776863000588,926.6652506000828,926.9875863000052,927.6560440000612,927.999334000051,left,0,2.6510015999665484,925.7102273000637,None,928.1944357000757,None,,,,,,,udoety,001,0,fr,2022-05-03_11h47.16.565,3-AFC_adaptive_staircase_mess,2022.1.1,36.31006911300613,
,,,,,8,0,8,0,13,0,13,0,,,,,,,,,,,,,,,,left,500,-15.0,1.2704863527746532e-05,1,5,1,2.5,929.9240169667794,None,929.8777776000788,930.2038166000275,930.8870587000856,931.2301975000883,931.8703154000686,932.1976979000028,up,0,2.952125799958594,929.9359891000204,None,932.4341881000437,None,,,,,,,udoety,001,0,fr,2022-05-03_11h47.16.565,3-AFC_adaptive_staircase_mess,2022.1.1,36.31006911300613,
,,,,,8,0,8,0,14,0,14,0,,,,,,,,,,,,,,,,left,500,-12.5,1.6942207806960138e-05,1,5,1,2.5,934.4623488666878,None,934.4154302000534,934.7461269000778,935.4186519000214,935.7402621000074,936.4046816000482,936.739507600083,right,0,2.4145489999791607,934.4748203000054,None,None,None,,,,,,,udoety,001,0,fr,2022-05-03_11h47.16.565,3-AFC_adaptive_staircase_mess,2022.1.1,36.31006911300613,
,,,,,8,0,8,0,15,0,15,0,,,,,,,,,,,,,,,,right,500,-10.0,2.259279721874613e-05,1,5,1,2.5,940.4482288667389,None,938.432644900051,938.7577055000002,939.4291822001105,939.7577508001123,940.4315622000722,940.7583838000428,left,0,3.9151103999465704,938.4613796001067,None,940.9677702001063,None,,,,,,,udoety,001,0,fr,2022-05-03_11h47.16.565,3-AFC_adaptive_staircase_mess,2022.1.1,36.31006911300613,
,,,,,8,0,8,0,16,0,16,0,,,,,,,,,,,,,,,,up,500,-7.5,3.0127979303717903e-05,1,5,1,2.5,944.9188912667489,None,943.8907226000447,944.2141676000319,944.8741810000502,945.2019633000018,945.8780731000006,946.204181100009,up,1,2.903540899977088,943.9204661000986,None,946.4425068000564,None,,,,,,,udoety,001,0,fr,2022-05-03_11h47.16.565,3-AFC_adaptive_staircase_mess,2022.1.1,36.31006911300613,
,,,,,8,0,8,0,17,0,17,0,,,,,,,,,,,,,,,,right,500,-7.5,3.0127979303717903e-05,1,5,1,2.5,950.3844869667121,None,948.3584614000283,948.6870549001032,949.3640979001066,949.6893061000155,950.3382266000845,950.6543249000097,left,0,2.3978217999683693,948.3952525000786,None,None,None,,,,,,,udoety,001,0,fr,2022-05-03_11h47.16.565,3-AFC_adaptive_staircase_mess,2022.1.1,36.31006911300613,
,,,,,8,0,8,0,18,0,18,0,,,,,,,,,,,,,,,,up,500,-5.0,4.017630610928089e-05,1,5,1,2.5,953.3471454667781,None,952.3075931000058,952.6292699000333,953.3304788001115,953.6570954000344,954.3124058000976,954.6395239999983,left,0,2.8413598000770435,952.3676074000541,None,954.8781044000061,None,,,,,,,udoety,001,0,fr,2022-05-03_11h47.16.565,3-AFC_adaptive_staircase_mess,2022.1.1,36.31006911300613,
,,,,,8,0,8,0,19,0,19,0,,,,,,,,,,,,,,,,left,500,-2.5,5.357596526188033e-05,1,5,1,2.5,956.7588032667447,None,956.7126713000471,957.0469583000522,957.7175016000401,None,None,None,left,1,0.947706300066784,956.7723565000342,None,None,None,,,,,,,udoety,001,0,fr,2022-05-03_11h47.16.565,3-AFC_adaptive_staircase_mess,2022.1.1,36.31006911300613,
,,,,,8,0,8,0,20,0,20,0,,,,,,,,,,,,,,,,up,500,-2.5,5.357596526188033e-05,1,5,1,2.5,960.2798014666807,None,959.263476000051,959.5935157000786,960.2631348000141,960.5971419000998,None,None,up,1,1.6728268000297248,959.2957084000809,None,None,None,,,,,,,udoety,001,0,fr,2022-05-03_11h47.16.565,3-AFC_adaptive_staircase_mess,2022.1.1,36.31006911300613,
,,,,,8,0,8,0,21,0,21,0,,,,,,,,,,,,,,,,up,500,-7.5,3.0127979303717903e-05,-1,6,-1,-5.0,963.5468262667457,None,962.4969529000809,962.823926800047,963.4995766000357,963.8397150000092,964.4959649000084,964.822622000007,up,1,3.115921000018716,962.5570711001055,None,965.0332983999979,None,,,,,,,udoety,001,0,fr,2022-05-03_11h47.16.565,3-AFC_adaptive_staircase_mess,2022.1.1,36.31006911300613,
,,,,,9,0,9,0,0,0,0,0,,,,,,,,,,,,,[],[],10,right,250,30,0.005296268625886445,0,0,-1,10,971.2031807667265,None,969.1762234000489,969.5077023000922,970.1564759000903,970.4840935000684,971.1565766000422,971.4852012000047,right,1,2.5594068999635056,969.209130100091,None,971.7214579000138,None,m,1.9616392999887466,966.7354941000231,None,966.7354941000231,None,udoety,001,0,fr,2022-05-03_11h47.16.565,3-AFC_adaptive_staircase_mess,2022.1.1,36.31006911300613,
,,,,,9,0,9,0,1,0,1,0,,,,,,,,,,,,,,,,right,250,30,0.005296268625886445,0,0,-1,10,975.3125768667708,None,973.2781794000184,973.6112429000204,974.2842142001027,974.6117363000521,975.2660605000565,975.5999835000839,right,1,3.257637400063686,973.3423187000444,None,975.8460962000536,None,,,,,,,udoety,001,0,fr,2022-05-03_11h47.16.565,3-AFC_adaptive_staircase_mess,2022.1.1,36.31006911300613,
,,,,,9,0,9,0,2,0,2,0,,,,,,,,,,,,,,,,up,250,10,0.0005296268625886444,-1,0,-1,-10,979.1439254667532,None,978.1088030000683,978.4500461000716,979.0992066001054,979.4274070000974,None,None,up,1,1.6183486999943852,978.1660092000384,None,None,None,,,,,,,udoety,001,0,fr,2022-05-03_11h47.16.565,3-AFC_adaptive_staircase_mess,2022.1.1,36.31006911300613,
,,,,,9,0,9,0,3,0,3,0,,,,,,,,,,,,,,,,right,250,10,0.0005296268625886444,-1,0,-1,-10,983.3428289667393,None,981.3070022000466,981.6284343000734,982.2994000000181,982.6205481000943,983.2968065000605,983.6266272000503,right,1,2.706191399949603,981.3349569001002,None,983.8652874000836,None,,,,,,,udoety,001,0,fr,2022-05-03_11h47.16.565,3-AFC_adaptive_staircase_mess,2022.1.1,36.31006911300613,
,,,,,9,0,9,0,4,0,4,0,,,,,,,,,,,,,,,,right,250,0,0.0001674827195789138,-1,0,-1,-10,987.5911237666771,None,985.5630482000997,985.8889168000314,986.5735435000388,986.9006470000604,987.5744571000105,987.9095839000074,right,1,2.5757542999926955,985.6244168000994,None,988.1161658000201,None,,,,,,,udoety,001,0,fr,2022-05-03_11h47.16.565,3-AFC_adaptive_staircase_mess,2022.1.1,36.31006911300613,
,,,,,9,0,9,0,5,0,5,0,,,,,,,,,,,,,,,,left,250,0,0.0001674827195789138,-1,0,-1,-10,989.7309690666773,None,989.6831044000573,990.0186958000995,990.692949200049,991.0365718000103,991.688273500069,992.0268348000245,left,1,2.8104166999692097,989.7425201000879,None,992.2627197999973,None,,,,,,,udoety,001,0,fr,2022-05-03_11h47.16.565,3-AFC_adaptive_staircase_mess,2022.1.1,36.31006911300613,
,,,,,9,0,9,0,6,0,6,0,,,,,,,,,,,,,,,,up,250,-10,5.296268625886443e-05,-1,0,-1,-10,995.1127306667079,None,994.052711400087,994.3871833001031,995.0660428000847,995.4110367000103,996.0550646000775,996.3803393000271,right,0,4.218056000070646,994.1102697000606,None,996.6225671001012,None,,,,,,,udoety,001,0,fr,2022-05-03_11h47.16.565,3-AFC_adaptive_staircase_mess,2022.1.1,36.31006911300613,
,,,,,9,0,9,0,7,0,7,0,,,,,,,,,,,,,,,,right,250,-5,9.418245447449e-05,1,1,1,5,1001.8617474666719,None,999.8323291999986,1000.1553662000224,1000.8299750000006,1001.1719994000159,1001.8450808000052,1002.1782545000315,right,1,3.1886258999584243,999.8925103000365,None,1002.3954320000485,None,,,,,,,udoety,001,0,fr,2022-05-03_11h47.16.565,3-AFC_adaptive_staircase_mess,2022.1.1,36.31006911300613,
,,,,,9,0,9,0,8,0,8,0,,,,,,,,,,,,,,,,left,250,-5,9.418245447449e-05,1,1,1,5,1004.6310913667005,None,1004.586250100052,1004.9203603001079,1005.5782174000051,1005.9057919000043,1006.5766753000207,1006.911696300027,up,0,2.645321700023487,1004.6431814000243,None,1007.1482491000788,None,,,,,,,udoety,001,0,fr,2022-05-03_11h47.16.565,3-AFC_adaptive_staircase_mess,2022.1.1,36.31006911300613,
,,,,,9,0,9,0,9,0,9,0,,,,,,,,,,,,,,,,right,250,0,0.0001674827195789138,1,1,1,5,1010.8188862667341,None,1008.8031950000441,1009.12247390009,1009.8156250000466,1010.1501652000006,1010.8022196000675,1011.1333970000269,left,0,2.4364923000102863,1008.8360708000837,None,None,None,,,,,,,udoety,001,0,fr,2022-05-03_11h47.16.565,3-AFC_adaptive_staircase_mess,2022.1.1,36.31006911300613,
,,,,,9,0,9,0,10,0,10,0,,,,,,,,,,,,,,,,left,250,5,0.0002978310717645052,1,1,1,5,1012.8080728667012,None,1012.7914062000345,1013.1200458001113,None,None,None,None,left,1,0.6580463999416679,1012.8227133000037,None,None,None,,,,,,,udoety,001,0,fr,2022-05-03_11h47.16.565,3-AFC_adaptive_staircase_mess,2022.1.1,36.31006911300613,
,,,,,9,0,9,0,11,0,11,0,,,,,,,,,,,,,,,,right,250,5,0.0002978310717645052,1,1,1,5,1017.0428848667691,None,1015.0063298000023,1015.3553311000578,1016.0135333000217,1016.34741450008,1017.0262182001024,1017.3665281001013,right,1,2.4326046999776736,1015.0643786001019,None,1017.5424673667333,None,,,,,,,udoety,001,0,fr,2022-05-03_11h47.16.565,3-AFC_adaptive_staircase_mess,2022.1.1,36.31006911300613,
,,,,,9,0,9,0,12,0,12,0,,,,,,,,,,,,,,,,left,250,-5,9.418245447449e-05,-1,2,-1,-5.0,1019.0808319667742,None,1019.0286599000683,1019.3602556000696,1020.0326139000244,1020.3702067000559,1021.0339907000307,1021.3682279000059,right,0,2.6520822999300435,1019.1006875000894,None,1021.6028818000341,None,,,,,,,udoety,001,0,fr,2022-05-03_11h47.16.565,3-AFC_adaptive_staircase_mess,2022.1.1,36.31006911300613,
,,,,,9,0,9,0,13,0,13,0,,,,,,,,,,,,,,,,right,250,-2.5,0.00012559432157547898,1,3,1,2.5,1025.321806766737,None,1023.2680748000275,1023.6036491000559,1024.2706696001114,1024.6016477000667,1025.2697453000583,1025.602168600075,right,1,2.879615700105205,1023.3370156000601,None,1025.8407798000844,None,,,,,,,udoety,001,0,fr,2022-05-03_11h47.16.565,3-AFC_adaptive_staircase_mess,2022.1.1,36.31006911300613,
,,,,,9,0,9,0,14,0,14,0,,,,,,,,,,,,,,,,up,250,-2.5,0.00012559432157547898,1,3,1,2.5,1028.792401066694,None,1027.7383567000506,1028.0726501001045,1028.7417139000027,1029.0788192000473,1029.742599700112,1030.0738393000793,left,0,2.9536453000037,1027.8062197000254,None,1030.3096375000896,None,,,,,,,udoety,001,0,fr,2022-05-03_11h47.16.565,3-AFC_adaptive_staircase_mess,2022.1.1,36.31006911300613,
,,,,,9,0,9,0,15,0,15,0,,,,,,,,,,,,,,,,right,250,0.0,0.0001674827195789138,1,3,1,2.5,1034.3323960666933,1034.554374200059,1032.2805685000494,1032.610297700041,1033.277070900076,1033.612580700079,1034.2818769000005,1034.618483300088,right,1,2.9274614999303594,1032.3447913000127,None,1034.850118600065,None,,,,,,,udoety,001,0,fr,2022-05-03_11h47.16.565,3-AFC_adaptive_staircase_mess,2022.1.1,36.31006911300613,
,,,,,9,0,9,0,16,0,16,0,,,,,,,,,,,,,,,,left,250,0.0,0.0001674827195789138,1,3,1,2.5,1036.8351899667798,None,1036.7843403000152,1037.1213101000758,None,None,None,None,left,1,0.7600059999385849,1036.8479869000148,None,None,None,,,,,,,udoety,001,0,fr,2022-05-03_11h47.16.565,3-AFC_adaptive_staircase_mess,2022.1.1,36.31006911300613,
,,,,,9,0,9,0,17,0,17,0,,,,,,,,,,,,,,,,up,250,-5.0,9.418245447449e-05,-1,4,-1,-5.0,1040.170246066704,None,1039.117636900046,1039.4520389001118,1040.1194047000026,1040.4535268000327,1041.1192133000586,1041.4487815001048,right,0,2.9659256999148056,1039.1867906000698,None,1041.688053800026,None,,,,,,,udoety,001,0,fr,2022-05-03_11h47.16.565,3-AFC_adaptive_staircase_mess,2022.1.1,36.31006911300613,
,,,,,9,0,9,0,18,0,18,0,,,,,,,,,,,,,,,,up,250,-2.5,0.00012559432157547898,1,5,1,2.5,1044.7088786666902,None,1043.655275600031,1043.9933198000072,1044.6563814000692,1044.9943382000783,1045.6570867000846,1045.9910710001132,left,0,3.293393199914135,1043.7232362000505,None,1046.225552200107,None,,,,,,,udoety,001,0,fr,2022-05-03_11h47.16.565,3-AFC_adaptive_staircase_mess,2022.1.1,36.31006911300613,
,,,,,9,0,9,0,19,0,19,0,,,,,,,,,,,,,,,,right,250,0.0,0.0001674827195789138,1,5,1,2.5,1050.5810071667113,None,1048.5306754000485,1048.8598936001072,1049.5288571000565,1049.8656895000022,1050.5296690000687,1050.8688533001114,right,1,2.646363400039263,1048.5952992000384,None,1051.1006107000867,None,,,,,,,udoety,001,0,fr,2022-05-03_11h47.16.565,3-AFC_adaptive_staircase_mess,2022.1.1,36.31006911300613,
,,,,,9,0,9,0,20,0,20,0,,,,,,,,,,,,,,,,right,250,0.0,0.0001674827195789138,1,5,1,2.5,1054.789787866703,None,1052.7654240000993,1053.0982077000663,1053.768439700012,1054.1037084000418,1054.7731212000363,1055.1038548001088,right,1,2.42355960002169,1052.8331926000537,None,None,None,,,,,,,udoety,001,0,fr,2022-05-03_11h47.16.565,3-AFC_adaptive_staircase_mess,2022.1.1,36.31006911300613,
,,,,,9,0,9,0,21,0,21,0,,,,,,,,,,,,,,,,left,250,-5.0,9.418245447449e-05,-1,6,-1,-5.0,1056.8230616667463,1057.0408919000765,1056.7720189000247,1057.102438800037,1057.7718319999985,1058.107442400069,1058.7798122001113,1059.0980918999994,left,1,3.2189111000625417,1056.837147400016,None,1059.312305700034,None,,,,,,,udoety,001,0,fr,2022-05-03_11h47.16.565,3-AFC_adaptive_staircase_mess,2022.1.1,36.31006911300613,
,,,,,10,0,10,0,0,0,0,0,,,,,,,,,,,,,[],[],10,left,125,30,0.02285440948074376,0,0,-1,10,1063.3872661666867,None,1063.3380591000896,1063.664692500024,None,None,None,None,left,1,0.5736718999687582,1063.4040623001056,None,None,None,return,1.703428899985738,1061.1373896000441,None,1061.1373896000441,None,udoety,001,0,fr,2022-05-03_11h47.16.565,3-AFC_adaptive_staircase_mess,2022.1.1,36.31006911300613,
,,,,,10,0,10,0,1,0,1,0,,,,,,,,,,,,,,,,left,125,30,0.02285440948074376,0,0,-1,10,1065.5535979667368,None,1065.5046132000862,1065.8415852000471,None,None,None,None,left,1,0.42163360002450645,1065.5711114000296,None,None,None,,,,,,,udoety,001,0,fr,2022-05-03_11h47.16.565,3-AFC_adaptive_staircase_mess,2022.1.1,36.31006911300613,
,,,,,10,0,10,0,2,0,2,0,,,,,,,,,,,,,,,,up,125,10,0.002285440948074376,-1,0,-1,-10,1068.5447884667121,None,1067.5023566000164,1067.8414944000542,1068.4983570000622,1068.8456158000045,None,None,up,1,1.5205603999784216,1067.5601511000423,None,None,None,,,,,,,udoety,001,0,fr,2022-05-03_11h47.16.565,3-AFC_adaptive_staircase_mess,2022.1.1,36.31006911300613,
,,,,,10,0,10,0,3,0,3,0,,,,,,,,,,,,,,,,up,125,10,0.002285440948074376,-1,0,-1,-10,1071.6435745667588,None,1070.6088211000897,1070.9447465999983,1071.5974190999987,1071.9119075000053,None,None,up,1,1.3827808999922127,1070.6733525000745,None,None,None,,,,,,,udoety,001,0,fr,2022-05-03_11h47.16.565,3-AFC_adaptive_staircase_mess,2022.1.1,36.31006911300613,
,,,,,10,0,10,0,4,0,4,0,,,,,,,,,,,,,,,,left,125,0,0.000722719885372964,-1,0,-1,-10,1073.6156256667493,None,1073.5700583000435,1073.9131380000617,1074.587506400072,1074.9175636,1075.5811768000713,1075.9167044000933,left,1,3.0838796000462025,1073.6287999000633,None,1076.139919700101,None,,,,,,,udoety,001,0,fr,2022-05-03_11h47.16.565,3-AFC_adaptive_staircase_mess,2022.1.1,36.31006911300613,
,,,,,10,0,10,0,5,0,5,0,,,,,,,,,,,,,,,,left,125,0,0.000722719885372964,-1,0,-1,-10,1078.2667140666783,None,1078.2173444000073,1078.5582469000947,1079.22202440002,1079.5483117001131,1080.2114227000857,1080.553411000059,left,1,2.8941214999649674,1078.2828523000935,None,1080.7699364,None,,,,,,,udoety,001,0,fr,2022-05-03_11h47.16.565,3-AFC_adaptive_staircase_mess,2022.1.1,36.31006911300613,
,,,,,10,0,10,0,6,0,6,0,,,,,,,,,,,,,,,,right,125,-10,0.0002285440948074376,-1,0,-1,-10,1084.7461175667743,1084.9717380000511,1082.6938058000524,1083.0216327001108,1083.6934615001082,1084.0185292001115,1084.6948315000627,1085.0336762000807,up,0,2.865387700032443,1082.7585816000355,None,1085.2513432000997,None,,,,,,,udoety,001,0,fr,2022-05-03_11h47.16.565,3-AFC_adaptive_staircase_mess,2022.1.1,36.31006911300613,
,,,,,10,0,10,0,7,0,7,0,,,,,,,,,,,,,,,,up,125,-5,0.00040641525808204974,1,1,1,5,1088.165860066718,None,1087.125299800071,1087.4646627000766,1088.118997600046,1088.4644762000535,1089.119727000012,1089.470919100102,up,1,2.648004199960269,1087.1844540000893,None,1089.6777940000175,None,,,,,,,udoety,001,0,fr,2022-05-03_11h47.16.565,3-AFC_adaptive_staircase_mess,2022.1.1,36.31006911300613,
,,,,,10,0,10,0,8,0,8,0,,,,,,,,,,,,,,,,left,125,-5,0.00040641525808204974,1,1,1,5,1091.3719686667357,None,1091.3269669000292,1091.6690330000129,1092.318746700068,1092.6351622000802,1093.3161048000911,1093.6318056000164,left,1,2.28699960000813,1091.384998900001,None,None,None,,,,,,,udoety,001,0,fr,2022-05-03_11h47.16.565,3-AFC_adaptive_staircase_mess,2022.1.1,36.31006911300613,
,,,,,10,0,10,0,9,0,9,0,,,,,,,,,,,,,,,,up,125,-15,0.00012851978913844324,-1,2,-1,-5.0,1096.24227956677,None,1095.2071229000576,1095.5376316000475,1096.193219000008,1096.5408426000504,None,None,left,0,1.3931597999762744,1095.27188200003,None,None,None,,,,,,,udoety,001,0,fr,2022-05-03_11h47.16.565,3-AFC_adaptive_staircase_mess,2022.1.1,36.31006911300613,
,,,,,10,0,10,0,10,0,10,0,,,,,,,,,,,,,,,,left,125,-12.5,0.00017138389327322524,1,3,1,2.5,1098.2210560667484,None,1098.172209600103,1098.4919698000886,1099.1632504001027,1099.508827600046,1100.1783627000405,1100.5079252000432,up,0,3.0038157999515533,1098.236801900086,None,1100.7248040999984,None,,,,,,,udoety,001,0,fr,2022-05-03_11h47.16.565,3-AFC_adaptive_staircase_mess,2022.1.1,36.31006911300613,
,,,,,10,0,10,0,11,0,11,0,,,,,,,,,,,,,,,,up,125,-10.0,0.0002285440948074376,1,3,1,2.5,1103.797708966715,None,1102.745865700068,1103.06667510001,1103.7473011000548,1104.0855659000808,1104.7317210000474,1105.0783908000449,up,1,2.9262531999265775,1102.810636500013,None,1105.293412500061,None,,,,,,,udoety,001,0,fr,2022-05-03_11h47.16.565,3-AFC_adaptive_staircase_mess,2022.1.1,36.31006911300613,
,,,,,10,0,10,0,12,0,12,0,,,,,,,,,,,,,,,,left,125,-10.0,0.0002285440948074376,1,3,1,2.5,1107.2990523666997,None,1107.2500010000076,1107.57891390007,1108.2477783000795,1108.5789882000536,1109.2441167000216,1109.5835753000574,left,1,2.9169828000012785,1107.3156985000242,None,1109.797943700105,None,,,,,,,udoety,001,0,fr,2022-05-03_11h47.16.565,3-AFC_adaptive_staircase_mess,2022.1.1,36.31006911300613,
,,,,,10,0,10,0,13,0,13,0,,,,,,,,,,,,,,,,up,125,-15.0,0.00012851978913844324,-1,4,-1,-5.0,1112.8037595666867,None,1111.7610544000054,1112.0801401000936,1112.78709290002,1113.127876500017,1113.7745022000745,1114.1038888000185,left,0,2.3262299000052735,1111.827124100062,None,None,None,,,,,,,udoety,001,0,fr,2022-05-03_11h47.16.565,3-AFC_adaptive_staircase_mess,2022.1.1,36.31006911300613,
