tTrials.thisRepN,tTrials.thisTrialN,tTrials.thisN,tTrials.thisIndex,blocks.thisRepN,blocks.thisTrialN,blocks.thisN,blocks.thisIndex,trials.thisRepN,trials.thisTrialN,trials.thisN,trials.thisIndex,tStart_text.started,tStart_text.stopped,Prediction,practice_Frequency,practice_Level,practice_Psychopy_Level,practice_isCatchTrial,Practice_trial_detection,practice_Cue_Delays,practice_Cue_Frequencies,practice_Interval,practice_Cue_Intensities,tCue_visual_cue.started,tCue_visual_cue.stopped,tProbe_visual_cue.started,tProbe_visual_cue.stopped,tFeedback.keys,tFeedback.corr,tFeedback.rt,tFeedback.started,tFeedback.stopped,tToo_late.keys,tToo_late.corr,tToo_early.keys,tToo_early.corr,more_instructions.started,more_instructions.stopped,readyy.keys,readyy.rt,readyy.started,readyy.stopped,txt_rhythm.started,txt_rhythm.stopped,sound_1.started,sound_1.stopped,sound_2.started,sound_2.stopped,sound_3.started,sound_3.stopped,sound_4.started,sound_4.stopped,cross.started,cross.stopped,sound_5.started,sound_5.stopped,circle.started,circle.stopped,rhythm_ready.keys,rhythm_ready.rt,rhythm_ready.started,rhythm_ready.stopped,rhytm_ready_txt.started,rhytm_ready_txt.stopped,txt_freq.started,txt_freq.stopped,sound_6.started,sound_6.stopped,sound_7.started,sound_7.stopped,sound_8.started,sound_8.stopped,sound_9.started,sound_9.stopped,cross_2.started,cross_2.stopped,sound_10.started,sound_10.stopped,circle_2.started,circle_2.stopped,freq_ready.keys,freq_ready.rt,freq_ready.started,freq_ready.stopped,freq_ready_txt.started,freq_ready_txt.stopped,txt_freq_2.started,txt_freq_2.stopped,sound_11.started,sound_11.stopped,sound_12.started,sound_12.stopped,sound_13.started,sound_13.stopped,sound_14.started,sound_14.stopped,cross_3.started,cross_3.stopped,sound_15.started,sound_15.stopped,circle_3.started,circle_3.stopped,freq_ready_2.keys,freq_ready_2.rt,freq_ready_2.started,freq_ready_2.stopped,freq_ready_txt_2.started,freq_ready_txt_2.stopped,txt_freq_3.started,txt_freq_3.stopped,sound_16.started,sound_16.stopped,sound_17.started,sound_17.stopped,sound_18.started,sound_18.stopped,sound_19.started,sound_19.stopped,cross_4.started,cross_4.stopped,sound_20.started,sound_20.stopped,circle_4.started,circle_4.stopped,freq_ready_txt_3.started,freq_ready_txt_3.stopped,tStart_text_2.started,tStart_text_2.stopped,this_trial_is.started,this_trial_is.stopped,Frequency,Level,Psychopy_Level,Real trial detection,Cue Delays,Cue Frequencies,Interval,Cue Intensities,Catch trial,cue_visual_cue.started,cue_visual_cue.stopped,probe_visual_cue.started,probe_visual_cue.stopped,feedback.keys,feedback.corr,feedback.started,feedback.stopped,answer_too_late.keys,answer_too_late.corr,answer_too_early.keys,answer_too_early.corr,answer_too_early.rt,feedback.rt,Catch trial answer,Audiogram_time,Audiogram_none,Audiogram_both,Audiogram_frequency,participant,session,Language (english or french),Skip training? (1 for yes),Resume previous experiment,date,expName,psychopyVersion,frameRate,
0,0,0,0,,,,,,,,,41.12792320002336,None,frequency,1000,30,0.0013930605843148849,False,1,"[0.7776701489202433, 0.5608792376358445, 0.4885410560354432, 0.5439641276169376]","[5039.684199579493, 3363.5856610148585, 2244.9240966187463, 1498.3070768766815]",Perfect_5th,"[30, 30, 30, 30]",72.70778319996316,75.44811430003028,75.44811430003028,76.67272290005349,['space'],1,[0.5732078000437468],75.44811430003028,77.20265580003615,None,1,None,1,,,,,,,,,,,,,,,,,,,,,,,,,,,,,,,,,,,,,,,,,,,,,,,,,,,,,,,,,,,,,,,,,,,,,,,,,,,,,,,,,,,,,,,,,,,,,,,,,,,,,,,,,,,,,,,,,,,,,,,,,,,bihhjl,001,fr,0,0,2022-06-23_11h09.35.468,Cluster,2022.1.1,36.42254817810165,
1,0,1,0,,,,,,,,,,,time,2500,30,0.002716251657462167,False,1,"[0.5989061129929018, 0.5989061129929018, 0.5989061129929018, 0.5989061129929018]","[161.7599000029118, 2279.9170578191656, 7017.943753526884, 1362.001196065177]",None,"[30, 30, 30, 30]",86.9049035999924,89.6340738000581,89.6340738000581,90.85896990005858,None,0,,89.6340738000581,91.44312049995642,None,1,None,1,,,,,,,,,,,,,,,,,,,,,,,,,,,,,,,,,,,,,,,,,,,,,,,,,,,,,,,,,,,,,,,,,,,,,,,,,,,,,,,,,,,,,,,,,,,,,,,,,,,,,,,,,,,,,,,,,,,,,,,,,,,bihhjl,001,fr,0,0,2022-06-23_11h09.35.468,Cluster,2022.1.1,36.42254817810165,
2,0,2,0,,,,,,,,,,,none,6000,30,0.003664122665694519,True,0,"[0.5818994920630681, 0.506032009309688, 0.7256641685448768, 0.6026015493967245]","[178.69224004702576, 5570.972153010443, 348.6257137584915, 564.9332385348089]",None,"[30, 30, 30, 30]",100.20628329995088,102.96304860000964,102.96304860000964,104.17785940004978,None,1,,102.96304860000964,104.79648879996967,None,1,None,1,,,,,,,,,,,,,,,,,,,,,,,,,,,,,,,,,,,,,,,,,,,,,,,,,,,,,,,,,,,,,,,,,,,,,,,,,,,,,,,,,,,,,,,,,,,,,,,,,,,,,,,,,,,,,,,,,,,,,,,,,,,bihhjl,001,fr,0,0,2022-06-23_11h09.35.468,Cluster,2022.1.1,36.42254817810165,
3,0,3,0,,,,,,,,,,,frequency,440,30,0.0023562289915021436,False,1,"[0.4919103822849254, 0.7425199036575715, 0.49004427402123885, 0.43089268161521177]","[277.182630976872, 311.12698372208087, 349.2282314330038, 391.99543598174927]",Tone,"[30, 30, 30, 30]",113.971937000053,116.61974969995208,116.61974969995208,117.85546600003727,['space'],1,[0.9458375000394881],116.61974969995208,118.26579089998268,None,1,None,1,,,,,,,,,,,,,,,,,,,,,,,,,,,,,,,,,,,,,,,,,,,,,,,,,,,,,,,,,,,,,,,,,,,,,,,,,,,,,,,,,,,,,,,,,,,,,,,,,,,,,,,,,,,,,,,,,,,,,,,,,,,bihhjl,001,fr,0,0,2022-06-23_11h09.35.468,Cluster,2022.1.1,36.42254817810165,
4,0,4,0,,,,,,,,,,,both,250,30,0.005296268625886445,True,1,"[0.6488763231488102, 0.6488763231488102, 0.6488763231488102, 0.6488763231488102]","[157.49013123685913, 176.77669529663686, 198.42513149602493, 222.72467953508482]",Tone,"[30, 30, 30, 30]",126.97414199996274,129.84608649997972,129.84608649997972,131.0646156000439,None,1,,129.84608649997972,131.70228890003636,None,1,None,1,,,,,,,,,,,,,,,,,,,,,,,,,,,,,,,,,,,,,,,,,,,,,,,,,,,,,,,,,,,,,,,,,,,,,,,,,,,,,,,,,,,,,,,,,,,,,,,,,,,,,,,,,,,,,,,,,,,,,,,,,,,bihhjl,001,fr,0,0,2022-06-23_11h09.35.468,Cluster,2022.1.1,36.42254817810165,
,,,,,,,,,,,,,,,,,,,,,,,,,,,,,,,,,,,,,135.5561597000342,None,space,42.697126399958506,135.5561597000342,None,,,,,,,,,,,,,,,,,,,,,,,,,,,,,,,,,,,,,,,,,,,,,,,,,,,,,,,,,,,,,,,,,,,,,,,,,,,,,,,,,,,,,,,,,,,,,,,,,,,,,,,,,,,,,,,,,,,,,bihhjl,001,fr,0,0,2022-06-23_11h09.35.468,Cluster,2022.1.1,36.42254817810165,
,,,,,,,,,,,,,,,,,,,,,,,,,,,,,,,,,,,,,,,,,,,178.3172035999596,179.32809570000973,179.76950266002677,179.9884300000267,180.26850185997318,180.4888690999942,180.78896125999745,181.00454989995342,181.26650736003648,181.49083350005094,179.67687600001227,181.49083350005094,181.77206176007167,None,181.49083350005094,182.29479369998444,space,2.987957200035453,182.47338940005284,None,,,,,,,,,,,,,,,,,,,,,,,,,,,,,,,,,,,,,,,,,,,,,,,,,,,,,,,,,,,,,,,,,,,,,,,,,,,,,,,,,,,,,,,,,,,,,,,,,bihhjl,001,fr,0,0,2022-06-23_11h09.35.468,Cluster,2022.1.1,36.42254817810165,
,,,,,,,,,,,,,,,,,,,,,,,,,,,,,,,,,,,,,,,,,,,,,,,,,,,,,,,,,,,,,,,182.47338940005284,None,185.5273109000409,186.53543160005938,186.97513065999374,187.19642160006333,187.28379886003677,187.5064710000297,187.97656705998816,188.19840590003878,188.3984010600252,188.613297300064,186.88585960003547,188.70120879996102,188.99825686006807,189.2141735999612,188.70120879996102,189.50506860006135,space,1.6820414999965578,189.67619919998106,None,,,,,,,,,,,,,,,,,,,,,,,,,,,,,,,,,,,,,,,,,,,,,,,,,,,,,,,,,,,,,,,,,,,,,,,,,,,bihhjl,001,fr,0,0,2022-06-23_11h09.35.468,Cluster,2022.1.1,36.42254817810165,
,,,,,,,,,,,,,,,,,,,,,,,,,,,,,,,,,,,,,,,,,,,,,,,,,,,,,,,,,,,,,,,,,,,,,,,,,,,,,,,,,,,,,189.67619919998106,None,191.42585850006435,192.43906020000577,192.90023916005157,193.11689790000673,193.37766046007164,193.58906220004428,193.88240435998887,194.09723569999915,194.39133726002183,194.604998899973,192.78661589999683,194.604998899973,194.8791921599768,195.1008756000083,194.604998899973,195.4238685000455,space,2.1678156999405473,195.59897299995646,None,,,,,,,,,,,,,,,,,,,,,,,,,,,,,,,,,,,,,,,,,,,,,,,,,,,,,bihhjl,001,fr,0,0,2022-06-23_11h09.35.468,Cluster,2022.1.1,36.42254817810165,
,,,,0,0,0,0,0,0,0,0,,,both,,,,,,,,,,,,,,,,,,,,,,,,,,,,,,,,,,,,,,,,,,,,,,,,,,,,,,,,,,,,,,,,,,,,,,,,,,,,,,,,,,,,,,,,,,,,,195.59897299995646,None,197.8249273999827,198.82627229997888,199.28907126002014,199.50947729998734,199.5970511600608,199.80964410002343,200.28074925998226,200.50879900006112,200.68868065997958,None,199.19841890002135,200.99919000000227,201.29131125996355,201.510172600043,200.99919000000227,201.80553620005958,201.98338760004845,None,203.00964780000504,None,240.21292419999372,None,2392.1828277524623,37.24799782389515,0.006082953358529106,0,"[0.723053423127078, 0.723053423127078, 0.723053423127078, 0.723053423127078]","[1506.9807499411843, 1691.5286993417767, 1898.6767686372602, 2131.1926148020007]",Tone,"[43.49534248380189, 43.33907123251382, 43.0, 42.843714326279006]",False,241.2065239000367,244.40989070001524,244.40989070001524,245.62148530001286,None,0,3.91952324018348,4.959707140107639,None,1,['space'],0,[0.48420920001808554],,,,,,,bihhjl,001,fr,0,0,2022-06-23_11h09.35.468,Cluster,2022.1.1,36.42254817810165,
,,,,0,0,0,0,1,0,1,0,,,none,,,,,,,,,,,,,,,,,,,,,,,,,,,,,,,,,,,,,,,,,,,,,,,,,,,,,,,,,,,,,,,,,,,,,,,,,,,,,,,,,,,,,,,,,,,,,,,,,,,,,,,,,,,,,,,,,,,246.19439730001613,None,202.88132956550018,15.510250927933381,0.001549340696875982,0,"[0.6218114800667912, 0.798666680499475, 0.46360415435944025, 0.5019478126893572]","[721.9479510703457, 3688.7593903216625, 2264.480662690947, 141.6930233478021]",None,"[34.0, 42.04590300125809, 42.965464858798846, 23.165536251453887]",False,247.20911409996916,250.1271067999769,250.1271067999769,251.34059270005673,None,0,3.4282638400327414,4.4656140400329605,None,1,['space'],0,[0.4303211000515148],,,,,,,bihhjl,001,fr,0,0,2022-06-23_11h09.35.468,Cluster,2022.1.1,36.42254817810165,
,,,,0,0,0,0,2,0,2,0,,,frequency,,,,,,,,,,,,,,,,,,,,,,,,,,,,,,,,,,,,,,,,,,,,,,,,,,,,,,,,,,,,,,,,,,,,,,,,,,,,,,,,,,,,,,,,,,,,,,,,,,,,,,,,,,,,,,,,,,,251.69960110005923,None,195.6620900330204,15.759269502676142,0.0017260039641600266,1,"[0.7754050746743114, 0.7577660455251112, 0.6602371658950931, 0.7981600875430381]","[986.0751435961131, 658.1262004392656, 439.24654070991403, 293.16189417295686]",Perfect_5th,"[36.0, 34.77164448763786, 30.304489664930905, 23.0]",False,252.71383310004603,255.94746449997183,255.94746449997183,257.1627929999959,['space'],1,4.014151540235616,5.038271040190011,None,1,None,1,,[0.3574017999926582],,,,,,bihhjl,001,fr,0,0,2022-06-23_11h09.35.468,Cluster,2022.1.1,36.42254817810165,
,,,,0,0,0,0,3,0,3,0,,,none,,,,,,,,,,,,,,,,,,,,,,,,,,,,,,,,,,,,,,,,,,,,,,,,,,,,,,,,,,,,,,,,,,,,,,,,,,,,,,,,,,,,,,,,,,,,,,,,,,,,,,,,,,,,,,,,,,,257.77494499995373,None,,,,,"[0.6544273933586349, 0.4347656026399489, 0.7537989858035586, 0.472151630715244]","[2252.995410423214, 3057.243797439471, 1684.4794097080878, 353.5863033645966]",None,"[42.965464858798846, 44.0, 43.33907123251382, 25.508643194256045]",True,258.79429310001433,261.6719560000347,261.6719560000347,262.87309899996035,None,1,3.3645192401017994,4.359422940062359,None,1,None,1,,,0,,,,,bihhjl,001,fr,0,0,2022-06-23_11h09.35.468,Cluster,2022.1.1,36.42254817810165,
,,,,0,0,0,0,4,0,4,0,,,frequency,,,,,,,,,,,,,,,,,,,,,,,,,,,,,,,,,,,,,,,,,,,,,,,,,,,,,,,,,,,,,,,,,,,,,,,,,,,,,,,,,,,,,,,,,,,,,,,,,,,,,,,,,,,,,,,,,,,263.1778886000393,None,353.5533905932738,24.0,0.0014044107891325048,0,"[0.49603758697453065, 0.6642568072160857, 0.4096078532928442, 0.7432092601138731]","[890.8987181403395, 707.1067811865477, 561.2310241546866, 445.4493590701697]",Major_3rd,"[34.0, 34.14547453139008, 35.0, 31.0]",False,264.19163120002486,266.7779494000133,266.7779494000133,267.99138250004034,None,0,3.3494015401229262,4.372730240109377,None,1,"['space', 'space']",0,"[-3.6215015000198036, 0.4922698000445962]",,,,,,,bihhjl,001,fr,0,0,2022-06-23_11h09.35.468,Cluster,2022.1.1,36.42254817810165,
,,,,0,0,0,0,5,0,5,0,,,none,,,,,,,,,,,,,,,,,,,,,,,,,,,,,,,,,,,,,,,,,,,,,,,,,,,,,,,,,,,,,,,,,,,,,,,,,,,,,,,,,,,,,,,,,,,,,,,,,,,,,,,,,,,,,,,,,,,268.60670839995146,None,353.5533905932738,25.0,0.0015757748228274538,1,"[0.6438755429107285, 0.7821692635560139, 0.6527326387793883, 0.4778865289654415]","[4388.055430722283, 2608.6230310165806, 638.1482732979412, 2982.7070346691703]",None,"[39.0, 43.605416509454585, 35.0, 44.0]",False,269.61146130005363,272.7012106999755,272.7012106999755,273.9277249999577,['space'],1,3.574212940176949,4.600031840149313,None,1,None,1,,[0.47655789996497333],,,,,,bihhjl,001,fr,0,0,2022-06-23_11h09.35.468,Cluster,2022.1.1,36.42254817810165,
,,,,0,0,0,0,6,0,6,0,,,frequency,,,,,,,,,,,,,,,,,,,,,,,,,,,,,,,,,,,,,,,,,,,,,,,,,,,,,,,,,,,,,,,,,,,,,,,,,,,,,,,,,,,,,,,,,,,,,,,,,,,,,,,,,,,,,,,,,,,274.25381320004817,None,5858.144647076096,33.0,0.005409375658667302,0,"[0.7426112484983911, 0.7508020776639726, 0.665558341536064, 0.4086446186227873]","[1162.403121918809, 1741.6368237544993, 2609.506778380392, 3909.8424732050116]",Perfect_5th,"[40.0, 43.33907123251382, 43.605416509454585, 41.0]",False,275.2447708999971,278.42277629999444,278.42277629999444,279.63708959997166,None,0,3.6113536400953308,4.633986740140244,None,1,None,1,,,,,,,,bihhjl,001,fr,0,0,2022-06-23_11h09.35.468,Cluster,2022.1.1,36.42254817810165,
,,,,0,0,0,0,7,0,7,0,,,time,,,,,,,,,,,,,,,,,,,,,,,,,,,,,,,,,,,,,,,,,,,,,,,,,,,,,,,,,,,,,,,,,,,,,,,,,,,,,,,,,,,,,,,,,,,,,,,,,,,,,,,,,,,,,,,,,,,279.9122180000413,None,5377.732712187132,31.363495548070134,0.005135897820730571,1,"[0.6838016839417065, 0.6838016839417065, 0.6838016839417065, 0.6838016839417065]","[1444.16315125567, 155.4249028668143, 243.70677482580538, 361.20112426743674]",None,"[43.15895965915695, 22.78182025365567, 21.633804144956393, 26.0]",False,280.9144891999895,283.9860904000234,283.9860904000234,285.1958154999884,['space'],1,3.79480864002835,4.820007040048949,None,1,None,1,,[0.26191630004905164],,,,,,bihhjl,001,fr,0,0,2022-06-23_11h09.35.468,Cluster,2022.1.1,36.42254817810165,
,,,,0,0,0,0,8,0,8,0,,,both,,,,,,,,,,,,,,,,,,,,,,,,,,,,,,,,,,,,,,,,,,,,,,,,,,,,,,,,,,,,,,,,,,,,,,,,,,,,,,,,,,,,,,,,,,,,,,,,,,,,,,,,,,,,,,,,,,,285.7606649999507,None,,,,,"[0.6457119759581391, 0.6457119759581391, 0.6457119759581391, 0.6457119759581391]","[2255.2994850349473, 2841.4992950125975, 3580.0647750478133, 4510.598970069894]",Major_3rd,"[42.965464858798846, 43.91363634999545, 43.0, 38.15120362747138]",True,286.75496120005846,289.72255760000553,289.72255760000553,290.95002510002814,['space'],0,3.629325040266849,4.638018040219322,None,1,None,1,,[0.5087857999606058],0,,,,,bihhjl,001,fr,0,0,2022-06-23_11h09.35.468,Cluster,2022.1.1,36.42254817810165,
,,,,0,0,0,0,9,0,9,0,,,frequency,,,,,,,,,,,,,,,,,,,,,,,,,,,,,,,,,,,,,,,,,,,,,,,,,,,,,,,,,,,,,,,,,,,,,,,,,,,,,,,,,,,,,,,,,,,,,,,,,,,,,,,,,,,,,,,,,,,291.4213125000242,None,125.0,22.0,0.00909850429304992,1,"[0.6364780559481421, 0.6385632968408151, 0.4184948583672801, 0.7644890165714961]","[314.9802624737183, 250.00000000000003, 198.42513149602496, 157.49013123685916]",Major_3rd,"[24.0, 21.633804144956393, 21.51025092793338, 22.78182025365567]",False,292.4333941000514,295.14014979999047,295.14014979999047,296.3536092999857,['space'],1,3.4733929401263595,4.4938000401016325,None,1,None,1,,[0.33825979998800904],,,,,,bihhjl,001,fr,0,0,2022-06-23_11h09.35.468,Cluster,2022.1.1,36.42254817810165,
,,,,0,0,0,0,10,0,10,0,,,none,,,,,,,,,,,,,,,,,,,,,,,,,,,,,,,,,,,,,,,,,,,,,,,,,,,,,,,,,,,,,,,,,,,,,,,,,,,,,,,,,,,,,,,,,,,,,,,,,,,,,,,,,,,,,,,,,,,296.9760753000155,None,1422.4897809763245,37.15895965915695,0.003621463282899039,1,"[0.6562319869909563, 0.42709894929074094, 0.45119970184068303, 0.7334282665870091]","[2656.1596308196504, 456.96775094852126, 5768.585991460571, 163.00964593590808]",None,"[43.605416509454585, 32.0, 38.0, 22.427865668147323]",False,297.9633342999732,300.5303409000626,300.5303409000626,301.7337523000315,['space'],1,3.312987340032123,4.335940640070476,None,1,None,1,,[0.2884351999964565],,,,,,bihhjl,001,fr,0,0,2022-06-23_11h09.35.468,Cluster,2022.1.1,36.42254817810165,
,,,,0,0,0,0,11,0,11,0,,,frequency,,,,,,,,,,,,,,,,,,,,,,,,,,,,,,,,,,,,,,,,,,,,,,,,,,,,,,,,,,,,,,,,,,,,,,,,,,,,,,,,,,,,,,,,,,,,,,,,,,,,,,,,,,,,,,,,,,,302.33395909995306,None,582.5853779140006,29.20901132748202,0.0016906808497863927,1,"[0.4839714308357475, 0.7671953097226418, 0.5813542122397246, 0.6773429776609394]","[2936.0463239792366, 1959.5758234684547, 1307.8599532168785, 872.891794613423]",Perfect_5th,"[44.0, 43.0, 42.41586704910984, 33.83510414802811]",False,303.3468944999622,306.19642030005343,306.19642030005343,307.40335649996996,['space'],1,3.532519940054044,4.54529474012088,None,1,None,1,,[0.3102749999379739],,,,,,bihhjl,001,fr,0,0,2022-06-23_11h09.35.468,Cluster,2022.1.1,36.42254817810165,
,,,,0,0,0,0,12,0,12,0,,,frequency,,,,,,,,,,,,,,,,,,,,,,,,,,,,,,,,,,,,,,,,,,,,,,,,,,,,,,,,,,,,,,,,,,,,,,,,,,,,,,,,,,,,,,,,,,,,,,,,,,,,,,,,,,,,,,,,,,,307.9342056000605,None,,,,,"[0.717473372365871, 0.46455209458338065, 0.679742106213636, 0.5088219716054596]","[192.04818190652054, 287.74715005184, 431.1335912737682, 645.9705108847456]",Perfect_5th,"[21.75926950267614, 22.622938488500367, 30.0, 35.0]",True,308.95187340001576,311.8472827000078,311.8472827000078,313.05913559999317,None,1,3.4044989402173087,4.406023740186356,None,1,None,1,,,0,,,,,bihhjl,001,fr,0,0,2022-06-23_11h09.35.468,Cluster,2022.1.1,36.42254817810165,
,,,,0,0,0,0,13,0,13,0,,,both,,,,,,,,,,,,,,,,,,,,,,,,,,,,,,,,,,,,,,,,,,,,,,,,,,,,,,,,,,,,,,,,,,,,,,,,,,,,,,,,,,,,,,,,,,,,,,,,,,,,,,,,,,,,,,,,,,,313.3872746999841,None,353.5533905932738,24.0,0.0014044107891325048,1,"[0.5954895552854322, 0.5954895552854322, 0.5954895552854322, 0.5954895552854322]","[140.30775603867167, 176.77669529663694, 222.72467953508487, 280.6155120773433]",Major_3rd,"[23.165536251453887, 22.08165514605822, 21.381870299461333, 22.622938488500367]",False,314.414591299952,317.23002470005304,317.23002470005304,318.44052780000493,['space'],1,3.3972347400849685,4.4230680401669815,None,1,None,1,,[0.281693400000222],,,,,,bihhjl,001,fr,0,0,2022-06-23_11h09.35.468,Cluster,2022.1.1,36.42254817810165,
,,,,0,0,0,0,14,0,14,0,,,frequency,,,,,,,,,,,,,,,,,,,,,,,,,,,,,,,,,,,,,,,,,,,,,,,,,,,,,,,,,,,,,,,,,,,,,,,,,,,,,,,,,,,,,,,,,,,,,,,,,,,,,,,,,,,,,,,,,,,318.88541650003754,None,1148.6983549970344,32.0,0.0020013670815014115,0,"[0.7249137702971187, 0.4028043807725446, 0.5979152715743242, 0.70457651606904]","[5789.07694976151, 3863.7453156993806, 2578.740616879157, 1721.1028744886592]",Perfect_5th,"[38.0, 41.0, 43.605416509454585, 43.33907123251382]",False,319.97184550005477,322.7163280999521,322.7163280999521,323.9180383000057,None,0,3.440111560164951,4.461392960161902,None,1,['space'],0,[0.5287408999865875],,,,,,,bihhjl,001,fr,0,0,2022-06-23_11h09.35.468,Cluster,2022.1.1,36.42254817810165,
,,,,0,0,0,0,15,0,15,0,,,none,,,,,,,,,,,,,,,,,,,,,,,,,,,,,,,,,,,,,,,,,,,,,,,,,,,,,,,,,,,,,,,,,,,,,,,,,,,,,,,,,,,,,,,,,,,,,,,,,,,,,,,,,,,,,,,,,,,324.47986860002857,None,176.7766952966369,25.0,0.006224350964454479,1,"[0.798612727170698, 0.7497421397434898, 0.5995380375242323, 0.5179063754810551]","[3115.5559696672444, 517.5565974641145, 453.1935622387136, 302.07772841279393]",None,"[44.0, 34.0, 31.0, 23.0]",False,325.5133510000305,328.6980263000587,328.6980263000587,329.9129732999718,['space'],1,3.672158840112388,4.677182840066962,None,1,None,1,,[0.34110779990442097],,,,,,bihhjl,001,fr,0,0,2022-06-23_11h09.35.468,Cluster,2022.1.1,36.42254817810165,
,,,,0,0,0,0,16,0,16,0,,,both,,,,,,,,,,,,,,,,,,,,,,,,,,,,,,,,,,,,,,,,,,,,,,,,,,,,,,,,,,,,,,,,,,,,,,,,,,,,,,,,,,,,,,,,,,,,,,,,,,,,,,,,,,,,,,,,,,,330.24482170003466,None,,,,,"[0.7247713458290989, 0.7247713458290989, 0.7247713458290989, 0.7247713458290989]","[775.7189272039375, 615.6885205375868, 488.67230259305484, 387.85946360196874]",Major_3rd,"[33.61213434736711, 35.20851958385715, 33.0, 27.0]",True,331.23073219996877,334.42504190001637,334.42504190001637,335.6282589000184,None,1,3.936150440131314,4.958204840077087,None,1,None,1,,,0,,,,,bihhjl,001,fr,0,0,2022-06-23_11h09.35.468,Cluster,2022.1.1,36.42254817810165,
,,,,0,0,0,0,17,0,17,0,,,both,,,,,,,,,,,,,,,,,,,,,,,,,,,,,,,,,,,,,,,,,,,,,,,,,,,,,,,,,,,,,,,,,,,,,,,,,,,,,,,,,,,,,,,,,,,,,,,,,,,,,,,,,,,,,,,,,,,336.2174615999684,None,1850.8580661517738,37.095439700475254,0.004872770705132075,0,"[0.6724937831511697, 0.6724937831511697, 0.6724937831511697, 0.6724937831511697]","[367.2567551566441, 550.2633952819665, 824.4635392971612, 1235.2995555557327]",Perfect_5th,"[26.0, 35.0, 33.45210865578541, 41.24673339425587]",False,337.2074055999983,340.23877159995027,340.23877159995027,341.4647078999551,None,0,3.723962340154685,4.730231740162708,None,1,None,1,,,,,,,,bihhjl,001,fr,0,0,2022-06-23_11h09.35.468,Cluster,2022.1.1,36.42254817810165,
,,,,0,0,0,0,18,0,18,0,,,frequency,,,,,,,,,,,,,,,,,,,,,,,,,,,,,,,,,,,,,,,,,,,,,,,,,,,,,,,,,,,,,,,,,,,,,,,,,,,,,,,,,,,,,,,,,,,,,,,,,,,,,,,,,,,,,,,,,,,341.9679970999714,None,992.4869552171766,30.0,0.0013863080273261797,1,"[0.696292930494278, 0.586903100912936, 0.6003544956486104, 0.5041381030108593]","[1575.4748367764616, 1403.58851254651, 1250.4552066241913, 1114.028940673405]",Tone,"[43.51466302373089, 43.0, 41.24673339425587, 39.0]",False,342.98934209998697,345.89476159994956,345.89476159994956,347.11259340005927,['space'],1,3.424338440177962,4.452762740198523,None,1,None,1,,[0.32475099992007017],,,,,,bihhjl,001,fr,0,0,2022-06-23_11h09.35.468,Cluster,2022.1.1,36.42254817810165,
,,,,0,0,0,0,19,0,19,0,,,time,,,,,,,,,,,,,,,,,,,,,,,,,,,,,,,,,,,,,,,,,,,,,,,,,,,,,,,,,,,,,,,,,,,,,,,,,,,,,,,,,,,,,,,,,,,,,,,,,,,,,,,,,,,,,,,,,,,347.477520299959,None,353.5533905932738,24.0,0.0014044107891325048,1,"[0.6416395447119846, 0.6416395447119846, 0.6416395447119846, 0.6416395447119846]","[1791.7351108647713, 662.8186260896084, 281.74811418416004, 198.7168439394224]",None,"[43.33907123251382, 34.77164448763786, 22.622938488500367, 21.51025092793338]",False,348.483540300047,351.42443160002586,351.42443160002586,352.63665260002017,['space'],1,3.5909956402610987,4.6113485402893275,None,1,None,1,,[0.3376171999843791],,,,,,bihhjl,001,fr,0,0,2022-06-23_11h09.35.468,Cluster,2022.1.1,36.42254817810165,
,,,,1,0,1,0,0,0,0,0,,,frequency,,,,,,,,,,,,,,,,,,,,,,,,,,,,,,,,,,,,,,,,,,,,,,,,,,,,,,,,,,,,,,,,,,,,,,,,,,,,,,,,,,,,,,,,,,,,,,,,,,,,,,,,,,,,,,,,,,,362.19257970002946,None,4000.0,39.0,0.007481178280472167,1,"[0.664178007996729, 0.7657841253177423, 0.6591306819726499, 0.5666945769441682]","[6349.6042078728005, 5656.854249492382, 5039.684199579494, 4489.8481932374925]",Tone,"[40.0, 37.95896922020435, 37.44107461450291, 38.15120362747138]",False,363.19815519999247,366.2991546000121,366.2991546000121,367.51131289999466,['space'],1,3.682712940266356,4.686704240157269,None,1,None,1,,[0.2514751999406144],,,,,,bihhjl,001,fr,0,0,2022-06-23_11h09.35.468,Cluster,2022.1.1,36.42254817810165,
,,,,1,0,1,0,1,0,1,0,,,frequency,,,,,,,,,,,,,,,,,,,,,,,,,,,,,,,,,,,,,,,,,,,,,,,,,,,,,,,,,,,,,,,,,,,,,,,,,,,,,,,,,,,,,,,,,,,,,,,,,,,,,,,,,,,,,,,,,,,367.93388130003586,None,,,,,"[0.5376619952182407, 0.4370041036213021, 0.6001088495524151, 0.6507609269010382]","[2588.2782438162985, 3261.0262423690892, 4108.635607020396, 5176.556487632596]",Major_3rd,"[43.605416509454585, 43.7732142657211, 40.0, 37.363495548070134]",True,368.9320517999586,371.53445929999,371.53445929999,372.735657799989,None,1,3.2568590401206166,4.281330640194938,None,1,None,1,,,0,,,,,bihhjl,001,fr,0,0,2022-06-23_11h09.35.468,Cluster,2022.1.1,36.42254817810165,
,,,,1,0,1,0,2,0,2,0,,,none,,,,,,,,,,,,,,,,,,,,,,,,,,,,,,,,,,,,,,,,,,,,,,,,,,,,,,,,,,,,,,,,,,,,,,,,,,,,,,,,,,,,,,,,,,,,,,,,,,,,,,,,,,,,,,,,,,,373.2463201000355,None,547.9989238029564,29.0,0.0018025488866907455,1,"[0.48800493495781877, 0.6270551759294002, 0.5251769758524228, 0.4155132199305788]","[498.45691878087445, 554.1442448415307, 1349.8380326279907, 3914.2550094421076]",None,"[33.55222024559278, 35.0, 42.41586704910984, 41.0]",False,374.23593470000196,376.90278210002,376.90278210002,378.11831259995233,['space'],1,3.087652540067211,4.097602640162222,None,1,None,1,,[0.512895500054583],,,,,,bihhjl,001,fr,0,0,2022-06-23_11h09.35.468,Cluster,2022.1.1,36.42254817810165,
,,,,1,0,1,0,3,0,3,0,,,none,,,,,,,,,,,,,,,,,,,,,,,,,,,,,,,,,,,,,,,,,,,,,,,,,,,,,,,,,,,,,,,,,,,,,,,,,,,,,,,,,,,,,,,,,,,,,,,,,,,,,,,,,,,,,,,,,,,378.36302389996126,None,125.0,23.0,0.01020868972334765,1,"[0.48889792163769613, 0.6729900540446416, 0.7276862412821246, 0.4956766374224697]","[5488.204202753868, 178.14628614424325, 235.42350105652062, 257.138162896976]",None,"[37.95896922020435, 22.08165514605822, 21.415962982174147, 21.633804144956393]",False,380.19535609998275,383.0979572000215,383.0979572000215,384.31823640002403,['space'],1,3.3997612803941593,4.404185780324042,None,1,None,1,,[0.5030550999799743],,,,,,bihhjl,001,fr,0,0,2022-06-23_11h09.35.468,Cluster,2022.1.1,36.42254817810165,
,,,,1,0,1,0,4,0,4,0,,,time,,,,,,,,,,,,,,,,,,,,,,,,,,,,,,,,,,,,,,,,,,,,,,,,,,,,,,,,,,,,,,,,,,,,,,,,,,,,,,,,,,,,,,,,,,,,,,,,,,,,,,,,,,,,,,,,,,,384.6550925000338,None,137.35852417945182,17.609039372773694,0.004652600369650302,1,"[0.5518033920740809, 0.5518033920740809, 0.5518033920740809, 0.5518033920740809]","[1343.949812494855, 264.6767239797444, 336.79992430600237, 436.3948969204774]",None,"[42.41586704910984, 22.0, 25.0, 30.304489664930905]",False,385.6676522999769,388.34212449996267,388.34212449996267,389.56348560005426,['space'],1,3.250149440136738,4.252402040176094,None,1,None,1,,[0.3418902000412345],,,,,,bihhjl,001,fr,0,0,2022-06-23_11h09.35.468,Cluster,2022.1.1,36.42254817810165,
,,,,1,0,1,0,5,0,5,0,,,both,,,,,,,,,,,,,,,,,,,,,,,,,,,,,,,,,,,,,,,,,,,,,,,,,,,,,,,,,,,,,,,,,,,,,,,,,,,,,,,,,,,,,,,,,,,,,,,,,,,,,,,,,,,,,,,,,,,389.9587041999912,None,176.7766952966369,24.0,0.005547458636343739,1,"[0.40242372102099494, 0.40242372102099494, 0.40242372102099494, 0.40242372102099494]","[445.44935907016975, 353.55339059327383, 280.6155120773433, 222.72467953508485]",Major_3rd,"[31.0, 25.508643194256045, 22.622938488500367, 21.381870299461333]",False,390.98764800000936,393.2235648999922,393.2235648999922,394.42798240005504,['space'],1,2.6248747401405126,3.650146740139462,None,1,None,1,,[0.47378969995770603],,,,,,bihhjl,001,fr,0,0,2022-06-23_11h09.35.468,Cluster,2022.1.1,36.42254817810165,
,,,,1,0,1,0,6,0,6,0,,,both,,,,,,,,,,,,,,,,,,,,,,,,,,,,,,,,,,,,,,,,,,,,,,,,,,,,,,,,,,,,,,,,,,,,,,,,,,,,,,,,,,,,,,,,,,,,,,,,,,,,,,,,,,,,,,,,,,,394.67955750005785,None,3144.137757000403,38.0,0.005438323600001681,1,"[0.562430640145597, 0.562430640145597, 0.562430640145597, 0.562430640145597]","[623.8759478744219, 934.757747793394, 1400.5541486841503, 2098.4601925224583]",Perfect_5th,"[35.20851958385715, 34.80359918411726, 43.0, 42.843714326279006]",False,395.6725271999603,398.384137099958,398.384137099958,399.5898643999826,['space'],1,3.294391540228389,4.326385940192267,None,1,None,1,,[0.29333280003629625],,,,,,bihhjl,001,fr,0,0,2022-06-23_11h09.35.468,Cluster,2022.1.1,36.42254817810165,
,,,,1,0,1,0,7,0,7,0,,,both,,,,,,,,,,,,,,,,,,,,,,,,,,,,,,,,,,,,,,,,,,,,,,,,,,,,,,,,,,,,,,,,,,,,,,,,,,,,,,,,,,,,,,,,,,,,,,,,,,,,,,,,,,,,,,,,,,,400.0310715000378,None,,,,,"[0.4436985503142754, 0.4436985503142754, 0.4436985503142754, 0.4436985503142754]","[421.379033991592, 334.4487609177984, 265.452157455187, 210.68951699579594]",Major_3rd,"[29.0, 24.33777877591176, 22.0, 21.381870299461333]",True,401.04612690000795,403.39681489998475,403.39681489998475,404.6155291000614,None,1,2.82535694015678,3.839564940193668,None,1,None,1,,,0,,,,,bihhjl,001,fr,0,0,2022-06-23_11h09.35.468,Cluster,2022.1.1,36.42254817810165,
,,,,1,0,1,0,8,0,8,0,,,none,,,,,,,,,,,,,,,,,,,,,,,,,,,,,,,,,,,,,,,,,,,,,,,,,,,,,,,,,,,,,,,,,,,,,,,,,,,,,,,,,,,,,,,,,,,,,,,,,,,,,,,,,,,,,,,,,,,404.9109914000146,None,4492.606364183089,32.15120362747138,0.004773448997537598,1,"[0.48052483468642954, 0.6992827897761291, 0.759309197690303, 0.6644562264882499]","[1024.2240115817278, 1523.413804567662, 875.7325445857964, 1227.4691758040733]",None,"[37.0, 43.49534248380189, 33.83510414802811, 41.24673339425587]",False,405.9148404999869,408.86892140004784,408.86892140004784,410.07891479996033,['space'],1,3.628067840123549,4.6438666401663795,None,1,None,1,,[0.30173869989812374],,,,,,bihhjl,001,fr,0,0,2022-06-23_11h09.35.468,Cluster,2022.1.1,36.42254817810165,
,,,,1,0,1,0,9,0,9,0,,,frequency,,,,,,,,,,,,,,,,,,,,,,,,,,,,,,,,,,,,,,,,,,,,,,,,,,,,,,,,,,,,,,,,,,,,,,,,,,,,,,,,,,,,,,,,,,,,,,,,,,,,,,,,,,,,,,,,,,,410.5955306000542,None,501.5181080824019,27.552220245592782,0.0016987873669441148,1,"[0.784488224405187, 0.669348226343663, 0.4682740256789978, 0.7590656815899061]","[199.02759308777652, 250.75905404120098, 315.93661063823515, 398.055186175553]",Major_3rd,"[21.51025092793338, 21.633804144956393, 24.0, 28.0]",False,411.6011266000569,414.546089499956,414.546089499956,415.76085399999283,['space'],1,3.7135660401545465,4.74695344013162,None,1,None,1,,[0.3293024000013247],,,,,,bihhjl,001,fr,0,0,2022-06-23_11h09.35.468,Cluster,2022.1.1,36.42254817810165,
,,,,1,0,1,0,10,0,10,0,,,both,,,,,,,,,,,,,,,,,,,,,,,,,,,,,,,,,,,,,,,,,,,,,,,,,,,,,,,,,,,,,,,,,,,,,,,,,,,,,,,,,,,,,,,,,,,,,,,,,,,,,,,,,,,,,,,,,,,416.3857277999632,None,125.0,22.0,0.00909850429304992,1,"[0.6872698359647694, 0.6872698359647694, 0.6872698359647694, 0.6872698359647694]","[198.42513149602502, 176.77669529663694, 157.49013123685918, 140.30775603867164]",Tone,"[21.51025092793338, 22.08165514605822, 22.78182025365567, 23.165536251453887]",False,417.38901869999245,420.4876002999954,420.4876002999954,421.7150236000307,['space'],1,3.774633140186779,4.79296994023025,None,1,None,1,,[0.22829310002271086],,,,,,bihhjl,001,fr,0,0,2022-06-23_11h09.35.468,Cluster,2022.1.1,36.42254817810165,
,,,,1,0,1,0,11,0,11,0,,,time,,,,,,,,,,,,,,,,,,,,,,,,,,,,,,,,,,,,,,,,,,,,,,,,,,,,,,,,,,,,,,,,,,,,,,,,,,,,,,,,,,,,,,,,,,,,,,,,,,,,,,,,,,,,,,,,,,,422.23196740006097,None,,,,,"[0.7556440872881222, 0.7556440872881222, 0.7556440872881222, 0.7556440872881222]","[378.7896534878751, 7545.965550897801, 1512.3485503183138, 2287.7521240813257]",None,"[26.91762810907877, 44.0, 43.49534248380189, 42.965464858798846]",True,423.2366943999659,426.53836979996413,426.53836979996413,427.75222769996617,None,1,4.065079340245575,5.082658640225418,None,1,None,1,,,0,,,,,bihhjl,001,fr,0,0,2022-06-23_11h09.35.468,Cluster,2022.1.1,36.42254817810165,
,,,,1,0,1,0,12,0,12,0,,,frequency,,,,,,,,,,,,,,,,,,,,,,,,,,,,,,,,,,,,,,,,,,,,,,,,,,,,,,,,,,,,,,,,,,,,,,,,,,,,,,,,,,,,,,,,,,,,,,,,,,,,,,,,,,,,,,,,,,,428.3511166999815,None,1624.5047927124701,40.0,0.005785700826325816,1,"[0.7314133199177074, 0.5202217193026293, 0.4785864870351852, 0.5515004514306862]","[4093.4955679870973, 3249.0095854249403, 2578.7406168791567, 2046.7477839935486]",Major_3rd,"[40.0, 43.7732142657211, 43.605416509454585, 42.90010724484241]",False,429.36388520000037,432.1268070000224,432.1268070000224,433.329475000035,['space'],1,3.311572340200655,4.320054040174,None,1,None,1,,[0.2410082999849692],,,,,,bihhjl,001,fr,0,0,2022-06-23_11h09.35.468,Cluster,2022.1.1,36.42254817810165,
,,,,1,0,1,0,13,0,13,0,,,frequency,,,,,,,,,,,,,,,,,,,,,,,,,,,,,,,,,,,,,,,,,,,,,,,,,,,,,,,,,,,,,,,,,,,,,,,,,,,,,,,,,,,,,,,,,,,,,,,,,,,,,,,,,,,,,,,,,,,433.7275235999841,None,1463.3406443404513,37.15895965915695,0.0035483378221306074,1,"[0.7708880698081558, 0.4949627323040943, 0.5311700237135673, 0.4405558269163932]","[921.8468404856307, 1034.7380927990248, 1161.4542391069274, 1303.688304245566]",Tone,"[34.80359918411726, 37.0, 40.0, 42.41586704910984]",False,434.720915999962,437.55775429995265,437.55775429995265,438.77900850004517,['space'],1,3.2721957401372492,4.275859940215014,None,1,None,1,,[0.30706250004004687],,,,,,bihhjl,001,fr,0,0,2022-06-23_11h09.35.468,Cluster,2022.1.1,36.42254817810165,
,,,,1,0,1,0,14,0,14,0,,,none,,,,,,,,,,,,,,,,,,,,,,,,,,,,,,,,,,,,,,,,,,,,,,,,,,,,,,,,,,,,,,,,,,,,,,,,,,,,,,,,,,,,,,,,,,,,,,,,,,,,,,,,,,,,,,,,,,,439.0327051000204,None,287.17458874925893,21.0,0.0014373014543855396,1,"[0.7004034893476239, 0.6450395251893603, 0.7332143970200271, 0.7099701276893517]","[215.0720452091053, 232.5132250176762, 332.1354056583464, 3589.2990144892838]",None,"[21.381870299461333, 21.415962982174147, 24.33777877591176, 43.0]",False,440.10980720003136,443.2066488000564,443.2066488000564,444.4163605000358,['space'],1,3.817128120106645,4.825531620183028,None,1,None,1,,[0.3007191000506282],,,,,,bihhjl,001,fr,0,0,2022-06-23_11h09.35.468,Cluster,2022.1.1,36.42254817810165,
,,,,1,0,1,0,15,0,15,0,,,time,,,,,,,,,,,,,,,,,,,,,,,,,,,,,,,,,,,,,,,,,,,,,,,,,,,,,,,,,,,,,,,,,,,,,,,,,,,,,,,,,,,,,,,,,,,,,,,,,,,,,,,,,,,,,,,,,,,444.96827690000646,None,,,,,"[0.4611927449552513, 0.4611927449552513, 0.4611927449552513, 0.4611927449552513]","[3213.558677480283, 1279.346705409374, 2348.4157982806382, 2548.482095508905]",None,"[43.7732142657211, 42.0, 43.00000000000001, 43.24799782389515]",True,445.9738804999506,448.38659420004115,448.38659420004115,449.59378840005957,None,1,2.8810216401470825,3.9023877400904894,None,1,None,1,,,0,,,,,bihhjl,001,fr,0,0,2022-06-23_11h09.35.468,Cluster,2022.1.1,36.42254817810165,
,,,,1,0,1,0,16,0,16,0,,,time,,,,,,,,,,,,,,,,,,,,,,,,,,,,,,,,,,,,,,,,,,,,,,,,,,,,,,,,,,,,,,,,,,,,,,,,,,,,,,,,,,,,,,,,,,,,,,,,,,,,,,,,,,,,,,,,,,,449.9001636999892,None,574.3491774985172,21.0,0.0006714853925532657,0,"[0.4523741168003295, 0.4523741168003295, 0.4523741168003295, 0.4523741168003295]","[4191.833497166996, 2290.252915897165, 6000.9705969395245, 350.73594509210324]",None,"[40.0, 42.965464858798846, 39.0, 25.508643194256045]",False,450.91884729999583,453.30239530000836,453.30239530000836,454.515714499983,None,0,2.8342432400677353,3.855568940169178,None,1,None,1,,,,,,,,bihhjl,001,fr,0,0,2022-06-23_11h09.35.468,Cluster,2022.1.1,36.42254817810165,
,,,,1,0,1,0,17,0,17,0,,,none,,,,,,,,,,,,,,,,,,,,,,,,,,,,,,,,,,,,,,,,,,,,,,,,,,,,,,,,,,,,,,,,,,,,,,,,,,,,,,,,,,,,,,,,,,,,,,,,,,,,,,,,,,,,,,,,,,,454.8246655999683,None,192.94130251326266,15.759269502676142,0.0017868168158048613,1,"[0.7948754353928017, 0.5155804173588749, 0.6606977577276046, 0.5560060563712642]","[3606.1878583650946, 224.8628573001621, 1467.082308196196, 785.6053824695017]",None,"[43.0, 21.381870299461333, 43.49534248380189, 33.45210865578541]",False,455.81850769999437,458.80437609995715,458.80437609995715,460.01774669997394,['space'],1,3.553649140172638,4.5711902402108535,None,1,None,1,,[0.2984520000172779],,,,,,bihhjl,001,fr,0,0,2022-06-23_11h09.35.468,Cluster,2022.1.1,36.42254817810165,
,,,,1,0,1,0,18,0,18,0,,,both,,,,,,,,,,,,,,,,,,,,,,,,,,,,,,,,,,,,,,,,,,,,,,,,,,,,,,,,,,,,,,,,,,,,,,,,,,,,,,,,,,,,,,,,,,,,,,,,,,,,,,,,,,,,,,,,,,,460.4256747000618,None,3047.4596626679913,38.0,0.004711579520991898,1,"[0.4621333211752225, 0.4621333211752225, 0.4621333211752225, 0.4621333211752225]","[1919.7792888504657, 2154.8793928650052, 2418.7703371749117, 2714.977907055304]",Tone,"[43.0, 42.843714326279006, 43.24799782389515, 43.605416509454585]",False,461.42214499996044,463.82551590004005,463.82551590004005,465.06008409999777,['space'],1,2.8731167401419953,3.882052340079099,None,1,None,1,,[0.6214437999296933],,,,,,bihhjl,001,fr,0,0,2022-06-23_11h09.35.468,Cluster,2022.1.1,36.42254817810165,
,,,,1,0,1,0,19,0,19,0,,,both,,,,,,,,,,,,,,,,,,,,,,,,,,,,,,,,,,,,,,,,,,,,,,,,,,,,,,,,,,,,,,,,,,,,,,,,,,,,,,,,,,,,,,,,,,,,,,,,,,,,,,,,,,,,,,,,,,,465.3429009000538,None,1148.6983549970344,32.0,0.0020013670815014115,0,"[0.6705470365582396, 0.6705470365582396, 0.6705470365582396, 0.6705470365582396]","[723.6346187201885, 812.252396356235, 911.7224885582162, 1023.3738919967743]",Tone,"[34.0, 33.45210865578541, 34.80359918411726, 37.0]",False,466.9038137999596,469.93589139997493,469.93589139997493,471.1490528000286,None,0,3.722261840244755,4.7492242401931435,None,1,None,1,,,,,,,,bihhjl,001,fr,0,0,2022-06-23_11h09.35.468,Cluster,2022.1.1,36.42254817810165,
,,,,2,0,2,0,0,0,0,0,,,both,,,,,,,,,,,,,,,,,,,,,,,,,,,,,,,,,,,,,,,,,,,,,,,,,,,,,,,,,,,,,,,,,,,,,,,,,,,,,,,,,,,,,,,,,,,,,,,,,,,,,,,,,,,,,,,,,,,480.36030030006077,None,4310.034646146781,33.323092750822866,0.004880554429791785,1,"[0.649647073379231, 0.649647073379231, 0.649647073379231, 0.649647073379231]","[6841.753531312787, 6095.309450878702, 5430.303376456531, 4837.850317198279]",Tone,"[42.0, 39.141408306701194, 37.363495548070134, 37.44107461450291]",False,481.34202240000013,484.3180204000091,484.3180204000091,485.53026669996325,['space'],1,3.652724640094675,4.6767059401609,None,1,None,1,,[0.26575480005703866],,,,,,bihhjl,001,fr,0,0,2022-06-23_11h09.35.468,Cluster,2022.1.1,36.42254817810165,
,,,,2,0,2,0,1,0,1,0,,,frequency,,,,,,,,,,,,,,,,,,,,,,,,,,,,,,,,,,,,,,,,,,,,,,,,,,,,,,,,,,,,,,,,,,,,,,,,,,,,,,,,,,,,,,,,,,,,,,,,,,,,,,,,,,,,,,,,,,,486.0545392000349,None,307.7861033362292,28.0,0.002669221040694409,1,"[0.6843205204456062, 0.5164529607125765, 0.5745445240238968, 0.605009085727245]","[193.89309522921687, 217.63764082403108, 244.28999210856156, 274.2062449236566]",Tone,"[21.75926950267614, 21.381870299461333, 21.633804144956393, 22.041006007444324]",False,487.08689360006247,489.87922330002766,489.87922330002766,491.0920758000575,['space'],1,3.4104640401201323,4.441457340144552,None,1,None,1,,[0.2828770999331027],,,,,,bihhjl,001,fr,0,0,2022-06-23_11h09.35.468,Cluster,2022.1.1,36.42254817810165,
,,,,2,0,2,0,2,0,2,0,,,time,,,,,,,,,,,,,,,,,,,,,,,,,,,,,,,,,,,,,,,,,,,,,,,,,,,,,,,,,,,,,,,,,,,,,,,,,,,,,,,,,,,,,,,,,,,,,,,,,,,,,,,,,,,,,,,,,,,491.57405020005535,None,3792.040161072063,36.0,0.005065934589461021,1,"[0.5792291382013041, 0.5792291382013041, 0.5792291382013041, 0.5792291382013041]","[3552.4440676094237, 995.5736585978235, 493.70683116120193, 128.391663537822]",None,"[43.0, 36.25469760911161, 33.55222024559278, 24.0]",False,492.59388359996956,495.356338600046,495.356338600046,496.5628992000129,['space'],1,3.360088740242645,4.384725440177135,None,1,None,1,,[0.35295460000634193],,,,,,bihhjl,001,fr,0,0,2022-06-23_11h09.35.468,Cluster,2022.1.1,36.42254817810165,
,,,,2,0,2,0,3,0,3,0,,,time,,,,,,,,,,,,,,,,,,,,,,,,,,,,,,,,,,,,,,,,,,,,,,,,,,,,,,,,,,,,,,,,,,,,,,,,,,,,,,,,,,,,,,,,,,,,,,,,,,,,,,,,,,,,,,,,,,,497.01667659997474,None,,,,,"[0.4751431774902348, 0.4751431774902348, 0.4751431774902348, 0.4751431774902348]","[5486.053401563495, 222.65731993660373, 954.0367702755117, 7722.120737827651]",None,"[37.95896922020435, 21.381870299461333, 35.0, 44.0]",True,498.00706360000186,500.44804869999643,500.44804869999643,501.6676067999797,None,1,2.9228019402362406,3.931231840280816,None,1,None,1,,,0,,,,,bihhjl,001,fr,0,0,2022-06-23_11h09.35.468,Cluster,2022.1.1,36.42254817810165,
,,,,2,0,2,0,4,0,4,0,,,both,,,,,,,,,,,,,,,,,,,,,,,,,,,,,,,,,,,,,,,,,,,,,,,,,,,,,,,,,,,,,,,,,,,,,,,,,,,,,,,,,,,,,,,,,,,,,,,,,,,,,,,,,,,,,,,,,,,501.9709376000101,None,535.8867312681471,21.0,0.0007388082491012499,0,"[0.7736690522481378, 0.7736690522481378, 0.7736690522481378, 0.7736690522481378]","[212.66679023771422, 267.94336563407364, 337.5874865420479, 425.3335804754283]",Major_3rd,"[21.381870299461333, 22.041006007444324, 25.0, 30.0]",False,502.9805310999509,506.3230561000528,506.3230561000528,507.54193479998503,None,0,4.110696040210314,5.11509034014307,None,1,None,1,,,,,,,,bihhjl,001,fr,0,0,2022-06-23_11h09.35.468,Cluster,2022.1.1,36.42254817810165,
,,,,2,0,2,0,5,0,5,0,,,time,,,,,,,,,,,,,,,,,,,,,,,,,,,,,,,,,,,,,,,,,,,,,,,,,,,,,,,,,,,,,,,,,,,,,,,,,,,,,,,,,,,,,,,,,,,,,,,,,,,,,,,,,,,,,,,,,,,508.1355031999992,None,1148.6983549970344,31.0,0.0017837202889381294,0,"[0.70171461692569, 0.70171461692569, 0.70171461692569, 0.70171461692569]","[970.5958194602915, 201.53276620445519, 1200.8841043776547, 136.1208871735172]",None,"[36.0, 21.51025092793338, 41.0, 23.609039372773694]",False,509.15005880000535,512.2733283999842,512.2733283999842,513.4873862999957,None,0,3.8239452401176095,4.864684940199368,None,1,None,1,,,,,,,,bihhjl,001,fr,0,0,2022-06-23_11h09.35.468,Cluster,2022.1.1,36.42254817810165,
,,,,2,0,2,0,6,0,6,0,,,none,,,,,,,,,,,,,,,,,,,,,,,,,,,,,,,,,,,,,,,,,,,,,,,,,,,,,,,,,,,,,,,,,,,,,,,,,,,,,,,,,,,,,,,,,,,,,,,,,,,,,,,,,,,,,,,,,,,514.0597922999877,None,435.2752816480623,19.0,0.0006662271952302989,0,"[0.4382391468002811, 0.4701267593341932, 0.69307591487176, 0.7224705978074228]","[148.92248915528302, 2599.1349374968718, 2093.4849380722103, 2133.244369662861]",None,"[23.0, 43.605416509454585, 42.843714326279006, 42.843714326279006]",False,515.0950176999904,517.7132984000491,517.7132984000491,518.918569499976,None,0,3.344650440150872,4.353461840189993,None,1,None,1,,,,,,,,bihhjl,001,fr,0,0,2022-06-23_11h09.35.468,Cluster,2022.1.1,36.42254817810165,
,,,,2,0,2,0,7,0,7,0,,,time,,,,,,,,,,,,,,,,,,,,,,,,,,,,,,,,,,,,,,,,,,,,,,,,,,,,,,,,,,,,,,,,,,,,,,,,,,,,,,,,,,,,,,,,,,,,,,,,,,,,,,,,,,,,,,,,,,,519.5076152000111,None,,,,,"[0.7427483603007649, 0.7427483603007649, 0.7427483603007649, 0.7427483603007649]","[4256.478278204637, 445.6038189946028, 677.7175886314768, 1644.2655307389025]",None,"[39.323092750822866, 31.0, 34.77164448763786, 43.51466302373089]",True,520.4965435999911,523.7534066999797,523.7534066999797,524.9704149999889,None,1,4.008979040198028,5.034679940203205,None,1,None,1,,,0,,,,,bihhjl,001,fr,0,0,2022-06-23_11h09.35.468,Cluster,2022.1.1,36.42254817810165,
,,,,2,0,2,0,8,0,8,0,,,frequency,,,,,,,,,,,,,,,,,,,,,,,,,,,,,,,,,,,,,,,,,,,,,,,,,,,,,,,,,,,,,,,,,,,,,,,,,,,,,,,,,,,,,,,,,,,,,,,,,,,,,,,,,,,,,,,,,,,525.5666441000067,None,255.13214686618142,15.633804144956391,0.0009802292490508325,1,"[0.4761489720140745, 0.7377572514136254, 0.566812004961072, 0.5039187416766157]","[160.72318117078612, 180.40567114775905, 202.49851916314077, 227.2969025994738]",Tone,"[22.427865668147323, 22.0, 21.51025092793338, 21.415962982174147]",False,526.5609523999738,529.3578311000019,529.3578311000019,530.5570120000048,['space'],1,3.3092544400133193,4.321929240017198,None,1,None,1,,[0.33659419999457896],,,,,,bihhjl,001,fr,0,0,2022-06-23_11h09.35.468,Cluster,2022.1.1,36.42254817810165,
,,,,2,0,2,0,9,0,9,0,,,frequency,,,,,,,,,,,,,,,,,,,,,,,,,,,,,,,,,,,,,,,,,,,,,,,,,,,,,,,,,,,,,,,,,,,,,,,,,,,,,,,,,,,,,,,,,,,,,,,,,,,,,,,,,,,,,,,,,,,530.9303586999886,None,707.1067811865476,20.0,0.00044402947908243597,0,"[0.5882265218129257, 0.47089043364005323, 0.7885300057640795, 0.5143138104814788]","[1781.797436280679, 1414.2135623730953, 1122.4620483093731, 890.8987181403394]",Major_3rd,"[43.33907123251382, 43.15895965915695, 39.0, 34.0]",False,533.0460829000222,535.912852599984,535.912852599984,537.1261417999631,None,0,3.4040312403813004,4.4072354403324425,None,1,None,1,,,,,,,,bihhjl,001,fr,0,0,2022-06-23_11h09.35.468,Cluster,2022.1.1,36.42254817810165,
,,,,2,0,2,0,10,0,10,0,,,time,,,,,,,,,,,,,,,,,,,,,,,,,,,,,,,,,,,,,,,,,,,,,,,,,,,,,,,,,,,,,,,,,,,,,,,,,,,,,,,,,,,,,,,,,,,,,,,,,,,,,,,,,,,,,,,,,,,537.4865654000314,None,1100.1831484989164,33.0,0.0021549274620127983,1,"[0.5926718097972964, 0.5926718097972964, 0.5926718097972964, 0.5926718097972964]","[837.131999907768, 171.676161546556, 154.33482116769548, 1484.2884549945652]",None,"[33.45210865578541, 22.08165514605822, 22.78182025365567, 43.49534248380189]",False,538.489792700042,541.3058867000509,541.3058867000509,542.512405800051,['space'],1,3.4204680401599035,4.443588240072131,None,1,None,1,,[0.30123310000635684],,,,,,bihhjl,001,fr,0,0,2022-06-23_11h09.35.468,Cluster,2022.1.1,36.42254817810165,
,,,,2,0,2,0,11,0,11,0,,,none,,,,,,,,,,,,,,,,,,,,,,,,,,,,,,,,,,,,,,,,,,,,,,,,,,,,,,,,,,,,,,,,,,,,,,,,,,,,,,,,,,,,,,,,,,,,,,,,,,,,,,,,,,,,,,,,,,,542.9667429999681,None,,,,,"[0.4309071773732842, 0.6490668728267434, 0.784053299874292, 0.4250731694739286]","[492.6625284069772, 4882.317869452732, 297.0224285329352, 1632.3808172676795]",None,"[33.0, 37.44107461450291, 23.0, 43.51466302373089]",True,543.9728142999811,546.8530181000242,546.8530181000242,548.0928398000542,None,1,3.321021340205334,4.358880840125494,None,1,None,1,,,0,,,,,bihhjl,001,fr,0,0,2022-06-23_11h09.35.468,Cluster,2022.1.1,36.42254817810165,
,,,,2,0,2,0,12,0,12,0,,,time,,,,,,,,,,,,,,,,,,,,,,,,,,,,,,,,,,,,,,,,,,,,,,,,,,,,,,,,,,,,,,,,,,,,,,,,,,,,,,,,,,,,,,,,,,,,,,,,,,,,,,,,,,,,,,,,,,,548.3621225999668,None,307.7861033362292,19.0,0.0009470753640623546,1,"[0.6543387424655969, 0.6543387424655969, 0.6543387424655969, 0.6543387424655969]","[162.82059336131206, 1989.4680118167698, 335.1611549554994, 725.4440130818288]",None,"[22.427865668147323, 42.90010724484241, 24.33777877591176, 34.0]",False,549.4293969999999,552.4151665000245,552.4151665000245,553.6297550000018,['space'],1,3.6355364600894973,4.657580960076302,None,1,None,1,,[0.35384889994747937],,,,,,bihhjl,001,fr,0,0,2022-06-23_11h09.35.468,Cluster,2022.1.1,36.42254817810165,
,,,,2,0,2,0,13,0,13,0,,,time,,,,,,,,,,,,,,,,,,,,,,,,,,,,,,,,,,,,,,,,,,,,,,,,,,,,,,,,,,,,,,,,,,,,,,,,,,,,,,,,,,,,,,,,,,,,,,,,,,,,,,,,,,,,,,,,,,,554.1323060999857,None,2801.5580395242096,37.91363634999545,0.005281589557961205,0,"[0.5605602645799765, 0.5605602645799765, 0.5605602645799765, 0.5605602645799765]","[2285.9023375931442, 148.3155670303053, 728.2742223064687, 524.4147884455291]",None,"[42.965464858798846, 23.0, 34.0, 34.0]",False,555.1507496000268,557.8550127999624,557.8550127999624,559.064524800051,None,0,3.2732295400928706,4.296481040073559,None,1,None,1,,,,,,,,bihhjl,001,fr,0,0,2022-06-23_11h09.35.468,Cluster,2022.1.1,36.42254817810165,
,,,,2,0,2,0,14,0,14,0,,,time,,,,,,,,,,,,,,,,,,,,,,,,,,,,,,,,,,,,,,,,,,,,,,,,,,,,,,,,,,,,,,,,,,,,,,,,,,,,,,,,,,,,,,,,,,,,,,,,,,,,,,,,,,,,,,,,,,,559.4818707000231,None,1741.101126592249,40.0,0.006312169477569905,1,"[0.5298223203001978, 0.5298223203001978, 0.5298223203001978, 0.5298223203001978]","[1525.0532336265007, 449.5733750604572, 396.6684158930536, 141.51602120988588]",None,"[43.49534248380189, 31.0, 28.0, 23.165536251453887]",False,561.248591999989,563.8556923000142,563.8556923000142,565.069764600019,['space'],1,3.144866260350682,4.148702360340394,None,1,None,1,,[0.4269282999448478],,,,,,bihhjl,001,fr,0,0,2022-06-23_11h09.35.468,Cluster,2022.1.1,36.42254817810165,
,,,,2,0,2,0,15,0,15,0,,,both,,,,,,,,,,,,,,,,,,,,,,,,,,,,,,,,,,,,,,,,,,,,,,,,,,,,,,,,,,,,,,,,,,,,,,,,,,,,,,,,,,,,,,,,,,,,,,,,,,,,,,,,,,,,,,,,,,,565.4380972000072,None,,,,,"[0.733138794748239, 0.733138794748239, 0.733138794748239, 0.733138794748239]","[240.5685316336605, 303.09735694754954, 381.87874018571773, 481.1370632673209]",Major_3rd,"[21.415962982174147, 23.385027500518813, 27.0, 33.0]",True,566.4275508000283,569.6492830000352,569.6492830000352,570.8652600999922,None,1,3.9750247400952503,4.99898184009362,None,1,None,1,,,0,,,,,bihhjl,001,fr,0,0,2022-06-23_11h09.35.468,Cluster,2022.1.1,36.42254817810165,
,,,,2,0,2,0,16,0,16,0,,,none,,,,,,,,,,,,,,,,,,,,,,,,,,,,,,,,,,,,,,,,,,,,,,,,,,,,,,,,,,,,,,,,,,,,,,,,,,,,,,,,,,,,,,,,,,,,,,,,,,,,,,,,,,,,,,,,,,,571.4537936999695,None,5338.1726832908325,31.363495548070134,0.00518987112291197,1,"[0.5249585531599704, 0.6905164234770818, 0.5063442394630538, 0.6020216972391252]","[1767.2052819998391, 7258.678189805251, 529.7385554429011, 619.1711266201442]",None,"[43.33907123251382, 43.0, 34.65065241278761, 35.20851958385715]",False,572.445427800063,575.1890535999555,575.1890535999555,576.397846100037,['space'],1,3.347480340045877,4.366292940103449,None,1,None,1,,[0.30876410007476807],,,,,,bihhjl,001,fr,0,0,2022-06-23_11h09.35.468,Cluster,2022.1.1,36.42254817810165,
,,,,2,0,2,0,17,0,17,0,,,none,,,,,,,,,,,,,,,,,,,,,,,,,,,,,,,,,,,,,,,,,,,,,,,,,,,,,,,,,,,,,,,,,,,,,,,,,,,,,,,,,,,,,,,,,,,,,,,,,,,,,,,,,,,,,,,,,,,576.8528839000501,None,933.0329915368076,26.0,0.000840985460656173,0,"[0.6694274703239899, 0.6825265768499809, 0.7957099746397038, 0.4857617088853544]","[5473.70267909469, 1737.3256430641845, 562.5834182546846, 3868.4729407784016]",None,"[37.95896922020435, 43.33907123251382, 35.0, 41.0]",False,578.7922363999533,581.9558810000308,581.9558810000308,583.1781266999897,None,0,3.6575651803286746,4.684196680318564,None,1,None,1,,,,,,,,bihhjl,001,fr,0,0,2022-06-23_11h09.35.468,Cluster,2022.1.1,36.42254817810165,
,,,,2,0,2,0,18,0,18,0,,,time,,,,,,,,,,,,,,,,,,,,,,,,,,,,,,,,,,,,,,,,,,,,,,,,,,,,,,,,,,,,,,,,,,,,,,,,,,,,,,,,,,,,,,,,,,,,,,,,,,,,,,,,,,,,,,,,,,,583.5119748000288,None,7311.489829615148,37.0,0.011374468931551264,1,"[0.4799232679536385, 0.4799232679536385, 0.4799232679536385, 0.4799232679536385]","[6069.428423453526, 411.6144401739172, 2445.2908392251097, 796.4829362420455]",None,"[39.141408306701194, 29.0, 43.24799782389515, 33.45210865578541]",False,584.52712600003,587.0057919999817,587.0057919999817,588.2135464999592,['space'],1,2.942179440171458,3.9843083401210606,None,1,None,1,,[0.32485179998911917],,,,,,bihhjl,001,fr,0,0,2022-06-23_11h09.35.468,Cluster,2022.1.1,36.42254817810165,
,,,,2,0,2,0,19,0,19,0,,,frequency,,,,,,,,,,,,,,,,,,,,,,,,,,,,,,,,,,,,,,,,,,,,,,,,,,,,,,,,,,,,,,,,,,,,,,,,,,,,,,,,,,,,,,,,,,,,,,,,,,,,,,,,,,,,,,,,,,,588.5498380999779,None,,,,,"[0.6694720372374565, 0.5950086400086961, 0.5797736181609661, 0.7638173208942871]","[325.5344841961036, 487.7506214384223, 730.8002078521873, 1094.963123207882]",Perfect_5th,"[24.0, 33.0, 34.0, 39.0]",True,589.5647291999776,592.454286799999,592.454286799999,593.6804205999942,None,1,3.654173040180467,4.665734440204687,None,1,None,1,,,0,,,,,bihhjl,001,fr,0,0,2022-06-23_11h09.35.468,Cluster,2022.1.1,36.42254817810165,
,,,,3,0,3,0,0,0,0,0,,,none,,,,,,,,,,,,,,,,,,,,,,,,,,,,,,,,,,,,,,,,,,,,,,,,,,,,,,,,,,,,,,,,,,,,,,,,,,,,,,,,,,,,,,,,,,,,,,,,,,,,,,,,,,,,,,,,,,,601.7993234000169,None,172.2947063020232,16.08165514605822,0.0023333085514826947,1,"[0.6622394508855941, 0.5475458441201495, 0.6334463722462853, 0.7053230223411527]","[389.83541295796124, 398.1913026274836, 2492.0639106786266, 517.654193705962]",None,"[28.0, 28.0, 43.24799782389515, 34.0]",False,602.782566000009,605.6532863000175,605.6532863000175,606.8653558000224,['space'],1,3.5886985402321443,4.609498540288769,None,1,None,1,,[0.392107899999246],,,,,,bihhjl,001,fr,0,0,2022-06-23_11h09.35.468,Cluster,2022.1.1,36.42254817810165,
,,,,3,0,3,0,1,0,1,0,,,both,,,,,,,,,,,,,,,,,,,,,,,,,,,,,,,,,,,,,,,,,,,,,,,,,,,,,,,,,,,,,,,,,,,,,,,,,,,,,,,,,,,,,,,,,,,,,,,,,,,,,,,,,,,,,,,,,,,607.437389299972,None,961.9757575115486,29.0,0.0012111077482817895,1,"[0.5925316070159566, 0.5925316070159566, 0.5925316070159566, 0.5925316070159566]","[606.006753188683, 680.2195814734818, 763.5206647208688, 857.0229692491205]",Tone,"[35.20851958385715, 34.77164448763786, 33.61213434736711, 33.83510414802811]",False,608.4525348000461,611.257610199973,611.257610199973,612.487015599967,['space'],1,3.40035354020074,4.419815240195021,None,1,None,1,,[0.3897033999674022],,,,,,bihhjl,001,fr,0,0,2022-06-23_11h09.35.468,Cluster,2022.1.1,36.42254817810165,
,,,,3,0,3,0,2,0,2,0,,,time,,,,,,,,,,,,,,,,,,,,,,,,,,,,,,,,,,,,,,,,,,,,,,,,,,,,,,,,,,,,,,,,,,,,,,,,,,,,,,,,,,,,,,,,,,,,,,,,,,,,,,,,,,,,,,,,,,,612.9107620000141,None,406.12619817811805,19.0,0.0006795016959419141,0,"[0.6706464533870027, 0.6706464533870027, 0.6706464533870027, 0.6706464533870027]","[2458.056962624641, 1070.116672696626, 880.8924791218216, 726.2192013013229]",None,"[43.24799782389515, 37.971631624891515, 34.0, 34.0]",False,613.9428076000186,616.97066979995,616.97066979995,618.174459300004,None,0,3.6912429401418194,4.713032640051097,None,1,None,1,,,,,,,,bihhjl,001,fr,0,0,2022-06-23_11h09.35.468,Cluster,2022.1.1,36.42254817810165,
,,,,3,0,3,0,3,0,3,0,,,time,,,,,,,,,,,,,,,,,,,,,,,,,,,,,,,,,,,,,,,,,,,,,,,,,,,,,,,,,,,,,,,,,,,,,,,,,,,,,,,,,,,,,,,,,,,,,,,,,,,,,,,,,,,,,,,,,,,618.7028842000291,None,2515.3015761545557,37.24799782389515,0.006187786567700691,0,"[0.7735345984839166, 0.7735345984839166, 0.7735345984839166, 0.7735345984839166]","[375.63821710428294, 2121.584811561103, 1950.5461268295305, 2529.763427889885]",None,"[26.91762810907877, 42.843714326279006, 43.0, 43.24799782389515]",False,619.6945643000072,623.0548300000373,623.0548300000373,624.2550259999698,None,0,4.128226240049116,5.144150740001351,None,1,None,1,,,,,,,,bihhjl,001,fr,0,0,2022-06-23_11h09.35.468,Cluster,2022.1.1,36.42254817810165,
,,,,3,0,3,0,4,0,4,0,,,both,,,,,,,,,,,,,,,,,,,,,,,,,,,,,,,,,,,,,,,,,,,,,,,,,,,,,,,,,,,,,,,,,,,,,,,,,,,,,,,,,,,,,,,,,,,,,,,,,,,,,,,,,,,,,,,,,,,624.8782248999923,None,233.2582478842019,19.0,0.0017850240607727036,1,"[0.722507896781275, 0.722507896781275, 0.722507896781275, 0.722507896781275]","[370.27438807164117, 329.87697769322364, 293.8869765709022, 261.8235307051567]",Tone,"[26.0, 24.33777877591176, 23.0, 22.0]",False,625.9079019000055,629.1175072999904,629.1175072999904,630.3227211000631,['space'],1,3.9064013400347903,4.928585740039125,None,1,None,1,,[0.3350888000568375],,,,,,bihhjl,001,fr,0,0,2022-06-23_11h09.35.468,Cluster,2022.1.1,36.42254817810165,
,,,,3,0,3,0,5,0,5,0,,,frequency,,,,,,,,,,,,,,,,,,,,,,,,,,,,,,,,,,,,,,,,,,,,,,,,,,,,,,,,,,,,,,,,,,,,,,,,,,,,,,,,,,,,,,,,,,,,,,,,,,,,,,,,,,,,,,,,,,,630.8820537000429,None,,,,,"[0.5217395757690825, 0.6221921845119733, 0.5966700459534289, 0.6449135142921505]","[2774.42716692846, 3495.5591890133637, 4404.128603391388, 5548.854333856919]",Major_3rd,"[43.91363634999545, 43.0, 39.0, 37.95896922020435]",True,631.872934199986,634.6458229999989,634.6458229999989,635.8730063999537,None,1,3.425589540041983,4.4436037400737405,None,1,None,1,,,0,,,,,bihhjl,001,fr,0,0,2022-06-23_11h09.35.468,Cluster,2022.1.1,36.42254817810165,
,,,,3,0,3,0,6,0,6,0,,,time,,,,,,,,,,,,,,,,,,,,,,,,,,,,,,,,,,,,,,,,,,,,,,,,,,,,,,,,,,,,,,,,,,,,,,,,,,,,,,,,,,,,,,,,,,,,,,,,,,,,,,,,,,,,,,,,,,,636.354655400035,None,125.0,17.0,0.005116464961403773,1,"[0.47104212554548663, 0.47104212554548663, 0.47104212554548663, 0.47104212554548663]","[1637.6391262252032, 154.83531686255043, 191.6159523081742, 3460.5404774643257]",None,"[43.51466302373089, 22.78182025365567, 21.75926950267614, 43.11180246142274]",False,637.3618535000132,639.8093439999502,639.8093439999502,641.0298576999921,['space'],1,2.914738040184602,3.921459840144962,None,1,None,1,,[0.40722480008844286],,,,,,bihhjl,001,fr,0,0,2022-06-23_11h09.35.468,Cluster,2022.1.1,36.42254817810165,
,,,,3,0,3,0,7,0,7,0,,,time,,,,,,,,,,,,,,,,,,,,,,,,,,,,,,,,,,,,,,,,,,,,,,,,,,,,,,,,,,,,,,,,,,,,,,,,,,,,,,,,,,,,,,,,,,,,,,,,,,,,,,,,,,,,,,,,,,,641.3269991000416,None,1392.946903054145,37.0,0.003607714477628996,1,"[0.6593582451674418, 0.6593582451674418, 0.6593582451674418, 0.6593582451674418]","[1909.4199322417978, 262.1270627788561, 2925.380479405574, 323.20657170591204]",None,"[43.0, 22.0, 44.0, 24.0]",False,642.3417686000466,645.3436662000604,645.3436662000604,646.5561775000533,['space'],1,3.665219440124929,4.688151240232401,None,1,None,1,,[0.5158954999642447],,,,,,bihhjl,001,fr,0,0,2022-06-23_11h09.35.468,Cluster,2022.1.1,36.42254817810165,
,,,,3,0,3,0,8,0,8,0,,,both,,,,,,,,,,,,,,,,,,,,,,,,,,,,,,,,,,,,,,,,,,,,,,,,,,,,,,,,,,,,,,,,,,,,,,,,,,,,,,,,,,,,,,,,,,,,,,,,,,,,,,,,,,,,,,,,,,,647.0705908000236,None,534.1277181634497,28.650652412787608,0.001790071859391438,1,"[0.44990023513376265, 0.44990023513376265, 0.44990023513376265, 0.44990023513376265]","[1345.9175108928932, 1068.2554363268996, 847.8749016980341, 672.9587554464465]",Major_3rd,"[42.41586704910984, 37.971631624891515, 33.83510414802811, 34.77164448763786]",False,648.0844273000257,650.4502014999744,650.4502014999744,651.6616216000402,['space'],1,2.843850340228528,3.849020440131426,None,1,None,1,,[0.5000963999191299],,,,,,bihhjl,001,fr,0,0,2022-06-23_11h09.35.468,Cluster,2022.1.1,36.42254817810165,
,,,,3,0,3,0,9,0,9,0,,,none,,,,,,,,,,,,,,,,,,,,,,,,,,,,,,,,,,,,,,,,,,,,,,,,,,,,,,,,,,,,,,,,,,,,,,,,,,,,,,,,,,,,,,,,,,,,,,,,,,,,,,,,,,,,,,,,,,,651.9680137999821,None,,,,,"[0.749164660466409, 0.7028653592243383, 0.5491220054502954, 0.4731398982948673]","[783.7119958892504, 3462.5975676834983, 147.53180062711388, 465.4168022024059]",None,"[33.61213434736711, 43.11180246142274, 23.0, 32.0]",True,652.9793428999837,656.0189191000536,656.0189191000536,657.2230068000499,None,1,3.5227150401333347,4.548405240057036,None,1,None,1,,,0,,,,,bihhjl,001,fr,0,0,2022-06-23_11h09.35.468,Cluster,2022.1.1,36.42254817810165,
,,,,3,0,3,0,10,0,10,0,,,both,,,,,,,,,,,,,,,,,,,,,,,,,,,,,,,,,,,,,,,,,,,,,,,,,,,,,,,,,,,,,,,,,,,,,,,,,,,,,,,,,,,,,,,,,,,,,,,,,,,,,,,,,,,,,,,,,,,657.5675447999965,None,164.93848884661182,16.0,0.0024805170545709183,1,"[0.7249338917869685, 0.7249338917869685, 0.7249338917869685, 0.7249338917869685]","[415.6189480713941, 329.8769776932237, 261.82353070515677, 207.809474035697]",Major_3rd,"[29.0, 24.33777877591176, 22.0, 21.51025092793338]",False,658.5770421000198,661.7670368000399,661.7670368000399,662.9900536000496,['space'],1,3.9233361402293667,4.933624540222809,None,1,None,1,,[0.28424189996439964],,,,,,bihhjl,001,fr,0,0,2022-06-23_11h09.35.468,Cluster,2022.1.1,36.42254817810165,
,,,,3,0,3,0,11,0,11,0,,,time,,,,,,,,,,,,,,,,,,,,,,,,,,,,,,,,,,,,,,,,,,,,,,,,,,,,,,,,,,,,,,,,,,,,,,,,,,,,,,,,,,,,,,,,,,,,,,,,,,,,,,,,,,,,,,,,,,,663.5629266999895,None,757.8582832551998,26.0,0.0008037758069913915,0,"[0.760914853343913, 0.760914853343913, 0.760914853343913, 0.760914853343913]","[584.4380121146405, 5920.191550568554, 1332.681894347924, 5619.614348580361]",None,"[35.20901132748202, 39.0, 42.41586704910984, 37.95896922020435]",False,664.5896177999675,667.9008893000428,667.9008893000428,669.1022639999865,None,0,4.071848640218377,5.088357440195978,None,1,None,1,,,,,,,,bihhjl,001,fr,0,0,2022-06-23_11h09.35.468,Cluster,2022.1.1,36.42254817810165,
,,,,3,0,3,0,12,0,12,0,,,frequency,,,,,,,,,,,,,,,,,,,,,,,,,,,,,,,,,,,,,,,,,,,,,,,,,,,,,,,,,,,,,,,,,,,,,,,,,,,,,,,,,,,,,,,,,,,,,,,,,,,,,,,,,,,,,,,,,,,669.7231485999655,None,1576.828656119742,37.51466302373089,0.004115839584218706,1,"[0.4739961952025811, 0.453615353702096, 0.6096314079183431, 0.5268886979193926]","[7946.718463690828, 5303.798257601692, 3539.8606463621627, 2362.5735344861564]",Perfect_5th,"[44.865571088928796, 37.363495548070134, 43.0, 43.00000000000001]",False,670.7204769999953,673.2986631999956,673.2986631999956,674.500860500033,['space'],1,3.088120540138334,4.109475540113635,None,1,None,1,,[0.5080914000282064],,,,,,bihhjl,001,fr,0,0,2022-06-23_11h09.35.468,Cluster,2022.1.1,36.42254817810165,
,,,,3,0,3,0,13,0,13,0,,,time,,,,,,,,,,,,,,,,,,,,,,,,,,,,,,,,,,,,,,,,,,,,,,,,,,,,,,,,,,,,,,,,,,,,,,,,,,,,,,,,,,,,,,,,,,,,,,,,,,,,,,,,,,,,,,,,,,,674.8738425000338,None,1841.640158668079,37.095439700475254,0.004842979233913414,0,"[0.4536779709533895, 0.4536779709533895, 0.4536779709533895, 0.4536779709533895]","[340.89743259075186, 7543.250245221472, 203.51950867031502, 130.359034784271]",None,"[25.0, 44.0, 21.51025092793338, 24.0]",False,675.8880306000356,678.2731692000525,678.2731692000525,679.4766666999785,None,0,2.8377546401461586,3.859179140185006,None,1,None,1,,,,,,,,bihhjl,001,fr,0,0,2022-06-23_11h09.35.468,Cluster,2022.1.1,36.42254817810165,
,,,,3,0,3,0,14,0,14,0,,,both,,,,,,,,,,,,,,,,,,,,,,,,,,,,,,,,,,,,,,,,,,,,,,,,,,,,,,,,,,,,,,,,,,,,,,,,,,,,,,,,,,,,,,,,,,,,,,,,,,,,,,,,,,,,,,,,,,,679.7955685000634,None,,,,,"[0.6185692176082512, 0.6185692176082512, 0.6185692176082512, 0.6185692176082512]","[247.97665886870124, 278.34438844667704, 312.4310123912769, 350.6919541240838]",Tone,"[21.633804144956393, 22.622938488500367, 23.385027500518813, 25.508643194256045]",True,680.7953774000052,683.684861100046,683.684861100046,684.908984699985,None,1,3.5224949402036145,4.556521440274082,None,1,None,1,,,0,,,,,bihhjl,001,fr,0,0,2022-06-23_11h09.35.468,Cluster,2022.1.1,36.42254817810165,
,,,,3,0,3,0,15,0,15,0,,,frequency,,,,,,,,,,,,,,,,,,,,,,,,,,,,,,,,,,,,,,,,,,,,,,,,,,,,,,,,,,,,,,,,,,,,,,,,,,,,,,,,,,,,,,,,,,,,,,,,,,,,,,,,,,,,,,,,,,,685.3853453999618,None,2828.42712474619,39.0,0.005836442887393175,0,"[0.7750024862874156, 0.4754060382220325, 0.43467045230616125, 0.5897042362654117]","[561.2310241546866, 840.8964152537146, 1259.9210498948732, 1887.748625363387]",Perfect_5th,"[35.0, 33.45210865578541, 42.0, 43.095439700475254]",False,686.4786127000116,689.1955325000454,689.1955325000454,690.4176821999718,None,0,3.32431942014955,4.340237220167182,None,1,None,1,,,,,,,,bihhjl,001,fr,0,0,2022-06-23_11h09.35.468,Cluster,2022.1.1,36.42254817810165,
,,,,3,0,3,0,16,0,16,0,,,frequency,,,,,,,,,,,,,,,,,,,,,,,,,,,,,,,,,,,,,,,,,,,,,,,,,,,,,,,,,,,,,,,,,,,,,,,,,,,,,,,,,,,,,,,,,,,,,,,,,,,,,,,,,,,,,,,,,,,690.8444583000382,None,1296.8763286810372,36.0,0.0033658696535910915,1,"[0.4483016952892286, 0.7195765727278304, 0.6399034945708921, 0.7162730264815083]","[816.9808928078104, 917.0300463706751, 1029.3314242104673, 1155.3854588084853]",Tone,"[33.45210865578541, 34.80359918411726, 37.0, 39.71067816702312]",False,691.8366182000609,694.6882998000365,694.6882998000365,695.905808200012,['space'],1,3.5487895401893184,4.5738993402337655,None,1,None,1,,[0.4519559999462217],,,,,,bihhjl,001,fr,0,0,2022-06-23_11h09.35.468,Cluster,2022.1.1,36.42254817810165,
,,,,3,0,3,0,17,0,17,0,,,time,,,,,,,,,,,,,,,,,,,,,,,,,,,,,,,,,,,,,,,,,,,,,,,,,,,,,,,,,,,,,,,,,,,,,,,,,,,,,,,,,,,,,,,,,,,,,,,,,,,,,,,,,,,,,,,,,,,696.455239700037,None,535.8867312681471,26.0,0.0013138074973436601,1,"[0.7876033603429213, 0.7876033603429213, 0.7876033603429213, 0.7876033603429213]","[162.71853453480253, 5457.009333053742, 4228.163055033519, 457.76857235705245]",None,"[22.427865668147323, 37.363495548070134, 39.323092750822866, 32.0]",False,697.4691547000548,700.8612506999634,700.8612506999634,702.0912647000514,['space'],1,4.1631489403080195,5.176626640255563,None,1,None,1,,[0.508722500060685],,,,,,bihhjl,001,fr,0,0,2022-06-23_11h09.35.468,Cluster,2022.1.1,36.42254817810165,
,,,,3,0,3,0,18,0,18,0,,,none,,,,,,,,,,,,,,,,,,,,,,,,,,,,,,,,,,,,,,,,,,,,,,,,,,,,,,,,,,,,,,,,,,,,,,,,,,,,,,,,,,,,,,,,,,,,,,,,,,,,,,,,,,,,,,,,,,,702.6929547999753,None,,,,,"[0.5512151908875746, 0.7494306447015058, 0.45431763363395783, 0.4451870242401692]","[154.51573851701207, 4442.330902347193, 695.4530986817637, 565.1289037063997]",None,"[22.78182025365567, 39.0, 34.14547453139008, 35.0]",True,703.7111388000194,706.4915228000609,706.4915228000609,707.7180015000049,None,1,3.2361111401114613,4.25794204021804,None,1,None,1,,,0,,,,,bihhjl,001,fr,0,0,2022-06-23_11h09.35.468,Cluster,2022.1.1,36.42254817810165,
,,,,3,0,3,0,19,0,19,0,,,both,,,,,,,,,,,,,,,,,,,,,,,,,,,,,,,,,,,,,,,,,,,,,,,,,,,,,,,,,,,,,,,,,,,,,,,,,,,,,,,,,,,,,,,,,,,,,,,,,,,,,,,,,,,,,,,,,,,708.0017331000417,None,589.8488158777599,29.20901132748202,0.0016579679961199667,1,"[0.6028567141895492, 0.6028567141895492, 0.6028567141895492, 0.6028567141895492]","[371.58146968997744, 417.0860975820193, 468.1633154132764, 525.4955539620933]",Tone,"[26.91762810907877, 29.0, 32.03875527686212, 34.65065241278761]",False,709.0226385999704,711.862620400032,711.862620400032,713.0774798999773,['space'],1,3.4545554399956018,4.478911740006879,None,1,None,1,,[0.3725510999793187],,,,,,bihhjl,001,fr,0,0,2022-06-23_11h09.35.468,Cluster,2022.1.1,36.42254817810165,
,,,,4,0,4,0,0,0,0,0,,,frequency,,,,,,,,,,,,,,,,,,,,,,,,,,,,,,,,,,,,,,,,,,,,,,,,,,,,,,,,,,,,,,,,,,,,,,,,,,,,,,,,,,,,,,,,,,,,,,,,,,,,,,,,,,,,,,,,,,,718.10565459996,None,125.0,18.0,0.005740768107484416,1,"[0.7065846088338124, 0.5374660616257813, 0.6127096903621881, 0.6133390174774441]","[314.9802624737183, 250.00000000000003, 198.42513149602496, 157.49013123685916]",Major_3rd,"[24.0, 21.633804144956393, 21.51025092793338, 22.78182025365567]",False,719.1104800000321,721.9881217000075,721.9881217000075,723.195797399967,['space'],1,3.483827100135386,4.498609200119972,None,1,None,1,,[0.27924330008681864],,,,,,bihhjl,001,fr,0,0,2022-06-23_11h09.35.468,Cluster,2022.1.1,36.42254817810165,
,,,,4,0,4,0,1,0,1,0,,,both,,,,,,,,,,,,,,,,,,,,,,,,,,,,,,,,,,,,,,,,,,,,,,,,,,,,,,,,,,,,,,,,,,,,,,,,,,,,,,,,,,,,,,,,,,,,,,,,,,,,,,,,,,,,,,,,,,,723.651600799989,None,353.5533905932738,19.0,0.0007897582242723967,1,"[0.7451334095399399, 0.7451334095399399, 0.7451334095399399, 0.7451334095399399]","[140.30775603867167, 176.77669529663694, 222.72467953508487, 280.6155120773433]",Major_3rd,"[23.165536251453887, 22.08165514605822, 21.381870299461333, 22.622938488500367]",False,724.6626133000245,727.9383234999841,727.9383234999841,729.1523980000056,['space'],1,4.0139676401158795,5.017298240214586,None,1,None,1,,[0.2816741999704391],,,,,,bihhjl,001,fr,0,0,2022-06-23_11h09.35.468,Cluster,2022.1.1,36.42254817810165,
,,,,4,0,4,0,2,0,2,0,,,both,,,,,,,,,,,,,,,,,,,,,,,,,,,,,,,,,,,,,,,,,,,,,,,,,,,,,,,,,,,,,,,,,,,,,,,,,,,,,,,,,,,,,,,,,,,,,,,,,,,,,,,,,,,,,,,,,,,729.7288839999819,None,2679.2283737537623,37.605416509454585,0.00567448344573741,0,"[0.7743935601381509, 0.7743935601381509, 0.7743935601381509, 0.7743935601381509]","[1687.8081127839866, 1894.5005514286909, 2126.504969479885, 2386.9211237824525]",Tone,"[43.33907123251382, 43.095439700475254, 42.843714326279006, 43.00000000000001]",False,730.7276465999894,734.0942856000038,734.0942856000038,735.3090208000503,None,0,4.139513140078634,5.156215540133417,None,1,None,1,,,,,,,,bihhjl,001,fr,0,0,2022-06-23_11h09.35.468,Cluster,2022.1.1,36.42254817810165,
,,,,4,0,4,0,3,0,3,0,,,time,,,,,,,,,,,,,,,,,,,,,,,,,,,,,,,,,,,,,,,,,,,,,,,,,,,,,,,,,,,,,,,,,,,,,,,,,,,,,,,,,,,,,,,,,,,,,,,,,,,,,,,,,,,,,,,,,,,735.9304530000081,None,,,,,"[0.5405793952123854, 0.5405793952123854, 0.5405793952123854, 0.5405793952123854]","[175.62324529828325, 129.93452374827382, 498.50631994269975, 6975.312301452078]",None,"[22.08165514605822, 24.0, 33.55222024559278, 42.350517293622175]",True,736.9366511000553,739.5751233999617,739.5751233999617,740.804540000041,None,1,3.208458840032108,4.238699840032496,None,1,None,1,,,0,,,,,bihhjl,001,fr,0,0,2022-06-23_11h09.35.468,Cluster,2022.1.1,36.42254817810165,
,,,,4,0,4,0,4,0,4,0,,,frequency,,,,,,,,,,,,,,,,,,,,,,,,,,,,,,,,,,,,,,,,,,,,,,,,,,,,,,,,,,,,,,,,,,,,,,,,,,,,,,,,,,,,,,,,,,,,,,,,,,,,,,,,,,,,,,,,,,,741.2072856000159,None,246.7485122438837,15.633804144956391,0.001051652846321961,1,"[0.5489196147453745, 0.6358769338937104, 0.4606456339759044, 0.45682363616939253]","[155.44182230315593, 174.477546255342, 195.84442395376456, 219.8279332611118]",Tone,"[22.78182025365567, 22.08165514605822, 21.75926950267614, 21.381870299461333]",False,742.202356099966,744.8746137999697,744.8746137999697,746.1037442999659,['space'],1,3.1449232400627807,4.176730840117671,None,1,None,1,,[0.41642849997151643],,,,,,bihhjl,001,fr,0,0,2022-06-23_11h09.35.468,Cluster,2022.1.1,36.42254817810165,
,,,,4,0,4,0,5,0,5,0,,,none,,,,,,,,,,,,,,,,,,,,,,,,,,,,,,,,,,,,,,,,,,,,,,,,,,,,,,,,,,,,,,,,,,,,,,,,,,,,,,,,,,,,,,,,,,,,,,,,,,,,,,,,,,,,,,,,,,,746.4192975000478,None,2828.42712474619,40.0,0.006548596627134577,1,"[0.601647605941928, 0.6096353885475146, 0.5394664451947984, 0.5372920651516535]","[1266.1685873846668, 203.2313104971395, 1622.4122586989456, 6915.577620425962]",None,"[42.0, 21.51025092793338, 43.51466302373089, 42.350517293622175]",False,747.4488619000185,750.2185307999607,750.2185307999607,751.4339149000589,['space'],1,3.3216924401931465,4.330772240180522,None,1,None,1,,[0.41837079997640103],,,,,,bihhjl,001,fr,0,0,2022-06-23_11h09.35.468,Cluster,2022.1.1,36.42254817810165,
,,,,4,0,4,0,6,0,6,0,,,both,,,,,,,,,,,,,,,,,,,,,,,,,,,,,,,,,,,,,,,,,,,,,,,,,,,,,,,,,,,,,,,,,,,,,,,,,,,,,,,,,,,,,,,,,,,,,,,,,,,,,,,,,,,,,,,,,,,751.8360023000278,None,1515.7165665103996,41.0,0.005568608891974556,1,"[0.5924985098225342, 0.5924985098225342, 0.5924985098225342, 0.5924985098225342]","[7638.7328312833415, 5098.2425092770545, 3402.6686438034267, 2271.008858141757]",Perfect_5th,"[44.0, 37.44107461450291, 43.11180246142274, 42.965464858798846]",False,752.8528142999858,755.6667386000045,755.6667386000045,756.8864280000562,['space'],1,3.3923951401375234,4.418287740088999,None,1,None,1,,[0.29689400002826005],,,,,,bihhjl,001,fr,0,0,2022-06-23_11h09.35.468,Cluster,2022.1.1,36.42254817810165,
,,,,4,0,4,0,7,0,7,0,,,time,,,,,,,,,,,,,,,,,,,,,,,,,,,,,,,,,,,,,,,,,,,,,,,,,,,,,,,,,,,,,,,,,,,,,,,,,,,,,,,,,,,,,,,,,,,,,,,,,,,,,,,,,,,,,,,,,,,757.3183169000549,None,2067.598142137798,36.90010724484241,0.005340577657167967,0,"[0.47415088399647254, 0.47415088399647254, 0.47415088399647254, 0.47415088399647254]","[568.310645100386, 228.16179949539273, 570.3346876967445, 2021.0313561193248]",None,"[35.20901132748202, 21.415962982174147, 35.20901132748202, 42.90010724484241]",False,758.3317998000421,760.765733200009,760.765733200009,761.9837424999569,None,0,2.9326044402550906,3.96290154021699,None,1,None,1,,,,,,,,bihhjl,001,fr,0,0,2022-06-23_11h09.35.468,Cluster,2022.1.1,36.42254817810165,
,,,,4,0,4,0,8,0,8,0,,,frequency,,,,,,,,,,,,,,,,,,,,,,,,,,,,,,,,,,,,,,,,,,,,,,,,,,,,,,,,,,,,,,,,,,,,,,,,,,,,,,,,,,,,,,,,,,,,,,,,,,,,,,,,,,,,,,,,,,,762.3430481000105,None,,,,,"[0.7864590066165835, 0.7251895058102288, 0.4206810202106582, 0.5049273053014007]","[1965.2549201782756, 1750.8430892058204, 1559.823863838337, 1389.6450808182856]",Tone,"[42.90010724484241, 43.33907123251382, 43.49534248380189, 43.0]",True,763.3430842000525,766.3106553000398,766.3106553000398,767.5258907000534,None,1,3.4649667401099578,4.487084240070544,None,1,None,1,,,0,,,,,bihhjl,001,fr,0,0,2022-06-23_11h09.35.468,Cluster,2022.1.1,36.42254817810165,
,,,,4,0,4,0,9,0,9,0,,,none,,,,,,,,,,,,,,,,,,,,,,,,,,,,,,,,,,,,,,,,,,,,,,,,,,,,,,,,,,,,,,,,,,,,,,,,,,,,,,,,,,,,,,,,,,,,,,,,,,,,,,,,,,,,,,,,,,,767.8614400000079,None,2829.9288955800757,37.91363634999545,0.005142931023194375,1,"[0.5792460170228007, 0.4300462580125286, 0.700667432905372, 0.5932006777611467]","[2859.448728077107, 531.1891745329086, 293.87696205667817, 258.5007696179261]",None,"[43.91363634999545, 34.65065241278761, 23.0, 22.0]",False,768.8544372000033,771.5978397000581,771.5978397000581,772.8079416999826,['space'],1,3.3527999402722344,4.370004840195179,None,1,None,1,,[0.3476029000012204],,,,,,bihhjl,001,fr,0,0,2022-06-23_11h09.35.468,Cluster,2022.1.1,36.42254817810165,
,,,,4,0,4,0,10,0,10,0,,,time,,,,,,,,,,,,,,,,,,,,,,,,,,,,,,,,,,,,,,,,,,,,,,,,,,,,,,,,,,,,,,,,,,,,,,,,,,,,,,,,,,,,,,,,,,,,,,,,,,,,,,,,,,,,,,,,,,,773.2665741000092,None,8000.0,33.0,0.008109050486794653,0,"[0.6751011739077317, 0.6751011739077317, 0.6751011739077317, 0.6751011739077317]","[140.34288279678748, 3616.292340256024, 1044.9979721008242, 6254.905605947554]",None,"[23.165536251453887, 43.0, 37.0, 40.0]",False,774.3056118000532,777.3560179000488,777.3560179000488,778.5713125000475,None,0,3.7273955401033163,4.7474191401852295,None,1,None,1,,,,,,,,bihhjl,001,fr,0,0,2022-06-23_11h09.35.468,Cluster,2022.1.1,36.42254817810165,
,,,,4,0,4,0,11,0,11,0,,,both,,,,,,,,,,,,,,,,,,,,,,,,,,,,,,,,,,,,,,,,,,,,,,,,,,,,,,,,,,,,,,,,,,,,,,,,,,,,,,,,,,,,,,,,,,,,,,,,,,,,,,,,,,,,,,,,,,,779.1093607000075,None,7964.768808020229,38.865571088928796,0.015837483895900423,0,"[0.5439949526218304, 0.5439949526218304, 0.5439949526218304, 0.5439949526218304]","[3160.8205961337044, 3982.3844040101153, 5017.489939385393, 6321.641192267407]",Major_3rd,"[43.7732142657211, 40.70748826461904, 37.44107461450291, 40.0]",False,780.1258638000581,782.7868838000577,782.7868838000577,783.9931605999591,None,0,3.2155909400898963,4.2395963401068,None,1,None,1,,,,,,,,bihhjl,001,fr,0,0,2022-06-23_11h09.35.468,Cluster,2022.1.1,36.42254817810165,
,,,,4,0,4,0,12,0,12,0,,,time,,,,,,,,,,,,,,,,,,,,,,,,,,,,,,,,,,,,,,,,,,,,,,,,,,,,,,,,,,,,,,,,,,,,,,,,,,,,,,,,,,,,,,,,,,,,,,,,,,,,,,,,,,,,,,,,,,,784.4151726999553,None,,,,,"[0.6403666103714794, 0.6403666103714794, 0.6403666103714794, 0.6403666103714794]","[1563.087007658707, 128.56812625126838, 866.4769264855773, 633.483777606869]",None,"[43.49534248380189, 24.0, 33.83510414802811, 35.0]",True,785.409478800022,788.3403772000456,788.3403772000456,789.5626799999736,None,1,3.602238440187648,4.629351840238087,None,1,None,1,,,0,,,,,bihhjl,001,fr,0,0,2022-06-23_11h09.35.468,Cluster,2022.1.1,36.42254817810165,
,,,,4,0,4,0,13,0,13,0,,,frequency,,,,,,,,,,,,,,,,,,,,,,,,,,,,,,,,,,,,,,,,,,,,,,,,,,,,,,,,,,,,,,,,,,,,,,,,,,,,,,,,,,,,,,,,,,,,,,,,,,,,,,,,,,,,,,,,,,,790.0709015000612,None,378.9291416275994,25.0,0.001458625812546175,1,"[0.49955469341140996, 0.7031019186052375, 0.4641338318810354, 0.48903818072035504]","[238.71040097760402, 267.9433656340732, 300.75625902052906, 337.5874865420474]",Tone,"[21.415962982174147, 22.041006007444324, 23.0, 25.0]",False,791.0785201999824,793.7757857999532,793.7757857999532,795.0031105000526,['space'],1,3.164130440214649,4.183669640216976,None,1,None,1,,[0.3592872000299394],,,,,,bihhjl,001,fr,0,0,2022-06-23_11h09.35.468,Cluster,2022.1.1,36.42254817810165,
,,,,4,0,4,0,14,0,14,0,,,frequency,,,,,,,,,,,,,,,,,,,,,,,,,,,,,,,,,,,,,,,,,,,,,,,,,,,,,,,,,,,,,,,,,,,,,,,,,,,,,,,,,,,,,,,,,,,,,,,,,,,,,,,,,,,,,,,,,,,795.31072519999,None,134.00782552113247,17.609039372773694,0.004879124639167304,1,"[0.5872546525663523, 0.4141884996594241, 0.7680445266221951, 0.6645453895267133]","[675.3571208988568, 450.74680038666213, 300.83739664787083, 200.78487333516836]",Perfect_5th,"[34.77164448763786, 31.0, 23.0, 21.51025092793338]",False,796.3037112000166,799.1000651000068,799.1000651000068,800.3243539000396,['space'],1,3.458628340042196,4.474046440096572,None,1,None,1,,[0.2973152999766171],,,,,,bihhjl,001,fr,0,0,2022-06-23_11h09.35.468,Cluster,2022.1.1,36.42254817810165,
,,,,4,0,4,0,15,0,15,0,,,none,,,,,,,,,,,,,,,,,,,,,,,,,,,,,,,,,,,,,,,,,,,,,,,,,,,,,,,,,,,,,,,,,,,,,,,,,,,,,,,,,,,,,,,,,,,,,,,,,,,,,,,,,,,,,,,,,,,800.8179308000254,None,125.0,17.0,0.005116464961403773,1,"[0.410057021321335, 0.6960894839258406, 0.5969677488013982, 0.605658985015129]","[1666.3171208621216, 4370.710829501724, 3358.5624000933785, 136.65172665069858]",None,"[43.51466302373089, 39.0, 43.7732142657211, 23.609039372773694]",False,801.8259111000225,804.554733500001,804.554733500001,805.7833667000523,['space'],1,3.319001540192403,4.356713640154339,None,1,None,1,,[0.40491050004493445],,,,,,bihhjl,001,fr,0,0,2022-06-23_11h09.35.468,Cluster,2022.1.1,36.42254817810165,
,,,,4,0,4,0,16,0,16,0,,,time,,,,,,,,,,,,,,,,,,,,,,,,,,,,,,,,,,,,,,,,,,,,,,,,,,,,,,,,,,,,,,,,,,,,,,,,,,,,,,,,,,,,,,,,,,,,,,,,,,,,,,,,,,,,,,,,,,,806.2349154000403,None,4897.002171844656,31.44107461450291,0.005437404686945225,1,"[0.5171368699799135, 0.5171368699799135, 0.5171368699799135, 0.5171368699799135]","[3011.9711529045076, 1889.8325241116156, 7574.802464488457, 935.207549640643]",None,"[44.0, 43.095439700475254, 44.0, 34.80359918411726]",False,807.249158199993,809.8215196999954,809.8215196999954,811.0482569000451,['space'],1,3.1073863400379196,4.128313240129501,None,1,None,1,,[0.3670038999989629],,,,,,bihhjl,001,fr,0,0,2022-06-23_11h09.35.468,Cluster,2022.1.1,36.42254817810165,
,,,,4,0,4,0,17,0,17,0,,,both,,,,,,,,,,,,,,,,,,,,,,,,,,,,,,,,,,,,,,,,,,,,,,,,,,,,,,,,,,,,,,,,,,,,,,,,,,,,,,,,,,,,,,,,,,,,,,,,,,,,,,,,,,,,,,,,,,,811.4663755999645,None,5656.85424949238,35.0,0.007227417995191065,1,"[0.676364201259347, 0.676364201259347, 0.676364201259347, 0.676364201259347]","[1122.4620483093731, 1681.7928305074292, 2519.8420997897465, 3775.497250726774]",Perfect_5th,"[39.0, 43.51466302373089, 43.24799782389515, 42.0]",False,812.4341667999979,815.4894386000233,815.4894386000233,816.6906893999549,['space'],1,3.729333740193397,4.755654340144247,None,1,None,1,,[0.3063574000261724],,,,,,bihhjl,001,fr,0,0,2022-06-23_11h09.35.468,Cluster,2022.1.1,36.42254817810165,
,,,,4,0,4,0,18,0,18,0,,,none,,,,,,,,,,,,,,,,,,,,,,,,,,,,,,,,,,,,,,,,,,,,,,,,,,,,,,,,,,,,,,,,,,,,,,,,,,,,,,,,,,,,,,,,,,,,,,,,,,,,,,,,,,,,,,,,,,,817.2352915999945,None,631.8717016315921,29.0,0.0014373898109528117,1,"[0.6891287529248132, 0.5497539862679826, 0.5274825759379059, 0.7533164124907752]","[622.0678342324816, 287.53325586690084, 4800.865550372495, 6421.169910094735]",None,"[35.20851958385715, 22.622938488500367, 37.44107461450291, 40.69382397237325]",False,818.2475874000229,821.0247962999856,821.0247962999856,822.2251916000387,['space'],1,3.5544629400828853,4.5962688400177285,None,1,None,1,,[0.3127947000321001],,,,,,bihhjl,001,fr,0,0,2022-06-23_11h09.35.468,Cluster,2022.1.1,36.42254817810165,
,,,,4,0,4,0,19,0,19,0,,,both,,,,,,,,,,,,,,,,,,,,,,,,,,,,,,,,,,,,,,,,,,,,,,,,,,,,,,,,,,,,,,,,,,,,,,,,,,,,,,,,,,,,,,,,,,,,,,,,,,,,,,,,,,,,,,,,,,,822.8842937999871,None,1948.1153692618823,37.0,0.005130414472751858,0,"[0.7205811913960378, 0.7205811913960378, 0.7205811913960378, 0.7205811913960378]","[3092.44038652173, 2755.0511762776246, 2454.4715613567696, 2186.685567724663]",Tone,"[44.0, 43.91363634999545, 43.24799782389515, 42.843714326279006]",False,823.898191699991,827.0789274000563,827.0789274000563,828.2949251000537,None,0,3.9102889401838183,4.93807484023273,None,1,None,1,,,,,,,,bihhjl,001,fr,0,0,2022-06-23_11h09.35.468,Cluster,2022.1.1,36.42254817810165,
,,,,5,0,5,0,0,0,0,0,,,both,,,,,,,,,,,,,,,,,,,,,,,,,,,,,,,,,,,,,,,,,,,,,,,,,,,,,,,,,,,,,,,,,,,,,,,,,,,,,,,,,,,,,,,,,,,,,,,,,,,,,,,,,,,,,,,,,,,836.2482465000357,None,,,,,"[0.5799459917288341, 0.5799459917288341, 0.5799459917288341, 0.5799459917288341]","[445.1359080011978, 353.3046043149605, 280.4180502773884, 222.5679540005989]",Major_3rd,"[31.0, 25.508643194256045, 22.622938488500367, 21.381870299461333]",True,837.2407536000246,840.0157707000617,840.0157707000617,841.2220689000096,None,1,3.3406960401916876,4.363762340159155,None,1,None,1,,,0,,,,,bihhjl,001,fr,0,0,2022-06-23_11h09.35.468,Cluster,2022.1.1,36.42254817810165,
,,,,5,0,5,0,1,0,1,0,,,time,,,,,,,,,,,,,,,,,,,,,,,,,,,,,,,,,,,,,,,,,,,,,,,,,,,,,,,,,,,,,,,,,,,,,,,,,,,,,,,,,,,,,,,,,,,,,,,,,,,,,,,,,,,,,,,,,,,841.6395827999804,None,267.9433656340732,17.0,0.0010511108728813205,1,"[0.6281932119816616, 0.6281932119816616, 0.6281932119816616, 0.6281932119816616]","[153.53329040481327, 850.4972964296279, 2491.782679632081, 6118.269309789403]",None,"[22.78182025365567, 33.83510414802811, 43.24799782389515, 39.141408306701194]",False,842.6651814000215,845.5890849999851,845.5890849999851,846.8253432000056,['space'],1,3.537384740076959,4.564398840186186,None,1,None,1,,[0.3009273000061512],,,,,,bihhjl,001,fr,0,0,2022-06-23_11h09.35.468,Cluster,2022.1.1,36.42254817810165,
,,,,5,0,5,0,2,0,2,0,,,none,,,,,,,,,,,,,,,,,,,,,,,,,,,,,,,,,,,,,,,,,,,,,,,,,,,,,,,,,,,,,,,,,,,,,,,,,,,,,,,,,,,,,,,,,,,,,,,,,,,,,,,,,,,,,,,,,,,847.2714578000596,None,1148.6983549970344,31.0,0.0017837202889381294,0,"[0.7498144443165321, 0.7023376209026628, 0.7111925858329963, 0.5440930362949481]","[7809.954169740482, 2678.5666554062004, 3501.4606671834426, 2046.8731741986908]",None,"[44.865571088928796, 43.605416509454585, 43.0, 42.90010724484241]",False,848.2991800999735,851.4937735999702,851.4937735999702,852.7238438000204,None,0,3.7202883401187137,4.735510640195571,None,1,None,1,,,,,,,,bihhjl,001,fr,0,0,2022-06-23_11h09.35.468,Cluster,2022.1.1,36.42254817810165,
,,,,5,0,5,0,3,0,3,0,,,frequency,,,,,,,,,,,,,,,,,,,,,,,,,,,,,,,,,,,,,,,,,,,,,,,,,,,,,,,,,,,,,,,,,,,,,,,,,,,,,,,,,,,,,,,,,,,,,,,,,,,,,,,,,,,,,,,,,,,853.0905981999822,None,8000.0,35.0,0.01020868972334765,0,"[0.49016809114541154, 0.5495797607615078, 0.7970708212326473, 0.7988902835830451]","[3174.8021039364003, 4000.0000000000014, 5039.684199579494, 6349.604207872799]",Major_3rd,"[43.7732142657211, 40.70748826461904, 37.44107461450291, 40.0]",False,854.1116298000561,856.9619096999522,856.9619096999522,858.1826385000022,None,0,3.6470676402095705,4.6671608401229605,None,1,None,1,,,,,,,,bihhjl,001,fr,0,0,2022-06-23_11h09.35.468,Cluster,2022.1.1,36.42254817810165,
,,,,5,0,5,0,4,0,4,0,,,time,,,,,,,,,,,,,,,,,,,,,,,,,,,,,,,,,,,,,,,,,,,,,,,,,,,,,,,,,,,,,,,,,,,,,,,,,,,,,,,,,,,,,,,,,,,,,,,,,,,,,,,,,,,,,,,,,,,858.8353676999686,None,228.09762449035986,15.415962982174147,0.0012411685079417273,1,"[0.7768263712815973, 0.7768263712815973, 0.7768263712815973, 0.7768263712815973]","[195.58266993595595, 3283.385448865685, 138.1412565736024, 2507.6829542711052]",None,"[21.75926950267614, 43.7732142657211, 23.609039372773694, 43.24799782389515]",False,859.823459599982,863.1873717999551,863.1873717999551,864.4026337000541,['space'],1,4.144861840177327,5.1652707401663065,None,1,None,1,,[0.3234843999380246],,,,,,bihhjl,001,fr,0,0,2022-06-23_11h09.35.468,Cluster,2022.1.1,36.42254817810165,
,,,,5,0,5,0,5,0,5,0,,,time,,,,,,,,,,,,,,,,,,,,,,,,,,,,,,,,,,,,,,,,,,,,,,,,,,,,,,,,,,,,,,,,,,,,,,,,,,,,,,,,,,,,,,,,,,,,,,,,,,,,,,,,,,,,,,,,,,,865.0260605999501,None,2828.42712474619,42.0,0.008244194705489294,1,"[0.5629628021069768, 0.5629628021069768, 0.5629628021069768, 0.5629628021069768]","[4924.066109472912, 283.0307627177267, 2448.0976847039105, 1688.1502252783973]",None,"[37.44107461450291, 22.622938488500367, 43.24799782389515, 43.33907123251382]",False,867.113665199955,869.8272978999885,869.8272978999885,871.0344673000509,['space'],1,3.2686866803560406,4.292202880373225,None,1,None,1,,[0.35964040004182607],,,,,,bihhjl,001,fr,0,0,2022-06-23_11h09.35.468,Cluster,2022.1.1,36.42254817810165,
,,,,5,0,5,0,6,0,6,0,,,both,,,,,,,,,,,,,,,,,,,,,,,,,,,,,,,,,,,,,,,,,,,,,,,,,,,,,,,,,,,,,,,,,,,,,,,,,,,,,,,,,,,,,,,,,,,,,,,,,,,,,,,,,,,,,,,,,,,871.4552306999685,None,,,,,"[0.4067460236468232, 0.4067460236468232, 0.4067460236468232, 0.4067460236468232]","[293.8343840027464, 329.81794453144556, 370.20812558795353, 415.54457094822794]",Tone,"[23.0, 24.33777877591176, 26.0, 29.0]",True,872.4724789999891,874.7052976000123,874.7052976000123,875.9180734000402,None,1,2.664310340071097,3.660298240138218,None,1,None,1,,,0,,,,,bihhjl,001,fr,0,0,2022-06-23_11h09.35.468,Cluster,2022.1.1,36.42254817810165,
,,,,5,0,5,0,7,0,7,0,,,none,,,,,,,,,,,,,,,,,,,,,,,,,,,,,,,,,,,,,,,,,,,,,,,,,,,,,,,,,,,,,,,,,,,,,,,,,,,,,,,,,,,,,,,,,,,,,,,,,,,,,,,,,,,,,,,,,,,876.1681028000312,None,176.5752237102802,16.08165514605822,0.0022340160866273573,1,"[0.697545320333951, 0.5012454353176113, 0.4027841784064286, 0.46727875345816144]","[5720.980749917514, 6569.445805727413, 4004.6932827774817, 306.7326866903188]",None,"[38.0, 41.0, 40.70748826461904, 23.385027500518813]",False,877.1807929000352,879.80368979997,879.80368979997,881.0059453999856,['space'],1,3.103661240078509,4.126826040097512,None,1,None,1,,[0.45452000002842396],,,,,,bihhjl,001,fr,0,0,2022-06-23_11h09.35.468,Cluster,2022.1.1,36.42254817810165,
,,,,5,0,5,0,8,0,8,0,,,time,,,,,,,,,,,,,,,,,,,,,,,,,,,,,,,,,,,,,,,,,,,,,,,,,,,,,,,,,,,,,,,,,,,,,,,,,,,,,,,,,,,,,,,,,,,,,,,,,,,,,,,,,,,,,,,,,,,881.3489334000042,None,437.4451088381416,24.304489664930905,0.0012251865525377077,1,"[0.6024401377438965, 0.6024401377438965, 0.6024401377438965, 0.6024401377438965]","[1387.6123033432232, 647.2775518534326, 197.73933293407757, 132.31772935037395]",None,"[43.0, 35.0, 21.51025092793338, 23.609039372773694]",False,882.359280899982,885.2042623000452,885.2042623000452,886.4260729999514,['space'],1,3.4451273400336504,4.451091540046036,None,1,None,1,,[0.41736019996460527],,,,,,bihhjl,001,fr,0,0,2022-06-23_11h09.35.468,Cluster,2022.1.1,36.42254817810165,
,,,,5,0,5,0,9,0,9,0,,,both,,,,,,,,,,,,,,,,,,,,,,,,,,,,,,,,,,,,,,,,,,,,,,,,,,,,,,,,,,,,,,,,,,,,,,,,,,,,,,,,,,,,,,,,,,,,,,,,,,,,,,,,,,,,,,,,,,,886.8533112000441,None,125.0,16.0,0.004560054196779551,1,"[0.41068556994867567, 0.41068556994867567, 0.41068556994867567, 0.41068556994867567]","[314.9802624737183, 250.00000000000003, 198.42513149602496, 157.49013123685916]",Major_3rd,"[24.0, 21.633804144956393, 21.51025092793338, 22.78182025365567]",False,887.8763109999709,890.1299706000136,890.1299706000136,891.3365262000589,['space'],1,2.692992640193552,3.6945235402090475,None,1,None,1,,[0.5903497999534011],,,,,,bihhjl,001,fr,0,0,2022-06-23_11h09.35.468,Cluster,2022.1.1,36.42254817810165,
,,,,5,0,5,0,10,0,10,0,,,frequency,,,,,,,,,,,,,,,,,,,,,,,,,,,,,,,,,,,,,,,,,,,,,,,,,,,,,,,,,,,,,,,,,,,,,,,,,,,,,,,,,,,,,,,,,,,,,,,,,,,,,,,,,,,,,,,,,,,891.6207933999831,None,324.8563972201486,18.0,0.0007630501904886374,1,"[0.4597867625523476, 0.7391785288927937, 0.7687205283010131, 0.7642966288926749]","[818.5868261013513, 649.7127944402973, 515.6773866858632, 409.2934130506756]",Major_3rd,"[33.45210865578541, 34.77164448763786, 34.0, 28.544879706665434]",False,892.6348238000646,895.6157259000465,895.6157259000465,896.8420582000399,['space'],1,3.7773727402091026,4.7923294401261955,None,1,None,1,,[0.2784098000265658],,,,,,bihhjl,001,fr,0,0,2022-06-23_11h09.35.468,Cluster,2022.1.1,36.42254817810165,
,,,,5,0,5,0,11,0,11,0,,,frequency,,,,,,,,,,,,,,,,,,,,,,,,,,,,,,,,,,,,,,,,,,,,,,,,,,,,,,,,,,,,,,,,,,,,,,,,,,,,,,,,,,,,,,,,,,,,,,,,,,,,,,,,,,,,,,,,,,,897.4719061000505,None,,,,,"[0.7102133295159435, 0.727416431937864, 0.7513595006315261, 0.727045942864718]","[2954.6944510938906, 3316.532385703187, 3722.681734940771, 4178.568965405509]",Tone,"[44.0, 43.7732142657211, 42.04590300125809, 40.0]",True,898.4829583000392,901.7089960000012,901.7089960000012,902.9179719999665,None,1,3.945553940255195,4.965555140166543,None,1,None,1,,,0,,,,,bihhjl,001,fr,0,0,2022-06-23_11h09.35.468,Cluster,2022.1.1,36.42254817810165,
,,,,5,0,5,0,12,0,12,0,,,both,,,,,,,,,,,,,,,,,,,,,,,,,,,,,,,,,,,,,,,,,,,,,,,,,,,,,,,,,,,,,,,,,,,,,,,,,,,,,,,,,,,,,,,,,,,,,,,,,,,,,,,,,,,,,,,,,,,903.4845049000578,None,557.8142306458975,29.0,0.0017593940463832842,1,"[0.5347326396510252, 0.5347326396510252, 0.5347326396510252, 0.5347326396510252]","[221.36872413253246, 278.9071153229488, 351.4009455608401, 442.7374482650648]",Major_3rd,"[21.381870299461333, 22.622938488500367, 25.508643194256045, 31.0]",False,904.4971421000082,907.1272405000636,907.1272405000636,908.3309003000613,['space'],1,3.1640513400780037,4.192741640144959,None,1,None,1,,[0.36686599999666214],,,,,,bihhjl,001,fr,0,0,2022-06-23_11h09.35.468,Cluster,2022.1.1,36.42254817810165,
,,,,5,0,5,0,13,0,13,0,,,frequency,,,,,,,,,,,,,,,,,,,,,,,,,,,,,,,,,,,,,,,,,,,,,,,,,,,,,,,,,,,,,,,,,,,,,,,,,,,,,,,,,,,,,,,,,,,,,,,,,,,,,,,,,,,,,,,,,,,908.7329071999993,None,5278.031643091578,37.0,0.010087751046562562,1,"[0.5664135193726622, 0.4052239150523682, 0.6707680315506586, 0.4936732059825197]","[1047.294122820627, 1569.168195793502, 2351.095812567218, 3522.6634943845947]",Perfect_5th,"[37.0, 43.49534248380189, 43.00000000000001, 43.0]",False,909.7588437000522,912.4254929999588,912.4254929999588,913.6320419999538,['space'],1,3.160540340235457,4.189336140174419,None,1,None,1,,[0.3040325000183657],,,,,,bihhjl,001,fr,0,0,2022-06-23_11h09.35.468,Cluster,2022.1.1,36.42254817810165,
,,,,5,0,5,0,14,0,14,0,,,time,,,,,,,,,,,,,,,,,,,,,,,,,,,,,,,,,,,,,,,,,,,,,,,,,,,,,,,,,,,,,,,,,,,,,,,,,,,,,,,,,,,,,,,,,,,,,,,,,,,,,,,,,,,,,,,,,,,913.9957049000077,None,153.8930516681146,14.0,0.0023329782699312526,0,"[0.5004935076909253, 0.5004935076909253, 0.5004935076909253, 0.5004935076909253]","[531.2053535022061, 688.5817093844943, 597.6591176800761, 291.8529512384665]",None,"[34.65065241278761, 34.14547453139008, 35.20851958385715, 22.622938488500367]",False,915.0226068999618,917.5422340000514,917.5422340000514,918.7492902999511,None,0,3.0203129401197657,4.030924140126444,None,1,None,1,,,,,,,,bihhjl,001,fr,0,0,2022-06-23_11h09.35.468,Cluster,2022.1.1,36.42254817810165,
,,,,5,0,5,0,15,0,15,0,,,both,,,,,,,,,,,,,,,,,,,,,,,,,,,,,,,,,,,,,,,,,,,,,,,,,,,,,,,,,,,,,,,,,,,,,,,,,,,,,,,,,,,,,,,,,,,,,,,,,,,,,,,,,,,,,,,,,,,919.1197214999702,None,176.7766952966369,12.0,0.0013934586077992473,1,"[0.640358196630019, 0.640358196630019, 0.640358196630019, 0.640358196630019]","[280.61551207734334, 250.00000000000006, 222.72467953508487, 198.42513149602496]",Tone,"[22.622938488500367, 21.633804144956393, 21.381870299461333, 21.51025092793338]",False,920.187269099988,923.133458300028,923.133458300028,924.3498365000123,['space'],1,3.5863069602055475,4.615724060218781,None,1,None,1,,[0.29165580007247627],,,,,,bihhjl,001,fr,0,0,2022-06-23_11h09.35.468,Cluster,2022.1.1,36.42254817810165,
,,,,5,0,5,0,16,0,16,0,,,time,,,,,,,,,,,,,,,,,,,,,,,,,,,,,,,,,,,,,,,,,,,,,,,,,,,,,,,,,,,,,,,,,,,,,,,,,,,,,,,,,,,,,,,,,,,,,,,,,,,,,,,,,,,,,,,,,,,924.8616355999839,None,3408.7530803848376,37.11180246142274,0.0052752137143127695,1,"[0.5636789073792003, 0.5636789073792003, 0.5636789073792003, 0.5636789073792003]","[2532.609630785564, 810.5187934408668, 1389.4011555124766, 907.4861882017447]",None,"[43.24799782389515, 33.45210865578541, 43.0, 34.80359918411726]",False,925.870960899978,928.59319220006,928.59319220006,929.806158500025,['space'],1,3.2919025401351973,4.31997214013245,None,1,None,1,,[0.3842908999649808],,,,,,bihhjl,001,fr,0,0,2022-06-23_11h09.35.468,Cluster,2022.1.1,36.42254817810165,
,,,,5,0,5,0,17,0,17,0,,,none,,,,,,,,,,,,,,,,,,,,,,,,,,,,,,,,,,,,,,,,,,,,,,,,,,,,,,,,,,,,,,,,,,,,,,,,,,,,,,,,,,,,,,,,,,,,,,,,,,,,,,,,,,,,,,,,,,,930.2350888999645,None,,,,,"[0.5144472155284394, 0.5037635275044925, 0.5164852549257208, 0.5547171445189568]","[3438.3117763263203, 168.46328995866, 410.86663081359313, 667.727081286404]",None,"[43.11180246142274, 22.427865668147323, 29.0, 34.77164448763786]",True,931.2438375999918,933.7942755999975,933.7942755999975,935.0031685000286,None,1,3.1223805401241407,4.149197740131058,None,1,None,1,,,0,,,,,bihhjl,001,fr,0,0,2022-06-23_11h09.35.468,Cluster,2022.1.1,36.42254817810165,
,,,,5,0,5,0,18,0,18,0,,,frequency,,,,,,,,,,,,,,,,,,,,,,,,,,,,,,,,,,,,,,,,,,,,,,,,,,,,,,,,,,,,,,,,,,,,,,,,,,,,,,,,,,,,,,,,,,,,,,,,,,,,,,,,,,,,,,,,,,,935.4274144000374,None,1418.4555843555486,37.15895965915695,0.0036286847333759885,0,"[0.7484645183645096, 0.6589646878219741, 0.45531031475264677, 0.6575115448364228]","[893.5710245352442, 1002.9995625097353, 1125.8289433880825, 1263.7002618413642]",Tone,"[34.0, 36.25469760911161, 39.0, 42.0]",False,936.4446988999844,939.3434569999808,939.3434569999808,940.5712493000319,None,0,3.5575640401802957,4.560194540186785,None,1,None,1,,,,,,,,bihhjl,001,fr,0,0,2022-06-23_11h09.35.468,Cluster,2022.1.1,36.42254817810165,
,,,,5,0,5,0,19,0,19,0,,,both,,,,,,,,,,,,,,,,,,,,,,,,,,,,,,,,,,,,,,,,,,,,,,,,,,,,,,,,,,,,,,,,,,,,,,,,,,,,,,,,,,,,,,,,,,,,,,,,,,,,,,,,,,,,,,,,,,,941.0513565000147,None,899.7310846209538,28.0,0.001034962920424026,0,"[0.6358233607810801, 0.6358233607810801, 0.6358233607810801, 0.6358233607810801]","[178.52925877697388, 267.4916518550884, 400.7846349799124, 600.4984548938404]",Perfect_5th,"[22.0, 22.041006007444324, 28.0, 35.20851958385715]",False,942.0645680000307,944.9949213999789,944.9949213999789,946.2026036999887,None,0,3.585319340112619,4.610933040152304,None,1,None,1,,,,,,,,bihhjl,001,fr,0,0,2022-06-23_11h09.35.468,Cluster,2022.1.1,36.42254817810165,
,,,,6,0,6,0,0,0,0,0,,,time,,,,,,,,,,,,,,,,,,,,,,,,,,,,,,,,,,,,,,,,,,,,,,,,,,,,,,,,,,,,,,,,,,,,,,,,,,,,,,,,,,,,,,,,,,,,,,,,,,,,,,,,,,,,,,,,,,,952.0535959999543,None,870.5505632961246,29.0,0.0011378728349083936,1,"[0.5576221181268624, 0.5576221181268624, 0.5576221181268624, 0.5576221181268624]","[153.0298446246191, 1035.3812894429525, 880.8115372372891, 1474.508346515649]",None,"[22.78182025365567, 37.0, 34.0, 43.49534248380189]",False,953.0750991000095,955.7711846999591,955.7711846999591,956.9810993999708,['space'],1,3.248797540087253,4.267850339994766,None,1,None,1,,[0.40321719995699823],,,,,,bihhjl,001,fr,0,0,2022-06-23_11h09.35.468,Cluster,2022.1.1,36.42254817810165,
,,,,6,0,6,0,1,0,1,0,,,time,,,,,,,,,,,,,,,,,,,,,,,,,,,,,,,,,,,,,,,,,,,,,,,,,,,,,,,,,,,,,,,,,,,,,,,,,,,,,,,,,,,,,,,,,,,,,,,,,,,,,,,,,,,,,,,,,,,957.4007739999797,None,,,,,"[0.5680963530645461, 0.5680963530645461, 0.5680963530645461, 0.5680963530645461]","[135.47931297452058, 6772.750099174189, 250.65086185661127, 512.4379104176256]",None,"[23.609039372773694, 42.0, 21.633804144956393, 34.0]",True,958.3913307000184,961.1278394999681,961.1278394999681,962.3561897999607,None,1,3.3096258401637897,4.319928640150465,None,1,None,1,,,0,,,,,bihhjl,001,fr,0,0,2022-06-23_11h09.35.468,Cluster,2022.1.1,36.42254817810165,
,,,,6,0,6,0,2,0,2,0,,,both,,,,,,,,,,,,,,,,,,,,,,,,,,,,,,,,,,,,,,,,,,,,,,,,,,,,,,,,,,,,,,,,,,,,,,,,,,,,,,,,,,,,,,,,,,,,,,,,,,,,,,,,,,,,,,,,,,,962.7507324999897,None,353.5533905932738,16.0,0.0005591060055563458,1,"[0.617509849444462, 0.617509849444462, 0.617509849444462, 0.617509849444462]","[222.72467953508485, 250.00000000000003, 280.6155120773433, 314.9802624737183]",Tone,"[21.381870299461333, 21.633804144956393, 22.622938488500367, 24.0]",False,963.7646980000427,966.6553879999556,966.6553879999556,967.8724400000647,['space'],1,3.4821619401918724,4.505915340152569,None,1,None,1,,[0.38827300001867115],,,,,,bihhjl,001,fr,0,0,2022-06-23_11h09.35.468,Cluster,2022.1.1,36.42254817810165,
,,,,6,0,6,0,3,0,3,0,,,frequency,,,,,,,,,,,,,,,,,,,,,,,,,,,,,,,,,,,,,,,,,,,,,,,,,,,,,,,,,,,,,,,,,,,,,,,,,,,,,,,,,,,,,,,,,,,,,,,,,,,,,,,,,,,,,,,,,,,968.3255099999951,None,2143.5469250725882,41.0,0.008751051287496474,0,"[0.704314085827282, 0.7873304942551131, 0.7677545403067335, 0.6662587716501971]","[850.6671609508569, 1071.7734625362946, 1350.3499461681915, 1701.334321901713]",Major_3rd,"[33.83510414802811, 37.971631624891515, 42.41586704910984, 43.33907123251382]",False,969.329058000003,972.6102196000284,972.6102196000284,973.8108277999563,None,0,3.962845440255478,4.97376194014214,None,1,None,1,,,,,,,,bihhjl,001,fr,0,0,2022-06-23_11h09.35.468,Cluster,2022.1.1,36.42254817810165,
,,,,6,0,6,0,4,0,4,0,,,none,,,,,,,,,,,,,,,,,,,,,,,,,,,,,,,,,,,,,,,,,,,,,,,,,,,,,,,,,,,,,,,,,,,,,,,,,,,,,,,,,,,,,,,,,,,,,,,,,,,,,,,,,,,,,,,,,,,974.3525095999939,None,1866.0659830736151,37.0,0.004868135812041065,0,"[0.40292741199158605, 0.497254602462008, 0.6636573882289831, 0.6210292464399737]","[826.6535111720606, 765.0506044836353, 6790.04764933034, 216.36371973773385]",None,"[33.45210865578541, 33.61213434736711, 42.0, 21.381870299461333]",False,975.3844132999657,977.9756178000243,977.9756178000243,979.2058671000414,None,0,3.1943886402295902,4.22376404015813,None,1,None,1,,,,,,,,bihhjl,001,fr,0,0,2022-06-23_11h09.35.468,Cluster,2022.1.1,36.42254817810165,
,,,,6,0,6,0,5,0,5,0,,,time,,,,,,,,,,,,,,,,,,,,,,,,,,,,,,,,,,,,,,,,,,,,,,,,,,,,,,,,,,,,,,,,,,,,,,,,,,,,,,,,,,,,,,,,,,,,,,,,,,,,,,,,,,,,,,,,,,,979.660654700012,None,,,,,"[0.5609979375819527, 0.5609979375819527, 0.5609979375819527, 0.5609979375819527]","[4181.90669935158, 1092.2865419347202, 579.2717380095356, 2179.1968890369017]",None,"[40.0, 38.0, 35.20901132748202, 42.843714326279006]",True,980.6590125999646,983.3633813000051,983.3633813000051,984.5644522999646,None,1,3.2889003400923684,4.29556074005086,None,1,None,1,,,0,,,,,bihhjl,001,fr,0,0,2022-06-23_11h09.35.468,Cluster,2022.1.1,36.42254817810165,
,,,,6,0,6,0,6,0,6,0,,,time,,,,,,,,,,,,,,,,,,,,,,,,,,,,,,,,,,,,,,,,,,,,,,,,,,,,,,,,,,,,,,,,,,,,,,,,,,,,,,,,,,,,,,,,,,,,,,,,,,,,,,,,,,,,,,,,,,,984.9943512000609,None,1657.4522321224008,37.51466302373089,0.004457742706591961,1,"[0.48045007199604345, 0.48045007199604345, 0.48045007199604345, 0.48045007199604345]","[3447.4749047024266, 1208.8539767534858, 569.5062114501657, 1162.1520942280563]",None,"[43.11180246142274, 41.0, 35.20901132748202, 40.0]",False,985.997607300058,988.4515325999819,988.4515325999819,989.6567116000224,['space'],1,2.946658540167846,3.9579927400918677,None,1,None,1,,[0.36217420001048595],,,,,,bihhjl,001,fr,0,0,2022-06-23_11h09.35.468,Cluster,2022.1.1,36.42254817810165,
,,,,6,0,6,0,7,0,7,0,,,frequency,,,,,,,,,,,,,,,,,,,,,,,,,,,,,,,,,,,,,,,,,,,,,,,,,,,,,,,,,,,,,,,,,,,,,,,,,,,,,,,,,,,,,,,,,,,,,,,,,,,,,,,,,,,,,,,,,,,990.0054960000562,None,546.5250486678203,28.650652412787608,0.0017377134513998204,1,"[0.5005555581087869, 0.5944474895650536, 0.5400127171791664, 0.6557732839689581]","[344.28920655570334, 386.4515680013236, 433.77721859113467, 486.89846528974766]",Tone,"[25.0, 27.0, 30.304489664930905, 33.0]",False,991.0195962999715,993.678161400021,993.678161400021,994.8841797000496,['space'],1,3.3323524402221665,4.341815140214749,None,1,None,1,,[0.29905140004120767],,,,,,bihhjl,001,fr,0,0,2022-06-23_11h09.35.468,Cluster,2022.1.1,36.42254817810165,
,,,,6,0,6,0,8,0,8,0,,,none,,,,,,,,,,,,,,,,,,,,,,,,,,,,,,,,,,,,,,,,,,,,,,,,,,,,,,,,,,,,,,,,,,,,,,,,,,,,,,,,,,,,,,,,,,,,,,,,,,,,,,,,,,,,,,,,,,,995.4120285999961,None,4772.220782121905,32.0,0.005456994797211058,1,"[0.6510147215926798, 0.6123569995580258, 0.42396897050230925, 0.589920170652694]","[7366.532343323316, 352.3507905415114, 247.15911782621828, 4960.57763940933]",None,"[43.81623325735383, 25.508643194256045, 21.633804144956393, 37.44107461450291]",False,996.4154532999964,999.1180507000536,999.1180507000536,1000.3276863000356,['space'],1,3.307408040156588,4.335851640207693,None,1,None,1,,[0.2961902000242844],,,,,,bihhjl,001,fr,0,0,2022-06-23_11h09.35.468,Cluster,2022.1.1,36.42254817810165,
,,,,6,0,6,0,9,0,9,0,,,frequency,,,,,,,,,,,,,,,,,,,,,,,,,,,,,,,,,,,,,,,,,,,,,,,,,,,,,,,,,,,,,,,,,,,,,,,,,,,,,,,,,,,,,,,,,,,,,,,,,,,,,,,,,,,,,,,,,,,1000.7972492000554,None,,,,,"[0.5618894762010218, 0.581270586785212, 0.689873842094415, 0.4775253377955628]","[4953.148263547247, 3931.3163820546797, 3120.287880246707, 2476.574131773623]",Major_3rd,"[37.44107461450291, 41.0, 44.0, 43.24799782389515]",True,1001.7870833000634,1004.6647060000105,1004.6647060000105,1005.8735734999646,None,1,3.3557682401733473,4.361784340231679,None,1,None,1,,,0,,,,,bihhjl,001,fr,0,0,2022-06-23_11h09.35.468,Cluster,2022.1.1,36.42254817810165,
,,,,6,0,6,0,10,0,10,0,,,frequency,,,,,,,,,,,,,,,,,,,,,,,,,,,,,,,,,,,,,,,,,,,,,,,,,,,,,,,,,,,,,,,,,,,,,,,,,,,,,,,,,,,,,,,,,,,,,,,,,,,,,,,,,,,,,,,,,,,1006.1846557999961,None,164.93848884661182,14.0,0.0019703447331607922,0,"[0.7422202552044012, 0.753372774700564, 0.7715862136950838, 0.49600836807506216]","[415.6189480713941, 329.8769776932237, 261.82353070515677, 207.809474035697]",Major_3rd,"[29.0, 24.33777877591176, 22.0, 21.51025092793338]",False,1007.2042359999614,1010.4955175999785,1010.4955175999785,1011.7062776000239,None,0,3.792455140152015,4.820619740174152,None,1,None,1,,,,,,,,bihhjl,001,fr,0,0,2022-06-23_11h09.35.468,Cluster,2022.1.1,36.42254817810165,
,,,,6,0,6,0,11,0,11,0,,,frequency,,,,,,,,,,,,,,,,,,,,,,,,,,,,,,,,,,,,,,,,,,,,,,,,,,,,,,,,,,,,,,,,,,,,,,,,,,,,,,,,,,,,,,,,,,,,,,,,,,,,,,,,,,,,,,,,,,,1012.0739256000379,None,1145.034738669731,33.71067816702312,0.0024296002813278634,1,"[0.6819667623731849, 0.7208148144244629, 0.6499765343589696, 0.6805313739977256]","[1817.6293487044636, 1619.3236568150664, 1442.6533701108694, 1285.258038152614]",Tone,"[43.095439700475254, 43.51466302373089, 43.15895965915695, 42.0]",False,1013.0654265000485,1016.1389402999775,1016.1389402999775,1017.3476729999529,['space'],1,3.7831449401564896,4.788800640148111,None,1,None,1,,[0.20227360003627837],,,,,,bihhjl,001,fr,0,0,2022-06-23_11h09.35.468,Cluster,2022.1.1,36.42254817810165,
,,,,6,0,6,0,12,0,12,0,,,none,,,,,,,,,,,,,,,,,,,,,,,,,,,,,,,,,,,,,,,,,,,,,,,,,,,,,,,,,,,,,,,,,,,,,,,,,,,,,,,,,,,,,,,,,,,,,,,,,,,,,,,,,,,,,,,,,,,1017.9052973999642,None,8000.0,34.0,0.00909850429304992,0,"[0.7964763104480502, 0.6626693044956408, 0.5109472982383358, 0.4802908360209637]","[3210.3009866919706, 5876.767161869617, 2947.2040960535605, 277.70794545423564]",None,"[43.7732142657211, 39.0, 44.0, 22.622938488500367]",False,1018.9170351000503,1021.9161136000184,1021.9161136000184,1023.14944129996,None,0,3.4742924401070923,4.492888140142895,None,1,None,1,,,,,,,,bihhjl,001,fr,0,0,2022-06-23_11h09.35.468,Cluster,2022.1.1,36.42254817810165,
,,,,6,0,6,0,13,0,13,0,,,frequency,,,,,,,,,,,,,,,,,,,,,,,,,,,,,,,,,,,,,,,,,,,,,,,,,,,,,,,,,,,,,,,,,,,,,,,,,,,,,,,,,,,,,,,,,,,,,,,,,,,,,,,,,,,,,,,,,,,1023.4695990000619,None,435.2752816480623,21.0,0.0008387303461037768,1,"[0.4969733916272976, 0.600967922192474, 0.6765763999625732, 0.6466809796202466]","[274.2062449236566, 307.7861033362292, 345.4782199919442, 387.78619045843385]",Tone,"[22.041006007444324, 23.385027500518813, 25.0, 27.0]",False,1024.4949086999986,1027.30830350006,1027.30830350006,1028.5267001000466,['space'],1,3.4528329400345683,4.473980140057392,None,1,None,1,,[0.2951636000070721],,,,,,bihhjl,001,fr,0,0,2022-06-23_11h09.35.468,Cluster,2022.1.1,36.42254817810165,
,,,,6,0,6,0,14,0,14,0,,,none,,,,,,,,,,,,,,,,,,,,,,,,,,,,,,,,,,,,,,,,,,,,,,,,,,,,,,,,,,,,,,,,,,,,,,,,,,,,,,,,,,,,,,,,,,,,,,,,,,,,,,,,,,,,,,,,,,,1029.0233290999895,None,6983.409830003262,36.350517293622175,0.009901650167045141,1,"[0.4553221325921691, 0.7074117012462737, 0.7127761720805913, 0.5414256059336875]","[179.0332530263685, 667.1209892819629, 194.17791312985224, 434.92071750674427]",None,"[22.0, 34.77164448763786, 21.75926950267614, 30.304489664930905]",False,1030.0153852000367,1032.9264363000402,1032.9264363000402,1034.1522587999934,['space'],1,3.463020840077661,4.470352140138857,None,1,None,1,,[0.3639930000063032],,,,,,bihhjl,001,fr,0,0,2022-06-23_11h09.35.468,Cluster,2022.1.1,36.42254817810165,
