frequencies,training_trials.thisRepN,training_trials.thisTrialN,training_trials.thisN,training_trials.thisIndex,frequencies.thisRepN,frequencies.thisTrialN,frequencies.thisN,frequencies.thisIndex,trials.thisRepN,trials.thisTrialN,trials.thisN,trials.thisIndex,tFrequency,tLevel,tCorrect,Tprobe.started,Tprobe.stopped,tTriangle_cue.started,tTriangle_cue.stopped,Tfeedback.keys,Tfeedback.corr,Tfeedback.rt,Tfeedback.started,Tfeedback.stopped,reversals_nTrials.routineEndVal,track_dir.routineEndVal,step_up.routineEndVal,Correct,Frequency,Level,Psychopy_Level,Direction,Reversals,Track_dir,Step,probe.started,probe.stopped,cross_cue.started,cross_cue.stopped,circle_cue.started,circle_cue.stopped,triangle_cue.started,triangle_cue.stopped,feedback.keys,feedback.corr,feedback.rt,feedback.started,feedback.stopped,memo.started,memo.stopped,key_resp.keys,key_resp.rt,key_resp.started,key_resp.stopped,text.started,text.stopped,participant,session,skip_training,language (english or french),date,expName,psychopyVersion,frameRate,
450,0,0,0,1,,,,,,,,,450,30,up,64.38737816666641,None,None,None,up,1,1.8838469000183977,62.90779279998969,None,,,,,,,,,,,,,,,,,,,,,,,,,,,,,,,,,hnxrev,001,0,fr,2022-07-25_14h12.36.342,3-AFC_adaptive_staircase_mess,2022.1.1,None,
200,0,1,1,0,,,,,,,,,200,30,left,68.5134415666728,None,None,None,left,1,1.0311165000020992,68.04158499999903,None,,,,,,,,,,,,,,,,,,,,,,,,,,,,,,,,,hnxrev,001,0,fr,2022-07-25_14h12.36.342,3-AFC_adaptive_staircase_mess,2022.1.1,None,
5000,0,2,2,4,,,,,,,,,5000,30,left,72.17479446667518,None,None,None,left,1,0.8976046000025235,71.69457059999695,None,,,,,,,,,,,,,,,,,,,,,,,,,,,,,,,,,hnxrev,001,0,fr,2022-07-25_14h12.36.342,3-AFC_adaptive_staircase_mess,2022.1.1,None,
1300,0,3,3,3,,,,,,,,,1300,30,left,75.01877356667343,75.24628140000277,None,None,left,1,1.0608448999992106,74.54785080000875,None,,,,,,,,,,,,,,,,,,,,,,,,,,,,,,,,,hnxrev,001,0,fr,2022-07-25_14h12.36.342,3-AFC_adaptive_staircase_mess,2022.1.1,None,
850,0,4,4,2,,,,,,,,,850,30,left,78.08888986666376,None,None,None,left,1,0.9759526000125334,77.60924399999203,None,,,,,,,,,,,,,,,,,,,,,,,,,,,,,,,,,hnxrev,001,0,fr,2022-07-25_14h12.36.342,3-AFC_adaptive_staircase_mess,2022.1.1,None,
,,,,,0,0,0,0,0,0,0,0,,,,,,,,,,,,,[],[],10,up,1000,30,0.0013930605843148849,0,0,-1,10,94.9498996666555,None,93.92641519999597,94.25561870000092,94.90397449999,95.23420770000666,None,None,up,1,1.4667463999940082,93.95688650000375,None,None,None,,,,,,,hnxrev,001,0,fr,2022-07-25_14h12.36.342,3-AFC_adaptive_staircase_mess,2022.1.1,None,
,,,,,0,0,0,0,1,0,1,0,,,,,,,,,,,,,,,,right,1000,30,0.0013930605843148849,0,0,-1,10,99.00145156667374,None,96.96758019999834,97.297939400014,97.96946799999569,98.29919789999258,98.9558406000142,99.28151219998836,right,1,2.445042999985162,96.99491380000836,None,None,None,,,,,,,hnxrev,001,0,fr,2022-07-25_14h12.36.342,3-AFC_adaptive_staircase_mess,2022.1.1,None,
,,,,,0,0,0,0,2,0,2,0,,,,,,,,,,,,,,,,left,1000,10,0.00013930605843148847,-1,0,-1,-10,100.98880756667155,None,100.94363920000615,101.27445379999699,None,None,None,None,left,1,0.5756499000126496,101.00070750000305,None,None,None,,,,,,,hnxrev,001,0,fr,2022-07-25_14h12.36.342,3-AFC_adaptive_staircase_mess,2022.1.1,None,
,,,,,0,0,0,0,3,0,3,0,,,,,,,,,,,,,,,,up,1000,10,0.00013930605843148847,-1,0,-1,-10,104.14908056665833,None,103.10155319998739,103.4316175999993,104.1020709000004,104.4325503,None,None,up,1,1.3331207000010181,103.1626557999989,None,None,None,,,,,,,hnxrev,001,0,fr,2022-07-25_14h12.36.342,3-AFC_adaptive_staircase_mess,2022.1.1,None,
,,,,,0,0,0,0,4,0,4,0,,,,,,,,,,,,,,,,left,1000,0,4.405244365040069e-05,-1,0,-1,-10,106.07915326668105,106.30767969999579,106.03082779998658,106.3698497999867,None,None,None,None,left,1,0.5226114000251982,106.09296060001361,None,None,None,,,,,,,hnxrev,001,0,fr,2022-07-25_14h12.36.342,3-AFC_adaptive_staircase_mess,2022.1.1,None,
,,,,,0,0,0,0,5,0,5,0,,,,,,,,,,,,,,,,up,1000,0,4.405244365040069e-05,-1,0,-1,-10,109.17978656667789,None,108.12577559999772,108.44183789999806,109.13321400000132,109.4727155000146,None,None,up,1,1.4348210000025574,108.18058119999478,None,None,None,,,,,,,hnxrev,001,0,fr,2022-07-25_14h12.36.342,3-AFC_adaptive_staircase_mess,2022.1.1,None,
,,,,,0,0,0,0,6,0,6,0,,,,,,,,,,,,,,,,up,1000,-10,1.3930605843148848e-05,-1,0,-1,-10,112.16151586667208,None,111.14361649999046,111.47384399999282,112.14484920000541,112.4803940000129,113.12993679998908,113.45306080000591,up,1,4.081939399999101,111.1741866999946,None,113.6837658000004,None,,,,,,,hnxrev,001,0,fr,2022-07-25_14h12.36.342,3-AFC_adaptive_staircase_mess,2022.1.1,None,
,,,,,0,0,0,0,7,0,7,0,,,,,,,,,,,,,,,,left,1000,-10,1.3930605843148848e-05,-1,0,-1,-10,116.82646766666245,None,116.78013649999048,117.11361950001447,117.78239929999108,118.11522700000205,118.7947118000011,119.12385810000706,right,0,3.286658199998783,116.84136280001258,None,119.3329187000054,None,,,,,,,hnxrev,001,0,fr,2022-07-25_14h12.36.342,3-AFC_adaptive_staircase_mess,2022.1.1,None,
,,,,,0,0,0,0,8,0,8,0,,,,,,,,,,,,,,,,up,1000,-5,2.4772509540239506e-05,1,1,1,5,122.70164126667466,None,121.6604493999912,121.9857125999988,122.65470519999508,122.9883911999932,None,None,up,1,1.6083046999992803,121.71937569999136,None,None,None,,,,,,,hnxrev,001,0,fr,2022-07-25_14h12.36.342,3-AFC_adaptive_staircase_mess,2022.1.1,None,
,,,,,0,0,0,0,9,0,9,0,,,,,,,,,,,,,,,,right,1000,-5,2.4772509540239506e-05,1,1,1,5,None,None,124.83877609999035,None,None,None,None,None,up,0,-1.4639714000222739,124.89637530001346,None,None,None,,,,,,,hnxrev,001,0,fr,2022-07-25_14h12.36.342,3-AFC_adaptive_staircase_mess,2022.1.1,None,
,,,,,0,0,0,0,10,0,10,0,,,,,,,,,,,,,,,,right,1000,0,4.405244365040069e-05,1,1,1,5,128.44472486665862,None,126.4076936999918,126.73130139999557,127.40832819999196,127.7310601999925,128.3993860000046,128.72438200001488,right,1,2.574876500002574,126.46514539999771,None,128.95818549999967,None,,,,,,,hnxrev,001,0,fr,2022-07-25_14h12.36.342,3-AFC_adaptive_staircase_mess,2022.1.1,None,
,,,,,0,0,0,0,11,0,11,0,,,,,,,,,,,,,,,,left,1000,0,4.405244365040069e-05,1,1,1,5,130.58423146667,None,130.53973009999027,130.86886759998742,None,None,None,None,left,1,0.6838970000098925,130.5966635000077,None,None,None,,,,,,,hnxrev,001,0,fr,2022-07-25_14h12.36.342,3-AFC_adaptive_staircase_mess,2022.1.1,None,
,,,,,0,0,0,0,12,0,12,0,,,,,,,,,,,,,,,,up,1000,-10,1.3930605843148848e-05,-1,2,-1,-5.0,133.81802616667508,None,132.76435330000822,133.0859070000006,133.77344779999112,134.10053490000428,134.7888224000053,135.11190980000538,up,1,2.8001442000095267,132.82378030000837,None,135.3151174999948,None,,,,,,,hnxrev,001,0,fr,2022-07-25_14h12.36.342,3-AFC_adaptive_staircase_mess,2022.1.1,None,
,,,,,0,0,0,0,13,0,13,0,,,,,,,,,,,,,,,,left,1000,-10,1.3930605843148848e-05,-1,2,-1,-5.0,137.18803516668075,None,137.1430107000051,137.47072780001326,138.16616640001303,138.49420190000092,139.13415520000854,139.44784239999717,left,1,2.350950699998066,137.20156779998797,None,None,None,,,,,,,hnxrev,001,0,fr,2022-07-25_14h12.36.342,3-AFC_adaptive_staircase_mess,2022.1.1,None,
,,,,,0,0,0,0,14,0,14,0,,,,,,,,,,,,,,,,right,1000,-15.0,7.833755350540743e-06,-1,2,-1,-5.0,143.1056472666717,143.3304199000122,141.0690232999914,141.3935824999935,142.07733130000997,142.3984797000012,143.05895899998723,143.38474099998712,right,1,2.596275300020352,141.12344759999542,None,143.61079390000668,None,,,,,,,hnxrev,001,0,fr,2022-07-25_14h12.36.342,3-AFC_adaptive_staircase_mess,2022.1.1,None,
,,,,,0,0,0,0,15,0,15,0,,,,,,,,,,,,,,,,left,1000,-15.0,7.833755350540743e-06,-1,2,-1,-5.0,145.29092356667778,None,145.24446580000222,145.57516159999068,146.2469157000014,146.55931650000275,147.25138319999678,147.5698401000118,left,1,2.4088658000109717,145.30329599999823,None,None,None,,,,,,,hnxrev,001,0,fr,2022-07-25_14h12.36.342,3-AFC_adaptive_staircase_mess,2022.1.1,None,
,,,,,0,0,0,0,16,0,16,0,,,,,,,,,,,,,,,,right,1000,-20.0,4.405244365040069e-06,-1,2,-1,-5.0,151.25697906667872,None,149.22564419999253,149.54275130000315,150.18992149998667,150.52339889999712,151.21184209999046,151.5477075999952,up,0,2.930881899985252,149.25344410000253,None,151.75196439999854,None,,,,,,,hnxrev,001,0,fr,2022-07-25_14h12.36.342,3-AFC_adaptive_staircase_mess,2022.1.1,None,
,,,,,0,0,0,0,17,0,17,0,,,,,,,,,,,,,,,,right,1000,-17.5,5.874487774697645e-06,1,3,1,2.5,155.74687806665705,155.9702804000117,153.71972630001255,154.02685600001132,154.73177509999368,155.05122439999832,155.710098200012,156.02864340000087,up,0,3.0946197000157554,153.7782668999862,None,156.26474370001233,None,,,,,,,hnxrev,001,0,fr,2022-07-25_14h12.36.342,3-AFC_adaptive_staircase_mess,2022.1.1,None,
,,,,,0,0,0,0,18,0,18,0,,,,,,,,,,,,,,,,up,1000,-15.0,7.833755350540743e-06,1,3,1,2.5,159.427761766656,None,158.36576340001193,158.70070059999125,159.3820554999984,159.71714550000615,160.37482399999863,160.70192859999952,up,1,2.818940700002713,158.43696970000747,None,160.93528939998941,None,,,,,,,hnxrev,001,0,fr,2022-07-25_14h12.36.342,3-AFC_adaptive_staircase_mess,2022.1.1,None,
,,,,,0,0,0,0,19,0,19,0,,,,,,,,,,,,,,,,left,1000,-15.0,7.833755350540743e-06,1,3,1,2.5,162.80264346665743,163.02980590000516,162.75759940000717,163.08760970001458,163.77535280000302,164.10094110001228,164.76317630000995,165.07165830000304,up,0,2.8743017000088003,162.81444620000548,None,165.34344319999218,None,,,,,,,hnxrev,001,0,fr,2022-07-25_14h12.36.342,3-AFC_adaptive_staircase_mess,2022.1.1,None,
,,,,,0,0,0,0,20,0,20,0,,,,,,,,,,,,,,,,right,1000,-12.5,1.0446480654270193e-05,1,3,1,2.5,169.25088286667986,None,167.2051283000037,167.5244895000069,168.20723890000954,168.5093470000138,169.20478639999055,169.5322404000035,left,0,2.7690502000041306,167.2627169000043,None,169.7608307999908,None,,,,,,,hnxrev,001,0,fr,2022-07-25_14h12.36.342,3-AFC_adaptive_staircase_mess,2022.1.1,None,
,,,,,0,0,0,0,21,0,21,0,,,,,,,,,,,,,,,,up,1000,-10.0,1.3930605843148848e-05,1,3,1,2.5,172.55531626666587,172.77735690001282,171.54371719999472,171.86019249999663,172.5386495999992,172.86072200001217,173.543479999993,173.84755259999656,up,1,2.801775700005237,171.57480599998962,None,174.08735230000457,None,,,,,,,hnxrev,001,0,fr,2022-07-25_14h12.36.342,3-AFC_adaptive_staircase_mess,2022.1.1,None,
,,,,,0,0,0,0,22,0,22,0,,,,,,,,,,,,,,,,right,1000,-10.0,1.3930605843148848e-05,1,3,1,2.5,177.96450526666402,None,175.9319136000122,176.24730499999714,176.9163794000051,177.24182409999776,177.9153754999861,178.2330626999901,right,1,2.9597527000005357,175.9606674000097,None,178.46287920000032,None,,,,,,,hnxrev,001,0,fr,2022-07-25_14h12.36.342,3-AFC_adaptive_staircase_mess,2022.1.1,None,
,,,,,0,0,0,0,23,0,23,0,,,,,,,,,,,,,,,,left,1000,-15.0,7.833755350540743e-06,-1,4,-1,-5.0,180.46864376665715,None,180.45197709999047,180.79377590000513,181.44467349999468,181.75080199999502,182.42132759999367,182.73667939999723,up,0,2.877012399985688,180.48272810000344,None,182.99758850000217,None,,,,,,,hnxrev,001,0,fr,2022-07-25_14h12.36.342,3-AFC_adaptive_staircase_mess,2022.1.1,None,
,,,,,0,0,0,0,24,0,24,0,,,,,,,,,,,,,,,,left,1000,-12.5,1.0446480654270193e-05,1,5,1,2.5,184.91171706666162,None,184.85982909999439,185.18853559999843,185.86084569999366,186.1899190999975,186.84608200000366,187.19360729999607,left,1,2.6045464999915566,184.92349009998725,None,187.42756330000702,None,,,,,,,hnxrev,001,0,fr,2022-07-25_14h12.36.342,3-AFC_adaptive_staircase_mess,2022.1.1,None,
,,,,,0,0,0,0,25,0,25,0,,,,,,,,,,,,,,,,right,1000,-12.5,1.0446480654270193e-05,1,5,1,2.5,191.0677332666567,None,189.04417199999443,189.36136219999753,190.0441332999908,190.36543299999903,191.02214220000315,191.3476587999903,up,0,2.76840919998358,189.06398599999375,None,191.57752640001127,None,,,,,,,hnxrev,001,0,fr,2022-07-25_14h12.36.342,3-AFC_adaptive_staircase_mess,2022.1.1,None,
,,,,,0,0,0,0,26,0,26,0,,,,,,,,,,,,,,,,up,1000,-10.0,1.3930605843148848e-05,1,5,1,2.5,194.36936046666622,194.59663360001286,193.32734280001023,193.64791689999402,194.32385570000042,194.65109040000243,195.34272559999954,195.657011400006,up,1,2.7233209000260103,193.38892629998736,None,195.88320660000318,None,,,,,,,hnxrev,001,0,fr,2022-07-25_14h12.36.342,3-AFC_adaptive_staircase_mess,2022.1.1,None,
,,,,,0,0,0,0,27,0,27,0,,,,,,,,,,,,,,,,up,1000,-10.0,1.3930605843148848e-05,1,5,1,2.5,198.648415466658,None,197.59441950000473,197.90178029998788,198.60420699999668,198.9237748000014,199.61297499999637,199.92666029999964,up,1,2.5659071000118274,197.65037019999,None,200.1531827999861,None,,,,,,,hnxrev,001,0,fr,2022-07-25_14h12.36.342,3-AFC_adaptive_staircase_mess,2022.1.1,None,
,,,,,0,0,0,0,28,0,28,0,,,,,,,,,,,,,,,,left,1000,-15.0,7.833755350540743e-06,-1,6,-1,-5.0,201.78546216668136,None,201.7415866999945,202.06347339999047,202.73760059999768,203.0559448999993,203.7435858999961,204.05996720000985,up,0,2.795144000003347,201.79687530000228,None,204.3182230000093,None,,,,,,,hnxrev,001,0,fr,2022-07-25_14h12.36.342,3-AFC_adaptive_staircase_mess,2022.1.1,None,
,,,,,1,0,1,0,0,0,0,0,,,,,,,,,,,,,[],[],10,left,1500,30,0.001527460556607757,0,0,-1,10,209.23083236665505,None,209.18292620001012,209.51673639999353,210.1744136000052,210.50080350000644,211.1825314000016,None,left,1,2.015802799985977,209.2402551000123,None,None,None,up,3.061814400018193,205.64201879999018,None,205.64201879999018,None,hnxrev,001,0,fr,2022-07-25_14h12.36.342,3-AFC_adaptive_staircase_mess,2022.1.1,None,
,,,,,1,0,1,0,1,0,1,0,,,,,,,,,,,,,,,,up,1500,30,0.001527460556607757,0,0,-1,10,213.79506406665703,None,212.74371179999434,213.05156069999794,213.75267660000827,214.09372599999188,None,None,up,1,1.5439678000111599,212.7996506000054,None,None,None,,,,,,,hnxrev,001,0,fr,2022-07-25_14h12.36.342,3-AFC_adaptive_staircase_mess,2022.1.1,None,
,,,,,1,0,1,0,2,0,2,0,,,,,,,,,,,,,,,,right,1500,10,0.0001527460556607757,-1,0,-1,-10,217.9000237666808,None,215.84662299999036,216.1688073000114,216.85670539998682,217.17022699999507,217.8578653000004,218.18042660001083,right,1,2.368078500003321,215.90417389999493,None,None,None,,,,,,,hnxrev,001,0,fr,2022-07-25_14h12.36.342,3-AFC_adaptive_staircase_mess,2022.1.1,None,
,,,,,1,0,1,0,3,0,3,0,,,,,,,,,,,,,,,,left,1500,10,0.0001527460556607757,-1,0,-1,-10,219.81724536666687,None,219.8005787000002,220.1227108000021,None,None,None,None,left,1,0.6284672000037972,219.82804290001513,None,None,None,,,,,,,hnxrev,001,0,fr,2022-07-25_14h12.36.342,3-AFC_adaptive_staircase_mess,2022.1.1,None,
,,,,,1,0,1,0,4,0,4,0,,,,,,,,,,,,,,,,right,1500,0,4.830254394949071e-05,-1,0,-1,-10,223.9957938666669,None,221.96092400001362,222.2783189000038,222.9629460000142,223.28105240000878,223.97912720000022,224.31242540001404,right,1,2.297186599986162,222.0148959000071,None,None,None,,,,,,,hnxrev,001,0,fr,2022-07-25_14h12.36.342,3-AFC_adaptive_staircase_mess,2022.1.1,None,
,,,,,1,0,1,0,5,0,5,0,,,,,,,,,,,,,,,,right,1500,0,4.830254394949071e-05,-1,0,-1,-10,227.86657366666284,None,225.8290255999891,226.147298099997,226.8354391999892,227.1488607999927,227.82238480000524,228.16010949999327,right,1,2.35773980000522,225.85793430000194,None,None,None,,,,,,,hnxrev,001,0,fr,2022-07-25_14h12.36.342,3-AFC_adaptive_staircase_mess,2022.1.1,None,
,,,,,1,0,1,0,6,0,6,0,,,,,,,,,,,,,,,,left,1500,-10,1.527460556607758e-05,-1,0,-1,-10,229.74448566665913,None,229.69860179998796,230.02196439998806,230.71307709999382,231.02641270001186,231.70792519999668,232.02270180001506,left,1,2.652598900021985,229.7553109000146,None,232.2611554999894,None,,,,,,,hnxrev,001,0,fr,2022-07-25_14h12.36.342,3-AFC_adaptive_staircase_mess,2022.1.1,None,
,,,,,1,0,1,0,7,0,7,0,,,,,,,,,,,,,,,,left,1500,-10,1.527460556607758e-05,-1,0,-1,-10,233.93327026666182,None,233.91660359999514,234.22658350001439,234.91555080001126,235.24001519999,235.90545849999762,236.22142039999017,left,1,2.727813100005733,233.94383850001032,None,236.44500579999294,None,,,,,,,hnxrev,001,0,fr,2022-07-25_14h12.36.342,3-AFC_adaptive_staircase_mess,2022.1.1,None,
,,,,,1,0,1,0,8,0,8,0,,,,,,,,,,,,,,,,up,1500,-20,4.8302543949490704e-06,-1,0,-1,-10,239.2374318666737,239.46038939998834,238.19073619999108,238.5061541000032,239.18079929999658,239.51527890001307,240.17254490000778,240.48872490000213,up,1,2.7536836999934167,238.24566029998823,None,240.74862570001278,None,,,,,,,hnxrev,001,0,fr,2022-07-25_14h12.36.342,3-AFC_adaptive_staircase_mess,2022.1.1,None,
,,,,,1,0,1,0,9,0,9,0,,,,,,,,,,,,,,,,up,1500,-20,4.8302543949490704e-06,-1,0,-1,-10,243.5475264666641,243.77834729998722,242.53531209999346,242.85110279999208,243.53085979999742,243.86605459998827,244.52626600000076,244.84474309999496,up,1,2.6202231000061147,242.56397260000813,None,245.07458779998706,None,,,,,,,hnxrev,001,0,fr,2022-07-25_14h12.36.342,3-AFC_adaptive_staircase_mess,2022.1.1,None,
,,,,,1,0,1,0,10,0,10,0,,,,,,,,,,,,,,,,right,1500,-30,1.5274605566077578e-06,-1,0,-1,-10,248.73584976667578,248.95907459998853,246.71198100000038,247.02036399999633,247.6905429000035,248.01026430001366,248.69162920000963,249.0127777000016,up,0,2.820249500015052,246.73974399999133,None,249.26904489999288,None,,,,,,,hnxrev,001,0,fr,2022-07-25_14h12.36.342,3-AFC_adaptive_staircase_mess,2022.1.1,None,
,,,,,1,0,1,0,11,0,11,0,,,,,,,,,,,,,,,,up,1500,-25,2.7162516574621683e-06,1,1,1,5,252.10198326665366,None,251.05986259999918,251.37701580001158,252.08531659998698,252.41004029999021,253.06179300000076,253.37803089999943,up,1,2.6824701000005007,251.11734890000662,None,253.63005830001202,None,,,,,,,hnxrev,001,0,fr,2022-07-25_14h12.36.342,3-AFC_adaptive_staircase_mess,2022.1.1,None,
,,,,,1,0,1,0,12,0,12,0,,,,,,,,,,,,,,,,right,1500,-25,2.7162516574621683e-06,1,1,1,5,257.3291411666762,None,255.31582300001173,255.63437750001322,256.30416269999114,256.62840260000667,257.31247450000956,257.64717740000924,up,0,2.7353724000276998,255.34397399998852,None,257.8437641999917,None,,,,,,,hnxrev,001,0,fr,2022-07-25_14h12.36.342,3-AFC_adaptive_staircase_mess,2022.1.1,None,
,,,,,1,0,1,0,13,0,13,0,,,,,,,,,,,,,,,,right,1500,-20,4.8302543949490704e-06,1,1,1,5,261.6068544666671,261.8285137999919,259.55892609999864,259.87777580000693,260.56189209999866,260.8850153000094,261.56163390001166,261.88470570000936,up,0,2.7619685999816284,259.61472330000834,None,262.117459400004,None,,,,,,,hnxrev,001,0,fr,2022-07-25_14h12.36.342,3-AFC_adaptive_staircase_mess,2022.1.1,None,
,,,,,1,0,1,0,14,0,14,0,,,,,,,,,,,,,,,,left,1500,-15,8.589541935787946e-06,1,1,1,5,263.90837966665663,264.1327874000126,263.8631799000141,264.1911723999947,264.88088000001153,265.2109640999988,265.86647949999315,266.18884210000397,up,0,2.5438012999948114,263.920171100006,None,266.4141331000137,None,,,,,,,hnxrev,001,0,fr,2022-07-25_14h12.36.342,3-AFC_adaptive_staircase_mess,2022.1.1,None,
,,,,,1,0,1,0,15,0,15,0,,,,,,,,,,,,,,,,left,1500,-10,1.527460556607758e-05,1,1,1,5,268.0127939666602,None,267.9688290999911,268.29469690000406,268.9797865000146,269.2937275999866,269.9805973999901,270.29568549999385,up,0,2.822621100000106,268.0243807999941,None,270.5206135000044,None,,,,,,,hnxrev,001,0,fr,2022-07-25_14h12.36.342,3-AFC_adaptive_staircase_mess,2022.1.1,None,
,,,,,1,0,1,0,16,0,16,0,,,,,,,,,,,,,,,,right,1500,-5,2.716251657462168e-05,1,1,1,5,274.3776329666764,None,272.3390420000069,272.65748530000565,273.3410861000011,273.66111859999364,274.36096630000975,274.68408700000145,right,1,2.7481713000161108,272.39535959999193,None,274.9120236999879,None,,,,,,,hnxrev,001,0,fr,2022-07-25_14h12.36.342,3-AFC_adaptive_staircase_mess,2022.1.1,None,
,,,,,1,0,1,0,17,0,17,0,,,,,,,,,,,,,,,,right,1500,-5,2.716251657462168e-05,1,1,1,5,278.69590816667574,278.9204671999905,276.6481988999876,276.96802259999095,277.65431199999875,277.9666950000101,278.6498695999908,278.97805700000026,right,1,2.527493500005221,276.7050680000102,None,279.2036728000094,None,,,,,,,hnxrev,001,0,fr,2022-07-25_14h12.36.342,3-AFC_adaptive_staircase_mess,2022.1.1,None,
,,,,,1,0,1,0,18,0,18,0,,,,,,,,,,,,,,,,right,1500,-15,8.589541935787946e-06,-1,2,-1,-5.0,282.7606870666534,None,280.7355652000115,281.0529506999883,281.73522820000653,282.0575577999989,282.74402039998677,283.0727080999932,up,0,3.159949700027937,280.7919469999906,None,283.2743022000068,None,,,,,,,hnxrev,001,0,fr,2022-07-25_14h12.36.342,3-AFC_adaptive_staircase_mess,2022.1.1,None,
,,,,,1,0,1,0,19,0,19,0,,,,,,,,,,,,,,,,right,1500,-12.5,1.1454338263838873e-05,1,3,1,2.5,287.5095425666698,None,285.4518556999974,285.77110079998965,286.4544768999913,286.77578450000146,287.4641319999937,287.7840426999901,up,0,2.9633342000015546,285.50812439998845,None,288.01343729998916,None,,,,,,,hnxrev,001,0,fr,2022-07-25_14h12.36.342,3-AFC_adaptive_staircase_mess,2022.1.1,None,
,,,,,1,0,1,0,20,0,20,0,,,,,,,,,,,,,,,,up,1500,-10.0,1.527460556607758e-05,1,3,1,2.5,291.00377456666706,291.23051520000445,289.9565348000033,290.27471110000624,290.9594713000115,291.28498359999503,291.97089729999425,292.2883531000116,up,1,2.6980503000086173,290.0139468999987,None,292.5178601999942,None,,,,,,,hnxrev,001,0,fr,2022-07-25_14h12.36.342,3-AFC_adaptive_staircase_mess,2022.1.1,None,
,,,,,1,0,1,0,21,0,21,0,,,,,,,,,,,,,,,,left,1500,-10.0,1.527460556607758e-05,1,3,1,2.5,294.2758220666767,None,294.23066969998763,294.5602770000114,295.23891499999445,295.5544549000042,296.24141119999695,296.5565012000152,up,0,2.473242300009588,294.286111399997,None,296.7797342000122,None,,,,,,,hnxrev,001,0,fr,2022-07-25_14h12.36.342,3-AFC_adaptive_staircase_mess,2022.1.1,None,
,,,,,1,0,1,0,22,0,22,0,,,,,,,,,,,,,,,,right,1500,-7.5,2.036901389020565e-05,1,3,1,2.5,None,None,298.25798809999833,298.58098790000076,299.2615211000084,299.585877000005,None,None,up,0,1.6790685000014491,298.3208486000076,None,None,None,,,,,,,hnxrev,001,0,fr,2022-07-25_14h12.36.342,3-AFC_adaptive_staircase_mess,2022.1.1,None,
,,,,,1,0,1,0,23,0,23,0,,,,,,,,,,,,,,,,left,1500,-5.0,2.716251657462168e-05,1,3,1,2.5,301.54703466667365,None,301.5026036000054,301.82895739999367,302.5179252999951,None,None,None,left,1,1.1207123000058345,301.55881200000294,None,None,None,,,,,,,hnxrev,001,0,fr,2022-07-25_14h12.36.342,3-AFC_adaptive_staircase_mess,2022.1.1,None,
,,,,,1,0,1,0,24,0,24,0,,,,,,,,,,,,,,,,up,1500,-5.0,2.716251657462168e-05,1,3,1,2.5,305.22513026665933,None,304.176778699999,304.4947223000054,305.179060399998,305.50444119999884,306.18445420000353,None,up,1,1.9995241000142414,304.233186700003,None,None,None,,,,,,,hnxrev,001,0,fr,2022-07-25_14h12.36.342,3-AFC_adaptive_staircase_mess,2022.1.1,None,
,,,,,1,0,1,0,25,0,25,0,,,,,,,,,,,,,,,,right,1500,-10.0,1.527460556607758e-05,-1,4,-1,-5.0,309.7900897666734,310.0174793000042,307.7440370999975,308.0619241000095,308.74457750000875,309.06309310000506,309.74597540000104,310.0724640999979,up,0,3.0312482000153977,307.79972810001345,None,310.3040968000132,None,,,,,,,hnxrev,001,0,fr,2022-07-25_14h12.36.342,3-AFC_adaptive_staircase_mess,2022.1.1,None,
,,,,,1,0,1,0,26,0,26,0,,,,,,,,,,,,,,,,right,1500,-7.5,2.036901389020565e-05,1,5,1,2.5,314.40529146665745,None,312.3500272000092,312.6695997999923,313.34936140000354,313.67565300001297,314.3597216999915,314.6820369999914,up,0,2.651207599992631,312.4051527999982,None,314.9098367000115,None,,,,,,,hnxrev,001,0,fr,2022-07-25_14h12.36.342,3-AFC_adaptive_staircase_mess,2022.1.1,None,
,,,,,1,0,1,0,27,0,27,0,,,,,,,,,,,,,,,,right,1500,-5.0,2.716251657462168e-05,1,5,1,2.5,318.612479366657,None,316.5861998999899,316.9040689000103,317.5865100999945,317.90777530000196,318.5645778999897,318.8879920000036,up,0,2.986513499985449,316.61363020000863,None,319.1163843999966,None,,,,,,,hnxrev,001,0,fr,2022-07-25_14h12.36.342,3-AFC_adaptive_staircase_mess,2022.1.1,None,
,,,,,1,0,1,0,28,0,28,0,,,,,,,,,,,,,,,,right,1500,-2.5,3.622179800374953e-05,1,5,1,2.5,323.14279936667685,323.3652968000097,321.09126069999184,321.4111960000009,322.0940120999876,322.41313239999,323.09693450000486,323.41996190001373,right,1,2.6615911000117194,321.14706089999527,None,323.64995709998766,None,,,,,,,hnxrev,001,0,fr,2022-07-25_14h12.36.342,3-AFC_adaptive_staircase_mess,2022.1.1,None,
,,,,,1,0,1,0,29,0,29,0,,,,,,,,,,,,,,,,up,1500,-2.5,3.622179800374953e-05,1,5,1,2.5,326.36933906667787,None,325.3157283999899,325.6382699999958,326.320713299996,326.6525488999905,None,None,up,1,1.796031200006837,325.3724404000095,None,None,None,,,,,,,hnxrev,001,0,fr,2022-07-25_14h12.36.342,3-AFC_adaptive_staircase_mess,2022.1.1,None,
,,,,,1,0,1,0,30,0,30,0,,,,,,,,,,,,,,,,left,1500,-7.5,2.036901389020565e-05,-1,6,-1,-5.0,328.71444586667735,None,328.6689422999916,328.99685299998964,329.6871328999987,330.0101772999915,330.6767821999965,330.99852309998823,up,0,2.4904022000264376,328.72572429999127,None,331.2309946999885,None,,,,,,,hnxrev,001,0,fr,2022-07-25_14h12.36.342,3-AFC_adaptive_staircase_mess,2022.1.1,None,
,,,,,2,0,2,0,0,0,0,0,,,,,,,,,,,,,[],[],10,left,2000,30,0.0023657562948074026,0,0,-1,10,339.7157799666786,None,339.69911330001196,340.01396149999346,None,None,None,None,left,1,0.46819329998106696,339.7311630999902,None,None,None,up,6.886612400005106,332.2889337000088,None,332.2889337000088,None,hnxrev,001,0,fr,2022-07-25_14h12.36.342,3-AFC_adaptive_staircase_mess,2022.1.1,None,
,,,,,2,0,2,0,1,0,1,0,,,,,,,,,,,,,,,,left,2000,30,0.0023657562948074026,0,0,-1,10,341.7625853666725,None,341.74591870000586,342.07008750000386,None,None,None,None,left,1,0.4405366000137292,341.7746149000013,None,None,None,,,,,,,hnxrev,001,0,fr,2022-07-25_14h12.36.342,3-AFC_adaptive_staircase_mess,2022.1.1,None,
,,,,,2,0,2,0,2,0,2,0,,,,,,,,,,,,,,,,up,2000,10,0.00023657562948074026,-1,0,-1,-10,344.768537866654,None,343.7481461999996,344.06692459998885,344.72307189999265,345.045140000002,None,None,up,1,1.3205853000108618,343.7756139000121,None,None,None,,,,,,,hnxrev,001,0,fr,2022-07-25_14h12.36.342,3-AFC_adaptive_staircase_mess,2022.1.1,None,
,,,,,2,0,2,0,3,0,3,0,,,,,,,,,,,,,,,,up,2000,10,0.00023657562948074026,-1,0,-1,-10,347.63601686666175,None,346.5830106000067,346.90446079999674,347.5901346000028,347.91593990000547,None,None,up,1,1.3514485000050627,346.6403282000101,None,None,None,,,,,,,hnxrev,001,0,fr,2022-07-25_14h12.36.342,3-AFC_adaptive_staircase_mess,2022.1.1,None,
,,,,,2,0,2,0,4,0,4,0,,,,,,,,,,,,,,,,up,2000,0,7.481178280472168e-05,-1,0,-1,-10,350.54727316665617,None,349.5164239000005,349.8407196000044,350.5306064999895,350.85509860000457,None,None,up,1,1.6246145000040997,349.57544029998826,None,None,None,,,,,,,hnxrev,001,0,fr,2022-07-25_14h12.36.342,3-AFC_adaptive_staircase_mess,2022.1.1,None,
,,,,,2,0,2,0,5,0,5,0,,,,,,,,,,,,,,,,left,2000,0,7.481178280472168e-05,-1,0,-1,-10,352.76409886667193,None,352.7474322000053,353.0866197000141,None,None,None,None,left,1,0.6514852000109386,352.7803955000127,None,None,None,,,,,,,hnxrev,001,0,fr,2022-07-25_14h12.36.342,3-AFC_adaptive_staircase_mess,2022.1.1,None,
,,,,,2,0,2,0,6,0,6,0,,,,,,,,,,,,,,,,up,2000,-10,2.3657562948074015e-05,-1,0,-1,-10,355.9671832666538,356.19644349999726,354.95345910001197,355.28781189999427,355.95051659998717,356.2879885000002,356.95716379999067,357.2897362000076,up,1,3.18738650000887,354.98814450000646,None,357.48801390000153,None,,,,,,,hnxrev,001,0,fr,2022-07-25_14h12.36.342,3-AFC_adaptive_staircase_mess,2022.1.1,None,
,,,,,2,0,2,0,7,0,7,0,,,,,,,,,,,,,,,,left,2000,-10,2.3657562948074015e-05,-1,0,-1,-10,359.7115857666688,None,359.69491910000215,360.02603290000116,360.6754820999922,360.9924866000074,361.69303009999567,362.0274064000114,up,0,2.71618769998895,359.7243851000094,None,362.24990029999753,None,,,,,,,hnxrev,001,0,fr,2022-07-25_14h12.36.342,3-AFC_adaptive_staircase_mess,2022.1.1,None,
,,,,,2,0,2,0,8,0,8,0,,,,,,,,,,,,,,,,right,2000,-5,4.206975708225974e-05,1,1,1,5,366.01024606667147,366.2399510999967,363.9737954000011,364.29178110000794,364.96512249999796,365.2940082999994,365.96067760000005,366.30255210000905,up,0,2.6033269000181463,364.0364042999863,None,366.52893430000404,None,,,,,,,hnxrev,001,0,fr,2022-07-25_14h12.36.342,3-AFC_adaptive_staircase_mess,2022.1.1,None,
,,,,,2,0,2,0,9,0,9,0,,,,,,,,,,,,,,,,left,2000,0,7.481178280472168e-05,1,1,1,5,368.19379326666626,None,368.1499640000111,368.47290500000236,None,None,None,None,left,1,0.6837302999920212,368.20396569999866,None,None,None,,,,,,,hnxrev,001,0,fr,2022-07-25_14h12.36.342,3-AFC_adaptive_staircase_mess,2022.1.1,None,
,,,,,2,0,2,0,10,0,10,0,,,,,,,,,,,,,,,,left,2000,0,7.481178280472168e-05,1,1,1,5,370.44890526667973,None,370.4008555999899,370.73515049999696,None,None,None,None,left,1,0.7830814000044484,370.46438260001014,None,None,None,,,,,,,hnxrev,001,0,fr,2022-07-25_14h12.36.342,3-AFC_adaptive_staircase_mess,2022.1.1,None,
,,,,,2,0,2,0,11,0,11,0,,,,,,,,,,,,,,,,up,2000,-10,2.3657562948074015e-05,-1,2,-1,-5.0,373.7994285666539,None,372.765450100007,373.0908754999982,373.75292400000035,374.07614869999816,374.7645162999979,375.0825454000151,up,1,2.651417900022352,372.8280919000099,None,375.31358859999455,None,,,,,,,hnxrev,001,0,fr,2022-07-25_14h12.36.342,3-AFC_adaptive_staircase_mess,2022.1.1,None,
,,,,,2,0,2,0,12,0,12,0,,,,,,,,,,,,,,,,left,2000,-10,2.3657562948074015e-05,-1,2,-1,-5.0,377.0492191666601,None,377.0012354000064,377.3247902999865,378.0107301000098,378.3335001000087,379.00285029999213,379.3224118000071,up,0,2.6104798000014853,377.06117420000373,None,379.5527183999948,None,,,,,,,hnxrev,001,0,fr,2022-07-25_14h12.36.342,3-AFC_adaptive_staircase_mess,2022.1.1,None,
,,,,,2,0,2,0,13,0,13,0,,,,,,,,,,,,,,,,up,2000,-7.5,3.154786722400965e-05,1,3,1,2.5,382.2040337666733,None,381.1793719000125,381.49790650000796,382.18736710000667,382.51040009999997,383.17284919999656,383.49926720000803,up,1,2.651723800023319,381.2365715999913,None,383.7319887999911,None,,,,,,,hnxrev,001,0,fr,2022-07-25_14h12.36.342,3-AFC_adaptive_staircase_mess,2022.1.1,None,
,,,,,2,0,2,0,14,0,14,0,,,,,,,,,,,,,,,,right,2000,-7.5,3.154786722400965e-05,1,3,1,2.5,387.4502690666743,None,385.42165080000996,385.75589729999774,386.3995511000103,386.7362027000054,387.40507939999225,387.7258450000081,up,0,2.535809799999697,385.44899840001017,None,387.9540765999991,None,,,,,,,hnxrev,001,0,fr,2022-07-25_14h12.36.342,3-AFC_adaptive_staircase_mess,2022.1.1,None,
,,,,,2,0,2,0,15,0,15,0,,,,,,,,,,,,,,,,up,2000,-5.0,4.206975708225974e-05,1,3,1,2.5,390.5242138666547,None,389.48675410001306,389.81318110000575,390.50754719998804,390.84875440000906,391.4898848999874,391.81885159999365,up,1,2.875928700028453,389.54824969999027,None,392.0526055000082,None,,,,,,,hnxrev,001,0,fr,2022-07-25_14h12.36.342,3-AFC_adaptive_staircase_mess,2022.1.1,None,
,,,,,2,0,2,0,16,0,16,0,,,,,,,,,,,,,,,,right,2000,-5.0,4.206975708225974e-05,1,3,1,2.5,395.97747866667146,None,393.92356799999834,394.25128649998805,394.9338304999983,395.2656915000116,395.92757619998883,396.25995070001227,up,0,2.8307457999908365,393.9849031000049,None,396.47365639999043,None,,,,,,,hnxrev,001,0,fr,2022-07-25_14h12.36.342,3-AFC_adaptive_staircase_mess,2022.1.1,None,
,,,,,2,0,2,0,17,0,17,0,,,,,,,,,,,,,,,,up,2000,-2.5,5.610092271509818e-05,1,3,1,2.5,399.3675793666664,None,398.3129631000047,398.63111539999954,399.32185199999367,399.6671563000127,None,None,up,1,1.8453146000101697,398.37038259999827,None,None,None,,,,,,,hnxrev,001,0,fr,2022-07-25_14h12.36.342,3-AFC_adaptive_staircase_mess,2022.1.1,None,
,,,,,2,0,2,0,18,0,18,0,,,,,,,,,,,,,,,,up,2000,-2.5,5.610092271509818e-05,1,3,1,2.5,402.7807546666629,None,401.73141740000574,402.0643687999982,402.73277719999896,403.066023899999,None,None,up,1,1.435366999998223,401.79650749999564,None,None,None,,,,,,,hnxrev,001,0,fr,2022-07-25_14h12.36.342,3-AFC_adaptive_staircase_mess,2022.1.1,None,
,,,,,2,0,2,0,19,0,19,0,,,,,,,,,,,,,,,,left,2000,-7.5,3.154786722400965e-05,-1,4,-1,-5.0,404.795347166659,None,404.74926199999754,405.07579810000607,405.7483697000134,406.08534489999874,406.7639013000007,407.0898226000136,up,0,2.7862556999898516,404.80641459999606,None,407.2927845999948,None,,,,,,,hnxrev,001,0,fr,2022-07-25_14h12.36.342,3-AFC_adaptive_staircase_mess,2022.1.1,None,
,,,,,2,0,2,0,20,0,20,0,,,,,,,,,,,,,,,,up,2000,-5.0,4.206975708225974e-05,1,5,1,2.5,410.1524453666682,None,409.09505080000963,409.4203104999906,410.1029383999994,410.4464997999894,411.107866300008,411.43929569999455,up,1,2.871064600010868,409.15264789998764,None,411.6449087999936,None,,,,,,,hnxrev,001,0,fr,2022-07-25_14h12.36.342,3-AFC_adaptive_staircase_mess,2022.1.1,None,
,,,,,2,0,2,0,21,0,21,0,,,,,,,,,,,,,,,,left,2000,-5.0,4.206975708225974e-05,1,5,1,2.5,413.59904746667985,None,413.55526379999355,413.8813775999879,414.55267209999147,414.8745523999969,415.5417576000036,415.87457449999056,up,0,2.7095017000101507,413.6112401999999,None,416.110283099988,None,,,,,,,hnxrev,001,0,fr,2022-07-25_14h12.36.342,3-AFC_adaptive_staircase_mess,2022.1.1,None,
,,,,,2,0,2,0,22,0,22,0,,,,,,,,,,,,,,,,left,2000,-2.5,5.610092271509818e-05,1,5,1,2.5,417.87351816666,None,417.82798460000777,418.1527505000122,None,None,None,None,left,1,0.7632178000058047,417.88439859999926,None,None,None,,,,,,,hnxrev,001,0,fr,2022-07-25_14h12.36.342,3-AFC_adaptive_staircase_mess,2022.1.1,None,
,,,,,2,0,2,0,23,0,23,0,,,,,,,,,,,,,,,,left,2000,-2.5,5.610092271509818e-05,1,5,1,2.5,420.2076670666613,None,420.16207089999807,420.49218820000533,None,None,None,None,left,1,0.7007054000278004,420.2194017999864,None,None,None,,,,,,,hnxrev,001,0,fr,2022-07-25_14h12.36.342,3-AFC_adaptive_staircase_mess,2022.1.1,None,
,,,,,2,0,2,0,24,0,24,0,,,,,,,,,,,,,,,,up,2000,-7.5,3.154786722400965e-05,-1,6,-1,-5.0,423.44884676667084,None,422.4184183999896,422.7398932999931,423.4321801000042,423.7592678999936,424.43483270000434,424.75416229999973,up,1,2.610474500019336,422.47681819999707,None,424.9867368999985,None,,,,,,,hnxrev,001,0,fr,2022-07-25_14h12.36.342,3-AFC_adaptive_staircase_mess,2022.1.1,None,
,,,,,3,0,3,0,0,0,0,0,,,,,,,,,,,,,[],[],10,right,3000,30,0.001733684252262658,0,0,-1,10,430.32166466667354,None,428.2761158999929,428.59653400001116,429.2899405999924,429.60152930000913,430.27541460000793,430.59950989999925,right,1,2.3039099000161514,428.335476200009,None,None,None,right,1.647563699982129,426.16016619998845,None,426.16016619998845,None,hnxrev,001,0,fr,2022-07-25_14h12.36.342,3-AFC_adaptive_staircase_mess,2022.1.1,None,
,,,,,3,0,3,0,1,0,1,0,,,,,,,,,,,,,,,,right,3000,30,0.001733684252262658,0,0,-1,10,434.1875642666748,None,432.15824520000024,432.48005909999483,433.1410232000053,433.4730650999991,434.1708976000082,None,right,1,2.203115100011928,432.2212288999872,None,None,None,,,,,,,hnxrev,001,0,fr,2022-07-25_14h12.36.342,3-AFC_adaptive_staircase_mess,2022.1.1,None,
,,,,,3,0,3,0,2,0,2,0,,,,,,,,,,,,,,,,right,3000,10,0.00017336842522626576,-1,0,-1,-10,437.966205866662,None,435.9469104000018,436.27012440000544,436.93036699999357,437.2490865,437.94953919999534,438.27256909999414,right,1,2.285400299995672,436.0030318000063,None,None,None,,,,,,,hnxrev,001,0,fr,2022-07-25_14h12.36.342,3-AFC_adaptive_staircase_mess,2022.1.1,None,
,,,,,3,0,3,0,3,0,3,0,,,,,,,,,,,,,,,,left,3000,10,0.00017336842522626576,-1,0,-1,-10,439.83476406668,None,439.7810882999911,440.11632430000464,None,None,None,None,left,1,0.7018623999902047,439.8494866999972,None,None,None,,,,,,,hnxrev,001,0,fr,2022-07-25_14h12.36.342,3-AFC_adaptive_staircase_mess,2022.1.1,None,
,,,,,3,0,3,0,4,0,4,0,,,,,,,,,,,,,,,,up,3000,0,5.482390980715923e-05,-1,0,-1,-10,443.07745186667694,None,442.05140440000105,442.3762131000112,443.0607852000103,443.38917469998705,444.0454233000055,444.3510956999962,up,1,2.5943016999808606,442.10914429998957,None,444.5950089000107,None,,,,,,,hnxrev,001,0,fr,2022-07-25_14h12.36.342,3-AFC_adaptive_staircase_mess,2022.1.1,None,
,,,,,3,0,3,0,5,0,5,0,,,,,,,,,,,,,,,,right,3000,0,5.482390980715923e-05,-1,0,-1,-10,448.2528306666684,None,446.19947970000794,446.51957460000995,447.2008261999872,447.51950450000004,448.20882619998883,448.5420904000057,right,1,2.511746599979233,446.2559758000134,None,448.7715523999941,None,,,,,,,hnxrev,001,0,fr,2022-07-25_14h12.36.342,3-AFC_adaptive_staircase_mess,2022.1.1,None,
,,,,,3,0,3,0,6,0,6,0,,,,,,,,,,,,,,,,up,3000,-10,1.7336842522626584e-05,-1,0,-1,-10,451.3108771666632,None,450.283365899988,450.6008292000042,451.29421049999655,451.62090859998716,452.2793201000022,452.6300319000147,right,0,2.8509932000015397,450.3411075999902,None,452.8319303999888,None,,,,,,,hnxrev,001,0,fr,2022-07-25_14h12.36.342,3-AFC_adaptive_staircase_mess,2022.1.1,None,
,,,,,3,0,3,0,7,0,7,0,,,,,,,,,,,,,,,,left,3000,-5,3.082975009307411e-05,1,1,1,5,454.7464944666756,None,454.69865410000784,455.0294140999904,455.7166477999999,456.06688349999604,456.7009085000027,457.0199625999958,up,0,2.4820624999993015,454.7581780999899,None,457.2462549000047,None,,,,,,,hnxrev,001,0,fr,2022-07-25_14h12.36.342,3-AFC_adaptive_staircase_mess,2022.1.1,None,
,,,,,3,0,3,0,8,0,8,0,,,,,,,,,,,,,,,,left,3000,0,5.482390980715923e-05,1,1,1,5,458.78185206666626,None,458.7651853999996,459.09420339998906,None,None,None,None,left,1,0.7394781000039075,458.79592149998643,None,None,None,,,,,,,hnxrev,001,0,fr,2022-07-25_14h12.36.342,3-AFC_adaptive_staircase_mess,2022.1.1,None,
,,,,,3,0,3,0,9,0,9,0,,,,,,,,,,,,,,,,left,3000,0,5.482390980715923e-05,1,1,1,5,461.07033846667423,None,461.0250961999991,461.35361170000397,None,None,None,None,left,1,0.6778192000056151,461.08174289998715,None,None,None,,,,,,,hnxrev,001,0,fr,2022-07-25_14h12.36.342,3-AFC_adaptive_staircase_mess,2022.1.1,None,
,,,,,3,0,3,0,10,0,10,0,,,,,,,,,,,,,,,,left,3000,-10,1.7336842522626584e-05,-1,2,-1,-5.0,463.3011816666733,None,463.2571384999901,463.5862643000146,464.2688916999905,464.5894785000128,465.27002729999367,465.6062462000118,up,0,2.6625072000024375,463.3133693000127,None,465.80831880000187,None,,,,,,,hnxrev,001,0,fr,2022-07-25_14h12.36.342,3-AFC_adaptive_staircase_mess,2022.1.1,None,
,,,,,3,0,3,0,11,0,11,0,,,,,,,,,,,,,,,,right,3000,-7.5,2.3119051069963017e-05,1,3,1,2.5,469.5248322666778,None,467.5042753999878,467.80740479999804,468.4997269999876,468.80920889999834,469.4884354000096,469.8101239000098,up,0,2.788513299979968,467.53115570000955,None,470.0453162000049,None,,,,,,,hnxrev,001,0,fr,2022-07-25_14h12.36.342,3-AFC_adaptive_staircase_mess,2022.1.1,None,
,,,,,3,0,3,0,12,0,12,0,,,,,,,,,,,,,,,,left,3000,-5.0,3.082975009307411e-05,1,3,1,2.5,471.8928634666702,None,471.8761968000035,472.2001777999976,472.8420364999911,473.16857509998954,473.8446181000036,474.1711981999979,up,0,2.7566861999803223,471.9068558999861,None,474.39722449998953,None,,,,,,,hnxrev,001,0,fr,2022-07-25_14h12.36.342,3-AFC_adaptive_staircase_mess,2022.1.1,None,
,,,,,3,0,3,0,13,0,13,0,,,,,,,,,,,,,,,,right,3000,-2.5,4.1112132497353565e-05,1,3,1,2.5,478.24075966666373,None,476.17065059999004,476.514794799994,477.1827263000014,477.5094117000117,478.18227879999904,478.5080614000035,up,0,2.7161989000160247,476.22672249999596,None,478.73815819999436,None,,,,,,,hnxrev,001,0,fr,2022-07-25_14h12.36.342,3-AFC_adaptive_staircase_mess,2022.1.1,None,
,,,,,3,0,3,0,14,0,14,0,,,,,,,,,,,,,,,,up,3000,0.0,5.482390980715923e-05,1,3,1,2.5,481.4847498666534,None,480.43059629999334,480.7565031000122,481.44026510001277,481.7717018999974,None,None,up,1,1.775729400018463,480.5195759999915,None,None,None,,,,,,,hnxrev,001,0,fr,2022-07-25_14h12.36.342,3-AFC_adaptive_staircase_mess,2022.1.1,None,
,,,,,3,0,3,0,15,0,15,0,,,,,,,,,,,,,,,,left,3000,0.0,5.482390980715923e-05,1,3,1,2.5,483.82731346667083,None,483.7834353999933,484.1061900999921,None,None,None,None,left,1,0.7361882000113837,483.8389819999866,None,None,None,,,,,,,hnxrev,001,0,fr,2022-07-25_14h12.36.342,3-AFC_adaptive_staircase_mess,2022.1.1,None,
,,,,,3,0,3,0,16,0,16,0,,,,,,,,,,,,,,,,right,3000,-5.0,3.082975009307411e-05,-1,4,-1,-5.0,488.1169208666581,None,486.08651540000574,486.40554529998917,487.0978493000148,487.41964909998933,488.10025419999147,488.4179607999977,up,0,2.681259700009832,486.1431464999914,None,488.64239170000656,None,,,,,,,hnxrev,001,0,fr,2022-07-25_14h12.36.342,3-AFC_adaptive_staircase_mess,2022.1.1,None,
,,,,,3,0,3,0,17,0,17,0,,,,,,,,,,,,,,,,right,3000,-2.5,4.1112132497353565e-05,1,5,1,2.5,492.37219156665765,None,490.31889840000076,490.6398467000108,491.326679699996,491.6304075999942,492.3299104000034,492.652556999994,up,0,2.696438000013586,490.37485110000125,None,492.87888130001375,None,,,,,,,hnxrev,001,0,fr,2022-07-25_14h12.36.342,3-AFC_adaptive_staircase_mess,2022.1.1,None,
,,,,,3,0,3,0,18,0,18,0,,,,,,,,,,,,,,,,up,3000,0.0,5.482390980715923e-05,1,5,1,2.5,495.6325319666687,None,494.58476870000595,494.9009708999947,495.58716920000734,495.9242322999926,None,None,up,1,1.677953999984311,494.63311329999124,None,None,None,,,,,,,hnxrev,001,0,fr,2022-07-25_14h12.36.342,3-AFC_adaptive_staircase_mess,2022.1.1,None,
,,,,,3,0,3,0,19,0,19,0,,,,,,,,,,,,,,,,right,3000,0.0,5.482390980715923e-05,1,5,1,2.5,499.869154966673,None,497.82112139998935,498.17155510000885,498.8288763999881,499.1411167999904,499.82356170000276,500.15568070000154,right,1,2.66714650002541,497.86847429999034,None,500.374101399997,None,,,,,,,hnxrev,001,0,fr,2022-07-25_14h12.36.342,3-AFC_adaptive_staircase_mess,2022.1.1,None,
,,,,,3,0,3,0,20,0,20,0,,,,,,,,,,,,,,,,up,3000,-5.0,3.082975009307411e-05,-1,6,-1,-5.0,503.1105689666622,None,502.0541502000124,502.3763303000014,503.0665345999878,503.3929492000025,504.0739915999875,504.388796299987,up,1,2.5650891000113916,502.1144798999885,None,504.61326270000427,None,,,,,,,hnxrev,001,0,fr,2022-07-25_14h12.36.342,3-AFC_adaptive_staircase_mess,2022.1.1,None,
,,,,,4,0,4,0,0,0,0,0,,,,,,,,,,,,,[],[],10,right,4000,30,0.0026544222211549416,0,0,-1,10,509.53290196665716,509.7612242999894,507.5042664000066,507.811512699991,508.4818770000129,508.80293860001257,509.5162352999905,509.8447419000149,right,1,2.339109799999278,507.53246019998915,None,None,None,right,1.2352651999972295,505.77275720000034,None,505.77275720000034,None,hnxrev,001,0,fr,2022-07-25_14h12.36.342,3-AFC_adaptive_staircase_mess,2022.1.1,None,
,,,,,4,0,4,0,1,0,1,0,,,,,,,,,,,,,,,,up,4000,30,0.0026544222211549416,0,0,-1,10,512.4226420666712,None,511.3743996999983,511.69067059998633,512.3771423000144,512.7023857999884,None,None,up,1,1.5197280000138562,511.4316983000026,None,None,None,,,,,,,hnxrev,001,0,fr,2022-07-25_14h12.36.342,3-AFC_adaptive_staircase_mess,2022.1.1,None,
,,,,,4,0,4,0,2,0,2,0,,,,,,,,,,,,,,,,right,4000,10,0.00026544222211549425,-1,0,-1,-10,516.5063819666723,516.724844100012,514.4465815000003,514.7600106000027,515.4465758000151,515.7751672999875,516.4587194999913,None,right,1,2.2410323999938555,514.5022619999945,None,None,None,,,,,,,hnxrev,001,0,fr,2022-07-25_14h12.36.342,3-AFC_adaptive_staircase_mess,2022.1.1,None,
,,,,,4,0,4,0,3,0,3,0,,,,,,,,,,,,,,,,left,4000,10,0.00026544222211549425,-1,0,-1,-10,518.3071184666808,518.5222462000092,518.259163700015,518.5778066999919,None,None,None,None,left,1,0.49928109999746084,518.3167313000013,None,None,None,,,,,,,hnxrev,001,0,fr,2022-07-25_14h12.36.342,3-AFC_adaptive_staircase_mess,2022.1.1,None,
,,,,,4,0,4,0,4,0,4,0,,,,,,,,,,,,,,,,up,4000,0,8.394020090612804e-05,-1,0,-1,-10,521.3730948666673,521.5934635000012,520.3231633999967,520.6392514999898,521.3272670000151,521.6479172999971,None,None,up,1,1.355639399989741,520.380077800015,None,None,None,,,,,,,hnxrev,001,0,fr,2022-07-25_14h12.36.342,3-AFC_adaptive_staircase_mess,2022.1.1,None,
,,,,,4,0,4,0,5,0,5,0,,,,,,,,,,,,,,,,left,4000,0,8.394020090612804e-05,-1,0,-1,-10,523.275971966654,None,523.229949200002,523.5482125999988,None,None,None,None,left,1,0.4870320000045467,523.2883600000059,None,None,None,,,,,,,hnxrev,001,0,fr,2022-07-25_14h12.36.342,3-AFC_adaptive_staircase_mess,2022.1.1,None,
,,,,,4,0,4,0,6,0,6,0,,,,,,,,,,,,,,,,up,4000,-10,2.6544222211549425e-05,-1,0,-1,-10,526.336397066658,None,525.2999237999902,525.6356617000129,526.2907535000122,526.6181173000077,527.2736887999927,527.5929072000145,up,1,3.4788371000031475,525.3284847000032,None,527.850864100008,None,,,,,,,hnxrev,001,0,fr,2022-07-25_14h12.36.342,3-AFC_adaptive_staircase_mess,2022.1.1,None,
,,,,,4,0,4,0,7,0,7,0,,,,,,,,,,,,,,,,left,4000,-10,2.6544222211549425e-05,-1,0,-1,-10,530.3711998666734,None,530.3210070999921,530.6448666999931,531.3277923999995,531.6376288000029,532.3059187000035,532.6230823000078,up,0,2.763763299997663,530.3885001000017,None,532.8791269999929,None,,,,,,,hnxrev,001,0,fr,2022-07-25_14h12.36.342,3-AFC_adaptive_staircase_mess,2022.1.1,None,
,,,,,4,0,4,0,8,0,8,0,,,,,,,,,,,,,,,,up,4000,-5,4.720304381429618e-05,1,1,1,5,535.6839198666605,None,534.6368500000099,534.9557548000012,535.641569600004,535.961134400015,None,None,up,1,1.578432000009343,534.6939644000086,None,None,None,,,,,,,hnxrev,001,0,fr,2022-07-25_14h12.36.342,3-AFC_adaptive_staircase_mess,2022.1.1,None,
,,,,,4,0,4,0,9,0,9,0,,,,,,,,,,,,,,,,right,4000,-5,4.720304381429618e-05,1,1,1,5,539.8123703666536,None,537.7691743999894,538.077008799999,538.7767663999985,539.1074948000023,539.7957036999869,540.1279997999955,right,1,2.5111473000142723,537.8253496999969,None,540.3288540999929,None,,,,,,,hnxrev,001,0,fr,2022-07-25_14h12.36.342,3-AFC_adaptive_staircase_mess,2022.1.1,None,
,,,,,4,0,4,0,10,0,10,0,,,,,,,,,,,,,,,,right,4000,-15,1.4926913094589802e-05,-1,2,-1,-5.0,543.8990884666603,None,541.8552997999941,542.1704514999874,542.8816290000104,543.2072099999932,543.8535666000098,544.176522099995,up,0,2.8128639000060502,541.9149054999871,None,544.4053357999946,None,,,,,,,hnxrev,001,0,fr,2022-07-25_14h12.36.342,3-AFC_adaptive_staircase_mess,2022.1.1,None,
,,,,,4,0,4,0,11,0,11,0,,,,,,,,,,,,,,,,left,4000,-12.5,1.9905358527674868e-05,1,3,1,2.5,546.2619227666621,546.4840786000132,546.2186421999941,546.5388355999894,547.2336857999908,547.552867499995,548.2228105000104,548.5572532000078,up,0,2.677964000002248,546.2736105000076,None,548.7599419000035,None,,,,,,,hnxrev,001,0,fr,2022-07-25_14h12.36.342,3-AFC_adaptive_staircase_mess,2022.1.1,None,
,,,,,4,0,4,0,12,0,12,0,,,,,,,,,,,,,,,,right,4000,-10.0,2.6544222211549425e-05,1,3,1,2.5,552.5119100666818,None,550.4552595000132,550.7720644999936,551.4572805000062,551.7778273000149,552.4679616999929,552.7940732999996,up,0,2.790660200000275,550.5128368000151,None,553.0283398999891,None,,,,,,,hnxrev,001,0,fr,2022-07-25_14h12.36.342,3-AFC_adaptive_staircase_mess,2022.1.1,None,
,,,,,4,0,4,0,13,0,13,0,,,,,,,,,,,,,,,,up,4000,-7.5,3.53972892192069e-05,1,3,1,2.5,555.8670640666717,None,554.8426257999963,555.1654885000025,555.8217866999912,556.151840800012,None,None,up,1,1.5963144000270404,554.8747733999917,None,None,None,,,,,,,hnxrev,001,0,fr,2022-07-25_14h12.36.342,3-AFC_adaptive_staircase_mess,2022.1.1,None,
,,,,,4,0,4,0,14,0,14,0,,,,,,,,,,,,,,,,up,4000,-7.5,3.53972892192069e-05,1,3,1,2.5,559.0192714666812,None,558.0004790000094,558.3168133000145,558.9743957000028,559.3019797999877,None,None,up,1,1.4149337999988347,558.0328019000008,None,None,None,,,,,,,hnxrev,001,0,fr,2022-07-25_14h12.36.342,3-AFC_adaptive_staircase_mess,2022.1.1,None,
,,,,,4,0,4,0,15,0,15,0,,,,,,,,,,,,,,,,right,4000,-12.5,1.9905358527674868e-05,-1,4,-1,-5.0,563.0073883666812,None,560.9569510000001,561.2734931999876,561.9544291000057,562.2770176999911,562.9633780999866,563.2900955000077,up,0,2.7311243999865837,561.0200237999961,None,563.5205959999876,None,,,,,,,hnxrev,001,0,fr,2022-07-25_14h12.36.342,3-AFC_adaptive_staircase_mess,2022.1.1,None,
,,,,,4,0,4,0,16,0,16,0,,,,,,,,,,,,,,,,up,4000,-10.0,2.6544222211549425e-05,1,5,1,2.5,566.2987318666749,None,565.2619664999947,565.5877746999904,566.2820652000082,566.6037903999968,None,None,up,1,1.474040300003253,565.3254791999934,None,None,None,,,,,,,hnxrev,001,0,fr,2022-07-25_14h12.36.342,3-AFC_adaptive_staircase_mess,2022.1.1,None,
,,,,,4,0,4,0,17,0,17,0,,,,,,,,,,,,,,,,right,4000,-10.0,2.6544222211549425e-05,1,5,1,2.5,570.3382357666599,None,568.3018697999942,568.6089150999906,569.312582899991,569.6255743000074,570.3215690999932,570.6452012000082,right,1,2.41907249999349,568.3575041000149,None,None,None,,,,,,,hnxrev,001,0,fr,2022-07-25_14h12.36.342,3-AFC_adaptive_staircase_mess,2022.1.1,None,
,,,,,4,0,4,0,18,0,18,0,,,,,,,,,,,,,,,,up,4000,-15.0,1.4926913094589802e-05,-1,6,-1,-5.0,573.3213587666726,573.5498606000037,572.2658778000041,572.5873547999945,573.2759751999984,573.6043584000145,574.2906727000081,574.6126038999937,up,1,2.864693300012732,572.3264617999957,None,574.8356464999961,None,,,,,,,hnxrev,001,0,fr,2022-07-25_14h12.36.342,3-AFC_adaptive_staircase_mess,2022.1.1,None,
,,,,,5,0,5,0,0,0,0,0,,,,,,,,,,,,,[],[],10,left,6000,30,0.003664122665694519,0,0,-1,10,577.576560266669,None,577.5598936000024,577.871839200001,None,None,None,None,left,1,0.7316275000048336,577.587967200001,None,None,None,up,0.8118516000104137,576.2591032999917,None,576.2591032999917,None,hnxrev,001,0,fr,2022-07-25_14h12.36.342,3-AFC_adaptive_staircase_mess,2022.1.1,None,
,,,,,5,0,5,0,1,0,1,0,,,,,,,,,,,,,,,,up,6000,30,0.003664122665694519,0,0,-1,10,580.8653636666752,None,579.821718799998,580.1350179000001,580.8189385000151,581.1462294000085,None,None,up,1,1.2986733000143431,579.8762609999976,None,None,None,,,,,,,hnxrev,001,0,fr,2022-07-25_14h12.36.342,3-AFC_adaptive_staircase_mess,2022.1.1,None,
,,,,,5,0,5,0,2,0,2,0,,,,,,,,,,,,,,,,up,6000,10,0.00036641226656945183,-1,0,-1,-10,583.75669376666,583.9885966000147,582.7052492999937,583.0265761000046,583.7084858999879,584.0477024000138,None,None,up,1,1.4182700000237674,582.7643812999886,None,None,None,,,,,,,hnxrev,001,0,fr,2022-07-25_14h12.36.342,3-AFC_adaptive_staircase_mess,2022.1.1,None,
,,,,,5,0,5,0,3,0,3,0,,,,,,,,,,,,,,,,up,6000,10,0.00036641226656945183,-1,0,-1,-10,586.7174035666724,586.9439124999917,585.6905646999949,586.0086534000002,586.7007369000057,587.0294618000044,None,None,up,1,1.260652500030119,585.7474389999988,None,None,None,,,,,,,hnxrev,001,0,fr,2022-07-25_14h12.36.342,3-AFC_adaptive_staircase_mess,2022.1.1,None,
,,,,,5,0,5,0,4,0,4,0,,,,,,,,,,,,,,,,up,6000,0,0.00011586973249842387,-1,0,-1,-10,589.5842244666749,None,588.5332752999966,588.8530970000138,589.5398250000144,589.864476399991,None,None,up,1,1.3044282000046223,588.591408200009,None,None,None,,,,,,,hnxrev,001,0,fr,2022-07-25_14h12.36.342,3-AFC_adaptive_staircase_mess,2022.1.1,None,
,,,,,5,0,5,0,5,0,5,0,,,,,,,,,,,,,,,,left,6000,0,0.00011586973249842387,-1,0,-1,-10,591.4505962666628,None,591.4028421000112,591.7362681000086,None,None,None,None,left,1,0.5475665999983903,591.4596159000066,None,None,None,,,,,,,hnxrev,001,0,fr,2022-07-25_14h12.36.342,3-AFC_adaptive_staircase_mess,2022.1.1,None,
,,,,,5,0,5,0,6,0,6,0,,,,,,,,,,,,,,,,right,6000,-10,3.664122665694518e-05,-1,0,-1,-10,595.5624517666622,None,593.5319330999919,593.8494353000133,594.538309399999,594.860012899997,595.5165311000019,595.8532346000138,right,1,2.310420400026487,593.5611554000061,None,None,None,,,,,,,hnxrev,001,0,fr,2022-07-25_14h12.36.342,3-AFC_adaptive_staircase_mess,2022.1.1,None,
,,,,,5,0,5,0,7,0,7,0,,,,,,,,,,,,,,,,up,6000,-10,3.664122665694518e-05,-1,0,-1,-10,598.4251796666688,None,597.373221899994,597.6880324000085,598.3766348999925,598.7211272999994,None,None,up,1,1.6680077000055462,597.4282929000037,None,None,None,,,,,,,hnxrev,001,0,fr,2022-07-25_14h12.36.342,3-AFC_adaptive_staircase_mess,2022.1.1,None,
,,,,,5,0,5,0,8,0,8,0,,,,,,,,,,,,,,,,up,6000,-20,1.1586973249842387e-05,-1,0,-1,-10,601.6636962666564,None,600.6039037999872,600.9230849999876,601.6149888999935,601.946374399995,602.6051397999981,602.9252204000077,up,1,3.4678194999869447,600.6600244999863,None,603.1596207999974,None,,,,,,,hnxrev,001,0,fr,2022-07-25_14h12.36.342,3-AFC_adaptive_staircase_mess,2022.1.1,None,
,,,,,5,0,5,0,9,0,9,0,,,,,,,,,,,,,,,,up,6000,-20,1.1586973249842387e-05,-1,0,-1,-10,606.6797668666734,606.9065266000107,605.6471796999977,605.9668732999999,606.6322650999937,606.9661893000011,None,None,up,1,1.6041993999970146,605.6754829999991,None,None,None,,,,,,,hnxrev,001,0,fr,2022-07-25_14h12.36.342,3-AFC_adaptive_staircase_mess,2022.1.1,None,
,,,,,5,0,5,0,10,0,10,0,,,,,,,,,,,,,,,,up,6000,-30,3.6641226656945185e-06,-1,0,-1,-10,609.8106239666561,None,608.7751456999977,609.0991590000049,609.7939572999894,610.1100745000003,610.7972530999978,611.1142965999898,up,1,2.8799878999998327,608.8320168000064,None,611.3231227000069,None,,,,,,,hnxrev,001,0,fr,2022-07-25_14h12.36.342,3-AFC_adaptive_staircase_mess,2022.1.1,None,
,,,,,5,0,5,0,11,0,11,0,,,,,,,,,,,,,,,,right,6000,-30,3.6641226656945185e-06,-1,0,-1,-10,615.2737785666579,None,613.2334720999934,613.5566241999913,614.2439158000052,614.5650449999957,615.2266626000055,615.5506601000088,up,0,2.8775663999840617,613.2909038999933,None,615.7815293000021,None,,,,,,,hnxrev,001,0,fr,2022-07-25_14h12.36.342,3-AFC_adaptive_staircase_mess,2022.1.1,None,
,,,,,5,0,5,0,12,0,12,0,,,,,,,,,,,,,,,,up,6000,-25,6.5158338922614935e-06,1,1,1,5,618.7366878666546,None,617.672719299997,617.9920622000063,618.6779161999875,619.0002229000092,619.6652396999998,619.9906450000126,up,1,2.8780194999999367,617.7298962000059,None,620.2189202999871,None,,,,,,,hnxrev,001,0,fr,2022-07-25_14h12.36.342,3-AFC_adaptive_staircase_mess,2022.1.1,None,
,,,,,5,0,5,0,13,0,13,0,,,,,,,,,,,,,,,,right,6000,-25,6.5158338922614935e-06,1,1,1,5,624.1521292666769,None,622.1082658999949,622.4262641000096,623.1194462999993,623.4419021999929,624.1039772999939,624.4373534999904,up,0,2.5755227000045124,622.1674504000111,None,624.6709610999969,None,,,,,,,hnxrev,001,0,fr,2022-07-25_14h12.36.342,3-AFC_adaptive_staircase_mess,2022.1.1,None,
,,,,,5,0,5,0,14,0,14,0,,,,,,,,,,,,,,,,left,6000,-20,1.1586973249842387e-05,1,1,1,5,626.300706366663,None,626.2528811999946,626.5888327000139,627.2549055000127,627.5842233999865,628.2740228000039,628.5889392000099,up,0,2.4915565000264905,626.315683599998,None,628.8247895000095,None,,,,,,,hnxrev,001,0,fr,2022-07-25_14h12.36.342,3-AFC_adaptive_staircase_mess,2022.1.1,None,
,,,,,5,0,5,0,15,0,15,0,,,,,,,,,,,,,,,,right,6000,-15,2.0604875954866497e-05,1,1,1,5,632.3533725666678,None,630.3242283000145,630.6527817999886,631.316426800011,631.6433546000044,632.3367059000011,632.6494700000039,right,1,2.667932500015013,630.3871282000036,None,632.8800465000095,None,,,,,,,hnxrev,001,0,fr,2022-07-25_14h12.36.342,3-AFC_adaptive_staircase_mess,2022.1.1,None,
,,,,,5,0,5,0,16,0,16,0,,,,,,,,,,,,,,,,left,6000,-15,2.0604875954866497e-05,1,1,1,5,634.6099488666553,None,634.5616403000022,634.8929705999908,635.5541365999961,635.879026700015,636.5742333999951,636.8956093000015,up,0,2.6953275999985635,634.6244529999967,None,637.1023212999862,None,,,,,,,hnxrev,001,0,fr,2022-07-25_14h12.36.342,3-AFC_adaptive_staircase_mess,2022.1.1,None,
,,,,,5,0,5,0,17,0,17,0,,,,,,,,,,,,,,,,up,6000,-10,3.664122665694518e-05,1,1,1,5,639.8647699666656,640.0869742000068,638.8280654000118,639.153458899993,639.8204949999927,640.1407394999987,None,None,up,1,1.4410048999998253,638.886336800002,None,None,None,,,,,,,hnxrev,001,0,fr,2022-07-25_14h12.36.342,3-AFC_adaptive_staircase_mess,2022.1.1,None,
,,,,,5,0,5,0,18,0,18,0,,,,,,,,,,,,,,,,right,6000,-10,3.664122665694518e-05,1,1,1,5,643.8855091666667,None,641.8428800000111,642.1679212999879,642.8359919000068,643.1705717000004,643.8367007999914,644.1718208999955,right,1,2.4962688999949023,641.9027088999865,None,644.3876514000003,None,,,,,,,hnxrev,001,0,fr,2022-07-25_14h12.36.342,3-AFC_adaptive_staircase_mess,2022.1.1,None,
,,,,,5,0,5,0,19,0,19,0,,,,,,,,,,,,,,,,left,6000,-20,1.1586973249842387e-05,-1,2,-1,-5.0,645.9593834666632,646.1845587000134,645.9107541000121,646.2459437999933,646.9047180000052,647.2457813000074,None,None,up,0,1.6861533999908715,645.9769013999903,None,None,None,,,,,,,hnxrev,001,0,fr,2022-07-25_14h12.36.342,3-AFC_adaptive_staircase_mess,2022.1.1,None,
,,,,,5,0,5,0,20,0,20,0,,,,,,,,,,,,,,,,up,6000,-17.5,1.5451477162567947e-05,1,3,1,2.5,650.2098213666798,None,649.1975743999938,649.5246640999976,650.1931547000131,650.5215948999976,651.1832528999948,651.511307000008,up,1,2.5503841000027023,649.2262281000149,None,651.7456288000103,None,,,,,,,hnxrev,001,0,fr,2022-07-25_14h12.36.342,3-AFC_adaptive_staircase_mess,2022.1.1,None,
,,,,,5,0,5,0,21,0,21,0,,,,,,,,,,,,,,,,right,6000,-17.5,1.5451477162567947e-05,1,3,1,2.5,655.3313987666663,None,653.2888685000071,653.6096653999994,654.2729958000127,654.5976369999989,655.2836568999919,655.6158052000101,up,0,2.68262180002057,653.3173470000038,None,655.8168086000078,None,,,,,,,hnxrev,001,0,fr,2022-07-25_14h12.36.342,3-AFC_adaptive_staircase_mess,2022.1.1,None,
,,,,,5,0,5,0,22,0,22,0,,,,,,,,,,,,,,,,right,6000,-15.0,2.0604875954866497e-05,1,3,1,2.5,659.5524424666694,None,657.4972469999921,657.8257351999928,658.5063817999908,658.83110760001,659.5066579999984,659.8436368000112,right,1,2.759714099986013,657.5529035000072,None,660.0525408000103,None,,,,,,,hnxrev,001,0,fr,2022-07-25_14h12.36.342,3-AFC_adaptive_staircase_mess,2022.1.1,None,
,,,,,5,0,5,0,23,0,23,0,,,,,,,,,,,,,,,,right,6000,-15.0,2.0604875954866497e-05,1,3,1,2.5,663.8457293666763,None,661.8095208999875,662.1320930999937,662.8242548000126,663.1379234000051,663.8004479999945,664.1329834999924,right,1,2.6877428999869153,661.8634667999868,None,664.3711696999962,None,,,,,,,hnxrev,001,0,fr,2022-07-25_14h12.36.342,3-AFC_adaptive_staircase_mess,2022.1.1,None,
,,,,,5,0,5,0,24,0,24,0,,,,,,,,,,,,,,,,right,6000,-20.0,1.1586973249842387e-05,-1,4,-1,-5.0,668.1032860666785,None,666.0688292999985,666.3953486999962,667.0612180999888,667.3906969999953,668.0574605999864,668.3964675999887,right,1,2.4953289999975823,666.127590899996,None,668.6015695999959,None,,,,,,,hnxrev,001,0,fr,2022-07-25_14h12.36.342,3-AFC_adaptive_staircase_mess,2022.1.1,None,
,,,,,5,0,5,0,25,0,25,0,,,,,,,,,,,,,,,,up,6000,-20.0,1.1586973249842387e-05,-1,4,-1,-5.0,671.1510591666777,None,670.1332236999879,670.4637686999922,671.134392500011,671.4671108000039,672.1315520000062,672.4552241000056,up,1,2.8435899000032805,670.1957740999933,None,672.6889938999957,None,,,,,,,hnxrev,001,0,fr,2022-07-25_14h12.36.342,3-AFC_adaptive_staircase_mess,2022.1.1,None,
,,,,,5,0,5,0,26,0,26,0,,,,,,,,,,,,,,,,up,6000,-25.0,6.5158338922614935e-06,-1,4,-1,-5.0,675.5885500666666,None,674.5373428000021,674.8699448000116,675.5421866000106,675.8726028999954,676.5420022000035,676.8718929000024,up,1,2.9343955000222195,674.601945900009,None,677.0827847000037,None,,,,,,,hnxrev,001,0,fr,2022-07-25_14h12.36.342,3-AFC_adaptive_staircase_mess,2022.1.1,None,
,,,,,5,0,5,0,27,0,27,0,,,,,,,,,,,,,,,,left,6000,-25.0,6.5158338922614935e-06,-1,4,-1,-5.0,679.103694966678,None,679.0600100999873,679.402534199995,680.0643492999952,680.3862402999948,681.0571612000058,681.3786728999985,up,0,2.6517153000168037,679.1159098999924,None,681.6158839999989,None,,,,,,,hnxrev,001,0,fr,2022-07-25_14h12.36.342,3-AFC_adaptive_staircase_mess,2022.1.1,None,
,,,,,5,0,5,0,28,0,28,0,,,,,,,,,,,,,,,,right,6000,-22.5,8.689004143746873e-06,1,5,1,2.5,685.3107375666771,None,683.2679037000053,683.5899307999935,684.279100499989,684.608960499987,685.2653351000044,685.6080496000068,up,0,2.9131662000145297,683.3261321999889,None,685.8157252999954,None,,,,,,,hnxrev,001,0,fr,2022-07-25_14h12.36.342,3-AFC_adaptive_staircase_mess,2022.1.1,None,
,,,,,5,0,5,0,29,0,29,0,,,,,,,,,,,,,,,,left,6000,-20.0,1.1586973249842387e-05,1,5,1,2.5,687.7737117666732,None,687.7570451000065,688.0897256000026,688.7369744000025,689.0600261999934,689.7527371000033,690.079625000013,left,1,2.5427056000044104,687.7848554000084,None,690.3142062000115,None,,,,,,,hnxrev,001,0,fr,2022-07-25_14h12.36.342,3-AFC_adaptive_staircase_mess,2022.1.1,None,
,,,,,5,0,5,0,30,0,30,0,,,,,,,,,,,,,,,,up,6000,-20.0,1.1586973249842387e-05,1,5,1,2.5,692.9006890666535,693.1304223999905,691.8498282000073,692.1808739000116,692.8524627000152,693.1947079999954,693.8440413000062,694.1688173000002,left,0,2.4778427999990527,691.9128244000021,None,694.4074611999968,None,,,,,,,hnxrev,001,0,fr,2022-07-25_14h12.36.342,3-AFC_adaptive_staircase_mess,2022.1.1,None,
,,,,,5,0,5,0,31,0,31,0,,,,,,,,,,,,,,,,left,6000,-17.5,1.5451477162567947e-05,1,5,1,2.5,695.921554966659,None,695.9048882999923,696.2346332999878,696.8805445999897,697.2110116000113,697.8885145999957,698.2192864000099,up,0,2.6103136999881826,695.933729100012,None,698.4565077000007,None,,,,,,,hnxrev,001,0,fr,2022-07-25_14h12.36.342,3-AFC_adaptive_staircase_mess,2022.1.1,None,
,,,,,5,0,5,0,32,0,32,0,,,,,,,,,,,,,,,,left,6000,-15.0,2.0604875954866497e-05,1,5,1,2.5,700.0796463666813,None,700.0629797000147,700.3916292999929,None,None,None,None,left,1,0.7138180000183638,700.0935775999969,None,None,None,,,,,,,hnxrev,001,0,fr,2022-07-25_14h12.36.342,3-AFC_adaptive_staircase_mess,2022.1.1,None,
,,,,,5,0,5,0,33,0,33,0,,,,,,,,,,,,,,,,left,6000,-15.0,2.0604875954866497e-05,1,5,1,2.5,702.3595553666567,None,702.34288869999,702.6772136999934,None,None,None,None,left,1,0.7964862000080757,702.370731300005,None,None,None,,,,,,,hnxrev,001,0,fr,2022-07-25_14h12.36.342,3-AFC_adaptive_staircase_mess,2022.1.1,None,
,,,,,5,0,5,0,34,0,34,0,,,,,,,,,,,,,,,,up,6000,-20.0,1.1586973249842387e-05,-1,6,-1,-5.0,705.7490186666585,None,704.6993595999957,705.0294597999891,705.7004692000046,706.0357375000021,None,None,up,1,1.6694997000158764,704.7620761000144,None,None,None,,,,,,,hnxrev,001,0,fr,2022-07-25_14h12.36.342,3-AFC_adaptive_staircase_mess,2022.1.1,None,
,,,,,6,0,6,0,0,0,0,0,,,,,,,,,,,,,[],[],10,left,8000,30,0.005740768107484416,0,0,-1,10,709.4618095666558,None,709.4169294000021,709.7516518000048,None,None,None,None,left,1,0.6209055999934208,709.4747252000088,None,None,None,right,1.3961952999816276,707.531367299991,None,707.531367299991,None,hnxrev,001,0,fr,2022-07-25_14h12.36.342,3-AFC_adaptive_staircase_mess,2022.1.1,None,
,,,,,6,0,6,0,1,0,1,0,,,,,,,,,,,,,,,,right,8000,30,0.005740768107484416,0,0,-1,10,713.6291569666685,None,711.5997632000071,711.9264202000049,712.5955691999989,712.9200248999987,713.6124903000018,713.9427784,right,1,2.269556699990062,711.6587546000083,None,None,None,,,,,,,hnxrev,001,0,fr,2022-07-25_14h12.36.342,3-AFC_adaptive_staircase_mess,2022.1.1,None,
,,,,,6,0,6,0,2,0,2,0,,,,,,,,,,,,,,,,left,8000,10,0.0005740768107484417,-1,0,-1,-10,715.4739003666657,None,715.4283402999863,715.7562443999923,None,None,None,None,left,1,0.48103620001347736,715.4864171000081,None,None,None,,,,,,,hnxrev,001,0,fr,2022-07-25_14h12.36.342,3-AFC_adaptive_staircase_mess,2022.1.1,None,
,,,,,6,0,6,0,3,0,3,0,,,,,,,,,,,,,,,,up,8000,10,0.0005740768107484417,-1,0,-1,-10,718.5379304666751,None,717.4874262000085,717.8113289999892,718.4893879999872,718.8321079000016,None,None,up,1,1.3648270999838132,717.5461809000117,None,None,None,,,,,,,hnxrev,001,0,fr,2022-07-25_14h12.36.342,3-AFC_adaptive_staircase_mess,2022.1.1,None,
,,,,,6,0,6,0,4,0,4,0,,,,,,,,,,,,,,,,right,8000,0,0.0001815390273850507,-1,0,-1,-10,722.4459046666782,None,720.3944821000041,720.7118735999975,721.4114215000009,721.7381348999916,722.3999324000033,722.727194200008,right,1,2.314386400015792,720.4531248999992,None,None,None,,,,,,,hnxrev,001,0,fr,2022-07-25_14h12.36.342,3-AFC_adaptive_staircase_mess,2022.1.1,None,
,,,,,6,0,6,0,5,0,5,0,,,,,,,,,,,,,,,,up,8000,0,0.0001815390273850507,-1,0,-1,-10,725.3303664666639,None,724.2871062000049,724.6148757000046,725.2842315000016,725.6187047999993,None,None,up,1,1.3240233000251465,724.3470002000104,None,None,None,,,,,,,hnxrev,001,0,fr,2022-07-25_14h12.36.342,3-AFC_adaptive_staircase_mess,2022.1.1,None,
,,,,,6,0,6,0,6,0,6,0,,,,,,,,,,,,,,,,up,8000,-10,5.740768107484415e-05,-1,0,-1,-10,728.1985335666725,None,727.1708113999921,727.4885342000052,728.1818669000058,728.5168149000092,729.1844429000048,729.5040179000061,left,0,3.2022065999917686,727.2289569000131,None,729.711120299995,None,,,,,,,hnxrev,001,0,fr,2022-07-25_14h12.36.342,3-AFC_adaptive_staircase_mess,2022.1.1,None,
,,,,,6,0,6,0,7,0,7,0,,,,,,,,,,,,,,,,right,8000,-5,0.00010208689723347648,1,1,1,5,733.9910874666568,None,731.9591616000107,732.2805513000058,732.9429378999921,733.2717211999989,733.944760000013,734.2731604000146,right,1,2.523870500008343,731.9881133000017,None,734.5036819000088,None,,,,,,,hnxrev,001,0,fr,2022-07-25_14h12.36.342,3-AFC_adaptive_staircase_mess,2022.1.1,None,
,,,,,6,0,6,0,8,0,8,0,,,,,,,,,,,,,,,,left,8000,-5,0.00010208689723347648,1,1,1,5,736.0878751666789,None,736.0387849000108,736.3737737000047,None,None,None,None,left,1,0.5676098999974784,736.1035772000032,None,None,None,,,,,,,hnxrev,001,0,fr,2022-07-25_14h12.36.342,3-AFC_adaptive_staircase_mess,2022.1.1,None,
,,,,,6,0,6,0,9,0,9,0,,,,,,,,,,,,,,,,left,8000,-15,3.228271145173278e-05,-1,2,-1,-5.0,738.2244272666615,None,738.1798431999923,738.5107150000113,739.1754939999955,739.4991906000068,740.1842216000077,740.5131471999921,up,0,2.627238400018541,738.2366840000032,None,740.749127499992,None,,,,,,,hnxrev,001,0,fr,2022-07-25_14h12.36.342,3-AFC_adaptive_staircase_mess,2022.1.1,None,
,,,,,6,0,6,0,10,0,10,0,,,,,,,,,,,,,,,,up,8000,-12.5,4.304968760923004e-05,1,3,1,2.5,743.3941052666671,None,742.355369900004,742.6811955999874,743.3479442000098,743.6767955000105,744.3739368999959,744.683535499993,up,1,2.657430999999633,742.4144815999898,None,744.9002938999911,None,,,,,,,hnxrev,001,0,fr,2022-07-25_14h12.36.342,3-AFC_adaptive_staircase_mess,2022.1.1,None,
,,,,,6,0,6,0,11,0,11,0,,,,,,,,,,,,,,,,left,8000,-12.5,4.304968760923004e-05,1,3,1,2.5,746.6244693666561,None,746.5771314000012,746.9042057000042,747.5741338999942,747.8853362000082,748.5926102999947,748.9127791000064,up,0,2.6990909000160173,746.6365277000004,None,749.1472822999931,None,,,,,,,hnxrev,001,0,fr,2022-07-25_14h12.36.342,3-AFC_adaptive_staircase_mess,2022.1.1,None,
,,,,,6,0,6,0,12,0,12,0,,,,,,,,,,,,,,,,up,8000,-10.0,5.740768107484415e-05,1,3,1,2.5,751.8788474666692,None,750.8467660000024,751.1678364000109,751.8250387999869,752.1550507000065,None,None,up,1,1.5512965000234544,750.9039489999996,None,None,None,,,,,,,hnxrev,001,0,fr,2022-07-25_14h12.36.342,3-AFC_adaptive_staircase_mess,2022.1.1,None,
,,,,,6,0,6,0,13,0,13,0,,,,,,,,,,,,,,,,left,8000,-10.0,5.740768107484415e-05,1,3,1,2.5,754.0128650666777,None,753.996198400011,754.323515600001,754.9805288999924,755.2941550000105,755.9709719000093,756.2926039999875,up,0,3.247112000011839,754.024820199993,None,756.524812299991,None,,,,,,,hnxrev,001,0,fr,2022-07-25_14h12.36.342,3-AFC_adaptive_staircase_mess,2022.1.1,None,
,,,,,6,0,6,0,14,0,14,0,,,,,,,,,,,,,,,,right,8000,-7.5,7.655437308410152e-05,1,3,1,2.5,760.8158020666781,None,758.7804276999959,759.0921848000144,759.7878625000012,760.0953272999905,760.7991354000114,761.1259027000051,right,1,2.8183039000141434,758.8287812999915,None,761.3510409999872,None,,,,,,,hnxrev,001,0,fr,2022-07-25_14h12.36.342,3-AFC_adaptive_staircase_mess,2022.1.1,None,
,,,,,6,0,6,0,15,0,15,0,,,,,,,,,,,,,,,,right,8000,-7.5,7.655437308410152e-05,1,3,1,2.5,765.190747366669,None,763.134932099987,763.4561747999978,764.139246900013,764.4587340000144,765.1363499000145,765.4666563000064,right,1,2.4391851000254974,763.191779899993,None,None,None,,,,,,,hnxrev,001,0,fr,2022-07-25_14h12.36.342,3-AFC_adaptive_staircase_mess,2022.1.1,None,
,,,,,6,0,6,0,16,0,16,0,,,,,,,,,,,,,,,,right,8000,-12.5,4.304968760923004e-05,-1,4,-1,-5.0,769.1720479666585,None,767.1409855000093,767.454467500007,768.1542536999914,768.4782312999887,769.1553812999919,769.4764690999873,up,0,2.7622906000178773,767.1971090000006,None,769.6877247999946,None,,,,,,,hnxrev,001,0,fr,2022-07-25_14h12.36.342,3-AFC_adaptive_staircase_mess,2022.1.1,None,
,,,,,6,0,6,0,17,0,17,0,,,,,,,,,,,,,,,,left,8000,-10.0,5.740768107484415e-05,1,5,1,2.5,771.4810797666762,None,771.4354621999955,771.7639747000067,772.44865820001,772.786334400007,773.4385530000145,773.7448108000099,up,0,2.6028498000232503,771.4927382000023,None,774.0166381000017,None,,,,,,,hnxrev,001,0,fr,2022-07-25_14h12.36.342,3-AFC_adaptive_staircase_mess,2022.1.1,None,
,,,,,6,0,6,0,18,0,18,0,,,,,,,,,,,,,,,,up,8000,-7.5,7.655437308410152e-05,1,5,1,2.5,776.6469320666549,None,775.5971759000095,775.9480129000149,776.6011052000104,776.9173723999993,None,None,up,1,1.818326500011608,775.6450874999864,None,None,None,,,,,,,hnxrev,001,0,fr,2022-07-25_14h12.36.342,3-AFC_adaptive_staircase_mess,2022.1.1,None,
,,,,,6,0,6,0,19,0,19,0,,,,,,,,,,,,,,,,up,8000,-7.5,7.655437308410152e-05,1,5,1,2.5,780.0362345666547,None,778.9958497000043,779.3157853999874,779.998617300007,780.3190328000055,None,None,up,1,1.6290177000046242,779.057871500001,None,None,None,,,,,,,hnxrev,001,0,fr,2022-07-25_14h12.36.342,3-AFC_adaptive_staircase_mess,2022.1.1,None,
,,,,,6,0,6,0,20,0,20,0,,,,,,,,,,,,,,,,left,8000,-12.5,4.304968760923004e-05,-1,6,-1,-5.0,782.2355639666532,782.4536040000094,782.1876518999925,782.5123814000108,783.1862064999877,783.5011459999951,784.1900269000034,784.5128725999966,up,0,2.802216000010958,782.2443902000086,None,784.7432918999984,None,,,,,,,hnxrev,001,0,fr,2022-07-25_14h12.36.342,3-AFC_adaptive_staircase_mess,2022.1.1,None,
,,,,,7,0,7,0,0,0,0,0,,,,,,,,,,,,,[],[],10,left,750,30,0.0012851978913844323,0,0,-1,10,787.6093707666771,None,787.5734383999952,787.9024707000062,None,None,None,None,left,1,0.7720301999943331,787.6351582999923,None,None,None,right,0.9787629000202287,786.1243774000031,None,786.1243774000031,None,hnxrev,001,0,fr,2022-07-25_14h12.36.342,3-AFC_adaptive_staircase_mess,2022.1.1,None,
,,,,,7,0,7,0,1,0,1,0,,,,,,,,,,,,,,,,up,750,30,0.0012851978913844323,0,0,-1,10,790.973657366678,None,789.9292488000065,790.2586952999991,790.9291429999867,791.2576885999879,None,None,up,1,1.316850400005933,789.9860496000038,None,None,None,,,,,,,hnxrev,001,0,fr,2022-07-25_14h12.36.342,3-AFC_adaptive_staircase_mess,2022.1.1,None,
,,,,,7,0,7,0,2,0,2,0,,,,,,,,,,,,,,,,right,750,10,0.00012851978913844324,-1,0,-1,-10,794.850207066662,None,792.8111705000047,793.1331320999889,793.7977458999958,794.1186423999898,794.8029361999943,795.1234516999975,right,1,2.448981299996376,792.8304843000078,None,None,None,,,,,,,hnxrev,001,0,fr,2022-07-25_14h12.36.342,3-AFC_adaptive_staircase_mess,2022.1.1,None,
,,,,,7,0,7,0,3,0,3,0,,,,,,,,,,,,,,,,right,750,10,0.00012851978913844324,-1,0,-1,-10,798.8505795666754,None,796.7967168999894,797.1143938000023,797.7995748000103,798.1175719999883,798.8051953999966,799.1259300000092,right,1,2.393221500009531,796.8536027999944,None,None,None,,,,,,,hnxrev,001,0,fr,2022-07-25_14h12.36.342,3-AFC_adaptive_staircase_mess,2022.1.1,None,
,,,,,7,0,7,0,4,0,4,0,,,,,,,,,,,,,,,,left,750,0,4.064152580820497e-05,-1,0,-1,-10,800.7936196666599,None,800.7495661000139,801.0730602999975,None,None,None,None,left,1,0.6026319999946281,800.8053162000142,None,None,None,,,,,,,hnxrev,001,0,fr,2022-07-25_14h12.36.342,3-AFC_adaptive_staircase_mess,2022.1.1,None,
,,,,,7,0,7,0,5,0,5,0,,,,,,,,,,,,,,,,left,750,0,4.064152580820497e-05,-1,0,-1,-10,802.9394478666693,None,802.9227812000026,803.2538998000091,None,None,None,None,left,1,0.47841480001807213,802.9528161000053,None,None,None,,,,,,,hnxrev,001,0,fr,2022-07-25_14h12.36.342,3-AFC_adaptive_staircase_mess,2022.1.1,None,
,,,,,7,0,7,0,6,0,6,0,,,,,,,,,,,,,,,,left,750,-10,1.2851978913844322e-05,-1,0,-1,-10,804.9910584666688,None,804.9450591999921,805.2661766000092,None,None,None,None,left,1,0.45265740001923405,805.0028712000058,None,None,None,,,,,,,hnxrev,001,0,fr,2022-07-25_14h12.36.342,3-AFC_adaptive_staircase_mess,2022.1.1,None,
,,,,,7,0,7,0,7,0,7,0,,,,,,,,,,,,,,,,right,750,-10,1.2851978913844322e-05,-1,0,-1,-10,808.9978712666818,None,806.9472303999937,807.2667785999947,807.9483567000134,808.2683688999969,808.9517704999889,809.2819361999864,left,0,3.1296174000017345,807.0054064000142,None,809.5056806000066,None,,,,,,,hnxrev,001,0,fr,2022-07-25_14h12.36.342,3-AFC_adaptive_staircase_mess,2022.1.1,None,
,,,,,7,0,7,0,8,0,8,0,,,,,,,,,,,,,,,,left,750,-5,2.285440948074376e-05,1,1,1,5,811.701785366666,811.919519099989,811.6531561999873,811.9745576000132,812.6629427000007,812.9800956000108,813.6530210000055,813.9845057000057,left,1,2.4702245000225957,811.7126528999943,None,814.2123450000072,None,,,,,,,hnxrev,001,0,fr,2022-07-25_14h12.36.342,3-AFC_adaptive_staircase_mess,2022.1.1,None,
,,,,,7,0,7,0,9,0,9,0,,,,,,,,,,,,,,,,right,750,-5,2.285440948074376e-05,1,1,1,5,817.7515781666773,None,815.7198374999862,816.0556712000107,816.7227027000044,817.0418431000144,817.7349115000106,818.0741666000104,right,1,2.506469999992987,815.7896278999979,None,818.2598440000147,None,,,,,,,hnxrev,001,0,fr,2022-07-25_14h12.36.342,3-AFC_adaptive_staircase_mess,2022.1.1,None,
,,,,,7,0,7,0,10,0,10,0,,,,,,,,,,,,,,,,left,750,-15,7.22719885372964e-06,-1,2,-1,-5.0,819.8664831666722,None,819.8498165000055,820.1769084999978,820.8621989999956,821.1816867000016,821.8426809000084,822.1627374000091,up,0,3.5218969999987166,819.8773098000092,None,822.3954478999949,None,,,,,,,hnxrev,001,0,fr,2022-07-25_14h12.36.342,3-AFC_adaptive_staircase_mess,2022.1.1,None,
,,,,,7,0,7,0,11,0,11,0,,,,,,,,,,,,,,,,up,750,-12.5,9.637624565954684e-06,1,3,1,2.5,825.9497909666718,None,824.9076383000065,825.2334609999962,825.9133639000065,826.2323545000108,826.8980986000097,827.2329813000106,left,0,2.682076800003415,824.9653877000092,None,827.4680859000073,None,,,,,,,hnxrev,001,0,fr,2022-07-25_14h12.36.342,3-AFC_adaptive_staircase_mess,2022.1.1,None,
,,,,,7,0,7,0,12,0,12,0,,,,,,,,,,,,,,,,left,750,-10.0,1.2851978913844322e-05,1,3,1,2.5,829.1860795666619,None,829.1414101000119,829.469768400013,830.1506566999888,830.467564599996,831.1535148000112,831.4736090000079,left,1,2.3284379999968223,829.1985851000063,None,None,None,,,,,,,hnxrev,001,0,fr,2022-07-25_14h12.36.342,3-AFC_adaptive_staircase_mess,2022.1.1,None,
,,,,,7,0,7,0,13,0,13,0,,,,,,,,,,,,,,,,left,750,-10.0,1.2851978913844322e-05,1,3,1,2.5,833.0696909666624,None,833.0245065999916,833.3550325999968,834.0406662999885,834.3576328000054,835.041604099999,835.3639359000081,left,1,2.6880202000029385,833.0723195000028,None,835.5899095000059,None,,,,,,,hnxrev,001,0,fr,2022-07-25_14h12.36.342,3-AFC_adaptive_staircase_mess,2022.1.1,None,
,,,,,7,0,7,0,14,0,14,0,,,,,,,,,,,,,,,,up,750,-15.0,7.22719885372964e-06,-1,4,-1,-5.0,838.3146492666604,None,837.2904029999918,837.6108845999988,838.2979825999937,838.6258992000076,839.2905662000121,839.6053071999922,left,0,2.7202430999896023,837.3511777000094,None,839.8372443999979,None,,,,,,,hnxrev,001,0,fr,2022-07-25_14h12.36.342,3-AFC_adaptive_staircase_mess,2022.1.1,None,
,,,,,7,0,7,0,15,0,15,0,,,,,,,,,,,,,,,,right,750,-12.5,9.637624565954684e-06,1,5,1,2.5,843.6350016666731,None,841.5825118999928,841.9004915000114,842.5840908999962,842.9012698000006,843.6183350000065,843.9482341000112,left,0,2.654965199995786,841.6408294000139,None,844.1525264999946,None,,,,,,,hnxrev,001,0,fr,2022-07-25_14h12.36.342,3-AFC_adaptive_staircase_mess,2022.1.1,None,
,,,,,7,0,7,0,16,0,16,0,,,,,,,,,,,,,,,,up,750,-10.0,1.2851978913844322e-05,1,5,1,2.5,846.8354507666702,None,845.7870605000062,846.1036030999967,846.78935549999,847.1007036000083,847.7825292999914,848.1018337999994,up,1,2.657540299987886,845.845074300014,None,848.3636708999984,None,,,,,,,hnxrev,001,0,fr,2022-07-25_14h12.36.342,3-AFC_adaptive_staircase_mess,2022.1.1,None,
,,,,,7,0,7,0,17,0,17,0,,,,,,,,,,,,,,,,right,750,-10.0,1.2851978913844322e-05,1,5,1,2.5,852.0492332666802,None,849.991566599987,850.312397200003,850.9997910000093,851.3182134999952,852.0043978999893,852.3238013999944,right,1,2.9253109999990556,850.0507909999869,None,852.5506165999977,None,,,,,,,hnxrev,001,0,fr,2022-07-25_14h12.36.342,3-AFC_adaptive_staircase_mess,2022.1.1,None,
,,,,,7,0,7,0,18,0,18,0,,,,,,,,,,,,,,,,right,750,-15.0,7.22719885372964e-06,-1,6,-1,-5.0,856.5356432666633,None,854.509563700005,854.8302643999923,855.4890628000139,855.8107316000096,856.4902924000053,856.8204345999984,up,0,2.7383904000162147,854.5410506000044,None,857.0472903999907,None,,,,,,,hnxrev,001,0,fr,2022-07-25_14h12.36.342,3-AFC_adaptive_staircase_mess,2022.1.1,None,
,,,,,8,0,8,0,0,0,0,0,,,,,,,,,,,,,[],[],10,right,500,30,0.002259279721874612,0,0,-1,10,861.7670532666709,861.9978181000042,859.7267282000103,860.0451899000036,860.7269531000056,861.0339804000105,861.7178002999863,862.057278799999,right,1,2.3680493000138085,859.7836867000151,None,None,None,up,0.903490700002294,858.3593911000062,None,858.3593911000062,None,hnxrev,001,0,fr,2022-07-25_14h12.36.342,3-AFC_adaptive_staircase_mess,2022.1.1,None,
,,,,,8,0,8,0,1,0,1,0,,,,,,,,,,,,,,,,right,500,30,0.002259279721874612,0,0,-1,10,865.7040733666547,None,863.6441774000123,863.9615899999917,864.647504499997,864.9648854999978,865.6554214000062,865.994641199999,right,1,2.3133798000053503,863.7015937000106,None,None,None,,,,,,,hnxrev,001,0,fr,2022-07-25_14h12.36.342,3-AFC_adaptive_staircase_mess,2022.1.1,None,
,,,,,8,0,8,0,2,0,2,0,,,,,,,,,,,,,,,,right,500,10,0.0002259279721874612,-1,0,-1,-10,869.5719849666677,None,867.5102376000141,867.8261387000093,868.5108681000129,868.848192800011,869.5250563999871,869.8486982999893,right,1,2.3998364000290167,867.5673416999925,None,None,None,,,,,,,hnxrev,001,0,fr,2022-07-25_14h12.36.342,3-AFC_adaptive_staircase_mess,2022.1.1,None,
,,,,,8,0,8,0,3,0,3,0,,,,,,,,,,,,,,,,right,500,10,0.0002259279721874612,-1,0,-1,-10,873.5465101666671,873.7725071999885,871.4924316999968,871.8050186999899,872.4952383000054,872.8161955999967,873.5010989999864,873.8318654999894,right,1,2.3300691000185907,871.5488577999931,None,None,None,,,,,,,hnxrev,001,0,fr,2022-07-25_14h12.36.342,3-AFC_adaptive_staircase_mess,2022.1.1,None,
,,,,,8,0,8,0,4,0,4,0,,,,,,,,,,,,,,,,left,500,0,7.144469792555515e-05,-1,0,-1,-10,875.4141968666556,None,875.397530199989,875.7315677000151,876.3882960999908,None,None,None,left,1,0.9862909000075888,875.4285218000005,None,None,None,,,,,,,hnxrev,001,0,fr,2022-07-25_14h12.36.342,3-AFC_adaptive_staircase_mess,2022.1.1,None,
,,,,,8,0,8,0,5,0,5,0,,,,,,,,,,,,,,,,right,500,0,7.144469792555515e-05,-1,0,-1,-10,879.979620066679,None,877.9335116000148,878.2673854999884,878.9185400000133,879.240108500002,879.9328867000004,880.2576524000033,right,1,2.3508282999973744,877.9931164000009,None,None,None,,,,,,,hnxrev,001,0,fr,2022-07-25_14h12.36.342,3-AFC_adaptive_staircase_mess,2022.1.1,None,
,,,,,8,0,8,0,6,0,6,0,,,,,,,,,,,,,,,,right,500,-10,2.259279721874613e-05,-1,0,-1,-10,883.8899654666641,None,881.8536002000037,882.1711469000147,882.8332743000065,883.1512992999924,883.840549799992,884.1788477000082,right,1,2.5486365999968257,881.8824534000014,None,884.3823558999866,None,,,,,,,hnxrev,001,0,fr,2022-07-25_14h12.36.342,3-AFC_adaptive_staircase_mess,2022.1.1,None,
,,,,,8,0,8,0,7,0,7,0,,,,,,,,,,,,,,,,right,500,-10,2.259279721874613e-05,-1,0,-1,-10,887.9877111666758,None,885.9611566000094,886.2785580999916,886.9358008000127,887.2552660999936,887.9405145999917,888.2641888000071,right,1,2.672584000014467,885.9903333999973,None,888.4952651000058,None,,,,,,,hnxrev,001,0,fr,2022-07-25_14h12.36.342,3-AFC_adaptive_staircase_mess,2022.1.1,None,
,,,,,8,0,8,0,8,0,8,0,,,,,,,,,,,,,,,,left,500,-20,7.1444697925555186e-06,-1,0,-1,-10,890.2226189666583,None,890.1766197000106,890.4990837000078,891.1891875000147,891.5116154999996,892.1750610999879,892.4942614999891,left,1,2.6531228000239935,890.2338319999981,None,892.7241947000148,None,,,,,,,hnxrev,001,0,fr,2022-07-25_14h12.36.342,3-AFC_adaptive_staircase_mess,2022.1.1,None,
,,,,,8,0,8,0,9,0,9,0,,,,,,,,,,,,,,,,left,500,-20,7.1444697925555186e-06,-1,0,-1,-10,894.4500749666806,None,894.4053263000096,894.7198136000079,895.418374300003,895.7418951999862,896.402001200011,896.7192900000082,up,0,2.5822933000163175,894.4641284999961,None,896.9498857000144,None,,,,,,,hnxrev,001,0,fr,2022-07-25_14h12.36.342,3-AFC_adaptive_staircase_mess,2022.1.1,None,
,,,,,8,0,8,0,10,0,10,0,,,,,,,,,,,,,,,,right,500,-15,1.2704863527746532e-05,1,1,1,5,900.610120566653,None,898.5756792000029,898.8928052000119,899.5841419000062,899.9027763000049,900.5655600999889,900.8955901000008,up,0,2.751121500012232,898.6328802999924,None,901.1270771000127,None,,,,,,,hnxrev,001,0,fr,2022-07-25_14h12.36.342,3-AFC_adaptive_staircase_mess,2022.1.1,None,
,,,,,8,0,8,0,11,0,11,0,,,,,,,,,,,,,,,,left,500,-10,2.259279721874613e-05,1,1,1,5,902.9308698666612,None,902.9142031999945,903.2483941999963,903.9059567000077,None,None,None,left,1,0.9535401999892201,902.9413847000105,None,None,None,,,,,,,hnxrev,001,0,fr,2022-07-25_14h12.36.342,3-AFC_adaptive_staircase_mess,2022.1.1,None,
,,,,,8,0,8,0,12,0,12,0,,,,,,,,,,,,,,,,right,500,-10,2.259279721874613e-05,1,1,1,5,907.4349942666634,None,905.3912064000033,905.7239885999879,906.384186100011,906.7051230999932,907.3893205999921,907.7145805000036,up,0,2.821331699989969,905.4497864999867,None,907.9469110000064,None,,,,,,,hnxrev,001,0,fr,2022-07-25_14h12.36.342,3-AFC_adaptive_staircase_mess,2022.1.1,None,
,,,,,8,0,8,0,13,0,13,0,,,,,,,,,,,,,,,,up,500,-5,4.017630610928089e-05,1,1,1,5,910.8314547666562,None,909.8003143999958,910.127717299998,910.8147880999895,911.1385940999899,911.7980851999891,912.1206222999899,up,1,3.18592190000345,909.8610256999964,None,912.3581449000048,None,,,,,,,hnxrev,001,0,fr,2022-07-25_14h12.36.342,3-AFC_adaptive_staircase_mess,2022.1.1,None,
,,,,,8,0,8,0,14,0,14,0,,,,,,,,,,,,,,,,right,500,-5,4.017630610928089e-05,1,1,1,5,916.6021135666563,None,914.5722471000045,914.9053698999924,915.5715324000048,915.8948350000137,916.5558724000002,916.8799991999986,right,1,2.6243093000084627,914.6313319999899,None,917.1114328000112,None,,,,,,,hnxrev,001,0,fr,2022-07-25_14h12.36.342,3-AFC_adaptive_staircase_mess,2022.1.1,None,
,,,,,8,0,8,0,15,0,15,0,,,,,,,,,,,,,,,,up,500,-15,1.2704863527746532e-05,-1,2,-1,-5.0,919.8055090666787,None,918.7752907999966,919.1036068999965,919.7888424000121,920.1234776999918,920.7771064999979,921.0997165000008,up,1,2.90829200000735,918.8364910999953,None,921.3341730000102,None,,,,,,,hnxrev,001,0,fr,2022-07-25_14h12.36.342,3-AFC_adaptive_staircase_mess,2022.1.1,None,
,,,,,8,0,8,0,16,0,16,0,,,,,,,,,,,,,,,,up,500,-15,1.2704863527746532e-05,-1,2,-1,-5.0,924.2963772666737,None,923.2445927000081,923.5640458000125,924.2492717000132,924.5865742999886,925.2450822000101,925.5686592000129,up,1,2.7675953000143636,923.3036581999913,None,925.7973278000136,None,,,,,,,hnxrev,001,0,fr,2022-07-25_14h12.36.342,3-AFC_adaptive_staircase_mess,2022.1.1,None,
,,,,,8,0,8,0,17,0,17,0,,,,,,,,,,,,,,,,up,500,-20.0,7.1444697925555186e-06,-1,2,-1,-5.0,928.6237741666594,928.8423439000035,927.6005570999987,927.9263780000038,928.6071074999927,928.9253670999897,929.5885490000073,929.9104637000128,up,1,2.7063979000085965,927.6609761999862,None,930.1429060999944,None,,,,,,,hnxrev,001,0,fr,2022-07-25_14h12.36.342,3-AFC_adaptive_staircase_mess,2022.1.1,None,
,,,,,8,0,8,0,18,0,18,0,,,,,,,,,,,,,,,,right,500,-20.0,7.1444697925555186e-06,-1,2,-1,-5.0,933.936216266655,None,931.8868143,932.2179153999896,932.8748472000007,933.2034416999959,933.8904955000035,934.2139259999967,up,0,3.5987724000005983,931.9443983999954,None,934.4467743000132,None,,,,,,,hnxrev,001,0,fr,2022-07-25_14h12.36.342,3-AFC_adaptive_staircase_mess,2022.1.1,None,
,,,,,8,0,8,0,19,0,19,0,,,,,,,,,,,,,,,,up,500,-17.5,9.52730358981624e-06,1,3,1,2.5,938.1135716666797,None,937.0608996000083,937.3884941000142,938.0650156000047,938.3977699000097,939.0655838999955,939.3942166999914,up,1,2.941824400011683,937.1219885000028,None,939.6231298999919,None,,,,,,,hnxrev,001,0,fr,2022-07-25_14h12.36.342,3-AFC_adaptive_staircase_mess,2022.1.1,None,
,,,,,8,0,8,0,20,0,20,0,,,,,,,,,,,,,,,,right,500,-17.5,9.52730358981624e-06,1,3,1,2.5,943.618568866663,None,941.567511900008,941.8924206999945,942.554772500007,942.8771433999937,943.573294700007,943.9053474999964,up,0,2.788669400004437,941.6264673999976,None,944.1144967,None,,,,,,,hnxrev,001,0,fr,2022-07-25_14h12.36.342,3-AFC_adaptive_staircase_mess,2022.1.1,None,
,,,,,8,0,8,0,21,0,21,0,,,,,,,,,,,,,,,,left,500,-15.0,1.2704863527746532e-05,1,3,1,2.5,945.9808632666575,None,945.9348524000088,946.2737934000033,946.9449950999988,947.2720524999895,947.9371210999961,948.2693438999995,up,0,3.053899399994407,945.9930308999901,None,948.5144709000015,None,,,,,,,hnxrev,001,0,fr,2022-07-25_14h12.36.342,3-AFC_adaptive_staircase_mess,2022.1.1,None,
,,,,,8,0,8,0,22,0,22,0,,,,,,,,,,,,,,,,up,500,-12.5,1.6942207806960138e-05,1,3,1,2.5,951.6102727666769,None,950.5754629999865,950.8972401999927,951.5661843999987,951.8879439999873,952.5792411000002,952.9044215999893,up,1,3.0765087000036146,950.6342101999908,None,953.1349257999973,None,,,,,,,hnxrev,001,0,fr,2022-07-25_14h12.36.342,3-AFC_adaptive_staircase_mess,2022.1.1,None,
,,,,,8,0,8,0,23,0,23,0,,,,,,,,,,,,,,,,left,500,-12.5,1.6942207806960138e-05,1,3,1,2.5,955.2473534666681,None,955.2306868000014,955.559485500009,956.2156650999968,956.5459912999941,957.2155708000064,957.5533251999877,up,0,3.1878611000138335,955.2595662999956,None,957.7675748000038,None,,,,,,,hnxrev,001,0,fr,2022-07-25_14h12.36.342,3-AFC_adaptive_staircase_mess,2022.1.1,None,
,,,,,8,0,8,0,24,0,24,0,,,,,,,,,,,,,,,,left,500,-10.0,2.259279721874613e-05,1,3,1,2.5,959.9912882666724,None,959.9746216000058,960.2990569999965,960.9630980000074,961.2990483999893,961.9711118999985,962.3008203000063,up,0,2.82835820002947,960.0024679999915,None,962.5054760999919,None,,,,,,,hnxrev,001,0,fr,2022-07-25_14h12.36.342,3-AFC_adaptive_staircase_mess,2022.1.1,None,
,,,,,8,0,8,0,25,0,25,0,,,,,,,,,,,,,,,,up,500,-7.5,3.0127979303717903e-05,1,3,1,2.5,965.3716139666542,None,964.3540404000087,964.684889600001,965.3549472999875,965.6931515999895,966.3471942000033,966.6660655000014,up,1,2.6312123999814503,964.3837132999906,None,966.9010230000131,None,,,,,,,hnxrev,001,0,fr,2022-07-25_14h12.36.342,3-AFC_adaptive_staircase_mess,2022.1.1,None,
,,,,,8,0,8,0,26,0,26,0,,,,,,,,,,,,,,,,left,500,-7.5,3.0127979303717903e-05,1,3,1,2.5,968.573925866662,None,968.5275422999985,968.8646386000037,None,None,None,None,left,1,0.6199342000181787,968.5866780999932,None,None,None,,,,,,,hnxrev,001,0,fr,2022-07-25_14h12.36.342,3-AFC_adaptive_staircase_mess,2022.1.1,None,
,,,,,8,0,8,0,27,0,27,0,,,,,,,,,,,,,,,,right,500,-12.5,1.6942207806960138e-05,-1,4,-1,-5.0,972.7693761666635,None,970.7192881999945,971.0411519999907,971.7373780999915,972.0461447999987,972.7208696999878,973.0352523000038,up,0,2.7980839000083506,970.7777592999919,None,973.279408900009,None,,,,,,,hnxrev,001,0,fr,2022-07-25_14h12.36.342,3-AFC_adaptive_staircase_mess,2022.1.1,None,
,,,,,8,0,8,0,28,0,28,0,,,,,,,,,,,,,,,,left,500,-10.0,2.259279721874613e-05,1,5,1,2.5,975.1640527666643,None,975.117865200009,975.4571421,976.1315116999904,976.464394700015,977.1096887000022,977.4289189999981,left,1,2.279623700014781,975.1749718000065,None,None,None,,,,,,,hnxrev,001,0,fr,2022-07-25_14h12.36.342,3-AFC_adaptive_staircase_mess,2022.1.1,None,
,,,,,8,0,8,0,29,0,29,0,,,,,,,,,,,,,,,,right,500,-10.0,2.259279721874613e-05,1,5,1,2.5,981.0075849666648,None,978.9685003999912,979.2974219000025,979.9794084999885,980.3044654999976,980.9634015999909,981.2867215000151,left,0,2.795745200011879,979.0273083999928,None,981.5213873999892,None,,,,,,,hnxrev,001,0,fr,2022-07-25_14h12.36.342,3-AFC_adaptive_staircase_mess,2022.1.1,None,
,,,,,8,0,8,0,30,0,30,0,,,,,,,,,,,,,,,,right,500,-7.5,3.0127979303717903e-05,1,5,1,2.5,985.3873212666697,None,983.3401900999888,983.6691735000059,984.3346047000086,984.6567253000103,985.341290100012,985.6834376000043,right,1,2.6127704000100493,983.4017508999968,None,985.8981662000006,None,,,,,,,hnxrev,001,0,fr,2022-07-25_14h12.36.342,3-AFC_adaptive_staircase_mess,2022.1.1,None,
,,,,,8,0,8,0,31,0,31,0,,,,,,,,,,,,,,,,left,500,-7.5,3.0127979303717903e-05,1,5,1,2.5,987.5691434666553,None,987.5235752000008,987.8360168999934,988.511059899989,988.8434497000126,989.5258885000076,989.8591768000042,up,0,2.662717200029874,987.5838840999932,None,990.0616214000038,None,,,,,,,hnxrev,001,0,fr,2022-07-25_14h12.36.342,3-AFC_adaptive_staircase_mess,2022.1.1,None,
,,,,,8,0,8,0,32,0,32,0,,,,,,,,,,,,,,,,up,500,-5.0,4.017630610928089e-05,1,5,1,2.5,992.8016868666784,None,991.7661416000046,992.1021454999864,992.7536596000136,993.0885052999947,993.7444010000036,994.0768608000071,up,1,2.380011800007196,991.794853600004,None,None,None,,,,,,,hnxrev,001,0,fr,2022-07-25_14h12.36.342,3-AFC_adaptive_staircase_mess,2022.1.1,None,
,,,,,8,0,8,0,33,0,33,0,,,,,,,,,,,,,,,,right,500,-5.0,4.017630610928089e-05,1,5,1,2.5,997.737011866677,None,995.6993520999968,996.0332959000079,996.6888351000089,997.0138569000119,997.6888094999886,998.0274795999867,right,1,2.6164331000181846,995.726849300001,None,998.2377908999915,None,,,,,,,hnxrev,001,0,fr,2022-07-25_14h12.36.342,3-AFC_adaptive_staircase_mess,2022.1.1,None,
,,,,,8,0,8,0,34,0,34,0,,,,,,,,,,,,,,,,left,500,-10.0,2.259279721874613e-05,-1,6,-1,-5.0,999.8983909666752,None,999.8496561000065,1000.1919861999922,1000.8507492000062,1001.1773309000127,1001.8594621999946,1002.1968406999949,left,1,2.712823300011223,999.9108353999909,None,1002.4282289000112,None,,,,,,,hnxrev,001,0,fr,2022-07-25_14h12.36.342,3-AFC_adaptive_staircase_mess,2022.1.1,None,
,,,,,9,0,9,0,0,0,0,0,,,,,,,,,,,,,[],[],10,left,250,30,0.005296268625886445,0,0,-1,10,1005.3766001666702,None,1005.329614599992,1005.6682836000109,None,None,None,None,left,1,0.7509350999898743,1005.3918577999866,None,None,None,right,1.1549416999914683,1003.700087300007,None,1003.700087300007,None,hnxrev,001,0,fr,2022-07-25_14h12.36.342,3-AFC_adaptive_staircase_mess,2022.1.1,None,
,,,,,9,0,9,0,1,0,1,0,,,,,,,,,,,,,,,,up,250,30,0.005296268625886445,0,0,-1,10,1008.7187911666736,None,1007.6889408999996,1008.0172354000097,1008.6722186999978,1009.0047481000074,None,None,up,1,1.4346559999976307,1007.748362000013,None,None,None,,,,,,,hnxrev,001,0,fr,2022-07-25_14h12.36.342,3-AFC_adaptive_staircase_mess,2022.1.1,None,
,,,,,9,0,9,0,2,0,2,0,,,,,,,,,,,,,,,,left,250,10,0.0005296268625886444,-1,0,-1,-10,1010.731613266664,None,1010.6861546,1011.0181709000026,None,None,None,None,left,1,0.5674716999928933,1010.7436798000126,None,None,None,,,,,,,hnxrev,001,0,fr,2022-07-25_14h12.36.342,3-AFC_adaptive_staircase_mess,2022.1.1,None,
,,,,,9,0,9,0,3,0,3,0,,,,,,,,,,,,,,,,up,250,10,0.0005296268625886444,-1,0,-1,-10,1013.8716503666694,None,1012.8553551000077,1013.1787337000133,1013.8549837000028,1014.1790170999884,None,None,up,1,1.5229642000049353,1012.8839999999909,None,None,None,,,,,,,hnxrev,001,0,fr,2022-07-25_14h12.36.342,3-AFC_adaptive_staircase_mess,2022.1.1,None,
,,,,,9,0,9,0,4,0,4,0,,,,,,,,,,,,,,,,left,250,0,0.0001674827195789138,-1,0,-1,-10,1015.9593560666583,None,1015.9426893999917,1016.2781903000141,None,None,None,None,left,1,0.6173419000115246,1015.9745260000054,None,None,None,,,,,,,hnxrev,001,0,fr,2022-07-25_14h12.36.342,3-AFC_adaptive_staircase_mess,2022.1.1,None,
,,,,,9,0,9,0,5,0,5,0,,,,,,,,,,,,,,,,left,250,0,0.0001674827195789138,-1,0,-1,-10,1018.1422975666685,None,1018.0955926000024,1018.419283700001,None,None,None,None,left,1,0.48672369998530485,1018.1530675000104,None,None,None,,,,,,,hnxrev,001,0,fr,2022-07-25_14h12.36.342,3-AFC_adaptive_staircase_mess,2022.1.1,None,
,,,,,9,0,9,0,6,0,6,0,,,,,,,,,,,,,,,,right,250,-10,5.296268625886443e-05,-1,0,-1,-10,1022.1939748666812,1022.4247698000108,1020.1444954999897,1020.4657665000123,1021.1306989000004,1021.4539218000136,1022.1482254000148,1022.4833138000104,up,0,2.621750799997244,1020.2016060999886,None,1022.6921042999893,None,,,,,,,hnxrev,001,0,fr,2022-07-25_14h12.36.342,3-AFC_adaptive_staircase_mess,2022.1.1,None,
,,,,,9,0,9,0,7,0,7,0,,,,,,,,,,,,,,,,left,250,-5,9.418245447449e-05,1,1,1,5,1024.381039666656,None,1024.3351323000097,1024.6610521000111,None,None,None,None,left,1,0.6154682000051253,1024.3922384000034,None,None,None,,,,,,,hnxrev,001,0,fr,2022-07-25_14h12.36.342,3-AFC_adaptive_staircase_mess,2022.1.1,None,
,,,,,9,0,9,0,8,0,8,0,,,,,,,,,,,,,,,,right,250,-5,9.418245447449e-05,1,1,1,5,1028.5278538666646,None,1026.4989213999943,1026.8258786000079,1027.5159971000103,1027.834375800012,1028.511187199998,1028.8423286000034,right,1,2.496769299992593,1026.5585617999895,None,1029.0437287999957,None,,,,,,,hnxrev,001,0,fr,2022-07-25_14h12.36.342,3-AFC_adaptive_staircase_mess,2022.1.1,None,
,,,,,9,0,9,0,9,0,9,0,,,,,,,,,,,,,,,,left,250,-15,2.9783107176450517e-05,-1,2,-1,-5.0,1030.6103552666648,None,1030.562617699994,1030.8916245999862,1031.5905610999907,1031.9165293000115,1032.5759114999964,1032.89931909999,up,0,2.687956400011899,1030.6235686999862,None,1033.1331998000096,None,,,,,,,hnxrev,001,0,fr,2022-07-25_14h12.36.342,3-AFC_adaptive_staircase_mess,2022.1.1,None,
,,,,,9,0,9,0,10,0,10,0,,,,,,,,,,,,,,,,left,250,-12.5,3.971641173621407e-05,1,3,1,2.5,1034.861233066655,None,1034.8081456999935,1035.139843300014,1035.8323703999922,1036.1491574000102,1036.8334643999988,1037.1427108999924,right,0,3.0029879999929108,1034.8756001000002,None,1037.364662100008,None,,,,,,,hnxrev,001,0,fr,2022-07-25_14h12.36.342,3-AFC_adaptive_staircase_mess,2022.1.1,None,
,,,,,9,0,9,0,11,0,11,0,,,,,,,,,,,,,,,,up,250,-10.0,5.296268625886443e-05,1,3,1,2.5,1040.4459108666672,None,1039.3788742999895,1039.7105838000134,1040.4004425999883,1040.7337868000031,1041.3839461999887,1041.7094073999906,up,1,2.6634269000205677,1039.447679600009,None,1041.9405550000083,None,,,,,,,hnxrev,001,0,fr,2022-07-25_14h12.36.342,3-AFC_adaptive_staircase_mess,2022.1.1,None,
,,,,,9,0,9,0,12,0,12,0,,,,,,,,,,,,,,,,up,250,-10.0,5.296268625886443e-05,1,3,1,2.5,1044.6740696666568,1044.8966126999876,1043.6178373000002,1043.9365719000052,1044.6172848000133,1044.9543384000135,1045.6146598999912,1045.9332984999928,up,1,2.5461136999947485,1043.6777821000142,None,1046.167174800008,None,,,,,,,hnxrev,001,0,fr,2022-07-25_14h12.36.342,3-AFC_adaptive_staircase_mess,2022.1.1,None,
,,,,,9,0,9,0,13,0,13,0,,,,,,,,,,,,,,,,up,250,-15.0,2.9783107176450517e-05,-1,4,-1,-5.0,1048.77031726667,None,1047.7126787999878,1048.020305699989,1048.7260559000133,1049.0542923999892,1049.719070399995,1050.0468783999968,up,1,2.4186120000085793,1047.7726705000096,None,None,None,,,,,,,hnxrev,001,0,fr,2022-07-25_14h12.36.342,3-AFC_adaptive_staircase_mess,2022.1.1,None,
,,,,,9,0,9,0,14,0,14,0,,,,,,,,,,,,,,,,left,250,-15.0,2.9783107176450517e-05,-1,4,-1,-5.0,1051.7275798666562,None,1051.681796799996,1052.0195210000093,1052.677489900001,1053.0292933000019,1053.6912359000125,1054.0156419000123,up,0,2.6201032000244595,1051.7389177999867,None,1054.2446061999945,None,,,,,,,hnxrev,001,0,fr,2022-07-25_14h12.36.342,3-AFC_adaptive_staircase_mess,2022.1.1,None,
,,,,,9,0,9,0,15,0,15,0,,,,,,,,,,,,,,,,right,250,-12.5,3.971641173621407e-05,1,5,1,2.5,1057.9092682666708,None,1055.8921291000152,1056.218579700013,1056.8835625000065,1057.191094000009,1057.8612635000027,1058.1962813000137,up,0,2.715612800006056,1055.9239310999983,None,1058.4325638999871,None,,,,,,,hnxrev,001,0,fr,2022-07-25_14h12.36.342,3-AFC_adaptive_staircase_mess,2022.1.1,None,
,,,,,9,0,9,0,16,0,16,0,,,,,,,,,,,,,,,,right,250,-10.0,5.296268625886443e-05,1,5,1,2.5,1062.160890866657,1062.3847214000125,1060.1370611999882,1060.4533548000036,1061.1009690999927,1061.4341777999944,1062.1155744999996,1062.4486083000083,up,0,2.8508761000121012,1060.164399900008,None,1062.6795524999907,None,,,,,,,hnxrev,001,0,fr,2022-07-25_14h12.36.342,3-AFC_adaptive_staircase_mess,2022.1.1,None,
,,,,,9,0,9,0,17,0,17,0,,,,,,,,,,,,,,,,right,250,-7.5,7.06268772311377e-05,1,5,1,2.5,1066.5869651666765,None,1064.5342415999912,1064.8585391000088,1065.535402300011,1065.8657775000029,1066.5428299999912,1066.862612900004,right,1,2.492312700022012,1064.6026655999885,None,1067.0932066999958,None,,,,,,,hnxrev,001,0,fr,2022-07-25_14h12.36.342,3-AFC_adaptive_staircase_mess,2022.1.1,None,
,,,,,9,0,9,0,18,0,18,0,,,,,,,,,,,,,,,,up,250,-7.5,7.06268772311377e-05,1,5,1,2.5,1069.6701033666652,None,1068.6231651999988,1068.969115999993,1069.6247829000058,1069.9589370999893,1070.6197481999989,1070.940185000014,up,1,2.7452406999946106,1068.6706059999997,None,1071.1750996999908,None,,,,,,,hnxrev,001,0,fr,2022-07-25_14h12.36.342,3-AFC_adaptive_staircase_mess,2022.1.1,None,
,,,,,9,0,9,0,19,0,19,0,,,,,,,,,,,,,,,,left,250,-12.5,3.971641173621407e-05,-1,6,-1,-5.0,1072.942870766656,None,1072.9262040999893,1073.2528315999953,1073.9043344999955,1074.213996800012,1074.927213499992,1075.2469482999877,up,0,2.6672318000055384,1072.9557015000028,None,1075.480933200015,None,,,,,,,hnxrev,001,0,fr,2022-07-25_14h12.36.342,3-AFC_adaptive_staircase_mess,2022.1.1,None,
,,,,,10,0,10,0,0,0,0,0,,,,,,,,,,,,,[],[],10,right,125,30,0.02285440948074376,0,0,-1,10,1080.406823966656,None,1078.3489091999945,1078.6682946000074,1079.3509597000084,1079.6694518000004,1080.3486845000007,None,right,1,2.2399886999919545,1078.4069887000078,None,None,None,left,1.1758433999784756,1076.694825499988,None,1076.694825499988,None,hnxrev,001,0,fr,2022-07-25_14h12.36.342,3-AFC_adaptive_staircase_mess,2022.1.1,None,
,,,,,10,0,10,0,1,0,1,0,,,,,,,,,,,,,,,,right,125,30,0.02285440948074376,0,0,-1,10,1084.1996048666808,None,1082.1562367999868,1082.4751883000135,1083.153697700007,1083.4706560999912,1084.1547072000103,None,right,1,2.2004046000074595,1082.2153647000086,None,None,None,,,,,,,hnxrev,001,0,fr,2022-07-25_14h12.36.342,3-AFC_adaptive_staircase_mess,2022.1.1,None,
,,,,,10,0,10,0,2,0,2,0,,,,,,,,,,,,,,,,up,125,10,0.002285440948074376,-1,0,-1,-10,1086.9501263666646,None,1085.9207270999905,1086.241808199993,1086.933459699998,1087.2511513000063,None,None,up,1,1.7075523999810684,1085.9794723000086,None,None,None,,,,,,,hnxrev,001,0,fr,2022-07-25_14h12.36.342,3-AFC_adaptive_staircase_mess,2022.1.1,None,
,,,,,10,0,10,0,3,0,3,0,,,,,,,,,,,,,,,,left,125,10,0.002285440948074376,-1,0,-1,-10,1089.2423885666688,None,1089.20669359999,1089.540983599989,None,None,None,None,left,1,0.49944630000391044,1089.2675446000067,None,None,None,,,,,,,hnxrev,001,0,fr,2022-07-25_14h12.36.342,3-AFC_adaptive_staircase_mess,2022.1.1,None,
,,,,,10,0,10,0,4,0,4,0,,,,,,,,,,,,,,,,up,125,0,0.000722719885372964,-1,0,-1,-10,1092.3224773666627,None,1091.262305799988,1091.596066099999,1092.2632985000091,1092.597211299988,None,None,up,1,1.4006842999951914,1091.3336027000041,None,None,None,,,,,,,hnxrev,001,0,fr,2022-07-25_14h12.36.342,3-AFC_adaptive_staircase_mess,2022.1.1,None,
,,,,,10,0,10,0,5,0,5,0,,,,,,,,,,,,,,,,up,125,0,0.000722719885372964,-1,0,-1,-10,1095.250029766674,None,1094.212586300011,1094.529224400001,1095.2136900000041,1095.5468426999869,None,None,up,1,1.3725698000052944,1094.2747387000127,None,None,None,,,,,,,hnxrev,001,0,fr,2022-07-25_14h12.36.342,3-AFC_adaptive_staircase_mess,2022.1.1,None,
,,,,,10,0,10,0,6,0,6,0,,,,,,,,,,,,,,,,right,125,-10,0.0002285440948074376,-1,0,-1,-10,1099.198515566681,1099.4286386999884,1097.168948800012,1097.48639179999,1098.169341700006,1098.489874299994,1099.1818489000143,1099.5177422999986,right,1,2.556289200001629,1097.2267630000133,None,1099.7203560000053,None,,,,,,,hnxrev,001,0,fr,2022-07-25_14h12.36.342,3-AFC_adaptive_staircase_mess,2022.1.1,None,
,,,,,10,0,10,0,7,0,7,0,,,,,,,,,,,,,,,,up,125,-10,0.0002285440948074376,-1,0,-1,-10,1102.3345549666594,None,1101.3074277999985,1101.627299499989,1102.2870002000127,1102.6060407999903,1103.286509700003,1103.5974112999975,up,1,2.6307506000157446,1101.3360922000138,None,1103.826980599988,None,,,,,,,hnxrev,001,0,fr,2022-07-25_14h12.36.342,3-AFC_adaptive_staircase_mess,2022.1.1,None,
,,,,,10,0,10,0,8,0,8,0,,,,,,,,,,,,,,,,right,125,-20,7.22719885372964e-05,-1,0,-1,-10,1107.5286082666755,None,1105.4785029999912,1105.8087038999947,1106.4999618000002,1106.8099519000098,1107.4804421000008,1107.8035418000072,up,0,2.829352899978403,1105.546127700014,None,1108.0333194000123,None,,,,,,,hnxrev,001,0,fr,2022-07-25_14h12.36.342,3-AFC_adaptive_staircase_mess,2022.1.1,None,
,,,,,10,0,10,0,9,0,9,0,,,,,,,,,,,,,,,,up,125,-15,0.00012851978913844324,1,1,1,5,1110.9436463666536,None,1109.8947546000127,1110.2167055000027,1110.898013500002,1111.2208221000037,1111.9047567000089,1112.227509199991,up,1,2.6039648999867495,1109.9554960000096,None,1112.4521267999953,None,,,,,,,hnxrev,001,0,fr,2022-07-25_14h12.36.342,3-AFC_adaptive_staircase_mess,2022.1.1,None,
,,,,,10,0,10,0,10,0,10,0,,,,,,,,,,,,,,,,up,125,-15,0.00012851978913844324,1,1,1,5,1115.1216027666562,None,1114.0702848999936,1114.3896420999954,1115.0740131000057,1115.4045100999938,1116.0708236999926,1116.390244899987,up,1,2.8241776000068057,1114.1177386000054,None,1116.6187535999925,None,,,,,,,hnxrev,001,0,fr,2022-07-25_14h12.36.342,3-AFC_adaptive_staircase_mess,2022.1.1,None,
,,,,,10,0,10,0,11,0,11,0,,,,,,,,,,,,,,,,right,125,-25,4.064152580820497e-05,-1,2,-1,-5.0,1120.5095510666763,None,1118.4573120000132,1118.7886999000038,1119.461028699996,1119.7791618999909,1120.4620551000116,1120.7722340000037,up,0,2.8636294000025373,1118.5271127999877,None,1121.0296130999923,None,,,,,,,hnxrev,001,0,fr,2022-07-25_14h12.36.342,3-AFC_adaptive_staircase_mess,2022.1.1,None,
