sweeps.thisRepN,sweeps.thisTrialN,sweeps.thisN,sweeps.thisIndex,trials.thisRepN,trials.thisTrialN,trials.thisN,trials.thisIndex,instructions.started,instructions.stopped,blank_text.started,blank_text.stopped,Intervals,text.started,text.stopped,Delay,Prediction,Frequency,Volume,Psychopy_level,isCatchTrial,len(y),finished_audiograms,probe.started,probe.stopped,feedback.keys,feedback.started,feedback.stopped,ISI.started,ISI.stopped,text_2.started,text_2.stopped,feedback.rt,break_txt.started,break_txt.stopped,,Audiogram_none,Audiogram_frequency,Audiogram_time,Audiogram_both,participant,session,language (english or french),Resume previous experiment,date,expName,psychopyVersion,frameRate,
0,0,0,0,0,0,0,0,18.003531000111252,None,75.9376682001166,None,"[0.5833333333333334, 0.3333333333333333, 0.16666666666666666, 0.16666666666666666, 0.16666666666666666, 0.5833333333333334, 0.3333333333333333, 0.3333333333333333, 0.16666666666666666, 0.3333333333333333, 0.5833333333333334, 0.5833333333333334, 0.16666666666666666, 0.16666666666666666, 0.5833333333333334]",77.97538620000705,None,2.255798592179305,time,250.0,-1.009002405292326,0.00014911450256165047,0,27,[],0.023886200040578842,0.22102530021220446,None,79.00118890008889,None,0.22102530021220446,2.4768238923915096,79.20886959997006,None,,,,,,,,,vqnuwy,001,fr,0,2022-05-10_10h19.17.781,Continuous,2022.1.1,33.89075720223212,
0,0,0,0,1,0,1,0,,,,,,,,2.255798592179305,time,354.0,-1.0,7.887248739356936e-05,0,28,[],0.02387849986553192,None,None,81.4560521999374,81.4560521999374,0.22973999986425042,2.4855385920435555,81.67846610001288,81.4560521999374,,,,,,,,,vqnuwy,001,fr,0,2022-05-10_10h19.17.781,Continuous,2022.1.1,33.89075720223212,
0,0,0,0,2,0,2,0,,,,,,,,2.255798592179305,time,198.0,-1.1793512205249537,0.00023809992800869582,0,29,[],0.016958100022748113,0.21075779991224408,['space'],83.92404319997877,83.92404319997877,0.21075779991224408,2.466556392091549,84.13626140006818,83.92404319997877,[-1.832468600012362],,,,,,,,vqnuwy,001,fr,0,2022-05-10_10h19.17.781,Continuous,2022.1.1,33.89075720223212,
0,0,0,0,3,0,3,0,,,,,,,,2.255798592179305,time,1001.0,-1.3262747323749136,3.785022173787866e-05,0,30,[],0.024082199903205037,None,['space'],86.38311180006713,86.38311180006713,0.22381070000119507,2.4796092921805,86.59256989997812,86.38311180006713,[-1.890558599960059],,,,,,,,vqnuwy,001,fr,0,2022-05-10_10h19.17.781,Continuous,2022.1.1,33.89075720223212,
0,0,0,0,4,0,4,0,,,,,,,,2.255798592179305,time,315.0,-0.04453864726834389,9.81167314032913e-05,0,31,[],0.017203399911522865,None,['space'],88.84458180004731,88.84458180004731,0.21148220007307827,2.4672807922523834,89.05949559994042,88.84458180004731,[-1.9679040000773966],,,,,,,,vqnuwy,001,fr,0,2022-05-10_10h19.17.781,Continuous,2022.1.1,33.89075720223212,
0,0,0,0,5,0,5,0,,,,,,,,2.255798592179305,time,,,,1,31,[],0.016486600041389465,None,None,91.31689010001719,91.31689010001719,0.2106250999495387,2.466423692128844,91.53137690015137,91.31689010001719,,,,,,,,,vqnuwy,001,fr,0,2022-05-10_10h19.17.781,Continuous,2022.1.1,33.89075720223212,
0,0,0,0,6,0,6,0,,,,,,,,2.255798592179305,time,132.0,-0.8586914198488563,0.0005982360875722957,0,32,[],0.025020799599587917,None,None,93.78380900016055,93.78380900016055,0.228688899660483,2.484487491839788,93.99539300007746,93.78380900016055,,,,,,,,,vqnuwy,001,fr,0,2022-05-10_10h19.17.781,Continuous,2022.1.1,33.89075720223212,
0,0,0,0,7,0,7,0,,,,,,,,2.255798592179305,time,668.0,-1.9062370026746238,3.840693584541602e-05,0,33,[],0.023837799904868007,None,['space'],96.24331900011748,96.24331900011748,0.22731139999814332,2.4831099921774484,96.4557163999416,96.24331900011748,[-2.0222265000920743],,,,,,,,vqnuwy,001,fr,0,2022-05-10_10h19.17.781,Continuous,2022.1.1,33.89075720223212,
0,0,0,0,8,0,8,0,,,,,,,,2.255798592179305,time,446.0,-1.0,6.61343155512842e-05,0,34,[],0.023664399748668075,None,['space'],98.71256040013395,98.71256040013395,0.22576759988442063,2.4815661920637258,98.92822380014695,98.71256040013395,[-2.0122038000263274],,,,,,,,vqnuwy,001,fr,0,2022-05-10_10h19.17.781,Continuous,2022.1.1,33.89075720223212,
0,0,0,0,9,0,9,0,,,,,,,,2.255798592179305,time,1262.0,-0.338453935788204,5.213953536917357e-05,0,35,[],0.021832700120285153,0.2179679002147168,['space'],101.17129359999672,101.17129359999672,0.2179679002147168,2.473766492394022,101.37653310014866,101.17129359999672,[-2.0708767999894917],,,,,,,,vqnuwy,001,fr,0,2022-05-10_10h19.17.781,Continuous,2022.1.1,33.89075720223212,
0,0,0,0,10,0,10,0,,,,,,,,2.255798592179305,time,1891.0,-0.8374622972328547,6.346620233078866e-05,0,36,[],0.023694300092756748,None,None,103.63063520006835,103.63063520006835,0.2301966999657452,2.4859952921450503,103.83989479998127,103.63063520006835,,,,,,,,,vqnuwy,001,fr,0,2022-05-10_10h19.17.781,Continuous,2022.1.1,33.89075720223212,
1,0,1,0,0,0,0,0,,,,,"[0.3333333333333333, 0.16666666666666666, 0.5833333333333334, 0.3333333333333333, 0.16666666666666666, 0.16666666666666666, 0.5833333333333334, 0.3333333333333333, 0.5833333333333334, 0.5833333333333334, 0.5833333333333334, 0.3333333333333333, 0.5833333333333334, 0.3333333333333333, 0.3333333333333333]",109.56574840005487,None,1.2409565055776204,none,,,,1,26,[],0.0249373996630311,None,None,110.59761120006442,None,0.2204703998286277,1.461426905406248,110.80736630014144,None,,106.09297530003823,None,,,,,,vqnuwy,001,fr,0,2022-05-10_10h19.17.781,Continuous,2022.1.1,33.89075720223212,
1,0,1,0,1,0,1,0,,,,,,,,2.2412441957101956,none,1498.0,-0.13213812426194949,4.7622184080472666e-05,0,27,[],0.01947369985282421,None,None,112.03416649997234,112.03416649997234,0.2149113998748362,2.456155595585032,112.25280979997478,112.03416649997234,,,,,,,,,vqnuwy,001,fr,0,2022-05-10_10h19.17.781,Continuous,2022.1.1,33.89075720223212,
1,0,1,0,2,0,2,0,,,,,,,,1.342309783693364,none,1887.0,0.9053503770292626,7.736764437302779e-05,0,28,[],0.023489699931815267,None,None,114.49044930003583,114.49044930003583,0.2287769999820739,1.5710867836754379,114.70768320001662,114.49044930003583,,,,,,,,,vqnuwy,001,fr,0,2022-05-10_10h19.17.781,Continuous,2022.1.1,33.89075720223212,
1,0,1,0,3,0,3,0,,,,,,,,2.732797904803308,none,530.0,-1.4932037805292908,5.62194544395557e-05,0,29,[],0.02221909980289638,None,['space'],116.03689280012622,116.03689280012622,0.2206230997107923,2.9534210045141003,116.24862399999984,116.03689280012622,[-1.2082962999120355],,,,,,,,vqnuwy,001,fr,0,2022-05-10_10h19.17.781,Continuous,2022.1.1,33.89075720223212,
1,0,1,0,4,0,4,0,,,,,,,,1.383674443550851,none,2377.0,-0.29528155656028776,8.038899351472468e-05,0,30,[],0.02346699987538159,None,['space'],118.98127450002357,118.98127450002357,0.22934299986809492,1.613017443418946,119.19646669994108,118.98127450002357,[-2.2812432998325676],,,,,,,,vqnuwy,001,fr,0,2022-05-10_10h19.17.781,Continuous,2022.1.1,33.89075720223212,
1,0,1,0,5,0,5,0,,,,,,,,2.6922761104096224,none,187.0,-1.3074521712378386,0.00026907749638055444,0,31,[],0.0226906999014318,None,['space'],120.58012810000218,120.58012810000218,0.224623299902305,2.9168994103119275,120.79506150004454,120.58012810000218,[-1.2071249999571592],,,,,,,,vqnuwy,001,fr,0,2022-05-10_10h19.17.781,Continuous,2022.1.1,33.89075720223212,
1,0,1,0,6,0,6,0,,,,,,,,2.7829581521511493,none,236.0,-1.0555463123047961,0.0001726075870373577,0,32,[],0.023004400078207254,None,['space'],123.4774021001067,123.4774021001067,0.2285913999658078,3.011549552116957,123.68940240005031,123.4774021001067,[-2.4084247001446784],,,,,,,,vqnuwy,001,fr,0,2022-05-10_10h19.17.781,Continuous,2022.1.1,33.89075720223212,
1,0,1,0,7,0,7,0,,,,,,,,2.7629533639483967,none,125.0,-0.653465268534599,0.0006703424786802114,0,33,[],0.021012499928474426,0.21713200001977384,['space'],126.4641712999437,126.4641712999437,0.21713200001977384,2.9800853639681706,126.67660470004193,126.4641712999437,[-2.5476510000880808],,,,,,,,vqnuwy,001,fr,0,2022-05-10_10h19.17.781,Continuous,2022.1.1,33.89075720223212,
1,0,1,0,8,0,8,0,,,,,,,,1.9641503389511055,none,354.0,-1.0,7.887248739356936e-05,0,34,[],0.01616279990412295,0.2085790999699384,['space'],129.4393955001142,129.4393955001142,0.2085790999699384,2.172729438921044,129.6549887000583,129.4393955001142,[-2.4986294000409544],,,,,,,,vqnuwy,001,fr,0,2022-05-10_10h19.17.781,Continuous,2022.1.1,33.89075720223212,
1,0,1,0,9,0,9,0,,,,,,,,1.0795286359769622,none,794.0,-1.02613656954489,3.433525498052602e-05,0,35,[],0.015908499946817756,0.20866820006631315,None,131.6092759000603,131.6092759000603,0.20866820006631315,1.2881968360432754,131.82338259997778,131.6092759000603,,,,,,,,,vqnuwy,001,fr,0,2022-05-10_10h19.17.781,Continuous,2022.1.1,33.89075720223212,
2,0,2,0,0,0,0,0,,,,,"[0.16666666666666666, 0.3333333333333333, 0.16666666666666666, 0.16666666666666666, 0.16666666666666666, 0.16666666666666666, 0.3333333333333333, 0.16666666666666666, 0.16666666666666666, 0.5833333333333334, 0.5833333333333334, 0.3333333333333333, 0.3333333333333333, 0.3333333333333333, 0.3333333333333333]",136.00723950006068,None,2.3104260469605036,none,2579.0,0.7235104878177904,8.802096419895242e-05,0,36,[],0.024979400215670466,None,None,137.03851250000298,None,0.23963360022753477,2.5500596471880383,137.25628490000963,None,,132.89611900015734,None,,,,,,vqnuwy,001,fr,0,2022-05-10_10h19.17.781,Continuous,2022.1.1,33.89075720223212,
2,0,2,0,1,0,1,0,,,,,,,,1.0226793581523983,none,2895.0,-1.8239064013289765,4.972922028336171e-05,0,37,[],0.02248940011486411,None,['space'],139.5560870000627,139.5560870000627,0.22905550012364984,1.2517348582760481,139.76696419995278,139.5560870000627,[-1.9440788999199867],,,,,,,,vqnuwy,001,fr,0,2022-05-10_10h19.17.781,Continuous,2022.1.1,33.89075720223212,
2,0,2,0,2,0,2,0,,,,,,,,1.631545694356733,none,,,,1,37,[],0.023056200006976724,None,['space'],140.7877337001264,140.7877337001264,0.2250854999292642,1.8566311942859972,141.00485690007918,140.7877337001264,[-0.8236916000023484],,,,,,,,vqnuwy,001,fr,0,2022-05-10_10h19.17.781,Continuous,2022.1.1,33.89075720223212,
2,0,2,0,3,0,3,0,,,,,,,,2.9404040490443863,none,2298.0,-0.07320656735149766,8.073430832961587e-05,0,38,[],0.024114199681207538,None,None,142.6294059001375,142.6294059001375,0.2273662998341024,3.1677703488784887,142.83722200011835,142.6294059001375,,,,,,,,,vqnuwy,001,fr,0,2022-05-10_10h19.17.781,Continuous,2022.1.1,33.89075720223212,
2,0,2,0,4,0,4,0,,,,,,,,2.4212955131369833,none,3647.0,-2.064952247333436,6.12938708326386e-05,0,39,[],0.022155100014060736,None,['space'],145.77852519997396,145.77852519997396,0.22520270012319088,2.646498213260174,145.9923861999996,145.77852519997396,[-2.7748428999911994],,,,,,,,vqnuwy,001,fr,0,2022-05-10_10h19.17.781,Continuous,2022.1.1,33.89075720223212,
2,0,2,0,5,0,5,0,,,,,,,,2.2149502813291377,none,4595.0,-2.0,9.919545933000921e-05,0,40,[],0.021960800047963858,None,['space'],148.41426769993268,148.41426769993268,0.22653210000135005,2.441482381330488,148.62381949997507,148.41426769993268,[-2.2740160999819636],,,,,,,,vqnuwy,001,fr,0,2022-05-10_10h19.17.781,Continuous,2022.1.1,33.89075720223212,
2,0,2,0,6,0,6,0,,,,,,,,1.9841872199405508,none,1448.0,-0.4365005217085902,4.7162848429325656e-05,0,41,[],0.021829599980264902,None,['space'],150.83939610002562,150.83939610002562,0.22031879983842373,2.2045060197789743,151.05224890005775,150.83939610002562,[-2.0434095999225974],,,,,,,,vqnuwy,001,fr,0,2022-05-10_10h19.17.781,Continuous,2022.1.1,33.89075720223212,
2,0,2,0,7,0,7,0,,,,,,,,2.999135431829359,none,1824.0,1.2693238450674484,7.738628136405485e-05,0,42,[],0.02240019990131259,None,None,153.03621529997326,153.03621529997326,0.2253956999629736,3.2245311317923324,153.25063330004923,153.03621529997326,,,,,,,,,vqnuwy,001,fr,0,2022-05-10_10h19.17.781,Continuous,2022.1.1,33.89075720223212,
2,0,2,0,8,0,8,0,,,,,,,,1.2918953129579989,none,4094.0,-3.3900591401643143,6.119327132744818e-05,0,43,[],0.022435899823904037,None,"['space', 'space']",156.24551509995945,156.24551509995945,0.22566189989447594,1.5175572128524748,156.45767040015198,156.24551509995945,"[-2.778276100056246, -0.025590900098904967]",,,,,,,,vqnuwy,001,fr,0,2022-05-10_10h19.17.781,Continuous,2022.1.1,33.89075720223212,
2,0,2,0,9,0,9,0,,,,,,,,2.782473322650116,none,6885.0,-2.0978628774592254,0.00011603982680349973,0,44,[],0.022140300134196877,None,None,157.74565459997393,157.74565459997393,0.22389150015078485,3.006364822800901,157.95530720008537,157.74565459997393,,,,,,,,,vqnuwy,001,fr,0,2022-05-10_10h19.17.781,Continuous,2022.1.1,33.89075720223212,
2,0,2,0,10,0,10,0,,,,,,,,1.9150745079059923,none,2047.0,1.8422488290908714,9.377539328196135e-05,0,45,[],0.01622700016014278,None,['space'],160.73778880015016,160.73778880015016,0.21110760001465678,2.1261821079206493,160.95499270013534,160.73778880015016,[-2.373765900032595],,,,,,,,vqnuwy,001,fr,0,2022-05-10_10h19.17.781,Continuous,2022.1.1,33.89075720223212,
3,0,3,0,0,0,0,0,,,,,"[0.16666666666666666, 0.5833333333333334, 0.5833333333333334, 0.5833333333333334, 0.3333333333333333, 0.3333333333333333, 0.3333333333333333, 0.16666666666666666, 0.5833333333333334, 0.16666666666666666, 0.3333333333333333, 0.5833333333333334, 0.3333333333333333, 0.16666666666666666, 0.5833333333333334]",165.81811470002867,None,1.0363039727514112,none,354.0,-7.0,3.952988376608492e-05,0,46,[],0.0249484998639673,None,None,166.85051729995757,None,0.23289379989728332,1.2691977726486945,167.06088240002282,None,,162.86895260005258,None,,,,,,vqnuwy,001,fr,0,2022-05-10_10h19.17.781,Continuous,2022.1.1,33.89075720223212,
3,0,3,0,1,0,1,0,,,,,,,,1.8223552775019949,none,1588.0,-0.33108486834038375,5.365221310043831e-05,0,47,[],0.02210410009138286,None,None,168.09129870007746,168.09129870007746,0.2282913001254201,2.0506465776274148,168.2986618001014,168.09129870007746,,,,,,,,,vqnuwy,001,fr,0,2022-05-10_10h19.17.781,Continuous,2022.1.1,33.89075720223212,
3,0,3,0,2,0,2,0,,,,,,,,2.806023611111079,none,944.0,-1.8246501186127013,3.441564187873824e-05,0,48,[],0.014675599988549948,None,None,170.11673799995333,170.11673799995333,0.21063390001654625,3.016657511127625,170.33430130011402,170.11673799995333,,,,,,,,,vqnuwy,001,fr,0,2022-05-10_10h19.17.781,Continuous,2022.1.1,33.89075720223212,
3,0,3,0,3,0,3,0,,,,,,,,1.9937967821692715,none,1060.0,-3.656597676742094,3.0563452102208106e-05,0,49,[],0.022200699895620346,None,['space'],173.14039960014634,173.14039960014634,0.22189230006188154,2.215689082231153,173.35303030000068,173.14039960014634,[-2.3925610999576747],,,,,,,,vqnuwy,001,fr,0,2022-05-10_10h19.17.781,Continuous,2022.1.1,33.89075720223212,
3,0,3,0,4,0,4,0,,,,,,,,1.5931633675879697,none,500.0,-5.200187815025184,3.92609327820241e-05,0,50,[],0.022046499885618687,None,None,175.34919420001097,175.34919420001097,0.23112310003489256,1.8242864676228623,175.5683607000392,175.34919420001097,,,,,,,,,vqnuwy,001,fr,0,2022-05-10_10h19.17.781,Continuous,2022.1.1,33.89075720223212,
3,0,3,0,5,0,5,0,,,,,,,,2.3277851708634403,none,167.0,-2.863564487277632,0.00027732546651324896,0,51,[],0.01914949994534254,0.2119613999966532,['space'],177.15129219996743,177.15129219996743,0.2119613999966532,2.5397465708600935,177.35965430014767,177.15129219996743,[-1.2672120998613536],,,,,,,,vqnuwy,001,fr,0,2022-05-10_10h19.17.781,Continuous,2022.1.1,33.89075720223212,
3,0,3,0,6,0,6,0,,,,,,,,1.1603735397564947,none,236.0,-6.957632157173438,8.748943041653983e-05,0,52,[],0.020129299722611904,None,['space'],179.68775549996644,179.68775549996644,0.21642509987577796,1.3767986396322727,179.90120660001412,179.68775549996644,[-1.9157509000506252],,,,,,,,vqnuwy,001,fr,0,2022-05-10_10h19.17.781,Continuous,2022.1.1,33.89075720223212,
3,0,3,0,7,0,7,0,,,,,,,,1.9413960859957358,none,133.0,-0.6598450090521527,0.0006038379553651744,0,53,[],0.021219799760729074,None,None,181.06149079999886,181.06149079999886,0.22619429975748062,2.1675903857532166,181.2784766999539,181.06149079999886,,,,,,,,,vqnuwy,001,fr,0,2022-05-10_10h19.17.781,Continuous,2022.1.1,33.89075720223212,
3,0,3,0,8,0,8,0,,,,,,,,1.6805745332082436,none,397.0,-0.9226006545648124,6.954020215890024e-05,0,54,[],0.022108299657702446,None,['space'],183.21562470006756,183.21562470006756,0.22849149978719652,1.90906603299544,183.42793529992923,183.21562470006756,[-1.6997902998700738],,,,,,,,vqnuwy,001,fr,0,2022-05-10_10h19.17.781,Continuous,2022.1.1,33.89075720223212,
3,0,3,0,9,0,9,0,,,,,,,,2.442237312586647,none,749.0,-3.587712171316487,2.694762335116423e-05,0,55,[],0.02174669993110001,None,None,185.1034300001338,185.1034300001338,0.2222384000197053,2.664475712606352,185.31541989999823,185.1034300001338,,,,,,,,,vqnuwy,001,fr,0,2022-05-10_10h19.17.781,Continuous,2022.1.1,33.89075720223212,
3,0,3,0,10,0,10,0,,,,,,,,1.128145632517034,none,,,,1,55,[],0.022167099872604012,None,None,187.75611920002848,187.75611920002848,0.22504749987274408,1.3531931323897781,187.96266590012237,187.75611920002848,,,,,,,,,vqnuwy,001,fr,0,2022-05-10_10h19.17.781,Continuous,2022.1.1,33.89075720223212,
4,0,4,0,0,0,0,0,,,,,,191.41757820011117,None,1.8879192051816984,frequency,141.0,-0.7418543213812077,0.0005327715388177397,0,27,[],0.024886799976229668,None,None,192.43346050009131,None,0.2310309000313282,2.1189501052130266,192.64560830011033,None,,189.09049300011247,None,0.16666666666666666,,,,,vqnuwy,001,fr,0,2022-05-10_10h19.17.781,Continuous,2022.1.1,33.89075720223212,
4,0,4,0,1,0,1,0,,,,,,,,2.321266762556939,frequency,158.0,-1.1433120201864546,0.00037602588357045193,0,28,[],0.02139450004324317,None,['space'],194.52991220005788,194.52991220005788,0.22375280014239252,2.5450195626993315,194.73892459995113,194.52991220005788,[-1.3665670999325812],,,,,,,,vqnuwy,001,fr,0,2022-05-10_10h19.17.781,Continuous,2022.1.1,33.89075720223212,
4,0,4,0,2,0,2,0,,,,,,,,1.6616782801040364,frequency,177.0,-1.996216660845244,0.00027750638883876897,0,29,[],0.02157370001077652,None,['space'],197.06098029995337,197.06098029995337,0.22416109987534583,1.8858393799793822,197.27122520003468,197.06098029995337,[-2.1044745999388397],,,,,,,,vqnuwy,001,fr,0,2022-05-10_10h19.17.781,Continuous,2022.1.1,33.89075720223212,
4,0,4,0,3,0,3,0,,,,,,,,2.595140377204684,frequency,199.0,-1.2968615606940328,0.00023176354184953446,0,30,[],0.021691299742087722,None,['space'],198.93169330013916,198.93169330013916,0.22725249989889562,2.82239287710358,199.14462139992975,198.93169330013916,[-1.4162234000395983],,,,,,,,vqnuwy,001,fr,0,2022-05-10_10h19.17.781,Continuous,2022.1.1,33.89075720223212,
4,0,4,0,4,0,4,0,,,,,,,,2.7022250069826965,frequency,223.0,-1.8876194214190627,0.00017733435701199456,0,31,[],0.021589799784123898,None,['space'],201.73778020008467,201.73778020008467,0.22445099987089634,2.926676006853593,201.94762210012414,201.73778020008467,[-2.3818236999213696],,,,,,,,vqnuwy,001,fr,0,2022-05-10_10h19.17.781,Continuous,2022.1.1,33.89075720223212,
4,0,4,0,5,0,5,0,,,,,,,,1.4417888786225925,frequency,,,,1,31,[],0.016722399974241853,0.2115869999397546,['space'],204.6497124999296,204.6497124999296,0.2115869999397546,1.6533758785623471,204.86249930015765,204.6497124999296,[-2.46068529994227],,,,,,,,vqnuwy,001,fr,0,2022-05-10_10h19.17.781,Continuous,2022.1.1,33.89075720223212,
4,0,4,0,6,0,6,0,,,,,,,,2.324617533521702,frequency,281.0,-0.4283103019430793,0.00012816278843315435,0,32,[],0.017884300090372562,0.21133550000377,None,206.30254609999247,206.30254609999247,0.21133550000377,2.535953033525472,206.5142985000275,206.30254609999247,,,,,,,,,vqnuwy,001,fr,0,2022-05-10_10h19.17.781,Continuous,2022.1.1,33.89075720223212,
4,0,4,0,7,0,7,0,,,,,,,,1.578603179016992,frequency,315.0,-0.5297518019234501,9.278599178048227e-05,0,33,[],0.020739799831062555,None,None,208.8345002999995,208.8345002999995,0.22073119995184243,1.7993343789688345,209.04912970005535,208.8345002999995,,,,,,,,,vqnuwy,001,fr,0,2022-05-10_10h19.17.781,Continuous,2022.1.1,33.89075720223212,
4,0,4,0,8,0,8,0,,,,,,,,1.4203959156963524,frequency,354.0,-1.0,7.887248739356936e-05,0,34,[],0.021583500085398555,None,None,210.6283100999426,210.6283100999426,0.2276932999957353,1.6480892156920877,210.8418908000458,210.6283100999426,,,,,,,,,vqnuwy,001,fr,0,2022-05-10_10h19.17.781,Continuous,2022.1.1,33.89075720223212,
4,0,4,0,9,0,9,0,,,,,,,,2.859815124179833,frequency,397.0,-0.6462763078770533,7.178805158487946e-05,0,35,[],0.021487400168552995,None,None,212.26200999994762,212.26200999994762,0.22721890010870993,3.087034024288543,212.47105980012566,212.26200999994762,,,,,,,,,vqnuwy,001,fr,0,2022-05-10_10h19.17.781,Continuous,2022.1.1,33.89075720223212,
4,0,4,0,10,0,10,0,,,,,,,,1.6138188818445454,frequency,446.0,-1.0,6.61343155512842e-05,0,36,[],0.01409129984676838,0.20777099998667836,None,215.33296050014906,215.33296050014906,0.20777099998667836,1.8215898818312237,215.5451682000421,215.33296050014906,,,,,,,,,vqnuwy,001,fr,0,2022-05-10_10h19.17.781,Continuous,2022.1.1,33.89075720223212,
4,0,4,0,11,0,11,0,,,,,,,,2.360414007680122,frequency,501.0,-1.5037794923620167,5.995586949349397e-05,0,37,[],0.02136360015720129,None,['space'],217.1585854999721,217.1585854999721,0.22729770001024008,2.587711707690362,217.3746404000558,217.1585854999721,[-1.3386416998691857],,,,,,,,vqnuwy,001,fr,0,2022-05-10_10h19.17.781,Continuous,2022.1.1,33.89075720223212,
4,0,4,0,12,0,12,0,,,,,,,,1.7017487841903525,frequency,562.0,-1.625961949792603,5.122692769560595e-05,0,38,[],0.019317899830639362,0.21618229988962412,['space'],219.7288282001391,219.7288282001391,0.21618229988962412,1.9179310840799766,219.94978870009072,219.7288282001391,[-2.1008094002027065],,,,,,,,vqnuwy,001,fr,0,2022-05-10_10h19.17.781,Continuous,2022.1.1,33.89075720223212,
4,0,4,0,13,0,13,0,,,,,,,,1.8081031027160832,frequency,631.0,-1.489764382138611,4.3026576873766154e-05,0,39,[],0.021120699821040034,None,['space'],221.6436149000656,221.6436149000656,0.22621509991586208,2.0343182026319453,221.8595996000804,221.6436149000656,[-1.5197457999456674],,,,,,,,vqnuwy,001,fr,0,2022-05-10_10h19.17.781,Continuous,2022.1.1,33.89075720223212,
4,0,4,0,14,0,14,0,,,,,,,,1.923450166775618,frequency,708.0,-1.9009063102083237,3.561227325627271e-05,0,40,[],0.019633699906989932,None,['space'],223.6667895000428,223.6667895000428,0.2184756000060588,2.141925766781677,223.88678569998592,223.6667895000428,[-1.3501262001227587],,,,,,,,vqnuwy,001,fr,0,2022-05-10_10h19.17.781,Continuous,2022.1.1,33.89075720223212,
5,0,5,0,0,0,0,0,,,,,,229.70121860015206,None,2.0830238904537968,frequency,218.0,-1.0033926994773872,0.00020506517611806354,0,41,[],0.025017699925228953,None,None,230.7099264001008,None,0.2517373999580741,2.334761290411871,230.933242399944,None,,225.80255979998037,None,0.5833333333333334,,,,,vqnuwy,001,fr,0,2022-05-10_10h19.17.781,Continuous,2022.1.1,33.89075720223212,
5,0,5,0,1,0,1,0,,,,,,,,2.4964991824887117,frequency,326.0,-0.6924939261460518,8.842683947851835e-05,0,42,[],0.018310599960386753,None,['space'],233.0103760000784,233.0103760000784,0.22299190005287528,2.719491082541587,233.22852939995937,233.0103760000784,[-1.6866909000091255],,,,,,,,vqnuwy,001,fr,0,2022-05-10_10h19.17.781,Continuous,2022.1.1,33.89075720223212,
5,0,5,0,2,0,2,0,,,,,,,,2.212169004372881,frequency,489.0,-1.3225709833667598,6.183647634202001e-05,0,43,[],0.019998899893835187,None,None,235.72978539997712,235.72978539997712,0.22351699997670949,2.4356860043495905,235.94130970002152,235.72978539997712,,,,,,,,,vqnuwy,001,fr,0,2022-05-10_10h19.17.781,Continuous,2022.1.1,33.89075720223212,
5,0,5,0,3,0,3,0,,,,,,,,2.7615219037983314,frequency,732.0,-1.0260660574655511,3.75158566974839e-05,0,44,[],0.018087700242176652,None,['space'],238.14998050010763,238.14998050010763,0.2224766002036631,2.9839985040019945,238.36713100015186,238.14998050010763,[-1.8497159001417458],,,,,,,,vqnuwy,001,fr,0,2022-05-10_10h19.17.781,Continuous,2022.1.1,33.89075720223212,
5,0,5,0,4,0,4,0,,,,,,,,1.8891486116824234,frequency,1097.0,-0.9826969646413948,4.296329404622169e-05,0,45,[],0.020932000130414963,None,['space'],241.13405590015464,241.13405590015464,0.224482900230214,2.1136315119126374,241.3365561000537,241.13405590015464,[-2.529317099833861],,,,,,,,vqnuwy,001,fr,0,2022-05-10_10h19.17.781,Continuous,2022.1.1,33.89075720223212,
5,0,5,0,5,0,5,0,,,,,,,,1.6545996391478215,frequency,1643.0,-0.35097862056021567,5.636777569027933e-05,0,46,[],0.020720700034871697,None,None,243.22933460003696,243.22933460003696,0.22612889995798469,1.8807285391058062,243.4382333001122,243.22933460003696,,,,,,,,,vqnuwy,001,fr,0,2022-05-10_10h19.17.781,Continuous,2022.1.1,33.89075720223212,
5,0,5,0,6,0,6,0,,,,,,,,1.673290155130095,frequency,2462.0,-1.0,7.580362217193044e-05,0,47,[],0.01397859980352223,0.21022479981184006,None,245.0966581001412,245.0966581001412,0.21022479981184006,1.883514954941935,245.3074078001082,245.0966581001412,,,,,,,,,vqnuwy,001,fr,0,2022-05-10_10h19.17.781,Continuous,2022.1.1,33.89075720223212,
5,0,5,0,7,0,7,0,,,,,,,,1.9017102047390224,frequency,3689.0,-2.420517043414478,5.939337209514739e-05,0,48,[],0.020967100048437715,None,None,246.9849094999954,246.9849094999954,0.22412930009886622,2.125839504837889,247.20776240015402,246.9849094999954,,,,,,,,,vqnuwy,001,fr,0,2022-05-10_10h19.17.781,Continuous,2022.1.1,33.89075720223212,
5,0,5,0,8,0,8,0,,,,,,,,1.7508970426577108,frequency,,,,1,48,[],0.01389480009675026,0.20491280010901392,['space'],249.10067160008475,249.10067160008475,0.20491280010901392,1.9558098427667248,249.31432570004836,249.10067160008475,[-1.6964138001203537],,,,,,,,vqnuwy,001,fr,0,2022-05-10_10h19.17.781,Continuous,2022.1.1,33.89075720223212,
6,0,6,0,0,0,0,0,,,,,,253.42519169999287,None,2.7805998534567036,frequency,832.0,-1.5461927370569355,3.287267253984873e-05,0,49,[],0.024789700284600258,None,None,254.44728210009634,None,0.23740670015104115,3.0180065536077447,254.66333100013435,None,,251.0550252001267,None,0.3333333333333333,,,,,vqnuwy,001,fr,0,2022-05-10_10h19.17.781,Continuous,2022.1.1,33.89075720223212,
6,0,6,0,1,0,1,0,,,,,,,,2.4498896068902787,frequency,,,,1,49,[],0.01617900002747774,None,['space'],257.4372731000185,257.4372731000185,0.21932319994084537,2.669212806831124,257.65782520012,257.4372731000185,[-2.400882399873808],,,,,,,,vqnuwy,001,fr,0,2022-05-10_10h19.17.781,Continuous,2022.1.1,33.89075720223212,
6,0,6,0,2,0,2,0,,,,,,,,1.3374736814550146,frequency,1320.0,0.18059997727760546,5.388008057432339e-05,0,50,[],0.016297099879011512,0.20822079991921782,None,260.1096288000699,260.1096288000699,0.20822079991921782,1.5456944813742324,260.32241789996624,260.1096288000699,,,,,,,,,vqnuwy,001,fr,0,2022-05-10_10h19.17.781,Continuous,2022.1.1,33.89075720223212,
6,0,6,0,3,0,3,0,,,,,,,,2.0876210664348305,frequency,1663.0,0.8314896303642987,6.55821520900846e-05,0,51,[],0.02023529983125627,None,None,261.6572283001151,261.6572283001151,0.22140999999828637,2.309031066433117,261.86503820004873,261.6572283001151,,,,,,,,,vqnuwy,001,fr,0,2022-05-10_10h19.17.781,Continuous,2022.1.1,33.89075720223212,
6,0,6,0,4,0,4,0,,,,,,,,2.254067419985459,frequency,2095.0,1.0894704830940456,8.719662294610522e-05,0,52,[],0.02050109999254346,None,None,263.9532266999595,263.9532266999595,0.22327369987033308,2.477341119855792,264.1653458001092,263.9532266999595,,,,,,,,,vqnuwy,001,fr,0,2022-05-10_10h19.17.781,Continuous,2022.1.1,33.89075720223212,
6,0,6,0,5,0,5,0,,,,,,,,2.9828369814743785,frequency,2639.0,0.5927948812397563,8.271430363559823e-05,0,53,[],0.020486800000071526,None,['space'],266.42063400009647,266.42063400009647,0.2255349000915885,3.208371881565967,266.6286693001166,266.42063400009647,[-2.1045409999787807],,,,,,,,vqnuwy,001,fr,0,2022-05-10_10h19.17.781,Continuous,2022.1.1,33.89075720223212,
6,0,6,0,6,0,6,0,,,,,,,,1.2290858571467393,frequency,3325.0,-1.6754962226738146,5.944390490751109e-05,0,54,[],0.02016780013218522,None,['space'],269.61345860012807,269.61345860012807,0.22245800006203353,1.4515438572087729,269.8290846000891,269.61345860012807,[-2.768994600046426],,,,,,,,vqnuwy,001,fr,0,2022-05-10_10h19.17.781,Continuous,2022.1.1,33.89075720223212,
6,0,6,0,7,0,7,0,,,,,,,,2.0462192518614164,frequency,4189.0,-2.3345887088444925,7.40958309873636e-05,0,55,[],0.013101200107485056,None,['space'],271.059547000099,271.059547000099,0.21183079993352294,2.2580500517949393,271.2724389000796,271.059547000099,[-1.0308327998500317],,,,,,,,vqnuwy,001,fr,0,2022-05-10_10h19.17.781,Continuous,2022.1.1,33.89075720223212,
6,0,6,0,8,0,8,0,,,,,,,,1.9466124370355526,frequency,5278.0,0.0,0.00014249443782164188,0,56,[],0.01927999989129603,None,['space'],273.31899649999104,273.31899649999104,0.21816129982471466,2.1647737368602673,273.5363257001154,273.31899649999104,[-1.738207200076431],,,,,,,,vqnuwy,001,fr,0,2022-05-10_10h19.17.781,Continuous,2022.1.1,33.89075720223212,
6,0,6,0,9,0,9,0,,,,,,,,1.3030181861257129,frequency,6650.0,-0.15737948250583944,0.00013809241258664752,0,57,[],0.020142799941822886,None,['space'],275.4820294000674,275.4820294000674,0.2224955998826772,1.52551378600839,275.7036250999663,275.4820294000674,[-1.7576853998471051],,,,,,,,vqnuwy,001,fr,0,2022-05-10_10h19.17.781,Continuous,2022.1.1,33.89075720223212,
7,0,7,0,0,0,0,0,,,,,,279.7111007999629,None,2.163902677697221,frequency,315.0,-0.7503667528629501,9.045897589372345e-05,0,58,[],0.025057499995455146,None,None,280.73805740009993,None,0.243831800064072,2.4077344777612932,280.9576990001369,None,,276.9975422001444,None,0.5833333333333334,,,,,vqnuwy,001,fr,0,2022-05-10_10h19.17.781,Continuous,2022.1.1,33.89075720223212,
7,0,7,0,1,0,1,0,,,,,,,,1.4603048026420917,frequency,472.0,-1.803862668177167,5.920901819543993e-05,0,59,[],0.014984400011599064,0.20838850014843047,None,283.1170096001588,283.1170096001588,0.20838850014843047,1.6686933027905222,283.3338091999758,283.1170096001588,,,,,,,,,vqnuwy,001,fr,0,2022-05-10_10h19.17.781,Continuous,2022.1.1,33.89075720223212,
7,0,7,0,2,0,2,0,,,,,,,,1.743000503434708,frequency,707.0,-3.860214299829339,2.8476897073428097e-05,0,60,[],0.012718199985101819,None,['space'],284.7896342999302,284.7896342999302,0.21182929980568588,1.954829803240394,285.0038447000552,284.7896342999302,[-1.1617592999245971],,,,,,,,vqnuwy,001,fr,0,2022-05-10_10h19.17.781,Continuous,2022.1.1,33.89075720223212,
7,0,7,0,3,0,3,0,,,,,,,,2.7950791504082817,frequency,1059.0,-1.7551677557119634,3.800875075767602e-05,0,61,[],0.01881080004386604,None,None,286.74965140013956,286.74965140013956,0.2183887001592666,3.0134678505675483,286.9643204000313,286.74965140013956,,,,,,,,,vqnuwy,001,fr,0,2022-05-10_10h19.17.781,Continuous,2022.1.1,33.89075720223212,
7,0,7,0,4,0,4,0,,,,,,,,2.378109225036681,frequency,1587.0,-3.2874886851378458,3.811612062237368e-05,0,62,[],0.01967679988592863,None,None,289.76373310014606,289.76373310014606,0.22553199995309114,2.6036412249897722,289.97843300015666,289.76373310014606,,,,,,,,,vqnuwy,001,fr,0,2022-05-10_10h19.17.781,Continuous,2022.1.1,33.89075720223212,
7,0,7,0,5,0,5,0,,,,,,,,1.9740827079637056,frequency,2378.0,-1.466857334886262,7.026410858293983e-05,0,63,[],0.019854000071063638,None,None,292.3552914999891,292.3552914999891,0.22682230011560023,2.200905008079306,292.5751895001158,292.3552914999891,,,,,,,,,vqnuwy,001,fr,0,2022-05-10_10h19.17.781,Continuous,2022.1.1,33.89075720223212,
7,0,7,0,6,0,6,0,,,,,,,,1.1905343883490866,frequency,3563.0,-3.4687893347747187,5.115745309639671e-05,0,64,[],0.019780099857598543,None,['space'],294.5413206999656,294.5413206999656,0.22212089993990958,1.4126552882889962,294.7575833001174,294.5413206999656,[-1.729983099969104],,,,,,,,vqnuwy,001,fr,0,2022-05-10_10h19.17.781,Continuous,2022.1.1,33.89075720223212,
7,0,7,0,7,0,7,0,,,,,,,,2.9678890162503544,frequency,5339.0,-2.213279111664116,0.0001086984561434647,0,65,[],0.017132099950686097,None,['space'],295.9433015000541,295.9433015000541,0.21991819981485605,3.1878072160652104,296.16323500010185,295.9433015000541,[-1.019276199862361],,,,,,,,vqnuwy,001,fr,0,2022-05-10_10h19.17.781,Continuous,2022.1.1,33.89075720223212,
7,0,7,0,8,0,8,0,,,,,,,,1.4549951872643023,frequency,8000.0,-4.0,0.00011454338263838867,0,66,[],0.015013799769803882,0.20749269984662533,['space'],299.1334997001104,299.1334997001104,0.20749269984662533,1.6624878871109277,299.34699949994683,299.1334997001104,[-2.737298100022599],,,,,,,,vqnuwy,001,fr,0,2022-05-10_10h19.17.781,Continuous,2022.1.1,33.89075720223212,
7,0,7,0,9,0,9,0,,,,,,,,2.790764139662972,frequency,,,,1,66,[],0.019851400051265955,None,None,300.7977208001539,300.7977208001539,0.22178760007955134,3.0125517397425234,301.0145746001508,300.7977208001539,,,,,,,,,vqnuwy,001,fr,0,2022-05-10_10h19.17.781,Continuous,2022.1.1,33.89075720223212,
8,0,8,0,0,0,0,0,,,,,,306.59200610010885,None,2.4252477742492466,frequency,125.0,3.0,0.001020868972334765,0,67,[],0.025078900158405304,None,None,307.6037872999441,None,0.23645179998129606,2.6616995742305427,307.81765209999867,None,,303.803392900154,None,0.16666666666666666,,,,,vqnuwy,001,fr,0,2022-05-10_10h19.17.781,Continuous,2022.1.1,33.89075720223212,
8,0,8,0,1,0,1,0,,,,,,,,1.8092158598718668,frequency,140.0,-0.2065920924653451,0.000575329516778855,0,68,[],0.019286199938505888,None,['space'],310.2407792999875,310.2407792999875,0.21909709996543825,2.0283129598373053,310.45113679999486,310.2407792999875,[-2.0520117001142353],,,,,,,,vqnuwy,001,fr,0,2022-05-10_10h19.17.781,Continuous,2022.1.1,33.89075720223212,
8,0,8,0,2,0,2,0,,,,,,,,2.736093656519465,frequency,157.0,-1.138461292313124,0.0003840450981156927,0,69,[],0.006044300040230155,None,['space'],312.2718245999422,312.2718245999422,0.20840190001763403,2.944495556537099,312.4973377001006,312.2718245999422,[-1.6526077999733388],,,,,,,,vqnuwy,001,fr,0,2022-05-10_10h19.17.781,Continuous,2022.1.1,33.89075720223212,
8,0,8,0,3,0,3,0,,,,,,,,2.1159809454107057,frequency,176.0,-0.9125625211206159,0.0003176593234217641,0,70,[],0.015459199901670218,0.2113562999293208,['space'],315.2315446001012,315.2315446001012,0.2113562999293208,2.3273372453400265,315.44589450000785,315.2315446001012,[-2.4517620999831706],,,,,,,,vqnuwy,001,fr,0,2022-05-10_10h19.17.781,Continuous,2022.1.1,33.89075720223212,
8,0,8,0,4,0,4,0,,,,,,,,2.6740900456391055,frequency,198.0,-1.9256771930486223,0.00021849573572073873,0,71,[],0.01922319969162345,None,['space'],317.5591967999935,317.5591967999935,0.22094589960761368,2.895035945246719,317.7814674000256,317.5591967999935,[-1.9471910998690873],,,,,,,,vqnuwy,001,fr,0,2022-05-10_10h19.17.781,Continuous,2022.1.1,33.89075720223212,
8,0,8,0,5,0,5,0,,,,,,,,1.8421390060178298,frequency,222.0,-0.27834810879800664,0.0002153278856393379,0,72,[],0.019006500020623207,None,['space'],320.4531648999546,320.4531648999546,0.21951110009104013,2.06165010610887,320.6606350999791,320.4531648999546,[-2.408890400081873],,,,,,,,vqnuwy,001,fr,0,2022-05-10_10h19.17.781,Continuous,2022.1.1,33.89075720223212,
8,0,8,0,6,0,6,0,,,,,,,,1.0859638622653225,frequency,249.0,0.11494277530314223,0.00017169908315453622,0,73,[],0.006936300080269575,None,['space'],322.5123370999936,322.5123370999936,0.21411729999817908,1.3000811622635016,322.73524600011297,322.5123370999936,[-1.6038427001331002],,,,,,,,vqnuwy,001,fr,0,2022-05-10_10h19.17.781,Continuous,2022.1.1,33.89075720223212,
8,0,8,0,7,0,7,0,,,,,,,,2.794843499099251,frequency,279.0,0.6749997663268942,0.00014781163962328462,0,74,[],0.011190999997779727,0.19800420012325048,['space'],323.82260060007684,323.82260060007684,0.19800420012325048,2.9928476992225015,324.0280528999865,323.82260060007684,[-0.7700609001331031],,,,,,,,vqnuwy,001,fr,0,2022-05-10_10h19.17.781,Continuous,2022.1.1,33.89075720223212,
8,0,8,0,8,0,8,0,,,,,,,,2.2776969840887435,frequency,313.0,2.348707057682601,0.0001320192022973517,0,75,[],0.018111000070348382,None,None,326.82616170006804,326.82616170006804,0.22005140013061464,2.497748384219358,327.04607719997875,326.82616170006804,,,,,,,,,vqnuwy,001,fr,0,2022-05-10_10h19.17.781,Continuous,2022.1.1,33.89075720223212,
8,0,8,0,9,0,9,0,,,,,,,,1.472880192053302,frequency,351.0,2.588098199307122,0.00012026404492746533,0,76,[],0.019150800071656704,None,['space'],329.3215165999718,329.3215165999718,0.22141700005158782,1.6942971921048897,329.5319111000281,329.3215165999718,[-1.96543679991737],,,,,,,,vqnuwy,001,fr,0,2022-05-10_10h19.17.781,Continuous,2022.1.1,33.89075720223212,
8,0,8,0,10,0,10,0,,,,,,,,1.9688973814693012,frequency,,,,1,76,[],0.01911409990862012,None,['space'],331.00590350013226,331.00590350013226,0.22334799985401332,2.1922453813233145,331.22240410000086,331.00590350013226,[-1.1856064000166953],,,,,,,,vqnuwy,001,fr,0,2022-05-10_10h19.17.781,Continuous,2022.1.1,33.89075720223212,
8,0,8,0,11,0,11,0,,,,,,,,2.4215683075409427,frequency,442.0,2.6903961474755276,0.00010142411930464689,0,77,[],0.020260399905964732,None,None,333.192576700123,333.192576700123,0.22360069979913533,2.645169007340078,333.3997540001292,333.192576700123,,,,,,,,,vqnuwy,001,fr,0,2022-05-10_10h19.17.781,Continuous,2022.1.1,33.89075720223212,
8,0,8,0,12,0,12,0,,,,,,,,2.601990863490722,frequency,496.0,-0.11643412222277405,7.069503959481741e-05,0,78,[],0.011779699940234423,0.20722700003534555,['space'],335.82777740014717,335.82777740014717,0.20722700003534555,2.8092178635260674,336.0404707000125,335.82777740014717,[-2.231104200007394],,,,,,,,vqnuwy,001,fr,0,2022-05-10_10h19.17.781,Continuous,2022.1.1,33.89075720223212,
8,0,8,0,13,0,13,0,,,,,,,,1.9953087045099245,frequency,557.0,-1.7651008117856828,5.1049425394349736e-05,0,79,[],0.012489399872720242,None,['space'],338.6467587000225,338.6467587000225,0.20820969995111227,2.203518404461037,338.8678683000617,338.6467587000225,[-2.394530300050974],,,,,,,,vqnuwy,001,fr,0,2022-05-10_10h19.17.781,Continuous,2022.1.1,33.89075720223212,
9,0,9,0,0,0,0,0,,,,,"[0.5833333333333334, 0.3333333333333333, 0.5833333333333334, 0.5833333333333334, 0.16666666666666666, 0.3333333333333333, 0.3333333333333333, 0.3333333333333333, 0.5833333333333334, 0.3333333333333333, 0.5833333333333334, 0.3333333333333333, 0.3333333333333333, 0.3333333333333333, 0.5833333333333334]",343.18812400009483,None,1.2656310426390227,none,750.0,-2.2606990355085146,3.132817185852313e-05,0,56,[],0.023904399946331978,None,None,344.21018079994246,None,0.22660489985719323,1.492235942496216,344.4264847000595,None,,340.858273900114,None,,,,,,vqnuwy,001,fr,0,2022-05-10_10h19.17.781,Continuous,2022.1.1,33.89075720223212,
9,0,9,0,1,0,1,0,,,,,,,,1.7272599610622825,none,2379.0,-2.0018604158864743,6.608442180314578e-05,0,57,[],0.0185954999178648,None,['space'],345.6888868000824,345.6888868000824,0.21959339990280569,1.9468533609650882,345.9085272999946,345.6888868000824,[-0.6206042999401689],,,,,,,,vqnuwy,001,fr,0,2022-05-10_10h19.17.781,Continuous,2022.1.1,33.89075720223212,
9,0,9,0,2,0,2,0,,,,,,,,1.1881262925999385,none,5657.0,-3.0,9.098399673152325e-05,0,58,[],0.017216299893334508,None,['space'],347.6309957001358,347.6309957001358,0.21629430004395545,1.404420592643894,347.8480478001293,347.6309957001358,[-1.2990906999912113],,,,,,,,vqnuwy,001,fr,0,2022-05-10_10h19.17.781,Continuous,2022.1.1,33.89075720223212,
9,0,9,0,3,0,3,0,,,,,,,,2.4353662590890233,none,1123.0,-2.9925050805849795,3.4859002423284656e-05,0,59,[],0.011660299962386489,None,['space'],349.04243510006927,349.04243510006927,0.208727499935776,2.6440937590247993,349.2561492000241,349.04243510006927,[-0.9175714000593871],,,,,,,,vqnuwy,001,fr,0,2022-05-10_10h19.17.781,Continuous,2022.1.1,33.89075720223212,
9,0,9,0,4,0,4,0,,,,,,,,2.9951932204614478,none,1682.0,-0.9916133015659623,5.393092609455677e-05,0,60,[],0.01883639977313578,None,None,351.6952339001,351.6952339001,0.2210385997314006,3.2162318201928484,351.9141359999776,351.6952339001,,,,,,,,,vqnuwy,001,fr,0,2022-05-10_10h19.17.781,Continuous,2022.1.1,33.89075720223212,
9,0,9,0,5,0,5,0,,,,,,,,2.3266698351241204,none,595.0,-2.522815129118289,4.235111717066593e-05,0,61,[],0.01478650001809001,0.2112458001356572,None,354.90646850015037,354.90646850015037,0.2112458001356572,2.5379156352597776,355.1216216001194,354.90646850015037,,,,,,,,,vqnuwy,001,fr,0,2022-05-10_10h19.17.781,Continuous,2022.1.1,33.89075720223212,
9,0,9,0,6,0,6,0,,,,,,,,2.153128377566316,none,3776.0,-3.159390315245597,5.561146582895346e-05,0,62,[],0.015107299899682403,None,['space'],357.445322799962,357.445322799962,0.2091273998375982,2.3622557774039143,357.6570357999299,357.445322799962,[-2.0570841000881046],,,,,,,,vqnuwy,001,fr,0,2022-05-10_10h19.17.781,Continuous,2022.1.1,33.89075720223212,
9,0,9,0,7,0,7,0,,,,,,,,1.1724543283203348,none,7127.0,-2.31344933145617,0.00011881547657674463,0,63,[],0.014286200050264597,None,['space'],359.8129527999554,359.8129527999554,0.20990690006874502,1.3823612283890798,360.0280728000216,359.8129527999554,[-1.945076100062579],,,,,,,,vqnuwy,001,fr,0,2022-05-10_10h19.17.781,Continuous,2022.1.1,33.89075720223212,
9,0,9,0,8,0,8,0,,,,,,,,2.550378364080092,none,2997.0,-1.902157873240399,4.419126427655531e-05,0,64,[],0.018554700072854757,None,['space'],361.20601120009087,361.20601120009087,0.22157640010118484,2.771954764181277,361.4196105999872,361.20601120009087,[-0.8903032999951392],,,,,,,,vqnuwy,001,fr,0,2022-05-10_10h19.17.781,Continuous,2022.1.1,33.89075720223212,
9,0,9,0,9,0,9,0,,,,,,,,1.7048476674128883,none,1888.0,-0.04622665752534205,6.938438415633264e-05,0,65,[],0.014936299994587898,0.20884420000948012,None,363.96859199996106,363.96859199996106,0.20884420000948012,1.9136918674223684,364.1807002001442,363.96859199996106,,,,,,,,,vqnuwy,001,fr,0,2022-05-10_10h19.17.781,Continuous,2022.1.1,33.89075720223212,
9,0,9,0,10,0,10,0,,,,,,,,2.172946289442712,none,,,,1,65,[],0.015661299927160144,None,['space'],365.88393780007027,365.88393780007027,0.21095189987681806,2.38389818931953,366.0966090001166,365.88393780007027,[-1.4882608000189066],,,,,,,,vqnuwy,001,fr,0,2022-05-10_10h19.17.781,Continuous,2022.1.1,33.89075720223212,
10,0,10,0,0,0,0,0,,,,,"[0.3333333333333333, 0.3333333333333333, 0.16666666666666666, 0.3333333333333333, 0.5833333333333334, 0.5833333333333334, 0.3333333333333333, 0.3333333333333333, 0.16666666666666666, 0.5833333333333334, 0.16666666666666666, 0.5833333333333334, 0.5833333333333334, 0.5833333333333334, 0.5833333333333334]",371.2542693000287,None,1.7688585281518665,none,,,,1,65,[],0.024500299943611026,None,None,372.26464750012383,None,0.22805979987606406,1.9969183280279306,372.47813230007887,None,,368.2712954999879,None,,,,,,vqnuwy,001,fr,0,2022-05-10_10h19.17.781,Continuous,2022.1.1,33.89075720223212,
10,0,10,0,1,0,1,0,,,,,,,,1.2244127617196379,none,445.0,-3.3307838493905404,5.0604206888016855e-05,0,66,[],0.01503979996778071,0.20748089998960495,None,374.24848040007055,374.24848040007055,0.20748089998960495,1.4318936617092428,374.45813310006633,374.24848040007055,,,,,,,,,vqnuwy,001,fr,0,2022-05-10_10h19.17.781,Continuous,2022.1.1,33.89075720223212,
10,0,10,0,2,0,2,0,,,,,,,,1.7460094779322008,none,125.0,-2.0648708795990633,0.0005698052683503213,0,67,[],0.011230699950829148,None,None,375.68751620012335,375.68751620012335,0.20850349985994399,1.9545129777921448,375.9012677001301,375.68751620012335,,,,,,,,,vqnuwy,001,fr,0,2022-05-10_10h19.17.781,Continuous,2022.1.1,33.89075720223212,
10,0,10,0,3,0,3,0,,,,,,,,2.6384078301942813,none,158.0,-1.2763456234714528,0.00037031052881350785,0,68,[],0.017321899998933077,None,['space'],377.6566053000279,377.6566053000279,0.2335793999955058,2.871987230189787,377.87835970008746,377.6566053000279,[-1.4375758999958634],,,,,,,,vqnuwy,001,fr,0,2022-05-10_10h19.17.781,Continuous,2022.1.1,33.89075720223212,
10,0,10,0,4,0,4,0,,,,,,,,2.8699659722909736,none,177.0,-7.0,0.00015598535263850952,0,69,[],0.017344800056889653,None,['space'],380.5168252000585,380.5168252000585,0.2343995999544859,3.1043655722454595,380.7321081000846,380.5168252000585,[-2.3937872999813408],,,,,,,,vqnuwy,001,fr,0,2022-05-10_10h19.17.781,Continuous,2022.1.1,33.89075720223212,
10,0,10,0,5,0,5,0,,,,,,,,1.9824461749942155,none,1497.0,-5.897633360109599,2.4533385409903326e-05,0,70,[],0.0171507999766618,None,None,383.60381380002946,383.60381380002946,0.22575510013848543,2.208201275132701,383.81899930001236,383.60381380002946,,,,,,,,,vqnuwy,001,fr,0,2022-05-10_10h19.17.781,Continuous,2022.1.1,33.89075720223212,
10,0,10,0,6,0,6,0,,,,,,,,2.958380167229509,none,297.0,-1.7288430583245558,9.644933737918169e-05,0,71,[],0.016668600030243397,None,None,385.8055851000827,385.8055851000827,0.21945500001311302,3.177835167242622,386.02524670003913,385.8055851000827,,,,,,,,,vqnuwy,001,fr,0,2022-05-10_10h19.17.781,Continuous,2022.1.1,33.89075720223212,
10,0,10,0,7,0,7,0,,,,,,,,1.4021556745454908,none,999.0,-1.3830558537487674,3.754368714604887e-05,0,72,[],0.01438220008276403,None,None,388.9787697000429,388.9787697000429,0.21307500009424984,1.6152306746397407,389.19502880005166,388.9787697000429,,,,,,,,,vqnuwy,001,fr,0,2022-05-10_10h19.17.781,Continuous,2022.1.1,33.89075720223212,
10,0,10,0,8,0,8,0,,,,,,,,2.2403242494434497,none,265.0,-4.042442178017654,9.518159653906544e-05,0,73,[],0.01803699997253716,None,['space'],390.6037149000913,390.6037149000913,0.21835810015909374,2.4586823496025434,390.8206327999942,390.6037149000913,[-1.1836882999632508],,,,,,,,vqnuwy,001,fr,0,2022-05-10_10h19.17.781,Continuous,2022.1.1,33.89075720223212,
11,0,11,0,0,0,0,0,,,,,"[0.16666666666666666, 0.5833333333333334, 0.16666666666666666, 0.16666666666666666, 0.16666666666666666, 0.3333333333333333, 0.5833333333333334, 0.5833333333333334, 0.3333333333333333, 0.3333333333333333, 0.3333333333333333, 0.3333333333333333, 0.16666666666666666, 0.5833333333333334, 0.16666666666666666]",395.3595476001501,None,1.766932349783622,time,1516.0,0.3085246731680584,5.1449650376078766e-05,0,37,[],0.023695399751886725,None,None,396.36914160009474,None,0.2300023997668177,1.9969347495504397,396.5922348999884,None,,393.06146290013567,None,,,,,,vqnuwy,001,fr,0,2022-05-10_10h19.17.781,Continuous,2022.1.1,33.89075720223212,
11,0,11,0,1,0,1,0,,,,,,,,1.766932349783622,time,6805.0,-1.9065564853385135,0.00011667687983005417,0,38,[],0.013691799947991967,0.20698020001873374,None,398.35392559994943,398.35392559994943,0.20698020001873374,1.9739125498023558,398.5667149000801,398.35392559994943,,,,,,,,,vqnuwy,001,fr,0,2022-05-10_10h19.17.781,Continuous,2022.1.1,33.89075720223212,
11,0,11,0,2,0,2,0,,,,,,,,1.766932349783622,time,568.0,-1.281539943719797,5.2491436251916044e-05,0,39,[],0.017977300100028515,None,['space'],400.3358523999341,400.3358523999341,0.21950120013207197,1.986433549915694,400.54387290007435,400.3358523999341,[-1.4283427998889238],,,,,,,,vqnuwy,001,fr,0,2022-05-10_10h19.17.781,Continuous,2022.1.1,33.89075720223212,
11,0,11,0,3,0,3,0,,,,,,,,1.766932349783622,time,955.0,-1.701728735811188,3.516316442522731e-05,0,40,[],0.01000540005043149,None,['space'],402.3160256999545,402.3160256999545,0.20710469991900027,1.9740370497026223,402.52857650001533,402.3160256999545,[-1.5518175000324845],,,,,,,,vqnuwy,001,fr,0,2022-05-10_10h19.17.781,Continuous,2022.1.1,33.89075720223212,
11,0,11,0,4,0,4,0,,,,,,,,1.766932349783622,time,4287.0,-1.0,9.24115649106846e-05,0,41,[],0.01786960009485483,None,['space'],404.30549359996803,404.30549359996803,0.22355690016411245,1.9904892499477345,404.5178974000737,404.30549359996803,[-1.526570799993351],,,,,,,,vqnuwy,001,fr,0,2022-05-10_10h19.17.781,Continuous,2022.1.1,33.89075720223212,
11,0,11,0,5,0,5,0,,,,,,,,1.766932349783622,time,1203.0,-0.38916007442212186,5.024117099952099e-05,0,42,[],0.01387219992466271,None,['space'],406.2821595999412,406.2821595999412,0.20565790007822216,1.9725902498618442,406.49636710016057,406.2821595999412,[-1.582452200120315],,,,,,,,vqnuwy,001,fr,0,2022-05-10_10h19.17.781,Continuous,2022.1.1,33.89075720223212,
11,0,11,0,6,0,6,0,,,,,,,,1.766932349783622,time,2271.0,-0.6032151210314858,7.539687189950525e-05,0,43,[],0.013435600092634559,0.2086986000649631,None,408.26346629997715,408.26346629997715,0.2086986000649631,1.9756309498485851,408.4772851001471,408.26346629997715,,,,,,,,,vqnuwy,001,fr,0,2022-05-10_10h19.17.781,Continuous,2022.1.1,33.89075720223212,
11,0,11,0,7,0,7,0,,,,,,,,1.766932349783622,time,851.0,-1.0859292394840203,3.513811770010047e-05,0,44,[],0.017658299999311566,None,None,410.2457145000808,410.2457145000808,0.21878240001387894,1.985714749797501,410.4519329001196,410.2457145000808,,,,,,,,,vqnuwy,001,fr,0,2022-05-10_10h19.17.781,Continuous,2022.1.1,33.89075720223212,
11,0,11,0,8,0,8,0,,,,,,,,1.766932349783622,time,5401.0,-1.4312615105587656,0.00011699999969407818,0,45,[],0.013658800162374973,None,['space'],412.22146599995904,412.22146599995904,0.2063641999848187,1.9732965497684407,412.437229400035,412.22146599995904,[-1.5536785000003874],,,,,,,,vqnuwy,001,fr,0,2022-05-10_10h19.17.781,Continuous,2022.1.1,33.89075720223212,
11,0,11,0,9,0,9,0,,,,,,,,1.766932349783622,time,1072.0,-0.9957527924268741,4.196634669223594e-05,0,46,[],0.012965500121936202,0.20810870011337101,['space'],414.2041555000469,414.2041555000469,0.20810870011337101,1.975041049896993,414.42305780015886,414.2041555000469,[-1.519906299887225],,,,,,,,vqnuwy,001,fr,0,2022-05-10_10h19.17.781,Continuous,2022.1.1,33.89075720223212,
11,0,11,0,10,0,10,0,,,,,,,,1.766932349783622,time,,,,1,46,[],0.017159400042146444,None,None,416.18794329999946,416.18794329999946,0.22669559996575117,1.9936279497493732,416.4015331999399,416.18794329999946,,,,,,,,,vqnuwy,001,fr,0,2022-05-10_10h19.17.781,Continuous,2022.1.1,33.89075720223212,
12,0,12,0,0,0,0,0,,,,,"[0.16666666666666666, 0.16666666666666666, 0.3333333333333333, 0.16666666666666666, 0.16666666666666666, 0.5833333333333334, 0.16666666666666666, 0.5833333333333334, 0.5833333333333334, 0.16666666666666666, 0.16666666666666666, 0.5833333333333334, 0.16666666666666666, 0.3333333333333333, 0.16666666666666666]",427.57369760004804,None,2.5932252567315572,none,189.0,-11.0,8.610271897048978e-05,0,74,[],0.024704100098460913,None,None,428.5819020001218,None,0.2473492999561131,2.8405745566876703,428.80223110015504,None,,418.15835770010017,None,,,,,,vqnuwy,001,fr,0,2022-05-10_10h19.17.781,Continuous,2022.1.1,33.89075720223212,
12,0,12,0,1,0,1,0,,,,,,,,1.7844912863576976,none,505.0,-5.93674302081502,3.567511192622604e-05,0,75,[],0.013691900065168738,0.21097310003824532,None,431.39112289994955,431.39112289994955,0.21097310003824532,1.995464386395943,431.60201280005276,431.39112289994955,,,,,,,,,vqnuwy,001,fr,0,2022-05-10_10h19.17.781,Continuous,2022.1.1,33.89075720223212,
12,0,12,0,2,0,2,0,,,,,,,,2.8079406560093156,none,126.0,-10.009610667002379,0.0002254791534365538,0,76,[],0.014988499926403165,None,['space'],433.38842980004847,433.38842980004847,0.21183039993047714,3.019771055939793,433.6038784000557,433.38842980004847,[-1.520688699791208],,,,,,,,vqnuwy,001,fr,0,2022-05-10_10h19.17.781,Continuous,2022.1.1,33.89075720223212,
12,0,12,0,3,0,3,0,,,,,,,,1.3350270397376605,none,567.0,-7.278767587735182,2.638391793740317e-05,0,77,[],0.013569100061431527,0.20666859997436404,None,436.41158820013516,436.41158820013516,0.20666859997436404,1.5416956397120245,436.62522080005147,436.41158820013516,,,,,,,,,vqnuwy,001,fr,0,2022-05-10_10h19.17.781,Continuous,2022.1.1,33.89075720223212,
12,0,12,0,4,0,4,0,,,,,,,,2.6061067116546583,none,,,,1,77,[],0.015147799858823419,None,None,437.9605378000997,437.9605378000997,0.21521839988417923,2.8213251115388376,438.1756772000808,437.9605378000997,,,,,,,,,vqnuwy,001,fr,0,2022-05-10_10h19.17.781,Continuous,2022.1.1,33.89075720223212,
12,0,12,0,5,0,5,0,,,,,,,,1.9370306432734137,none,357.0,-9.16198897648469,3.054830309796537e-05,0,78,[],0.014392799930647016,0.20970980008132756,None,440.78028740012087,440.78028740012087,0.20970980008132756,2.1467404433547412,440.9949567001313,440.78028740012087,,,,,,,,,vqnuwy,001,fr,0,2022-05-10_10h19.17.781,Continuous,2022.1.1,33.89075720223212,
12,0,12,0,6,0,6,0,,,,,,,,1.3934310828581664,none,212.0,-4.145353654337446,0.000150115496829288,0,79,[],0.013389899861067533,0.20874669984914362,None,442.93338020006195,442.93338020006195,0.20874669984914362,1.60217778270731,443.1490083001554,442.93338020006195,,,,,,,,,vqnuwy,001,fr,0,2022-05-10_10h19.17.781,Continuous,2022.1.1,33.89075720223212,
12,0,12,0,7,0,7,0,,,,,,,,1.1974829609878497,none,401.0,-1.54956133681855,6.400324121422111e-05,0,80,[],0.014011299703270197,0.20749029982835054,['space'],444.53667409997433,444.53667409997433,0.20749029982835054,1.4049732608162002,444.74833450000733,444.53667409997433,[-1.1007532000076026],,,,,,,,vqnuwy,001,fr,0,2022-05-10_10h19.17.781,Continuous,2022.1.1,33.89075720223212,
13,0,13,0,0,0,0,0,,,,,"[0.3333333333333333, 0.5833333333333334, 0.5833333333333334, 0.5833333333333334, 0.16666666666666666, 0.5833333333333334, 0.16666666666666666, 0.5833333333333334, 0.16666666666666666, 0.3333333333333333, 0.5833333333333334, 0.3333333333333333, 0.16666666666666666, 0.5833333333333334, 0.5833333333333334]",448.2759332000278,None,2.100660842210469,time,595.0,-0.5852169460678733,5.293522704148789e-05,0,47,[],0.02479900000616908,None,None,449.3068097999785,None,0.21547150006517768,2.3161323422756466,449.5091457001399,None,,445.94215310015716,None,,,,,,vqnuwy,001,fr,0,2022-05-10_10h19.17.781,Continuous,2022.1.1,33.89075720223212,
13,0,13,0,1,0,1,0,,,,,,,,2.100660842210469,time,891.0,0.8141065650405555,4.497866469454148e-05,0,48,[],0.013293299823999405,0.2058269998524338,['space'],451.6128124999814,451.6128124999814,0.2058269998524338,2.3064878420629027,451.823490699986,451.6128124999814,[-1.7126706999260932],,,,,,,,vqnuwy,001,fr,0,2022-05-10_10h19.17.781,Continuous,2022.1.1,33.89075720223212,
13,0,13,0,2,0,2,0,,,,,,,,2.100660842210469,time,1000.0,-0.5376784199650885,4.1408174357166347e-05,0,49,[],0.013829899951815605,None,['space'],453.92653890000656,453.92653890000656,0.21083329990506172,2.3114941421155306,454.1420485000126,453.92653890000656,[-1.8674042001366615],,,,,,,,vqnuwy,001,fr,0,2022-05-10_10h19.17.781,Continuous,2022.1.1,33.89075720223212,
13,0,13,0,3,0,3,0,,,,,,,,2.100660842210469,time,,,,1,49,[],0.013587899738922715,0.2073724998626858,['space'],456.24622460012324,456.24622460012324,0.2073724998626858,2.3080333420731547,456.459842100041,456.24622460012324,[-1.8505553000140935],,,,,,,,vqnuwy,001,fr,0,2022-05-10_10h19.17.781,Continuous,2022.1.1,33.89075720223212,
13,0,13,0,4,0,4,0,,,,,,,,2.100660842210469,time,2828.0,1.0,7.35062441895302e-05,0,50,[],0.016925500007346272,None,None,458.5647841999307,458.5647841999307,0.21538390009664,2.316044742307109,458.7799289000686,458.5647841999307,,,,,,,,,vqnuwy,001,fr,0,2022-05-10_10h19.17.781,Continuous,2022.1.1,33.89075720223212,
13,0,13,0,5,0,5,0,,,,,,,,2.100660842210469,time,1681.0,1.1742528117337678,6.915230854807564e-05,0,51,[],0.013283899985253811,None,['space'],460.8846253999509,460.8846253999509,0.20830329996533692,2.308964142175806,461.1009398000315,460.8846253999509,[-1.9605378999840468],,,,,,,,vqnuwy,001,fr,0,2022-05-10_10h19.17.781,Continuous,2022.1.1,33.89075720223212,
13,0,13,0,6,0,6,0,,,,,,,,2.100660842210469,time,2519.0,1.3801149134724313,9.930349483913097e-05,0,52,[],0.012733400100842118,None,['space'],463.20549120008945,463.20549120008945,0.20791830006055534,2.3085791422710242,463.419882300077,463.20549120008945,[-1.8012926999945194],,,,,,,,vqnuwy,001,fr,0,2022-05-10_10h19.17.781,Continuous,2022.1.1,33.89075720223212,
13,0,13,0,7,0,7,0,,,,,,,,2.100660842210469,time,397.0,0.870907498724724,8.548922037935896e-05,0,53,[],0.012848099926486611,None,['space'],465.52657550014555,465.52657550014555,0.21126609994098544,2.3119269421514543,465.7405012999661,465.52657550014555,[-1.8182546999305487],,,,,,,,vqnuwy,001,fr,0,2022-05-10_10h19.17.781,Continuous,2022.1.1,33.89075720223212,
13,0,13,0,8,0,8,0,,,,,,,,2.100660842210469,time,265.0,-0.3737156255124791,0.00014520758843121218,0,54,[],0.013169099809601903,None,['space'],467.8442554001231,467.8442554001231,0.20749399974010885,2.3081548419505777,468.06212619994767,467.8442554001231,[-1.815667700022459],,,,,,,,vqnuwy,001,fr,0,2022-05-10_10h19.17.781,Continuous,2022.1.1,33.89075720223212,
13,0,13,0,9,0,9,0,,,,,,,,2.100660842210469,time,6725.0,-1.6957579041990245,0.00011754825638995489,0,55,[],0.013319200137630105,None,None,470.1665382999927,470.1665382999927,0.20678770006634295,2.307448542276812,470.3815952001605,470.1665382999927,,,,,,,,,vqnuwy,001,fr,0,2022-05-10_10h19.17.781,Continuous,2022.1.1,33.89075720223212,
13,0,13,0,10,0,10,0,,,,,,,,2.100660842210469,time,3563.0,-2.2969919824795975,5.854620948410036e-05,0,56,[],0.012907399795949459,None,None,472.48551609995775,472.48551609995775,0.2126204997766763,2.313281341987145,472.70237800013274,472.48551609995775,,,,,,,,,vqnuwy,001,fr,0,2022-05-10_10h19.17.781,Continuous,2022.1.1,33.89075720223212,
13,0,13,0,11,0,11,0,,,,,,,,2.100660842210469,time,7549.0,-0.7433310842165839,0.00015409967839663508,0,57,[],0.009972400031983852,0.2070311000570655,['space'],474.8085980999749,474.8085980999749,0.2070311000570655,2.3076919422675344,475.01559130009264,474.8085980999749,[-1.9335839999839664],,,,,,,,vqnuwy,001,fr,0,2022-05-10_10h19.17.781,Continuous,2022.1.1,33.89075720223212,
13,0,13,0,12,0,12,0,,,,,,,,2.100660842210469,time,1498.0,1.04019957286694,5.450372620400893e-05,0,58,[],0.012076199986040592,None,None,477.12105299998075,477.12105299998075,0.20601449999958277,2.3066753422100517,477.33523470000364,477.12105299998075,,,,,,,,,vqnuwy,001,fr,0,2022-05-10_10h19.17.781,Continuous,2022.1.1,33.89075720223212,
14,0,14,0,0,0,0,0,,,,,"[0.5833333333333334, 0.5833333333333334, 0.16666666666666666, 0.16666666666666666, 0.5833333333333334, 0.16666666666666666, 0.5833333333333334, 0.16666666666666666, 0.16666666666666666, 0.5833333333333334, 0.5833333333333334, 0.16666666666666666, 0.5833333333333334, 0.16666666666666666, 0.5833333333333334]",487.22949740011245,None,1.4888558001995735,none,2000.0,-1.429857496726202,6.345664830225542e-05,0,81,[],0.024902199860662222,None,None,488.25720590003766,None,0.22955420007929206,1.7184100002788656,488.46799649996683,None,,479.43960279994644,None,,,,,,vqnuwy,001,fr,0,2022-05-10_10h19.17.781,Continuous,2022.1.1,33.89075720223212,
14,0,14,0,1,0,1,0,,,,,,,,2.2687458856279448,none,3775.0,-3.2346798704712567,5.51194110273541e-05,0,82,[],0.014190900139510632,None,['space'],489.96378899994306,489.96378899994306,0.20981530006974936,2.478561185697694,490.17488860012963,489.96378899994306,[-1.1040865001268685],,,,,,,,vqnuwy,001,fr,0,2022-05-10_10h19.17.781,Continuous,2022.1.1,33.89075720223212,
14,0,14,0,2,0,2,0,,,,,,,,1.8186185847702852,none,4237.0,-3.154141445588292,6.972124426167242e-05,0,83,[],0.01493040006607771,0.21370909991674125,['space'],492.45009079994634,492.45009079994634,0.21370909991674125,2.0323276846870266,492.6562068001367,492.45009079994634,[-2.0232106000185013],,,,,,,,vqnuwy,001,fr,0,2022-05-10_10h19.17.781,Continuous,2022.1.1,33.89075720223212,
14,0,14,0,3,0,3,0,,,,,,,,2.1453082917434028,none,2520.0,-1.911028603643683,6.793423055686813e-05,0,84,[],0.015498799970373511,None,['space'],494.4839294999838,494.4839294999838,0.21688379999250174,2.3621920917359045,494.69657599995844,494.4839294999838,[-1.6557539999485016],,,,,,,,vqnuwy,001,fr,0,2022-05-10_10h19.17.781,Continuous,2022.1.1,33.89075720223212,
14,0,14,0,4,0,4,0,,,,,,,,2.2758122528590468,none,,,,1,84,[],0.0093578000087291,0.20320460014045238,['space'],496.8492344999686,496.8492344999686,0.20320460014045238,2.479016852999499,497.0597386001609,496.8492344999686,[-1.845087300054729],,,,,,,,vqnuwy,001,fr,0,2022-05-10_10h19.17.781,Continuous,2022.1.1,33.89075720223212,
14,0,14,0,5,0,5,0,,,,,,,,1.195783321895474,none,1335.0,-0.9994151203520647,4.670376096314834e-05,0,85,[],0.017054999945685267,None,None,499.33909999998286,499.33909999998286,0.21861129999160767,1.4143946218870818,499.5459233999718,499.33909999998286,,,,,,,,,vqnuwy,001,fr,0,2022-05-10_10h19.17.781,Continuous,2022.1.1,33.89075720223212,
14,0,14,0,6,0,6,0,,,,,,,,1.8835767017000231,none,6349.0,-2.8752507490780275,9.443675101829869e-05,0,86,['none'],0.013162299990653992,None,None,500.7462281000335,500.7462281000335,0.2099605998955667,2.09353730159559,500.96458410006016,500.7462281000335,,,,,"{'estimation': [[125.0, -2.4096855524329834], [128.85869744688466, -3.0], [133.9716828170366, -3.7414170618821725], [135.79639736288644, -4.0], [142.89818410207204, -5.0], [143.5872943746293, -5.095247195494276], [151.19011512331952, -6.0], [153.89305166811442, -6.315352673065956], [161.86250240712505, -6.999999999999999], [164.93848884661162, -7.256248268735769], [176.77669529663666, -7.809938920891977], [189.46457081379947, -7.930714272539488], [203.0630990890585, -7.635777220610352], [217.6376408240306, -7.003524857923801], [217.70049242802466, -7.0], [233.25824788420132, -6.1635823685595845], [236.21775045533968, -6.0], [249.99999999999937, -5.263165255194438], [255.6785834799538, -5.0], [267.94336563407256, -4.44722517651552], [281.72294501089226, -4.0], [287.1745887492579, -3.8271424452441556], [307.78610333622805, -3.460267643696289], [329.87697769322244, -3.3298161987186763], [353.55339059327247, -3.3526125589171576], [378.929141627598, -3.392842550517998], [406.12619817811606, -3.29045105943357], [427.3993889637712, -3.0], [435.2752816480601, -2.895626011924355], [466.5164957684015, -2.1162605232646707], [469.75598534849337, -2.0], [498.0667115269911, -1.0], [499.9999999999975, -0.9330480822244488], [522.2053918808565, 0.0], [535.8867312681438, 0.5652985843349939], [546.1596254240981, 1.0], [569.6830327194762, 2.0], [574.3491774985143, 2.1950765486166266], [596.3106385929375, 3.0], [615.5722066724546, 3.69736494217329], [627.6914105765305, 4.0], [659.7539553864432, 4.787929085729809], [682.893454227331, 5.0], [707.1067811865431, 5.216929636524814], [734.6447445723251, 5.0], [757.8582832551941, 4.828791767917778], [794.7376515000967, 4.0], [812.2523963562301, 3.632601366828493], [831.6524787826291, 3.0], [863.8690513516315, 2.0], [870.5505632961181, 1.8059548668851861], [893.5965256547022, 1.0], [923.2550659665322, 0.0], [933.0329915368008, -0.3077295127056987], [956.0323245140166, -1.0], [990.0585344785327, -2.0], [999.9999999999926, -2.276379299885088], [1036.7687940609044, -3.0], [1071.773462536285, -3.670821514421694], [1121.115010411528, -4.0], [1148.698354997026, -4.182497210336509], [1178.915292284835, -4.0], [1231.1444133449063, -3.693165389687123], [1275.2511934815243, -3.0], [1319.5079107728832, -2.328904353275935], [1335.3146099718322, -2.0], [1383.9286796619958, -1.0], [1414.2135623730828, -0.41232182664024614], [1434.3412829117137, 0.0], [1483.73960681534, 1.0], [1515.7165665103846, 1.606210772273673], [1540.6598735461484, 2.0], [1605.737894649094, 3.0], [1624.5047927124563, 3.273376999632159], [1711.6698542621034, 4.0], [1741.101126592234, 4.236403726153297], [1866.065983073597, 4.32378455590824], [1921.1120386265977, 4.0], [1999.9999999999827, 3.556947212705263], [2054.4690949110186, 3.0], [2143.5469250725646, 2.1205412547422546], [2153.4798082955035, 2.0], [2235.8572397609837, 1.0], [2297.396709994046, 0.28353260551849113], [2321.1150316575186, 0.0], [2403.939178505141, -1.0], [2462.2888266898062, -1.6759903065241155], [2493.07168282374, -2.0], [2587.0765122767643, -3.0], [2639.01582154576, -3.5335075232200204], [2693.5630987668624, -4.0], [2810.7350522452994, -5.0], [2828.427124746159, -5.147335189260562], [2959.675734864155, -6.0], [3031.433133020758, -6.457559802223083], [3148.311558568493, -7.0], [3249.0095854249043, -7.458103702680604], [3427.1410736237162, -8.0], [3482.2022531844596, -8.164041407123236], [3732.1319661471844, -8.587216606178501], [3999.9999999999504, -8.726969791538554], [4287.093850145118, -8.58018473269097], [4594.793419988081, -8.152330584439952], [4668.0124369767, -8.0], [4924.577653379601, -7.480356582271999], [5122.539066413068, -7.0], [5278.031643091506, -6.636158057466828], [5537.924548312835, -6.0], [5656.854249492303, -5.72362297718607], [5992.126775435659, -5.0], [6062.866266041508, -4.85666857428815], [6498.019170849792, -4.136718460358926], [6617.192730867582, -4.0], [6964.404506368894, -3.62227755269701], [7464.2639322943505, -3.3297337076648352], [7999.999999999882, -3.2180853612181597]], 'plus_line': [[125.0, -6.799995194454378], [126.32984722007103, -7.0], [133.33524565554814, -8.0], [133.9716828170366, -8.086604305572234], [139.72101171761514, -9.0], [143.5872943746293, -9.576278748146063], [146.8084310259393, -10.0], [153.89305166811442, -10.893603754578262], [155.09149482229668, -11.0], [164.93848884661162, -11.851487670454473], [168.43995999394974, -12.0], [176.77669529663666, -12.356382985026553], [189.46457081379947, -12.395036020326017], [203.06309908905865, -12.009836116375414], [203.25575922778503, -12.0], [217.6376408240306, -11.334106968630728], [223.37533126031582, -11.0], [233.25824788420132, -10.460343079006899], [241.56674130608002, -10.0], [249.99999999999937, -9.55614387100617], [262.34838228388713, -9.0], [267.94336563407256, -8.761158579028276], [287.1745887492579, -8.173733156695224], [296.6627722734356, -8.0], [307.78610333622805, -7.816684713501026], [329.87697769322244, -7.670143582088239], [353.55339059327247, -7.652420995371829], [378.929141627598, -7.651789737105884], [406.12619817811606, -7.5216622347843405], [435.2752816480601, -7.101634888311146], [439.1114439433166, -7.0], [466.5164957684015, -6.325334853853746], [475.7996048537542, -6.0], [499.9999999999975, -5.167472016582252], [504.2539579897424, -5.0], [529.4705985756201, -4.0], [535.8867312681438, -3.7476800611815806], [555.2700908753526, -3.0], [574.3491774985143, -2.2375652196335176], [581.5154819617243, -2.0], [611.1119068547057, -1.0], [615.5722066724546, -0.8506639509658342], [652.5678056065473, 0.0], [659.7539553864432, 0.16213495643809261], [707.1067811865431, 0.5784035051374773], [757.8582832551941, 0.266069707622267], [770.7617989186325, 0.0], [812.2523963562301, -0.8057347676959078], [818.5039743319172, -1.0], [851.7126986121659, -2.0], [870.5505632961181, -2.506777408195564], [884.6919822008333, -3.0], [914.7584037145922, -4.0], [933.0329915368008, -4.5393435787712], [947.7987423229722, -5.0], [980.9836723068387, -6.0], [999.9999999999926, -6.516561186501864], [1022.7654898405764, -7.0], [1071.773462536285, -7.984177689625409], [1073.7889876644695, -8.0], [1148.698354997026, -8.60566495458118], [1231.1444133449063, -8.14735845528495], [1240.117881388178, -8.0], [1302.127416604546, -7.0], [1319.5079107728832, -6.72809117707213], [1354.0461110180645, -6.0], [1399.5243562402761, -5.0], [1414.2135623730828, -4.69334169603765], [1447.9363509041227, -4.0], [1494.16823486461, -3.0], [1515.7165665103846, -2.5552802765159557], [1550.5865101566005, -2.0], [1611.835449311705, -1.0], [1624.5047927124563, -0.8039643445315019], [1717.8722723733383, 0.0], [1741.1011265922318, 0.1909806066333155], [1866.065983073597, 0.28085757057175686], [1914.6184761956868, 0.0], [1999.9999999999777, -0.4930475310087507], [2048.3988482943623, -1.0], [2143.5469250725646, -1.9345889141465786], [2148.7174404788866, -2.0], [2225.9781802095968, -3.0], [2297.396709994046, -3.8215914083486], [2311.299296809921, -4.0], [2387.6198489791977, -5.0], [2462.2888266898062, -5.864248798777867], [2474.080948449611, -6.0], [2558.9417899102555, -7.0], [2639.015821545763, -7.841963665298769], [2655.7198414581217, -8.0], [2760.487673136175, -9.0], [2828.427124746159, -9.595301778134239], [2884.635110136429, -10.0], [3030.2733518641116, -11.0], [3031.4331330207656, -11.00782204023082], [3230.2409220666373, -12.0], [3249.0095854249043, -12.09115375119769], [3482.202253184451, -12.840763177293518], [3570.487353608422, -13.0], [3732.1319661471844, -13.301920868946992], [3999.9999999999504, -13.500394621542387], [4287.093850145118, -13.443404786101791], [4594.793419988081, -13.103258325945696], [4647.142836840166, -13.0], [4924.577653379601, -12.491662508188796], [5118.349235306277, -12.0], [5278.031643091506, -11.617955061585324], [5500.588332511417, -11.0], [5656.854249492303, -10.59163374967002], [5881.593411551585, -10.0], [6062.866266041508, -9.555731342782776], [6326.105998189438, -9.0], [6498.019170849792, -8.667169516457786], [6964.404506368894, -8.071944104132482], [7168.556315672458, -8.0], [7464.2639322943505, -7.905761230231129], [7639.168042184323, -8.0], [7999.999999999882, -8.220292705222198]], 'minus_line': [[125.0, 1.8708265931669237], [130.41348741438426, 1.0], [133.9716828170366, 0.4406555987164714], [137.29677900201264, 0.0], [143.5872943746293, -0.8431894071013514], [144.98604904848025, -1.0], [153.89305166811442, -1.996063424479929], [153.9377512885684, -2.0], [164.93848884661162, -2.927391988745614], [166.2843071963739, -3.0], [176.77669529663666, -3.516441257201735], [189.46457081379947, -3.6855229960725566], [203.0630990890585, -3.415443959476755], [212.7878711464148, -3.0], [217.6376408240306, -2.7894888080144327], [232.12803685829968, -2.0], [233.25824788420132, -1.9386767438422845], [249.99999999999937, -1.0056701436766218], [250.11586806727564, -1.0], [267.94336563407256, -0.13557944570937017], [271.8795925323087, 0.0], [287.1745887492579, 0.5322713854495857], [307.78610333622805, 0.8977805969278712], [329.87697769322244, 0.9927883849515179], [353.55339059327247, 0.9217832880302275], [378.929141627598, 0.8437740777243142], [406.12619817811657, 0.932032000217859], [410.90145865811854, 1.0], [435.2752816480601, 1.3605763872536987], [459.1332739324693, 2.0], [466.5164957684015, 2.1996241449769336], [486.83008215665865, 3.0], [499.9999999999975, 3.499583077004367], [510.5074966399498, 4.0], [532.2627626799613, 5.0], [535.8867312681438, 5.1616562079695765], [552.7880193553445, 6.0], [574.3491774985143, 6.990001375572336], [574.5891479264591, 6.999999999999999], [598.0252690419828, 8.0], [615.5722066724546, 8.695257351216211], [626.5532837466367, 9.0], [659.7539553864424, 9.89482985990221], [671.4440128904648, 10.0], [707.1067811865431, 10.329092506453199], [738.0466527813657, 10.0], [757.8582832551941, 9.81255212028457], [788.5573298139456, 9.0], [812.2523963562301, 8.399390897791996], [823.3833238439312, 8.0], [851.0353145124158, 7.0], [870.5505632961181, 6.3125445179875195], [879.1049080753123, 6.0], [905.831514808287, 5.0], [932.0975647846062, 4.0], [933.0329915368008, 3.9673243875382327], [964.9494902884711, 3.0], [996.2954437329429, 2.0], [999.9999999999926, 1.8897195936991171], [1046.2463498813968, 1.0], [1071.773462536285, 0.510255099229231], [1148.698354997026, 0.0661165902253178], [1231.1444133449063, 0.638191352031854], [1253.3249350778617, 1.0], [1317.73554515051, 2.0], [1319.5079107728832, 2.026793131527775], [1364.6432946012462, 3.0], [1414.2135623730828, 3.9405106617313854], [1417.0626103777981, 4.0], [1464.2131983722766, 5.0], [1515.7165665103846, 5.948298362723326], [1518.9297261714369, 6.000000000000001], [1581.0820500264215, 7.0], [1624.5047927124563, 7.62643172300335], [1669.0438062360074, 8.0], [1741.1011265922318, 8.588239112469559], [1866.065983073597, 8.643982188511385], [1967.2065258681932, 8.0], [1999.9999999999777, 7.806586586021535], [2076.4742736154985, 7.0], [2143.5469250725646, 6.293937306203385], [2167.911088638248, 6.0], [2248.82972579695, 5.0], [2297.396709994046, 4.400181256440893], [2332.227356014922, 4.0], [2415.2749086323784, 3.0], [2462.2888266898062, 2.4340520663053073], [2506.2279018727027, 2.0], [2602.468594943504, 1.0], [2639.0158215457564, 0.6240564267998572], [2717.8609610743756, 0.0], [2828.427124746159, -0.9142682680391513], [2842.5713858592026, -1.0], [3007.8677380954337, -2.0], [3031.4331330207615, -2.1413148260613015], [3227.829481024278, -3.0], [3249.0095854249043, -3.09005838771637], [3482.2022531844555, -3.7679755113732987], [3617.428228411205, -4.0], [3732.1319661471844, -4.179502805633623], [3999.9999999999504, -4.270859423175635], [4287.093850145118, -4.037990446474958], [4308.811728284539, -4.0], [4594.793419988081, -3.484321333332251], [4806.248692790675, -3.0], [4924.577653379601, -2.7253842522651994], [5222.083616467677, -2.0], [5278.031643091506, -1.864803662594932], [5656.854249492303, -1.016834132031541], [5665.561140340816, -1.0], [6062.866266041508, -0.25899655428601864], [6249.474639326175, 0.0], [6498.019170849792, 0.33951985295100484], [6964.4045063688845, 0.7942566146185778], [7214.788052223774, 1.0], [7464.2639322943505, 1.21707772037212], [7999.999999999872, 1.7317908562545246]]}",,,,vqnuwy,001,fr,0,2022-05-10_10h19.17.781,Continuous,2022.1.1,33.89075720223212,
14,0,14,0,7,0,7,0,,,,,,,,2.885933993517029,none,8000.0,-3.0,0.00012851978913844324,0,87,['none'],0.0073871000204235315,0.19989700010046363,None,502.8572116000578,502.8572116000578,0.19989700010046363,3.085830993617493,503.06609860016033,502.8572116000578,,,,,,,,,vqnuwy,001,fr,0,2022-05-10_10h19.17.781,Continuous,2022.1.1,33.89075720223212,
14,0,14,0,8,0,8,0,,,,,,,,1.2855981768750577,none,2245.0,1.8803185732967733,9.963726831658616e-05,0,88,['none'],0.008299499982967973,None,['space'],505.9598004000727,505.9598004000727,0.2035986997652799,1.4891968766403376,506.17612550011836,505.9598004000727,[-2.6201227998826653],,,,,,,,vqnuwy,001,fr,0,2022-05-10_10h19.17.781,Continuous,2022.1.1,33.89075720223212,
15,0,15,0,0,0,0,0,,,,,,510.69564329995774,None,1.340104445026925,frequency,3174.0,-3.860993117262001,4.452083044613072e-05,0,80,['none'],0.024601399898529053,None,None,511.7266424000263,None,0.24518009996972978,1.5852845449966548,511.94727250002325,None,,507.46832330012694,None,0.16666666666666666,,,,,vqnuwy,001,fr,0,2022-05-10_10h19.17.781,Continuous,2022.1.1,33.89075720223212,
15,0,15,0,1,0,1,0,,,,,,,,2.7615215658879952,frequency,3563.0,-4.039592298884461,4.790366775435457e-05,0,81,['none'],0.014210500055924058,0.21248520002700388,['space'],513.2885827000719,513.2885827000719,0.21248520002700388,2.974006765914999,513.5027503001038,513.2885827000719,[-0.8442879000212997],,,,,,,,vqnuwy,001,fr,0,2022-05-10_10h19.17.781,Continuous,2022.1.1,33.89075720223212,
15,0,15,0,2,0,2,0,,,,,,,,2.167438067443643,frequency,3999.0,-6.972634504185171,3.760516055480272e-05,0,82,['none'],0.01126340008340776,None,['space'],516.2619042000733,516.2619042000733,0.20516900019720197,2.372607067640845,516.4760545999743,516.2619042000733,[-2.5376031999476254],,,,,,,,vqnuwy,001,fr,0,2022-05-10_10h19.17.781,Continuous,2022.1.1,33.89075720223212,
15,0,15,0,3,0,3,0,,,,,,,,1.9412075833034297,frequency,4489.0,-4.885521845999444,6.70008788323693e-05,0,83,['none'],0.011758599895983934,None,['space'],518.6513225999661,518.6513225999661,0.2065453000832349,2.147752883386665,518.8657041001134,518.6513225999661,[-1.9834630000405014],,,,,,,,vqnuwy,001,fr,0,2022-05-10_10h19.17.781,Continuous,2022.1.1,33.89075720223212,
15,0,15,0,4,0,4,0,,,,,,,,2.070246194931543,frequency,5039.0,-3.718578803269497,9.861264405001782e-05,0,84,['none'],0.012035000137984753,None,['space'],520.8135532999877,520.8135532999877,0.20647990005090833,2.2767260949824513,521.0229849000461,520.8135532999877,[-1.7297481999266893],,,,,,,,vqnuwy,001,fr,0,2022-05-10_10h19.17.781,Continuous,2022.1.1,33.89075720223212,
15,0,15,0,5,0,5,0,,,,,,,,1.1626481309158947,frequency,5656.0,-4.037742821391951,8.076114463576771e-05,0,85,['none'],0.011242399923503399,None,['space'],523.1000088001601,523.1000088001601,0.2088155997917056,1.3714637307076003,523.3200451999437,523.1000088001601,[-1.8724250998347998],,,,,,,,vqnuwy,001,fr,0,2022-05-10_10h19.17.781,Continuous,2022.1.1,33.89075720223212,
15,0,15,0,6,0,6,0,,,,,,,,1.0319524531955746,frequency,,,,1,85,['none'],0.009812999982386827,None,['space'],524.4862858001143,524.4862858001143,0.20581970014609396,1.2377721533416686,524.7054165999871,524.4862858001143,[-0.8907677999231964],,,,,,,,vqnuwy,001,fr,0,2022-05-10_10h19.17.781,Continuous,2022.1.1,33.89075720223212,
15,0,15,0,7,0,7,0,,,,,,,,1.4865542473305147,frequency,7127.0,-5.704697142020288,8.041010399720527e-05,0,86,"['none', 'frequency']",0.012970600044354796,None,None,525.7411047001369,525.7411047001369,0.20474740001372993,1.6913016473442446,525.955849400023,525.7411047001369,,,,,,"{'estimation': [[125.0, 3.1859730953491425], [125.77946153988017, 3.0], [129.9611021695773, 2.0], [133.9716828170366, 1.1521828517329564], [134.66908200062707, 1.0], [139.04225887787067, 0.0], [143.5872943746293, -0.9665606799151714], [143.77204045937518, -1.0], [149.03502793285614, -2.0], [153.89305166811442, -2.8882024802494186], [154.73159654037974, -3.0], [162.0551722608649, -4.0], [164.93848884661162, -4.380130790192323], [173.12534016793452, -5.0], [176.77669529663666, -5.2756135457824245], [189.46457081379947, -5.531929361001446], [203.0630990890585, -5.20572432225182], [206.70592326601312, -5.0], [217.6376408240306, -4.42030265940051], [223.45685209815113, -4.0], [233.25824788420132, -3.328843643055584], [237.4919777522163, -3.0], [249.99999999999937, -2.0741358737754996], [250.98018900162694, -2.0], [264.645852180079, -1.0], [267.94336563407256, -0.7748918302434361], [279.6366347791031, 0.0], [287.1745887492579, 0.47150936951301003], [296.7416318126361, 1.0], [307.78610333622805, 1.5865878300559602], [317.92107073200185, 2.0], [329.87697769322244, 2.477656552845377], [352.44620828017383, 3.0], [353.55339059327247, 3.0259447239688235], [378.929141627598, 3.1272840348884534], [386.4858163517994, 3.0], [406.12619817811606, 2.690131698689064], [426.33011975229834, 2.0], [435.2752816480601, 1.7111211259269912], [450.4365910881508, 1.0], [466.5164957684015, 0.2824890801295096], [472.0819881382307, 0.0], [491.3302641515256, -1.0], [499.9999999999975, -1.4190366456767984], [512.2828448848873, -2.0], [533.1436147731491, -3.0], [535.8867312681438, -3.1243629280344964], [559.0431062912689, -4.0], [574.3491774985143, -4.569886855753791], [592.4806981637169, -5.0], [615.5722066724546, -5.547559450172498], [659.7539553864432, -5.946220706060709], [707.1067811865431, -5.791100903841993], [757.8582832551941, -5.19755796028917], [769.8407615394395, -5.0], [812.2523963562301, -4.328628786976314], [831.3030986487773, -4.0], [870.5505632961181, -3.35112594070452], [892.3385415786578, -3.0], [933.0329915368008, -2.3769395470067174], [959.2736498383607, -2.0], [999.9999999999926, -1.4452973731793106], [1034.3683933342502, -1.0], [1071.773462536285, -0.5344670225756024], [1115.1728609014608, 0.0], [1148.698354997026, 0.4055275444316069], [1197.2837990197775, 1.0], [1231.1444133449063, 1.4138735842675718], [1279.4857071848428, 2.0], [1319.5079107728832, 2.4868480454697437], [1364.5772851621116, 3.0], [1414.2135623730828, 3.564082123651045], [1459.4412043248622, 4.0], [1515.7165665103846, 4.536599583790332], [1584.0813539690694, 5.0], [1624.5047927124563, 5.270249634824765], [1741.1011265922318, 5.636242241170246], [1866.065983073597, 5.556363747958528], [1999.9999999999802, 5.002686175075738], [2000.368692611562, 5.0], [2143.5469250725646, 4.030019758266123], [2146.9515314771825, 4.0], [2264.7403017735287, 3.0], [2297.396709994046, 2.741596910152806], [2379.7468926689903, 2.0], [2462.2888266898062, 1.2901115060778787], [2496.753801094933, 1.0], [2616.3757743364417, 0.0], [2639.01582154576, -0.17936531152521526], [2753.5997862853474, -1.0], [2828.427124746159, -1.5168015196781888], [2914.175577844145, -2.0], [3031.4331330207615, -2.636794830118125], [3120.269264805458, -3.0], [3249.0095854249043, -3.5030717230449815], [3433.6263665713204, -4.0], [3482.2022531844555, -4.126981721670903], [3732.1319661471844, -4.559315470600061], [3999.9999999999504, -4.870563732071007], [4142.990705258634, -5.0], [4287.093850145118, -5.132522736308387], [4594.793419988081, -5.383724329243586], [4924.577653379601, -5.645908879237122], [5278.031643091506, -5.920092660112872], [5388.697108340436, -6.0], [5656.854249492303, -6.1894431964722365], [6062.866266041501, -6.41765258517356], [6498.019170849792, -6.576357175931916], [6964.404506368902, -6.6404691180026605], [7464.2639322943505, -6.590884790043248], [7999.999999999882, -6.417869104417557]], 'plus_line': [[125.0, 0.39833929596904655], [126.74683534362387, 0.0], [131.35436854376707, -1.0], [133.9716828170366, -1.4652114949775177], [136.24149877175594, -2.0], [140.48573904674038, -3.0000000000000004], [143.5872943746293, -3.5962669056619045], [145.57234140407962, -4.0], [150.31388953680508, -5.0], [153.89305166811442, -5.637659441566351], [156.3178495740561, -6.0], [163.07331000820736, -7.0], [164.93848884661162, -7.257266473897422], [173.85537575322078, -8.0], [176.77669529663666, -8.244652321479908], [189.46457081379947, -8.538192894281778], [203.0630990890585, -8.178400193671088], [205.91236976389752, -8.0], [217.6376408240306, -7.333756344845201], [221.89316497680417, -7.0], [233.25824788420132, -6.138844832671887], [234.92250506948542, -6.0], [247.14106906485972, -5.0], [249.99999999999937, -4.779366711479539], [259.96415315284935, -4.0], [267.94336563407256, -3.3849915618825794], [273.41403767706504, -3.0], [287.1745887492579, -2.02984755665847], [287.68532433223635, -2.0], [305.4657712232705, -1.0], [307.78610333622805, -0.8759485938730317], [329.49979088396213, 0.0], [329.87697769322244, 0.014483066605502137], [353.55339059327247, 0.5134537411153477], [378.929141627598, 0.5929559656118419], [406.12619817811606, 0.1844960126070294], [411.6499435409161, 0.0], [435.2752816480601, -0.7613098259074679], [440.3480060043507, -1.0], [462.20726067491677, -2.0], [466.5164957684015, -2.180147319408105], [481.2287127478594, -3.0], [499.9999999999975, -3.912427422031758], [501.74754202940795, -4.0], [520.0515986839742, -5.0], [535.8867312681438, -5.743265325305659], [542.0830221406524, -6.0], [565.6979189614611, -7.0], [574.3491774985137, -7.337350646600495], [599.2657451606475, -8.0], [615.5722066724546, -8.430139890974871], [659.7539553864432, -8.878822120096357], [707.1067811865431, -8.74731141495639], [757.8582832551941, -8.138149408147768], [765.7929452019672, -8.0], [812.2523963562301, -7.251429927715729], [825.9943631037441, -7.0], [870.5505632961192, -6.228432112993907], [883.6747252062553, -6.0], [933.0329915368008, -5.187679304762553], [945.0365941448156, -5.000000000000001], [999.9999999999926, -4.193634980632353], [1014.1573490997515, -4.0], [1071.773462536285, -3.260180451033661], [1093.1583760412018, -2.9999999999999996], [1148.698354997026, -2.355610358616898], [1179.8346615220373, -2.0], [1231.1444133449063, -1.428550275283743], [1269.6454953498712, -1.0], [1319.5079107728832, -0.45132034208627764], [1362.0789838670635, 0.0], [1414.2135623730828, 0.5446877824767684], [1463.5500695777264, 1.0], [1515.7165665103846, 1.4645112569685383], [1595.2492851030036, 2.0], [1624.5047927124563, 2.1843809867036565], [1741.101126592234, 2.554215632566252], [1866.065983073597, 2.5207793721520586], [1999.9999999999802, 2.063484698635703], [2009.755893784957, 2.0], [2143.5469250725646, 1.174376114098751], [2164.4335245595084, 1.0], [2292.0131670169735, 0.0], [2297.396709994046, -0.039671514105143545], [2402.0879898593703, -1.0], [2462.2888266898062, -1.4901203529502078], [2520.44035875977, -2.0], [2639.01582154576, -2.958505154576639], [2644.605191797052, -3.0], [2777.2977274743957, -4.0], [2828.427124746159, -4.351943194106065], [2941.852016059124, -5.0], [3031.4331330207615, -5.487974694807683], [3162.2173495925967, -6.0], [3249.0095854249043, -6.3383140826862565], [3482.2022531844555, -6.9297858114616595], [3520.962305280237, -7.0], [3732.1319661471844, -7.407018015950153], [3999.9999999999504, -7.791973712077387], [4166.127307617272, -8.0], [4287.093850145118, -8.170119314444705], [4594.793419988081, -8.54454576960439], [4924.577653379601, -8.881481669735848], [5057.8380933754215, -9.0], [5278.0316430915, -9.213196170268116], [5656.854249492303, -9.502694530246185], [6062.866266041508, -9.716542729795716], [6498.019170849792, -9.834020079103395], [6964.404506368894, -9.84646660483246], [7464.2639322943505, -9.783779782266453], [7999.999999999882, -9.717300768430249]], 'minus_line': [[125.0, 6.117766044145862], [125.48216444053072, 6.0], [129.4127211891409, 5.0], [133.07475776016975, 4.0], [133.9716828170366, 3.7938757671880943], [137.67544218970093, 3.0], [141.68218805143974, 2.0], [143.5872943746292, 1.5775620169811908], [146.93774101757342, 1.0], [152.0298298488837, 0.0], [153.89305166811442, -0.3385303747102584], [159.11629801081904, -1.0], [164.93848884661162, -1.7725568256166595], [167.9905134127265, -2.0], [176.77669529663666, -2.619035984344804], [189.46457081379947, -2.862735708976315], [203.0630990890585, -2.5290909746674703], [213.17988914263174, -2.0], [217.6376408240306, -1.7643055971034873], [228.71334006235622, -1.0], [233.25824788420132, -0.7003699586172493], [242.58692305154645, 0.0], [249.99999999999923, 0.5155812060871059], [256.6251659420571, 1.0], [267.94336563407256, 1.7666565557098812], [271.4597854302282, 2.0], [287.1745887492579, 2.9853061422504443], [287.43517066303, 3.0], [305.23749584084305, 4.0], [307.78610333622805, 4.136667085790194], [327.9873380311, 5.0], [329.87697769322244, 5.0817644464703235], [353.55339059327247, 5.712577555622531], [378.929141627598, 5.839151596927691], [406.12619817811606, 5.389328370874024], [416.38627240170484, 5.0], [435.2752816480601, 4.3251814760833796], [441.97529487041305, 4.0], [461.9599378452024, 3.0], [466.5164957684015, 2.788441504310979], [482.2831250313293, 2.0], [499.9999999999975, 1.0333861900073769], [500.75734938943816, 1.0], [522.7065543522333, 0.0], [535.8867312681438, -0.6302766191156666], [546.4888102776051, -1.0], [573.4453186688596, -2.0], [574.3491774985143, -2.0318677790572606], [615.5722066724546, -2.932686010764441], [623.4282233329287, -3.0], [659.7539553864432, -3.2731314075477584], [707.1067811865431, -3.08203405454847], [713.6363185256678, -3.0], [757.8582832551932, -2.42839126925256], [783.6530546931705, -2.0], [812.2523963562301, -1.523376180043937], [842.8800332938063, -1.0], [870.5505632961181, -0.5360644460672884], [905.3158617975661, 0.0], [933.0329915368008, 0.4166351510193702], [976.289480705787, 1.0], [999.9999999999926, 1.313597932759742], [1054.4757999447552, 2.0], [1071.773462536285, 2.2157127462559174], [1132.3693458393157, 3.0], [1148.698354997026, 3.209168578028436], [1206.5130884173002, 4.0], [1231.1444133449063, 4.330727804475671], [1279.6578017541424, 5.0], [1319.5079107728832, 5.537099975784935], [1355.7313858204004, 6.0], [1414.2135623730828, 6.7330496136064415], [1439.4978293545066, 7.000000000000001], [1515.7165665103846, 7.798449776886268], [1543.56562337841, 8.0], [1624.5047927124563, 8.596365824168338], [1741.1011265922298, 8.958456596706984], [1866.065983073597, 8.840803084656642], [1999.9999999999802, 8.198263044913487], [2024.5378390144197, 8.0], [2143.5469250725646, 7.090730567883007], [2153.237561989339, 7.0], [2262.362494368489, 6.0], [2297.396709994046, 5.692191902426655], [2372.7685499005424, 5.0], [2462.2888266898062, 4.152120069869457], [2480.431300494222, 4.0], [2597.8662688865534, 3.0], [2639.01582154576, 2.6564028754204867], [2731.463042350543, 2.0], [2828.427124746159, 1.3017651349179848], [2880.625263337614, 1.0], [3031.4331330207615, 0.1456367257924287], [3064.313914508109, 0.0], [3249.0095854249043, -0.7578241491629977], [3328.8683539864023, -1.0], [3482.2022531844555, -1.4142951804620356], [3732.1319661471844, -1.8440125751238283], [3890.7993609576047, -2.0], [3999.999999999946, -2.094179155204754], [4287.093850145114, -2.235531150725916], [4594.793419988081, -2.371352040332992], [4924.577653379601, -2.5509290369690802], [5278.031643091513, -2.7824109307489495], [5591.808327524794, -3.0000000000000004], [5656.854249492303, -3.0397431274230176], [6062.866266041508, -3.2609663857949056], [6498.019170849792, -3.4445484488757208], [6964.404506368894, -3.5520276937594852], [7464.2639322943505, -3.5127217470924323], [7999.999999999882, -3.2385795088435962]]}",,,vqnuwy,001,fr,0,2022-05-10_10h19.17.781,Continuous,2022.1.1,33.89075720223212,
15,0,15,0,8,0,8,0,,,,,,,,2.6297990517995378,frequency,8000.0,-7.0,8.109050486794653e-05,0,87,"['none', 'frequency']",0.008356499951332808,None,None,527.4493376000319,527.4493376000319,0.207707499852404,2.8375065516519418,527.6645037999842,527.4493376000319,,,,,,,,,vqnuwy,001,fr,0,2022-05-10_10h19.17.781,Continuous,2022.1.1,33.89075720223212,
16,0,16,0,0,0,0,0,,,,,,532.1886633001268,None,2.2730906423200943,both,158.0,-1.0025073024466478,0.00038217121787012553,0,27,"['none', 'frequency']",0.024847100023180246,None,['space'],533.2125622001477,None,0.2409481001086533,2.5140387424287476,533.4309656000696,None,[0.09562309994362295],530.299976499984,None,0.5833333333333334,,,,,vqnuwy,001,fr,0,2022-05-10_10h19.17.781,Continuous,2022.1.1,33.89075720223212,
16,0,16,0,1,0,1,0,,,,,,,,2.2730906423200943,both,236.0,-1.0261514636885776,0.00017319271638465645,0,28,"['none', 'frequency']",0.009892300004139543,0.20185030018910766,None,535.7041122999508,535.7041122999508,0.20185030018910766,2.474940942509202,535.9164076000452,535.7041122999508,,,,,,,,,vqnuwy,001,fr,0,2022-05-10_10h19.17.781,Continuous,2022.1.1,33.89075720223212,
16,0,16,0,2,0,2,0,,,,,,,,2.2730906423200943,both,354.0,-1.0,7.887248739356936e-05,0,29,"['none', 'frequency']",0.0062269000336527824,None,['space'],538.1958066001534,538.1958066001534,0.19985889992676675,2.472949542246861,538.4101222001482,538.1958066001534,[-1.8956277999095619],,,,,,,,vqnuwy,001,fr,0,2022-05-10_10h19.17.781,Continuous,2022.1.1,33.89075720223212,
16,0,16,0,3,0,3,0,,,,,,,,2.2730906423200943,both,530.0,-1.1404567881205443,5.854960594083795e-05,0,30,"['none', 'frequency']",0.010626199888065457,0.20428860001266003,None,540.6919895000756,540.6919895000756,0.20428860001266003,2.4773792423327543,540.9057867000811,540.6919895000756,,,,,,,,,vqnuwy,001,fr,0,2022-05-10_10h19.17.781,Continuous,2022.1.1,33.89075720223212,
16,0,16,0,4,0,4,0,,,,,,,,2.2730906423200943,both,794.0,-1.600573934051963,3.2137967606957246e-05,0,31,"['none', 'frequency']",0.011855500051751733,0.2097690999507904,['space'],543.1868451000191,543.1868451000191,0.2097690999507904,2.4828597422708847,543.4016168999951,543.1868451000191,[-2.038409700151533],,,,,,,,vqnuwy,001,fr,0,2022-05-10_10h19.17.781,Continuous,2022.1.1,33.89075720223212,
16,0,16,0,5,0,5,0,,,,,,,,2.2730906423200943,both,1190.0,-0.44783241756458125,4.938651245558191e-05,0,32,"['none', 'frequency']",0.011292600305750966,None,['space'],545.6735545000993,545.6735545000993,0.21115830028429627,2.4842489426043906,545.8905593000818,545.6735545000993,[-2.029844499891624],,,,,,,,vqnuwy,001,fr,0,2022-05-10_10h19.17.781,Continuous,2022.1.1,33.89075720223212,
16,0,16,0,6,0,6,0,,,,,,,,2.2730906423200943,both,,,,1,32,"['none', 'frequency']",0.01174950017593801,0.20811670017428696,None,548.1756194999907,548.1756194999907,0.20811670017428696,2.4812073424943812,548.3834101001266,548.1756194999907,,,,,,,,,vqnuwy,001,fr,0,2022-05-10_10h19.17.781,Continuous,2022.1.1,33.89075720223212,
16,0,16,0,7,0,7,0,,,,,,,,2.2730906423200943,both,2671.0,0.5840744150188819,8.050440674977804e-05,0,33,"['none', 'frequency']",0.011020399862900376,0.20384049974381924,None,550.6625793001149,550.6625793001149,0.20384049974381924,2.4769311420639135,550.8786882001441,550.6625793001149,,,,,,,,,vqnuwy,001,fr,0,2022-05-10_10h19.17.781,Continuous,2022.1.1,33.89075720223212,
16,0,16,0,8,0,8,0,,,,,,,,2.2730906423200943,both,4002.0,-1.3519285308673838,7.195897655878091e-05,0,34,"['none', 'frequency']",0.009994300082325935,0.20207150001078844,['space'],553.1537365999538,553.1537365999538,0.20207150001078844,2.4751621423308827,553.3635110000614,553.1537365999538,[-2.0694226000923663],,,,,,,,vqnuwy,001,fr,0,2022-05-10_10h19.17.781,Continuous,2022.1.1,33.89075720223212,
17,0,17,0,0,0,0,0,,,,,"[0.3333333333333333, 0.3333333333333333, 0.5833333333333334, 0.16666666666666666, 0.3333333333333333, 0.3333333333333333, 0.3333333333333333, 0.5833333333333334, 0.16666666666666666, 0.5833333333333334, 0.16666666666666666, 0.5833333333333334, 0.5833333333333334, 0.16666666666666666, 0.3333333333333333]",558.9095620999578,None,1.469982570095981,time,4975.0,-1.793026165717429,0.00012285706921559615,0,59,"['none', 'frequency']",0.0247573999222368,None,None,559.93989160005,None,0.2296559999231249,1.699638570019106,560.1580823000986,None,,555.6407670001499,None,,,,,,vqnuwy,001,fr,0,2022-05-10_10h19.17.781,Continuous,2022.1.1,33.89075720223212,
17,0,17,0,1,0,1,0,,,,,,,,1.469982570095981,time,1396.0,0.12802309886531638,5.164007490995224e-05,0,60,"['none', 'frequency']",0.009598399745300412,0.2072240998968482,['space'],561.6315810000524,561.6315810000524,0.2072240998968482,1.6772066699928292,561.8400824000128,561.6315810000524,[-1.1715229998808354],,,,,,,,vqnuwy,001,fr,0,2022-05-10_10h19.17.781,Continuous,2022.1.1,33.89075720223212,
17,0,17,0,2,0,2,0,,,,,,,,1.469982570095981,time,2348.0,1.5950963546135484,9.916206927920935e-05,0,61,"['none', 'frequency']",0.00871279975399375,0.2061334999743849,None,563.318683499936,563.318683499936,0.2061334999743849,1.676116070070366,563.5335327000357,563.318683499936,,,,,,,,,vqnuwy,001,fr,0,2022-05-10_10h19.17.781,Continuous,2022.1.1,33.89075720223212,
17,0,17,0,3,0,3,0,,,,,,,,1.469982570095981,time,165.0,0.0,0.0003929114371162802,0,62,"['none', 'frequency']",0.0102034998126328,None,['space'],565.0109059000388,565.0109059000388,0.2087553997989744,1.6787379698949554,565.2264183999505,565.0109059000388,[-1.174903699895367],,,,,,,,vqnuwy,001,fr,0,2022-05-10_10h19.17.781,Continuous,2022.1.1,33.89075720223212,
17,0,17,0,4,0,4,0,,,,,,,,1.469982570095981,time,1567.0,0.028806736509110475,5.414196612715135e-05,0,63,"['none', 'frequency']",0.008609899785369635,None,['space'],566.6967817000113,566.6967817000113,0.20402299985289574,1.6740055699488767,566.9118987999391,566.6967817000113,[-1.1332045001909137],,,,,,,,vqnuwy,001,fr,0,2022-05-10_10h19.17.781,Continuous,2022.1.1,33.89075720223212,
17,0,17,0,5,0,5,0,,,,,,,,1.469982570095981,time,247.0,-0.5138164120725471,0.00016340254015781276,0,64,"['none', 'frequency']",0.006297700107097626,0.19968449999578297,None,568.3936081000138,568.3936081000138,0.19968449999578297,1.669667070091764,568.5983047001064,568.3936081000138,,,,,,,,,vqnuwy,001,fr,0,2022-05-10_10h19.17.781,Continuous,2022.1.1,33.89075720223212,
17,0,17,0,6,0,6,0,,,,,,,,1.469982570095981,time,554.0,-1.1971866533012365,5.490649708109835e-05,0,65,"['none', 'frequency']",0.005490200128406286,0.19911120017059147,['space'],570.0795673001558,570.0795673001558,0.19911120017059147,1.6690937702665725,570.2943859000225,570.0795673001558,[-1.219190200092271],,,,,,,,vqnuwy,001,fr,0,2022-05-10_10h19.17.781,Continuous,2022.1.1,33.89075720223212,
17,0,17,0,7,0,7,0,,,,,,,,1.469982570095981,time,440.0,-0.2781400483723,7.216232094685707e-05,0,66,"['none', 'frequency']",0.008765399921685457,0.20299289980903268,['space'],571.7700839999598,571.7700839999598,0.20299289980903268,1.6729754699050137,571.9833941999823,571.7700839999598,[-1.214469200000167],,,,,,,,vqnuwy,001,fr,0,2022-05-10_10h19.17.781,Continuous,2022.1.1,33.89075720223212,
17,0,17,0,8,0,8,0,,,,,,,,1.469982570095981,time,3949.0,-2.5301542518174633,6.205909980671099e-05,0,67,"['none', 'frequency']",0.009706199867650867,0.2092702998779714,['space'],573.459158499958,573.459158499958,0.2092702998779714,1.6792528699739524,573.6787952999584,573.459158499958,[-1.2402694998309016],,,,,,,,vqnuwy,001,fr,0,2022-05-10_10h19.17.781,Continuous,2022.1.1,33.89075720223212,
17,0,17,0,9,0,9,0,,,,,,,,1.469982570095981,time,830.0,-0.6568409835980815,3.6364165183193586e-05,0,68,"['none', 'frequency']",0.008601399837061763,None,['space'],575.1564929001033,575.1564929001033,0.20291299978271127,1.6728955698786923,575.3744880000595,575.1564929001033,[-1.3047804001253098],,,,,,,,vqnuwy,001,fr,0,2022-05-10_10h19.17.781,Continuous,2022.1.1,33.89075720223212,
17,0,17,0,10,0,10,0,,,,,,,,1.469982570095981,time,3518.0,-2.670989565752726,5.549800455147554e-05,0,69,"['none', 'frequency']",0.009599000215530396,0.20815660012885928,['space'],576.8473863000982,576.8473863000982,0.20815660012885928,1.6781391702248403,577.0607445000205,576.8473863000982,[-1.3324351999908686],,,,,,,,vqnuwy,001,fr,0,2022-05-10_10h19.17.781,Continuous,2022.1.1,33.89075720223212,
17,0,17,0,11,0,11,0,,,,,,,,1.469982570095981,time,932.0,-0.9001657608962127,3.7973233566136616e-05,0,70,"['none', 'frequency']",0.012259099865332246,None,['space'],578.5409117999952,578.5409117999952,0.21377289993688464,1.6837554700328656,578.752603800036,578.5409117999952,[-1.3454108000732958],,,,,,,,vqnuwy,001,fr,0,2022-05-10_10h19.17.781,Continuous,2022.1.1,33.89075720223212,
17,0,17,0,12,0,12,0,,,,,,,,1.469982570095981,time,131.0,0.0,0.0006693029893044905,0,71,"['none', 'frequency']",0.009255499811843038,0.20667229988612235,['space'],580.2276564999484,580.2276564999484,0.20667229988612235,1.6766548699821033,580.442587000085,580.2276564999484,[-1.3354987998027354],,,,,,,,vqnuwy,001,fr,0,2022-05-10_10h19.17.781,Continuous,2022.1.1,33.89075720223212,
17,0,17,0,13,0,13,0,,,,,,,,1.469982570095981,time,,,,1,71,"['none', 'frequency']",0.009384900098666549,0.20492230006493628,['space'],581.9202717000153,581.9202717000153,0.20492230006493628,1.6749048701609173,582.1323882001452,581.9202717000153,[-1.1239622000139207],,,,,,,,vqnuwy,001,fr,0,2022-05-10_10h19.17.781,Continuous,2022.1.1,33.89075720223212,
17,0,17,0,14,0,14,0,,,,,,,,1.469982570095981,time,277.0,-0.10550951786675117,0.00013720189074470577,0,72,"['none', 'frequency']",0.009987900033593178,0.20775729999877512,None,583.6063960001338,583.6063960001338,0.20775729999877512,1.6777398700947561,583.8196418001316,583.6063960001338,,,,,,,,,vqnuwy,001,fr,0,2022-05-10_10h19.17.781,Continuous,2022.1.1,33.89075720223212,
18,0,18,0,0,0,0,0,,,,,,587.3082692001481,None,1.4594352310988916,both,690.0,-1.2058532145990453,3.995298562190867e-05,0,35,"['none', 'frequency']",0.02483009989373386,None,None,588.3383101001382,None,0.24572120001539588,1.7051564311142875,588.5600620000623,None,,585.2978497000877,None,0.16666666666666666,,,,,vqnuwy,001,fr,0,2022-05-10_10h19.17.781,Continuous,2022.1.1,33.89075720223212,
18,0,18,0,1,0,1,0,,,,,,,,1.4594352310988916,both,775.0,-0.7690157745293917,3.615755706046311e-05,0,36,"['none', 'frequency']",0.006659699836745858,0.2010859998408705,None,590.0227075000294,590.0227075000294,0.2010859998408705,1.6605212309397621,590.2384418000001,590.0227075000294,,,,,,,,,vqnuwy,001,fr,0,2022-05-10_10h19.17.781,Continuous,2022.1.1,33.89075720223212,
18,0,18,0,2,0,2,0,,,,,,,,1.4594352310988916,both,870.0,-0.5940543993126315,3.768969744998724e-05,0,37,"['none', 'frequency']",0.009176299907267094,None,['space'],591.6960506001487,591.6960506001487,0.20515849976800382,1.6645937308668954,591.906905000098,591.6960506001487,[-1.2052937000989914],,,,,,,,vqnuwy,001,fr,0,2022-05-10_10h19.17.781,Continuous,2022.1.1,33.89075720223212,
18,0,18,0,3,0,3,0,,,,,,,,1.4594352310988916,both,977.0,-1.3013829881073027,3.736009598371514e-05,0,38,"['none', 'frequency']",0.008113399846479297,None,['space'],593.3746965001337,593.3746965001337,0.2033160999417305,1.6627513310406221,593.5895883000921,593.3746965001337,[-1.3149578999727964],,,,,,,,vqnuwy,001,fr,0,2022-05-10_10h19.17.781,Continuous,2022.1.1,33.89075720223212,
18,0,18,0,4,0,4,0,,,,,,,,1.4594352310988916,both,,,,1,38,"['none', 'frequency']",0.009255900047719479,0.20430690003558993,['space'],595.0588112000842,595.0588112000842,0.20430690003558993,1.6637421311344815,595.2680449001491,595.0588112000842,[-1.3514863001182675],,,,,,,,vqnuwy,001,fr,0,2022-05-10_10h19.17.781,Continuous,2022.1.1,33.89075720223212,
18,0,18,0,5,0,5,0,,,,,,,,1.4594352310988916,both,1231.0,0.0011160539119245,5.372141151078732e-05,0,39,"['none', 'frequency']",0.01033150008879602,None,None,596.7337078000419,596.7337078000419,0.2048748000524938,1.6643100311513854,596.9469741999637,596.7337078000419,,,,,,,,,vqnuwy,001,fr,0,2022-05-10_10h19.17.781,Continuous,2022.1.1,33.89075720223212,
18,0,18,0,6,0,6,0,,,,,,,,1.4594352310988916,both,1382.0,0.5295679208410808,5.445283938006907e-05,0,40,"['none', 'frequency']",0.008548499783501029,None,None,598.41525369999,598.41525369999,0.20310519984923303,1.6625404309481246,598.6323315999471,598.41525369999,,,,,,,,,vqnuwy,001,fr,0,2022-05-10_10h19.17.781,Continuous,2022.1.1,33.89075720223212,
18,0,18,0,7,0,7,0,,,,,,,,1.4594352310988916,both,1551.0,0.36475299507836667,5.486740126843146e-05,0,41,"['none', 'frequency']",0.009314099792391062,0.20373659976758063,['space'],600.097461800091,600.097461800091,0.20373659976758063,1.6631718308664722,600.307706899941,600.097461800091,[-1.0936135000083596],,,,,,,,vqnuwy,001,fr,0,2022-05-10_10h19.17.781,Continuous,2022.1.1,33.89075720223212,
