frequencies,training_trials.thisRepN,training_trials.thisTrialN,training_trials.thisN,training_trials.thisIndex,frequencies.thisRepN,frequencies.thisTrialN,frequencies.thisN,frequencies.thisIndex,trials.thisRepN,trials.thisTrialN,trials.thisN,trials.thisIndex,tFrequency,tLevel,tCorrect,Tprobe.started,Tprobe.stopped,tTriangle_cue.started,tTriangle_cue.stopped,Tfeedback.keys,Tfeedback.corr,Tfeedback.rt,Tfeedback.started,Tfeedback.stopped,reversals_nTrials.routineEndVal,track_dir.routineEndVal,step_up.routineEndVal,Correct,Frequency,Level,Psychopy_Level,Direction,Reversals,Track_dir,Step,probe.started,probe.stopped,cross_cue.started,cross_cue.stopped,circle_cue.started,circle_cue.stopped,triangle_cue.started,triangle_cue.stopped,feedback.keys,feedback.corr,feedback.rt,feedback.started,feedback.stopped,memo.started,memo.stopped,key_resp.keys,key_resp.rt,key_resp.started,key_resp.stopped,text.started,text.stopped,participant,session,skip_training,language (english or french),date,expName,psychopyVersion,frameRate,
850,0,0,0,2,,,,,,,,,850,30,right,54.00557426669208,None,53.95632600001409,54.297474800026976,right,1,3.069961400004104,51.503360200003954,None,,,,,,,,,,,,,,,,,,,,,,,,,,,,,,,,,regvnx,001,0,fr,2022-04-28_14h54.21.625,3-AFC_adaptive_staircase_mess,2022.1.1,None,
200,0,1,1,0,,,,,,,,,200,30,up,60.09894796667892,None,None,None,up,1,1.8620426999987103,58.63118250001571,None,,,,,,,,,,,,,,,,,,,,,,,,,,,,,,,,,regvnx,001,0,fr,2022-04-28_14h54.21.625,3-AFC_adaptive_staircase_mess,2022.1.1,None,
1300,0,2,2,3,,,,,,,,,1300,30,up,65.45055106666793,65.67961410002317,None,None,up,1,1.9218500000133645,63.96290610000142,None,,,,,,,,,,,,,,,,,,,,,,,,,,,,,,,,,regvnx,001,0,fr,2022-04-28_14h54.21.625,3-AFC_adaptive_staircase_mess,2022.1.1,None,
5000,0,3,3,4,,,,,,,,,5000,30,left,70.57559586668891,None,None,None,left,1,1.0451589000003878,70.12001820001751,None,,,,,,,,,,,,,,,,,,,,,,,,,,,,,,,,,regvnx,001,0,fr,2022-04-28_14h54.21.625,3-AFC_adaptive_staircase_mess,2022.1.1,None,
450,0,4,4,1,,,,,,,,,450,30,up,76.64062826667602,None,None,None,up,1,1.95801269999356,75.15978410001844,None,,,,,,,,,,,,,,,,,,,,,,,,,,,,,,,,,regvnx,001,0,fr,2022-04-28_14h54.21.625,3-AFC_adaptive_staircase_mess,2022.1.1,None,
,,,,,0,0,0,0,0,0,0,0,,,,,,,,,,,,,[],[],5,left,1000,50,0.013930605843148852,0,0,-1,5,94.64731826668528,None,94.63065160001861,94.96796610002639,None,None,None,None,left,1,0.569825899990974,94.6597925000242,None,None,None,,,,,,,regvnx,001,0,fr,2022-04-28_14h54.21.625,3-AFC_adaptive_staircase_mess,2022.1.1,None,
,,,,,0,0,0,0,1,0,1,0,,,,,,,,,,,,,,,,right,1000,50,0.013930605843148852,0,0,-1,5,98.78351836666504,None,96.71783629999845,97.038420100027,97.7279146000219,98.06166170001961,98.73494310001843,99.07525240001269,right,1,2.630262299993774,96.77562100000796,None,99.28820500001893,None,,,,,,,regvnx,001,0,fr,2022-04-28_14h54.21.625,3-AFC_adaptive_staircase_mess,2022.1.1,None,
,,,,,0,0,0,0,2,0,2,0,,,,,,,,,,,,,,,,left,1000,40,0.004405244365040069,-1,0,-1,-10,100.94300516668979,None,100.89618420001352,101.2392996000126,None,None,None,None,left,1,0.6265691999869887,100.95493120001629,None,None,None,,,,,,,regvnx,001,0,fr,2022-04-28_14h54.21.625,3-AFC_adaptive_staircase_mess,2022.1.1,None,
,,,,,0,0,0,0,3,0,3,0,,,,,,,,,,,,,,,,right,1000,40,0.004405244365040069,-1,0,-1,-10,105.15082196667596,None,103.1139317000052,103.45028410002124,104.10243580001406,104.43112290001591,105.10462700002245,105.44647750002332,right,1,2.468190000014147,103.14522640002542,None,105.64868496667283,None,,,,,,,regvnx,001,0,fr,2022-04-28_14h54.21.625,3-AFC_adaptive_staircase_mess,2022.1.1,None,
,,,,,0,0,0,0,4,0,4,0,,,,,,,,,,,,,,,,left,1000,30,0.0013930605843148849,-1,0,-1,-10,107.1605005666827,None,107.14383390001603,107.48298729999806,None,None,None,None,left,1,0.517766600009054,107.17547330001253,None,None,None,,,,,,,regvnx,001,0,fr,2022-04-28_14h54.21.625,3-AFC_adaptive_staircase_mess,2022.1.1,None,
,,,,,0,0,0,0,5,0,5,0,,,,,,,,,,,,,,,,up,1000,30,0.0013930605843148849,-1,0,-1,-10,110.25365326667476,None,109.23260129999835,109.55661860000691,110.2369866000081,110.5539734000049,None,None,up,1,1.5030894000083208,109.26249120000284,None,None,None,,,,,,,regvnx,001,0,fr,2022-04-28_14h54.21.625,3-AFC_adaptive_staircase_mess,2022.1.1,None,
,,,,,0,0,0,0,6,0,6,0,,,,,,,,,,,,,,,,up,1000,20,0.0004405244365040069,-1,0,-1,-10,113.29669626668716,None,112.2764695000078,112.60664910002379,113.2800296000205,113.61587350000627,None,None,up,1,1.499725400004536,112.3056285000057,None,None,None,,,,,,,regvnx,001,0,fr,2022-04-28_14h54.21.625,3-AFC_adaptive_staircase_mess,2022.1.1,None,
,,,,,0,0,0,0,7,0,7,0,,,,,,,,,,,,,,,,left,1000,20,0.0004405244365040069,-1,0,-1,-10,115.3251824666843,None,115.30851580001763,115.64224760001525,None,None,None,None,left,1,0.4843012999917846,115.33732810002402,None,None,None,,,,,,,regvnx,001,0,fr,2022-04-28_14h54.21.625,3-AFC_adaptive_staircase_mess,2022.1.1,None,
,,,,,0,0,0,0,8,0,8,0,,,,,,,,,,,,,,,,up,1000,10,0.00013930605843148847,-1,0,-1,-10,118.38876646667292,None,117.34422389999963,117.66538680001395,118.34201920000487,118.6690171000082,None,None,up,1,1.569347899989225,117.40373090002686,None,None,None,,,,,,,regvnx,001,0,fr,2022-04-28_14h54.21.625,3-AFC_adaptive_staircase_mess,2022.1.1,None,
,,,,,0,0,0,0,9,0,9,0,,,,,,,,,,,,,,,,right,1000,10,0.00013930605843148847,-1,0,-1,-10,122.53520026666617,122.75692500002333,120.49194480001461,120.82024970001657,121.49199950002367,121.81897290001507,122.48810460002278,122.81431260000682,right,1,2.453508199978387,120.5515577000042,None,123.04115456669048,None,,,,,,,regvnx,001,0,fr,2022-04-28_14h54.21.625,3-AFC_adaptive_staircase_mess,2022.1.1,None,
,,,,,0,0,0,0,10,0,10,0,,,,,,,,,,,,,,,,up,1000,0,4.405244365040069e-05,-1,0,-1,-10,125.58215696667709,None,124.53330800001277,124.85177860001568,125.53517070002272,125.87163730000611,126.52311290000216,126.84729630002403,left,0,3.1184694999828935,124.59127780000563,None,127.08609170001,None,,,,,,,regvnx,001,0,fr,2022-04-28_14h54.21.625,3-AFC_adaptive_staircase_mess,2022.1.1,None,
,,,,,0,0,0,0,11,0,11,0,,,,,,,,,,,,,,,,right,1000,5,7.833755350540742e-05,1,1,1,5,131.28113186668295,None,129.25095440002042,129.58701110002585,130.24072739999974,130.56521410000278,131.23540670002694,131.57459930001642,right,1,2.5564610000001267,129.27995260001626,None,131.80543620002572,None,,,,,,,regvnx,001,0,fr,2022-04-28_14h54.21.625,3-AFC_adaptive_staircase_mess,2022.1.1,None,
,,,,,0,0,0,0,12,0,12,0,,,,,,,,,,,,,,,,up,1000,5,7.833755350540742e-05,1,1,1,5,134.36769006666535,None,133.3210838000232,133.64347350000753,134.32205980000435,134.6529370000062,None,None,up,1,1.7234579999931157,133.3775549000129,None,None,None,,,,,,,regvnx,001,0,fr,2022-04-28_14h54.21.625,3-AFC_adaptive_staircase_mess,2022.1.1,None,
,,,,,0,0,0,0,13,0,13,0,,,,,,,,,,,,,,,,right,1000,-5,2.4772509540239506e-05,-1,2,-1,-5.0,138.67114236668957,None,136.6217411000107,136.9558036000235,137.63230500000645,137.953179300006,138.62652690001414,138.9577386000019,right,1,3.391254999994999,136.6856724000245,None,139.18909749999875,None,,,,,,,regvnx,001,0,fr,2022-04-28_14h54.21.625,3-AFC_adaptive_staircase_mess,2022.1.1,None,
,,,,,0,0,0,0,14,0,14,0,,,,,,,,,,,,,,,,up,1000,-5,2.4772509540239506e-05,-1,2,-1,-5.0,142.62742536666727,None,141.5935231000185,141.91619139999966,142.58169330001692,142.92618000000948,143.58467250000103,143.92575040002703,right,0,2.68139670000528,141.65186930002528,None,144.15122420000262,None,,,,,,,regvnx,001,0,fr,2022-04-28_14h54.21.625,3-AFC_adaptive_staircase_mess,2022.1.1,None,
,,,,,0,0,0,0,15,0,15,0,,,,,,,,,,,,,,,,up,1000,-2.5,3.303467240037979e-05,1,3,1,2.5,146.91466086666722,None,145.86866180002107,146.1997745000117,146.86868850002065,147.20024000000558,147.8703561000002,None,up,1,1.975738499982981,145.92468150000786,None,None,None,,,,,,,regvnx,001,0,fr,2022-04-28_14h54.21.625,3-AFC_adaptive_staircase_mess,2022.1.1,None,
,,,,,0,0,0,0,16,0,16,0,,,,,,,,,,,,,,,,left,1000,-2.5,3.303467240037979e-05,1,3,1,2.5,149.48196876669343,None,149.4349479000084,149.76869960001204,150.4294544000004,150.7579853000061,151.45326560002286,151.76997980001033,up,0,3.702492999989772,149.4952896000177,None,151.9913068000169,None,,,,,,,regvnx,001,0,fr,2022-04-28_14h54.21.625,3-AFC_adaptive_staircase_mess,2022.1.1,None,
,,,,,0,0,0,0,17,0,17,0,,,,,,,,,,,,,,,,left,1000,0.0,4.405244365040069e-05,1,3,1,2.5,154.75555086668854,None,154.71024240000406,155.04418210001313,155.70992430002661,156.03897960000904,156.70120410001255,157.02993140000035,left,1,2.937699200003408,154.7705835000088,None,157.26501380000263,None,,,,,,,regvnx,001,0,fr,2022-04-28_14h54.21.625,3-AFC_adaptive_staircase_mess,2022.1.1,None,
,,,,,0,0,0,0,18,0,18,0,,,,,,,,,,,,,,,,left,1000,0.0,4.405244365040069e-05,1,3,1,2.5,159.28178906668134,None,159.2358138000127,159.57310270000016,160.24192870000843,160.56667670002207,161.23417599999812,161.55649510002695,right,0,4.862583799986169,159.29435650000232,None,161.8208499000175,None,,,,,,,regvnx,001,0,fr,2022-04-28_14h54.21.625,3-AFC_adaptive_staircase_mess,2022.1.1,None,
,,,,,0,0,0,0,19,0,19,0,,,,,,,,,,,,,,,,right,1000,2.5,5.874487774697646e-05,1,3,1,2.5,167.7160356666757,None,165.6687079000112,165.9812475000217,166.68395480001345,167.00614219999989,167.66658840002492,167.98730050001177,right,1,2.775332499993965,165.71799000000465,None,168.20283100000233,None,,,,,,,regvnx,001,0,fr,2022-04-28_14h54.21.625,3-AFC_adaptive_staircase_mess,2022.1.1,None,
,,,,,0,0,0,0,20,0,20,0,,,,,,,,,,,,,,,,right,1000,2.5,5.874487774697646e-05,1,3,1,2.5,172.03771806668763,None,169.9889485000167,170.31541020001168,171.00454460000037,171.31880820001243,171.9926801000256,172.3226899000001,right,1,2.916134700004477,170.05718820000766,None,172.55625480000162,None,,,,,,,regvnx,001,0,fr,2022-04-28_14h54.21.625,3-AFC_adaptive_staircase_mess,2022.1.1,None,
,,,,,0,0,0,0,21,0,21,0,,,,,,,,,,,,,,,,right,1000,-2.5,3.303467240037979e-05,-1,4,-1,-5.0,176.49929616667603,176.7279035000247,174.48926630002097,174.8106461999996,175.45741300002555,175.79460090000066,176.48262950000935,176.81044630001998,left,0,4.965062700008275,174.51933080001618,None,177.015828100004,None,,,,,,,regvnx,001,0,fr,2022-04-28_14h54.21.625,3-AFC_adaptive_staircase_mess,2022.1.1,None,
,,,,,0,0,0,0,22,0,22,0,,,,,,,,,,,,,,,,right,1000,0.0,4.405244365040069e-05,1,5,1,2.5,183.04928386668715,None,181.0129314000078,181.33797350001987,182.00259850002476,182.31820040001185,183.00362960001803,183.33106530000805,right,1,2.6662798000033945,181.07460130000254,None,183.56756860000314,None,,,,,,,regvnx,001,0,fr,2022-04-28_14h54.21.625,3-AFC_adaptive_staircase_mess,2022.1.1,None,
,,,,,0,0,0,0,23,0,23,0,,,,,,,,,,,,,,,,right,1000,0.0,4.405244365040069e-05,1,5,1,2.5,187.30038366667966,None,185.2501029999985,185.58428750000894,186.24710040001082,186.56864219999989,187.2546845000179,187.5899511000025,left,0,4.125227300013648,185.31185330002336,None,187.8021010000084,None,,,,,,,regvnx,001,0,fr,2022-04-28_14h54.21.625,3-AFC_adaptive_staircase_mess,2022.1.1,None,
,,,,,0,0,0,0,24,0,24,0,,,,,,,,,,,,,,,,right,1000,2.5,5.874487774697646e-05,1,5,1,2.5,192.99643246666918,None,190.95290080000996,191.2788969000103,191.96754760001204,192.29093450002256,192.9797658000025,193.311443100014,right,1,2.63528290000977,191.00924710000982,None,193.51313770000706,None,,,,,,,regvnx,001,0,fr,2022-04-28_14h54.21.625,3-AFC_adaptive_staircase_mess,2022.1.1,None,
,,,,,0,0,0,0,25,0,25,0,,,,,,,,,,,,,,,,up,1000,2.5,5.874487774697646e-05,1,5,1,2.5,196.22541096667217,None,195.16780380002456,195.47885360001237,196.18023130000802,196.50373920000857,197.16143500001635,197.491998100013,up,1,2.9635130999959074,195.22517940000398,None,197.71691940000164,None,,,,,,,regvnx,001,0,fr,2022-04-28_14h54.21.625,3-AFC_adaptive_staircase_mess,2022.1.1,None,
,,,,,0,0,0,0,26,0,26,0,,,,,,,,,,,,,,,,left,1000,-2.5,3.303467240037979e-05,-1,6,-1,-5.0,199.7357816666811,None,199.6870395000151,200.01087820000248,200.69801710001775,201.020436300023,201.70682110000052,202.0339863000263,left,1,3.1771745000150986,199.74721050000517,None,202.25515610000002,None,,,,,,,regvnx,001,0,fr,2022-04-28_14h54.21.625,3-AFC_adaptive_staircase_mess,2022.1.1,None,
,,,,,1,0,1,0,0,0,0,0,,,,,,,,,,,,,[],[],5,left,1500,50,0.01527460556607757,0,0,-1,5,210.83246056668966,None,210.78645880002296,211.11534490002668,211.80566350001027,None,None,None,left,1,1.1047812999750022,210.84389480002574,None,None,None,up,6.30425909999758,204.01182000001427,None,204.01182000001427,205.0355958,regvnx,001,0,fr,2022-04-28_14h54.21.625,3-AFC_adaptive_staircase_mess,2022.1.1,None,
,,,,,1,0,1,0,1,0,1,0,,,,,,,,,,,,,,,,left,1500,50,0.01527460556607757,0,0,-1,5,213.52967376666882,None,213.48489750002045,213.81615290002082,None,None,None,None,left,1,0.46812360000330955,213.54477510001743,None,None,None,,,,,,,regvnx,001,0,fr,2022-04-28_14h54.21.625,3-AFC_adaptive_staircase_mess,2022.1.1,None,
,,,,,1,0,1,0,2,0,2,0,,,,,,,,,,,,,,,,right,1500,40,0.004830254394949068,-1,0,-1,-10,217.56202746669103,None,215.51637130000745,215.84247920001508,216.53045410002233,216.8485261000169,217.51622670001234,217.82703740001307,right,1,2.4641312999883667,215.5802820000099,None,218.07088189999922,None,,,,,,,regvnx,001,0,fr,2022-04-28_14h54.21.625,3-AFC_adaptive_staircase_mess,2022.1.1,None,
,,,,,1,0,1,0,3,0,3,0,,,,,,,,,,,,,,,,left,1500,40,0.004830254394949068,-1,0,-1,-10,219.61233446668874,None,219.56443790000048,219.90320490000886,None,None,None,None,left,1,0.5961548000050243,219.62443180000992,None,None,None,,,,,,,regvnx,001,0,fr,2022-04-28_14h54.21.625,3-AFC_adaptive_staircase_mess,2022.1.1,None,
,,,,,1,0,1,0,4,0,4,0,,,,,,,,,,,,,,,,up,1500,30,0.001527460556607757,-1,0,-1,-10,222.76384606666787,None,221.7336159000115,222.05324570002267,222.7471794000012,223.06781960002263,None,None,up,1,1.7257570999790914,221.79147340002237,None,None,None,,,,,,,regvnx,001,0,fr,2022-04-28_14h54.21.625,3-AFC_adaptive_staircase_mess,2022.1.1,None,
,,,,,1,0,1,0,5,0,5,0,,,,,,,,,,,,,,,,left,1500,30,0.001527460556607757,-1,0,-1,-10,225.07361276669351,None,225.02521839999827,225.3653220999986,None,None,None,None,left,1,0.5250033999909647,225.08784970000852,None,None,None,,,,,,,regvnx,001,0,fr,2022-04-28_14h54.21.625,3-AFC_adaptive_staircase_mess,2022.1.1,None,
,,,,,1,0,1,0,6,0,6,0,,,,,,,,,,,,,,,,right,1500,20,0.00048302543949490677,-1,0,-1,-10,229.17299856667913,None,227.1263014000142,227.44588959999965,228.13909730000887,228.46788730000844,229.11463510000613,229.45137350002187,right,1,2.477788000018336,227.183082500007,None,229.68227900000056,None,,,,,,,regvnx,001,0,fr,2022-04-28_14h54.21.625,3-AFC_adaptive_staircase_mess,2022.1.1,None,
,,,,,1,0,1,0,7,0,7,0,,,,,,,,,,,,,,,,left,1500,20,0.00048302543949490677,-1,0,-1,-10,231.23838606669258,None,231.19440659999964,231.5150998000172,None,None,None,None,left,1,0.408605600008741,231.25294360000407,None,None,None,,,,,,,regvnx,001,0,fr,2022-04-28_14h54.21.625,3-AFC_adaptive_staircase_mess,2022.1.1,None,
,,,,,1,0,1,0,8,0,8,0,,,,,,,,,,,,,,,,up,1500,10,0.0001527460556607757,-1,0,-1,-10,234.2250253666755,None,233.19773020001594,233.5202743000118,234.20835870000883,234.53421030001482,235.19841860001907,235.52197160001379,left,0,2.6938434000185225,233.25476320000598,None,235.75562560002436,None,,,,,,,regvnx,001,0,fr,2022-04-28_14h54.21.625,3-AFC_adaptive_staircase_mess,2022.1.1,None,
,,,,,1,0,1,0,9,0,9,0,,,,,,,,,,,,,,,,up,1500,15,0.00027162516574621667,1,1,1,5,238.50394026667735,None,237.47144079999998,237.7963759000122,238.48727360001067,238.81113720001304,None,None,up,1,1.5395165999943856,237.52929060001043,None,None,None,,,,,,,regvnx,001,0,fr,2022-04-28_14h54.21.625,3-AFC_adaptive_staircase_mess,2022.1.1,None,
,,,,,1,0,1,0,10,0,10,0,,,,,,,,,,,,,,,,up,1500,15,0.00027162516574621667,1,1,1,5,241.65151226669357,None,240.61100570001872,240.96211980000953,241.59310960001312,241.9282601000159,None,None,up,1,1.6932040999818128,240.6399205000198,None,None,None,,,,,,,regvnx,001,0,fr,2022-04-28_14h54.21.625,3-AFC_adaptive_staircase_mess,2022.1.1,None,
,,,,,1,0,1,0,11,0,11,0,,,,,,,,,,,,,,,,right,1500,5,8.589541935787943e-05,-1,2,-1,-5.0,245.8911393666679,None,243.844066700025,244.164483200002,244.84705770001165,245.17993650000426,245.83189110000967,246.16676790002384,right,1,4.799604800005909,243.90108490001876,None,246.40030639999895,None,,,,,,,regvnx,001,0,fr,2022-04-28_14h54.21.625,3-AFC_adaptive_staircase_mess,2022.1.1,None,
,,,,,1,0,1,0,12,0,12,0,,,,,,,,,,,,,,,,up,1500,5,8.589541935787943e-05,-1,2,-1,-5.0,251.26600566666846,None,250.20196270002634,250.53530110002612,251.2184082000167,251.5553981999983,252.21673650000594,252.53933270002017,left,0,2.6532347000029404,250.2714875000238,None,252.77338980001514,None,,,,,,,regvnx,001,0,fr,2022-04-28_14h54.21.625,3-AFC_adaptive_staircase_mess,2022.1.1,None,
,,,,,1,0,1,0,13,0,13,0,,,,,,,,,,,,,,,,right,1500,7.5,0.00011454338263838867,1,3,1,2.5,256.4969055666918,None,254.45362520002527,254.77239399999962,255.4608378999983,255.79079710002407,256.45279660000233,256.77890170001774,up,0,3.774096900015138,254.51067730001523,None,257.0112350000127,None,,,,,,,regvnx,001,0,fr,2022-04-28_14h54.21.625,3-AFC_adaptive_staircase_mess,2022.1.1,None,
,,,,,1,0,1,0,14,0,14,0,,,,,,,,,,,,,,,,up,1500,10.0,0.0001527460556607757,1,3,1,2.5,260.84143596666786,None,259.7825750000193,260.1048837999988,260.79564310002024,261.11912860002485,None,None,up,1,1.6913057000201661,259.8427754000004,None,None,None,,,,,,,regvnx,001,0,fr,2022-04-28_14h54.21.625,3-AFC_adaptive_staircase_mess,2022.1.1,None,
,,,,,1,0,1,0,15,0,15,0,,,,,,,,,,,,,,,,left,1500,10.0,0.0001527460556607757,1,3,1,2.5,263.10117446666504,None,263.0566641000041,263.3875387000153,264.0533307000005,None,None,None,left,1,1.0080199999792967,263.1164400000125,None,None,None,,,,,,,regvnx,001,0,fr,2022-04-28_14h54.21.625,3-AFC_adaptive_staircase_mess,2022.1.1,None,
,,,,,1,0,1,0,16,0,16,0,,,,,,,,,,,,,,,,left,1500,5.0,8.589541935787943e-05,-1,4,-1,-5.0,265.68209086667434,None,265.6335390000022,265.9737773000088,266.6400910000084,266.9692005000252,267.63656860002084,267.9583614000003,right,0,6.2850832999974955,265.6949780000141,None,268.1888156000059,None,,,,,,,regvnx,001,0,fr,2022-04-28_14h54.21.625,3-AFC_adaptive_staircase_mess,2022.1.1,None,
,,,,,1,0,1,0,17,0,17,0,,,,,,,,,,,,,,,,up,1500,7.5,0.00011454338263838867,1,5,1,2.5,274.54840696667475,None,273.5102673000074,273.8390236000123,274.50361189999967,274.8307128000015,275.52315690001706,275.8432106000255,up,1,2.7727570999995805,273.5760068000236,None,276.0494902000064,None,,,,,,,regvnx,001,0,fr,2022-04-28_14h54.21.625,3-AFC_adaptive_staircase_mess,2022.1.1,None,
,,,,,1,0,1,0,18,0,18,0,,,,,,,,,,,,,,,,up,1500,7.5,0.00011454338263838867,1,5,1,2.5,278.90518486668975,None,277.87844020000193,278.1966608000221,278.8885182000231,279.21487310001976,279.8780665000086,None,up,1,2.077907300001243,277.93567870001425,None,None,None,,,,,,,regvnx,001,0,fr,2022-04-28_14h54.21.625,3-AFC_adaptive_staircase_mess,2022.1.1,None,
,,,,,1,0,1,0,19,0,19,0,,,,,,,,,,,,,,,,right,1500,2.5,6.441247758465671e-05,-1,6,-1,-5.0,283.56474216666925,283.7815406000009,281.5176920000231,281.83814710000297,282.53093220002484,282.85012510002707,283.5181427000207,283.8390505000134,up,0,4.226882499991916,281.57808190002106,None,284.06869530002587,None,,,,,,,regvnx,001,0,fr,2022-04-28_14h54.21.625,3-AFC_adaptive_staircase_mess,2022.1.1,None,
,,,,,2,0,2,0,0,0,0,0,,,,,,,,,,,,,[],[],5,left,2000,50,0.02365756294807403,0,0,-1,5,301.4212542666685,None,301.37300220000907,301.7076272999984,None,None,None,None,left,1,0.6568834000208881,301.43649860000005,None,None,None,space,14.024410900019575,286.8844981000002,None,286.8844981000002,287.90435600001365,regvnx,001,0,fr,2022-04-28_14h54.21.625,3-AFC_adaptive_staircase_mess,2022.1.1,None,
,,,,,2,0,2,0,1,0,1,0,,,,,,,,,,,,,,,,right,2000,50,0.02365756294807403,0,0,-1,5,305.65432146669286,None,303.60570980000193,303.9378633000015,304.6087122000172,304.93677100000787,305.6074565000017,305.9489913000143,right,1,2.2669246000004932,303.6650718000019,None,None,None,,,,,,,regvnx,001,0,fr,2022-04-28_14h54.21.625,3-AFC_adaptive_staircase_mess,2022.1.1,None,
,,,,,2,0,2,0,2,0,2,0,,,,,,,,,,,,,,,,up,2000,40,0.007481178280472167,-1,0,-1,-10,308.4756198666912,None,307.4455342000001,307.7794788000174,308.4292904000031,308.7469220000203,None,None,up,1,1.5411871000251267,307.47947230000864,None,None,None,,,,,,,regvnx,001,0,fr,2022-04-28_14h54.21.625,3-AFC_adaptive_staircase_mess,2022.1.1,None,
,,,,,2,0,2,0,3,0,3,0,,,,,,,,,,,,,,,,up,2000,40,0.007481178280472167,-1,0,-1,-10,311.57332126668575,None,310.5394700000179,310.8830689000024,311.5566546000191,311.8878998,None,None,up,1,1.3788674999959767,310.60202710001613,None,None,None,,,,,,,regvnx,001,0,fr,2022-04-28_14h54.21.625,3-AFC_adaptive_staircase_mess,2022.1.1,None,
,,,,,2,0,2,0,4,0,4,0,,,,,,,,,,,,,,,,up,2000,30,0.0023657562948074026,-1,0,-1,-10,314.52064276667465,None,313.4833828000119,313.8056745000067,314.503976100008,314.83378430001903,None,None,up,1,1.3173305000236724,313.5444362999988,None,None,None,,,,,,,regvnx,001,0,fr,2022-04-28_14h54.21.625,3-AFC_adaptive_staircase_mess,2022.1.1,None,
,,,,,2,0,2,0,5,0,5,0,,,,,,,,,,,,,,,,right,2000,30,0.0023657562948074026,-1,0,-1,-10,318.4220123666785,None,316.3957072000194,316.7172486000054,317.38558260002173,317.7056752000062,318.4053457000118,None,right,1,2.1844587000086904,316.452953,None,None,None,,,,,,,regvnx,001,0,fr,2022-04-28_14h54.21.625,3-AFC_adaptive_staircase_mess,2022.1.1,None,
,,,,,2,0,2,0,6,0,6,0,,,,,,,,,,,,,,,,left,2000,20,0.0007481178280472167,-1,0,-1,-10,320.18065876668356,None,320.1352442000061,320.46201650000876,None,None,None,None,left,1,0.4614228999998886,320.19115050000255,None,None,None,,,,,,,regvnx,001,0,fr,2022-04-28_14h54.21.625,3-AFC_adaptive_staircase_mess,2022.1.1,None,
,,,,,2,0,2,0,7,0,7,0,,,,,,,,,,,,,,,,right,2000,20,0.0007481178280472167,-1,0,-1,-10,324.2120530666764,None,322.16455159999896,322.4861124000163,323.1775373000128,323.4923544000194,324.16337340002065,324.49833500001114,right,1,2.332913999998709,322.2241150000191,None,None,None,,,,,,,regvnx,001,0,fr,2022-04-28_14h54.21.625,3-AFC_adaptive_staircase_mess,2022.1.1,None,
,,,,,2,0,2,0,8,0,8,0,,,,,,,,,,,,,,,,left,2000,10,0.00023657562948074026,-1,0,-1,-10,326.1059910666702,None,326.0599792000139,326.3829202000052,327.0522821000195,327.37384960000054,328.06717070000013,328.39541779999854,left,1,2.583791700017173,326.1175809999986,None,328.5995357000211,None,,,,,,,regvnx,001,0,fr,2022-04-28_14h54.21.625,3-AFC_adaptive_staircase_mess,2022.1.1,None,
,,,,,2,0,2,0,9,0,9,0,,,,,,,,,,,,,,,,left,2000,10,0.00023657562948074026,-1,0,-1,-10,330.2509748666819,None,330.20590670002275,330.5367180000176,None,None,None,None,left,1,0.5637854999804404,330.26508540002396,None,None,None,,,,,,,regvnx,001,0,fr,2022-04-28_14h54.21.625,3-AFC_adaptive_staircase_mess,2022.1.1,None,
,,,,,2,0,2,0,10,0,10,0,,,,,,,,,,,,,,,,up,2000,0,7.481178280472168e-05,-1,0,-1,-10,333.35336296668197,None,332.3227521000081,332.64511890002177,333.3366963000153,333.67088780002086,334.33249290002277,334.65077730000485,right,0,3.3758804999815766,332.38057830001344,None,334.8705085000256,None,,,,,,,regvnx,001,0,fr,2022-04-28_14h54.21.625,3-AFC_adaptive_staircase_mess,2022.1.1,None,
,,,,,2,0,2,0,11,0,11,0,,,,,,,,,,,,,,,,right,2000,5,0.0001330362529899405,1,1,1,5,339.31519746667277,None,337.279603700008,337.60653640000965,338.26757330002147,338.60654730000533,339.2702763999987,339.5981893000135,right,1,2.54592999999295,337.33863250000286,None,339.83282360000885,None,,,,,,,regvnx,001,0,fr,2022-04-28_14h54.21.625,3-AFC_adaptive_staircase_mess,2022.1.1,None,
,,,,,2,0,2,0,12,0,12,0,,,,,,,,,,,,,,,,left,2000,5,0.0001330362529899405,1,1,1,5,341.42771186668347,None,341.38237440001103,341.712445400015,342.40110920000006,342.7218284000119,343.3871351000271,343.7151615000039,left,1,3.034696899994742,341.44160740001826,None,343.94932290000725,None,,,,,,,regvnx,001,0,fr,2022-04-28_14h54.21.625,3-AFC_adaptive_staircase_mess,2022.1.1,None,
,,,,,2,0,2,0,13,0,13,0,,,,,,,,,,,,,,,,up,2000,-5,4.206975708225974e-05,-1,2,-1,-5.0,347.0320806666898,None,345.98644750000676,346.317157100013,346.9831799000094,347.32248850000906,347.9863354000263,348.3179151000222,up,1,3.850901800004067,346.04929059999995,None,348.5530314000207,None,,,,,,,regvnx,001,0,fr,2022-04-28_14h54.21.625,3-AFC_adaptive_staircase_mess,2022.1.1,None,
,,,,,2,0,2,0,14,0,14,0,,,,,,,,,,,,,,,,left,2000,-5,4.206975708225974e-05,-1,2,-1,-5.0,351.4690908666855,None,351.42244250001386,351.7582202000194,352.42091060001985,352.7504005000228,353.41220060002524,353.75922170002013,up,0,4.115879799996037,351.48179690001416,None,353.9753988000157,None,,,,,,,regvnx,001,0,fr,2022-04-28_14h54.21.625,3-AFC_adaptive_staircase_mess,2022.1.1,None,
,,,,,2,0,2,0,15,0,15,0,,,,,,,,,,,,,,,,up,2000,-2.5,5.610092271509818e-05,1,3,1,2.5,358.1466904666779,None,357.1098816000158,357.4301628000103,358.10084470000584,358.4333850000112,359.10287960001733,None,up,1,1.961336999986088,357.13921250001295,None,None,None,,,,,,,regvnx,001,0,fr,2022-04-28_14h54.21.625,3-AFC_adaptive_staircase_mess,2022.1.1,None,
,,,,,2,0,2,0,16,0,16,0,,,,,,,,,,,,,,,,left,2000,-2.5,5.610092271509818e-05,1,3,1,2.5,360.63296986668524,None,360.6163032000186,360.96256040001754,361.60487510001985,361.9353332000028,362.60663200001,362.9337943000137,right,0,3.15946629998507,360.6451245000062,None,363.17057040001964,None,,,,,,,regvnx,001,0,fr,2022-04-28_14h54.21.625,3-AFC_adaptive_staircase_mess,2022.1.1,None,
,,,,,2,0,2,0,17,0,17,0,,,,,,,,,,,,,,,,up,2000,0.0,7.481178280472168e-05,1,3,1,2.5,366.3334230666844,None,365.2919801000098,365.61122400002205,366.2868914999999,366.61552350001875,367.3102692000102,367.64782890002243,left,0,3.7056063000054564,365.34712550000404,None,367.8606994000147,None,,,,,,,regvnx,001,0,fr,2022-04-28_14h54.21.625,3-AFC_adaptive_staircase_mess,2022.1.1,None,
,,,,,2,0,2,0,18,0,18,0,,,,,,,,,,,,,,,,left,2000,2.5,9.976311574844399e-05,1,3,1,2.5,370.59380976666966,None,370.577143100003,370.91630010001245,371.56534560001455,371.90832980000414,372.56890199999907,372.8882947000093,right,0,3.374217000004137,370.60703080001986,None,373.11943180000526,None,,,,,,,regvnx,001,0,fr,2022-04-28_14h54.21.625,3-AFC_adaptive_staircase_mess,2022.1.1,None,
,,,,,2,0,2,0,19,0,19,0,,,,,,,,,,,,,,,,right,2000,5.0,0.0001330362529899405,1,3,1,2.5,377.4974226666711,None,375.46567490001325,375.7856665000145,376.47944610001286,376.81354700002703,377.4807560000045,377.81279480000376,right,1,2.7451286999857984,375.5241955000092,None,378.02081600000383,None,,,,,,,regvnx,001,0,fr,2022-04-28_14h54.21.625,3-AFC_adaptive_staircase_mess,2022.1.1,None,
,,,,,2,0,2,0,20,0,20,0,,,,,,,,,,,,,,,,right,2000,5.0,0.0001330362529899405,1,3,1,2.5,381.8202715666887,None,379.78084830002626,380.1058364000055,380.77686260000337,381.10296340001514,381.7748033000098,382.1034096000076,left,0,3.3556568999774754,379.840814300027,None,382.338095300016,None,,,,,,,regvnx,001,0,fr,2022-04-28_14h54.21.625,3-AFC_adaptive_staircase_mess,2022.1.1,None,
,,,,,2,0,2,0,21,0,21,0,,,,,,,,,,,,,,,,left,2000,7.5,0.00017740669461678777,1,3,1,2.5,384.7638249666818,None,384.7180264000199,385.05829870002344,None,None,None,None,left,1,0.6280800999957137,384.7767476000008,None,None,None,,,,,,,regvnx,001,0,fr,2022-04-28_14h54.21.625,3-AFC_adaptive_staircase_mess,2022.1.1,None,
,,,,,2,0,2,0,22,0,22,0,,,,,,,,,,,,,,,,up,2000,7.5,0.00017740669461678777,1,3,1,2.5,387.9727340666907,None,386.92107590002706,387.2474313999992,387.9237384000153,388.26383170002373,388.91631349999807,389.2392626000219,up,1,2.9514338000153657,386.9818706000224,None,389.4747097000072,None,,,,,,,regvnx,001,0,fr,2022-04-28_14h54.21.625,3-AFC_adaptive_staircase_mess,2022.1.1,None,
,,,,,2,0,2,0,23,0,23,0,,,,,,,,,,,,,,,,up,2000,2.5,9.976311574844399e-05,-1,4,-1,-5.0,392.4777942666881,None,391.4314782000147,391.75876810000045,392.43158820000826,392.76800390001154,393.42134270002134,393.7463147000235,right,0,7.770828900014749,391.49049630001537,None,393.98870750001515,None,,,,,,,regvnx,001,0,fr,2022-04-28_14h54.21.625,3-AFC_adaptive_staircase_mess,2022.1.1,None,
,,,,,2,0,2,0,24,0,24,0,,,,,,,,,,,,,,,,left,2000,5.0,0.0001330362529899405,1,5,1,2.5,400.8217687666804,None,400.7755831000104,401.1074949000031,401.768483700027,402.0970801000076,402.77526730002137,403.10254530000384,left,1,3.000211999984458,400.8366120000137,None,403.33754070001305,None,,,,,,,regvnx,001,0,fr,2022-04-28_14h54.21.625,3-AFC_adaptive_staircase_mess,2022.1.1,None,
,,,,,2,0,2,0,25,0,25,0,,,,,,,,,,,,,,,,left,2000,5.0,0.0001330362529899405,1,5,1,2.5,405.3555664666676,None,405.33889980000095,405.6793370000087,406.3351124000037,406.65557640002226,407.32947260001674,407.65739730000496,left,1,2.6743496999843046,405.36956970000756,None,407.8883156000229,None,,,,,,,regvnx,001,0,fr,2022-04-28_14h54.21.625,3-AFC_adaptive_staircase_mess,2022.1.1,None,
,,,,,2,0,2,0,26,0,26,0,,,,,,,,,,,,,,,,up,2000,0.0,7.481178280472168e-05,-1,6,-1,-5.0,410.6245831666786,None,409.575203800021,409.90883400000166,410.57587730002706,410.9141166000045,411.58835230002296,411.9152912000136,left,0,2.5223867000022437,409.6337240000139,None,412.12201370002003,None,,,,,,,regvnx,001,0,fr,2022-04-28_14h54.21.625,3-AFC_adaptive_staircase_mess,2022.1.1,None,
,,,,,3,0,3,0,0,0,0,0,,,,,,,,,,,,,[],[],5,right,3000,50,0.017336842522626576,0,0,-1,5,431.0563955666769,None,429.01889930001926,429.3401693000051,430.02520030000596,430.34136489999946,431.01092430000426,None,right,1,2.2173723000159953,429.07609720001346,None,None,None,f,15.304185700020753,413.2361677000008,None,413.2361677000008,414.2772182000044,regvnx,001,0,fr,2022-04-28_14h54.21.625,3-AFC_adaptive_staircase_mess,2022.1.1,None,
,,,,,3,0,3,0,1,0,1,0,,,,,,,,,,,,,,,,up,3000,50,0.017336842522626576,0,0,-1,5,433.8336932666755,None,432.81068049999885,433.1370624000265,433.80046990001574,434.1228005000157,None,None,up,1,1.492265699984273,432.87178670000867,None,None,None,,,,,,,regvnx,001,0,fr,2022-04-28_14h54.21.625,3-AFC_adaptive_staircase_mess,2022.1.1,None,
,,,,,3,0,3,0,2,0,2,0,,,,,,,,,,,,,,,,left,3000,40,0.005482390980715924,-1,0,-1,-10,435.9237103666858,None,435.8810703000054,436.2096310000052,None,None,None,None,left,1,0.46098850000998937,435.9360328000039,None,None,None,,,,,,,regvnx,001,0,fr,2022-04-28_14h54.21.625,3-AFC_adaptive_staircase_mess,2022.1.1,None,
,,,,,3,0,3,0,3,0,3,0,,,,,,,,,,,,,,,,left,3000,40,0.005482390980715924,-1,0,-1,-10,437.9574960666689,None,437.90928839999833,438.2445437000133,None,None,None,None,left,1,0.33241619999171235,437.9689335000003,None,None,None,,,,,,,regvnx,001,0,fr,2022-04-28_14h54.21.625,3-AFC_adaptive_staircase_mess,2022.1.1,None,
,,,,,3,0,3,0,4,0,4,0,,,,,,,,,,,,,,,,right,3000,30,0.001733684252262658,-1,0,-1,-10,441.8600243666772,None,439.80560410002363,440.1298213000118,440.8259346000268,441.14607260000776,441.81442640000023,None,right,1,2.1484405000228435,439.8646527000237,None,None,None,,,,,,,regvnx,001,0,fr,2022-04-28_14h54.21.625,3-AFC_adaptive_staircase_mess,2022.1.1,None,
,,,,,3,0,3,0,5,0,5,0,,,,,,,,,,,,,,,,up,3000,30,0.001733684252262658,-1,0,-1,-10,444.5675833666794,None,443.5209441000188,443.8446651000122,444.52193500002613,444.85595580001245,None,None,up,1,1.4388392000109889,443.58184820000315,None,None,None,,,,,,,regvnx,001,0,fr,2022-04-28_14h54.21.625,3-AFC_adaptive_staircase_mess,2022.1.1,None,
,,,,,3,0,3,0,6,0,6,0,,,,,,,,,,,,,,,,right,3000,20,0.0005482390980715922,-1,0,-1,-10,448.57111356666815,448.79712660002406,446.52121850001276,446.8299783000257,447.5297184000083,447.86586550000357,448.5256401000079,448.8547265000234,right,1,2.346618999989005,446.578428000008,None,None,None,,,,,,,regvnx,001,0,fr,2022-04-28_14h54.21.625,3-AFC_adaptive_staircase_mess,2022.1.1,None,
,,,,,3,0,3,0,7,0,7,0,,,,,,,,,,,,,,,,up,3000,20,0.0005482390980715922,-1,0,-1,-10,451.49224546668506,None,450.43711080000503,450.75616950000403,451.445681400015,451.7783453000011,None,None,up,1,1.3233611999894492,450.496887300018,None,None,None,,,,,,,regvnx,001,0,fr,2022-04-28_14h54.21.625,3-AFC_adaptive_staircase_mess,2022.1.1,None,
,,,,,3,0,3,0,8,0,8,0,,,,,,,,,,,,,,,,left,3000,10,0.00017336842522626576,-1,0,-1,-10,453.3786818666888,453.60361590000684,453.33191700000316,453.66305670002475,454.3364068000228,454.6602835000085,455.32229340000777,455.64805570000317,right,0,3.836732600000687,453.3921600000176,None,455.87332130002324,None,,,,,,,regvnx,001,0,fr,2022-04-28_14h54.21.625,3-AFC_adaptive_staircase_mess,2022.1.1,None,
,,,,,3,0,3,0,9,0,9,0,,,,,,,,,,,,,,,,left,3000,15,0.00030829750093074097,1,1,1,5,458.78929386666664,None,458.7532907999994,459.07991060000495,None,None,None,None,left,1,0.5258035000006203,458.81429440001375,None,None,None,,,,,,,regvnx,001,0,fr,2022-04-28_14h54.21.625,3-AFC_adaptive_staircase_mess,2022.1.1,None,
,,,,,3,0,3,0,10,0,10,0,,,,,,,,,,,,,,,,up,3000,15,0.00030829750093074097,1,1,1,5,461.8854084666857,None,460.83962550002616,461.15852870000526,461.8428463000164,462.16529990002164,None,None,up,1,1.4669904000184033,460.89823510000133,None,None,None,,,,,,,regvnx,001,0,fr,2022-04-28_14h54.21.625,3-AFC_adaptive_staircase_mess,2022.1.1,None,
,,,,,3,0,3,0,11,0,11,0,,,,,,,,,,,,,,,,left,3000,5,9.749222998790222e-05,-1,2,-1,-5.0,463.93608636668455,None,463.877658900019,464.209428800008,464.87846090001403,465.2075096000044,465.8794429000118,466.209674200014,right,0,3.6814337999967393,463.94753150001634,None,466.44477890001144,None,,,,,,,regvnx,001,0,fr,2022-04-28_14h54.21.625,3-AFC_adaptive_staircase_mess,2022.1.1,None,
,,,,,3,0,3,0,12,0,12,0,,,,,,,,,,,,,,,,right,3000,7.5,0.00013000797815826355,1,3,1,2.5,471.15933116668407,471.3867840000021,469.12800890000653,469.44566320002195,470.13773780001793,470.48871270002564,471.1426645000174,471.47061580000445,left,0,6.637580500013428,469.18403860001126,None,471.67383470002096,None,,,,,,,regvnx,001,0,fr,2022-04-28_14h54.21.625,3-AFC_adaptive_staircase_mess,2022.1.1,None,
,,,,,3,0,3,0,13,0,13,0,,,,,,,,,,,,,,,,left,3000,10.0,0.00017336842522626576,1,3,1,2.5,477.3864863666861,None,477.3286329000257,477.65967670001555,478.34243400002015,478.66604989999905,479.3257584000239,479.64310630000546,left,1,2.5352598000026774,477.3967928000202,None,479.9042007000244,None,,,,,,,regvnx,001,0,fr,2022-04-28_14h54.21.625,3-AFC_adaptive_staircase_mess,2022.1.1,None,
,,,,,3,0,3,0,14,0,14,0,,,,,,,,,,,,,,,,right,3000,10.0,0.00017336842522626576,1,3,1,2.5,483.49005146668446,None,481.43145370000275,481.76027540001087,482.44204520000494,482.7580689000024,483.43141100002686,483.76814070000546,up,0,5.294763299985789,481.50186240000767,None,484.0020336000016,None,,,,,,,regvnx,001,0,fr,2022-04-28_14h54.21.625,3-AFC_adaptive_staircase_mess,2022.1.1,None,
,,,,,3,0,3,0,15,0,15,0,,,,,,,,,,,,,,,,left,3000,12.5,0.00023119051069963006,1,3,1,2.5,488.3572597666682,None,488.34059310000157,488.6662948000012,489.3242720999988,489.6500359000056,490.3082385000016,490.62423560000025,right,0,3.0980086000054143,488.37097000001813,None,490.8553402000107,None,,,,,,,regvnx,001,0,fr,2022-04-28_14h54.21.625,3-AFC_adaptive_staircase_mess,2022.1.1,None,
,,,,,3,0,3,0,16,0,16,0,,,,,,,,,,,,,,,,left,3000,15.0,0.00030829750093074097,1,3,1,2.5,493.02493326669014,None,492.9892065000022,493.31727980001597,None,None,None,None,left,1,0.6269233000057284,493.04999300002237,None,None,None,,,,,,,regvnx,001,0,fr,2022-04-28_14h54.21.625,3-AFC_adaptive_staircase_mess,2022.1.1,None,
,,,,,3,0,3,0,17,0,17,0,,,,,,,,,,,,,,,,up,3000,15.0,0.00030829750093074097,1,3,1,2.5,496.2273289666666,None,495.19618320002337,495.547091800021,496.21066229999997,496.5310515000019,None,None,up,1,1.4241973000171129,495.2442395000253,None,None,None,,,,,,,regvnx,001,0,fr,2022-04-28_14h54.21.625,3-AFC_adaptive_staircase_mess,2022.1.1,None,
,,,,,3,0,3,0,18,0,18,0,,,,,,,,,,,,,,,,up,3000,10.0,0.00017336842522626576,-1,4,-1,-5.0,499.2144614666797,None,498.14616210001986,498.4767858000123,499.1658252000052,499.4971809000126,500.1851464000065,500.5063422000094,right,0,2.885474600014277,498.2156543000019,None,500.70648160000565,None,,,,,,,regvnx,001,0,fr,2022-04-28_14h54.21.625,3-AFC_adaptive_staircase_mess,2022.1.1,None,
,,,,,3,0,3,0,19,0,19,0,,,,,,,,,,,,,,,,right,3000,12.5,0.00023119051069963006,1,5,1,2.5,504.6409925666851,None,502.58685089999926,502.905743100011,503.5946441999986,503.9134336000134,504.5966558000073,504.92398089999915,right,1,2.504121200006921,502.6440976000158,None,505.15171230002306,None,,,,,,,regvnx,001,0,fr,2022-04-28_14h54.21.625,3-AFC_adaptive_staircase_mess,2022.1.1,None,
,,,,,3,0,3,0,20,0,20,0,,,,,,,,,,,,,,,,up,3000,12.5,0.00023119051069963006,1,5,1,2.5,507.7082805666762,None,506.6585196000233,506.9770714000042,507.66081200001645,507.9869996000198,None,None,up,1,1.5853683000023011,506.7161032000149,None,None,None,,,,,,,regvnx,001,0,fr,2022-04-28_14h54.21.625,3-AFC_adaptive_staircase_mess,2022.1.1,None,
,,,,,3,0,3,0,21,0,21,0,,,,,,,,,,,,,,,,up,3000,7.5,0.00013000797815826355,-1,6,-1,-5.0,510.8675829666647,None,509.813229100022,510.1622035000182,510.82333480002126,511.1465423000045,511.79611790002673,512.126470600022,left,0,3.0475691000174265,509.860807900026,None,512.3578462000005,None,,,,,,,regvnx,001,0,fr,2022-04-28_14h54.21.625,3-AFC_adaptive_staircase_mess,2022.1.1,None,
,,,,,4,0,4,0,0,0,0,0,,,,,,,,,,,,,[],[],5,up,4000,50,0.02654422221154942,0,0,-1,5,534.2373241666685,None,533.1965466000256,533.5098296000215,534.2206575000018,534.5532205000054,None,None,up,1,1.367841600003885,533.2523661000014,None,None,None,space,18.7549885000044,513.9781354000152,None,513.9781354000152,515.0012173000141,regvnx,001,0,fr,2022-04-28_14h54.21.625,3-AFC_adaptive_staircase_mess,2022.1.1,None,
,,,,,4,0,4,0,1,0,1,0,,,,,,,,,,,,,,,,up,4000,50,0.02654422221154942,0,0,-1,5,537.1719966666753,None,536.1318492999999,536.4470925000205,537.135820000025,537.4607428000018,None,None,up,1,1.377489600010449,536.1875587000104,None,None,None,,,,,,,regvnx,001,0,fr,2022-04-28_14h54.21.625,3-AFC_adaptive_staircase_mess,2022.1.1,None,
,,,,,4,0,4,0,2,0,2,0,,,,,,,,,,,,,,,,right,4000,40,0.008394020090612802,-1,0,-1,-10,541.1043940666752,None,539.0565483000246,539.3706735000014,540.054435900005,540.3713210000133,541.0602636000258,None,right,1,2.1805217000073753,539.111076000001,None,None,None,,,,,,,regvnx,001,0,fr,2022-04-28_14h54.21.625,3-AFC_adaptive_staircase_mess,2022.1.1,None,
,,,,,4,0,4,0,3,0,3,0,,,,,,,,,,,,,,,,left,4000,40,0.008394020090612802,-1,0,-1,-10,542.8454404666884,543.0628372000065,542.7980433000193,543.1173028000048,None,None,None,None,left,1,0.3558350999956019,542.8562990000064,None,None,None,,,,,,,regvnx,001,0,fr,2022-04-28_14h54.21.625,3-AFC_adaptive_staircase_mess,2022.1.1,None,
,,,,,4,0,4,0,4,0,4,0,,,,,,,,,,,,,,,,right,4000,30,0.0026544222211549416,-1,0,-1,-10,546.7940681666698,None,544.7411991000117,545.0616836000117,545.7455271000217,546.0612788000144,546.7466507000208,None,right,1,2.2393012999964412,544.797659600008,None,None,None,,,,,,,regvnx,001,0,fr,2022-04-28_14h54.21.625,3-AFC_adaptive_staircase_mess,2022.1.1,None,
,,,,,4,0,4,0,5,0,5,0,,,,,,,,,,,,,,,,up,4000,30,0.0026544222211549416,-1,0,-1,-10,549.6086691666899,None,548.5525225000165,548.9037510000053,549.5626763000037,549.8901504000241,None,None,up,1,1.4601991999952588,548.6005548000103,None,None,None,,,,,,,regvnx,001,0,fr,2022-04-28_14h54.21.625,3-AFC_adaptive_staircase_mess,2022.1.1,None,
,,,,,4,0,4,0,6,0,6,0,,,,,,,,,,,,,,,,up,4000,20,0.0008394020090612801,-1,0,-1,-10,552.6197321666734,None,551.5687497000035,551.8882511000265,552.5738910000073,552.8959077000036,None,None,up,1,1.441335400013486,551.6272744000016,None,None,None,,,,,,,regvnx,001,0,fr,2022-04-28_14h54.21.625,3-AFC_adaptive_staircase_mess,2022.1.1,None,
,,,,,4,0,4,0,7,0,7,0,,,,,,,,,,,,,,,,up,4000,20,0.0008394020090612801,-1,0,-1,-10,555.6424474666749,None,554.5890703000186,554.9108830000041,555.5974171000125,555.9242202000169,None,None,up,1,1.3291154000035021,554.6510897000262,None,None,None,,,,,,,regvnx,001,0,fr,2022-04-28_14h54.21.625,3-AFC_adaptive_staircase_mess,2022.1.1,None,
,,,,,4,0,4,0,8,0,8,0,,,,,,,,,,,,,,,,right,4000,10,0.00026544222211549425,-1,0,-1,-10,559.5463963666737,None,557.4903077000054,557.8076385000022,558.4914910000225,558.8128508000227,559.4981874000223,559.8340400000161,right,1,2.3641858999908436,557.5515675000206,None,None,None,,,,,,,regvnx,001,0,fr,2022-04-28_14h54.21.625,3-AFC_adaptive_staircase_mess,2022.1.1,None,
,,,,,4,0,4,0,9,0,9,0,,,,,,,,,,,,,,,,up,4000,10,0.00026544222211549425,-1,0,-1,-10,562.4671485666806,None,561.4167395000113,561.7355434000201,562.4229238000116,562.7501209000184,None,None,up,1,1.6595594999962486,561.4741042000242,None,None,None,,,,,,,regvnx,001,0,fr,2022-04-28_14h54.21.625,3-AFC_adaptive_staircase_mess,2022.1.1,None,
,,,,,4,0,4,0,10,0,10,0,,,,,,,,,,,,,,,,left,4000,0,8.394020090612804e-05,-1,0,-1,-10,564.7023736666927,None,564.685707000026,565.0157256000093,565.6530177000095,565.9698864000093,566.6876927000121,567.0065000000177,right,0,3.935484700021334,564.717209800001,None,567.2088774000003,None,,,,,,,regvnx,001,0,fr,2022-04-28_14h54.21.625,3-AFC_adaptive_staircase_mess,2022.1.1,None,
,,,,,4,0,4,0,11,0,11,0,,,,,,,,,,,,,,,,up,4000,5,0.00014926913094589803,1,1,1,5,571.2213573666852,None,570.1687643000041,570.4930692000198,571.1760500000091,571.5090770000243,572.1722840000002,572.4891522000253,up,1,2.6028436000051443,570.2254924000008,None,572.7192003000237,None,,,,,,,regvnx,001,0,fr,2022-04-28_14h54.21.625,3-AFC_adaptive_staircase_mess,2022.1.1,None,
,,,,,4,0,4,0,12,0,12,0,,,,,,,,,,,,,,,,right,4000,5,0.00014926913094589803,1,1,1,5,576.3717786666859,None,574.3181504000095,574.638248400006,575.3222897000087,575.643088700017,576.3262282000214,576.6487393999996,right,1,4.758244199998444,574.3745337,None,576.8798603000178,None,,,,,,,regvnx,001,0,fr,2022-04-28_14h54.21.625,3-AFC_adaptive_staircase_mess,2022.1.1,None,
,,,,,4,0,4,0,13,0,13,0,,,,,,,,,,,,,,,,up,4000,-5,4.720304381429618e-05,-1,2,-1,-5.0,581.6970722666922,None,580.6471531999996,580.9658134000201,581.6496268000046,581.9879725000064,582.6470807000005,582.9684741000237,left,0,5.068128699989757,580.7040901000146,None,583.1987932000193,None,,,,,,,regvnx,001,0,fr,2022-04-28_14h54.21.625,3-AFC_adaptive_staircase_mess,2022.1.1,None,
,,,,,4,0,4,0,14,0,14,0,,,,,,,,,,,,,,,,right,4000,-2.5,6.294627058970837e-05,1,3,1,2.5,589.3336193666657,None,587.2747333000007,587.5934916000115,588.2811017000058,588.5990623000253,589.2873550000077,589.6111768000119,right,1,3.2556795999989845,587.3331005000218,None,589.8446790000016,None,,,,,,,regvnx,001,0,fr,2022-04-28_14h54.21.625,3-AFC_adaptive_staircase_mess,2022.1.1,None,
,,,,,4,0,4,0,15,0,15,0,,,,,,,,,,,,,,,,left,4000,-2.5,6.294627058970837e-05,1,3,1,2.5,592.1304499666769,None,592.0850872000156,592.4138456000073,593.0827674000175,593.4071024000004,594.0954866000102,594.4254898000218,left,1,3.7103611000056844,592.1425145000103,None,594.657900500024,None,,,,,,,regvnx,001,0,fr,2022-04-28_14h54.21.625,3-AFC_adaptive_staircase_mess,2022.1.1,None,
,,,,,4,0,4,0,16,0,16,0,,,,,,,,,,,,,,,,up,4000,-7.5,3.53972892192069e-05,-1,4,-1,-5.0,598.3955749666823,None,597.3638334000134,597.6930937000143,598.3789083000156,598.7004551000136,599.3683765000023,599.6898330000113,right,0,3.50396499998169,597.4209450000199,None,599.9226313000254,None,,,,,,,regvnx,001,0,fr,2022-04-28_14h54.21.625,3-AFC_adaptive_staircase_mess,2022.1.1,None,
,,,,,4,0,4,0,17,0,17,0,,,,,,,,,,,,,,,,right,4000,-5.0,4.720304381429618e-05,1,5,1,2.5,604.4735013666834,None,602.4365487000032,602.7573840000259,603.4441228000214,603.7711670999997,604.4277985000226,604.7564880000136,right,1,3.503299599979073,602.4934816000168,None,604.9916930000181,None,,,,,,,regvnx,001,0,fr,2022-04-28_14h54.21.625,3-AFC_adaptive_staircase_mess,2022.1.1,None,
,,,,,4,0,4,0,18,0,18,0,,,,,,,,,,,,,,,,right,4000,-5.0,4.720304381429618e-05,1,5,1,2.5,609.5331742666933,None,607.506672700023,607.8263572000142,608.5103723000211,608.8322751000233,609.5165076000267,609.8459103000059,left,0,4.160273399989819,607.5647699000256,None,610.0474167000211,None,,,,,,,regvnx,001,0,fr,2022-04-28_14h54.21.625,3-AFC_adaptive_staircase_mess,2022.1.1,None,
,,,,,4,0,4,0,19,0,19,0,,,,,,,,,,,,,,,,up,4000,-2.5,6.294627058970837e-05,1,5,1,2.5,614.2775914666747,None,613.2536959999998,613.5752946000139,614.2609248000081,614.5891978,615.2481544000038,615.5725006000139,right,0,3.611847399995895,613.3124257000163,None,615.8024175000028,None,,,,,,,regvnx,001,0,fr,2022-04-28_14h54.21.625,3-AFC_adaptive_staircase_mess,2022.1.1,None,
,,,,,4,0,4,0,20,0,20,0,,,,,,,,,,,,,,,,left,4000,0.0,8.394020090612804e-05,1,5,1,2.5,618.5004976666862,None,618.4529312000086,618.7930792000261,619.4541912999994,619.776623200014,620.4682435000141,620.7901007000182,right,0,3.596188700001221,618.5129603000241,None,621.023672100011,None,,,,,,,regvnx,001,0,fr,2022-04-28_14h54.21.625,3-AFC_adaptive_staircase_mess,2022.1.1,None,
,,,,,4,0,4,0,21,0,21,0,,,,,,,,,,,,,,,,up,4000,2.5,0.000111936056928417,1,5,1,2.5,624.6718063666815,None,623.6324575000035,623.9572910999996,624.6254458000185,624.950691200007,625.640936700016,625.9780470000114,left,0,3.2005082999821752,623.6917839000234,None,626.1804247000255,None,,,,,,,regvnx,001,0,fr,2022-04-28_14h54.21.625,3-AFC_adaptive_staircase_mess,2022.1.1,None,
,,,,,4,0,4,0,22,0,22,0,,,,,,,,,,,,,,,,left,4000,5.0,0.00014926913094589803,1,5,1,2.5,628.425770666687,628.6531690000265,628.4091040000203,628.7364471000037,629.3972725000058,629.7204583999992,630.4056530000234,630.7337944000028,up,0,3.0636743999784812,628.4367919000215,None,630.9425774000119,None,,,,,,,regvnx,001,0,fr,2022-04-28_14h54.21.625,3-AFC_adaptive_staircase_mess,2022.1.1,None,
,,,,,4,0,4,0,23,0,23,0,,,,,,,,,,,,,,,,right,4000,7.5,0.00019905358527674868,1,5,1,2.5,635.0375329666751,None,633.0127302000183,633.3348812000186,634.0014322000206,634.3319078000204,635.0208663000085,635.3513088000182,left,0,2.542604200018104,633.0699559000204,None,635.5596004000108,None,,,,,,,regvnx,001,0,fr,2022-04-28_14h54.21.625,3-AFC_adaptive_staircase_mess,2022.1.1,None,
,,,,,4,0,4,0,24,0,24,0,,,,,,,,,,,,,,,,left,4000,10.0,0.00026544222211549425,1,5,1,2.5,637.1573102666919,None,637.1121133000124,637.4445844000147,None,None,None,None,left,1,0.4256481000047643,637.1708221000154,None,None,None,,,,,,,regvnx,001,0,fr,2022-04-28_14h54.21.625,3-AFC_adaptive_staircase_mess,2022.1.1,None,
,,,,,4,0,4,0,25,0,25,0,,,,,,,,,,,,,,,,left,4000,10.0,0.00026544222211549425,1,5,1,2.5,639.1565486666843,639.383181000012,639.1080414000025,639.4457458000106,None,None,None,None,left,1,0.44319100002758205,639.1691419999988,None,None,None,,,,,,,regvnx,001,0,fr,2022-04-28_14h54.21.625,3-AFC_adaptive_staircase_mess,2022.1.1,None,
,,,,,4,0,4,0,26,0,26,0,,,,,,,,,,,,,,,,up,4000,5.0,0.00014926913094589803,-1,6,-1,-5.0,642.1627536666676,None,641.1310730000259,641.4541449000244,642.1172431000159,642.4481681000034,None,None,up,1,1.5902955000055954,641.1894189000013,None,None,None,,,,,,,regvnx,001,0,fr,2022-04-28_14h54.21.625,3-AFC_adaptive_staircase_mess,2022.1.1,None,
,,,,,5,0,5,0,0,0,0,0,,,,,,,,,,,,,[],[],5,right,6000,50,0.03664122665694519,0,0,-1,5,674.4579610666881,None,672.4241885000083,672.7597188000218,673.4167880000023,673.74163460001,674.4095369999995,None,right,1,2.23111299998709,672.4531851000211,None,None,None,comma,28.071887900005095,643.8598824000219,None,643.8598824000219,644.8779886000266,regvnx,001,0,fr,2022-04-28_14h54.21.625,3-AFC_adaptive_staircase_mess,2022.1.1,None,
,,,,,5,0,5,0,1,0,1,0,,,,,,,,,,,,,,,,up,6000,50,0.03664122665694519,0,0,-1,5,677.2114249666668,None,676.186551300023,676.513698900002,677.1947583000001,677.526434600004,None,None,up,1,1.3033069999946747,676.2451859000139,None,None,None,,,,,,,regvnx,001,0,fr,2022-04-28_14h54.21.625,3-AFC_adaptive_staircase_mess,2022.1.1,None,
,,,,,5,0,5,0,2,0,2,0,,,,,,,,,,,,,,,,left,6000,40,0.01158697324984239,-1,0,-1,-10,679.0959815666758,None,679.0467733000114,679.3874317000154,None,None,None,None,left,1,0.44044369997573085,679.1086370999983,None,None,None,,,,,,,regvnx,001,0,fr,2022-04-28_14h54.21.625,3-AFC_adaptive_staircase_mess,2022.1.1,None,
,,,,,5,0,5,0,3,0,3,0,,,,,,,,,,,,,,,,right,6000,40,0.01158697324984239,-1,0,-1,-10,683.1001289666785,None,681.0666199000261,681.403669100022,682.0759562000167,682.3956021000049,683.0512552,None,right,1,1.9941148000070825,681.123861,None,None,None,,,,,,,regvnx,001,0,fr,2022-04-28_14h54.21.625,3-AFC_adaptive_staircase_mess,2022.1.1,None,
,,,,,5,0,5,0,4,0,4,0,,,,,,,,,,,,,,,,up,6000,30,0.003664122665694519,-1,0,-1,-10,685.6748042666916,None,684.6586705000082,684.9872711000207,685.6581376000249,685.9888619000267,None,None,up,1,1.418094699998619,684.6898915000202,None,None,None,,,,,,,regvnx,001,0,fr,2022-04-28_14h54.21.625,3-AFC_adaptive_staircase_mess,2022.1.1,None,
,,,,,5,0,5,0,5,0,5,0,,,,,,,,,,,,,,,,left,6000,30,0.003664122665694519,-1,0,-1,-10,687.6738407666892,None,687.6259092000255,687.9610711999994,None,None,None,None,left,1,0.3397059000271838,687.6885273000225,None,None,None,,,,,,,regvnx,001,0,fr,2022-04-28_14h54.21.625,3-AFC_adaptive_staircase_mess,2022.1.1,None,
,,,,,5,0,5,0,6,0,6,0,,,,,,,,,,,,,,,,left,6000,20,0.0011586973249842392,-1,0,-1,-10,689.5991587666833,None,689.5540037000028,689.888514500024,None,None,None,None,left,1,0.35380079998867586,689.6111115000094,None,None,None,,,,,,,regvnx,001,0,fr,2022-04-28_14h54.21.625,3-AFC_adaptive_staircase_mess,2022.1.1,None,
,,,,,5,0,5,0,7,0,7,0,,,,,,,,,,,,,,,,left,6000,20,0.0011586973249842392,-1,0,-1,-10,691.5345677666812,None,691.4856257000065,691.829050100001,None,None,None,None,left,1,0.325499900005525,691.5436104000255,None,None,None,,,,,,,regvnx,001,0,fr,2022-04-28_14h54.21.625,3-AFC_adaptive_staircase_mess,2022.1.1,None,
,,,,,5,0,5,0,8,0,8,0,,,,,,,,,,,,,,,,left,6000,10,0.00036641226656945183,-1,0,-1,-10,693.4448520666667,None,693.3969407000113,693.7320380000165,None,None,None,None,left,1,0.32856059999903664,693.4599849000224,None,None,None,,,,,,,regvnx,001,0,fr,2022-04-28_14h54.21.625,3-AFC_adaptive_staircase_mess,2022.1.1,None,
,,,,,5,0,5,0,9,0,9,0,,,,,,,,,,,,,,,,left,6000,10,0.00036641226656945183,-1,0,-1,-10,695.3232431666731,None,695.3065765000065,695.6151012000046,None,None,None,None,left,1,0.30616960002225824,695.3381047000003,None,None,None,,,,,,,regvnx,001,0,fr,2022-04-28_14h54.21.625,3-AFC_adaptive_staircase_mess,2022.1.1,None,
,,,,,5,0,5,0,10,0,10,0,,,,,,,,,,,,,,,,left,6000,0,0.00011586973249842387,-1,0,-1,-10,697.1885382666699,None,697.1718716000032,697.5098301000253,698.15963010001,698.4843827000004,699.165241300012,699.4958928000124,right,0,3.610113500006264,697.201913900004,None,699.7350301000115,None,,,,,,,regvnx,001,0,fr,2022-04-28_14h54.21.625,3-AFC_adaptive_staircase_mess,2022.1.1,None,
,,,,,5,0,5,0,11,0,11,0,,,,,,,,,,,,,,,,left,6000,5,0.000206048759548665,1,1,1,5,702.3810722666715,None,702.3326443000115,702.6699839000066,None,None,None,None,left,1,0.45211750001180917,702.3919129999995,None,None,None,,,,,,,regvnx,001,0,fr,2022-04-28_14h54.21.625,3-AFC_adaptive_staircase_mess,2022.1.1,None,
,,,,,5,0,5,0,12,0,12,0,,,,,,,,,,,,,,,,left,6000,5,0.000206048759548665,1,1,1,5,704.4058935666728,None,704.3892269000062,704.721192500001,None,None,None,None,left,1,0.39653480000561103,704.4167518000177,None,None,None,,,,,,,regvnx,001,0,fr,2022-04-28_14h54.21.625,3-AFC_adaptive_staircase_mess,2022.1.1,None,
,,,,,5,0,5,0,13,0,13,0,,,,,,,,,,,,,,,,left,6000,-5,6.515833892261494e-05,-1,2,-1,-5.0,706.3663856666865,None,706.3497190000198,706.6750826000061,707.3568588000198,707.679389500001,708.3430152000219,708.663441200013,right,0,2.9269767999940086,706.3811233000015,None,708.8944046000252,None,,,,,,,regvnx,001,0,fr,2022-04-28_14h54.21.625,3-AFC_adaptive_staircase_mess,2022.1.1,None,
,,,,,5,0,5,0,14,0,14,0,,,,,,,,,,,,,,,,left,6000,-2.5,8.689004143746872e-05,1,3,1,2.5,710.8368557666874,None,710.7884008000256,711.1195805000025,711.8145508000161,712.1417741000187,712.8048974999983,713.1319774000149,left,1,10.09136080002645,710.849712300027,None,713.3657147000195,None,,,,,,,regvnx,001,0,fr,2022-04-28_14h54.21.625,3-AFC_adaptive_staircase_mess,2022.1.1,None,
,,,,,5,0,5,0,15,0,15,0,,,,,,,,,,,,,,,,left,6000,-2.5,8.689004143746872e-05,1,3,1,2.5,722.5085264666743,None,722.4631979000114,722.8009136000182,723.4709892000246,None,None,None,left,1,1.1398200999828987,722.5210476000211,None,None,None,,,,,,,regvnx,001,0,fr,2022-04-28_14h54.21.625,3-AFC_adaptive_staircase_mess,2022.1.1,None,
,,,,,5,0,5,0,16,0,16,0,,,,,,,,,,,,,,,,right,6000,-7.5,4.886186104779051e-05,-1,4,-1,-5.0,727.2054433666674,None,725.1762006000208,725.4995516000199,726.1697666000109,726.4996666000225,727.1887767000007,727.5098363000143,right,1,3.9960125000216067,725.232984000002,None,727.7303133000096,None,,,,,,,regvnx,001,0,fr,2022-04-28_14h54.21.625,3-AFC_adaptive_staircase_mess,2022.1.1,None,
,,,,,5,0,5,0,17,0,17,0,,,,,,,,,,,,,,,,up,6000,-7.5,4.886186104779051e-05,-1,4,-1,-5.0,731.8020021666928,None,730.7447821000242,731.0679978000117,731.7527578000154,732.0827618000039,732.7428276000137,733.0633112000069,right,0,3.203300399996806,730.8083168000157,None,733.2958301000181,None,,,,,,,regvnx,001,0,fr,2022-04-28_14h54.21.625,3-AFC_adaptive_staircase_mess,2022.1.1,None,
,,,,,5,0,5,0,18,0,18,0,,,,,,,,,,,,,,,,up,6000,-5.0,6.515833892261494e-05,1,5,1,2.5,736.5537521666886,736.7805977000098,735.5221835000266,735.8446233000141,736.5074094000156,736.838968200027,737.5267562000081,737.8503939000075,up,1,2.9772702000045683,735.5790082000021,None,738.0824170999986,None,,,,,,,regvnx,001,0,fr,2022-04-28_14h54.21.625,3-AFC_adaptive_staircase_mess,2022.1.1,None,
,,,,,5,0,5,0,19,0,19,0,,,,,,,,,,,,,,,,left,6000,-5.0,6.515833892261494e-05,1,5,1,2.5,740.1278281666785,None,740.0809711000184,740.4099533000262,741.0586764000182,741.387784600025,742.0828891000128,742.4221756000188,right,0,3.0883157000062056,740.1399237000151,None,742.627295000013,None,,,,,,,regvnx,001,0,fr,2022-04-28_14h54.21.625,3-AFC_adaptive_staircase_mess,2022.1.1,None,
,,,,,5,0,5,0,20,0,20,0,,,,,,,,,,,,,,,,left,6000,-2.5,8.689004143746872e-05,1,5,1,2.5,744.8082746666662,None,744.7635102000204,745.0872903999989,745.7784936000244,746.0938007000077,746.7635975000157,747.0909898000245,right,0,4.1200612999964505,744.8203954000201,None,747.3229056000127,None,,,,,,,regvnx,001,0,fr,2022-04-28_14h54.21.625,3-AFC_adaptive_staircase_mess,2022.1.1,None,
,,,,,5,0,5,0,21,0,21,0,,,,,,,,,,,,,,,,right,6000,0.0,0.00011586973249842387,1,5,1,2.5,752.5170537666747,None,750.4727091000241,750.7970515000052,751.487025200011,751.7996147000231,752.470767700026,752.799897400022,up,0,2.615476699982537,750.5328619000211,None,753.032572600001,None,,,,,,,regvnx,001,0,fr,2022-04-28_14h54.21.625,3-AFC_adaptive_staircase_mess,2022.1.1,None,
,,,,,5,0,5,0,22,0,22,0,,,,,,,,,,,,,,,,up,6000,2.5,0.00015451477162567947,1,5,1,2.5,755.6749317666729,None,754.63852030001,754.9659284000227,755.6582651000062,755.991334100021,756.6387251000269,756.9664240000129,left,0,3.131535599997733,754.7055660000187,None,757.1990228000213,None,,,,,,,regvnx,001,0,fr,2022-04-28_14h54.21.625,3-AFC_adaptive_staircase_mess,2022.1.1,None,
,,,,,5,0,5,0,23,0,23,0,,,,,,,,,,,,,,,,right,6000,5.0,0.000206048759548665,1,5,1,2.5,761.38344826669,761.6094012000249,759.3722488000058,759.6945562000037,760.3564753000101,760.6779692000127,761.341001200024,761.6638978000265,right,1,2.498699599993415,759.4019339000224,None,761.8907463000214,None,,,,,,,regvnx,001,0,fr,2022-04-28_14h54.21.625,3-AFC_adaptive_staircase_mess,2022.1.1,None,
,,,,,5,0,5,0,24,0,24,0,,,,,,,,,,,,,,,,left,6000,5.0,0.000206048759548665,1,5,1,2.5,763.4451616666668,None,763.3998665000254,763.7288765000121,None,None,None,None,left,1,0.508101200015517,763.4574139000033,None,None,None,,,,,,,regvnx,001,0,fr,2022-04-28_14h54.21.625,3-AFC_adaptive_staircase_mess,2022.1.1,None,
,,,,,5,0,5,0,25,0,25,0,,,,,,,,,,,,,,,,right,6000,0.0,0.00011586973249842387,-1,6,-1,-5.0,767.5323146666672,None,765.4869430000253,765.8145860000222,766.4820543000242,766.809768600011,767.4856749000028,767.819136200007,up,0,4.181228600005852,765.5433581000252,None,768.0498024000262,None,,,,,,,regvnx,001,0,fr,2022-04-28_14h54.21.625,3-AFC_adaptive_staircase_mess,2022.1.1,None,
,,,,,6,0,6,0,0,0,0,0,,,,,,,,,,,,,[],[],5,left,8000,50,0.05740768107484415,0,0,-1,5,788.905857466689,None,788.8603005000041,789.1882256000245,None,None,None,None,left,1,0.5173903999966569,788.9190460000245,None,None,None,space,17.584626500000013,770.7957390000229,None,770.7957390000229,771.8154730000242,regvnx,001,0,fr,2022-04-28_14h54.21.625,3-AFC_adaptive_staircase_mess,2022.1.1,None,
,,,,,6,0,6,0,1,0,1,0,,,,,,,,,,,,,,,,right,8000,50,0.05740768107484415,0,0,-1,5,792.9979137666853,None,790.9737181000237,791.3008880999987,791.9569813999988,792.2769128000073,792.9541743000154,793.2766733000171,right,1,2.2905024999927264,791.0025049000105,None,None,None,,,,,,,regvnx,001,0,fr,2022-04-28_14h54.21.625,3-AFC_adaptive_staircase_mess,2022.1.1,None,
,,,,,6,0,6,0,2,0,2,0,,,,,,,,,,,,,,,,left,8000,40,0.018153902738505076,-1,0,-1,-10,794.8326351666803,None,794.788762000011,None,None,None,None,None,right,0,0.2400019000051543,794.8445320000174,None,None,None,,,,,,,regvnx,001,0,fr,2022-04-28_14h54.21.625,3-AFC_adaptive_staircase_mess,2022.1.1,None,
,,,,,6,0,6,0,3,0,3,0,,,,,,,,,,,,,,,,right,8000,45,0.03228271145173279,1,1,1,5,798.6161446666849,None,796.5639139999985,796.9158244999999,797.5683304000122,797.8798238000018,798.5681853000133,798.8995337000233,right,1,2.3277296999876853,796.6130625000224,None,None,None,,,,,,,regvnx,001,0,fr,2022-04-28_14h54.21.625,3-AFC_adaptive_staircase_mess,2022.1.1,None,
,,,,,6,0,6,0,4,0,4,0,,,,,,,,,,,,,,,,up,8000,45,0.03228271145173279,1,1,1,5,801.4776440666794,None,800.4228932000115,800.7379053000186,801.4172691999993,801.7504245000018,None,None,up,1,1.6262194000009913,800.4825754000049,None,None,None,,,,,,,regvnx,001,0,fr,2022-04-28_14h54.21.625,3-AFC_adaptive_staircase_mess,2022.1.1,None,
,,,,,6,0,6,0,5,0,5,0,,,,,,,,,,,,,,,,right,8000,35,0.01020868972334765,-1,2,-1,-5.0,805.6653639666658,None,803.648549400008,803.964003800007,804.6477306000015,804.9676232000056,805.6486972999992,805.9701494000037,right,1,2.302704800007632,803.6777734000061,None,None,None,,,,,,,regvnx,001,0,fr,2022-04-28_14h54.21.625,3-AFC_adaptive_staircase_mess,2022.1.1,None,
,,,,,6,0,6,0,6,0,6,0,,,,,,,,,,,,,,,,right,8000,35,0.01020868972334765,-1,2,-1,-5.0,809.5380711666696,None,807.4923523000034,807.8133103,808.495716400008,808.8126733000099,809.4921779000142,809.8126570000022,right,1,2.251115999999456,807.5532540999993,None,None,None,,,,,,,regvnx,001,0,fr,2022-04-28_14h54.21.625,3-AFC_adaptive_staircase_mess,2022.1.1,None,
,,,,,6,0,6,0,7,0,7,0,,,,,,,,,,,,,,,,up,8000,30.0,0.005740768107484416,-1,2,-1,-5.0,812.3356417666694,None,811.2858002000139,811.593226500001,812.2916763000248,812.6187989000173,None,None,up,1,1.4541704999865033,811.3423465000233,None,None,None,,,,,,,regvnx,001,0,fr,2022-04-28_14h54.21.625,3-AFC_adaptive_staircase_mess,2022.1.1,None,
,,,,,6,0,6,0,8,0,8,0,,,,,,,,,,,,,,,,right,8000,30.0,0.005740768107484416,-1,2,-1,-5.0,816.3520070666893,None,814.2980818000215,814.629650900024,815.3152462000144,815.6444581000251,816.3353404000227,None,right,1,2.222465300001204,814.366488700005,None,None,None,,,,,,,regvnx,001,0,fr,2022-04-28_14h54.21.625,3-AFC_adaptive_staircase_mess,2022.1.1,None,
,,,,,6,0,6,0,9,0,9,0,,,,,,,,,,,,,,,,left,8000,25.0,0.003228271145173279,-1,2,-1,-5.0,818.1425893666785,None,818.097436800017,818.4200361000258,819.1073413000267,None,None,None,left,1,0.9294033999904059,818.1546710000257,None,None,None,,,,,,,regvnx,001,0,fr,2022-04-28_14h54.21.625,3-AFC_adaptive_staircase_mess,2022.1.1,None,
,,,,,6,0,6,0,10,0,10,0,,,,,,,,,,,,,,,,up,8000,25.0,0.003228271145173279,-1,2,-1,-5.0,821.6357468666722,None,820.5847961000109,820.9066108000115,821.5897056000249,821.9237739000237,None,None,up,1,1.5109854999755044,820.6457005000266,None,None,None,,,,,,,regvnx,001,0,fr,2022-04-28_14h54.21.625,3-AFC_adaptive_staircase_mess,2022.1.1,None,
,,,,,6,0,6,0,11,0,11,0,,,,,,,,,,,,,,,,right,8000,20.0,0.0018153902738505074,-1,2,-1,-5.0,825.714734866666,None,823.6754051000171,824.0094168000214,824.6897538000194,825.0104578000028,825.6691740000097,None,right,1,2.1997475000098348,823.7324420000077,None,None,None,,,,,,,regvnx,001,0,fr,2022-04-28_14h54.21.625,3-AFC_adaptive_staircase_mess,2022.1.1,None,
,,,,,6,0,6,0,12,0,12,0,,,,,,,,,,,,,,,,right,8000,20.0,0.0018153902738505074,-1,2,-1,-5.0,829.4922689666894,None,827.4420229000098,827.7590544999985,828.442271500011,828.7596507000271,829.4480086000112,829.767943200015,right,1,2.4176230000157375,827.499114700011,None,None,None,,,,,,,regvnx,001,0,fr,2022-04-28_14h54.21.625,3-AFC_adaptive_staircase_mess,2022.1.1,None,
,,,,,6,0,6,0,13,0,13,0,,,,,,,,,,,,,,,,left,8000,15.0,0.001020868972334765,-1,2,-1,-5.0,831.4574999666695,831.6835809000186,831.4146455000155,831.7387156000186,None,None,None,None,left,1,0.3992113000131212,831.4695829999982,None,None,None,,,,,,,regvnx,001,0,fr,2022-04-28_14h54.21.625,3-AFC_adaptive_staircase_mess,2022.1.1,None,
,,,,,6,0,6,0,14,0,14,0,,,,,,,,,,,,,,,,left,8000,15.0,0.001020868972334765,-1,2,-1,-5.0,833.4191460666809,833.6467530000082,833.4024794000143,833.7316493000253,None,None,None,None,left,1,0.29272960001253523,833.4312521000102,None,None,None,,,,,,,regvnx,001,0,fr,2022-04-28_14h54.21.625,3-AFC_adaptive_staircase_mess,2022.1.1,None,
,,,,,6,0,6,0,15,0,15,0,,,,,,,,,,,,,,,,up,8000,10.0,0.0005740768107484417,-1,2,-1,-5.0,836.2780198666771,None,835.2207591000188,835.5541788999981,836.2197560000059,836.5550275999994,None,None,up,1,1.345785599987721,835.2903636000119,None,None,None,,,,,,,regvnx,001,0,fr,2022-04-28_14h54.21.625,3-AFC_adaptive_staircase_mess,2022.1.1,None,
,,,,,6,0,6,0,16,0,16,0,,,,,,,,,,,,,,,,left,8000,10.0,0.0005740768107484417,-1,2,-1,-5.0,838.1625745666718,None,838.1179375000065,838.445824000024,None,None,None,None,left,1,0.44636349999927916,838.1740089000086,None,None,None,,,,,,,regvnx,001,0,fr,2022-04-28_14h54.21.625,3-AFC_adaptive_staircase_mess,2022.1.1,None,
,,,,,6,0,6,0,17,0,17,0,,,,,,,,,,,,,,,,up,8000,5.0,0.00032282711451732784,-1,2,-1,-5.0,841.1710293666731,None,840.1157345000247,840.4365737000189,841.1247829000058,841.4453439000063,None,None,up,1,1.345048899995163,840.1721027000167,None,None,None,,,,,,,regvnx,001,0,fr,2022-04-28_14h54.21.625,3-AFC_adaptive_staircase_mess,2022.1.1,None,
,,,,,6,0,6,0,18,0,18,0,,,,,,,,,,,,,,,,right,8000,5.0,0.00032282711451732784,-1,2,-1,-5.0,845.0486444666788,None,843.0135416999983,843.3388835000223,844.0225599000114,844.3441405000049,845.0319778000121,None,right,1,2.252168100007111,843.0727325000043,None,None,None,,,,,,,regvnx,001,0,fr,2022-04-28_14h54.21.625,3-AFC_adaptive_staircase_mess,2022.1.1,None,
,,,,,6,0,6,0,19,0,19,0,,,,,,,,,,,,,,,,left,8000,0.0,0.0001815390273850507,-1,2,-1,-5.0,846.8751746666715,None,846.8585080000048,847.1795148000238,None,None,None,None,left,1,0.4045353000110481,846.8874267000065,None,None,None,,,,,,,regvnx,001,0,fr,2022-04-28_14h54.21.625,3-AFC_adaptive_staircase_mess,2022.1.1,None,
,,,,,6,0,6,0,20,0,20,0,,,,,,,,,,,,,,,,right,8000,0.0,0.0001815390273850507,-1,2,-1,-5.0,None,None,848.7917936000158,849.1004501999996,None,None,None,None,left,0,0.7479196999920532,848.848667800019,None,None,None,,,,,,,regvnx,001,0,fr,2022-04-28_14h54.21.625,3-AFC_adaptive_staircase_mess,2022.1.1,None,
,,,,,6,0,6,0,21,0,21,0,,,,,,,,,,,,,,,,right,8000,2.5,0.00024208618379204972,1,3,1,2.5,853.1361980666736,None,851.0757221000094,851.3944269000203,852.0840108000266,852.4041607000108,853.0870261000236,853.426859500003,right,1,2.447076000011293,851.1329420000257,None,853.6155431666741,None,,,,,,,regvnx,001,0,fr,2022-04-28_14h54.21.625,3-AFC_adaptive_staircase_mess,2022.1.1,None,
,,,,,6,0,6,0,22,0,22,0,,,,,,,,,,,,,,,,right,8000,2.5,0.00024208618379204972,1,3,1,2.5,857.1146578666851,None,855.0744221000059,855.3944216000091,856.0901321000129,856.4121446000063,857.0979912000184,None,right,1,2.2396441999881063,855.132325100014,None,None,None,,,,,,,regvnx,001,0,fr,2022-04-28_14h54.21.625,3-AFC_adaptive_staircase_mess,2022.1.1,None,
,,,,,6,0,6,0,23,0,23,0,,,,,,,,,,,,,,,,left,8000,-2.5,0.00013613506540389563,-1,4,-1,-5.0,858.9538539666721,None,858.9084438999998,859.2334289000137,859.9180592000193,None,None,None,left,1,0.9981110999942757,858.9661443000077,None,None,None,,,,,,,regvnx,001,0,fr,2022-04-28_14h54.21.625,3-AFC_adaptive_staircase_mess,2022.1.1,None,
,,,,,6,0,6,0,24,0,24,0,,,,,,,,,,,,,,,,up,8000,-2.5,0.00013613506540389563,-1,4,-1,-5.0,862.5326886666919,None,861.4756468000123,861.7940736000019,862.4844842000166,862.8091416000098,None,None,up,1,1.3923538000090048,861.5321723000088,None,None,None,,,,,,,regvnx,001,0,fr,2022-04-28_14h54.21.625,3-AFC_adaptive_staircase_mess,2022.1.1,None,
,,,,,6,0,6,0,25,0,25,0,,,,,,,,,,,,,,,,right,8000,-7.5,7.655437308410152e-05,-1,4,-1,-5.0,866.4702803666917,None,864.4080738000048,864.729124000005,865.4177256000112,865.7328252000152,866.425332200015,866.7532728000078,right,1,2.555076700024074,864.4658116000064,None,866.9837879000115,None,,,,,,,regvnx,001,0,fr,2022-04-28_14h54.21.625,3-AFC_adaptive_staircase_mess,2022.1.1,None,
,,,,,6,0,6,0,26,0,26,0,,,,,,,,,,,,,,,,left,8000,-7.5,7.655437308410152e-05,-1,4,-1,-5.0,868.567043466672,None,868.5503768000053,868.8727764000068,869.5365194000187,869.8536972000147,870.5486163000169,870.867762800015,right,0,3.5606757000205107,868.5797601000231,None,871.0971560000035,None,,,,,,,regvnx,001,0,fr,2022-04-28_14h54.21.625,3-AFC_adaptive_staircase_mess,2022.1.1,None,
,,,,,6,0,6,0,27,0,27,0,,,,,,,,,,,,,,,,left,8000,-5.0,0.00010208689723347648,1,5,1,2.5,873.7109404666737,873.931601600023,873.6633120000188,873.9851537000213,None,None,None,None,left,1,0.5144026999769267,873.7224068000214,None,None,None,,,,,,,regvnx,001,0,fr,2022-04-28_14h54.21.625,3-AFC_adaptive_staircase_mess,2022.1.1,None,
,,,,,6,0,6,0,28,0,28,0,,,,,,,,,,,,,,,,right,8000,-5.0,0.00010208689723347648,1,5,1,2.5,877.7961155666892,None,875.7447607000067,876.0687203000125,876.7305916000041,877.0483544000017,877.7474018000066,878.0784806000011,right,1,2.364432799979113,875.8081301000202,None,None,None,,,,,,,regvnx,001,0,fr,2022-04-28_14h54.21.625,3-AFC_adaptive_staircase_mess,2022.1.1,None,
,,,,,6,0,6,0,29,0,29,0,,,,,,,,,,,,,,,,up,8000,-10.0,5.740768107484415e-05,-1,6,-1,-5.0,880.7393297666897,None,879.6969009000168,880.0092673000181,880.6931057000184,881.0076013000216,881.6971191000193,882.01577920001,right,0,2.762314499996137,879.7289797000121,None,882.2456365000107,None,,,,,,,regvnx,001,0,fr,2022-04-28_14h54.21.625,3-AFC_adaptive_staircase_mess,2022.1.1,None,
,,,,,7,0,7,0,0,0,0,0,,,,,,,,,,,,,[],[],5,right,750,50,0.012851978913844325,0,0,-1,5,912.6311715666709,None,910.5902666000184,910.9098482000118,911.6086348000099,911.9256237000227,912.5858569000266,912.9166041999997,right,1,2.2619409000035375,910.6460931000183,None,None,None,space,26.544415199983632,883.5797823000175,None,883.5797823000175,884.5995835000067,regvnx,001,0,fr,2022-04-28_14h54.21.625,3-AFC_adaptive_staircase_mess,2022.1.1,None,
,,,,,7,0,7,0,1,0,1,0,,,,,,,,,,,,,,,,up,750,50,0.012851978913844325,0,0,-1,5,915.4394064666742,None,914.4122217000113,914.7340231000271,915.4227398000075,915.7509170999983,None,None,up,1,1.4300704000052065,914.470948400005,None,None,None,,,,,,,regvnx,001,0,fr,2022-04-28_14h54.21.625,3-AFC_adaptive_staircase_mess,2022.1.1,None,
,,,,,7,0,7,0,2,0,2,0,,,,,,,,,,,,,,,,up,750,40,0.004064152580820497,-1,0,-1,-10,918.4593872666921,None,917.4489979000064,917.7815237000177,918.4427206000255,918.7706136000052,None,None,up,1,1.333986299985554,917.4782414000074,None,None,None,,,,,,,regvnx,001,0,fr,2022-04-28_14h54.21.625,3-AFC_adaptive_staircase_mess,2022.1.1,None,
,,,,,7,0,7,0,3,0,3,0,,,,,,,,,,,,,,,,up,750,40,0.004064152580820497,-1,0,-1,-10,921.359842066686,None,920.3212056000193,920.6516600000032,921.3431754000194,921.6736206000205,None,None,up,1,1.3761736000014935,920.3802153000142,None,None,None,,,,,,,regvnx,001,0,fr,2022-04-28_14h54.21.625,3-AFC_adaptive_staircase_mess,2022.1.1,None,
,,,,,7,0,7,0,4,0,4,0,,,,,,,,,,,,,,,,left,750,30,0.0012851978913844323,-1,0,-1,-10,923.2859597666868,None,923.2692931000201,923.5974790000182,None,None,None,None,left,1,0.45854410002357326,923.2972878,None,None,None,,,,,,,regvnx,001,0,fr,2022-04-28_14h54.21.625,3-AFC_adaptive_staircase_mess,2022.1.1,None,
,,,,,7,0,7,0,5,0,5,0,,,,,,,,,,,,,,,,up,750,30,0.0012851978913844323,-1,0,-1,-10,926.3175803666857,None,925.2613686000113,925.5828599000233,926.2730624000251,926.6044603000046,None,None,up,1,1.3795164999901317,925.3213589000225,None,None,None,,,,,,,regvnx,001,0,fr,2022-04-28_14h54.21.625,3-AFC_adaptive_staircase_mess,2022.1.1,None,
,,,,,7,0,7,0,6,0,6,0,,,,,,,,,,,,,,,,right,750,20,0.00040641525808204974,-1,0,-1,-10,930.2485681666915,None,928.2091305000067,928.5295216000231,929.2195524999988,929.5363036000053,930.2003227000241,930.5366663000023,right,1,2.4029796000104398,928.2647701000096,None,None,None,,,,,,,regvnx,001,0,fr,2022-04-28_14h54.21.625,3-AFC_adaptive_staircase_mess,2022.1.1,None,
,,,,,7,0,7,0,7,0,7,0,,,,,,,,,,,,,,,,up,750,20,0.00040641525808204974,-1,0,-1,-10,933.2177072666857,None,932.1768573000154,932.5033175999997,933.1692166000139,933.5064765000134,None,None,up,1,1.2803529000084382,932.2358570000215,None,None,None,,,,,,,regvnx,001,0,fr,2022-04-28_14h54.21.625,3-AFC_adaptive_staircase_mess,2022.1.1,None,
,,,,,7,0,7,0,8,0,8,0,,,,,,,,,,,,,,,,left,750,10,0.00012851978913844324,-1,0,-1,-10,935.0895422666838,None,935.044521200005,935.3752526000026,None,None,None,None,left,1,0.5877962000085972,935.1038073000091,None,None,None,,,,,,,regvnx,001,0,fr,2022-04-28_14h54.21.625,3-AFC_adaptive_staircase_mess,2022.1.1,None,
,,,,,7,0,7,0,9,0,9,0,,,,,,,,,,,,,,,,right,750,10,0.00012851978913844324,-1,0,-1,-10,939.238002466682,None,937.1849412000156,937.507877200027,938.2004333000223,938.5259235000121,939.1924423000019,939.5245682000241,right,1,2.4341412999783643,937.2416550000198,None,939.714155866681,None,,,,,,,regvnx,001,0,fr,2022-04-28_14h54.21.625,3-AFC_adaptive_staircase_mess,2022.1.1,None,
,,,,,7,0,7,0,10,0,10,0,,,,,,,,,,,,,,,,right,750,0,4.064152580820497e-05,-1,0,-1,-10,943.2459336666836,None,941.1996384000231,941.5229317000194,942.1837534000224,942.5090070000151,943.2006559000001,943.5333392000175,right,1,4.863037399976747,941.2600442000257,None,943.738937600021,None,,,,,,,regvnx,001,0,fr,2022-04-28_14h54.21.625,3-AFC_adaptive_staircase_mess,2022.1.1,None,
,,,,,7,0,7,0,11,0,11,0,,,,,,,,,,,,,,,,up,750,0,4.064152580820497e-05,-1,0,-1,-10,948.6897873666933,None,947.6508925000089,947.9808279999997,948.6445587000053,948.9832353000238,949.6488545000029,949.974272899999,right,0,4.252021199994488,947.711790900008,None,950.2048473000177,None,,,,,,,regvnx,001,0,fr,2022-04-28_14h54.21.625,3-AFC_adaptive_staircase_mess,2022.1.1,None,
,,,,,7,0,7,0,12,0,12,0,,,,,,,,,,,,,,,,left,750,5,7.22719885372964e-05,1,1,1,5,953.5319495666811,None,953.4850885000196,953.8267858000181,954.4785847000021,954.8049093000009,955.4985024000052,955.8237110000046,left,1,3.075896099995589,953.5444933000254,None,956.027450100024,None,,,,,,,regvnx,001,0,fr,2022-04-28_14h54.21.625,3-AFC_adaptive_staircase_mess,2022.1.1,None,
,,,,,7,0,7,0,13,0,13,0,,,,,,,,,,,,,,,,left,750,5,7.22719885372964e-05,1,1,1,5,958.1484413666806,None,958.1038497000118,958.4350580000028,959.1285830000124,959.4615125000128,960.0994618000113,960.430780100025,up,0,3.6411417000053916,958.1635532000219,None,960.6661352000083,None,,,,,,,regvnx,001,0,fr,2022-04-28_14h54.21.625,3-AFC_adaptive_staircase_mess,2022.1.1,None,
,,,,,7,0,7,0,14,0,14,0,,,,,,,,,,,,,,,,up,750,10,0.00012851978913844324,1,1,1,5,964.3879299666771,None,963.350591800001,963.6837319000042,964.3396982000268,964.6747923000075,None,None,up,1,1.4327004000078887,963.3795062999998,None,None,None,,,,,,,regvnx,001,0,fr,2022-04-28_14h54.21.625,3-AFC_adaptive_staircase_mess,2022.1.1,None,
,,,,,7,0,7,0,15,0,15,0,,,,,,,,,,,,,,,,up,750,10,0.00012851978913844324,1,1,1,5,967.3665971666671,None,966.3278640000208,966.6499382000184,967.3203232000233,967.6518077000219,None,None,up,1,1.4339176999928895,966.3857361000264,None,None,None,,,,,,,regvnx,001,0,fr,2022-04-28_14h54.21.625,3-AFC_adaptive_staircase_mess,2022.1.1,None,
,,,,,7,0,7,0,16,0,16,0,,,,,,,,,,,,,,,,up,750,0,4.064152580820497e-05,-1,2,-1,-5.0,970.3736852666809,None,969.3371314000105,969.6660950000223,970.3296468000044,970.650908200012,971.3403721000068,971.6731184000091,right,0,2.9819766000146046,969.3982734000019,None,971.8800049000129,None,,,,,,,regvnx,001,0,fr,2022-04-28_14h54.21.625,3-AFC_adaptive_staircase_mess,2022.1.1,None,
,,,,,7,0,7,0,17,0,17,0,,,,,,,,,,,,,,,,up,750,2.5,5.419634570106019e-05,1,3,1,2.5,974.9290478666701,None,973.8874713000259,974.2158001000062,974.8804062000127,975.2152188000036,None,None,up,1,1.5219127000018489,973.946290300024,None,None,None,,,,,,,regvnx,001,0,fr,2022-04-28_14h54.21.625,3-AFC_adaptive_staircase_mess,2022.1.1,None,
,,,,,7,0,7,0,18,0,18,0,,,,,,,,,,,,,,,,up,750,2.5,5.419634570106019e-05,1,3,1,2.5,978.0148591666696,None,976.9904167000204,977.325375400018,977.9684381000116,978.2988511000003,978.9746672000038,979.3031555000052,left,0,3.7779796000104398,977.0183615999995,None,979.533225000021,None,,,,,,,regvnx,001,0,fr,2022-04-28_14h54.21.625,3-AFC_adaptive_staircase_mess,2022.1.1,None,
,,,,,7,0,7,0,19,0,19,0,,,,,,,,,,,,,,,,right,750,5.0,7.22719885372964e-05,1,3,1,2.5,984.3513034666869,None,982.3064038000011,982.6434892000107,983.3043649000174,983.6275179000222,984.30496150002,984.6334747000074,right,1,2.5404332999896724,982.3365733000101,None,984.8391680000059,None,,,,,,,regvnx,001,0,fr,2022-04-28_14h54.21.625,3-AFC_adaptive_staircase_mess,2022.1.1,None,
,,,,,7,0,7,0,20,0,20,0,,,,,,,,,,,,,,,,right,750,5.0,7.22719885372964e-05,1,3,1,2.5,988.4318973666852,None,986.3895240999991,986.7252644000109,987.3753137000022,987.7084099000203,988.3838940999995,988.6980578000075,right,1,2.679281299991999,986.4532103000092,None,988.9400508000108,None,,,,,,,regvnx,001,0,fr,2022-04-28_14h54.21.625,3-AFC_adaptive_staircase_mess,2022.1.1,None,
,,,,,7,0,7,0,21,0,21,0,,,,,,,,,,,,,,,,right,750,0.0,4.064152580820497e-05,-1,4,-1,-5.0,992.6517626666794,None,990.6250645000255,990.9562368000043,991.6076764000172,991.9353852000204,992.6069902000017,992.9451277000189,right,1,2.6522118999855593,990.6868492000212,None,993.1802465000073,None,,,,,,,regvnx,001,0,fr,2022-04-28_14h54.21.625,3-AFC_adaptive_staircase_mess,2022.1.1,None,
,,,,,7,0,7,0,22,0,22,0,,,,,,,,,,,,,,,,left,750,0.0,4.064152580820497e-05,-1,4,-1,-5.0,994.9055825666912,None,994.8572895000107,995.1958320999984,995.8684092000185,996.1973821000138,996.8700629000086,997.1958551999996,left,1,4.039852099987911,994.9168200000131,None,997.4273166000203,None,,,,,,,regvnx,001,0,fr,2022-04-28_14h54.21.625,3-AFC_adaptive_staircase_mess,2022.1.1,None,
,,,,,7,0,7,0,23,0,23,0,,,,,,,,,,,,,,,,up,750,-5.0,2.285440948074376e-05,-1,4,-1,-5.0,1001.5050786666727,None,1000.4653146000055,1000.7982079000212,1001.4592508000205,1001.7927622999996,1002.4622946000018,1002.7814586000168,up,1,4.020198799989885,1000.5205018999986,None,1003.0129420000012,None,,,,,,,regvnx,001,0,fr,2022-04-28_14h54.21.625,3-AFC_adaptive_staircase_mess,2022.1.1,None,
,,,,,7,0,7,0,24,0,24,0,,,,,,,,,,,,,,,,right,750,-5.0,2.285440948074376e-05,-1,4,-1,-5.0,1008.0913790666712,None,1006.0291016000265,1006.3500948000001,1007.0484761000262,1007.3742598000099,1008.0455266000063,1008.3804760000203,right,1,3.189617099997122,1006.0868150000169,None,1008.5853346000076,None,,,,,,,regvnx,001,0,fr,2022-04-28_14h54.21.625,3-AFC_adaptive_staircase_mess,2022.1.1,None,
,,,,,7,0,7,0,25,0,25,0,,,,,,,,,,,,,,,,up,750,-10.0,1.2851978913844322e-05,-1,4,-1,-5.0,1011.8284035666768,None,1010.7872849999985,1011.1126201000006,1011.7814207000192,1012.1217030000116,1012.7905662000121,1013.1150295000116,left,0,4.715802699996857,1010.8485980000114,None,1013.34906030001,None,,,,,,,regvnx,001,0,fr,2022-04-28_14h54.21.625,3-AFC_adaptive_staircase_mess,2022.1.1,None,
,,,,,7,0,7,0,26,0,26,0,,,,,,,,,,,,,,,,left,750,-7.5,1.7138389327322525e-05,1,5,1,2.5,1017.1378600666687,None,1017.0942625000025,1017.4223390000116,1018.0925031000224,1018.4091991000168,1019.1143872000102,1019.4383023000264,left,1,3.1329924000019673,1017.1502392000111,None,1019.6469329000101,None,,,,,,,regvnx,001,0,fr,2022-04-28_14h54.21.625,3-AFC_adaptive_staircase_mess,2022.1.1,None,
,,,,,7,0,7,0,27,0,27,0,,,,,,,,,,,,,,,,left,750,-7.5,1.7138389327322525e-05,1,5,1,2.5,1021.8371194666872,1022.0597320000234,1021.7916544000036,1022.1195552000136,1022.7869924000115,1023.1112662000232,1023.8078621000168,1024.1265927000204,right,0,4.7577798000129405,1021.8459693000186,None,1024.3663230000238,None,,,,,,,regvnx,001,0,fr,2022-04-28_14h54.21.625,3-AFC_adaptive_staircase_mess,2022.1.1,None,
,,,,,7,0,7,0,28,0,28,0,,,,,,,,,,,,,,,,up,750,-5.0,2.285440948074376e-05,1,5,1,2.5,1029.1614456666905,None,1028.120269600011,1028.4380653000262,1029.1279384000227,1029.4500303000095,1030.1210652000154,1030.4431955000036,left,0,4.6968516999913845,1028.178735900001,None,1030.6783974000136,None,,,,,,,regvnx,001,0,fr,2022-04-28_14h54.21.625,3-AFC_adaptive_staircase_mess,2022.1.1,None,
,,,,,7,0,7,0,29,0,29,0,,,,,,,,,,,,,,,,up,750,-2.5,3.0476844862008466e-05,1,5,1,2.5,1035.4019022666655,None,1034.3777380000101,1034.7047930000117,1035.3647636000242,1035.6892627000052,1036.383670500014,1036.709594200016,up,1,7.510807200014824,1034.4379275000247,None,1036.91778660001,None,,,,,,,regvnx,001,0,fr,2022-04-28_14h54.21.625,3-AFC_adaptive_staircase_mess,2022.1.1,None,
,,,,,7,0,7,0,30,0,30,0,,,,,,,,,,,,,,,,right,750,-2.5,3.0476844862008466e-05,1,5,1,2.5,1045.470807066686,None,1043.4411207000085,1043.7580486000224,1044.464323000022,1044.8078139999998,1045.4541404000192,1045.7838378000015,right,1,3.771098700002767,1043.4898033000063,None,1045.98997960001,None,,,,,,,regvnx,001,0,fr,2022-04-28_14h54.21.625,3-AFC_adaptive_staircase_mess,2022.1.1,None,
,,,,,7,0,7,0,31,0,31,0,,,,,,,,,,,,,,,,right,750,-7.5,1.7138389327322525e-05,-1,6,-1,-5.0,1050.8153765666686,None,1048.7630476000195,1049.079197300016,1049.7601495000126,1050.0661067000183,1050.798709900002,1051.127973499999,left,0,3.0624549000058323,1048.8213485000015,None,1051.3306179000065,None,,,,,,,regvnx,001,0,fr,2022-04-28_14h54.21.625,3-AFC_adaptive_staircase_mess,2022.1.1,None,
,,,,,8,0,8,0,0,0,0,0,,,,,,,,,,,,,[],[],5,up,500,50,0.02259279721874612,0,0,-1,5,1085.9124661666904,None,1084.8810293000133,1085.2140741000185,1085.8671227000013,1086.1896812000195,None,None,up,1,1.6447701000142843,1084.911482399999,None,None,None,e,31.415490300016245,1052.981076200027,None,1052.981076200027,1054.0204726000084,regvnx,001,0,fr,2022-04-28_14h54.21.625,3-AFC_adaptive_staircase_mess,2022.1.1,None,
,,,,,8,0,8,0,1,0,1,0,,,,,,,,,,,,,,,,left,500,50,0.02259279721874612,0,0,-1,5,1088.1186427666728,1088.3385586000222,1088.0707537000126,1088.392242300004,None,None,None,None,left,1,0.5875062000122853,1088.1276994000073,None,None,None,,,,,,,regvnx,001,0,fr,2022-04-28_14h54.21.625,3-AFC_adaptive_staircase_mess,2022.1.1,None,
,,,,,8,0,8,0,2,0,2,0,,,,,,,,,,,,,,,,left,500,40,0.007144469792555516,-1,0,-1,-10,1090.2715984666759,None,1090.2270692000166,1090.5589727000042,None,None,None,None,left,1,0.3178591000032611,1090.286652700015,None,None,None,,,,,,,regvnx,001,0,fr,2022-04-28_14h54.21.625,3-AFC_adaptive_staircase_mess,2022.1.1,None,
,,,,,8,0,8,0,3,0,3,0,,,,,,,,,,,,,,,,left,500,40,0.007144469792555516,-1,0,-1,-10,1092.1233352666934,None,1092.0875246000069,1092.4222655000049,None,None,None,None,left,1,0.29546490000211634,1092.148490600026,None,None,None,,,,,,,regvnx,001,0,fr,2022-04-28_14h54.21.625,3-AFC_adaptive_staircase_mess,2022.1.1,None,
,,,,,8,0,8,0,4,0,4,0,,,,,,,,,,,,,,,,left,500,30,0.002259279721874612,-1,0,-1,-10,1093.9933982666737,None,1093.9566637000244,1094.291658000002,None,None,None,None,left,1,0.24993109999923036,1094.0185386000085,None,None,None,,,,,,,regvnx,001,0,fr,2022-04-28_14h54.21.625,3-AFC_adaptive_staircase_mess,2022.1.1,None,
,,,,,8,0,8,0,5,0,5,0,,,,,,,,,,,,,,,,right,500,30,0.002259279721874612,-1,0,-1,-10,1097.8341328666759,None,1095.7790096000244,1096.0950729000033,1096.780276400008,1097.1005713000195,1097.7886349000037,1098.1300335999986,right,1,2.306337700021686,1095.8338616000256,None,None,None,,,,,,,regvnx,001,0,fr,2022-04-28_14h54.21.625,3-AFC_adaptive_staircase_mess,2022.1.1,None,
,,,,,8,0,8,0,6,0,6,0,,,,,,,,,,,,,,,,up,500,20,0.0007144469792555515,-1,0,-1,-10,1100.702805366691,None,1099.6825094000087,1099.9996901999984,1100.6861387000245,1101.0138594000018,None,None,up,1,1.3466346000204794,1099.73756400001,None,None,None,,,,,,,regvnx,001,0,fr,2022-04-28_14h54.21.625,3-AFC_adaptive_staircase_mess,2022.1.1,None,
,,,,,8,0,8,0,7,0,7,0,,,,,,,,,,,,,,,,right,500,20,0.0007144469792555515,-1,0,-1,-10,1104.6374664666694,1104.8541333000176,1102.6048653000034,1102.9569365000061,1103.617120800016,1103.937085500016,1104.6207998000027,1104.935770400014,right,1,2.319144899985986,1102.652836000023,None,None,None,,,,,,,regvnx,001,0,fr,2022-04-28_14h54.21.625,3-AFC_adaptive_staircase_mess,2022.1.1,None,
,,,,,8,0,8,0,8,0,8,0,,,,,,,,,,,,,,,,left,500,10,0.0002259279721874612,-1,0,-1,-10,1106.5499026666841,None,1106.4903548000148,1106.826115600008,None,None,None,None,left,1,0.5400603000016417,1106.5607572000008,None,None,None,,,,,,,regvnx,001,0,fr,2022-04-28_14h54.21.625,3-AFC_adaptive_staircase_mess,2022.1.1,None,
,,,,,8,0,8,0,9,0,9,0,,,,,,,,,,,,,,,,up,500,10,0.0002259279721874612,-1,0,-1,-10,1109.6336929666907,None,1108.6051392000227,1108.9271054000128,1109.617026300024,1109.9424694000045,None,None,up,1,1.376939499983564,1108.6665645000176,None,None,None,,,,,,,regvnx,001,0,fr,2022-04-28_14h54.21.625,3-AFC_adaptive_staircase_mess,2022.1.1,None,
,,,,,8,0,8,0,10,0,10,0,,,,,,,,,,,,,,,,left,500,0,7.144469792555515e-05,-1,0,-1,-10,1111.5996671666837,None,1111.5542506000202,1111.8844297000032,1112.567746100016,1112.8922376000264,1113.5777919000247,1113.8972229000065,left,1,7.312869800021872,1111.6107151000178,None,1114.131317100022,None,,,,,,,regvnx,001,0,fr,2022-04-28_14h54.21.625,3-AFC_adaptive_staircase_mess,2022.1.1,None,
,,,,,8,0,8,0,11,0,11,0,,,,,,,,,,,,,,,,left,500,0,7.144469792555515e-05,-1,0,-1,-10,1120.4667141666907,None,1120.450047500024,1120.785463600012,None,None,None,None,left,1,0.7430571999866515,1120.4690930000215,None,None,None,,,,,,,regvnx,001,0,fr,2022-04-28_14h54.21.625,3-AFC_adaptive_staircase_mess,2022.1.1,None,
,,,,,8,0,8,0,12,0,12,0,,,,,,,,,,,,,,,,right,500,-10,2.259279721874613e-05,-1,0,-1,-10,1124.7271172666844,None,1122.6916211000062,1123.0413379000092,1123.699592000019,1124.0180421000114,1124.7104506000178,1125.0379437000083,left,0,2.891563599987421,1122.751718500018,None,1125.2430029000097,None,,,,,,,regvnx,001,0,fr,2022-04-28_14h54.21.625,3-AFC_adaptive_staircase_mess,2022.1.1,None,
,,,,,8,0,8,0,13,0,13,0,,,,,,,,,,,,,,,,left,500,-5,4.017630610928089e-05,1,1,1,5,1127.1604368666924,None,1127.1242387000239,1127.4587225000141,None,None,None,None,left,1,0.6655040000041481,1127.1863439000153,None,None,None,,,,,,,regvnx,001,0,fr,2022-04-28_14h54.21.625,3-AFC_adaptive_staircase_mess,2022.1.1,None,
,,,,,8,0,8,0,14,0,14,0,,,,,,,,,,,,,,,,up,500,-5,4.017630610928089e-05,1,1,1,5,1130.4092182666684,None,1129.3566669000138,1129.6729559000232,1130.3615976000146,1130.7004778000119,1131.3505987000244,1131.6703894000093,up,1,3.813691099989228,1129.4138995000103,None,1131.900116100005,None,,,,,,,regvnx,001,0,fr,2022-04-28_14h54.21.625,3-AFC_adaptive_staircase_mess,2022.1.1,None,
,,,,,8,0,8,0,15,0,15,0,,,,,,,,,,,,,,,,up,500,-15,1.2704863527746532e-05,-1,2,-1,-5.0,1135.7718012666776,None,1134.7207459000056,1135.0392367000168,1135.7273384,1136.0553082000115,1136.7119945000159,1137.0204055000213,left,0,3.522129099990707,1134.7779111000127,None,1137.289809400012,None,,,,,,,regvnx,001,0,fr,2022-04-28_14h54.21.625,3-AFC_adaptive_staircase_mess,2022.1.1,None,
,,,,,8,0,8,0,16,0,16,0,,,,,,,,,,,,,,,,up,500,-12.5,1.6942207806960138e-05,1,3,1,2.5,1140.8495902666803,None,1139.7921926999989,1140.1161793000065,1140.8036329000024,1141.1235505000222,1141.8091768000158,1142.1305222000228,up,1,3.0223656999878585,1139.8534906000132,None,1142.3630745000264,None,,,,,,,regvnx,001,0,fr,2022-04-28_14h54.21.625,3-AFC_adaptive_staircase_mess,2022.1.1,None,
,,,,,8,0,8,0,17,0,17,0,,,,,,,,,,,,,,,,left,500,-12.5,1.6942207806960138e-05,1,3,1,2.5,1144.405433466691,None,1144.3887668000243,1144.713071200007,1145.386629500019,1145.712009400013,1146.3706158999994,1146.7138403000135,up,0,3.1619074000045657,1144.4187714,None,1146.925565100013,None,,,,,,,regvnx,001,0,fr,2022-04-28_14h54.21.625,3-AFC_adaptive_staircase_mess,2022.1.1,None,
,,,,,8,0,8,0,18,0,18,0,,,,,,,,,,,,,,,,right,500,-10.0,2.259279721874613e-05,1,3,1,2.5,1151.1361876666817,1151.363854700001,1149.0903259000042,1149.4154670000135,1150.0953865000047,1150.4248492000042,1151.0863708000106,1151.4243640000059,up,0,3.37237249998725,1149.1189886000066,None,1151.6380483000248,None,,,,,,,regvnx,001,0,fr,2022-04-28_14h54.21.625,3-AFC_adaptive_staircase_mess,2022.1.1,None,
,,,,,8,0,8,0,19,0,19,0,,,,,,,,,,,,,,,,right,500,-7.5,3.0127979303717903e-05,1,3,1,2.5,1156.0307967666924,None,1154.003053500026,1154.3229210000136,1155.0070750000014,1155.3246613000229,1156.0141301000258,1156.3369021000108,right,1,2.639514999988023,1154.0604896000004,None,1156.561953700002,None,,,,,,,regvnx,001,0,fr,2022-04-28_14h54.21.625,3-AFC_adaptive_staircase_mess,2022.1.1,None,
,,,,,8,0,8,0,20,0,20,0,,,,,,,,,,,,,,,,right,500,-7.5,3.0127979303717903e-05,1,3,1,2.5,1160.2769344666779,1160.502680400008,1158.2113374000182,1158.5278685000085,1159.2186235000263,1159.536806500022,1160.2281527000014,1160.5619000000006,right,1,2.5434230999962892,1158.268656100001,None,1160.7644008000207,None,,,,,,,regvnx,001,0,fr,2022-04-28_14h54.21.625,3-AFC_adaptive_staircase_mess,2022.1.1,None,
,,,,,8,0,8,0,21,0,21,0,,,,,,,,,,,,,,,,left,500,-12.5,1.6942207806960138e-05,-1,4,-1,-5.0,1162.3562382666898,None,1162.3138320000144,1162.6341077000252,1163.3212889000133,1163.642396500014,1164.3324867000047,1164.6565690000134,left,1,3.1299864999891724,1162.369092000008,None,1164.8610356000136,None,,,,,,,regvnx,001,0,fr,2022-04-28_14h54.21.625,3-AFC_adaptive_staircase_mess,2022.1.1,None,
,,,,,8,0,8,0,22,0,22,0,,,,,,,,,,,,,,,,right,500,-12.5,1.6942207806960138e-05,-1,4,-1,-5.0,1169.0393891666647,None,1167.0044017000182,1167.32841810002,1168.0133545999997,1168.3341231000086,1168.994559600018,1169.3246695999987,up,0,2.9488314999907743,1167.0629312000237,None,1169.554886900005,None,,,,,,,regvnx,001,0,fr,2022-04-28_14h54.21.625,3-AFC_adaptive_staircase_mess,2022.1.1,None,
,,,,,8,0,8,0,23,0,23,0,,,,,,,,,,,,,,,,up,500,-10.0,2.259279721874613e-05,1,5,1,2.5,1172.576715766689,None,1171.5240104000259,1171.8422265000117,1172.5318312000018,1172.8604455000022,1173.5465607000224,1173.86661680002,left,0,2.7345220999850426,1171.5825795000128,None,1174.0948583999998,None,,,,,,,regvnx,001,0,fr,2022-04-28_14h54.21.625,3-AFC_adaptive_staircase_mess,2022.1.1,None,
,,,,,8,0,8,0,24,0,24,0,,,,,,,,,,,,,,,,right,500,-7.5,3.0127979303717903e-05,1,5,1,2.5,1177.886303666692,None,1175.8337125000253,1176.1507606000232,1176.8393388000259,1177.1559221000061,1177.840589600004,1178.1623704000085,up,0,2.9215831000183243,1175.890648200002,None,1178.3934800999996,None,,,,,,,regvnx,001,0,fr,2022-04-28_14h54.21.625,3-AFC_adaptive_staircase_mess,2022.1.1,None,
,,,,,8,0,8,0,25,0,25,0,,,,,,,,,,,,,,,,left,500,-5.0,4.017630610928089e-05,1,5,1,2.5,1180.346971666677,None,1180.3012206999992,1180.6315597000066,1181.3163363000203,1181.6374508000154,1182.3272399000125,1182.6495220000215,right,0,2.7734549999877345,1180.3592485000263,None,1182.8816017000063,None,,,,,,,regvnx,001,0,fr,2022-04-28_14h54.21.625,3-AFC_adaptive_staircase_mess,2022.1.1,None,
,,,,,8,0,8,0,26,0,26,0,,,,,,,,,,,,,,,,right,500,-2.5,5.357596526188033e-05,1,5,1,2.5,1186.6880527666692,None,1184.6542277000262,1184.977811400022,1185.6641601000156,1185.9846079999988,1186.6423785000225,1186.9647057000257,right,1,2.6700358999951277,1184.717882100027,None,1187.1957290999999,None,,,,,,,regvnx,001,0,fr,2022-04-28_14h54.21.625,3-AFC_adaptive_staircase_mess,2022.1.1,None,
,,,,,8,0,8,0,27,0,27,0,,,,,,,,,,,,,,,,up,500,-2.5,5.357596526188033e-05,1,5,1,2.5,1189.9395165666685,None,1188.8723396999994,1189.2022651000007,1189.8917891000165,1190.2289321999997,1190.8888594000018,1191.2084696000093,right,0,8.380028700019466,1188.9438988000038,None,1191.4395452000026,None,,,,,,,regvnx,001,0,fr,2022-04-28_14h54.21.625,3-AFC_adaptive_staircase_mess,2022.1.1,None,
,,,,,8,0,8,0,28,0,28,0,,,,,,,,,,,,,,,,left,500,0.0,7.144469792555515e-05,1,5,1,2.5,1198.879933466673,None,1198.831618600001,1199.1713825000043,None,None,None,None,left,1,0.4956042999983765,1198.8923529000022,None,None,None,,,,,,,regvnx,001,0,fr,2022-04-28_14h54.21.625,3-AFC_adaptive_staircase_mess,2022.1.1,None,
,,,,,8,0,8,0,29,0,29,0,,,,,,,,,,,,,,,,right,500,0.0,7.144469792555515e-05,1,5,1,2.5,1202.9377675666803,None,1200.898917100014,1201.2245265000092,1201.9107512000191,1202.2334630000114,1202.8920053000038,1203.2326121000224,left,0,3.567661099979887,1200.9559412000235,None,1203.461555100017,None,,,,,,,regvnx,001,0,fr,2022-04-28_14h54.21.625,3-AFC_adaptive_staircase_mess,2022.1.1,None,
,,,,,8,0,8,0,30,0,30,0,,,,,,,,,,,,,,,,right,500,2.5,9.527303589816237e-05,1,5,1,2.5,1208.0771941666937,1208.299247500021,1206.0392903000175,1206.362855400017,1207.0527294000203,1207.370939400018,1208.0306479000137,1208.352614500007,right,1,2.645683500013547,1206.101984900015,None,1208.5815799999982,None,,,,,,,regvnx,001,0,fr,2022-04-28_14h54.21.625,3-AFC_adaptive_staircase_mess,2022.1.1,None,
,,,,,8,0,8,0,31,0,31,0,,,,,,,,,,,,,,,,left,500,2.5,9.527303589816237e-05,1,5,1,2.5,1210.3293160666692,None,1210.2811846000259,1210.6127201000054,1211.2723293000017,1211.5928830000048,1212.2819819000142,1212.607246200001,up,0,2.9638320000085514,1210.343858600012,None,1212.8373174000008,None,,,,,,,regvnx,001,0,fr,2022-04-28_14h54.21.625,3-AFC_adaptive_staircase_mess,2022.1.1,None,
,,,,,8,0,8,0,32,0,32,0,,,,,,,,,,,,,,,,left,500,5.0,0.00012704863527746526,1,5,1,2.5,1214.8639722666742,None,1214.8169158000092,1215.154920800007,None,None,None,None,left,1,0.5759060000127647,1214.876322200027,None,None,None,,,,,,,regvnx,001,0,fr,2022-04-28_14h54.21.625,3-AFC_adaptive_staircase_mess,2022.1.1,None,
,,,,,8,0,8,0,33,0,33,0,,,,,,,,,,,,,,,,left,500,5.0,0.00012704863527746526,1,5,1,2.5,1217.0037225666786,None,1216.9599798000127,1217.292509300023,None,None,None,None,left,1,0.4015285999921616,1217.0185459000058,None,None,None,,,,,,,regvnx,001,0,fr,2022-04-28_14h54.21.625,3-AFC_adaptive_staircase_mess,2022.1.1,None,
,,,,,8,0,8,0,34,0,34,0,,,,,,,,,,,,,,,,right,500,0.0,7.144469792555515e-05,-1,6,-1,-5.0,1220.9741844666753,None,1218.9275365000067,1219.250855500024,1219.9418793000223,1220.2678357000113,1220.9303943000268,1221.2606848000141,right,1,2.546647100010887,1218.9855953000078,None,1221.4914629000123,None,,,,,,,regvnx,001,0,fr,2022-04-28_14h54.21.625,3-AFC_adaptive_staircase_mess,2022.1.1,None,
,,,,,9,0,9,0,0,0,0,0,,,,,,,,,,,,,[],[],5,right,250,50,0.05296268625886444,0,0,-1,5,1265.7546203666755,None,1263.7163511000108,1264.0423443000182,1264.7160035000124,1265.041522500018,1265.7092209000257,None,right,1,2.206084399978863,1263.7732529000205,None,None,None,h,40.61920470002224,1222.6243694000004,None,1222.6243694000004,1223.641667900025,regvnx,001,0,fr,2022-04-28_14h54.21.625,3-AFC_adaptive_staircase_mess,2022.1.1,None,
,,,,,9,0,9,0,1,0,1,0,,,,,,,,,,,,,,,,left,250,50,0.05296268625886444,0,0,-1,5,1267.5208477666931,None,1267.4739076000114,1267.806840300007,None,None,None,None,left,1,0.4289338999951724,1267.535644700023,None,None,None,,,,,,,regvnx,001,0,fr,2022-04-28_14h54.21.625,3-AFC_adaptive_staircase_mess,2022.1.1,None,
,,,,,9,0,9,0,2,0,2,0,,,,,,,,,,,,,,,,left,250,40,0.016748271957891383,-1,0,-1,-10,1269.5320083666923,None,1269.4866909000266,1269.813600100024,None,None,None,None,left,1,0.32423220001510344,1269.5430039000057,None,None,None,,,,,,,regvnx,001,0,fr,2022-04-28_14h54.21.625,3-AFC_adaptive_staircase_mess,2022.1.1,None,
,,,,,9,0,9,0,3,0,3,0,,,,,,,,,,,,,,,,right,250,40,0.016748271957891383,-1,0,-1,-10,1273.399376266669,None,1271.367302700004,1271.6971005000232,1272.3747415000107,1272.7054841000063,1273.354350700014,None,right,1,2.2034544000052847,1271.4245315000007,None,None,None,,,,,,,regvnx,001,0,fr,2022-04-28_14h54.21.625,3-AFC_adaptive_staircase_mess,2022.1.1,None,
,,,,,9,0,9,0,4,0,4,0,,,,,,,,,,,,,,,,up,250,30,0.005296268625886445,-1,0,-1,-10,1276.1552872666837,None,1275.1222165000218,1275.459569300001,1276.1092143999995,1276.4501867000072,None,None,up,1,1.4366621999943163,1275.1822532000078,None,None,None,,,,,,,regvnx,001,0,fr,2022-04-28_14h54.21.625,3-AFC_adaptive_staircase_mess,2022.1.1,None,
,,,,,9,0,9,0,5,0,5,0,,,,,,,,,,,,,,,,up,250,30,0.005296268625886445,-1,0,-1,-10,1279.1832372666724,None,1278.1475898000062,1278.4782123000186,1279.1385251000174,1279.464260000008,None,None,up,1,1.289653999992879,1278.2107889000035,None,None,None,,,,,,,regvnx,001,0,fr,2022-04-28_14h54.21.625,3-AFC_adaptive_staircase_mess,2022.1.1,None,
,,,,,9,0,9,0,6,0,6,0,,,,,,,,,,,,,,,,left,250,20,0.0016748271957891384,-1,0,-1,-10,1281.0647063666877,None,1281.0150931000244,1281.3551033000113,None,None,None,None,left,1,0.5006809000042267,1281.0797395000118,None,None,None,,,,,,,regvnx,001,0,fr,2022-04-28_14h54.21.625,3-AFC_adaptive_staircase_mess,2022.1.1,None,
,,,,,9,0,9,0,7,0,7,0,,,,,,,,,,,,,,,,left,250,20,0.0016748271957891384,-1,0,-1,-10,1283.146595966686,None,1283.101070900011,1283.4371131000225,None,None,None,None,left,1,0.32552230000146665,1283.157543600013,None,None,None,,,,,,,regvnx,001,0,fr,2022-04-28_14h54.21.625,3-AFC_adaptive_staircase_mess,2022.1.1,None,
,,,,,9,0,9,0,8,0,8,0,,,,,,,,,,,,,,,,left,250,10,0.0005296268625886444,-1,0,-1,-10,1285.01550516667,None,1284.9694910000253,1285.3034244000155,None,None,None,None,left,1,0.34489539999049157,1285.0267800000147,None,None,None,,,,,,,regvnx,001,0,fr,2022-04-28_14h54.21.625,3-AFC_adaptive_staircase_mess,2022.1.1,None,
,,,,,9,0,9,0,9,0,9,0,,,,,,,,,,,,,,,,up,250,10,0.0005296268625886444,-1,0,-1,-10,1287.9186902666736,None,1286.9017590000003,1287.2401759000204,1287.902023600007,1288.229809100012,None,None,up,1,1.385183500009589,1286.9299255000078,None,None,None,,,,,,,regvnx,001,0,fr,2022-04-28_14h54.21.625,3-AFC_adaptive_staircase_mess,2022.1.1,None,
,,,,,9,0,9,0,10,0,10,0,,,,,,,,,,,,,,,,up,250,0,0.0001674827195789138,-1,0,-1,-10,1290.847557366684,None,1289.8131554000138,1290.1378495000245,1290.7988559000078,1291.128888200008,1291.8095358000137,1292.1330241000105,right,0,5.883747099986067,1289.8713267999992,None,1292.365314900002,None,,,,,,,regvnx,001,0,fr,2022-04-28_14h54.21.625,3-AFC_adaptive_staircase_mess,2022.1.1,None,
,,,,,9,0,9,0,11,0,11,0,,,,,,,,,,,,,,,,left,250,5,0.0002978310717645052,1,1,1,5,1297.320782866682,None,1297.275314300001,1297.605308600003,None,None,None,None,left,1,0.5809497000009287,1297.3343988000124,None,None,None,,,,,,,regvnx,001,0,fr,2022-04-28_14h54.21.625,3-AFC_adaptive_staircase_mess,2022.1.1,None,
,,,,,9,0,9,0,12,0,12,0,,,,,,,,,,,,,,,,up,250,5,0.0002978310717645052,1,1,1,5,1300.4573127666702,None,1299.414929200022,1299.737533800013,1300.4116683000175,1300.744935900002,None,None,up,1,1.4989113000046927,1299.4731773000094,None,None,None,,,,,,,regvnx,001,0,fr,2022-04-28_14h54.21.625,3-AFC_adaptive_staircase_mess,2022.1.1,None,
,,,,,9,0,9,0,13,0,13,0,,,,,,,,,,,,,,,,up,250,-5,9.418245447449e-05,-1,2,-1,-5.0,1303.5239711666693,None,1302.4929318000213,1302.8142722000193,1303.4771214000066,1303.8104709000036,1304.4791430000041,1304.80382250002,up,1,3.9101146000029985,1302.5501934000058,None,1305.0296789999993,None,,,,,,,regvnx,001,0,fr,2022-04-28_14h54.21.625,3-AFC_adaptive_staircase_mess,2022.1.1,None,
,,,,,9,0,9,0,14,0,14,0,,,,,,,,,,,,,,,,left,250,-5,9.418245447449e-05,-1,2,-1,-5.0,1308.0006438666935,None,1307.9839772000269,1308.3097540000163,1308.9820192000188,1309.3088065000193,1309.9673361000023,1310.2938072000106,left,1,2.5252685000014026,1308.0142370000249,None,1310.5305285000068,None,,,,,,,regvnx,001,0,fr,2022-04-28_14h54.21.625,3-AFC_adaptive_staircase_mess,2022.1.1,None,
,,,,,9,0,9,0,15,0,15,0,,,,,,,,,,,,,,,,left,250,-10.0,5.296268625886443e-05,-1,2,-1,-5.0,1312.1121551666913,1312.3357822000107,1312.0662514000142,1312.3907856000005,1313.0644063000218,1313.3841652999981,1314.0551412000204,1314.3774756000203,left,1,2.83205630001612,1312.123436599999,None,1314.6121501000016,None,,,,,,,regvnx,001,0,fr,2022-04-28_14h54.21.625,3-AFC_adaptive_staircase_mess,2022.1.1,None,
,,,,,9,0,9,0,16,0,16,0,,,,,,,,,,,,,,,,right,250,-10.0,5.296268625886443e-05,-1,2,-1,-5.0,1318.4921732666883,1318.7136086000246,1316.4661401000048,1316.7852695000183,1317.455746200023,1317.7758665000147,1318.4755066000216,1318.796330800018,up,0,3.056333100015763,1316.5236259000085,None,1319.028753999999,None,,,,,,,regvnx,001,0,fr,2022-04-28_14h54.21.625,3-AFC_adaptive_staircase_mess,2022.1.1,None,
,,,,,9,0,9,0,17,0,17,0,,,,,,,,,,,,,,,,right,250,-7.5,7.06268772311377e-05,1,3,1,2.5,1323.1227657666934,None,1321.1048016000132,1321.4275660999992,1322.094735999999,1322.4241607000004,1323.0860015000217,1323.4107988000032,right,1,2.7190075000107754,1321.1332479999983,None,1323.645168100018,None,,,,,,,regvnx,001,0,fr,2022-04-28_14h54.21.625,3-AFC_adaptive_staircase_mess,2022.1.1,None,
,,,,,9,0,9,0,18,0,18,0,,,,,,,,,,,,,,,,left,250,-7.5,7.06268772311377e-05,1,3,1,2.5,1325.3814845666677,None,1325.364817900001,1325.69536350001,1326.366858400026,1326.692034000007,1327.3632582999999,1327.7157939000172,up,0,3.944277400005376,1325.3950245000015,None,1327.9133233000175,None,,,,,,,regvnx,001,0,fr,2022-04-28_14h54.21.625,3-AFC_adaptive_staircase_mess,2022.1.1,None,
,,,,,9,0,9,0,19,0,19,0,,,,,,,,,,,,,,,,up,250,-5.0,9.418245447449e-05,1,3,1,2.5,1331.9019467666842,None,1330.8478954000166,1331.1646912000142,1331.8485309000243,1332.1893663000083,1332.8399210666869,None,up,1,1.9073308999941219,1330.9044992999989,None,None,None,,,,,,,regvnx,001,0,fr,2022-04-28_14h54.21.625,3-AFC_adaptive_staircase_mess,2022.1.1,None,
,,,,,9,0,9,0,20,0,20,0,,,,,,,,,,,,,,,,up,250,-5.0,9.418245447449e-05,1,3,1,2.5,1335.350891466693,1335.5725085000158,1334.3081091000058,1334.6305738000083,1335.3050430000003,1335.6183266000007,1336.2995452000177,1336.6273469000007,left,0,3.582197899988387,1334.365334000002,None,1336.8627532000246,None,,,,,,,regvnx,001,0,fr,2022-04-28_14h54.21.625,3-AFC_adaptive_staircase_mess,2022.1.1,None,
,,,,,9,0,9,0,21,0,21,0,,,,,,,,,,,,,,,,left,250,-2.5,0.00012559432157547898,1,3,1,2.5,1339.4975241666873,1339.7206360000127,1339.4520091000013,1339.7792226000165,1340.4450990000041,1340.7670809999981,1341.461799600016,1341.7822951000126,left,1,2.6941162000002805,1339.5092648999998,None,1342.0123893000127,None,,,,,,,regvnx,001,0,fr,2022-04-28_14h54.21.625,3-AFC_adaptive_staircase_mess,2022.1.1,None,
,,,,,9,0,9,0,22,0,22,0,,,,,,,,,,,,,,,,left,250,-2.5,0.00012559432157547898,1,3,1,2.5,1343.7569622666672,None,1343.7116706000234,1344.0401098000002,1344.7285391000041,1345.0509557000187,1345.6918365000165,1346.0258035000006,up,0,3.825693599996157,1343.7693981000048,None,1346.2561929000076,None,,,,,,,regvnx,001,0,fr,2022-04-28_14h54.21.625,3-AFC_adaptive_staircase_mess,2022.1.1,None,
,,,,,9,0,9,0,23,0,23,0,,,,,,,,,,,,,,,,left,250,0.0,0.0001674827195789138,1,3,1,2.5,1349.1456684666666,1349.3738796000252,1349.1290018,1349.4613008000015,1350.1074099000252,1350.4245004000259,1351.118217100011,1351.435283800005,left,1,2.806125500006601,1349.1578133000003,None,1351.6650471000175,None,,,,,,,regvnx,001,0,fr,2022-04-28_14h54.21.625,3-AFC_adaptive_staircase_mess,2022.1.1,None,
,,,,,9,0,9,0,24,0,24,0,,,,,,,,,,,,,,,,up,250,0.0,0.0001674827195789138,1,3,1,2.5,1354.5134586666866,None,1353.463365100004,1353.7811225000187,1354.4666306000145,1354.7910063000163,None,None,up,1,1.6917290999845136,1353.5205125000211,None,None,None,,,,,,,regvnx,001,0,fr,2022-04-28_14h54.21.625,3-AFC_adaptive_staircase_mess,2022.1.1,None,
