sweeps.thisRepN,sweeps.thisTrialN,sweeps.thisN,sweeps.thisIndex,trials.thisRepN,trials.thisTrialN,trials.thisN,trials.thisIndex,instructions.started,instructions.stopped,blank_text.started,blank_text.stopped,Intervals,text.started,text.stopped,Delay,Prediction,Frequency,Volume,Psychopy_level,isCatchTrial,len(y),finished_audiograms,probe.started,probe.stopped,feedback.keys,feedback.started,feedback.stopped,ISI.started,ISI.stopped,text_2.started,text_2.stopped,break_txt.started,break_txt.stopped,,Audiogram_frequency,feedback.rt,Audiogram_time,Audiogram_both,Audiogram_none,end_txt.started,end_txt.stopped,participant,session,language (english or french),Resume previous experiment,date,expName,psychopyVersion,frameRate,
0,0,0,0,0,0,0,0,17.336595500004478,None,55.11152370006312,None,"[0.5833333333333334, 0.16666666666666666, 0.3333333333333333, 0.16666666666666666, 0.3333333333333333, 0.5833333333333334, 0.3333333333333333, 0.5833333333333334, 0.5833333333333334, 0.16666666666666666, 0.3333333333333333, 0.16666666666666666, 0.5833333333333334, 0.16666666666666666, 0.16666666666666666]",57.06295270007104,None,1.833221539836889,none,379.0,-8.0,3.264724102951903e-05,0,26,[],0.02301617991179228,None,None,58.07466850010678,None,0.23281287995632738,2.0660344197932163,58.28480030002538,None,,,,,,,,,,,bihhjl,001,fr,0,2022-06-23_12h09.59.632,Continuous,2022.1.1,36.78422045953056,
0,0,0,0,1,0,1,0,,,,,,,,2.502227202296077,none,253.0,-3.672140866403371,0.00010765703023977159,0,27,[],0.02196738007478416,0.21879768010694534,None,60.113828200032,60.113828200032,0.21879768010694534,2.7210248824030225,60.31895040010568,60.113828200032,,,,,,,,,,,bihhjl,001,fr,0,2022-06-23_12h09.59.632,Continuous,2022.1.1,36.78422045953056,
0,0,0,0,2,0,2,0,,,,,,,,2.3649211990308894,none,1010.0,-4.486077678272661,2.653201456852106e-05,0,28,[],0.022588580031879246,None,None,62.82167480001226,62.82167480001226,0.2312063800636679,2.5961275790945573,63.04290140001103,62.82167480001226,,,,,,,,,,,bihhjl,001,fr,0,2022-06-23_12h09.59.632,Continuous,2022.1.1,36.78422045953056,
0,0,0,0,3,0,3,0,,,,,,,,1.1487060579537802,none,,,,1,28,[],0.02173907996620983,0.21690897992812097,None,65.40282519999892,65.40282519999892,0.21690897992812097,1.3656150378819012,65.6111729000695,65.40282519999892,,,,,,,,,,,bihhjl,001,fr,0,2022-06-23_12h09.59.632,Continuous,2022.1.1,36.78422045953056,
0,0,0,0,4,0,4,0,,,,,,,,2.9596852777661313,none,134.0,-6.018539567585413,0.00032137349333598476,0,29,[],0.024043479934334755,None,None,66.75854260008782,66.75854260008782,0.2260218799347058,3.185707157700837,66.9778114000801,66.75854260008782,,,,,,,,,,,bihhjl,001,fr,0,2022-06-23_12h09.59.632,Continuous,2022.1.1,36.78422045953056,
0,0,0,0,5,0,5,0,,,,,,,,1.224474000097635,none,1134.0,2.9018678501362123,6.935476498007018e-05,0,30,[],0.017839879961684346,None,None,69.93612220010255,69.93612220010255,0.22771017998456955,1.4521841800822046,70.15299020009115,69.93612220010255,,,,,,,,,,,bihhjl,001,fr,0,2022-06-23_12h09.59.632,Continuous,2022.1.1,36.78422045953056,
0,0,0,0,6,0,6,0,,,,,,,,2.3602540747636995,none,601.0,-7.707760033145475,2.2928665009827832e-05,0,31,[],0.02253608009777963,None,None,71.37090660003014,71.37090660003014,0.2213265800382942,2.5815806548019937,71.58499800006393,71.37090660003014,,,,,,,,,,,bihhjl,001,fr,0,2022-06-23_12h09.59.632,Continuous,2022.1.1,36.78422045953056,
0,0,0,0,7,0,7,0,,,,,,,,1.041081460136036,none,425.0,-4.897880941407276,4.2831964328278116e-05,0,32,[],0.021360679995268583,None,None,73.945644200081,73.945644200081,0.21569417999126017,1.2567756401272963,74.1567478000652,73.945644200081,,,,,,,,,,,bihhjl,001,fr,0,2022-06-23_12h09.59.632,Continuous,2022.1.1,36.78422045953056,
0,0,0,0,8,0,8,0,,,,,,,,2.770060130151432,none,535.0,-3.5203285493575267,4.399737030787353e-05,0,33,[],0.02135377994272858,None,None,75.19675390003249,75.19675390003249,0.2172458799323067,2.9873060100837385,75.40528720000293,75.19675390003249,,,,,,,,,,,bihhjl,001,fr,0,2022-06-23_12h09.59.632,Continuous,2022.1.1,36.78422045953056,
0,0,0,0,9,0,9,0,,,,,,,,2.3595398417953213,none,900.0,-6.337178295935587,1.986764676226924e-05,0,34,[],0.022375180036760867,None,None,78.17564020003192,78.17564020003192,0.22580378002021462,2.585343621815536,78.3892822000198,78.17564020003192,,,,,,,,,,,bihhjl,001,fr,0,2022-06-23_12h09.59.632,Continuous,2022.1.1,36.78422045953056,
1,0,1,0,0,0,0,0,,,,,,83.21803960006218,None,2.5744814532133615,frequency,169.0,-0.5633342051453578,0.0003545843778211197,0,26,[],0.02357018005568534,None,None,84.2529438000638,None,0.2372019800823182,2.8116834332956797,84.46607510000467,None,80.74733240006026,None,0.5833333333333334,,,,,,,,bihhjl,001,fr,0,2022-06-23_12h09.59.632,Continuous,2022.1.1,36.78422045953056,
1,0,1,0,1,0,1,0,,,,,,,,1.197113152651378,frequency,253.0,-3.5643622582538432,0.00010900121172989949,0,27,[],0.022080080001614988,None,None,87.03193739999551,87.03193739999551,0.22267927997745574,1.4197924326288338,87.24368610000238,87.03193739999551,,,,,,,,,,,bihhjl,001,fr,0,2022-06-23_12h09.59.632,Continuous,2022.1.1,36.78422045953056,
1,0,1,0,2,0,2,0,,,,,,,,2.5924624753697394,frequency,379.0,-8.0,3.264724102951903e-05,0,28,[],0.022099680034443736,None,None,88.44489640009124,88.44489640009124,0.22466497996356338,2.8171274553333028,88.66071090009063,88.44489640009124,,,,,,,,,,,bihhjl,001,fr,0,2022-06-23_12h09.59.632,Continuous,2022.1.1,36.78422045953056,
1,0,1,0,3,0,3,0,,,,,,,,1.1694099568963585,frequency,568.0,-7.983558797631262,2.4265403266415316e-05,0,29,[],0.014931580051779747,None,None,91.25327119999565,91.25327119999565,0.20539598003961146,1.37480593693597,91.46464730007574,91.25327119999565,,,,,,,,,,,bihhjl,001,fr,0,2022-06-23_12h09.59.632,Continuous,2022.1.1,36.78422045953056,
1,0,1,0,4,0,4,0,,,,,,,,1.8486010682608434,frequency,,,,1,29,[],0.02269638003781438,None,None,92.63609750010073,92.63609750010073,0.22316148004028946,2.071762548301133,92.8524657000089,92.63609750010073,,,,,,,,,,,bihhjl,001,fr,0,2022-06-23_12h09.59.632,Continuous,2022.1.1,36.78422045953056,
1,0,1,0,5,0,5,0,,,,,,,,2.4180435866085643,frequency,1275.0,-7.300397245334777,2.3252876690633745e-05,0,30,[],0.02348437998443842,None,None,94.69535500009079,94.69535500009079,0.22404548001941293,2.6420890666279773,94.90442250005435,94.69535500009079,,,,,,,,,,,bihhjl,001,fr,0,2022-06-23_12h09.59.632,Continuous,2022.1.1,36.78422045953056,
1,0,1,0,6,0,6,0,,,,,,,,1.5304977964678883,frequency,1910.0,-3.532948738205265,4.710497208923661e-05,0,31,[],0.013598780031315982,0.20632317999843508,None,97.32762840006035,97.32762840006035,0.20632317999843508,1.7368209764663234,97.54244390001986,97.32762840006035,,,,,,,,,,,bihhjl,001,fr,0,2022-06-23_12h09.59.632,Continuous,2022.1.1,36.78422045953056,
1,0,1,0,7,0,7,0,,,,,,,,1.5353166289737428,frequency,2862.0,-4.922938491536348,3.596995640067604e-05,0,32,[],0.02213397982995957,None,None,99.06608610006515,99.06608610006515,0.2232148798648268,1.7585315088385696,99.27377590001561,99.06608610006515,,,,,,,,,,,bihhjl,001,fr,0,2022-06-23_12h09.59.632,Continuous,2022.1.1,36.78422045953056,
1,0,1,0,8,0,8,0,,,,,,,,2.070250427336149,frequency,4288.0,-2.0165793212764154,8.225938458149241e-05,0,33,[],0.014533880050294101,0.2039615799440071,None,100.81413230008911,100.81413230008911,0.2039615799440071,2.274212007280156,101.01806880009826,100.81413230008911,,,,,,,,,,,bihhjl,001,fr,0,2022-06-23_12h09.59.632,Continuous,2022.1.1,36.78422045953056,
2,0,2,0,0,0,0,0,,,,,,114.6221402999945,None,1.952794469151186,both,151.0,-3.5034629706927722,0.0003281908510567524,0,26,[],0.023120079888030887,None,None,115.6365074000787,None,0.22474507987499237,2.1775395490261786,115.85067830001935,None,103.08505009999499,None,0.3333333333333333,,,,,,,,bihhjl,001,fr,0,2022-06-23_12h09.59.632,Continuous,2022.1.1,36.78422045953056,
2,0,2,0,1,0,1,0,,,,,,,,1.952794469151186,both,190.0,-1.8952615330104625,0.00024268635863245556,0,27,[],0.021428079926408827,0.219531079987064,None,117.79863490001298,117.79863490001298,0.219531079987064,2.1723255491382503,118.00895750010386,117.79863490001298,,,,,,,,,,,bihhjl,001,fr,0,2022-06-23_12h09.59.632,Continuous,2022.1.1,36.78422045953056,
2,0,2,0,2,0,2,0,,,,,,,,1.952794469151186,both,239.0,-6.553201127592493,8.889542930312768e-05,0,28,[],0.022012679954059422,None,None,119.95477250008844,119.95477250008844,0.22266547987237573,2.175459949023562,120.16251020005438,119.95477250008844,,,,,,,,,,,bihhjl,001,fr,0,2022-06-23_12h09.59.632,Continuous,2022.1.1,36.78422045953056,
2,0,2,0,3,0,3,0,,,,,,,,1.952794469151186,both,,,,1,28,[],0.014485579915344715,0.20408837997820228,None,122.11789080000017,122.11789080000017,0.20408837997820228,2.1568828491293885,122.32733230001759,122.11789080000017,,,,,,,,,,,bihhjl,001,fr,0,2022-06-23_12h09.59.632,Continuous,2022.1.1,36.78422045953056,
2,0,2,0,4,0,4,0,,,,,,,,1.952794469151186,both,379.0,-8.0,3.264724102951903e-05,0,29,[],0.023246180033311248,None,None,124.27422700007446,124.27422700007446,0.2240846799686551,2.1768791491198414,124.48584120010491,124.27422700007446,,,,,,,,,,,bihhjl,001,fr,0,2022-06-23_12h09.59.632,Continuous,2022.1.1,36.78422045953056,
2,0,2,0,5,0,5,0,,,,,,,,1.952794469151186,both,478.0,-6.619016441459368,3.386875854402189e-05,0,30,[],0.0160602800315246,0.206525280023925,None,126.43652990006376,126.43652990006376,0.206525280023925,2.1593197491751113,126.64086530008353,126.43652990006376,,,,,,,,,,,bihhjl,001,fr,0,2022-06-23_12h09.59.632,Continuous,2022.1.1,36.78422045953056,
2,0,2,0,6,0,6,0,,,,,,,,1.952794469151186,both,602.0,-7.359127236369568,2.3800830687357726e-05,0,31,[],0.02172237983904779,None,None,128.5950584000675,128.5950584000675,0.22054487990681082,2.173339349057997,128.8027243000688,128.5950584000675,,,,,,,,,,,bihhjl,001,fr,0,2022-06-23_12h09.59.632,Continuous,2022.1.1,36.78422045953056,
2,0,2,0,7,0,7,0,,,,,,,,1.952794469151186,both,758.0,-3.5670424499736573,2.6712426109735053e-05,0,32,[],0.019019980099983513,0.21126638003624976,None,130.7556077000918,130.7556077000918,0.21126638003624976,2.164060849187436,130.96083210001234,130.7556077000918,,,,,,,,,,,bihhjl,001,fr,0,2022-06-23_12h09.59.632,Continuous,2022.1.1,36.78422045953056,
2,0,2,0,8,0,8,0,,,,,,,,1.952794469151186,both,955.0,-5.961374424708879,2.1533055859378455e-05,0,33,[],0.02161917998455465,None,None,132.91477200004738,132.91477200004738,0.2198861800134182,2.1726806491646045,133.12774050002918,132.91477200004738,,,,,,,,,,,bihhjl,001,fr,0,2022-06-23_12h09.59.632,Continuous,2022.1.1,36.78422045953056,
2,0,2,0,9,0,9,0,,,,,,,,1.952794469151186,both,1203.0,5.184035620067096,9.543760625486723e-05,0,34,[],0.011017479817382991,None,None,135.08732650009915,135.08732650009915,0.20904447988141328,2.1618389490325995,135.30077800003346,135.08732650009915,,,,,,,,,,,bihhjl,001,fr,0,2022-06-23_12h09.59.632,Continuous,2022.1.1,36.78422045953056,
2,0,2,0,10,0,10,0,,,,,,,,1.952794469151186,both,1516.0,5.099626421028288,8.931769673981933e-05,0,35,[],0.021485180011950433,None,None,137.25540230004117,137.25540230004117,0.2232501800172031,2.1760446491683894,137.46218700008467,137.25540230004117,,,,,,,,,,,bihhjl,001,fr,0,2022-06-23_12h09.59.632,Continuous,2022.1.1,36.78422045953056,
3,0,3,0,0,0,0,0,,,,,"[0.16666666666666666, 0.16666666666666666, 0.5833333333333334, 0.5833333333333334, 0.3333333333333333, 0.3333333333333333, 0.16666666666666666, 0.5833333333333334, 0.3333333333333333, 0.5833333333333334, 0.5833333333333334, 0.5833333333333334, 0.5833333333333334, 0.3333333333333333, 0.16666666666666666]",143.62318150000647,None,2.2434715980521385,none,177.0,5.0,0.000620988873867065,0,35,[],0.02363548008725047,None,None,144.62664740008768,None,0.2551201800815761,2.4985917781337146,144.85913250001613,None,139.41534980002325,None,,,,,,,,,bihhjl,001,fr,0,2022-06-23_12h09.59.632,Continuous,2022.1.1,36.78422045953056,
3,0,3,0,1,0,1,0,,,,,,,,2.233569147201758,none,140.0,4.112961918231014,0.0009460070136052226,0,36,[],0.021012380020692945,None,None,147.09664330002852,147.09664330002852,0.2202837800141424,2.4538529272159004,147.31049240007997,147.09664330002852,,,,,,,,,,,bihhjl,001,fr,0,2022-06-23_12h09.59.632,Continuous,2022.1.1,36.78422045953056,
3,0,3,0,2,0,2,0,,,,,,,,2.445054106131259,none,1123.0,5.0,8.748633202517127e-05,0,37,[],0.015214680111967027,0.20591418002732098,None,149.5454813000979,149.5454813000979,0.20591418002732098,2.65096828615858,149.74848530010786,149.5454813000979,,,,,,,,,,,bihhjl,001,fr,0,2022-06-23_12h09.59.632,Continuous,2022.1.1,36.78422045953056,
3,0,3,0,3,0,3,0,,,,,,,,1.1770691866696588,none,,,,1,37,[],0.020419879932887852,0.21619077993091196,None,152.19455250003375,152.19455250003375,0.21619077993091196,1.3932599666005707,152.4012315000873,152.19455250003375,,,,,,,,,,,bihhjl,001,fr,0,2022-06-23_12h09.59.632,Continuous,2022.1.1,36.78422045953056,
3,0,3,0,4,0,4,0,,,,,,,,2.4407151904747275,none,265.0,4.195363996990631,0.00024572157704246775,0,38,[],0.022633079905062914,None,None,153.57853630010504,153.57853630010504,0.22075797989964485,2.6614731703743724,153.79381180007476,153.57853630010504,,,,,,,,,,,bihhjl,001,fr,0,2022-06-23_12h09.59.632,Continuous,2022.1.1,36.78422045953056,
3,0,3,0,5,0,5,0,,,,,,,,2.6176549641047324,none,1261.0,5.686252415115161,0.0001043761609706079,0,39,[],0.02057448006235063,0.21769838000182062,None,156.2324832000304,156.2324832000304,0.21769838000182062,2.835353344106553,156.44120400003158,156.2324832000304,,,,,,,,,,,bihhjl,001,fr,0,2022-06-23_12h09.59.632,Continuous,2022.1.1,36.78422045953056,
3,0,3,0,6,0,6,0,,,,,,,,1.1295742752294007,none,595.0,-0.5999297808787966,5.28456371391535e-05,0,40,[],0.021013879915699363,None,None,159.06190840003546,159.06190840003546,0.22121317987330258,1.3507874551027033,159.27328730002046,159.06190840003546,,,,,,,,,,,bihhjl,001,fr,0,2022-06-23_12h09.59.632,Continuous,2022.1.1,36.78422045953056,
3,0,3,0,7,0,7,0,,,,,,,,1.3537436675326078,none,891.0,3.265312538661105,5.9644013088816604e-05,0,41,[],0.020962879993021488,None,None,160.40363860002253,160.40363860002253,0.21789178007747978,1.5716354476100876,160.60973420005757,160.40363860002253,,,,,,,,,,,bihhjl,001,fr,0,2022-06-23_12h09.59.632,Continuous,2022.1.1,36.78422045953056,
4,0,4,0,0,0,0,0,,,,,"[0.3333333333333333, 0.3333333333333333, 0.16666666666666666, 0.3333333333333333, 0.5833333333333334, 0.3333333333333333, 0.16666666666666666, 0.3333333333333333, 0.16666666666666666, 0.16666666666666666, 0.3333333333333333, 0.3333333333333333, 0.5833333333333334, 0.3333333333333333, 0.16666666666666666]",165.74286760005634,None,1.6050291052608743,none,,,,1,41,[],0.021580280037596822,None,None,166.74741210008506,None,0.2213822799967602,1.8264113852576345,166.96081570000388,None,161.96504320006352,None,,,,,,,,,bihhjl,001,fr,0,2022-06-23_12h09.59.632,Continuous,2022.1.1,36.78422045953056,
4,0,4,0,1,0,1,0,,,,,,,,2.7420845748621034,none,1644.0,4.888439181729795,0.0001031183063238369,0,42,[],0.02189038007054478,None,None,168.569475300028,168.569475300028,0.22163438005372882,2.9637189549158323,168.77834740001708,168.569475300028,,,,,,,,,,,bihhjl,001,fr,0,2022-06-23_12h09.59.632,Continuous,2022.1.1,36.78422045953056,
4,0,4,0,2,0,2,0,,,,,,,,2.7802469038062254,none,2463.0,2.98735804177461,0.00011999717868828912,0,43,[],0.02103827998507768,None,None,171.52124780009035,171.52124780009035,0.22090587997809052,3.001152783784316,171.73529010009952,171.52124780009035,,,,,,,,,,,bihhjl,001,fr,0,2022-06-23_12h09.59.632,Continuous,2022.1.1,36.78422045953056,
4,0,4,0,3,0,3,0,,,,,,,,2.6341366517495377,none,3103.0,-0.40339991902175165,6.164102906356254e-05,0,44,[],0.019806279917247593,0.21427408000454307,None,174.51839350000955,174.51839350000955,0.21427408000454307,2.8484107317540808,174.72801880002953,174.51839350000955,,,,,,,,,,,bihhjl,001,fr,0,2022-06-23_12h09.59.632,Continuous,2022.1.1,36.78422045953056,
4,0,4,0,4,0,4,0,,,,,,,,1.701277460707226,none,6965.0,2.684644627007405,0.00020455166142590447,0,45,[],0.0208559799939394,None,None,177.3647232000949,177.3647232000949,0.22081917989999056,1.9220966406072166,177.58797450002749,177.3647232000949,,,,,,,,,,,bihhjl,001,fr,0,2022-06-23_12h09.59.632,Continuous,2022.1.1,36.78422045953056,
4,0,4,0,5,0,5,0,,,,,,,,2.6431288998290854,none,1305.0,6.396889661072414,0.00011099328861780947,0,46,[],0.020963379880413413,None,None,179.27977310004644,179.27977310004644,0.21948947990313172,2.862618379732217,179.4934188000625,179.27977310004644,,,,,,,,,,,bihhjl,001,fr,0,2022-06-23_12h09.59.632,Continuous,2022.1.1,36.78422045953056,
4,0,4,0,6,0,6,0,,,,,,,,2.5171281029067645,none,5528.0,1.3091961601936661,0.0001549564515534432,0,47,[],0.020848380052484572,None,None,182.13701840001158,182.13701840001158,0.22084387997165322,2.7379719828784177,182.36071560007986,182.13701840001158,,,,,,,,,,,bihhjl,001,fr,0,2022-06-23_12h09.59.632,Continuous,2022.1.1,36.78422045953056,
4,0,4,0,7,0,7,0,,,,,,,,1.1526990330543336,none,4925.0,3.0,0.00020847022442907278,0,48,[],0.013632780057378113,0.20319748006295413,None,184.86923640000168,184.86923640000168,0.20319748006295413,1.3558965131172878,185.0783475000644,184.86923640000168,,,,,,,,,,,bihhjl,001,fr,0,2022-06-23_12h09.59.632,Continuous,2022.1.1,36.78422045953056,
4,0,4,0,8,0,8,0,,,,,,,,1.0837479459123693,none,1163.0,3.432622133284573,7.552576020075856e-05,0,49,[],0.01608767989091575,0.2073735799640417,None,186.23243340000045,186.23243340000045,0.2073735799640417,1.291121525876411,186.4371145000914,186.23243340000045,,,,,,,,,,,bihhjl,001,fr,0,2022-06-23_12h09.59.632,Continuous,2022.1.1,36.78422045953056,
4,0,4,0,9,0,9,0,,,,,,,,2.437691396188382,none,923.0,2.7562585796615755,5.749806791074846e-05,0,50,[],0.020583880017511547,None,None,187.52206300001126,187.52206300001126,0.2190899800043553,2.6567813761927375,187.73679610004183,187.52206300001126,,,,,,,,,,,bihhjl,001,fr,0,2022-06-23_12h09.59.632,Continuous,2022.1.1,36.78422045953056,
4,0,4,0,10,0,10,0,,,,,,,,2.8494643115474654,none,3483.0,1.4157845753587037,8.811837688268633e-05,0,51,[],0.020455280086025596,None,None,190.1784273000667,190.1784273000667,0.22117888007778674,3.070643191625252,190.39978690003045,190.1784273000667,,,,,,,,,,,bihhjl,001,fr,0,2022-06-23_12h09.59.632,Continuous,2022.1.1,36.78422045953056,
5,0,5,0,0,0,0,0,,,,,"[0.16666666666666666, 0.3333333333333333, 0.5833333333333334, 0.3333333333333333, 0.16666666666666666, 0.16666666666666666, 0.16666666666666666, 0.16666666666666666, 0.5833333333333334, 0.16666666666666666, 0.5833333333333334, 0.16666666666666666, 0.16666666666666666, 0.16666666666666666, 0.16666666666666666]",195.39343320007902,None,1.6700857060330967,time,901.0,-5.159389685518006,2.2768545130224882e-05,0,26,[],0.015880279941484332,None,None,196.42361000005621,None,0.21439477999228984,1.8844804860253865,196.6368485999992,None,193.24107700004242,None,,,,,,,,,bihhjl,001,fr,0,2022-06-23_12h09.59.632,Continuous,2022.1.1,36.78422045953056,
5,0,5,0,1,0,1,0,,,,,,,,1.6700857060330967,time,159.0,-0.0776510434994866,0.0004162858989919229,0,27,[],0.018032580032013357,0.21134948008693755,None,198.3106434000656,198.3106434000656,0.21134948008693755,1.8814351861200342,198.5169973000884,198.3106434000656,,,,,,,,,,,bihhjl,001,fr,0,2022-06-23_12h09.59.632,Continuous,2022.1.1,36.78422045953056,
5,0,5,0,2,0,2,0,,,,,,,,1.6700857060330967,time,803.0,-0.606530845751271,3.5859772146999175e-05,0,28,[],0.020284680067561567,None,None,200.18966210004874,200.18966210004874,0.21917358005885035,1.889259286091947,200.40769200003706,200.18966210004874,,,,,,,,,,,bihhjl,001,fr,0,2022-06-23_12h09.59.632,Continuous,2022.1.1,36.78422045953056,
5,0,5,0,3,0,3,0,,,,,,,,1.6700857060330967,time,178.0,-5.404805619219161,0.0001854771372022209,0,29,[],0.013051680056378245,0.20060818002093583,None,202.07110709999688,202.07110709999688,0.20060818002093583,1.8706938860540325,202.27985280007124,202.07110709999688,,,,,,,,,,,bihhjl,001,fr,0,2022-06-23_12h09.59.632,Continuous,2022.1.1,36.78422045953056,
5,0,5,0,4,0,4,0,,,,,,,,1.6700857060330967,time,637.0,-5.032826071409839,2.8319575271064506e-05,0,30,[],0.017630779999308288,0.21040668000932783,None,203.94957310007885,203.94957310007885,0.21040668000932783,1.8804923860424245,204.1571411000332,203.94957310007885,,,,,,,,,,,bihhjl,001,fr,0,2022-06-23_12h09.59.632,Continuous,2022.1.1,36.78422045953056,
5,0,5,0,5,0,5,0,,,,,,,,1.6700857060330967,time,253.0,-6.8430049247567,7.473072447768436e-05,0,31,[],0.020308480015955865,None,None,205.83061870001256,205.83061870001256,0.22023187996819615,1.8903175860012928,206.04547470004763,205.83061870001256,,,,,,,,,,,bihhjl,001,fr,0,2022-06-23_12h09.59.632,Continuous,2022.1.1,36.78422045953056,
5,0,5,0,6,0,6,0,,,,,,,,1.6700857060330967,time,425.0,-2.445649717347998,5.680408300324612e-05,0,32,[],0.020130580058321357,None,None,207.71973520005122,207.71973520005122,0.21785458002705127,1.887940286060148,207.924936800031,207.71973520005122,,,,,,,,,,,bihhjl,001,fr,0,2022-06-23_12h09.59.632,Continuous,2022.1.1,36.78422045953056,
5,0,5,0,7,0,7,0,,,,,,,,1.6700857060330967,time,1011.0,2.4493714676649634,5.9013445270472836e-05,0,33,[],0.020033380016684532,None,None,209.59695350006223,209.59695350006223,0.2192456799093634,1.88933138594246,209.80480540008284,209.59695350006223,,,,,,,,,,,bihhjl,001,fr,0,2022-06-23_12h09.59.632,Continuous,2022.1.1,36.78422045953056,
5,0,5,0,8,0,8,0,,,,,,,,1.6700857060330967,time,225.0,0.6674736497679526,0.00023375251591791868,0,34,[],0.015022780047729611,0.20564887998625636,None,211.47792800003663,211.47792800003663,0.20564887998625636,1.875734586019353,211.6897900000913,211.47792800003663,,,,,,,,,,,bihhjl,001,fr,0,2022-06-23_12h09.59.632,Continuous,2022.1.1,36.78422045953056,
5,0,5,0,9,0,9,0,,,,,,,,1.6700857060330967,time,379.0,-8.0,3.264724102951903e-05,0,35,[],0.01869448006618768,0.21351258002687246,None,213.3592493000906,213.3592493000906,0.21351258002687246,1.8835982860599692,213.56476990005467,213.3592493000906,,,,,,,,,,,bihhjl,001,fr,0,2022-06-23_12h09.59.632,Continuous,2022.1.1,36.78422045953056,
5,0,5,0,10,0,10,0,,,,,,,,1.6700857060330967,time,,,,1,35,[],0.019988679909147322,None,None,215.23747420008294,215.23747420008294,0.2207224799785763,1.890808186011673,215.4574936000863,215.23747420008294,,,,,,,,,,,bihhjl,001,fr,0,2022-06-23_12h09.59.632,Continuous,2022.1.1,36.78422045953056,
5,0,5,0,11,0,11,0,,,,,,,,1.6700857060330967,time,200.0,-2.197861834487954,0.00020609948786785566,0,36,[],0.016955680097453296,0.2061168800573796,None,217.11467520007864,217.11467520007864,0.2061168800573796,1.8762025860904763,217.3244974000845,217.11467520007864,,,,,,,,,,,bihhjl,001,fr,0,2022-06-23_12h09.59.632,Continuous,2022.1.1,36.78422045953056,
5,0,5,0,12,0,12,0,,,,,,,,1.6700857060330967,time,126.0,-2.5214930687487955,0.0005339643660701706,0,37,[],0.018806879874318838,0.2136399798328057,None,218.99938900000416,218.99938900000416,0.2136399798328057,1.8837256858659024,219.20472700009122,218.99938900000416,,,,,,,,,,,bihhjl,001,fr,0,2022-06-23_12h09.59.632,Continuous,2022.1.1,36.78422045953056,
6,0,6,0,0,0,0,0,,,,,,223.95788990007713,None,1.9333072104083715,frequency,315.0,3.0953758179648885,0.00014084414418748676,0,34,[],0.023472980014048517,0.22068778006359935,None,224.97092970006634,None,0.22068778006359935,2.153994990471971,225.17565700004343,None,220.87769090000074,None,0.5833333333333334,,,,,,,,bihhjl,001,fr,0,2022-06-23_12h09.59.632,Continuous,2022.1.1,36.78422045953056,
6,0,6,0,1,0,1,0,,,,,,,,1.3345697442051598,frequency,472.0,1.9763128269162071,9.149484682708667e-05,0,35,[],0.014976579928770661,0.2045339799951762,None,227.10897830000613,227.10897830000613,0.2045339799951762,1.539103724200336,227.31315170007292,227.10897830000613,,,,,,,,,,,bihhjl,001,fr,0,2022-06-23_12h09.59.632,Continuous,2022.1.1,36.78422045953056,
6,0,6,0,2,0,2,0,,,,,,,,2.043055508298634,frequency,707.0,1.601940734847836,5.340727472315246e-05,0,36,[],0.019735979847609997,None,None,228.65213870001025,228.65213870001025,0.2195680799195543,2.2626235882181884,228.87270170007832,228.65213870001025,,,,,,,,,,,bihhjl,001,fr,0,2022-06-23_12h09.59.632,Continuous,2022.1.1,36.78422045953056,
6,0,6,0,3,0,3,0,,,,,,,,1.611591761503481,frequency,1059.0,3.471393086273544,6.937638046277539e-05,0,37,[],0.017024280037730932,0.2089291800512001,None,230.9115066000959,230.9115066000959,0.2089291800512001,1.820520941554681,231.11543900007382,230.9115066000959,,,,,,,,,,,bihhjl,001,fr,0,2022-06-23_12h09.59.632,Continuous,2022.1.1,36.78422045953056,
6,0,6,0,4,0,4,0,,,,,,,,2.124054327528908,frequency,1587.0,6.85873473986507,0.00012258006968256726,0,38,[],0.01909247995354235,0.21484327991493046,None,232.7294773000758,232.7294773000758,0.21484327991493046,2.3388976074438386,232.9396001000423,232.7294773000758,,,,,,,,,,,bihhjl,001,fr,0,2022-06-23_12h09.59.632,Continuous,2022.1.1,36.78422045953056,
6,0,6,0,5,0,5,0,,,,,,,,1.8866051079983466,frequency,2378.0,0.43916285978319847,8.750533879741589e-05,0,39,[],0.01964698010124266,None,None,235.05934570007958,235.05934570007958,0.2175175801385194,2.104122688136866,235.27937310002744,235.05934570007958,,,,,,,,,,,bihhjl,001,fr,0,2022-06-23_12h09.59.632,Continuous,2022.1.1,36.78422045953056,
6,0,6,0,6,0,6,0,,,,,,,,1.1402603220571441,frequency,3563.0,-0.10405228435482261,7.536084635831864e-05,0,40,[],0.019483379903249443,None,None,237.16531210008543,237.16531210008543,0.21903987997211516,1.3593002020292593,237.37707930000033,237.16531210008543,,,,,,,,,,,bihhjl,001,fr,0,2022-06-23_12h09.59.632,Continuous,2022.1.1,36.78422045953056,
6,0,6,0,7,0,7,0,,,,,,,,1.6303665579121176,frequency,,,,1,40,[],0.019921679981052876,0.21783277997747064,None,238.5195842999965,238.5195842999965,0.21783277997747064,1.8481993378895882,238.72477850003634,238.5195842999965,,,,,,,,,,,bihhjl,001,fr,0,2022-06-23_12h09.59.632,Continuous,2022.1.1,36.78422045953056,
6,0,6,0,8,0,8,0,,,,,,,,2.7412866495926878,frequency,8000.0,2.0,0.0002285440948074376,0,41,[],0.017035780008882284,0.20705497998278588,None,240.3556543000741,240.3556543000741,0.20705497998278588,2.9483416295754736,240.56396660010796,240.3556543000741,,,,,,,,,,,bihhjl,001,fr,0,2022-06-23_12h09.59.632,Continuous,2022.1.1,36.78422045953056,
7,0,7,0,0,0,0,0,,,,,,246.17618370009586,None,2.1242108082501545,frequency,140.0,4.828617203098538,0.0010272522956523826,0,42,[],0.023351280018687248,None,None,247.18255100003444,None,0.23143687995616347,2.355647688206318,247.3994507000316,None,243.3072414000053,None,0.3333333333333333,,,,,,,,bihhjl,001,fr,0,2022-06-23_12h09.59.632,Continuous,2022.1.1,36.78422045953056,
7,0,7,0,1,0,1,0,,,,,,,,2.3049098258359986,frequency,177.0,6.0,0.0006967609763950413,0,43,[],0.01905448001343757,None,None,249.52139340003487,249.52139340003487,0.21876547997817397,2.5236753058141725,249.7348894000752,249.52139340003487,,,,,,,,,,,bihhjl,001,fr,0,2022-06-23_12h09.59.632,Continuous,2022.1.1,36.78422045953056,
7,0,7,0,2,0,2,0,,,,,,,,2.4902647669571705,frequency,223.0,4.392959742943374,0.00036544484730680776,0,44,[],0.019434779998846352,None,None,252.04242559999693,252.04242559999693,0.219803879968822,2.7100686469259925,252.2636760000605,252.04242559999693,,,,,,,,,,,bihhjl,001,fr,0,2022-06-23_12h09.59.632,Continuous,2022.1.1,36.78422045953056,
7,0,7,0,3,0,3,0,,,,,,,,2.3920661337852636,frequency,281.0,5.78187453769158,0.0002619818410381969,0,45,[],0.0193846799666062,None,None,254.74707939999644,254.74707939999644,0.2196396798826754,2.611705813667939,254.96591650007758,254.74707939999644,,,,,,,,,,,bihhjl,001,fr,0,2022-06-23_12h09.59.632,Continuous,2022.1.1,36.78422045953056,
7,0,7,0,4,0,4,0,,,,,,,,2.5169700378317024,frequency,,,,1,45,[],0.015996479894965887,0.20568767993245274,None,257.356713800109,257.356713800109,0.20568767993245274,2.722657717764155,257.5637722000247,257.356713800109,,,,,,,,,,,bihhjl,001,fr,0,2022-06-23_12h09.59.632,Continuous,2022.1.1,36.78422045953056,
7,0,7,0,5,0,5,0,,,,,,,,2.9900485978023363,frequency,446.0,5.072814684571394,0.00013306615178610218,0,46,[],0.020379479974508286,None,None,260.0820432000328,260.0820432000328,0.2198784799547866,3.209927077757123,260.29319860006217,260.0820432000328,,,,,,,,,,,bihhjl,001,fr,0,2022-06-23_12h09.59.632,Continuous,2022.1.1,36.78422045953056,
7,0,7,0,6,0,6,0,,,,,,,,1.0370331643857778,frequency,562.0,3.2704246160791905,9.001557052072951e-05,0,47,[],0.01912857999559492,None,None,263.28604060004,263.28604060004,0.21953518001828343,1.2565683444040612,263.50727130007,263.28604060004,,,,,,,,,,,bihhjl,001,fr,0,2022-06-23_12h09.59.632,Continuous,2022.1.1,36.78422045953056,
7,0,7,0,7,0,7,0,,,,,,,,2.388152576281292,frequency,708.0,0.7071914009436121,4.808444222721747e-05,0,48,[],0.019215179956518114,None,None,264.54506720008794,264.54506720008794,0.21834997995756567,2.6065025562388575,264.7530128000071,264.54506720008794,,,,,,,,,,,bihhjl,001,fr,0,2022-06-23_12h09.59.632,Continuous,2022.1.1,36.78422045953056,
8,0,8,0,0,0,0,0,,,,,,272.08134500007145,None,2.7740942784434495,frequency,168.0,1.361108216874966,0.00044678881611319183,0,49,[],0.02184278005734086,None,None,273.0927925000433,None,0.22197248006705195,2.9960667585105014,273.30555520008784,None,267.1476748000132,None,0.3333333333333333,,,,,,,,bihhjl,001,fr,0,2022-06-23_12h09.59.632,Continuous,2022.1.1,36.78422045953056,
8,0,8,0,1,0,1,0,,,,,,,,2.266404885995568,frequency,212.0,3.946482417754724,0.00038108103103829413,0,50,[],0.01493558008223772,0.2035606800345704,None,276.0775173000293,276.0775173000293,0.2035606800345704,2.4699655660301385,276.28273140010424,276.0775173000293,,,,,,,,,,,bihhjl,001,fr,0,2022-06-23_12h09.59.632,Continuous,2022.1.1,36.78422045953056,
8,0,8,0,2,0,2,0,,,,,,,,1.1276657949948132,frequency,267.0,6.587531486799849,0.0003191087031098016,0,51,[],0.018639079993590713,0.2157903800252825,None,278.55426540004555,278.55426540004555,0.2157903800252825,1.3434561750200957,278.7658105000155,278.55426540004555,,,,,,,,,,,bihhjl,001,fr,0,2022-06-23_12h09.59.632,Continuous,2022.1.1,36.78422045953056,
8,0,8,0,3,0,3,0,,,,,,,,1.0907314947705486,frequency,337.0,9.983002200806848,0.000293231992059041,0,52,[],0.019078679964877665,0.21746347995940596,None,279.89523130003363,279.89523130003363,0.21746347995940596,1.3081949747299546,280.1011159000918,279.89523130003363,,,,,,,,,,,bihhjl,001,fr,0,2022-06-23_12h09.59.632,Continuous,2022.1.1,36.78422045953056,
8,0,8,0,4,0,4,0,,,,,,,,1.3795778846706561,frequency,425.0,6.251559110210091,0.000154610859593578,0,53,[],0.018834080081433058,None,None,281.1967797999969,281.1967797999969,0.21694568009115756,1.5965235647618137,281.407935300027,281.1967797999969,,,,,,,,,,,bihhjl,001,fr,0,2022-06-23_12h09.59.632,Continuous,2022.1.1,36.78422045953056,
8,0,8,0,5,0,5,0,,,,,,,,1.2839819104753358,frequency,536.0,7.759064149955775,0.00016083048965726416,0,54,[],0.01881298003718257,None,None,282.79305370000657,282.79305370000657,0.2177659800508991,1.501747890526235,283.003666200093,282.79305370000657,,,,,,,,,,,bihhjl,001,fr,0,2022-06-23_12h09.59.632,Continuous,2022.1.1,36.78422045953056,
8,0,8,0,6,0,6,0,,,,,,,,1.909029256305703,frequency,675.0,4.840600574712479,8.244076530984453e-05,0,55,[],0.012852280051447451,0.2026904800441116,None,284.2918099000817,284.2918099000817,0.2026904800441116,2.111719736349815,284.5008295000298,284.2918099000817,,,,,,,,,,,bihhjl,001,fr,0,2022-06-23_12h09.59.632,Continuous,2022.1.1,36.78422045953056,
8,0,8,0,7,0,7,0,,,,,,,,1.2243352531613645,frequency,851.0,6.158709814817392,8.09115360341444e-05,0,56,[],0.018782179919071496,None,None,286.4176239001099,286.4176239001099,0.2185687799938023,1.4429040331551668,286.62755040009506,286.4176239001099,,,,,,,,,,,bihhjl,001,fr,0,2022-06-23_12h09.59.632,Continuous,2022.1.1,36.78422045953056,
8,0,8,0,8,0,8,0,,,,,,,,1.1042195863916793,frequency,1072.0,10.0,0.0001488294249497533,0,57,[],0.014641180052421987,None,None,287.8564141000388,287.8564141000388,0.20510798005852848,1.3093275664502078,288.06571170000825,287.8564141000388,,,,,,,,,,,bihhjl,001,fr,0,2022-06-23_12h09.59.632,Continuous,2022.1.1,36.78422045953056,
8,0,8,0,9,0,9,0,,,,,,,,2.5764376070279527,frequency,1351.0,8.97127753642372,0.00014607692977760227,0,58,[],0.014110779971815646,None,None,289.17488100007176,289.17488100007176,0.20658327999990433,2.783020887027857,289.38943090010434,289.17488100007176,,,,,,,,,,,bihhjl,001,fr,0,2022-06-23_12h09.59.632,Continuous,2022.1.1,36.78422045953056,
8,0,8,0,10,0,10,0,,,,,,,,1.9584073852468304,frequency,1702.0,7.187085823292419,0.00014035000898009208,0,59,[],0.018510080059058964,None,None,291.9721091000829,291.9721091000829,0.21915858006104827,2.1775659653078785,292.1794329000404,291.9721091000829,,,,,,,,,,,bihhjl,001,fr,0,2022-06-23_12h09.59.632,Continuous,2022.1.1,36.78422045953056,
8,0,8,0,11,0,11,0,,,,,,,,2.82016645408247,frequency,2144.0,3.253255205184619,0.00011344331552647611,0,60,[],0.01851078006438911,None,None,294.1439398000948,294.1439398000948,0.21613718010485172,3.0363036341873215,294.3557207999984,294.1439398000948,,,,,,,,,,,bihhjl,001,fr,0,2022-06-23_12h09.59.632,Continuous,2022.1.1,36.78422045953056,
8,0,8,0,12,0,12,0,,,,,,,,2.6708362219488313,frequency,,,,1,60,[],0.018506879918277264,None,None,297.18024930008687,297.18024930008687,0.21655178000219166,2.887388001951023,297.38850700005423,297.18024930008687,,,,,,,,,,,bihhjl,001,fr,0,2022-06-23_12h09.59.632,Continuous,2022.1.1,36.78422045953056,
8,0,8,0,13,0,13,0,,,,,,,,2.2323907428223544,frequency,3403.0,-0.08780978848790255,7.27214964626407e-05,0,61,[],0.019768280093558133,None,None,300.0641561000375,300.0641561000375,0.2191079801414162,2.4514987229637706,300.27860930003226,300.0641561000375,,,,,,,,,,,bihhjl,001,fr,0,2022-06-23_12h09.59.632,Continuous,2022.1.1,36.78422045953056,
8,0,8,0,14,0,14,0,,,,,,,,2.2189482637750144,frequency,4288.0,3.102266556580301,0.0001482954239526555,0,62,[],0.01829128002282232,None,None,302.51401460007764,302.51401460007764,0.217336880043149,2.4362851438181634,302.7284771000268,302.51401460007764,,,,,,,,,,,bihhjl,001,fr,0,2022-06-23_12h09.59.632,Continuous,2022.1.1,36.78422045953056,
9,0,9,0,0,0,0,0,,,,,,310.16736810002476,None,1.4545689939871462,frequency,2245.0,4.916238655046623,0.00014132461674332814,0,63,['frequency'],0.023589080083183944,None,None,311.1778601000551,None,0.23373538011219352,1.6883043740993398,311.38630390004255,None,304.95391480007675,None,0.16666666666666666,"{'estimation': [[125.0, 7.668409374896221], [133.9716828170366, 7.891998981043626], [138.50764110605618, 8.0], [143.5872943746293, 8.116841641288588], [153.89305166811442, 8.30003730536788], [164.93848884661162, 8.424156315109332], [176.77669529663666, 8.494376769502999], [189.46457081379947, 8.536281704761109], [203.0630990890584, 8.591566945618515], [217.63764082403074, 8.706711193296945], [233.25824788420132, 8.921132764757251], [237.02293937105586, 9.0], [249.99999999999937, 9.254415362909509], [267.94336563407256, 9.662211340304083], [282.04612848186116, 10.0], [287.1745887492579, 10.12336892565814], [307.78610333622805, 10.545348796948415], [329.87697769322244, 10.861538816686059], [350.5728981374788, 11.0], [353.55339059327247, 11.02031124736407], [365.0637949102013, 11.0], [378.9291416275985, 10.976822416281427], [406.12619817811606, 10.737267651834044], [435.2752816480601, 10.342147863406579], [455.3497988791583, 10.0], [466.5164957684015, 9.82442434821663], [499.9999999999975, 9.289578711441933], [519.6708237418887, 9.0], [535.8867312681438, 8.772329379952163], [574.3491774985143, 8.378756880212647], [615.5722066724546, 8.137746603142254], [659.7539553864424, 8.094644175348659], [707.1067811865431, 8.273769643287073], [757.8582832551941, 8.662654288077176], [788.7054700309536, 9.0], [812.2523963562301, 9.257567667481196], [870.5505632961181, 9.981558046242386], [871.9662393257358, 10.0], [933.0329915368008, 10.781964771633213], [951.380924873553, 11.0], [999.9999999999926, 11.572437066062236], [1044.7813874511155, 12.0], [1071.773462536285, 12.257695683286535], [1148.698354997026, 12.74515761769101], [1231.1444133449063, 12.984112791412063], [1319.5079107728848, 12.933342711707535], [1414.2135623730828, 12.593381374860336], [1512.7180212348867, 12.0], [1515.7165665103846, 11.982898583936281], [1624.5047927124563, 11.179902932325515], [1645.966632345382, 11.0], [1741.1011265922318, 10.247973132657242], [1772.3179458181069, 10.0], [1866.065983073597, 9.28076254511061], [1906.6286763106748, 9.0], [1999.9999999999802, 8.362222865421783], [2065.0499706303094, 8.0], [2143.5469250725646, 7.559306800551154], [2279.385201523655, 7.0], [2297.396709994046, 6.9230945331672045], [2462.2888266898062, 6.474559437740462], [2639.01582154576, 6.2059949881059895], [2828.427124746159, 6.090992557497483], [3031.4331330207615, 6.097399080722871], [3249.0095854249043, 6.182854999943586], [3482.2022531844596, 6.303856349564114], [3732.1319661471844, 6.423367002803692], [3999.999999999946, 6.5143059035471085], [4287.093850145118, 6.560522144011239], [4594.793419988076, 6.557092515851091], [4924.577653379601, 6.510000053153332], [5278.031643091506, 6.434306733166363], [5656.854249492303, 6.350924320520578], [6062.866266041508, 6.282752553982748], [6498.019170849792, 6.250712265119011], [6964.404506368894, 6.270057603373605], [7464.2639322943505, 6.347707623692758], [7999.999999999882, 6.481839082823289]], 'plus_line': [[125.0, 5.509655117850155], [133.9716828170366, 5.844268552956711], [139.16484128697115, 6.0], [143.5872943746293, 6.10940726413944], [153.89305166811442, 6.274219370460131], [164.93848884661162, 6.378039778140177], [176.77669529663666, 6.446710016688729], [189.46457081379947, 6.515920271119314], [203.0630990890585, 6.6281104571208616], [217.6376408240306, 6.82833952444768], [225.64470901995173, 7.0], [233.25824788420132, 7.131319609189367], [249.99999999999937, 7.487873164432983], [267.94336563407256, 7.943544491470697], [270.1015727961813, 8.0], [287.1745887492579, 8.367831872460613], [307.78610333622805, 8.74602747086382], [326.4734134103696, 9.0], [329.87697769322244, 9.040486480040267], [353.55339059327247, 9.151109517849761], [378.929141627598, 9.103580885534026], [392.71648555566367, 9.0], [406.12619817811606, 8.88725877478239], [435.2752816480601, 8.53694052428878], [466.5164957684015, 8.1306002697628], [475.2001128342706, 8.0], [499.9999999999981, 7.616567624714389], [535.8867312681438, 7.146898757991897], [549.097396620545, 7.0], [574.3491774985143, 6.687880165346879], [615.5722066724546, 6.399423894591713], [659.7539553864432, 6.31536756432053], [707.1067811865431, 6.450646638702572], [757.8582832551941, 6.822809281067876], [773.8013591852712, 7.0], [812.2523963562301, 7.372241064593502], [864.2205893762265, 8.0], [870.5505632961181, 8.073027279231415], [933.0329915368008, 8.804181908266866], [949.7544662002321, 9.0], [999.9999999999926, 9.54025672419086], [1048.1674635510485, 10.0], [1071.773462536285, 10.209184745879021], [1148.698354997026, 10.684332460965216], [1231.1444133449063, 10.963608758046103], [1319.5079107728832, 10.952691134950884], [1414.2135623730828, 10.642004673313687], [1515.7165665103846, 10.11068656623835], [1530.6830213252888, 10.0], [1624.5047927124563, 9.328798482478346], [1665.4451597539548, 9.0], [1741.1011265922318, 8.406479739665784], [1791.9918719038192, 8.0], [1866.065983073597, 7.416249698987196], [1923.07329007425, 7.0], [1999.9999999999802, 6.432885095334457], [2070.317909935252, 6.0], [2143.5469250725646, 5.529720320384378], [2255.111495332771, 5.0], [2297.3967099940432, 4.78131957756276], [2462.2888266898062, 4.225542873848462], [2580.406148910657, 4.0], [2639.01582154576, 3.872714836786347], [2828.427124746162, 3.7119135800663363], [3031.4331330207615, 3.7273505082445366], [3249.0095854249043, 3.8641621122585628], [3403.988746695312, 4.0], [3482.2022531844555, 4.055992366421432], [3732.1319661471844, 4.217747969531562], [3999.9999999999504, 4.322593539657896], [4287.093850145118, 4.345484839086925], [4594.7934199880865, 4.28897150992209], [4924.577653379601, 4.179657398776346], [5278.031643091506, 4.054661331317948], [5472.658964152379, 4.0], [5656.854249492303, 3.940942868737171], [6062.866266041508, 3.8744008727338994], [6498.019170849792, 3.875167020838779], [6964.404506368894, 3.935549041254598], [7297.280586277372, 4.0], [7464.2639322943505, 4.026480849089051], [7999.999999999882, 4.107328567468171]], 'minus_line': [[125.0, 9.883419265651312], [133.65266502803885, 10.0], [133.9716828170366, 10.00483995158383], [143.5872943746293, 10.221476002729915], [153.89305166811442, 10.42630909669631], [164.93848884661162, 10.571035714955997], [176.77669529663666, 10.640058181690254], [189.46457081379947, 10.648829619441598], [203.0630990890585, 10.639878946709183], [217.6376408240306, 10.670850562623851], [233.25824788420132, 10.794673119733199], [246.8410929515606, 11.0], [249.99999999999937, 11.054632691413467], [267.94336563407256, 11.476396546532836], [287.1745887492579, 11.92526939799794], [290.4741099600566, 12.000000000000002], [307.78610333622805, 12.429101074926717], [329.87697769322244, 12.791098111857803], [353.55339059327247, 12.976825723080509], [378.929141627598, 12.945266305199075], [406.12619817811606, 12.687251537713573], [435.2752816480601, 12.208813766928788], [444.79256595676037, 12.0], [466.5164957684015, 11.610099568607318], [497.9885555793083, 11.0], [499.9999999999975, 10.96576945759037], [535.8867312681438, 10.467038193844125], [574.3491774985143, 10.062040304149964], [585.5186787055421, 10.0], [615.5722066724538, 9.866475327424796], [659.7539553864432, 9.873030293844732], [688.3119054645076, 10.0], [707.1067811865431, 10.099846072349404], [757.8582832551941, 10.555472345980244], [796.8073888753288, 11.0], [812.2523963562301, 11.194580158359129], [870.5505632961181, 11.976787884344008], [872.2132609357134, 12.000000000000002], [933.0329915368008, 12.865994234683331], [943.5834801717633, 13.000000000000002], [999.9999999999926, 13.73379279830303], [1026.5093673299702, 14.0], [1071.773462536285, 14.475599225487283], [1148.6983549970246, 14.962629644414918], [1162.5757734466388, 14.999999999999998], [1231.1444133449063, 15.20714779150986], [1319.5079107728848, 15.103910186880727], [1340.3297771566395, 15.0], [1414.2135623730828, 14.7027758550211], [1515.5615151100533, 14.0], [1515.7165665103846, 13.999042860415564], [1624.5047927124563, 13.138701788228177], [1640.1237003108592, 13.0], [1741.1011265922318, 12.16482894926365], [1761.3791311813793, 12.0], [1866.065983073597, 11.195158885986435], [1894.7059575723947, 11.0], [1999.9999999999802, 10.325677178070965], [2062.565175535815, 10.0], [2143.5469250725646, 9.605594121297065], [2297.396709994046, 9.062418789754789], [2324.8352481141583, 9.0], [2462.2888266898062, 8.727404324013435], [2639.01582154576, 8.546780495019362], [2828.427124746159, 8.477081780021905], [3031.4331330207615, 8.483410939930277], [3249.0095854249043, 8.532561780118941], [3482.2022531844596, 8.600581583663478], [3732.1319661471844, 8.674412838661988], [3999.9999999999504, 8.74749032858862], [4287.093850145118, 8.812479190614285], [4594.793419988081, 8.857266251321326], [4924.577653379601, 8.868479683724058], [5278.031643091506, 8.83948714026706], [5656.854249492303, 8.776185472088114], [6062.866266041508, 8.697873774455076], [6498.019170849792, 8.635086403978098], [6964.4045063688845, 8.625738963824709], [7464.26393229436, 8.707128341151265], [7999.999999999882, 8.903289852227777]]}",,,,,,,bihhjl,001,fr,0,2022-06-23_12h09.59.632,Continuous,2022.1.1,36.78422045953056,
9,0,9,0,1,0,1,0,,,,,,,,1.7297558703600073,frequency,2520.0,4.434057282415101,0.0001410402129855346,0,64,['frequency'],0.013196679996326566,0.2038340800208971,None,312.83540030010045,312.83540030010045,0.2038340800208971,1.9335899503809044,313.0424606000306,312.83540030010045,,,,,,,,,,,bihhjl,001,fr,0,2022-06-23_12h09.59.632,Continuous,2022.1.1,36.78422045953056,
9,0,9,0,2,0,2,0,,,,,,,,1.4236845936883231,frequency,,,,1,64,['frequency'],0.01372327993158251,0.2055509799392894,None,314.7687584999949,314.7687584999949,0.2055509799392894,1.6292355736276125,314.981874100049,314.7687584999949,,,,,,,,,,,bihhjl,001,fr,0,2022-06-23_12h09.59.632,Continuous,2022.1.1,36.78422045953056,
9,0,9,0,3,0,3,0,,,,,,,,2.4420192580702835,frequency,3175.0,4.288584407063857,0.00011380252700354931,0,65,['frequency'],0.0153988798847422,0.20545287989079952,None,316.40209210000467,316.40209210000467,0.20545287989079952,2.647472137961083,316.6087785999989,316.40209210000467,,,,,,,,,,,bihhjl,001,fr,0,2022-06-23_12h09.59.632,Continuous,2022.1.1,36.78422045953056,
9,0,9,0,4,0,4,0,,,,,,,,1.8032629656017163,frequency,3564.0,-0.9482554894990534,6.839676368967827e-05,0,66,['frequency'],0.014424680033698678,None,None,319.0545305000851,319.0545305000851,0.20615928003098816,2.009422245632704,319.2653679000214,319.0545305000851,,,,,,,,,,,bihhjl,001,fr,0,2022-06-23_12h09.59.632,Continuous,2022.1.1,36.78422045953056,
9,0,9,0,5,0,5,0,,,,,,,,1.5304603198740554,frequency,4000.0,5.034932791751134,0.00014987066830487458,0,67,['frequency'],0.016050180071033537,None,None,321.07234930002596,321.07234930002596,0.21024998009670526,1.7407102999707607,321.28355900000315,321.07234930002596,,,,,,,,,,,bihhjl,001,fr,0,2022-06-23_12h09.59.632,Continuous,2022.1.1,36.78422045953056,
9,0,9,0,6,0,6,0,,,,,,,,1.8307472132702451,frequency,4490.0,2.7338315362917416,0.00016117668619544564,0,68,['frequency'],0.01750767999328673,None,None,322.8231445000274,322.8231445000274,0.2175761800026521,2.0483233932728973,323.0366915001068,322.8231445000274,,,,,,,,,,,bihhjl,001,fr,0,2022-06-23_12h09.59.632,Continuous,2022.1.1,36.78422045953056,
9,0,9,0,7,0,7,0,,,,,,,,2.496648755125303,frequency,5040.0,3.6488631238090403,0.0002302495774804134,0,69,['frequency'],0.017515979940071702,None,None,324.87572770006955,324.87572770006955,0.2172244800021872,2.7138732351274903,325.084888100042,324.87572770006955,,,,,,,,,,,bihhjl,001,fr,0,2022-06-23_12h09.59.632,Continuous,2022.1.1,36.78422045953056,
9,0,9,0,8,0,8,0,,,,,,,,2.087723127784175,frequency,5657.0,6.0,0.000256427743406346,0,70,['frequency'],0.010859080008231103,0.20241308002732694,None,327.5885400000261,327.5885400000261,0.20241308002732694,2.2901362078115017,327.80495100002736,327.5885400000261,,,,,,,,,,,bihhjl,001,fr,0,2022-06-23_12h09.59.632,Continuous,2022.1.1,36.78422045953056,
9,0,9,0,9,0,9,0,,,,,,,,2.715287087768742,frequency,6350.0,5.034611916269288,0.00023481956240860758,0,71,['frequency'],0.0169595800107345,None,None,329.89192730002105,329.89192730002105,0.21587647998239845,2.9311635677511405,330.1077618000563,329.89192730002105,,,,,,,,,,,bihhjl,001,fr,0,2022-06-23_12h09.59.632,Continuous,2022.1.1,36.78422045953056,
9,0,9,0,10,0,10,0,,,,,,,,1.742455881448482,frequency,7128.0,4.881076597200991,0.00027207221538389745,0,72,['frequency'],0.017074680072255433,None,None,332.8292614000384,332.8292614000384,0.2163300800602883,1.9587859615087704,333.04340250010137,332.8292614000384,,,,,,,,,,,bihhjl,001,fr,0,2022-06-23_12h09.59.632,Continuous,2022.1.1,36.78422045953056,
10,0,10,0,0,0,0,0,,,,,"[0.5833333333333334, 0.16666666666666666, 0.16666666666666666, 0.3333333333333333, 0.16666666666666666, 0.5833333333333334, 0.16666666666666666, 0.16666666666666666, 0.16666666666666666, 0.5833333333333334, 0.5833333333333334, 0.16666666666666666, 0.16666666666666666, 0.16666666666666666, 0.16666666666666666]",338.99783540004864,None,2.6947296979544957,time,2325.0,1.128656105985582,9.339683642780695e-05,0,38,['frequency'],0.02369038003962487,None,None,340.0105084000388,None,0.23824217997025698,2.9329718779247527,340.2246640000958,None,334.7870049000485,None,,,,,,,,,bihhjl,001,fr,0,2022-06-23_12h09.59.632,Continuous,2022.1.1,36.78422045953056,
10,0,10,0,1,0,1,0,,,,,,,,2.6947296979544957,time,1644.0,6.866663314390024,0.0001294932044012297,0,39,['frequency'],0.011410180013626814,None,None,342.9209659000626,342.9209659000626,0.21354368003085256,2.9082733779853482,343.13309470005333,342.9209659000626,,,,,,,,,,,bihhjl,001,fr,0,2022-06-23_12h09.59.632,Continuous,2022.1.1,36.78422045953056,
10,0,10,0,2,0,2,0,,,,,,,,2.6947296979544957,time,1465.0,6.668338699957738,0.00010595713542170281,0,40,['frequency'],0.014692579861730337,0.20730157988145947,None,345.83245470002294,345.83245470002294,0.20730157988145947,2.902031277835955,346.03648650005925,345.83245470002294,,,,,,,,,,,bihhjl,001,fr,0,2022-06-23_12h09.59.632,Continuous,2022.1.1,36.78422045953056,
10,0,10,0,3,0,3,0,,,,,,,,2.6947296979544957,time,4925.0,3.0,0.00020847022442907278,0,41,['frequency'],0.017082879901863635,None,None,348.7350079000462,348.7350079000462,0.2147408799501136,2.9094705779046093,348.94445960002486,348.7350079000462,,,,,,,,,,,bihhjl,001,fr,0,2022-06-23_12h09.59.632,Continuous,2022.1.1,36.78422045953056,
10,0,10,0,4,0,4,0,,,,,,,,2.6947296979544957,time,4388.0,1.4165712056853854,0.00013023522091503483,0,42,['frequency'],0.013219480053521693,None,['space'],351.6427693000296,351.6427693000296,0.204596980009228,2.8993266779637237,351.8546109000454,351.6427693000296,,,,,[-2.469301600009203],,,,,,bihhjl,001,fr,0,2022-06-23_12h09.59.632,Continuous,2022.1.1,36.78422045953056,
10,0,10,0,5,0,5,0,,,,,,,,2.6947296979544957,time,3483.0,-1.1116738035095548,6.58708958642481e-05,0,43,['frequency'],0.01693258003797382,None,None,354.5565273000393,354.5565273000393,0.21621227997820824,2.910941977932704,354.7659150999971,354.5565273000393,,,,,,,,,,,bihhjl,001,fr,0,2022-06-23_12h09.59.632,Continuous,2022.1.1,36.78422045953056,
10,0,10,0,6,0,6,0,,,,,,,,2.6947296979544957,time,3909.0,-1.0150632547442597,7.326091684043617e-05,0,44,['frequency'],0.013164379983209074,0.20299878006335348,None,357.46499290002976,357.46499290002976,0.20299878006335348,2.897728478017849,357.6729824000504,357.46499290002976,,,,,,,,,,,bihhjl,001,fr,0,2022-06-23_12h09.59.632,Continuous,2022.1.1,36.78422045953056,
10,0,10,0,7,0,7,0,,,,,,,,2.6947296979544957,time,1305.0,5.800854343056981,0.00010363225620278619,0,45,['frequency'],0.009406480006873608,0.20041667995974422,None,360.3750381000573,360.3750381000573,0.20041667995974422,2.89514637791424,360.5858535000589,360.3750381000573,,,,,,,,,,,bihhjl,001,fr,0,2022-06-23_12h09.59.632,Continuous,2022.1.1,36.78422045953056,
10,0,10,0,8,0,8,0,,,,,,,,2.6947296979544957,time,,,,1,45,['frequency'],0.01338268001563847,0.2041680800030008,None,363.2853951000143,363.2853951000143,0.2041680800030008,2.8988977779574965,363.49259420007,363.2853951000143,,,,,,,,,,,bihhjl,001,fr,0,2022-06-23_12h09.59.632,Continuous,2022.1.1,36.78422045953056,
10,0,10,0,9,0,9,0,,,,,,,,2.6947296979544957,time,2071.0,3.0,0.0001078976114840773,0,46,['frequency'],0.014377379906363785,0.2049852799391374,None,366.1902625000803,366.1902625000803,0.2049852799391374,2.899714977893633,366.3917494000634,366.1902625000803,,,,,,,,,,,bihhjl,001,fr,0,2022-06-23_12h09.59.632,Continuous,2022.1.1,36.78422045953056,
10,0,10,0,10,0,10,0,,,,,,,,2.6947296979544957,time,7379.0,2.8495364122596385,0.00022589390505006445,0,47,['frequency'],0.012029379955492914,0.20275427994783968,None,369.09287570009474,369.09287570009474,0.20275427994783968,2.8974839779023354,369.30065180000383,369.09287570009474,,,,,,,,,,,bihhjl,001,fr,0,2022-06-23_12h09.59.632,Continuous,2022.1.1,36.78422045953056,
11,0,11,0,0,0,0,0,,,,,"[0.5833333333333334, 0.3333333333333333, 0.16666666666666666, 0.5833333333333334, 0.16666666666666666, 0.3333333333333333, 0.3333333333333333, 0.16666666666666666, 0.16666666666666666, 0.5833333333333334, 0.16666666666666666, 0.5833333333333334, 0.16666666666666666, 0.16666666666666666, 0.16666666666666666]",377.9273277000757,None,1.5799340984792467,time,281.0,3.314034852626231,0.00019718742035056976,0,48,['frequency'],0.023695379844866693,None,None,378.94390910002403,None,0.22958297992590815,1.8095170784051549,379.1563302000286,None,372.003286399995,None,,,,,,,,,bihhjl,001,fr,0,2022-06-23_12h09.59.632,Continuous,2022.1.1,36.78422045953056,
11,0,11,0,1,0,1,0,,,,,,,,1.5799340984792467,time,1122.0,4.583067473989695,8.331519034499725e-05,0,49,['frequency'],0.012239880044944584,0.20424988004378974,None,380.739184700069,380.739184700069,0.20424988004378974,1.7841839785230365,380.9526502999943,380.739184700069,,,,,,,,,,,bihhjl,001,fr,0,2022-06-23_12h09.59.632,Continuous,2022.1.1,36.78422045953056,
11,0,11,0,2,0,2,0,,,,,,,,1.5799340984792467,time,158.0,3.6664197226733473,0.0006541906422722898,0,50,['frequency'],0.01247478008735925,0.2032963801175356,None,382.5389189000707,382.5389189000707,0.2032963801175356,1.7832304785967823,382.7420910000801,382.5389189000707,,,,,,,,,,,bihhjl,001,fr,0,2022-06-23_12h09.59.632,Continuous,2022.1.1,36.78422045953056,
11,0,11,0,3,0,3,0,,,,,,,,1.5799340984792467,time,595.0,1.8076030124241393,6.9724559316142e-05,0,51,['frequency'],0.012845780001953244,0.2052663799840957,None,384.32568300003186,384.32568300003186,0.2052663799840957,1.7852004784633424,384.5383200000506,384.32568300003186,,,,,,,,,,,bihhjl,001,fr,0,2022-06-23_12h09.59.632,Continuous,2022.1.1,36.78422045953056,
11,0,11,0,4,0,4,0,,,,,,,,1.5799340984792467,time,177.0,1.671240930039313,0.00042329765794469606,0,52,['frequency'],0.01635938009712845,None,None,386.1186301000416,386.1186301000416,0.2168402801034972,1.796774378582744,386.33339200005867,386.1186301000416,,,,,,,,,,,bihhjl,001,fr,0,2022-06-23_12h09.59.632,Continuous,2022.1.1,36.78422045953056,
11,0,11,0,5,0,5,0,,,,,,,,1.5799340984792467,time,1259.0,5.117142865905657,9.78460410927274e-05,0,53,['frequency'],0.008640579995699227,0.2023932799929753,None,387.92118720000144,387.92118720000144,0.2023932799929753,1.782327378472222,388.13379360002,387.92118720000144,,,,,,,,,,,bihhjl,001,fr,0,2022-06-23_12h09.59.632,Continuous,2022.1.1,36.78422045953056,
11,0,11,0,6,0,6,0,,,,,,,,1.5799340984792467,time,1000.0,3.4410652558454125,6.546712468404674e-05,0,54,['frequency'],0.0120549799175933,None,None,389.71921710006427,389.71921710006427,0.21234357997309417,1.7922776784523409,389.93465670000296,389.71921710006427,,,,,,,,,,,bihhjl,001,fr,0,2022-06-23_12h09.59.632,Continuous,2022.1.1,36.78422045953056,
11,0,11,0,7,0,7,0,,,,,,,,1.5799340984792467,time,223.0,1.552480087842957,0.00026351046055727803,0,55,['frequency'],0.01233807997778058,0.20364247995894402,None,391.5197277000407,391.5197277000407,0.20364247995894402,1.7835765784381907,391.72623980010394,391.5197277000407,,,,,,,,,,,bihhjl,001,fr,0,2022-06-23_12h09.59.632,Continuous,2022.1.1,36.78422045953056,
11,0,11,0,8,0,8,0,,,,,,,,1.5799340984792467,time,891.0,2.459965974368962,5.4362513513009776e-05,0,56,['frequency'],0.008793580112978816,0.19965598010458052,None,393.3094096001005,393.3094096001005,0.19965598010458052,1.7795900785838272,393.51943700003903,393.3094096001005,,,,,,,,,,,bihhjl,001,fr,0,2022-06-23_12h09.59.632,Continuous,2022.1.1,36.78422045953056,
11,0,11,0,9,0,9,0,,,,,,,,1.5799340984792467,time,354.0,4.0,0.0001402573203505389,0,57,['frequency'],0.012904979987069964,0.20436477998737246,None,395.10498709999956,395.10498709999956,0.20436477998737246,1.7842988784666192,395.31523070007097,395.10498709999956,,,,,,,,,,,bihhjl,001,fr,0,2022-06-23_12h09.59.632,Continuous,2022.1.1,36.78422045953056,
11,0,11,0,10,0,10,0,,,,,,,,1.5799340984792467,time,315.0,3.8281059740153407,0.00015324111490740695,0,58,['frequency'],0.007298680022358894,0.19789707998279482,None,396.8990132000763,396.8990132000763,0.19789707998279482,1.7778311784620415,397.10898650006857,396.8990132000763,,,,,,,,,,,bihhjl,001,fr,0,2022-06-23_12h09.59.632,Continuous,2022.1.1,36.78422045953056,
11,0,11,0,11,0,11,0,,,,,,,,1.5799340984792467,time,,,,1,58,['frequency'],0.012586180004291236,0.20337838004343212,None,398.6940429999959,398.6940429999959,0.20337838004343212,1.7833124785226788,398.90379870007746,398.6940429999959,,,,,,,,,,,bihhjl,001,fr,0,2022-06-23_12h09.59.632,Continuous,2022.1.1,36.78422045953056,
12,0,12,0,0,0,0,0,,,,,"[0.3333333333333333, 0.5833333333333334, 0.3333333333333333, 0.3333333333333333, 0.3333333333333333, 0.16666666666666666, 0.16666666666666666, 0.5833333333333334, 0.3333333333333333, 0.3333333333333333, 0.5833333333333334, 0.3333333333333333, 0.16666666666666666, 0.5833333333333334, 0.16666666666666666]",407.01622310001403,None,2.717672299934306,none,1516.0,6.716283064559926,0.00010758961351761558,0,52,['frequency'],0.023397980025038123,None,None,408.03490160009824,None,0.23013158002868295,2.947803879962989,408.2490653001005,None,400.49043190001976,None,,,,,,,,,bihhjl,001,fr,0,2022-06-23_12h09.59.632,Continuous,2022.1.1,36.78422045953056,
12,0,12,0,1,0,1,0,,,,,,,,2.223222207633369,none,301.0,4.650203891135471,0.00019378745171154488,0,53,['frequency'],0.015516279847361147,0.21358357986900955,None,410.96666400006507,410.96666400006507,0.21358357986900955,2.4368057875023785,411.17181720002554,410.96666400006507,,,,,,,,,,,bihhjl,001,fr,0,2022-06-23_12h09.59.632,Continuous,2022.1.1,36.78422045953056,
12,0,12,0,2,0,2,0,,,,,,,,1.6020838318593331,none,126.0,5.84528399947151,0.0013991076425670548,0,54,['frequency'],0.015571580035611987,None,None,413.403773500002,413.403773500002,0.21428598009515554,1.8163698119544887,413.60861890006345,413.403773500002,,,,,,,,,,,bihhjl,001,fr,0,2022-06-23_12h09.59.632,Continuous,2022.1.1,36.78422045953056,
12,0,12,0,3,0,3,0,,,,,,,,1.5461005700040729,none,478.0,3.979633602381707,0.00011474447417475285,0,55,['frequency'],0.015708280028775334,None,None,415.2200820000144,415.2200820000144,0.21495688008144498,1.7610574500855178,415.4289054000983,415.2200820000144,,,,,,,,,,,bihhjl,001,fr,0,2022-06-23_12h09.59.632,Continuous,2022.1.1,36.78422045953056,
12,0,12,0,4,0,4,0,,,,,,,,2.6202278611926073,none,716.0,2.4526086511846583,5.785577743947819e-05,0,56,['frequency'],0.011971579981036484,0.2017870800336823,None,416.97984430007637,416.97984430007637,0.2017870800336823,2.8220149412262896,417.1900332000805,416.97984430007637,,,,,,,,,,,bihhjl,001,fr,0,2022-06-23_12h09.59.632,Continuous,2022.1.1,36.78422045953056,
12,0,12,0,5,0,5,0,,,,,,,,1.7242301860092413,none,201.0,1.0179983854822185,0.0002962460523092165,0,57,['frequency'],0.011776180006563663,0.20136038004420698,None,419.8170774000464,419.8170774000464,0.20136038004420698,1.9255905660534482,420.0220262000803,419.8170774000464,,,,,,,,,,,bihhjl,001,fr,0,2022-06-23_12h09.59.632,Continuous,2022.1.1,36.78422045953056,
12,0,12,0,6,0,6,0,,,,,,,,1.385888901342795,none,1012.0,5.610615459588756,8.500042000848287e-05,0,58,['frequency'],0.012215780094265938,None,None,421.74681130005047,421.74681130005047,0.20221188012510538,1.5881007814679005,421.96118159999605,421.74681130005047,,,,,,,,,,,bihhjl,001,fr,0,2022-06-23_12h09.59.632,Continuous,2022.1.1,36.78422045953056,
12,0,12,0,7,0,7,0,,,,,,,,2.6336057917711324,none,379.0,6.0,0.0001636238041714742,0,59,['frequency'],0.012939879903569818,None,None,423.34768880007323,423.34768880007323,0.20638147997669876,2.839987271747831,423.56265020009596,423.34768880007323,,,,,,,,,,,bihhjl,001,fr,0,2022-06-23_12h09.59.632,Continuous,2022.1.1,36.78422045953056,
12,0,12,0,8,0,8,0,,,,,,,,2.380387848576328,none,159.0,5.440541297004993,0.0007857806266949443,0,60,['frequency'],0.01547928003128618,None,None,426.19964060001075,426.19964060001075,0.2128552800277248,2.593243128604053,426.40858899999876,426.19964060001075,,,,,,,,,,,bihhjl,001,fr,0,2022-06-23_12h09.59.632,Continuous,2022.1.1,36.78422045953056,
12,0,12,0,9,0,9,0,,,,,,,,2.183481789631726,none,,,,1,60,['frequency'],0.009124179952777922,0.20088088000193238,None,428.7968724000966,428.7968724000966,0.20088088000193238,2.384362669633658,429.008212500019,428.7968724000966,,,,,,,,,,,bihhjl,001,fr,0,2022-06-23_12h09.59.632,Continuous,2022.1.1,36.78422045953056,
12,0,12,0,10,0,10,0,,,,,,,,2.0813462233496662,none,179.0,2.2774244092985176,0.00044442705556241074,0,61,['frequency'],0.012794079957529902,0.20182787999510765,None,431.1960012000054,431.1960012000054,0.20182787999510765,2.283174103344774,431.4040138000855,431.1960012000054,,,,,,,,,,,bihhjl,001,fr,0,2022-06-23_12h09.59.632,Continuous,2022.1.1,36.78422045953056,
12,0,12,0,11,0,11,0,,,,,,,,2.8276861723762954,none,1702.0,6.037768619218721,0.00012295511053133924,0,62,['frequency'],0.008255979977548122,None,None,433.4873379000928,433.4873379000928,0.20290937996469438,3.0305955523409898,433.6963042001007,433.4873379000928,,,,,,,,,,,bihhjl,001,fr,0,2022-06-23_12h09.59.632,Continuous,2022.1.1,36.78422045953056,
13,0,13,0,0,0,0,0,,,,,"[0.3333333333333333, 0.16666666666666666, 0.16666666666666666, 0.3333333333333333, 0.5833333333333334, 0.5833333333333334, 0.16666666666666666, 0.3333333333333333, 0.3333333333333333, 0.3333333333333333, 0.16666666666666666, 0.16666666666666666, 0.5833333333333334, 0.3333333333333333, 0.5833333333333334]",443.0435734000057,None,1.4111928436031147,time,630.0,9.070884707689494,0.0001453832053315996,0,59,"['frequency', 'time']",0.015896379947662354,None,None,444.0682973000221,None,0.21583967993501574,1.6270325235381304,444.28348630003165,None,436.52929960004985,None,,,,"{'estimation': [[125.0, 6.466984628827689], [133.9716828170366, 6.683291711512011], [143.5872943746293, 6.896868764456838], [149.30024240502357, 7.0], [153.89305166811442, 7.082075833029767], [164.93848884661162, 7.213959639262515], [176.77669529663666, 7.286705189719114], [189.46457081379947, 7.312423443320989], [203.0630990890585, 7.3146064031931735], [217.6376408240306, 7.321281497798208], [233.25824788420132, 7.355700732929125], [249.99999999999937, 7.427803143138287], [267.94336563407256, 7.529941927586236], [287.1745887492579, 7.638497736503435], [307.78610333622805, 7.719785677429332], [329.87697769322244, 7.738611313788552], [353.55339059327247, 7.668547803474425], [378.929141627598, 7.499673353407872], [406.12619817811606, 7.239331652355473], [427.0978563232572, 7.000000000000001], [435.2752816480601, 6.909957329683025], [466.5164957684015, 6.562877025241685], [499.9999999999975, 6.236163998359216], [531.3200100143576, 6.0], [535.8867312681438, 5.9671491264637115], [574.3491774985151, 5.80142138955918], [615.5722066724546, 5.767440213923146], [659.753955386444, 5.885270971144351], [678.4819042635972, 6.0], [707.1067811865431, 6.170782055626361], [757.8582832551941, 6.614918900842042], [792.4055256664653, 7.0], [812.2523963562301, 7.220691545820335], [870.5505632961181, 7.950109812978889], [874.2778097381538, 8.0], [933.0329915368008, 8.774092528568202], [950.4467941845535, 9.0], [999.9999999999926, 9.63052883880345], [1031.9779019253122, 10.0], [1071.773462536285, 10.446228490662463], [1132.8933045223507, 11.0], [1148.698354997026, 11.138162977923077], [1231.1444133449063, 11.634119681396683], [1319.5079107728832, 11.869869382435791], [1414.2135623730828, 11.816887159848047], [1515.7165665103846, 11.475408082803291], [1598.666690470783, 11.0], [1624.5047927124563, 10.862329694980877], [1741.1011265922318, 10.060818125604937], [1749.0511655192392, 10.0], [1866.065983073597, 9.137084415575934], [1884.8964276705644, 9.0], [1999.9999999999802, 8.169872265627852], [2026.0044112018577, 8.0], [2143.5469250725646, 7.226290717226911], [2183.6815742925596, 7.0], [2297.396709994046, 6.349097819700599], [2370.6156543821708, 6.0], [2462.2888266898062, 5.556752643564204], [2602.22156681757, 5.0], [2639.01582154576, 4.8524548115453054], [2828.427124746159, 4.2355658270658045], [2913.6388075150926, 4.0], [3031.4331330207615, 3.6896840267097915], [3249.0095854249043, 3.2392887470980463], [3405.827132144259, 3.0], [3482.2022531844555, 2.891786959382261], [3732.1319661471844, 2.6915240981648583], [3999.9999999999504, 2.6608762750233996], [4287.093850145118, 2.8124881953170964], [4458.0203224230545, 3.0], [4594.793419988081, 3.1451905736073473], [4924.577653379601, 3.6089507256817193], [5172.636369228482, 4.0], [5278.031643091506, 4.165136620941833], [5656.854249492303, 4.733246697812843], [5856.3152248480565, 5.0], [6062.866266041508, 5.270826872124319], [6498.019170849792, 5.711711372763436], [6896.462122104415, 6.0], [6964.404506368894, 6.048559074343756], [7464.2639322943505, 6.270934308423491], [7999.999999999882, 6.393262804344102]], 'plus_line': [[125.0, 3.848483607689524], [128.5298103672005, 4.0], [133.9716828170366, 4.192454335529503], [143.5872943746293, 4.4480170096933795], [153.89305166811442, 4.6234392596629625], [164.93848884661162, 4.721733715445063], [176.77669529663666, 4.763771145248477], [189.46457081379947, 4.783664285144929], [203.0630990890585, 4.817669660776071], [217.6376408240306, 4.893568579056044], [230.36185492316247, 5.0], [233.25824788420132, 5.019723945430899], [249.99999999999937, 5.160604907762857], [267.94336563407256, 5.3013205201099005], [287.1745887492579, 5.406862008387478], [307.78610333622805, 5.4434847732073735], [329.87697769322244, 5.387790238244895], [353.55339059327247, 5.2341284563479995], [378.16224204830615, 5.0], [378.929141627598, 4.991633637763092], [406.12619817811606, 4.653314135200345], [435.2752816480601, 4.309144163026993], [464.63841061738407, 4.0], [466.5164957684015, 3.9783110566623994], [499.9999999999975, 3.656322613779444], [535.8867312681438, 3.4237076330790703], [574.3491774985143, 3.2907143506212853], [615.5722066724546, 3.274125745013916], [659.7539553864432, 3.392596490494438], [707.1067811865431, 3.6656800846499165], [744.3390021864919, 4.0], [757.8582832551941, 4.108109513404776], [812.2523963562301, 4.658542724891273], [840.0153482909075, 5.0], [870.5505632961181, 5.348676181432481], [921.8897461976516, 6.0], [933.0329915368008, 6.135250624482385], [999.9999999999926, 6.967602727957168], [1002.6278223661345, 7.0], [1071.773462536285, 7.784273342535912], [1092.1550651032137, 8.0], [1148.698354997026, 8.538673642749565], [1208.0493483469177, 9.0], [1231.1444133449063, 9.158807517478625], [1319.5079107728832, 9.522985703918065], [1414.2135623730828, 9.605740257617686], [1515.7165665103846, 9.37236755363266], [1591.1328799155535, 9.0], [1624.5047927124563, 8.827424835274929], [1741.1011265922318, 8.048900289283827], [1747.378907956473, 8.0], [1866.065983073597, 7.085124742730045], [1877.033386636803, 7.0], [1999.9999999999802, 6.042392862326973], [2005.8654954442636, 6.0], [2141.7856343698227, 5.0], [2143.5469250725646, 4.987018270720091], [2294.0760240276218, 4.0], [2297.396709994046, 3.977962059121689], [2462.2888266898062, 3.0618681467988837], [2476.1427343046935, 3.0], [2639.01582154576, 2.258128028946067], [2713.5731632426564, 2.0], [2828.427124746159, 1.5908164523159525], [3031.4331330207615, 1.0845242569019145], [3077.71787421634, 1.0], [3249.0095854249043, 0.6795973173714771], [3482.2022531844555, 0.4281683186488163], [3732.1319661471844, 0.3243281774511517], [3999.9999999999504, 0.3688743507361081], [4287.093850145118, 0.565881384847831], [4594.7934199880865, 0.9251222551288907], [4644.437391144436, 1.0], [4924.577653379601, 1.3628530184337229], [5278.031643091506, 1.883456264558063], [5354.955924126501, 2.0], [5656.854249492303, 2.4046746249673716], [6062.866266041508, 2.92243408620713], [6132.555118509197, 3.0], [6498.019170849792, 3.3486644627934834], [6964.404506368902, 3.6714568618154324], [7464.2639322943505, 3.860832852107761], [7999.999999999882, 3.876332148000613]], 'minus_line': [[125.0, 9.199127718818687], [133.9716828170366, 9.313458873633135], [143.5872943746293, 9.494004540957903], [153.89305166811442, 9.689284735146908], [164.93848884661162, 9.852531073236374], [176.77669529663666, 9.952030102244173], [189.46457081379947, 9.977188107542066], [203.0630990890585, 9.941293826271504], [217.6376408240306, 9.876987078455839], [233.25824788420118, 9.825269672631789], [249.99999999999952, 9.821465023410521], [267.94336563407256, 9.881459112806416], [287.1745887492579, 9.994174388683422], [288.07690444755707, 10.0], [307.78610333622805, 10.148289036342113], [329.87697769322244, 10.26035137286403], [353.55339059327247, 10.282388177579328], [378.929141627598, 10.181824775121434], [399.56222371969113, 10.0], [406.12619817811606, 9.950504319552158], [435.2752816480601, 9.644331319744927], [466.5164957684015, 9.263250423878203], [487.7325144504329, 9.0], [499.9999999999975, 8.87047817599176], [535.8867312681438, 8.564554839903845], [574.3491774985143, 8.35948754926297], [615.5722066724546, 8.302760299031728], [659.7539553864432, 8.423368626209786], [707.1067811865431, 8.721434590598488], [736.5195781808056, 9.0], [757.8582832551941, 9.220038383258359], [812.2523963562301, 9.886218815956122], [820.4036390378758, 9.999999999999998], [870.5505632961181, 10.719921227930506], [889.8892643533163, 11.0], [933.0329915368008, 11.635576456579866], [959.6823702012166, 12.0], [999.9999999999914, 12.554959845057166], [1038.7327081366902, 13.0], [1071.773462536285, 13.382113286326824], [1148.3613772111657, 14.0], [1148.698354997026, 14.00280689466475], [1231.1444133449063, 14.410804925220841], [1319.5079107728832, 14.495311426287405], [1414.2135623730828, 14.271003755374476], [1463.7718705290895, 14.0], [1515.7165665103864, 13.76985831096017], [1624.5047927124563, 13.047692474957424], [1630.4581936479206, 13.0], [1741.1011265922298, 12.207177474881743], [1767.8872203456106, 12.0], [1866.065983073597, 11.288640115066043], [1907.3616092080958, 11.0], [1999.9999999999802, 10.378121350944081], [2063.322644662007, 10.0], [2143.5469250725646, 9.534552496650477], [2251.7700827564727, 9.0], [2297.396709994046, 8.779169973271491], [2462.2888266898062, 8.121810364393953], [2496.679379855822, 8.0], [2639.015821545763, 7.534484452093334], [2809.862061718056, 7.0], [2828.427124746155, 6.945896943962781], [3031.4331330207615, 6.413259464326357], [3195.5601212388897, 6.0], [3249.0095854249043, 5.881940276914125], [3482.2022531844555, 5.462278550254048], [3732.1319661471844, 5.14996740658715], [3999.9999999999504, 5.01740689604914], [4287.093850145118, 5.119482906911719], [4594.793419988081, 5.434616418380826], [4924.577653379601, 5.891357419512755], [4990.287523381731, 6.0], [5278.031643091506, 6.496628723048186], [5600.722917797504, 7.0], [5656.854249492303, 7.094392190939881], [6062.866266041516, 7.664461761750616], [6394.627987945637, 8.0], [6498.019170849792, 8.114281003599876], [6964.404506368894, 8.474827624490358], [7464.26393229436, 8.736969836207138], [7999.999999999892, 8.970106976210705]]}",,,,,bihhjl,001,fr,0,2022-06-23_12h09.59.632,Continuous,2022.1.1,36.78422045953056,
13,0,13,0,1,0,1,0,,,,,,,,1.4111928436031147,time,4489.0,6.929765698340383,0.00026112284958729323,0,60,"['frequency', 'time']",0.009702380048111081,0.19899608008563519,None,445.69608990009874,445.69608990009874,0.19899608008563519,1.6101889236887499,445.9084182000952,445.69608990009874,,,,,,,,,,,bihhjl,001,fr,0,2022-06-23_12h09.59.632,Continuous,2022.1.1,36.78422045953056,
13,0,13,0,2,0,2,0,,,,,,,,1.4111928436031147,time,,,,1,60,"['frequency', 'time']",0.01026667992118746,0.19946827995590866,None,447.3247603001073,447.3247603001073,0.19946827995590866,1.6106611235590234,447.527082500048,447.3247603001073,,,,,,,,,,,bihhjl,001,fr,0,2022-06-23_12h09.59.632,Continuous,2022.1.1,36.78422045953056,
13,0,13,0,3,0,3,0,,,,,,,,1.4111928436031147,time,176.0,1.4881178713320478,0.0004187893474389402,0,61,"['frequency', 'time']",0.011570179951377213,0.20018687995616347,None,448.94273660006,448.94273660006,0.20018687995616347,1.6113797235592782,449.15135840000585,448.94273660006,,,,,,,,,,,bihhjl,001,fr,0,2022-06-23_12h09.59.632,Continuous,2022.1.1,36.78422045953056,
13,0,13,0,4,0,4,0,,,,,,,,1.4111928436031147,time,1587.0,9.439912500670989,0.0001649980273283637,0,62,"['frequency', 'time']",0.01033218007069081,0.2010512800188735,None,450.5623226000462,450.5623226000462,0.2010512800188735,1.6122441236219882,450.7642843000358,450.5623226000462,,,,,,,,,,,bihhjl,001,fr,0,2022-06-23_12h09.59.632,Continuous,2022.1.1,36.78422045953056,
13,0,13,0,5,0,5,0,,,,,,,,1.4111928436031147,time,374.0,7.628499938749223,0.00020048963716699805,0,63,"['frequency', 'time']",0.010830679908394814,0.20201687992084771,None,452.1815004000673,452.1815004000673,0.20201687992084771,1.6132097235239624,452.38470240007155,452.1815004000673,,,,,,,,,,,bihhjl,001,fr,0,2022-06-23_12h09.59.632,Continuous,2022.1.1,36.78422045953056,
13,0,13,0,6,0,6,0,,,,,,,,1.4111928436031147,time,2996.0,0.5457679988399948,5.8643927568703725e-05,0,64,"['frequency', 'time']",0.011042379890568554,0.20114757993724197,None,453.8022164000431,453.8022164000431,0.20114757993724197,1.6123404235403567,454.0111566000851,453.8022164000431,,,,,,,,,,,bihhjl,001,fr,0,2022-06-23_12h09.59.632,Continuous,2022.1.1,36.78422045953056,
13,0,13,0,7,0,7,0,,,,,,,,1.4111928436031147,time,1260.0,6.060152373210049,0.00010901721193257619,0,65,"['frequency', 'time']",0.010010580066591501,0.1995760800782591,None,455.4231291000033,455.4231291000033,0.1995760800782591,1.6107689236813738,455.63477220002096,455.4231291000033,,,,,,,,,,,bihhjl,001,fr,0,2022-06-23_12h09.59.632,Continuous,2022.1.1,36.78422045953056,
13,0,13,0,8,0,8,0,,,,,,,,1.4111928436031147,time,1414.0,8.572590789811686,0.00013532695664274377,0,66,"['frequency', 'time']",0.006714679999276996,0.1967708800220862,None,457.0459834000794,457.0459834000794,0.1967708800220862,1.607963723625201,457.2565420001047,457.0459834000794,,,,,,,,,,,bihhjl,001,fr,0,2022-06-23_12h09.59.632,Continuous,2022.1.1,36.78422045953056,
13,0,13,0,9,0,9,0,,,,,,,,1.4111928436031147,time,198.0,7.8935242841015345,0.000676710693483543,0,67,"['frequency', 'time']",0.010884879971854389,None,None,458.67470850003883,458.67470850003883,0.20181387988850474,1.6130067234916194,458.8848803000292,458.67470850003883,,,,,,,,,,,bihhjl,001,fr,0,2022-06-23_12h09.59.632,Continuous,2022.1.1,36.78422045953056,
13,0,13,0,10,0,10,0,,,,,,,,1.4111928436031147,time,561.0,9.668399401244825,0.0001885001759778671,0,68,"['frequency', 'time']",0.010203780024312437,0.1997364800190553,None,460.30441229999997,460.30441229999997,0.1997364800190553,1.61092932362217,460.50702610006556,460.30441229999997,,,,,,,,,,,bihhjl,001,fr,0,2022-06-23_12h09.59.632,Continuous,2022.1.1,36.78422045953056,
13,0,13,0,11,0,11,0,,,,,,,,1.4111928436031147,time,1000.0,10.0,0.00013930605843148847,0,69,"['frequency', 'time']",0.01047127996571362,0.20081357995513827,None,461.9246289000148,461.9246289000148,0.20081357995513827,1.612006423558253,462.1378202000633,461.9246289000148,,,,,,,,,,,bihhjl,001,fr,0,2022-06-23_12h09.59.632,Continuous,2022.1.1,36.78422045953056,
13,0,13,0,12,0,12,0,,,,,,,,1.4111928436031147,time,250.0,8.27764557307989,0.0004343624589121508,0,70,"['frequency', 'time']",0.012489980086684227,None,None,463.5567239000229,463.5567239000229,0.20702838012948632,1.618221223732601,463.76967500010505,463.5567239000229,,,,,,,,,,,bihhjl,001,fr,0,2022-06-23_12h09.59.632,Continuous,2022.1.1,36.78422045953056,
13,0,13,0,13,0,13,0,,,,,,,,1.4111928436031147,time,157.0,1.8755690573806478,0.0005433550949323017,0,71,"['frequency', 'time']",0.010578779969364405,0.20011047995649278,None,465.1821431000717,465.1821431000717,0.20011047995649278,1.6113033235596075,465.3903003000887,465.1821431000717,,,,,,,,,,,bihhjl,001,fr,0,2022-06-23_12h09.59.632,Continuous,2022.1.1,36.78422045953056,
13,0,13,0,14,0,14,0,,,,,,,,1.4111928436031147,time,2378.0,9.549719996448772,0.0002497827297313358,0,72,"['frequency', 'time']",0.007495880010537803,0.2008231800282374,None,466.80481080000754,466.80481080000754,0.2008231800282374,1.612016023631352,467.0165195000591,466.80481080000754,,,,,,,,,,,bihhjl,001,fr,0,2022-06-23_12h09.59.632,Continuous,2022.1.1,36.78422045953056,
14,0,14,0,0,0,0,0,,,,,,472.4088215000229,None,2.0330176164322786,both,776.0,0.8782388679978905,4.3657781453838636e-05,0,36,"['frequency', 'time']",0.023294380051083863,0.22119148005731404,None,473.41591670003254,None,0.22119148005731404,2.2542090964895927,473.62452900002245,None,468.43590380006935,None,0.3333333333333333,,,,,,,,bihhjl,001,fr,0,2022-06-23_12h09.59.632,Continuous,2022.1.1,36.78422045953056,
14,0,14,0,1,0,1,0,,,,,,,,2.0330176164322786,both,978.0,1.2203554025825052,4.9978041038969045e-05,0,37,"['frequency', 'time']",0.013600679929368198,None,None,475.6691997000016,475.6691997000016,0.21180807997006923,2.244825696402348,475.8804272999987,475.6691997000016,,,,,,,,,,,bihhjl,001,fr,0,2022-06-23_12h09.59.632,Continuous,2022.1.1,36.78422045953056,
14,0,14,0,2,0,2,0,,,,,,,,2.0330176164322786,both,,,,1,37,"['frequency', 'time']",0.010168679989874363,0.19935708004049957,['space'],477.91366580000613,477.91366580000613,0.19935708004049957,2.232374696472778,478.12406180007383,477.91366580000613,,,,,[-1.243867599987425],,,,,,bihhjl,001,fr,0,2022-06-23_12h09.59.632,Continuous,2022.1.1,36.78422045953056,
14,0,14,0,3,0,3,0,,,,,,,,2.0330176164322786,both,1552.0,1.786435945597166,6.472847063939092e-05,0,38,"['frequency', 'time']",0.014861979987472296,None,None,480.15593890007585,480.15593890007585,0.21488347998820245,2.247901096420481,480.36450540006626,480.15593890007585,,,,,,,,,,,bihhjl,001,fr,0,2022-06-23_12h09.59.632,Continuous,2022.1.1,36.78422045953056,
14,0,14,0,4,0,4,0,,,,,,,,2.0330176164322786,both,1955.0,1.9794131679289446,9.140755061624414e-05,0,39,"['frequency', 'time']",0.01371437986381352,None,None,482.407964300015,482.407964300015,0.21634137991350144,2.24935899634578,482.6192674000049,482.407964300015,,,,,,,,,,,bihhjl,001,fr,0,2022-06-23_12h09.59.632,Continuous,2022.1.1,36.78422045953056,
14,0,14,0,5,0,5,0,,,,,,,,2.0330176164322786,both,2463.0,-0.3126259843034874,8.20676190734382e-05,0,40,"['frequency', 'time']",0.010044379974715412,0.1994040800491348,None,484.6532059001038,484.6532059001038,0.1994040800491348,2.2324216964814134,484.8593307000119,484.6532059001038,,,,,,,,,,,bihhjl,001,fr,0,2022-06-23_12h09.59.632,Continuous,2022.1.1,36.78422045953056,
14,0,14,0,6,0,6,0,,,,,,,,2.0330176164322786,both,3103.0,-1.2533825940413865,5.5894715075218965e-05,0,41,"['frequency', 'time']",0.013312379946000874,None,None,486.8975737000583,486.8975737000583,0.2117833800148219,2.2448009964471005,487.10471030010376,486.8975737000583,,,,,,,,,,,bihhjl,001,fr,0,2022-06-23_12h09.59.632,Continuous,2022.1.1,36.78422045953056,
14,0,14,0,7,0,7,0,,,,,,,,2.0330176164322786,both,3909.0,-0.7572539144001185,7.54679957740195e-05,0,42,"['frequency', 'time']",0.013411179883405566,None,None,489.14902470004745,489.14902470004745,0.21340137987863272,2.2464189963109114,489.36017640004866,489.14902470004745,,,,,,,,,,,bihhjl,001,fr,0,2022-06-23_12h09.59.632,Continuous,2022.1.1,36.78422045953056,
14,0,14,0,8,0,8,0,,,,,,,,2.0330176164322786,both,4925.0,1.0,0.0001655937853633201,0,43,"['frequency', 'time']",0.009471880039200187,0.19950257998425514,None,491.39470990002155,491.39470990002155,0.19950257998425514,2.2325201964165338,491.6068511001067,491.39470990002155,,,,,,,,,,,bihhjl,001,fr,0,2022-06-23_12h09.59.632,Continuous,2022.1.1,36.78422045953056,
14,0,14,0,9,0,9,0,,,,,,,,2.0330176164322786,both,6205.0,1.557797789110166,0.00015018979272586573,0,44,"['frequency', 'time']",0.008618979947641492,None,None,493.6482458000537,493.6482458000537,0.19959097995888442,2.232608596391163,493.85986700002104,493.6482458000537,,,,,,,,,,,bihhjl,001,fr,0,2022-06-23_12h09.59.632,Continuous,2022.1.1,36.78422045953056,
14,0,14,0,10,0,10,0,,,,,,,,2.0330176164322786,both,7818.0,1.694753152545237,0.00021394642694920013,0,45,"['frequency', 'time']",0.005651779938489199,0.19898447999730706,None,495.904698700062,495.904698700062,0.19898447999730706,2.2320020964295857,496.1123884000117,495.904698700062,,,,,,,,,,,bihhjl,001,fr,0,2022-06-23_12h09.59.632,Continuous,2022.1.1,36.78422045953056,
15,0,15,0,0,0,0,0,,,,,,505.55598130007274,None,2.2701262454955127,both,151.0,1.8377770288764805,0.0006069996911229743,0,46,"['frequency', 'time']",0.018649179954081774,0.21046387997921556,None,506.5665794000961,None,0.21046387997921556,2.4805901254747282,506.7832660001004,None,498.1566632000031,None,0.16666666666666666,,,,,,,,bihhjl,001,fr,0,2022-06-23_12h09.59.632,Continuous,2022.1.1,36.78422045953056,
15,0,15,0,1,0,1,0,,,,,,,,2.2701262454955127,both,,,,1,46,"['frequency', 'time']",0.012613879982382059,None,None,509.05448380007874,509.05448380007874,0.20971637999173254,2.479842625487245,509.2608145000413,509.05448380007874,,,,,,,,,,,bihhjl,001,fr,0,2022-06-23_12h09.59.632,Continuous,2022.1.1,36.78422045953056,
15,0,15,0,2,0,2,0,,,,,,,,2.2701262454955127,both,190.0,0.8306831282653351,0.00033215637980073216,0,47,"['frequency', 'time']",0.014339579967781901,0.21144737990107387,None,511.53967690002173,511.53967690002173,0.21144737990107387,2.4815736253965865,511.7474021000089,511.53967690002173,,,,,,,,,,,bihhjl,001,fr,0,2022-06-23_12h09.59.632,Continuous,2022.1.1,36.78422045953056,
15,0,15,0,3,0,3,0,,,,,,,,2.2701262454955127,both,213.0,1.5925135990048467,0.0002882621430233927,0,48,"['frequency', 'time']",0.009778179926797748,0.19966627995017916,None,514.0178290000185,514.0178290000185,0.19966627995017916,2.469792525445692,514.2298967000097,514.0178290000185,,,,,,,,,,,bihhjl,001,fr,0,2022-06-23_12h09.59.632,Continuous,2022.1.1,36.78422045953056,
15,0,15,0,4,0,4,0,,,,,,,,2.2701262454955127,both,239.0,1.8401278280759397,0.0002336392908590057,0,49,"['frequency', 'time']",0.009455979918129742,0.19948977988678962,None,516.500094100018,516.500094100018,0.19948977988678962,2.4696160253823023,516.7072838000022,516.500094100018,,,,,,,,,,,bihhjl,001,fr,0,2022-06-23_12h09.59.632,Continuous,2022.1.1,36.78422045953056,
15,0,15,0,5,0,5,0,,,,,,,,2.2701262454955127,both,268.0,2.1030695386207023,0.0001890716738583417,0,50,"['frequency', 'time']",0.012353679980151355,None,None,518.9810414999956,518.9810414999956,0.20774927991442382,2.4778755254099365,519.1914317000192,518.9810414999956,,,,,,,,,,,bihhjl,001,fr,0,2022-06-23_12h09.59.632,Continuous,2022.1.1,36.78422045953056,
15,0,15,0,6,0,6,0,,,,,,,,2.2701262454955127,both,301.0,3.186118570975086,0.00016372740774972636,0,51,"['frequency', 'time']",0.023615659913048148,None,None,521.4803010000614,521.4803010000614,0.2433774599339813,2.513503705429494,521.7109250000212,521.4803010000614,,,,,,,,,,,bihhjl,001,fr,0,2022-06-23_12h09.59.632,Continuous,2022.1.1,36.78422045953056,
15,0,15,0,7,0,7,0,,,,,,,,2.2701262454955127,both,338.0,3.6692781047645693,0.00014135459771840244,0,52,"['frequency', 'time']",0.006749080028384924,0.19728608010336757,None,523.9820225000149,523.9820225000149,0.19728608010336757,2.4674123255988802,524.1998805000912,523.9820225000149,,,,,,,,,,,bihhjl,001,fr,0,2022-06-23_12h09.59.632,Continuous,2022.1.1,36.78422045953056,
15,0,15,0,8,0,8,0,,,,,,,,2.2701262454955127,both,379.0,2.0,0.00010323964097378055,0,53,"['frequency', 'time']",0.005245179869234562,0.1932786798570305,None,526.4703896000283,526.4703896000283,0.1932786798570305,2.463404925352543,526.6802476000739,526.4703896000283,,,,,,,,,,,bihhjl,001,fr,0,2022-06-23_12h09.59.632,Continuous,2022.1.1,36.78422045953056,
15,0,15,0,9,0,9,0,,,,,,,,2.2701262454955127,both,425.0,1.8038963242179575,9.265243882444058e-05,0,54,"['frequency', 'time']",0.010119179962202907,None,None,528.9593776999973,528.9593776999973,0.20154957985505462,2.4716758253505673,529.169532500091,528.9593776999973,,,,,,,,,,,bihhjl,001,fr,0,2022-06-23_12h09.59.632,Continuous,2022.1.1,36.78422045953056,
15,0,15,0,10,0,10,0,,,,,,,,2.2701262454955127,both,477.0,0.21180980960190898,7.441256515700616e-05,0,55,"['frequency', 'time']",0.009281879989430308,0.20015737996436656,None,531.4484960000264,531.4484960000264,0.20015737996436656,2.4702836254598792,531.6609913000138,531.4484960000264,,,,,,,,,,,bihhjl,001,fr,0,2022-06-23_12h09.59.632,Continuous,2022.1.1,36.78422045953056,
15,0,15,0,11,0,11,0,,,,,,,,2.2701262454955127,both,535.0,0.17841447808339472,6.735407422142471e-05,0,56,"['frequency', 'time']",0.009301780024543405,0.1998960799537599,None,533.9396192000713,533.9396192000713,0.1998960799537599,2.4700223254492726,534.1512635000981,533.9396192000713,,,,,,,,,,,bihhjl,001,fr,0,2022-06-23_12h09.59.632,Continuous,2022.1.1,36.78422045953056,
15,0,15,0,12,0,12,0,,,,,,,,2.2701262454955127,both,601.0,1.0093657624005878,6.255111549836981e-05,0,57,"['frequency', 'time']",0.005720179993659258,0.19512328004930168,None,536.4299781000009,536.4299781000009,0.19512328004930168,2.4652495255448144,536.6468757000985,536.4299781000009,,,,,,,,,,,bihhjl,001,fr,0,2022-06-23_12h09.59.632,Continuous,2022.1.1,36.78422045953056,
15,0,15,0,13,0,13,0,,,,,,,,2.2701262454955127,both,675.0,1.0899895979266416,5.353175305965386e-05,0,58,"['frequency', 'time']",0.008103679982014,0.19820897991303355,None,538.9214826000389,538.9214826000389,0.19820897991303355,2.468335225408546,539.1280879999977,538.9214826000389,,,,,,,,,,,bihhjl,001,fr,0,2022-06-23_12h09.59.632,Continuous,2022.1.1,36.78422045953056,
15,0,15,0,14,0,14,0,,,,,,,,2.2701262454955127,both,758.0,1.6397988447838647,4.8646925573971255e-05,0,59,"['frequency', 'time']",0.008529479848220944,0.1971943798707798,None,541.4067473000614,541.4067473000614,0.1971943798707798,2.4673206253662925,541.6150495000184,541.4067473000614,,,,,,,,,,,bihhjl,001,fr,0,2022-06-23_12h09.59.632,Continuous,2022.1.1,36.78422045953056,
16,0,16,0,0,0,0,0,,,,,,562.0629206000594,None,2.8522881924740653,both,141.0,3.7529347893328415,0.0008938825759982052,0,60,"['frequency', 'time', 'both']",0.02364997996482998,None,None,563.0723034000257,None,0.2272844798862934,3.0795726723603587,563.2815090001095,None,543.8905634999974,None,0.5833333333333334,,,,"{'estimation': [[125.0, 6.208038002036137], [133.9716828170366, 6.29210057661362], [143.5872943746293, 6.393444636291511], [153.89305166811442, 6.498725981592052], [164.93848884661162, 6.597513550114398], [176.77669529663666, 6.684891373927771], [189.46457081379947, 6.76265441429101], [203.0630990890585, 6.838362233522045], [217.6376408240306, 6.922256547259289], [229.49991531651875, 7.0], [233.25824788420132, 7.023411874200398], [249.99999999999937, 7.143110955707141], [267.94336563407256, 7.270246259811705], [287.1745887492579, 7.388775880785844], [307.78610333622805, 7.4781727429088525], [329.87697769322244, 7.517473497882939], [353.55339059327247, 7.490500575990073], [378.929141627598, 7.39049492591271], [406.12619817811606, 7.22167897923799], [434.94621225383094, 7.0], [435.2752816480601, 6.997579276104171], [466.5164957684015, 6.753417747279214], [499.9999999999975, 6.519043461496867], [535.8867312681438, 6.321961651738482], [574.3491774985143, 6.19006590062758], [615.5722066724546, 6.150199536997999], [659.7539553864432, 6.223756957619219], [707.1067811865431, 6.4228396657545925], [757.8582832551941, 6.75391904491005], [786.3570022074132, 7.0], [812.2523963562301, 7.227809783349766], [870.5505632961181, 7.811633243856533], [887.9241485347408, 8.0], [933.0329915368008, 8.494124451592413], [979.8926443835571, 9.0], [999.9999999999926, 9.21805434091498], [1071.773462536285, 9.918703839601756], [1081.3970844077653, 10.0], [1148.698354997026, 10.53694991438056], [1231.1444133449063, 10.985259479571575], [1236.3479882563545, 10.999999999999998], [1319.5079107728832, 11.21733555691749], [1414.2135623730828, 11.179999256678805], [1469.5820101173383, 11.0], [1515.7165665103846, 10.865206457658505], [1624.5047927124563, 10.318916863962512], [1673.0615783333035, 10.0], [1741.1011265922298, 9.575931050151112], [1825.5703473197213, 9.0], [1866.065983073597, 8.728627246482159], [1979.1085407048927, 8.0], [1999.9999999999827, 7.8648291160890675], [2143.5469250725646, 7.065921295389421], [2158.3008000912837, 7.0], [2297.396709994046, 6.383783780975243], [2417.40325524824, 6.0], [2462.2888266898062, 5.854645582711778], [2639.01582154576, 5.497690667670215], [2828.427124746159, 5.295189662172177], [3031.4331330207615, 5.219820777737984], [3249.0095854249043, 5.240944751152443], [3482.2022531844555, 5.325985141161535], [3732.1319661471844, 5.4457458890990305], [3999.9999999999554, 5.577340042156784], [4287.093850145118, 5.704323686688554], [4594.793419988081, 5.815661047705872], [4924.577653379601, 5.904852142809841], [5278.031643091506, 5.9695555249812875], [5549.769100009745, 6.0], [5656.854249492303, 6.011497008715078], [6062.866266041508, 6.035683804260207], [6498.019170849792, 6.049752724743662], [6964.404506368894, 6.062723885358673], [7464.2639322943505, 6.0830069958661], [7999.999999999882, 6.116941317111859]], 'plus_line': [[125.0, 3.6744470931484647], [133.9716828170366, 3.8229215726153267], [143.5872943746293, 3.9365902061024274], [150.9863592797368, 4.0], [153.89305166811442, 4.021071535873624], [164.93848884661162, 4.092126387174503], [176.77669529663666, 4.178498770605996], [189.46457081379947, 4.293860088736146], [203.0630990890585, 4.44336633373538], [217.6376408240306, 4.623700954790113], [233.25824788420132, 4.824199785745389], [247.74034359072553, 5.0], [249.99999999999937, 5.022617376242445], [267.94336563407256, 5.164818864032174], [287.1745887492579, 5.261264404588017], [307.78610333622805, 5.30542999891214], [329.87697769322244, 5.293386612873812], [353.55339059327247, 5.224179945239762], [378.929141627598, 5.100641035231089], [394.6260299668618, 5.0], [406.12619817811606, 4.917746930596231], [435.2752816480601, 4.690075959070005], [466.5164957684015, 4.458926044869662], [499.9999999999975, 4.244214472145184], [535.8867312681438, 4.068720191955253], [559.622783000168, 4.0], [574.3491774985143, 3.9518703577907672], [615.5722066724546, 3.9298957611363123], [646.9296028169123, 4.0], [659.7539553864432, 4.023431895721269], [707.1067811865431, 4.203460245252126], [757.8582832551941, 4.476297638538015], [812.2523963562301, 4.861628108521707], [828.3019061992206, 5.0], [870.5505632961181, 5.332291043483295], [933.0329915368008, 5.913047822331137], [941.4029110952064, 6.0], [999.9999999999926, 6.560517354768496], [1043.114494807639, 7.0], [1071.773462536285, 7.271099051751096], [1148.698354997026, 7.9575596708257725], [1154.1092006005026, 8.0], [1231.1444133449063, 8.51172486492105], [1319.5079107728832, 8.893229815270441], [1407.1760429501007, 9.0], [1414.2135623730828, 9.006847112093697], [1417.4535843007363, 9.0], [1515.7165665103846, 8.78459954651695], [1624.5047927124563, 8.291109963220398], [1670.3913920014602, 8.0], [1741.1011265922318, 7.543443074452309], [1818.2400826069609, 7.0], [1866.065983073597, 6.656027018301801], [1960.4087351761284, 6.000000000000001], [1999.9999999999802, 5.71861841911946], [2116.38907503416, 5.0], [2143.5469250725646, 4.825903955143578], [2297.396709994046, 4.056206490170731], [2312.681709952574, 4.0], [2462.2888266898062, 3.420847066469165], [2639.01582154576, 3.013431945857998], [2649.5796731868545, 3.0], [2828.427124746159, 2.7508869664697158], [3031.4331330207656, 2.660265238405757], [3249.0095854249043, 2.6894513921993664], [3482.2022531844596, 2.796341004997305], [3732.1319661471844, 2.94793814704953], [3812.7622735399445, 3.0], [3999.9999999999554, 3.1000549037218206], [4287.093850145118, 3.2406394436074093], [4594.793419988081, 3.3714584680094646], [4924.577653379601, 3.4904565369020526], [5278.031643091513, 3.596187382186409], [5656.854249492303, 3.686273428080604], [6062.866266041501, 3.7568324939289903], [6498.019170849792, 3.802018918498995], [6964.4045063688845, 3.8139124351961806], [7464.2639322943505, 3.784858783667212], [7999.999999999882, 3.713125613395416]], 'minus_line': [[125.0, 8.832044240907821], [133.9716828170366, 8.85835365160776], [143.5872943746293, 8.956982164803737], [146.87143090414952, 9.0], [153.89305166811442, 9.104651914899662], [164.93848884661162, 9.243706906218897], [176.77669529663666, 9.334586305992445], [189.46457081379947, 9.370015775563648], [203.0630990890585, 9.363632304341486], [217.6376408240306, 9.344703899514158], [233.25824788420132, 9.348645975669738], [249.99999999999937, 9.402549779909052], [267.94336563407256, 9.510589213331368], [287.1745887492579, 9.651228801652051], [307.78610333622805, 9.788147392583776], [329.87697769322244, 9.882755539393374], [353.55339059327247, 9.903535204845952], [378.929141627598, 9.833871552788054], [406.12619817811606, 9.675217611140791], [435.2752816480601, 9.443041725448902], [466.5164957684015, 9.16025850763097], [484.3440655044644, 9.0], [499.9999999999975, 8.883696194522765], [535.8867312681438, 8.667445527747617], [574.3491774985143, 8.512712864879733], [615.5722066724546, 8.44925647904105], [659.7539553864432, 8.51003533008136], [707.1067811865431, 8.721423310775968], [744.0519238504872, 9.0], [757.8582832551951, 9.118046550440095], [812.2523963562301, 9.705860631003812], [836.6093664087613, 10.0], [870.5505632961181, 10.439953801243405], [914.801384971271, 11.0], [933.0329915368008, 11.243769692022237], [996.8973111608312, 12.0], [999.9999999999926, 12.038257219521277], [1071.773462536285, 12.77118111457625], [1103.2451856998161, 13.0], [1148.698354997026, 13.337762316796633], [1231.1444133449063, 13.66730764683781], [1319.5079107728832, 13.733753105412898], [1414.2135623730828, 13.542341718728931], [1515.7165665103846, 13.081307720294724], [1527.855417635238, 13.0], [1624.5047927124563, 12.458909669977885], [1689.9176836100792, 12.0], [1741.1011265922318, 11.67687408954744], [1840.2926629571014, 11.0], [1866.065983073597, 10.834139793016742], [1999.9999999999802, 10.013091875168934], [2002.462634407712, 10.0], [2143.5469250725646, 9.312168373243326], [2221.137066136149, 9.0], [2297.396709994046, 8.715253664548786], [2462.2888266898062, 8.28544994478446], [2626.005858231399, 8.0], [2639.01582154576, 7.979677466607532], [2828.427124746159, 7.832029155922225], [3031.4331330207656, 7.782562893775902], [3249.0095854249043, 7.806781603740324], [3482.2022531844555, 7.881715338731838], [3732.1319661471844, 7.986511597880242], [3762.111354802436, 8.0], [3999.9999999999504, 8.119253307731512], [4287.093850145118, 8.24126283842082], [4594.793419988081, 8.334905601419381], [4924.577653379601, 8.391926684524737], [5278.031643091506, 8.411774570395421], [5656.854249492303, 8.401970394097054], [6062.866266041508, 8.377658197412341], [6498.019170849792, 8.360564157053219], [6964.404506368894, 8.376643576143618], [7464.2639322943505, 8.450110884356233], [7999.999999999892, 8.594393167322048]]}",,,,bihhjl,001,fr,0,2022-06-23_12h09.59.632,Continuous,2022.1.1,36.78422045953056,
16,0,16,0,1,0,1,0,,,,,,,,2.8522881924740653,both,212.0,4.2200718201510075,0.0003932754183163978,0,61,"['frequency', 'time', 'both']",0.0077458800515159965,0.19903438002802432,None,566.1401495001046,566.1401495001046,0.19903438002802432,3.0513225725020896,566.3530462000053,566.1401495001046,,,,,,,,,,,bihhjl,001,fr,0,2022-06-23_12h09.59.632,Continuous,2022.1.1,36.78422045953056,
16,0,16,0,2,0,2,0,,,,,,,,2.8522881924740653,both,318.0,4.834235543197909,0.0001707019467832308,0,62,"['frequency', 'time', 'both']",0.0080221799435094,None,None,569.211700700107,569.211700700107,0.20232477993704379,3.054612972411109,569.4243073000107,569.211700700107,,,,,,,,,,,bihhjl,001,fr,0,2022-06-23_12h09.59.632,Continuous,2022.1.1,36.78422045953056,
16,0,16,0,3,0,3,0,,,,,,,,2.8522881924740653,both,477.0,4.824046829820805,0.00012654882783765518,0,63,"['frequency', 'time', 'both']",0.010786279919557273,0.20632757991552353,None,572.2874335000524,572.2874335000524,0.20632757991552353,3.058615772389589,572.4965045000426,572.2874335000524,,,,,,,,,,,bihhjl,001,fr,0,2022-06-23_12h09.59.632,Continuous,2022.1.1,36.78422045953056,
16,0,16,0,4,0,4,0,,,,,,,,2.8522881924740653,both,715.0,5.67172346259634,8.39797606702329e-05,0,64,"['frequency', 'time', 'both']",0.008262980030849576,0.2019739799434319,None,575.3586620000424,575.3586620000424,0.2019739799434319,3.054262172417497,575.5715287000639,575.3586620000424,,,,,,,,,,,bihhjl,001,fr,0,2022-06-23_12h09.59.632,Continuous,2022.1.1,36.78422045953056,
16,0,16,0,5,0,5,0,,,,,,,,2.8522881924740653,both,1072.0,10.0,0.0001488294249497533,0,65,"['frequency', 'time', 'both']",0.01004338008351624,0.20411778008565307,None,578.4275362000335,578.4275362000335,0.20411778008565307,3.0564059725597184,578.6362599000568,578.4275362000335,,,,,,,,,,,bihhjl,001,fr,0,2022-06-23_12h09.59.632,Continuous,2022.1.1,36.78422045953056,
16,0,16,0,6,0,6,0,,,,,,,,2.8522881924740653,both,1606.0,9.543198276575602,0.00017107960636715598,0,66,"['frequency', 'time', 'both']",0.007784079993143678,0.19643478002399206,None,581.498867400107,581.498867400107,0.19643478002399206,3.0487229724980573,581.7045246000635,581.498867400107,,,,,,,,,,,bihhjl,001,fr,0,2022-06-23_12h09.59.632,Continuous,2022.1.1,36.78422045953056,
16,0,16,0,7,0,7,0,,,,,,,,2.8522881924740653,both,,,,1,66,"['frequency', 'time', 'both']",0.00967867998406291,0.20174317993223667,None,584.5681521000806,584.5681521000806,0.20174317993223667,3.054031372406302,584.7764032999985,584.5681521000806,,,,,,,,,,,bihhjl,001,fr,0,2022-06-23_12h09.59.632,Continuous,2022.1.1,36.78422045953056,
16,0,16,0,8,0,8,0,,,,,,,,2.8522881924740653,both,3605.0,9.374457890303685,0.00022659447769841389,0,67,"['frequency', 'time', 'both']",0.01016587985213846,0.20212957984767854,None,587.6379329001065,587.6379329001065,0.20212957984767854,3.054417772321744,587.8445948000299,587.6379329001065,,,,,,,,,,,bihhjl,001,fr,0,2022-06-23_12h09.59.632,Continuous,2022.1.1,36.78422045953056,
16,0,16,0,9,0,9,0,,,,,,,,2.8522881924740653,both,5401.0,9.272125494349877,0.00040119472192683614,0,68,"['frequency', 'time', 'both']",0.009159279987215996,0.20310067990794778,None,590.7074110000394,590.7074110000394,0.20310067990794778,3.055388872382013,590.9161275000079,590.7074110000394,,,,,,,,,,,bihhjl,001,fr,0,2022-06-23_12h09.59.632,Continuous,2022.1.1,36.78422045953056,
