sweeps.thisRepN,sweeps.thisTrialN,sweeps.thisN,sweeps.thisIndex,trials.thisRepN,trials.thisTrialN,trials.thisN,trials.thisIndex,instructions.started,instructions.stopped,blank_text.started,blank_text.stopped,,text.started,text.stopped,Delay,Prediction,Frequency,Volume,Psychopy_level,isCatchTrial,len(y),finished_audiograms,probe.started,probe.stopped,feedback.keys,feedback.started,feedback.stopped,ISI.started,ISI.stopped,text_2.started,text_2.stopped,break_txt.started,break_txt.stopped,Intervals,feedback.rt,Audiogram_frequency,participant,session,language (english or french),Resume previous experiment,date,expName,psychopyVersion,frameRate,
0,0,0,0,0,0,0,0,25.308229999965988,None,65.5295551000163,None,0.16666666666666666,67.57757149997633,None,2.9861791144583414,frequency,758.0,-6.194354946458833,1.974002548540799e-05,0,26,[],0.022234010160900652,0.22063581016846,None,68.60326860006899,None,0.22063581016846,3.2068149246268014,68.80714430008084,None,,,,,,bihhjl,001,fr,0,2022-06-23_11h59.24.147,Continuous,2022.1.1,None,
0,0,0,0,1,0,1,0,,,,,,,,2.688219790947927,frequency,675.0,-5.066153538951002,2.635143735587292e-05,0,27,[],0.015094910049811006,0.212406610022299,None,71.82328200002667,71.82328200002667,0.212406610022299,2.900626400970226,72.04201480001211,71.82328200002667,,,,,,bihhjl,001,fr,0,2022-06-23_11h59.24.147,Continuous,2022.1.1,None,
0,0,0,0,2,0,2,0,,,,,,,,2.8295600939941066,frequency,601.0,-7.465997737098601,2.3575824181287627e-05,0,28,[],0.02367441006936133,None,None,74.74789800005965,74.74789800005965,0.23798531002830714,3.0675454040224137,74.97385040007066,74.74789800005965,,,,,,bihhjl,001,fr,0,2022-06-23_11h59.24.147,Continuous,2022.1.1,None,
0,0,0,0,3,0,3,0,,,,,,,,1.085865352899026,frequency,535.0,-6.612524346414998,3.081888554318239e-05,0,29,[],0.023720809957012534,None,None,77.82343150000088,77.82343150000088,0.23383200995158404,1.3196973628506101,78.04083239997271,77.82343150000088,,,,,,bihhjl,001,fr,0,2022-06-23_11h59.24.147,Continuous,2022.1.1,None,
0,0,0,0,4,0,4,0,,,,,,,,2.103522604555274,frequency,477.0,-0.7338500088424134,6.673647827152872e-05,0,30,[],0.023894810117781162,None,None,79.14400920004118,79.14400920004118,0.23694151011295617,2.3404641146682303,79.36342469998635,79.14400920004118,,,,,,bihhjl,001,fr,0,2022-06-23_11h59.24.147,Continuous,2022.1.1,None,
0,0,0,0,5,0,5,0,,,,,,,,1.0820166995694414,frequency,425.0,-2.7992380750330437,5.4538116521602654e-05,0,31,[],0.02310490992385894,None,None,81.49562020006124,81.49562020006124,0.24315730994567275,1.325174009515114,81.71748370002024,81.49562020006124,,,,,,bihhjl,001,fr,0,2022-06-23_11h59.24.147,Continuous,2022.1.1,None,
0,0,0,0,6,0,6,0,,,,,,,,2.5743549943282185,frequency,379.0,-8.0,3.264724102951903e-05,0,32,[],0.024175510043278337,None,None,82.8218702999875,82.8218702999875,0.23521340999286622,2.8095684043210847,83.03951849997975,82.8218702999875,,,,,,bihhjl,001,fr,0,2022-06-23_11h59.24.147,Continuous,2022.1.1,None,
0,0,0,0,7,0,7,0,,,,,,,,1.4287872572827227,frequency,338.0,0.7038939146329066,0.00010047100106467655,0,33,[],0.01631770993117243,None,None,85.63846940000076,85.63846940000076,0.21693101001437753,1.6457182672971002,85.8564989999868,85.63846940000076,,,,,,bihhjl,001,fr,0,2022-06-23_11h59.24.147,Continuous,2022.1.1,None,
0,0,0,0,8,0,8,0,,,,,,,,2.9404720663124624,frequency,301.0,-4.827991721104322,6.507525389503731e-05,0,34,[],0.02384730987250805,None,None,87.31167299998924,87.31167299998924,0.2329013099661097,3.173373376278572,87.52455319999717,87.31167299998924,,,,,,bihhjl,001,fr,0,2022-06-23_11h59.24.147,Continuous,2022.1.1,None,
0,0,0,0,9,0,9,0,,,,,,,,1.0704871015119515,frequency,268.0,-1.751152746378768,0.00012131523806367682,0,35,[],0.020761910127475858,None,None,90.48627340001985,90.48627340001985,0.2222854100400582,1.2927725115520097,90.70638940006029,90.48627340001985,,,,,,bihhjl,001,fr,0,2022-06-23_11h59.24.147,Continuous,2022.1.1,None,
0,0,0,0,10,0,10,0,,,,,,,,1.3381669997432173,frequency,239.0,-6.212309522120394,9.245363944966778e-05,0,36,[],0.02319080987945199,None,None,91.80049549997784,91.80049549997784,0.23108870990108699,1.5692557096443043,92.0169479000615,91.80049549997784,,,,,,bihhjl,001,fr,0,2022-06-23_11h59.24.147,Continuous,2022.1.1,None,
0,0,0,0,11,0,11,0,,,,,,,,1.2133783641170175,frequency,213.0,-3.0302695730922693,0.0001692966842613931,0,37,[],0.022895209956914186,None,None,93.38091110007372,93.38091110007372,0.23661770997568965,1.4499960740927071,93.60005030001048,93.38091110007372,,,,,,bihhjl,001,fr,0,2022-06-23_11h59.24.147,Continuous,2022.1.1,None,
0,0,0,0,12,0,12,0,,,,,,,,1.3836314018943396,frequency,190.0,-1.027823516566625,0.0002681743682478658,0,38,[],0.023606710019521415,None,None,94.83489359996747,94.83489359996747,0.2342104100389406,1.6178418119332802,95.0473921999801,94.83489359996747,,,,,,bihhjl,001,fr,0,2022-06-23_11h59.24.147,Continuous,2022.1.1,None,
0,0,0,0,13,0,13,0,,,,,,,,2.0975451867039254,frequency,169.0,-3.669439606547053,0.00024797867068523146,0,39,[],0.02367301005870104,None,None,96.45231580000836,96.45231580000836,0.22969631000887603,2.3272414967128014,96.66710189997684,96.45231580000836,,,,,,bihhjl,001,fr,0,2022-06-23_11h59.24.147,Continuous,2022.1.1,None,
0,0,0,0,14,0,14,0,,,,,,,,2.6704697476216595,frequency,,,,1,39,[],0.02369480987545103,None,None,98.78657250001561,98.78657250001561,0.23689960991032422,2.9073693575319837,99.00515940005425,98.78657250001561,,,,,,bihhjl,001,fr,0,2022-06-23_11h59.24.147,Continuous,2022.1.1,None,
1,0,1,0,0,0,0,0,,,,,,106.88397359999362,None,2.0684549523230027,time,,,,1,25,[],0.024890510132536292,None,None,107.91526839998551,None,0.2554789101704955,2.323933862493498,108.1492556000594,None,101.69725470000412,None,"[0.16666666666666666, 0.16666666666666666, 0.5833333333333334, 0.5833333333333334, 0.16666666666666666, 0.16666666666666666, 0.3333333333333333, 0.16666666666666666, 0.5833333333333334, 0.3333333333333333, 0.5833333333333334, 0.5833333333333334, 0.16666666666666666, 0.3333333333333333, 0.3333333333333333]",,,bihhjl,001,fr,0,2022-06-23_11h59.24.147,Continuous,2022.1.1,None,
1,0,1,0,1,0,1,0,,,,,,,,2.0684549523230027,time,478.0,-6.559188902158121,3.410284843462696e-05,0,26,[],0.02448920998722315,None,None,110.23385570000391,110.23385570000391,0.23391591000836343,2.302370862331366,110.45177699998021,110.23385570000391,,,,,,bihhjl,001,fr,0,2022-06-23_11h59.24.147,Continuous,2022.1.1,None,
1,0,1,0,2,0,2,0,,,,,,,,2.0684549523230027,time,1073.0,-4.625672427842442,2.765610280256411e-05,0,27,[],0.02162511006463319,None,None,112.54345120000653,112.54345120000653,0.22386331006418914,2.292318262387192,112.76635170006193,112.54345120000653,,,,,,bihhjl,001,fr,0,2022-06-23_11h59.24.147,Continuous,2022.1.1,None,
1,0,1,0,3,0,3,0,,,,,,,,2.0684549523230027,time,716.0,-2.8361096412937017,3.147102001649497e-05,0,28,[],0.02284171001520008,None,None,114.85594060004223,114.85594060004223,0.22729141009040177,2.2957463624134045,115.06800329999533,114.85594060004223,,,,,,bihhjl,001,fr,0,2022-06-23_11h59.24.147,Continuous,2022.1.1,None,
1,0,1,0,4,0,4,0,,,,,,,,2.0684549523230027,time,179.0,-7.288213606317326,0.00014774697200454378,0,29,[],0.022852509981021285,None,None,117.16499419999309,117.16499419999309,0.23071920999791473,2.2991741623209174,117.38539780001156,117.16499419999309,,,,,,bihhjl,001,fr,0,2022-06-23_11h59.24.147,Continuous,2022.1.1,None,
1,0,1,0,5,0,5,0,,,,,,,,2.0684549523230027,time,379.0,-8.0,3.264724102951903e-05,0,30,[],0.02337460988201201,None,None,119.47970949998125,119.47970949998125,0.23394530988298357,2.3024002622059863,119.69602000003215,119.47970949998125,,,,,,bihhjl,001,fr,0,2022-06-23_11h59.24.147,Continuous,2022.1.1,None,
1,0,1,0,6,0,6,0,,,,,,,,2.0684549523230027,time,253.0,-6.220639973189847,8.028186264317297e-05,0,31,[],0.01051130995620042,None,None,121.79145680007059,121.79145680007059,0.20858901005703956,2.2770439623800423,122.0070621999912,121.79145680007059,,,,,,bihhjl,001,fr,0,2022-06-23_11h59.24.147,Continuous,2022.1.1,None,
1,0,1,0,7,0,7,0,,,,,,,,2.0684549523230027,time,225.0,-7.791930977394754,8.82644994373077e-05,0,32,[],0.022726309951394796,None,None,124.10618760006037,124.10618760006037,0.22922621003817767,2.2976811623611804,124.32574720005505,124.10618760006037,,,,,,bihhjl,001,fr,0,2022-06-23_11h59.24.147,Continuous,2022.1.1,None,
1,0,1,0,8,0,8,0,,,,,,,,2.0684549523230027,time,1204.0,-5.233514543442572,2.8786416997512755e-05,0,33,[],0.021521110087633133,None,None,126.42327749996912,126.42327749996912,0.22920540999621153,2.2976603623192142,126.63734889996704,126.42327749996912,,,,,,bihhjl,001,fr,0,2022-06-23_11h59.24.147,Continuous,2022.1.1,None,
1,0,1,0,9,0,9,0,,,,,,,,2.0684549523230027,time,159.0,0.07166691597148733,0.0004235040794629767,0,34,[],0.022690910031087697,None,None,128.73719530005474,128.73719530005474,0.23375980998389423,2.302214762306897,128.95598139998037,128.73719530005474,,,,,,bihhjl,001,fr,0,2022-06-23_11h59.24.147,Continuous,2022.1.1,None,
1,0,1,0,10,0,10,0,,,,,,,,2.0684549523230027,time,1911.0,-6.880301139022926,3.206093766308705e-05,0,35,[],0.02281290991231799,None,None,131.04655009997077,131.04655009997077,0.23463461000937968,2.3030895623323824,131.2651909000706,131.04655009997077,,,,,,bihhjl,001,fr,0,2022-06-23_11h59.24.147,Continuous,2022.1.1,None,
1,0,1,0,11,0,11,0,,,,,,,,2.0684549523230027,time,142.0,-7.669545896623595,0.0002362880015668522,0,36,[],0.015096510061994195,None,None,133.3539524000371,133.3539524000371,0.216171310050413,2.2846262623734157,133.5744948000647,133.3539524000371,,,,,,bihhjl,001,fr,0,2022-06-23_11h59.24.147,Continuous,2022.1.1,None,
2,0,2,0,0,0,0,0,,,,,0.3333333333333333,140.98292710003443,None,1.9882633707698276,both,1516.0,-3.637966554004718,3.266313504789961e-05,0,26,[],0.025005710078403354,None,None,142.01232320000418,None,0.2463161100167781,2.2345794807866057,142.23471960006282,None,135.67242179997265,None,,,,bihhjl,001,fr,0,2022-06-23_11h59.24.147,Continuous,2022.1.1,None,
2,0,2,0,1,0,1,0,,,,,,,,1.9882633707698276,both,1203.0,-7.0787184393329845,2.3258507091354126e-05,0,27,[],0.02000161015894264,None,None,144.24454570002854,144.24454570002854,0.2177391102304682,2.206002481000296,144.4660405999748,144.24454570002854,,,,,,bihhjl,001,fr,0,2022-06-23_11h59.24.147,Continuous,2022.1.1,None,
2,0,2,0,2,0,2,0,,,,,,,,1.9882633707698276,both,,,,1,27,[],0.022925509954802692,None,None,146.47234229999594,146.47234229999594,0.23189260996878147,2.220155980738609,146.6945718000643,146.47234229999594,,,,,,bihhjl,001,fr,0,2022-06-23_11h59.24.147,Continuous,2022.1.1,None,
2,0,2,0,3,0,3,0,,,,,,,,1.9882633707698276,both,758.0,-4.937381325971112,2.2813734868502452e-05,0,28,[],0.023647710098885,None,None,148.70259340002667,148.70259340002667,0.23108331009279937,2.219346680862627,148.91934290004428,148.70259340002667,,,,,,bihhjl,001,fr,0,2022-06-23_11h59.24.147,Continuous,2022.1.1,None,
2,0,2,0,4,0,4,0,,,,,,,,1.9882633707698276,both,602.0,-4.094475173723052,3.465969351247683e-05,0,29,[],0.021830910118296742,None,None,150.93229410005733,150.93229410005733,0.22412371006794274,2.2123870808377704,151.1494315000018,150.93229410005733,,,,,,bihhjl,001,fr,0,2022-06-23_11h59.24.147,Continuous,2022.1.1,None,
2,0,2,0,5,0,5,0,,,,,,,,1.9882633707698276,both,478.0,-6.606746154942313,3.391663769802328e-05,0,30,[],0.02066780999302864,None,None,153.17594690003898,153.17594690003898,0.24102531000971794,2.2292886807795456,153.39134700002614,153.17594690003898,,,,,,bihhjl,001,fr,0,2022-06-23_11h59.24.147,Continuous,2022.1.1,None,
2,0,2,0,6,0,6,0,,,,,,,,1.9882633707698276,both,379.0,-8.0,3.264724102951903e-05,0,31,[],0.022351710009388626,None,None,155.40353500004858,155.40353500004858,0.23049961007200181,2.2187629808418294,155.62725180003326,155.40353500004858,,,,,,bihhjl,001,fr,0,2022-06-23_11h59.24.147,Continuous,2022.1.1,None,
2,0,2,0,7,0,7,0,,,,,,,,1.9882633707698276,both,301.0,-4.098879301266249,7.077363341182051e-05,0,32,[],0.0225732100661844,None,None,157.63299299997743,157.63299299997743,0.23090781015343964,2.2191711809232673,157.84906510007568,157.63299299997743,,,,,,bihhjl,001,fr,0,2022-06-23_11h59.24.147,Continuous,2022.1.1,None,
2,0,2,0,8,0,8,0,,,,,,,,1.9882633707698276,both,239.0,-0.11113644491894936,0.00018663051984205026,0,33,[],0.01668701006565243,0.21066521003376693,None,159.86358440003823,159.86358440003823,0.21066521003376693,2.1989285808035945,160.0795582999708,159.86358440003823,,,,,,bihhjl,001,fr,0,2022-06-23_11h59.24.147,Continuous,2022.1.1,None,
2,0,2,0,9,0,9,0,,,,,,,,1.9882633707698276,both,190.0,-3.4711358697047836,0.00020241917410398485,0,34,[],0.022042309981770813,None,None,162.0978027000092,162.0978027000092,0.22667021001689136,2.214933580786719,162.31147319998126,162.0978027000092,,,,,,bihhjl,001,fr,0,2022-06-23_11h59.24.147,Continuous,2022.1.1,None,
2,0,2,0,10,0,10,0,,,,,,,,1.9882633707698276,both,151.0,-3.4251800090526165,0.0003311620925736081,0,35,[],0.01933130994439125,None,['space'],164.33352220000234,164.33352220000234,0.21904271002858877,2.2073060807984164,164.54015660006553,164.33352220000234,,,,[-0.05139339994639158],,bihhjl,001,fr,0,2022-06-23_11h59.24.147,Continuous,2022.1.1,None,
3,0,3,0,0,0,0,0,,,,,0.5833333333333334,171.26204359997064,None,1.9313437032865033,both,7379.0,1.1089153890021832,0.00018487298862647204,0,36,[],0.02489340992178768,None,None,172.26728789997287,None,0.25336291000712663,2.18470661329363,172.49519300006796,None,166.55994599999394,None,,,,bihhjl,001,fr,0,2022-06-23_11h59.24.147,Continuous,2022.1.1,None,
3,0,3,0,1,0,1,0,,,,,,,,1.9313437032865033,both,4925.0,1.0,0.0001655937853633201,0,37,[],0.022046310012228787,None,None,174.45107700000517,174.45107700000517,0.2312259100144729,2.162569613300976,174.6674393999856,174.45107700000517,,,,,,bihhjl,001,fr,0,2022-06-23_11h59.24.147,Continuous,2022.1.1,None,
3,0,3,0,2,0,2,0,,,,,,,,1.9313437032865033,both,3287.0,-0.7794940730141258,6.529354179529287e-05,0,38,[],0.02171990997157991,None,None,176.62908159999643,176.62908159999643,0.21336701000109315,2.1447107132875964,176.83119150006678,176.62908159999643,,,,,,bihhjl,001,fr,0,2022-06-23_11h59.24.147,Continuous,2022.1.1,None,
3,0,3,0,3,0,3,0,,,,,,,,1.9313437032865033,both,,,,1,38,[],0.021797909983433783,None,None,178.7964825000381,178.7964825000381,0.23040740995202214,2.1617511132385254,179.011224100017,178.7964825000381,,,,,,bihhjl,001,fr,0,2022-06-23_11h59.24.147,Continuous,2022.1.1,None,
3,0,3,0,4,0,4,0,,,,,,,,1.9313437032865033,both,1464.0,2.919161593572211,6.884788027756841e-05,0,39,[],0.02316761005204171,None,None,180.96457790001296,180.96457790001296,0.233218610053882,2.1645623133403853,181.1775957000209,180.96457790001296,,,,,,bihhjl,001,fr,0,2022-06-23_11h59.24.147,Continuous,2022.1.1,None,
3,0,3,0,5,0,5,0,,,,,,,,1.9313437032865033,both,977.0,1.9092443489724165,5.406788111373423e-05,0,40,[],0.02135060995351523,None,None,183.13310910004657,183.13310910004657,0.22452700999565423,2.1558707132821575,183.35004400007892,183.13310910004657,,,,,,bihhjl,001,fr,0,2022-06-23_11h59.24.147,Continuous,2022.1.1,None,
3,0,3,0,6,0,6,0,,,,,,,,1.9313437032865033,both,652.0,0.20690157919840557,5.0422298598540844e-05,0,41,[],0.02064751018770039,None,['space'],185.3018622000236,185.3018622000236,0.22179741016589105,2.1531411134523943,185.5178208000725,185.3018622000236,,,,[-1.8040237999521196],,bihhjl,001,fr,0,2022-06-23_11h59.24.147,Continuous,2022.1.1,None,
3,0,3,0,7,0,7,0,,,,,,,,1.9313437032865033,both,435.0,1.1462885310770603,8.531364474522027e-05,0,42,[],0.020821710000745952,None,None,187.4722669000039,187.4722669000039,0.22931621002499014,2.1606599133114934,187.69200889999047,187.4722669000039,,,,,,bihhjl,001,fr,0,2022-06-23_11h59.24.147,Continuous,2022.1.1,None,
3,0,3,0,8,0,8,0,,,,,,,,1.9313437032865033,both,290.0,2.247231577448499,0.00016204699076692683,0,43,[],0.016492209979332983,None,None,189.6456443000352,189.6456443000352,0.2175808100728318,2.148924513359335,189.8669138000114,189.6456443000352,,,,,,bihhjl,001,fr,0,2022-06-23_11h59.24.147,Continuous,2022.1.1,None,
3,0,3,0,9,0,9,0,,,,,,,,1.9313437032865033,both,194.0,0.8037663223333527,0.0003151483259394318,0,44,[],0.020500809885561466,None,None,191.82740080007352,191.82740080007352,0.22844440990593284,2.159788113192436,192.04519670002628,191.82740080007352,,,,,,bihhjl,001,fr,0,2022-06-23_11h59.24.147,Continuous,2022.1.1,None,
4,0,4,0,0,0,0,0,,,,,0.3333333333333333,203.84120150003582,None,1.6704503350187538,both,4595.0,2.102356563523597,0.00015907781640122552,0,45,[],0.0246208100579679,0.21972441009711474,None,204.8649943000637,None,0.21972441009711474,1.8901747451158686,205.06826460000593,None,194.00358500005677,None,,,,bihhjl,001,fr,0,2022-06-23_11h59.24.147,Continuous,2022.1.1,None,
4,0,4,0,1,0,1,0,,,,,,,,1.6704503350187538,both,3647.0,12.473226929537764,0.0003268330807418956,0,46,[],0.0196769101312384,None,None,206.76080849999562,206.76080849999562,0.2186240101000294,1.8890743451187832,206.98097669996787,206.76080849999562,,,,,,bihhjl,001,fr,0,2022-06-23_11h59.24.147,Continuous,2022.1.1,None,
4,0,4,0,2,0,2,0,,,,,,,,1.6704503350187538,both,2895.0,-0.4116768842039502,5.8509060659045886e-05,0,47,[],0.021455810056068003,None,None,208.67473450000398,208.67473450000398,0.22360780998133123,1.894058145000085,208.8776667000493,208.67473450000398,,,,,,bihhjl,001,fr,0,2022-06-23_11h59.24.147,Continuous,2022.1.1,None,
4,0,4,0,3,0,3,0,,,,,,,,1.6704503350187538,both,2298.0,2.5795006838097247,0.00010957046165671298,0,48,[],0.018808210035786033,None,None,210.5814876999939,210.5814876999939,0.21768721006810665,1.8881375450868605,210.8029988000635,210.5814876999939,,,,,,bihhjl,001,fr,0,2022-06-23_11h59.24.147,Continuous,2022.1.1,None,
4,0,4,0,4,0,4,0,,,,,,,,1.6704503350187538,both,1824.0,9.815216309570742,0.00020699440238523763,0,49,[],0.01799080998171121,None,None,212.49990559997968,212.49990559997968,0.216444110032171,1.8868944450509249,212.7201267000055,212.49990559997968,,,,,,bihhjl,001,fr,0,2022-06-23_11h59.24.147,Continuous,2022.1.1,None,
4,0,4,0,5,0,5,0,,,,,,,,1.6704503350187538,both,1448.0,9.166315480559302,0.00014247570899558038,0,50,[],0.017640209989622235,None,None,214.41861360007897,214.41861360007897,0.2211426100693643,1.8915929450881181,214.63827560003847,214.41861360007897,,,,,,bihhjl,001,fr,0,2022-06-23_11h59.24.147,Continuous,2022.1.1,None,
4,0,4,0,6,0,6,0,,,,,,,,1.6704503350187538,both,1149.0,13.0,0.00022461343774149428,0,51,[],0.016909910016693175,None,None,216.3389669000171,216.3389669000171,0.22396321000996977,1.8944135450287236,216.5597552000545,216.3389669000171,,,,,,bihhjl,001,fr,0,2022-06-23_11h59.24.147,Continuous,2022.1.1,None,
4,0,4,0,7,0,7,0,,,,,,,,1.6704503350187538,both,912.0,2.759431041911604,5.70895197615863e-05,0,52,[],0.01367941009812057,None,None,218.26186119997874,218.26186119997874,0.21854771010112017,1.888998045119874,218.48784239997622,218.26186119997874,,,,,,bihhjl,001,fr,0,2022-06-23_11h59.24.147,Continuous,2022.1.1,None,
4,0,4,0,8,0,8,0,,,,,,,,1.6704503350187538,both,724.0,6.701571584836255,9.284399814621228e-05,0,53,[],0.021324909874238074,None,None,220.17934869998135,220.17934869998135,0.22894730989355594,1.8993976449123098,220.39359710004646,220.17934869998135,,,,,,bihhjl,001,fr,0,2022-06-23_11h59.24.147,Continuous,2022.1.1,None,
4,0,4,0,9,0,9,0,,,,,,,,1.6704503350187538,both,575.0,11.88696004530753,0.00023477247009794636,0,54,[],0.018181410036049783,None,None,222.09495060006157,222.09495060006157,0.2183872100431472,1.888837545061901,222.31253670004662,222.09495060006157,,,,,,bihhjl,001,fr,0,2022-06-23_11h59.24.147,Continuous,2022.1.1,None,
4,0,4,0,10,0,10,0,,,,,,,,1.6704503350187538,both,456.0,9.305106644039881,0.00021512025486049836,0,55,[],0.01693110994528979,None,None,224.0137637000298,224.0137637000298,0.21584330999758095,1.8862936450163348,224.23157279996667,224.0137637000298,,,,,,bihhjl,001,fr,0,2022-06-23_11h59.24.147,Continuous,2022.1.1,None,
4,0,4,0,11,0,11,0,,,,,,,,1.6704503350187538,both,362.0,11.193120897829115,0.0003135218889639985,0,56,[],0.011959709925577044,0.1963755099568516,None,225.93964450003114,225.93964450003114,0.1963755099568516,1.8668258449756054,226.1394501000177,225.93964450003114,,,,,,bihhjl,001,fr,0,2022-06-23_11h59.24.147,Continuous,2022.1.1,None,
4,0,4,0,12,0,12,0,,,,,,,,1.6704503350187538,both,,,,1,56,[],0.021086510038003325,None,None,227.8421872999752,227.8421872999752,0.2381293100770563,1.9085796450958101,228.06188509997446,227.8421872999752,,,,,,bihhjl,001,fr,0,2022-06-23_11h59.24.147,Continuous,2022.1.1,None,
4,0,4,0,13,0,13,0,,,,,,,,1.6704503350187538,both,228.0,6.497393691920102,0.0004449353512137939,0,57,[],0.019228309975005686,None,None,229.75459180003963,229.75459180003963,0.22217581002041698,1.8926261450391708,229.9704118000809,229.75459180003963,,,,,,bihhjl,001,fr,0,2022-06-23_11h59.24.147,Continuous,2022.1.1,None,
4,0,4,0,14,0,14,0,,,,,,,,1.6704503350187538,both,181.0,11.389597147991907,0.0012418165519641929,0,58,[],0.019310109899379313,None,None,231.66777719999664,231.66777719999664,0.2198675099061802,1.890317844924934,231.89124020002782,231.66777719999664,,,,,,bihhjl,001,fr,0,2022-06-23_11h59.24.147,Continuous,2022.1.1,None,
5,0,5,0,0,0,0,0,,,,,0.3333333333333333,239.04252110002562,None,2.655200208030898,frequency,7818.0,2.9494781570495388,0.000247195914138567,0,40,[],0.024454309954307973,None,None,240.06919319997542,None,0.22054810996633023,2.8757483179972283,240.27936410007533,None,233.58934120007325,None,,,,bihhjl,001,fr,0,2022-06-23_11h59.24.147,Continuous,2022.1.1,None,
5,0,5,0,1,0,1,0,,,,,,,,2.0275353884778813,frequency,6205.0,1.8212953247178865,0.00015481580478118228,0,41,[],0.014715210068970919,None,None,242.955670400057,242.955670400057,0.2191133099840954,2.2466486984619767,243.1727116999682,242.955670400057,,,,,,bihhjl,001,fr,0,2022-06-23_11h59.24.147,Continuous,2022.1.1,None,
5,0,5,0,2,0,2,0,,,,,,,,1.1107717644854054,frequency,4925.0,3.0,0.00020847022442907278,0,42,[],0.020480409963056445,None,None,245.22642289998475,245.22642289998475,0.2262300100410357,1.337001774526441,245.44977649999782,245.22642289998475,,,,,,bihhjl,001,fr,0,2022-06-23_11h59.24.147,Continuous,2022.1.1,None,
5,0,5,0,3,0,3,0,,,,,,,,2.3321746390179428,frequency,3909.0,-0.356497129210283,7.903157841163213e-05,0,43,[],0.0211373099591583,None,None,246.5815031999955,246.5815031999955,0.22674990992527455,2.5589245489432173,246.7942841000622,246.5815031999955,,,,,,bihhjl,001,fr,0,2022-06-23_11h59.24.147,Continuous,2022.1.1,None,
5,0,5,0,4,0,4,0,,,,,,,,2.1793539846036767,frequency,3103.0,1.4093567463937284,7.594649117266877e-05,0,44,[],0.02061901008710265,None,None,249.1538942999905,249.1538942999905,0.23362971004098654,2.4129836946446632,249.36565779999364,249.1538942999905,,,,,,bihhjl,001,fr,0,2022-06-23_11h59.24.147,Continuous,2022.1.1,None,
5,0,5,0,5,0,5,0,,,,,,,,1.2712526390289565,frequency,2463.0,0.21285079393441592,8.718578312893816e-05,0,45,[],0.019120509969070554,None,None,251.57392090000212,251.57392090000212,0.2280196100473404,1.4992722490762969,251.79550470004324,251.57392090000212,,,,,,bihhjl,001,fr,0,2022-06-23_11h59.24.147,Continuous,2022.1.1,None,
5,0,5,0,6,0,6,0,,,,,,,,2.6648294271367288,frequency,1955.0,3.960188711347401,0.00011482087412014193,0,46,[],0.01856391003821045,None,None,253.09107439999934,253.09107439999934,0.21842201007530093,2.8832514372120297,253.30882979999296,253.09107439999934,,,,,,bihhjl,001,fr,0,2022-06-23_11h59.24.147,Continuous,2022.1.1,None,
5,0,5,0,7,0,7,0,,,,,,,,2.418787396908895,frequency,1552.0,5.839301243602367,0.00010321400038243087,0,47,[],0.020827510161325336,None,None,256.00355789996684,256.00355789996684,0.22399671014863998,2.642784107057535,256.22050920000765,256.00355789996684,,,,,,bihhjl,001,fr,0,2022-06-23_11h59.24.147,Continuous,2022.1.1,None,
5,0,5,0,8,0,8,0,,,,,,,,1.9763605033488598,frequency,1232.0,5.437160255608515,0.00010052814660557661,0,48,[],0.020076109911315143,None,None,258.6628022000659,258.6628022000659,0.22199370991438627,2.1983542132632463,258.8816239000298,258.6628022000659,,,,,,bihhjl,001,fr,0,2022-06-23_11h59.24.147,Continuous,2022.1.1,None,
5,0,5,0,9,0,9,0,,,,,,,,2.897045669812485,frequency,978.0,3.0,6.134249825094325e-05,0,49,[],0.018643510062247515,None,None,260.8827408000361,260.8827408000361,0.22104571003001183,3.1180913798424967,261.10371290007606,260.8827408000361,,,,,,bihhjl,001,fr,0,2022-06-23_11h59.24.147,Continuous,2022.1.1,None,
5,0,5,0,10,0,10,0,,,,,,,,1.529118681571075,frequency,,,,1,49,[],0.020466010086238384,None,None,264.0269212999847,264.0269212999847,0.2273305100388825,1.7564491916099574,264.23964360007085,264.0269212999847,,,,,,bihhjl,001,fr,0,2022-06-23_11h59.24.147,Continuous,2022.1.1,None,
6,0,6,0,0,0,0,0,,,,,,268.8675006000558,None,1.204585949498004,none,225.0,-5.803686229592723,0.00011096813830008669,0,26,[],0.020950009929947555,None,None,269.87972009996884,None,0.22395620995666832,1.4285421594546723,270.09505800006445,None,265.794913400081,None,"[0.3333333333333333, 0.5833333333333334, 0.16666666666666666, 0.5833333333333334, 0.5833333333333334, 0.3333333333333333, 0.3333333333333333, 0.16666666666666666, 0.5833333333333334, 0.3333333333333333, 0.5833333333333334, 0.16666666666666666, 0.16666666666666666, 0.3333333333333333, 0.3333333333333333]",,,bihhjl,001,fr,0,2022-06-23_11h59.24.147,Continuous,2022.1.1,None,
6,0,6,0,1,0,1,0,,,,,,,,1.2386216526447928,none,1136.0,3.679046030478429,7.597421549709734e-05,0,27,[],0.013234109967015684,None,None,271.3357008000603,271.3357008000603,0.22169630997814238,1.4603179626229352,271.56021460006014,271.3357008000603,,,,,,bihhjl,001,fr,0,2022-06-23_11h59.24.147,Continuous,2022.1.1,None,
6,0,6,0,2,0,2,0,,,,,,,,1.078679534671796,none,902.0,-2.4210798325296006,3.1228418276108946e-05,0,28,[],0.019549909979104996,None,None,272.82910960004665,272.82910960004665,0.23014351003803313,1.308823044709829,273.0436412000563,272.82910960004665,,,,,,bihhjl,001,fr,0,2022-06-23_11h59.24.147,Continuous,2022.1.1,None,
6,0,6,0,3,0,3,0,,,,,,,,1.0497138328230124,none,142.0,-7.426144734658901,0.00024300305152779596,0,29,[],0.019074109965004027,0.2158676099497825,None,274.2012790000299,274.2012790000299,0.2158676099497825,1.265581442772795,274.3542029000819,274.2012790000299,,,,,,bihhjl,001,fr,0,2022-06-23_11h59.24.147,Continuous,2022.1.1,None,
6,0,6,0,4,0,4,0,,,,,,,,2.76007256178829,none,804.0,-1.5003714977264542,3.2376982662536746e-05,0,30,[],0.020086009986698627,None,None,275.44110389996786,275.44110389996786,0.23016430996358395,2.990236871751874,275.6622700999724,275.44110389996786,,,,,,bihhjl,001,fr,0,2022-06-23_11h59.24.147,Continuous,2022.1.1,None,
6,0,6,0,5,0,5,0,,,,,,,,2.672235802810224,none,,,,1,30,[],0.02015091013163328,None,None,278.44992210005876,278.44992210005876,0.22812891006469727,2.9003647128749215,278.6711172000505,278.44992210005876,,,,,,bihhjl,001,fr,0,2022-06-23_11h59.24.147,Continuous,2022.1.1,None,
6,0,6,0,6,0,6,0,,,,,,,,2.0594803220511055,none,716.0,-1.0286871268209927,3.875091350423448e-05,0,31,[],0.021610110066831112,None,None,281.3660297000315,281.3660297000315,0.23088351008482277,2.2903638321359283,281.583350299974,281.3660297000315,,,,,,bihhjl,001,fr,0,2022-06-23_11h59.24.147,Continuous,2022.1.1,None,
6,0,6,0,7,0,7,0,,,,,,,,1.8831055279803992,none,179.0,0.5855808445925679,0.0003657701930761985,0,32,[],0.0191480100620538,None,None,283.67258350003976,283.67258350003976,0.2319611101411283,2.1150666381215277,283.89409129996784,283.67258350003976,,,,,,bihhjl,001,fr,0,2022-06-23_11h59.24.147,Continuous,2022.1.1,None,
6,0,6,0,8,0,8,0,,,,,,,,2.403704619695983,none,379.0,-8.0,3.264724102951903e-05,0,33,[],0.013662209967151284,None,None,285.79943890008144,285.79943890008144,0.22093070996925235,2.624635329665235,286.02061440004036,285.79943890008144,,,,,,bihhjl,001,fr,0,2022-06-23_11h59.24.147,Continuous,2022.1.1,None,
6,0,6,0,9,0,9,0,,,,,,,,1.4105737439408046,none,1431.0,-6.265676089220054,2.4312049584041853e-05,0,34,[],0.016006410005502403,None,None,288.44779300002847,288.44779300002847,0.2146902100648731,1.6252639540056777,288.66264510003384,288.44779300002847,,,,,,bihhjl,001,fr,0,2022-06-23_11h59.24.147,Continuous,2022.1.1,None,
6,0,6,0,10,0,10,0,,,,,,,,2.2197818153271403,none,253.0,-3.7850037505060667,0.00010626720333165653,0,35,[],0.019938509911298752,None,None,290.1092927000718,290.1092927000718,0.2238358099712059,2.443617625298346,290.3260022000177,290.1092927000718,,,,,,bihhjl,001,fr,0,2022-06-23_11h59.24.147,Continuous,2022.1.1,None,
7,0,7,0,0,0,0,0,,,,,0.3333333333333333,297.57153590000235,None,2.2288494874584837,frequency,1124.0,5.334599624565604,9.099955473063172e-05,0,50,[],0.024877709918655455,None,None,298.59924730006605,None,0.26120760990306735,2.490057097361551,298.83439490001183,None,292.57574230001774,None,,,,bihhjl,001,fr,0,2022-06-23_11h59.24.147,Continuous,2022.1.1,None,
7,0,7,0,1,0,1,0,,,,,,,,1.8124478849253547,frequency,892.0,4.107777117318643,6.576447776974574e-05,0,51,[],0.019211909966543317,None,None,301.08738729998004,301.08738729998004,0.22849830996710807,2.040946194892463,301.29898399999365,301.08738729998004,,,,,,bihhjl,001,fr,0,2022-06-23_11h59.24.147,Continuous,2022.1.1,None,
7,0,7,0,2,0,2,0,,,,,,,,2.1092223250639712,frequency,708.0,4.590719641115294,7.519362023633133e-05,0,52,[],0.0195720101473853,None,None,303.13684150006156,303.13684150006156,0.22335351014044136,2.3325758352044126,303.35225660004653,303.13684150006156,,,,,,bihhjl,001,fr,0,2022-06-23_11h59.24.147,Continuous,2022.1.1,None,
7,0,7,0,3,0,3,0,,,,,,,,2.777925591068729,frequency,562.0,3.943138902800631,9.726427472921398e-05,0,53,[],0.019695310038514435,None,None,305.4961393000558,305.4961393000558,0.22874580998905003,3.006671401057779,305.7104643000057,305.4961393000558,,,,,,bihhjl,001,fr,0,2022-06-23_11h59.24.147,Continuous,2022.1.1,None,
7,0,7,0,4,0,4,0,,,,,,,,2.61059658877989,frequency,446.0,5.356424873889893,0.00013748271720143187,0,54,[],0.0196188100380823,None,None,308.5156842999859,308.5156842999859,0.2332084100926295,2.8438049988725194,308.72833030007314,308.5156842999859,,,,,,bihhjl,001,fr,0,2022-06-23_11h59.24.147,Continuous,2022.1.1,None,
7,0,7,0,5,0,5,0,,,,,,,,2.0498008916691424,frequency,354.0,5.593675884554759,0.00016850365733270104,0,55,[],0.0198251100955531,None,None,311.36609320004936,311.36609320004936,0.23081031010951847,2.280611201778661,311.5819131999742,311.36609320004936,,,,,,bihhjl,001,fr,0,2022-06-23_11h59.24.147,Continuous,2022.1.1,None,
7,0,7,0,6,0,6,0,,,,,,,,1.9509875265935475,frequency,281.0,5.541404579171618,0.0002548283204423673,0,56,[],0.017666010069660842,None,None,313.6566630000016,313.6566630000016,0.22241720999591053,2.173404736589458,313.8727375000017,313.6566630000016,,,,,,bihhjl,001,fr,0,2022-06-23_11h59.24.147,Continuous,2022.1.1,None,
7,0,7,0,7,0,7,0,,,,,,,,2.0121226459764614,frequency,223.0,4.232312905791816,0.0003587480102149585,0,57,[],0.01937011012341827,None,None,315.85715840000194,315.85715840000194,0.2242759100627154,2.236398556039177,316.0773233000655,315.85715840000194,,,,,,bihhjl,001,fr,0,2022-06-23_11h59.24.147,Continuous,2022.1.1,None,
7,0,7,0,8,0,8,0,,,,,,,,1.4586917459879647,frequency,177.0,6.0,0.0006967609763950413,0,58,[],0.01940860995091498,None,None,318.12679160002153,318.12679160002153,0.22794740996323526,1.6866391559512,318.33927830005996,318.12679160002153,,,,,,bihhjl,001,fr,0,2022-06-23_11h59.24.147,Continuous,2022.1.1,None,
7,0,7,0,9,0,9,0,,,,,,,,1.8500190008746322,frequency,140.0,4.7664820107168095,0.001019929987411548,0,59,[],0.01935640990268439,None,None,319.82500130007975,319.82500130007975,0.23017850995529443,2.080197510829927,320.03845800005365,319.82500130007975,,,,,,bihhjl,001,fr,0,2022-06-23_11h59.24.147,Continuous,2022.1.1,None,
7,0,7,0,10,0,10,0,,,,,,,,2.995773347567211,frequency,,,,1,59,[],0.018741209991276264,None,['space'],321.9157067000633,321.9157067000633,0.2227353099733591,3.21850865754057,322.1337633000221,321.9157067000633,,,,[-1.386497400002554],,bihhjl,001,fr,0,2022-06-23_11h59.24.147,Continuous,2022.1.1,None,
8,0,8,0,0,0,0,0,,,,,0.3333333333333333,330.35830480000004,None,1.539424058715421,frequency,4595.0,0.7261616910357234,0.00013576876806819556,0,60,['frequency'],0.024672310100868344,None,None,331.39922630006913,None,0.21485291002318263,1.7542769687386037,331.6032145000063,None,325.15982130006887,None,,,"{'estimation': [[125.0, 7.5248145070971635], [133.9716828170366, 7.778560474417397], [142.17583535245322, 8.0], [143.5872943746293, 8.037353347183965], [153.89305166811442, 8.259418294400454], [164.93848884661162, 8.411214839341408], [176.77669529663666, 8.48458571613553], [189.46457081379947, 8.485405511860503], [203.0630990890585, 8.434860574215962], [217.6376408240306, 8.364437527789697], [233.25824788420132, 8.307231137841551], [249.99999999999937, 8.288839778450969], [267.94336563407256, 8.31980567987427], [287.1745887492579, 8.392446733508592], [307.78610333622805, 8.484038824576604], [329.876977693222, 8.563806819858659], [353.55339059327247, 8.600892870411485], [378.929141627598, 8.572385693586007], [406.12619817811606, 8.469229392941568], [435.2752816480601, 8.296886533758698], [466.5164957684015, 8.070787776678879], [475.6331931828492, 8.0], [499.9999999999975, 7.823598387091238], [535.8867312681438, 7.60113101155574], [574.3491774985143, 7.430702623719826], [615.5722066724546, 7.33990086270534], [659.7539553864432, 7.353428897029481], [707.1067811865431, 7.487232181863788], [757.8582832551941, 7.748874255440585], [792.5071397232476, 8.0], [812.2523963562301, 8.147591880815721], [870.550563296117, 8.646188466587219], [908.8096295069327, 9.0], [933.0329915368008, 9.23244027714464], [999.9999999999914, 9.842667072238816], [1018.7023870514823, 10.0], [1071.773462536285, 10.43918806656685], [1148.6983549970273, 10.936274956875716], [1162.7829122712117, 10.999999999999998], [1231.1444133449063, 11.291180274579661], [1319.5079107728832, 11.433739104492561], [1414.2135623730828, 11.34161757059052], [1515.7165665103846, 11.003968744615953], [1516.434951979649, 11.0], [1624.5047927124563, 10.46738811790149], [1701.1127504981573, 10.0], [1741.1011265922298, 9.766684791472825], [1865.1396386979081, 9.0], [1866.065983073597, 8.994292364487011], [1999.9999999999777, 8.22186589784444], [2044.4455352178015, 8.0], [2143.5469250725646, 7.5081957519004074], [2275.9918313714675, 7.0], [2297.3967099940432, 6.915857172202097], [2462.2888266898062, 6.476258491799867], [2639.015821545763, 6.18969610484891], [2828.427124746159, 6.037976402786642], [3031.4331330207615, 6.000424699625057], [3249.0095854249043, 6.046973153165694], [3482.2022531844555, 6.144626789601776], [3732.1319661471844, 6.2643936320505595], [3999.9999999999504, 6.384285251049651], [4287.093850145118, 6.489200096688311], [4594.793419988081, 6.569932753825491], [4924.577653379601, 6.622576977012698], [5278.031643091513, 6.648306488892598], [5656.854249492303, 6.6529678523559035], [6062.866266041508, 6.64603933191068], [6498.019170849792, 6.6389176330730315], [6964.404506368902, 6.642845375962412], [7464.2639322943505, 6.666937672298541], [7999.999999999882, 6.716728634714244]], 'plus_line': [[125.0, 5.447153397125374], [133.9716828170366, 5.802722583770036], [139.79016461477406, 6.0], [143.5872943746293, 6.1070609800680895], [153.89305166811442, 6.30533429265283], [164.93848884661162, 6.430577319760446], [176.77669529663666, 6.490741733310895], [189.46457081379947, 6.501155165321304], [203.0630990890585, 6.484906173386587], [217.6376408240306, 6.465860387731855], [233.25824788420132, 6.460139556691612], [249.99999999999937, 6.472113424550669], [267.94336563407256, 6.49774248859608], [287.1745887492579, 6.531326822582286], [307.78610333622805, 6.5678996711771855], [329.87697769322244, 6.600080066726922], [353.55339059327247, 6.615362637882782], [378.929141627598, 6.597620666254008], [406.12619817811606, 6.531896372193691], [435.2752816480601, 6.410162626659346], [466.5164957684015, 6.235218998163779], [499.9999999999975, 6.020718788491124], [503.19353916741574, 6.0], [535.8867312681438, 5.764029212030528], [574.3491774985143, 5.5720128410181875], [615.5722066724546, 5.475429936189855], [659.7539553864432, 5.488686261079181], [707.1067811865431, 5.613201325542377], [757.8582832551941, 5.848236963392125], [782.0216685677307, 6.0], [812.2523963562301, 6.164887853977033], [870.5505632961181, 6.536495017639889], [929.4662179396346, 7.0], [933.0329915368008, 7.026825826787557], [999.9999999999926, 7.538203389034541], [1056.4529675193885, 8.0], [1071.773462536285, 8.116272001647989], [1148.698354997026, 8.632018711995022], [1214.2767827290934, 9.0], [1231.1444133449063, 9.082199096866837], [1319.5079107728832, 9.327783677646487], [1414.2135623730828, 9.351830423684635], [1515.7165665103846, 9.12990959093213], [1544.0412523694545, 9.0], [1624.5047927124563, 8.622875295817316], [1735.0213815643656, 8.0], [1741.1011265922318, 7.963085948039129], [1866.065983073597, 7.152873964990441], [1890.5056624406689, 7.0], [1999.9999999999802, 6.299646938029486], [2055.1682706178312, 6.0], [2143.5469250725646, 5.495563033816898], [2259.9156697589583, 5.0], [2297.396709994046, 4.825111824715564], [2462.2888266898062, 4.307768173691231], [2631.409564847608, 4.0], [2639.01582154576, 3.9840823756212362], [2828.427124746159, 3.7940259478608875], [3031.4331330207615, 3.754204426494789], [3249.0095854249043, 3.813917672623437], [3482.202253184451, 3.934999800653421], [3587.773041505616, 4.0], [3732.1319661471844, 4.072539374223379], [3999.9999999999504, 4.2000932476763815], [4287.093850145118, 4.315470893359933], [4594.793419988081, 4.411038876884131], [4924.577653379601, 4.482593672508614], [5278.031643091506, 4.530141458927302], [5656.854249492303, 4.558464928125453], [6062.866266041501, 4.575348076407134], [6498.019170849792, 4.587002654849181], [6964.404506368902, 4.592914555342385], [7464.2639322943505, 4.584460608256077], [7999.999999999872, 4.5508153920448295]], 'minus_line': [[125.0, 9.668939700012448], [133.9716828170366, 9.825317349634812], [141.71683315029836, 10.0], [143.5872943746293, 10.048545152387355], [153.89305166811442, 10.302228779269477], [164.93848884661162, 10.48271594503827], [176.77669529663666, 10.567573469340322], [189.46457081379947, 10.554968040652206], [203.0630990890585, 10.464001117375803], [217.6376408240306, 10.332200780017189], [233.25824788420132, 10.210741541959457], [249.99999999999937, 10.154979790076194], [267.94336563407256, 10.198500979219467], [287.1745887492579, 10.326412911941691], [307.78610333622805, 10.486736831497947], [329.87697769322284, 10.621800782180863], [353.55339059327247, 10.68462511445873], [378.929141627598, 10.646599224620559], [406.12619817811606, 10.502364129781064], [435.2752816480601, 10.264840373212369], [462.0455559730994, 10.000000000000002], [466.5164957684015, 9.964004782017401], [499.9999999999975, 9.711130413104119], [535.8867312681438, 9.489988059348612], [574.3491774985143, 9.319071331650493], [615.5722066724546, 9.225021443102602], [659.7539553864432, 9.243412276087902], [707.1067811865431, 9.405335980716341], [757.8582832551941, 9.719172477918907], [790.0705012198623, 10.0], [812.2523963562301, 10.22226825597634], [870.5505632961181, 10.851778110661167], [883.8965858800851, 11.0], [933.0329915368008, 11.587569987387363], [972.4826921345964, 12.0], [999.9999999999926, 12.308695936302058], [1071.773462536285, 12.928275793798495], [1083.1997350299284, 13.0], [1148.698354997026, 13.428488573936502], [1231.1444133449063, 13.687106130309767], [1319.5079107728832, 13.704043262999978], [1414.2135623730828, 13.481374220012405], [1515.2047860389537, 13.0], [1515.7165665103846, 12.997972620855473], [1624.5047927124563, 12.403716878237272], [1684.394713900028, 12.0], [1741.1011265922318, 11.66237515644832], [1845.589526953499, 11.0], [1866.065983073597, 10.878759267823963], [1999.9999999999802, 10.15896530218704], [2033.5577548327046, 10.0], [2143.5469250725646, 9.53016304878305], [2296.153108701594, 8.999999999999998], [2297.396709994049, 8.99592251434391], [2462.2888266898062, 8.649002951613783], [2639.01582154576, 8.420087928250341], [2828.427124746159, 8.298241904235976], [3031.4331330207656, 8.270334126994303], [3249.0095854249043, 8.31489813344871], [3482.2022531844555, 8.40561842670483], [3732.1319661471844, 8.51619653092229], [3999.9999999999504, 8.624306243105234], [4287.093850145118, 8.713714994541784], [4594.793419988081, 8.774849018515598], [4924.577653379601, 8.804490660545612], [5278.0316430915, 8.804968957233257], [5656.854249492303, 8.783298159504662], [6062.866266041508, 8.751077403549175], [6498.0191708498005, 8.725490979516104], [6964.4045063688845, 8.729967962403801], [7464.2639322943505, 8.791108168632139], [7999.999999999882, 8.930119442592092]]}",bihhjl,001,fr,0,2022-06-23_11h59.24.147,Continuous,2022.1.1,None,
8,0,8,0,1,0,1,0,,,,,,,,1.7264051433118959,frequency,3647.0,9.523341738699182,0.00023271894964690547,0,61,['frequency'],0.017987909959629178,None,None,333.1770862999838,333.1770862999838,0.22088170994538814,1.947286853257284,333.38815460004844,333.1770862999838,,,,,,bihhjl,001,fr,0,2022-06-23_11h59.24.147,Continuous,2022.1.1,None,
8,0,8,0,2,0,2,0,,,,,,,,2.2684921967820797,frequency,2895.0,4.019695470496471,9.745222145884601e-05,0,62,['frequency'],0.018249509972520173,None,None,335.1441713999957,335.1441713999957,0.22788031003437936,2.496372506816459,335.35852420004085,335.1441713999957,,,,,,bihhjl,001,fr,0,2022-06-23_11h59.24.147,Continuous,2022.1.1,None,
8,0,8,0,3,0,3,0,,,,,,,,1.6527470200924355,frequency,2298.0,10.653056157358778,0.0002775691945408362,0,63,['frequency'],0.013858210062608123,None,None,337.6527304999763,337.6527304999763,0.21718891011551023,1.8699359302079457,337.8751022000797,337.6527304999763,,,,,,bihhjl,001,fr,0,2022-06-23_11h59.24.147,Continuous,2022.1.1,None,
8,0,8,0,4,0,4,0,,,,,,,,2.52329610629437,frequency,1824.0,10.44070496167549,0.00022245031951387205,0,64,['frequency'],0.011266310117207468,None,None,339.5587422000244,339.5587422000244,0.20938811008818448,2.7326842163825544,339.7750838000793,339.5587422000244,,,,,,bihhjl,001,fr,0,2022-06-23_11h59.24.147,Continuous,2022.1.1,None,
8,0,8,0,5,0,5,0,,,,,,,,2.7911669916041797,frequency,1448.0,9.361946171957193,0.00014572107330988444,0,65,['frequency'],0.01680380990728736,None,None,342.3354372000322,342.3354372000322,0.2238334099529311,3.015000401557111,342.5572776000481,342.3354372000322,,,,,,bihhjl,001,fr,0,2022-06-23_11h59.24.147,Continuous,2022.1.1,None,
8,0,8,0,6,0,6,0,,,,,,,,2.130763818170196,frequency,1149.0,11.0,0.00017841679549655338,0,66,['frequency'],0.01187181007117033,None,None,345.3805844000308,345.3805844000308,0.21736601006705314,2.348129828237249,345.60614050005097,345.3805844000308,,,,,,bihhjl,001,fr,0,2022-06-23_11h59.24.147,Continuous,2022.1.1,None,
8,0,8,0,7,0,7,0,,,,,,,,2.7164913643007225,frequency,912.0,6.477280326565312,8.758885598174583e-05,0,67,['frequency'],0.011230110074393451,None,None,347.7665879999986,347.7665879999986,0.20969861012417823,2.9261899744249007,347.98019929998554,347.7665879999986,,,,,,bihhjl,001,fr,0,2022-06-23_11h59.24.147,Continuous,2022.1.1,None,
8,0,8,0,8,0,8,0,,,,,,,,2.5085136104357177,frequency,724.0,2.4466311712859827,5.68861855529806e-05,0,68,['frequency'],0.014443809981457889,None,None,350.7294325999683,350.7294325999683,0.2244137100642547,2.7329273204999724,350.9542979999678,350.7294325999683,,,,,,bihhjl,001,fr,0,2022-06-23_11h59.24.147,Continuous,2022.1.1,None,
8,0,8,0,9,0,9,0,,,,,,,,2.854088127823326,frequency,575.0,0.6668963721682241,6.451251686931634e-05,0,69,['frequency'],0.01082411000970751,None,None,353.49125079996884,353.49125079996884,0.21217360999435186,3.066261737817678,353.7076970000053,353.49125079996884,,,,,,bihhjl,001,fr,0,2022-06-23_11h59.24.147,Continuous,2022.1.1,None,
8,0,8,0,10,0,10,0,,,,,,,,2.416884378401123,frequency,456.0,2.6564664795724333,0.00010005741889224078,0,70,['frequency'],0.018162410124205053,None,None,356.5968660999788,356.5968660999788,0.23151011008303612,2.648394488484159,356.81489390006755,356.5968660999788,,,,,,bihhjl,001,fr,0,2022-06-23_11h59.24.147,Continuous,2022.1.1,None,
8,0,8,0,11,0,11,0,,,,,,,,2.639717949441199,frequency,,,,1,70,['frequency'],0.014785509905777872,None,None,359.25453300005756,359.25453300005756,0.21450900996569544,2.8542269594068945,359.47324520000257,359.25453300005756,,,,,,bihhjl,001,fr,0,2022-06-23_11h59.24.147,Continuous,2022.1.1,None,
8,0,8,0,12,0,12,0,,,,,,,,2.361969779930818,frequency,287.0,7.934660833600189,0.0003198214035782422,0,71,['frequency'],0.01628261001314968,None,None,362.1399223000044,362.1399223000044,0.21563841006718576,2.5776081899980037,362.3604845000664,362.1399223000044,,,,,,bihhjl,001,fr,0,2022-06-23_11h59.24.147,Continuous,2022.1.1,None,
8,0,8,0,13,0,13,0,,,,,,,,1.9169786669296218,frequency,228.0,7.648666697426096,0.0005079963164468538,0,72,['frequency'],0.018085210002027452,None,None,364.7590096000349,364.7590096000349,0.2312172099482268,2.148195876877849,364.9758281999966,364.7590096000349,,,,,,bihhjl,001,fr,0,2022-06-23_11h59.24.147,Continuous,2022.1.1,None,
8,0,8,0,14,0,14,0,,,,,,,,2.794559526872698,frequency,181.0,4.87953368463547,0.000586886704534927,0,73,['frequency'],0.013626510044559836,None,None,366.9171332999831,366.9171332999831,0.21555731003172696,3.010116836904425,367.14387420006096,366.9171332999831,,,,,,bihhjl,001,fr,0,2022-06-23_11h59.24.147,Continuous,2022.1.1,None,
9,0,9,0,0,0,0,0,,,,,,376.50065210007597,None,1.8952712421896671,time,2071.0,1.9561014252188955,9.567906048322413e-05,0,37,['frequency'],0.02469661005306989,None,None,377.51316980004776,None,0.2245381100801751,2.1198093522698422,377.7172038999852,None,369.95629840006586,None,"[0.5833333333333334, 0.16666666666666666, 0.16666666666666666, 0.3333333333333333, 0.3333333333333333, 0.3333333333333333, 0.3333333333333333, 0.5833333333333334, 0.3333333333333333, 0.16666666666666666, 0.5833333333333334, 0.3333333333333333, 0.16666666666666666, 0.16666666666666666, 0.5833333333333334]",,,bihhjl,001,fr,0,2022-06-23_11h59.24.147,Continuous,2022.1.1,None,
9,0,9,0,1,0,1,0,,,,,,,,1.8952712421896671,time,4925.0,1.0,0.0001655937853633201,0,38,['frequency'],0.013203310081735253,None,None,379.6445037999656,379.6445037999656,0.21335140999872237,2.1086226521883895,379.8577517999802,379.6445037999656,,,,,,bihhjl,001,fr,0,2022-06-23_11h59.24.147,Continuous,2022.1.1,None,
9,0,9,0,2,0,2,0,,,,,,,,1.8952712421896671,time,1305.0,6.363418225925683,0.0001105663944426213,0,39,['frequency'],0.016219309996813536,None,None,381.7884092000313,381.7884092000313,0.2221842099679634,2.1174554521576305,382.0005552000366,381.7884092000313,,,,,,bihhjl,001,fr,0,2022-06-23_11h59.24.147,Continuous,2022.1.1,None,
9,0,9,0,3,0,3,0,,,,,,,,1.8952712421896671,time,822.0,1.0677948953936633,4.4094086453067614e-05,0,40,['frequency'],0.017717710114084184,None,None,383.9249921999872,383.9249921999872,0.2268479100894183,2.1221191522790854,384.1431817000266,383.9249921999872,,,,,,bihhjl,001,fr,0,2022-06-23_11h59.24.147,Continuous,2022.1.1,None,
9,0,9,0,4,0,4,0,,,,,,,,1.8952712421896671,time,1644.0,5.51165345176699,0.00011078895980168902,0,41,['frequency'],0.0160615099593997,None,None,386.06394370005,386.06394370005,0.22357820998877287,2.11884945217844,386.2842212000396,386.06394370005,,,,,,bihhjl,001,fr,0,2022-06-23_11h59.24.147,Continuous,2022.1.1,None,
9,0,9,0,5,0,5,0,,,,,,,,1.8952712421896671,time,2609.0,-0.7710633119671928,7.240076571879329e-05,0,42,['frequency'],0.017101510078646243,None,None,388.2111109000398,388.2111109000398,0.2269508100580424,2.1222220522477095,388.4366509000538,388.2111109000398,,,,,,bihhjl,001,fr,0,2022-06-23_11h59.24.147,Continuous,2022.1.1,None,
9,0,9,0,6,0,6,0,,,,,,,,1.8952712421896671,time,,,,1,42,['frequency'],0.01356361003126949,0.20479890995193273,None,390.35601220000535,390.35601220000535,0.20479890995193273,2.1000701521416,390.57498450006824,390.35601220000535,,,,,,bihhjl,001,fr,0,2022-06-23_11h59.24.147,Continuous,2022.1.1,None,
9,0,9,0,7,0,7,0,,,,,,,,1.8952712421896671,time,1036.0,2.5244951211279654,6.0924434193390126e-05,0,43,['frequency'],0.018949910067021847,None,None,392.49879109999165,392.49879109999165,0.22971040999982506,2.124981652189492,392.71311200002674,392.49879109999165,,,,,,bihhjl,001,fr,0,2022-06-23_11h59.24.147,Continuous,2022.1.1,None,
9,0,9,0,8,0,8,0,,,,,,,,1.8952712421896671,time,5528.0,1.0,0.00014953741009252546,0,44,['frequency'],0.017418010043911636,None,None,394.6351974999998,394.6351974999998,0.222221210016869,2.117492452206536,394.8539498000173,394.6351974999998,,,,,,bihhjl,001,fr,0,2022-06-23_11h59.24.147,Continuous,2022.1.1,None,
9,0,9,0,9,0,9,0,,,,,,,,1.8952712421896671,time,923.0,2.1988749472839433,5.3924244584081545e-05,0,45,['frequency'],0.016056610038504004,None,None,396.7748273999896,396.7748273999896,0.217949110083282,2.113220352272949,396.99680329998955,396.7748273999896,,,,,,bihhjl,001,fr,0,2022-06-23_11h59.24.147,Continuous,2022.1.1,None,
10,0,10,0,0,0,0,0,,,,,0.16666666666666666,423.34380679996684,None,1.4693640253849123,both,574.0,13.383686712907766,0.00027965076957546655,0,59,['frequency'],0.02484441001433879,None,None,424.37849170004483,None,0.2331763100810349,1.7025403354659472,424.59076240006834,None,398.9269632999785,None,,,,bihhjl,001,fr,0,2022-06-23_11h59.24.147,Continuous,2022.1.1,None,
10,0,10,0,1,0,1,0,,,,,,,,1.4693640253849123,both,511.0,0.823323452422406,7.666156884801603e-05,0,60,['frequency'],0.012572609935887158,0.20199880993459374,None,426.0945999000687,426.0945999000687,0.20199880993459374,1.671362835319506,426.2941928000655,426.0945999000687,,,,,,bihhjl,001,fr,0,2022-06-23_11h59.24.147,Continuous,2022.1.1,None,
10,0,10,0,2,0,2,0,,,,,,,,1.4693640253849123,both,455.0,9.344035084280828,0.0002162363737707211,0,61,['frequency'],0.013712610001675785,None,None,427.7948987999698,427.7948987999698,0.20854201004840434,1.6779060354333166,428.01463160000276,427.7948987999698,,,,,,bihhjl,001,fr,0,2022-06-23_11h59.24.147,Continuous,2022.1.1,None,
10,0,10,0,3,0,3,0,,,,,,,,1.4693640253849123,both,405.0,12.68945846532674,0.0003288449215395306,0,62,['frequency'],0.012986409943550825,None,None,429.51720210001804,429.51720210001804,0.21406570996623486,1.6834297353511471,429.735054400051,429.51720210001804,,,,,,bihhjl,001,fr,0,2022-06-23_11h59.24.147,Continuous,2022.1.1,None,
10,0,10,0,4,0,4,0,,,,,,,,1.4693640253849123,both,361.0,10.48529339586503,0.0002898539217975143,0,63,['frequency'],0.014170009992085397,None,None,431.2337393000489,431.2337393000489,0.20933201001025736,1.6786960353951697,431.4518708999967,431.2337393000489,,,,,,bihhjl,001,fr,0,2022-06-23_11h59.24.147,Continuous,2022.1.1,None,
10,0,10,0,5,0,5,0,,,,,,,,1.4693640253849123,both,322.0,18.70730714186122,0.0008341767755332639,0,64,['frequency'],0.009514710051007569,None,None,432.95803780003916,432.95803780003916,0.21318200998939574,1.682546035374308,433.1783634000458,432.95803780003916,,,,,,bihhjl,001,fr,0,2022-06-23_11h59.24.147,Continuous,2022.1.1,None,
10,0,10,0,6,0,6,0,,,,,,,,1.4693640253849123,both,287.0,20.0,0.0012828458784649333,0,65,['frequency'],0.012506110011599958,None,None,434.674308000016,434.674308000016,0.21416241000406444,1.6835264353889767,434.88983810006175,434.674308000016,,,,,,bihhjl,001,fr,0,2022-06-23_11h59.24.147,Continuous,2022.1.1,None,
10,0,10,0,7,0,7,0,,,,,,,,1.4693640253849123,both,,,,1,65,['frequency'],0.016935209976509213,None,None,436.39679160004016,436.39679160004016,0.2228743099840358,1.692238335368948,436.61723960004747,436.39679160004016,,,,,,bihhjl,001,fr,0,2022-06-23_11h59.24.147,Continuous,2022.1.1,None,
10,0,10,0,8,0,8,0,,,,,,,,1.4693640253849123,both,228.0,14.17013320770037,0.0010763013590921631,0,66,['frequency'],0.018473210046067834,None,None,438.1179683000082,438.1179683000082,0.23449991003144532,1.7038639354163576,438.33718879998196,438.1179683000082,,,,,,bihhjl,001,fr,0,2022-06-23_11h59.24.147,Continuous,2022.1.1,None,
10,0,10,0,9,0,9,0,,,,,,,,1.4693640253849123,both,203.0,7.22841641101191,0.0005965768128196658,0,67,['frequency'],0.010084410081617534,None,None,439.8313523000106,439.8313523000106,0.20951831003185362,1.678882335416766,440.0514503000304,439.8313523000106,,,,,,bihhjl,001,fr,0,2022-06-23_11h59.24.147,Continuous,2022.1.1,None,
10,0,10,0,10,0,10,0,,,,,,,,1.4693640253849123,both,181.0,16.082026921572744,0.002131468569079001,0,68,['frequency'],0.016782109974883497,None,None,441.55737250007223,441.55737250007223,0.22955570998601615,1.6989197353709284,441.7794019000139,441.55737250007223,,,,,,bihhjl,001,fr,0,2022-06-23_11h59.24.147,Continuous,2022.1.1,None,
10,0,10,0,11,0,11,0,,,,,,,,1.4693640253849123,both,161.0,9.32773705622893,0.0011925935460690537,0,69,['frequency'],0.015021010069176555,None,None,443.27491520007607,443.27491520007607,0.21588411007542163,1.685248135460334,443.4954364000587,443.27491520007607,,,,,,bihhjl,001,fr,0,2022-06-23_11h59.24.147,Continuous,2022.1.1,None,
10,0,10,0,12,0,12,0,,,,,,,,1.4693640253849123,both,143.0,4.130311397884959,0.00090492859921983,0,70,['frequency'],0.01237551006488502,None,None,444.9946619999828,444.9946619999828,0.22166341007687151,1.6910274354617838,445.22040630003903,444.9946619999828,,,,,,bihhjl,001,fr,0,2022-06-23_11h59.24.147,Continuous,2022.1.1,None,
10,0,10,0,13,0,13,0,,,,,,,,1.4693640253849123,both,127.0,16.70788847862524,0.004825371068844153,0,71,['frequency'],0.012774509959854186,None,None,446.71353890001774,446.71353890001774,0.20722501003183424,1.6765890354167465,446.9329704999691,446.71353890001774,,,,,,bihhjl,001,fr,0,2022-06-23_11h59.24.147,Continuous,2022.1.1,None,
,,,,,,,,,,,,,,,,,,,,,,,,,,,,,,,,448.4452411000384,None,"[0.5833333333333334, 0.5833333333333334, 0.5833333333333334, 0.5833333333333334, 0.5833333333333334, 0.3333333333333333, 0.3333333333333333, 0.5833333333333334, 0.3333333333333333, 0.5833333333333334, 0.5833333333333334, 0.3333333333333333, 0.3333333333333333, 0.3333333333333333, 0.16666666666666666]",,,,,,,,,,,
