tTrials.thisRepN,tTrials.thisTrialN,tTrials.thisN,tTrials.thisIndex,blocks.thisRepN,blocks.thisTrialN,blocks.thisN,blocks.thisIndex,trials.thisRepN,trials.thisTrialN,trials.thisN,trials.thisIndex,tStart_text.started,tStart_text.stopped,Prediction,practice_Frequency,practice_Level,practice_Psychopy_Level,practice_isCatchTrial,Practice_trial_detection,practice_Cue_Delays,practice_Cue_Frequencies,practice_Interval,practice_Cue_Intensities,tCue_visual_cue.started,tCue_visual_cue.stopped,tProbe_visual_cue.started,tProbe_visual_cue.stopped,tFeedback.keys,tFeedback.corr,tFeedback.rt,tFeedback.started,tFeedback.stopped,tToo_late.keys,tToo_late.corr,tToo_early.keys,tToo_early.corr,tToo_early.rt,more_instructions.started,more_instructions.stopped,readyy.keys,readyy.rt,readyy.started,readyy.stopped,txt_rhythm.started,txt_rhythm.stopped,sound_1.started,sound_1.stopped,sound_2.started,sound_2.stopped,sound_3.started,sound_3.stopped,sound_4.started,sound_4.stopped,cross.started,cross.stopped,sound_5.started,sound_5.stopped,circle.started,circle.stopped,rhythm_ready.keys,rhythm_ready.rt,rhythm_ready.started,rhythm_ready.stopped,rhytm_ready_txt.started,rhytm_ready_txt.stopped,txt_freq.started,txt_freq.stopped,sound_6.started,sound_6.stopped,sound_7.started,sound_7.stopped,sound_8.started,sound_8.stopped,sound_9.started,sound_9.stopped,cross_2.started,cross_2.stopped,sound_10.started,sound_10.stopped,circle_2.started,circle_2.stopped,freq_ready.keys,freq_ready.rt,freq_ready.started,freq_ready.stopped,freq_ready_txt.started,freq_ready_txt.stopped,txt_freq_2.started,txt_freq_2.stopped,sound_11.started,sound_11.stopped,sound_12.started,sound_12.stopped,sound_13.started,sound_13.stopped,sound_14.started,sound_14.stopped,cross_3.started,cross_3.stopped,sound_15.started,sound_15.stopped,circle_3.started,circle_3.stopped,freq_ready_2.keys,freq_ready_2.rt,freq_ready_2.started,freq_ready_2.stopped,freq_ready_txt_2.started,freq_ready_txt_2.stopped,txt_freq_3.started,txt_freq_3.stopped,sound_16.started,sound_16.stopped,sound_17.started,sound_17.stopped,sound_18.started,sound_18.stopped,sound_19.started,sound_19.stopped,cross_4.started,cross_4.stopped,sound_20.started,sound_20.stopped,circle_4.started,circle_4.stopped,freq_ready_txt_3.started,freq_ready_txt_3.stopped,tStart_text_2.started,tStart_text_2.stopped,this_trial_is.started,this_trial_is.stopped,Frequency,Level,Psychopy_Level,Real trial detection,Cue Delays,Cue Frequencies,Interval,Cue Intensities,Catch trial,cue_visual_cue.started,cue_visual_cue.stopped,probe_visual_cue.started,probe_visual_cue.stopped,feedback.keys,feedback.corr,feedback.rt,feedback.started,feedback.stopped,answer_too_late.keys,answer_too_late.corr,answer_too_early.keys,answer_too_early.corr,Catch trial answer,answer_too_early.rt,Audiogram_time,Audiogram_both,Audiogram_frequency,Audiogram_none,goodbye_text.started,goodbye_text.stopped,key_resp.keys,key_resp.rt,key_resp.started,key_resp.stopped,participant,session,Language (english or french),Skip training? (1 for yes),Resume previous experiment,date,expName,psychopyVersion,frameRate,
0,0,0,0,,,,,,,,,19.602923900005408,None,none,1000,30,0.0013930605843148849,False,1,"[0.47336260381567885, 0.6886218028787978, 0.6450703863632803, 0.4147013743212009]","[1486.2167942179688, 6668.455321477373, 163.58816846555638, 1146.8273677012114]",None,"[30, 30, 30, 30]",37.52489619993139,40.260794100002386,40.260794100002386,41.476210699998774,['space'],1,[0.495138099999167],40.260794100002386,41.90762029995676,None,1,['space'],0,[0.7671057999832556],,,,,,,,,,,,,,,,,,,,,,,,,,,,,,,,,,,,,,,,,,,,,,,,,,,,,,,,,,,,,,,,,,,,,,,,,,,,,,,,,,,,,,,,,,,,,,,,,,,,,,,,,,,,,,,,,,,,,,,,,,,,,,,,,cbtxie,001,fr,0,0,2022-05-05_16h25.21.942,Cluster,2022.1.1,None,
1,0,1,0,,,,,,,,,,,both,2500,30,0.002716251657462167,False,1,"[0.466317221988745, 0.466317221988745, 0.466317221988745, 0.466317221988745]","[6299.605249474367, 5000.000000000001, 3968.502629920499, 3149.802624737183]",Major_3rd,"[30, 30, 30, 30]",45.73553429997992,48.05001779994927,48.05001779994927,49.28027599991765,['space'],1,[0.4335566000081599],48.05001779994927,49.749963099951856,None,1,None,1,,,,,,,,,,,,,,,,,,,,,,,,,,,,,,,,,,,,,,,,,,,,,,,,,,,,,,,,,,,,,,,,,,,,,,,,,,,,,,,,,,,,,,,,,,,,,,,,,,,,,,,,,,,,,,,,,,,,,,,,,,,,,,,,,,cbtxie,001,fr,0,0,2022-05-05_16h25.21.942,Cluster,2022.1.1,None,
2,0,2,0,,,,,,,,,,,none,6000,30,0.003664122665694519,True,1,"[0.7109499213882278, 0.5393601704990638, 0.7365575215127071, 0.5455266975442158]","[1862.2446343132926, 977.6214645146031, 467.1049512978012, 2168.0840304929593]",None,"[30, 30, 30, 30]",53.005407999968156,55.9301091999514,55.9301091999514,57.15577379998285,None,1,,55.9301091999514,57.687817199970596,None,1,None,1,,,,,,,,,,,,,,,,,,,,,,,,,,,,,,,,,,,,,,,,,,,,,,,,,,,,,,,,,,,,,,,,,,,,,,,,,,,,,,,,,,,,,,,,,,,,,,,,,,,,,,,,,,,,,,,,,,,,,,,,,,,,,,,,,,cbtxie,001,fr,0,0,2022-05-05_16h25.21.942,Cluster,2022.1.1,None,
3,0,3,0,,,,,,,,,,,both,440,30,0.0023562289915021436,False,1,"[0.4187505776388707, 0.4187505776388707, 0.4187505776388707, 0.4187505776388707]","[2217.4610478149766, 1479.9776908465376, 987.7666025122483, 659.2551138257398]",Perfect_5th,"[30, 30, 30, 30]",60.23624289990403,62.42980709997937,62.42980709997937,63.646809999947436,['space'],1,[0.83784769999329],62.42980709997937,64.0914335999405,None,1,None,1,,,,,,,,,,,,,,,,,,,,,,,,,,,,,,,,,,,,,,,,,,,,,,,,,,,,,,,,,,,,,,,,,,,,,,,,,,,,,,,,,,,,,,,,,,,,,,,,,,,,,,,,,,,,,,,,,,,,,,,,,,,,,,,,,,cbtxie,001,fr,0,0,2022-05-05_16h25.21.942,Cluster,2022.1.1,None,
4,0,4,0,,,,,,,,,,,frequency,250,30,0.005296268625886445,True,1,"[0.5519321175028784, 0.4705983834120811, 0.6303469518835939, 0.47679087245232776]","[157.49013123685913, 176.77669529663686, 198.42513149602493, 222.72467953508482]",Tone,"[30, 30, 30, 30]",67.2233772999607,69.80402729997877,69.80402729997877,71.02355939999688,None,1,,69.80402729997877,71.50370429991744,None,1,None,1,,,,,,,,,,,,,,,,,,,,,,,,,,,,,,,,,,,,,,,,,,,,,,,,,,,,,,,,,,,,,,,,,,,,,,,,,,,,,,,,,,,,,,,,,,,,,,,,,,,,,,,,,,,,,,,,,,,,,,,,,,,,,,,,,,cbtxie,001,fr,0,0,2022-05-05_16h25.21.942,Cluster,2022.1.1,None,
,,,,,,,,,,,,,,,,,,,,,,,,,,,,,,,,,,,,,,73.84481219993904,None,space,15.087058000033721,73.84481219993904,None,,,,,,,,,,,,,,,,,,,,,,,,,,,,,,,,,,,,,,,,,,,,,,,,,,,,,,,,,,,,,,,,,,,,,,,,,,,,,,,,,,,,,,,,,,,,,,,,,,,,,,,,,,,,,,,,,,,,,,,,,,,cbtxie,001,fr,0,0,2022-05-05_16h25.21.942,Cluster,2022.1.1,None,
,,,,,,,,,,,,,,,,,,,,,,,,,,,,,,,,,,,,,,,,,,,,89.01000099990051,90.02656949998345,90.47509046661823,90.7067790000001,90.97786816658142,91.20744059991557,91.47781226662143,91.70772189996205,91.99876186665303,None,90.3953046000097,92.19511319999583,92.48011656658879,None,92.19511319999583,93.02905379992444,space,1.0311625000322238,93.19616479997057,None,,,,,,,,,,,,,,,,,,,,,,,,,,,,,,,,,,,,,,,,,,,,,,,,,,,,,,,,,,,,,,,,,,,,,,,,,,,,,,,,,,,,,,,,,,,,,,,,,,,,,,,cbtxie,001,fr,0,0,2022-05-05_16h25.21.942,Cluster,2022.1.1,None,
,,,,,,,,,,,,,,,,,,,,,,,,,,,,,,,,,,,,,,,,,,,,,,,,,,,,,,,,,,,,,,,,93.19616479997057,None,94.2760690000141,95.29860139999073,95.76265726663793,None,96.03934176656573,None,96.74954826658747,None,97.14722746663416,None,95.65509719995316,97.47047109995037,97.75094606663721,None,97.47047109995037,98.3004396999022,space,0.9926772000035271,98.46814129990526,None,,,,,,,,,,,,,,,,,,,,,,,,,,,,,,,,,,,,,,,,,,,,,,,,,,,,,,,,,,,,,,,,,,,,,,,,,,,,,,,,,cbtxie,001,fr,0,0,2022-05-05_16h25.21.942,Cluster,2022.1.1,None,
,,,,,,,,,,,,,,,,,,,,,,,,,,,,,,,,,,,,,,,,,,,,,,,,,,,,,,,,,,,,,,,,,,,,,,,,,,,,,,,,,,,,,,98.46814129990526,None,99.51605179999024,100.53590599994641,100.98629276658563,None,101.48725496657813,None,101.9899499666101,None,102.48888306663527,None,100.90673619997688,102.71843189990614,102.98932326661112,None,102.71843189990614,103.55149509990588,space,0.7969628000864759,103.7028977998998,None,,,,,,,,,,,,,,,,,,,,,,,,,,,,,,,,,,,,,,,,,,,,,,,,,,,,,,,,,,,cbtxie,001,fr,0,0,2022-05-05_16h25.21.942,Cluster,2022.1.1,None,
,,,,0,0,0,0,0,0,0,0,,,frequency,,,,,,,,,,,,,,,,,,,,,,,,,,,,,,,,,,,,,,,,,,,,,,,,,,,,,,,,,,,,,,,,,,,,,,,,,,,,,,,,,,,,,,,,,,,,,,103.7028977998998,None,104.54661769990344,105.57524979999289,106.025954066605,None,106.30377196666474,None,107.02681566664639,None,107.42488836666259,None,105.9118883999763,107.71901659993455,108.02774976665775,None,107.71901659993455,108.54391469992697,108.73575399990659,None,109.74845989991445,None,112.85279799997807,None,2889.151561030801,1.0,6.924241403505391e-05,1,"[0.5741344350103357, 0.6987876329834954, 0.4471637866274442, 0.48453397509270013]","[1146.560556818965, 1444.5757805154008, 1820.0514340396694, 2293.1211136379297]",Major_3rd,"[8.370031608802233, 7.067103149845728, 9.0, 10.35069724881328]",False,113.83735179994255,116.58971259999089,116.58971259999089,117.81976159999613,['space'],1,[0.27555959997698665],3.2511445668060333,4.284042566781864,None,1,None,1,,,,,,,,,,,,,cbtxie,001,fr,0,0,2022-05-05_16h25.21.942,Cluster,2022.1.1,None,
,,,,0,0,0,0,1,0,1,0,,,none,,,,,,,,,,,,,,,,,,,,,,,,,,,,,,,,,,,,,,,,,,,,,,,,,,,,,,,,,,,,,,,,,,,,,,,,,,,,,,,,,,,,,,,,,,,,,,,,,,,,,,,,,,,,,,,,,,,,118.16549489996396,None,798.2485349902222,6.459334676748085,8.087927186487208e-05,1,"[0.501890660857625, 0.46869720791356184, 0.5942770344972436, 0.7687025984923508]","[2330.9027670110595, 1267.620871898822, 266.98812068918926, 461.4848984116657]",None,"[10.35069724881328, 7.65358028324402, 12.409733461880743, 12.691372772585694]",False,119.16854449990205,121.76067469990812,121.76067469990812,122.99531449994538,['space'],1,[0.37477100000251085],3.363968166639097,4.397024966659956,None,1,None,1,,,,,,,,,,,,,cbtxie,001,fr,0,0,2022-05-05_16h25.21.942,Cluster,2022.1.1,None,
,,,,0,0,0,0,2,0,2,0,,,frequency,,,,,,,,,,,,,,,,,,,,,,,,,,,,,,,,,,,,,,,,,,,,,,,,,,,,,,,,,,,,,,,,,,,,,,,,,,,,,,,,,,,,,,,,,,,,,,,,,,,,,,,,,,,,,,,,,,,,123.60325899999589,None,353.5533905932738,0.0,8.861233020703779e-05,1,"[0.44430164066773403, 0.6308493296063562, 0.7029572144276734, 0.4861574617208255]","[561.2310241546867, 500.0000000000001, 445.44935907016975, 396.8502629920499]",Tone,"[11.795924888873552, 12.137771400097948, 13.0, 14.065615296582664]",False,124.63689999992494,127.45341209997423,127.45341209997423,128.68579319992568,['space'],1,[0.4490525999572128],3.295009333291091,4.307220433256589,None,1,None,1,,,,,,,,,,,,,cbtxie,001,fr,0,0,2022-05-05_16h25.21.942,Cluster,2022.1.1,None,
,,,,0,0,0,0,3,0,3,0,,,frequency,,,,,,,,,,,,,,,,,,,,,,,,,,,,,,,,,,,,,,,,,,,,,,,,,,,,,,,,,,,,,,,,,,,,,,,,,,,,,,,,,,,,,,,,,,,,,,,,,,,,,,,,,,,,,,,,,,,,128.98432629997842,None,,,,,"[0.5687247827141719, 0.4711205673179418, 0.625305581303367, 0.5329130303026643]","[3686.843826218883, 2460.6730376688524, 1642.3022193810132, 1096.1052275108377]",Perfect_5th,"[0.0, 9.942223403142224, 7.6869849008816455, 9.0]",True,129.9812479999382,132.67117489990778,132.67117489990778,133.90500139992218,None,1,,3.230256466777064,4.2607166667003185,None,1,None,1,0,,,,,,,,,,,,cbtxie,001,fr,0,0,2022-05-05_16h25.21.942,Cluster,2022.1.1,None,
,,,,0,0,0,0,4,0,4,0,,,time,,,,,,,,,,,,,,,,,,,,,,,,,,,,,,,,,,,,,,,,,,,,,,,,,,,,,,,,,,,,,,,,,,,,,,,,,,,,,,,,,,,,,,,,,,,,,,,,,,,,,,,,,,,,,,,,,,,,134.2860672000097,None,239.10850972150584,5.09100126744373,0.0003393132823487552,0,"[0.40501096844695145, 0.40501096844695145, 0.40501096844695145, 0.40501096844695145]","[612.2866396291769, 6301.9195553588, 4328.4002284989365, 557.7459331059237]",None,"[11.99822464899644, 1.0, -3.2044923810778823, 11.795924888873552]",False,135.29579000000376,137.54164670000318,137.54164670000318,138.777425999986,None,0,,2.648597366642207,3.6817558667389676,None,1,None,1,,,,,,,,,,,,,cbtxie,001,fr,0,0,2022-05-05_16h25.21.942,Cluster,2022.1.1,None,
,,,,0,0,0,0,5,0,5,0,,,time,,,,,,,,,,,,,,,,,,,,,,,,,,,,,,,,,,,,,,,,,,,,,,,,,,,,,,,,,,,,,,,,,,,,,,,,,,,,,,,,,,,,,,,,,,,,,,,,,,,,,,,,,,,,,,,,,,,,139.01510949991643,None,378.9291416275994,2.0,0.00010326279949859523,0,"[0.7007129946422717, 0.7007129946422717, 0.7007129946422717, 0.7007129946422717]","[939.5729082418978, 796.5018155366898, 481.99465415760505, 3495.3296515810553]",None,"[11.190438755645431, 12.459334676748085, 12.691372772585694, 1.4742866494815487]",False,141.03012669994496,144.1517825999763,144.1517825999763,145.37509709992446,None,0,,3.819207666674629,4.8536029666429386,None,1,None,1,,,,,,,,,,,,,cbtxie,001,fr,0,0,2022-05-05_16h25.21.942,Cluster,2022.1.1,None,
,,,,0,0,0,0,6,0,6,0,,,both,,,,,,,,,,,,,,,,,,,,,,,,,,,,,,,,,,,,,,,,,,,,,,,,,,,,,,,,,,,,,,,,,,,,,,,,,,,,,,,,,,,,,,,,,,,,,,,,,,,,,,,,,,,,,,,,,,,,145.9232759999577,None,193.74070806292536,5.872930038518033,0.0005667589341586201,1,"[0.44863988734471727, 0.44863988734471727, 0.44863988734471727, 0.44863988734471727]","[488.1959926200341, 387.4814161258507, 307.54420378815155, 244.09799631001704]",Major_3rd,"[12.137771400097948, 14.558264051257781, 14.038727507742419, 11.626746627741383]",False,146.93632919993252,149.30580989993177,149.30580989993177,150.52337710000575,['space'],1,[0.27092819998506457],2.8140922668389976,3.842804966843687,None,1,None,1,,,,,,,,,,,,,cbtxie,001,fr,0,0,2022-05-05_16h25.21.942,Cluster,2022.1.1,None,
,,,,0,0,0,0,7,0,7,0,,,time,,,,,,,,,,,,,,,,,,,,,,,,,,,,,,,,,,,,,,,,,,,,,,,,,,,,,,,,,,,,,,,,,,,,,,,,,,,,,,,,,,,,,,,,,,,,,,,,,,,,,,,,,,,,,,,,,,,,150.81256379990373,None,,,,,"[0.7348551497438136, 0.7348551497438136, 0.7348551497438136, 0.7348551497438136]","[850.539665987826, 961.1873437795948, 1384.361759263001, 2637.352609514204]",None,"[12.0, 11.0, 7.067103149845728, 9.0]",True,151.81053629994858,155.06073559995275,155.06073559995275,156.29551919992082,['space'],0,[0.3397869999753311],3.9835886667715386,5.004109766799957,None,1,None,1,0,,,,,,,,,,,,cbtxie,001,fr,0,0,2022-05-05_16h25.21.942,Cluster,2022.1.1,None,
,,,,0,0,0,0,8,0,8,0,,,none,,,,,,,,,,,,,,,,,,,,,,,,,,,,,,,,,,,,,,,,,,,,,,,,,,,,,,,,,,,,,,,,,,,,,,,,,,,,,,,,,,,,,,,,,,,,,,,,,,,,,,,,,,,,,,,,,,,,156.84725769993383,None,353.5533905932738,0.0,8.861233020703779e-05,1,"[0.6469215246571057, 0.7384926471102543, 0.6734612099403616, 0.5477665657678502]","[521.4694993585539, 3634.283947965114, 1858.1687659050542, 391.2950703379008]",None,"[12.0, 0.0, 9.096228285012417, 14.558264051257781]",False,157.85465809993912,160.95317299989983,160.95317299989983,162.19766079995316,['space'],1,[0.20318159996531904],3.628375766798854,4.666252766735852,None,1,None,1,,,,,,,,,,,,,cbtxie,001,fr,0,0,2022-05-05_16h25.21.942,Cluster,2022.1.1,None,
,,,,0,0,0,0,9,0,9,0,,,frequency,,,,,,,,,,,,,,,,,,,,,,,,,,,,,,,,,,,,,,,,,,,,,,,,,,,,,,,,,,,,,,,,,,,,,,,,,,,,,,,,,,,,,,,,,,,,,,,,,,,,,,,,,,,,,,,,,,,,162.57633299997542,None,839.4216627248287,6.0,7.878993765631363e-05,1,"[0.6039775958378553, 0.6065391374199716, 0.5068012707344595, 0.5347592797287041]","[1332.4988304542885, 1187.121499975227, 1057.6050226047664, 942.2189589373709]",Tone,"[7.208428754134724, 8.0, 9.272298795104259, 11.0]",False,163.56384179997258,166.29505620000418,166.29505620000418,167.5395589999389,['space'],1,[0.2391796000301838],3.2760666667018086,4.310354466782883,None,1,None,1,,,,,,,,,,,,,cbtxie,001,fr,0,0,2022-05-05_16h25.21.942,Cluster,2022.1.1,None,
,,,,0,0,0,0,10,0,10,0,,,both,,,,,,,,,,,,,,,,,,,,,,,,,,,,,,,,,,,,,,,,,,,,,,,,,,,,,,,,,,,,,,,,,,,,,,,,,,,,,,,,,,,,,,,,,,,,,,,,,,,,,,,,,,,,,,,,,,,,167.92341679998208,None,378.9291416275994,4.0,0.00013000016238178756,1,"[0.6877693617861644, 0.6877693617861644, 0.6877693617861644, 0.6877693617861644]","[150.37812951026456, 189.46457081379972, 238.71040097760408, 300.75625902052906]",Major_3rd,"[16.0, 11.872930038518033, 11.09100126744373, 14.0]",False,168.93604950001463,172.01631739991717,172.01631739991717,173.24438249995,['space'],1,[0.29602050001267344],3.7664092667400837,4.7931474667275324,None,1,None,1,,,,,,,,,,,,,cbtxie,001,fr,0,0,2022-05-05_16h25.21.942,Cluster,2022.1.1,None,
,,,,0,0,0,0,11,0,11,0,,,none,,,,,,,,,,,,,,,,,,,,,,,,,,,,,,,,,,,,,,,,,,,,,,,,,,,,,,,,,,,,,,,,,,,,,,,,,,,,,,,,,,,,,,,,,,,,,,,,,,,,,,,,,,,,,,,,,,,,173.78773939993698,None,1878.9858553177473,3.0962282850124176,9.904737384351494e-05,1,"[0.7378952491155919, 0.6755220567187918, 0.4054000219929237, 0.43200863264102435]","[4758.256615802445, 1373.8859130579208, 188.3123797709416, 204.8427051581203]",None,"[-3.8006024616724545, 7.067103149845728, 12.0, 11.181050693590539]",False,174.8003016000148,177.6557765000034,177.6557765000034,178.88860569999088,['space'],1,[0.30136669997591525],3.288112866692245,4.310222166706808,None,1,None,1,,,,,,,,,,,,,cbtxie,001,fr,0,0,2022-05-05_16h25.21.942,Cluster,2022.1.1,None,
,,,,0,0,0,0,12,0,12,0,,,none,,,,,,,,,,,,,,,,,,,,,,,,,,,,,,,,,,,,,,,,,,,,,,,,,,,,,,,,,,,,,,,,,,,,,,,,,,,,,,,,,,,,,,,,,,,,,,,,,,,,,,,,,,,,,,,,,,,,179.14509040000848,None,,,,,"[0.7385032660727404, 0.7401842323553371, 0.7646245922339264, 0.5359948030452596]","[940.688997303855, 134.99912966442272, 559.5575138860428, 2012.10003687706]",None,"[11.0, 18.0, 11.795924888873552, 9.785329093629244]",True,180.16832149995025,183.45764479995705,183.45764479995705,184.69569560000673,None,1,,3.8232260666554794,4.855115666636266,None,1,None,1,0,,,,,,,,,,,,cbtxie,001,fr,0,0,2022-05-05_16h25.21.942,Cluster,2022.1.1,None,
,,,,0,0,0,0,13,0,13,0,,,both,,,,,,,,,,,,,,,,,,,,,,,,,,,,,,,,,,,,,,,,,,,,,,,,,,,,,,,,,,,,,,,,,,,,,,,,,,,,,,,,,,,,,,,,,,,,,,,,,,,,,,,,,,,,,,,,,,,,185.0675009000115,None,179.83150826296776,6.937531404266516,0.0007532554204528522,1,"[0.6104957118958168, 0.6104957118958168, 0.6104957118958168, 0.6104957118958168]","[906.2940107794276, 604.8786825919933, 403.70808623082945, 269.442821475812]",Perfect_5th,"[11.190438755645431, 11.99822464899644, 14.065615296582664, 12.409733461880743]",False,186.08062599995174,188.92958230001386,188.92958230001386,190.16675589990336,['space'],1,[0.2135503999888897],3.4850856666453183,4.512853366672061,None,1,None,1,,,,,,,,,,,,,cbtxie,001,fr,0,0,2022-05-05_16h25.21.942,Cluster,2022.1.1,None,
,,,,0,0,0,0,14,0,14,0,,,time,,,,,,,,,,,,,,,,,,,,,,,,,,,,,,,,,,,,,,,,,,,,,,,,,,,,,,,,,,,,,,,,,,,,,,,,,,,,,,,,,,,,,,,,,,,,,,,,,,,,,,,,,,,,,,,,,,,,190.64381339994725,None,159.16343368115565,9.0,0.0011796880661569537,0,"[0.527885058862708, 0.527885058862708, 0.527885058862708, 0.527885058862708]","[967.8638950538743, 581.3704695137076, 1524.4988698501547, 2475.6114845527577]",None,"[11.0, 11.795924888873552, 7.239214312468036, 9.942223403142224]",False,191.65183939994313,194.26889519998804,194.26889519998804,195.50435910001397,None,0,,3.151481066714041,4.182067466783337,None,1,None,1,,,,,,,,,,,,,cbtxie,001,fr,0,0,2022-05-05_16h25.21.942,Cluster,2022.1.1,None,
,,,,0,0,0,0,15,0,15,0,,,time,,,,,,,,,,,,,,,,,,,,,,,,,,,,,,,,,,,,,,,,,,,,,,,,,,,,,,,,,,,,,,,,,,,,,,,,,,,,,,,,,,,,,,,,,,,,,,,,,,,,,,,,,,,,,,,,,,,,195.88000239990652,None,707.1067811865476,7.0,9.940581809693379e-05,1,"[0.5743468340448682, 0.5743468340448682, 0.5743468340448682, 0.5743468340448682]","[4990.996632001807, 420.2456147919711, 1759.3763291771222, 6201.292513794301]",None,"[-3.8162840883782856, 14.0, 8.34684472884015, 0.0]",False,198.16560559999198,200.91072379995603,200.91072379995603,202.14490349998232,['space'],1,[0.3014160000020638],3.3353578333044425,4.37039593339432,None,1,None,1,,,,,,,,,,,,,cbtxie,001,fr,0,0,2022-05-05_16h25.21.942,Cluster,2022.1.1,None,
,,,,0,0,0,0,16,0,16,0,,,frequency,,,,,,,,,,,,,,,,,,,,,,,,,,,,,,,,,,,,,,,,,,,,,,,,,,,,,,,,,,,,,,,,,,,,,,,,,,,,,,,,,,,,,,,,,,,,,,,,,,,,,,,,,,,,,,,,,,,,202.5894436999224,None,,,,,"[0.4350123607056281, 0.50334847351419, 0.4892783061754324, 0.65046385090804]","[330.71678418079404, 495.51529817998187, 742.4340779637258, 1112.3942331274643]",Perfect_5th,"[14.562099795198893, 12.137771400097948, 12.654239689947314, 9.0]",True,203.6058536999626,206.06673859991133,206.06673859991133,207.28818509995472,['space'],0,[0.3114155000075698],3.112412766786292,4.147886066813953,None,1,None,1,0,,,,,,,,,,,,cbtxie,001,fr,0,0,2022-05-05_16h25.21.942,Cluster,2022.1.1,None,
,,,,0,0,0,0,17,0,17,0,,,frequency,,,,,,,,,,,,,,,,,,,,,,,,,,,,,,,,,,,,,,,,,,,,,,,,,,,,,,,,,,,,,,,,,,,,,,,,,,,,,,,,,,,,,,,,,,,,,,,,,,,,,,,,,,,,,,,,,,,,207.79445729998406,None,189.4645708137998,6.0,0.000606184672180193,1,"[0.5357514375891224, 0.5894257503387211, 0.4439098049968529, 0.5129793641153]","[477.4208019552084, 378.9291416275996, 300.7562590205292, 238.7104009776042]",Major_3rd,"[12.691372772585694, 14.558264051257781, 14.0, 11.09100126744373]",False,208.80827479995787,211.41906659991946,211.41906659991946,212.65165829996113,['space'],1,[0.2948462999192998],3.0949729667045176,4.1188451666384935,None,1,None,1,,,,,,,,,,,,,cbtxie,001,fr,0,0,2022-05-05_16h25.21.942,Cluster,2022.1.1,None,
,,,,0,0,0,0,18,0,18,0,,,frequency,,,,,,,,,,,,,,,,,,,,,,,,,,,,,,,,,,,,,,,,,,,,,,,,,,,,,,,,,,,,,,,,,,,,,,,,,,,,,,,,,,,,,,,,,,,,,,,,,,,,,,,,,,,,,,,,,,,,212.9731211999897,None,210.26166959366353,5.0,0.00043627891131893656,1,"[0.7348613034386692, 0.445653368191657, 0.7546739808529038, 0.7788486329911706]","[132.45655175354872, 148.67745239328477, 166.8847977507857, 187.32185191504237]",Tone,"[18.06602173245764, 16.0, 14.0, 12.0]",False,213.97424279991537,216.9553378999699,216.9553378999699,218.19329299998935,['space'],1,[0.24735200009308755],3.750360866775736,4.783623466733843,None,1,None,1,,,,,,,,,,,,,cbtxie,001,fr,0,0,2022-05-05_16h25.21.942,Cluster,2022.1.1,None,
,,,,0,0,0,0,19,0,19,0,,,both,,,,,,,,,,,,,,,,,,,,,,,,,,,,,,,,,,,,,,,,,,,,,,,,,,,,,,,,,,,,,,,,,,,,,,,,,,,,,,,,,,,,,,,,,,,,,,,,,,,,,,,,,,,,,,,,,,,,218.80640140001196,None,659.7539553864473,6.0,9.688084955247381e-05,1,"[0.6803192921517179, 0.6803192921517179, 0.6803192921517179, 0.6803192921517179]","[1047.294122820627, 933.0329915368077, 831.237896142788, 740.5487761432823]",Tone,"[9.272298795104259, 11.190438755645431, 12.459334676748085, 12.654239689947314]",False,219.82721809996292,222.8981246999465,222.8981246999465,224.1359052999178,['space'],1,[0.27580679999664426],3.7416728333337232,4.7690877333516255,None,1,None,1,,,,,,,,,,,,,cbtxie,001,fr,0,0,2022-05-05_16h25.21.942,Cluster,2022.1.1,None,
,,,,1,0,1,0,0,0,0,0,,,frequency,,,,,,,,,,,,,,,,,,,,,,,,,,,,,,,,,,,,,,,,,,,,,,,,,,,,,,,,,,,,,,,,,,,,,,,,,,,,,,,,,,,,,,,,,,,,,,,,,,,,,,,,,,,,,,,,,,,,228.78016189998016,None,659.7539553864473,7.0,0.00010870210106632774,1,"[0.601194683094166, 0.631846261880793, 0.6641397808792313, 0.7399705283301301]","[415.6189480713939, 466.51649576840373, 523.6470614103134, 587.7739531418044]",Tone,"[14.0, 12.691372772585694, 12.0, 11.795924888873552]",False,229.75739499996416,232.67643049999606,232.67643049999606,233.91228549997322,['space'],1,[0.2726097999839112],3.652077933307737,4.681659133289941,None,1,None,1,,,,,,,,,,,,,cbtxie,001,fr,0,0,2022-05-05_16h25.21.942,Cluster,2022.1.1,None,
,,,,1,0,1,0,1,0,1,0,,,time,,,,,,,,,,,,,,,,,,,,,,,,,,,,,,,,,,,,,,,,,,,,,,,,,,,,,,,,,,,,,,,,,,,,,,,,,,,,,,,,,,,,,,,,,,,,,,,,,,,,,,,,,,,,,,,,,,,,234.48413399991114,None,,,,,"[0.6615598365541522, 0.6615598365541522, 0.6615598365541522, 0.6615598365541522]","[1001.3867150646713, 736.6429801795379, 142.20940880330699, 386.3114360098181]",None,"[10.254190837343113, 12.654239689947314, 17.0, 14.558264051257781]",True,235.49618569994345,238.51204750000034,238.51204750000034,239.73999819997698,None,1,,3.6845224666176364,4.701836566673592,None,1,None,1,0,,,,,,,,,,,,cbtxie,001,fr,0,0,2022-05-05_16h25.21.942,Cluster,2022.1.1,None,
,,,,1,0,1,0,2,0,2,0,,,frequency,,,,,,,,,,,,,,,,,,,,,,,,,,,,,,,,,,,,,,,,,,,,,,,,,,,,,,,,,,,,,,,,,,,,,,,,,,,,,,,,,,,,,,,,,,,,,,,,,,,,,,,,,,,,,,,,,,,,240.23649699997623,None,1125.1081572503783,2.370031608802233,6.474697701254662e-05,1,"[0.5048512414286083, 0.4991141257317957, 0.4165317712021986, 0.5528247276315673]","[2835.0949014563653, 2250.2163145007567, 1785.9978723972529, 1417.5474507281826]",Major_3rd,"[7.529142106080897, 10.35069724881328, 8.34684472884015, 7.067103149845728]",False,241.23894089995883,243.6904605999589,243.6904605999589,244.91969109990168,['space'],1,[0.08481929998379201],3.0161009666044265,4.044705166597851,None,1,None,1,,,,,,,,,,,,,cbtxie,001,fr,0,0,2022-05-05_16h25.21.942,Cluster,2022.1.1,None,
,,,,1,0,1,0,3,0,3,0,,,frequency,,,,,,,,,,,,,,,,,,,,,,,,,,,,,,,,,,,,,,,,,,,,,,,,,,,,,,,,,,,,,,,,,,,,,,,,,,,,,,,,,,,,,,,,,,,,,,,,,,,,,,,,,,,,,,,,,,,,245.33058559999336,None,4924.577653379667,-8.0,5.874332325816365e-05,1,"[0.5936148187994392, 0.5436338066698911, 0.7459059974854124, 0.591492667739423]","[7817.279747473972, 6964.404506368996, 6204.579047334942, 5527.651519871107]",Tone,"[8.0, 3.8560812483939153, 0.0, -2.0910989360067767]",False,247.12846259993967,250.02438769990113,250.02438769990113,251.25470709998626,['space'],1,[0.31187889992725104],3.487557500018738,4.52479660010431,None,1,None,1,,,,,,,,,,,,,cbtxie,001,fr,0,0,2022-05-05_16h25.21.942,Cluster,2022.1.1,None,
,,,,1,0,1,0,4,0,4,0,,,frequency,,,,,,,,,,,,,,,,,,,,,,,,,,,,,,,,,,,,,,,,,,,,,,,,,,,,,,,,,,,,,,,,,,,,,,,,,,,,,,,,,,,,,,,,,,,,,,,,,,,,,,,,,,,,,,,,,,,,251.70094659994356,None,7577.354506032289,1.0,0.0001893155210783811,1,"[0.592497342846467, 0.503418656211059, 0.774731072446684, 0.7905661593213453]","[4773.434222332924, 5357.998754669873, 6014.150257005816, 6750.655416319089]",Tone,"[-3.8162840883782856, -3.0, -0.44113974452419136, 3.0]",False,252.71291329991072,255.62244029995054,255.62244029995054,256.86107929993887,['space'],1,[0.29719729989301413],3.683211766765453,4.6956173666985705,None,1,None,1,,,,,,,,,,,,,cbtxie,001,fr,0,0,2022-05-05_16h25.21.942,Cluster,2022.1.1,None,
,,,,1,0,1,0,5,0,5,0,,,time,,,,,,,,,,,,,,,,,,,,,,,,,,,,,,,,,,,,,,,,,,,,,,,,,,,,,,,,,,,,,,,,,,,,,,,,,,,,,,,,,,,,,,,,,,,,,,,,,,,,,,,,,,,,,,,,,,,,257.4533044999698,None,581.8132102883677,5.795924888873552,0.00011436673452886226,1,"[0.7792838758551086, 0.7792838758551086, 0.7792838758551086, 0.7792838758551086]","[4815.099369474091, 1246.2008587453254, 2856.551619309946, 2258.594186919604]",None,"[-3.8162840883782856, 7.65358028324402, 7.529142106080897, 10.35069724881328]",False,258.45790299994405,261.80733799992595,261.80733799992595,263.030866599991,['space'],1,[0.2737146000145003],4.135325366747566,5.175222766702063,None,1,None,1,,,,,,,,,,,,,cbtxie,001,fr,0,0,2022-05-05_16h25.21.942,Cluster,2022.1.1,None,
,,,,1,0,1,0,6,0,6,0,,,both,,,,,,,,,,,,,,,,,,,,,,,,,,,,,,,,,,,,,,,,,,,,,,,,,,,,,,,,,,,,,,,,,,,,,,,,,,,,,,,,,,,,,,,,,,,,,,,,,,,,,,,,,,,,,,,,,,,,263.6822090999922,None,126.95724599712933,12.786162976081553,0.0030738231893148935,1,"[0.516131168918021, 0.516131168918021, 0.516131168918021, 0.516131168918021]","[639.8244266738595, 427.0315721978802, 285.0093807793095, 190.22094013827262]",Perfect_5th,"[12.308239549758483, 13.389643363353557, 13.271798484273098, 11.872930038518033]",False,264.69381560001057,267.26924960000906,267.26924960000906,268.51306759996805,['space'],1,[0.19331359991338104],3.1007576666306704,4.117077166563831,None,1,None,1,,,,,,,,,,,,,cbtxie,001,fr,0,0,2022-05-05_16h25.21.942,Cluster,2022.1.1,None,
,,,,1,0,1,0,7,0,7,0,,,time,,,,,,,,,,,,,,,,,,,,,,,,,,,,,,,,,,,,,,,,,,,,,,,,,,,,,,,,,,,,,,,,,,,,,,,,,,,,,,,,,,,,,,,,,,,,,,,,,,,,,,,,,,,,,,,,,,,,268.8580033999169,None,,,,,"[0.4003504419829936, 0.4003504419829936, 0.4003504419829936, 0.4003504419829936]","[5924.364198506849, 3254.2462076335473, 2849.970101939935, 898.515692538472]",None,"[-1.0, 3.581638272757105, 7.529142106080897, 11.954770458463514]",True,269.86251319991425,272.09005009999964,272.09005009999964,273.3092097999761,None,1,,2.6274970666272566,3.6630452666431665,None,1,None,1,0,,,,,,,,,,,,cbtxie,001,fr,0,0,2022-05-05_16h25.21.942,Cluster,2022.1.1,None,
,,,,1,0,1,0,8,0,8,0,,,frequency,,,,,,,,,,,,,,,,,,,,,,,,,,,,,,,,,,,,,,,,,,,,,,,,,,,,,,,,,,,,,,,,,,,,,,,,,,,,,,,,,,,,,,,,,,,,,,,,,,,,,,,,,,,,,,,,,,,,273.5595533999149,None,406.12619817811805,-5.0,4.2873658564129765e-05,0,"[0.5518540343396645, 0.7352074356029814, 0.7157179704925531, 0.5529816221719079]","[255.84347299919392, 287.174588749259, 322.34257710989505, 361.8173093600948]",Tone,"[12.0, 13.271798484273098, 14.562099795198893, 14.741967372715234]",False,274.58804179995786,277.6135476999916,277.6135476999916,278.82739569991827,None,0,,3.580229033366777,4.612670533359051,None,1,None,1,,,,,,,,,,,,,cbtxie,001,fr,0,0,2022-05-05_16h25.21.942,Cluster,2022.1.1,None,
,,,,1,0,1,0,9,0,9,0,,,time,,,,,,,,,,,,,,,,,,,,,,,,,,,,,,,,,,,,,,,,,,,,,,,,,,,,,,,,,,,,,,,,,,,,,,,,,,,,,,,,,,,,,,,,,,,,,,,,,,,,,,,,,,,,,,,,,,,,279.2374444999732,None,1319.5079107728945,3.0,7.455877576898718e-05,0,"[0.5293113460552002, 0.5293113460552002, 0.5293113460552002, 0.5293113460552002]","[286.6733252447628, 3523.940988840135, 1302.9841056755963, 4864.539401111826]",None,"[13.271798484273098, 1.0, 7.208428754134724, -3.8162840883782856]",False,280.25748689996544,282.8690329999663,282.8690329999663,284.1010901000118,None,0,,3.1356581333093345,4.151774233323522,None,1,None,1,,,,,,,,,,,,,cbtxie,001,fr,0,0,2022-05-05_16h25.21.942,Cluster,2022.1.1,None,
,,,,1,0,1,0,10,0,10,0,,,none,,,,,,,,,,,,,,,,,,,,,,,,,,,,,,,,,,,,,,,,,,,,,,,,,,,,,,,,,,,,,,,,,,,,,,,,,,,,,,,,,,,,,,,,,,,,,,,,,,,,,,,,,,,,,,,,,,,,284.4487086998997,None,189.4645708137998,6.0,0.000606184672180193,0,"[0.49417282291876763, 0.625605107266404, 0.6001849335925294, 0.6716021749360501]","[146.4397923114629, 270.6540978414937, 5013.174190434214, 177.75263772447028]",None,"[16.979024424982406, 12.409733461880743, -3.8162840883782856, 12.937531404266515]",False,285.48175189993344,288.2320909999544,288.2320909999544,289.46818969992455,None,0,,3.4271504333009943,4.4716349333757535,None,1,None,1,,,,,,,,,,,,,cbtxie,001,fr,0,0,2022-05-05_16h25.21.942,Cluster,2022.1.1,None,
,,,,1,0,1,0,11,0,11,0,,,time,,,,,,,,,,,,,,,,,,,,,,,,,,,,,,,,,,,,,,,,,,,,,,,,,,,,,,,,,,,,,,,,,,,,,,,,,,,,,,,,,,,,,,,,,,,,,,,,,,,,,,,,,,,,,,,,,,,,289.99183730001096,None,320.82928791335,8.562099795198893,0.000260231047996691,0,"[0.723177769266544, 0.723177769266544, 0.723177769266544, 0.723177769266544]","[3925.407780977514, 384.8279501851316, 819.0263663566805, 2899.4352062526937]",None,"[-2.0, 14.558264051257781, 12.459334676748085, 7.0]",False,291.00266030000057,294.1854604999535,294.1854604999535,295.3995836999966,None,0,,3.920115966699086,4.937781266635284,None,1,None,1,,,,,,,,,,,,,cbtxie,001,fr,0,0,2022-05-05_16h25.21.942,Cluster,2022.1.1,None,
,,,,1,0,1,0,12,0,12,0,,,time,,,,,,,,,,,,,,,,,,,,,,,,,,,,,,,,,,,,,,,,,,,,,,,,,,,,,,,,,,,,,,,,,,,,,,,,,,,,,,,,,,,,,,,,,,,,,,,,,,,,,,,,,,,,,,,,,,,,295.9746652999893,None,4924.577653379667,-8.0,5.874332325816365e-05,1,"[0.7460778975426186, 0.7460778975426186, 0.7460778975426186, 0.7460778975426186]","[1717.921320504423, 374.09982011060083, 1891.735438223781, 7857.035697471813]",None,"[8.34684472884015, 14.558264051257781, 9.096228285012417, 8.0]",False,298.4170957999304,301.66685479995795,301.66685479995795,302.88612379995175,['space'],1,[0.19924320001155138],4.0171898999251425,5.039506600005552,None,1,None,1,,,,,,,,,,,,,cbtxie,001,fr,0,0,2022-05-05_16h25.21.942,Cluster,2022.1.1,None,
,,,,1,0,1,0,13,0,13,0,,,both,,,,,,,,,,,,,,,,,,,,,,,,,,,,,,,,,,,,,,,,,,,,,,,,,,,,,,,,,,,,,,,,,,,,,,,,,,,,,,,,,,,,,,,,,,,,,,,,,,,,,,,,,,,,,,,,,,,,303.51573529990856,None,1319.5079107728945,3.0,7.455877576898718e-05,0,"[0.42073370420753753, 0.42073370420753753, 0.42073370420753753, 0.42073370420753753]","[3324.9515845711526, 2639.0158215457895, 2094.588245641254, 1662.475792285576]",Major_3rd,"[3.0, 8.99099984172594, 10.0, 8.0]",False,304.53378309996333,306.82899979990907,306.82899979990907,308.0535151999211,None,0,,2.6923357667401433,3.7233130667591467,None,1,None,1,,,,,,,,,,,,,cbtxie,001,fr,0,0,2022-05-05_16h25.21.942,Cluster,2022.1.1,None,
,,,,1,0,1,0,14,0,14,0,,,none,,,,,,,,,,,,,,,,,,,,,,,,,,,,,,,,,,,,,,,,,,,,,,,,,,,,,,,,,,,,,,,,,,,,,,,,,,,,,,,,,,,,,,,,,,,,,,,,,,,,,,,,,,,,,,,,,,,,308.31368009990547,None,1799.5941080276807,3.0,9.289247278802777e-05,0,"[0.4614633519685544, 0.7368357313988115, 0.712333862580387, 0.5365464071533778]","[1181.1578429908875, 485.4677148976094, 5015.007601876837, 1145.560241932336]",None,"[8.0, 12.137771400097948, -3.8162840883782856, 8.370031608802233]",False,309.325723499991,312.27514309994876,312.27514309994876,313.51170309993904,None,0,,3.4888297667494044,4.527793766697869,None,1,None,1,,,,,,,,,,,,,cbtxie,001,fr,0,0,2022-05-05_16h25.21.942,Cluster,2022.1.1,None,
,,,,1,0,1,0,15,0,15,0,,,both,,,,,,,,,,,,,,,,,,,,,,,,,,,,,,,,,,,,,,,,,,,,,,,,,,,,,,,,,,,,,,,,,,,,,,,,,,,,,,,,,,,,,,,,,,,,,,,,,,,,,,,,,,,,,,,,,,,,313.9003345000092,None,6716.653472107934,-3.0,0.00010097978483259857,1,"[0.5818253633863633, 0.5818253633863633, 0.5818253633863633, 0.5818253633863633]","[1332.7528484162494, 1996.8730245096217, 2991.9289842469093, 4482.828370609605]",Perfect_5th,"[7.208428754134724, 9.785329093629244, 6.0, -3.8006024616724545]",False,314.901709800004,317.6643222999992,317.6643222999992,318.8926251999801,['space'],1,[0.2525632999604568],3.348994666710496,4.384279766702093,None,1,None,1,,,,,,,,,,,,,cbtxie,001,fr,0,0,2022-05-05_16h25.21.942,Cluster,2022.1.1,None,
,,,,1,0,1,0,16,0,16,0,,,time,,,,,,,,,,,,,,,,,,,,,,,,,,,,,,,,,,,,,,,,,,,,,,,,,,,,,,,,,,,,,,,,,,,,,,,,,,,,,,,,,,,,,,,,,,,,,,,,,,,,,,,,,,,,,,,,,,,,319.33704339992255,None,,,,,"[0.7296656242442224, 0.7296656242442224, 0.7296656242442224, 0.7296656242442224]","[827.7230963618641, 1347.2278053828843, 551.1741342912746, 292.5080893122748]",None,"[12.459334676748085, 7.208428754134724, 11.824873454476382, 13.271798484273098]",True,320.3345348999137,323.53876869997475,323.53876869997475,324.75586289993953,['space'],0,[0.018005599966272712],3.9402143666520715,4.96497876662761,None,1,None,1,0,,,,,,,,,,,,cbtxie,001,fr,0,0,2022-05-05_16h25.21.942,Cluster,2022.1.1,None,
,,,,1,0,1,0,17,0,17,0,,,time,,,,,,,,,,,,,,,,,,,,,,,,,,,,,,,,,,,,,,,,,,,,,,,,,,,,,,,,,,,,,,,,,,,,,,,,,,,,,,,,,,,,,,,,,,,,,,,,,,,,,,,,,,,,,,,,,,,,325.33228669990785,None,223.60477298989363,5.0,0.00038979170817602635,0,"[0.7125053814663997, 0.7125053814663997, 0.7125053814663997, 0.7125053814663997]","[3606.922723257243, 302.9595127511094, 5950.033364866697, 348.4097061975701]",None,"[0.0, 14.0, -1.0, 14.741967372715234]",False,326.3406801999081,329.5012167999521,329.5012167999521,330.7205178999575,None,0,,3.889743166626431,4.927849166677333,None,1,None,1,,,,,,,,,,,,,cbtxie,001,fr,0,0,2022-05-05_16h25.21.942,Cluster,2022.1.1,None,
,,,,1,0,1,0,18,0,18,0,,,time,,,,,,,,,,,,,,,,,,,,,,,,,,,,,,,,,,,,,,,,,,,,,,,,,,,,,,,,,,,,,,,,,,,,,,,,,,,,,,,,,,,,,,,,,,,,,,,,,,,,,,,,,,,,,,,,,,,,331.31384449999314,None,2143.5469250725882,0.0,7.799382669637754e-05,0,"[0.7584581109991839, 0.7584581109991839, 0.7584581109991839, 0.7584581109991839]","[5966.54763686618, 1343.3559771344562, 778.6974406886674, 706.0890913189224]",None,"[-1.0, 7.208428754134724, 12.654239689947314, 12.572495526117587]",False,333.26710059994366,336.5713268999243,336.5713268999243,337.80500709998887,None,0,,4.069167166715488,5.103227266692556,None,1,None,1,,,,,,,,,,,,,cbtxie,001,fr,0,0,2022-05-05_16h25.21.942,Cluster,2022.1.1,None,
,,,,1,0,1,0,19,0,19,0,,,both,,,,,,,,,,,,,,,,,,,,,,,,,,,,,,,,,,,,,,,,,,,,,,,,,,,,,,,,,,,,,,,,,,,,,,,,,,,,,,,,,,,,,,,,,,,,,,,,,,,,,,,,,,,,,,,,,,,,338.42044799996074,None,353.5533905932738,-1.0,7.897582242723967e-05,0,"[0.4959293280765146, 0.4959293280765146, 0.4959293280765146, 0.4959293280765146]","[140.30775603867167, 176.77669529663694, 222.72467953508487, 280.6155120773433]",Major_3rd,"[17.0, 12.937531404266515, 11.0, 13.0]",False,339.439892699942,341.9443398999283,341.9443398999283,343.17655520001426,None,0,,2.99169976671692,4.023035166668706,None,1,None,1,,,,,,,,,,,,,cbtxie,001,fr,0,0,2022-05-05_16h25.21.942,Cluster,2022.1.1,None,
,,,,2,0,2,0,0,0,0,0,,,both,,,,,,,,,,,,,,,,,,,,,,,,,,,,,,,,,,,,,,,,,,,,,,,,,,,,,,,,,,,,,,,,,,,,,,,,,,,,,,,,,,,,,,,,,,,,,,,,,,,,,,,,,,,,,,,,,,,,345.4803882999113,None,204.64985595301962,5.181050693590538,0.00046543154992702084,1,"[0.5823775057947376, 0.5823775057947376, 0.5823775057947376, 0.5823775057947376]","[1031.3706454926523, 688.357321012333, 459.4233929984891, 306.6283274562028]",Perfect_5th,"[10.0, 12.572495526117587, 13.0, 14.0]",False,346.4678697999334,349.2498123999685,349.2498123999685,350.48994090000633,['space'],1,[0.16770049999468029],3.351698466693051,4.3645428667077795,None,1,None,1,,,,,,,,,,,,,cbtxie,001,fr,0,0,2022-05-05_16h25.21.942,Cluster,2022.1.1,None,
,,,,2,0,2,0,1,0,1,0,,,time,,,,,,,,,,,,,,,,,,,,,,,,,,,,,,,,,,,,,,,,,,,,,,,,,,,,,,,,,,,,,,,,,,,,,,,,,,,,,,,,,,,,,,,,,,,,,,,,,,,,,,,,,,,,,,,,,,,,350.8942320999922,None,1787.1028427950503,2.34684472884015,8.542440047778117e-05,0,"[0.67648569350181, 0.67648569350181, 0.67648569350181, 0.67648569350181]","[1094.2467872427658, 462.01061389507674, 1327.1533822843917, 507.4085798414974]",None,"[9.0, 12.691372772585694, 7.208428754134724, 12.137771400097948]",False,351.9093399000121,354.9494026999455,354.9494026999455,356.18757179996464,None,0,,3.748449466773309,4.785444566747174,None,1,None,1,,,,,,,,,,,,,cbtxie,001,fr,0,0,2022-05-05_16h25.21.942,Cluster,2022.1.1,None,
,,,,2,0,2,0,2,0,2,0,,,time,,,,,,,,,,,,,,,,,,,,,,,,,,,,,,,,,,,,,,,,,,,,,,,,,,,,,,,,,,,,,,,,,,,,,,,,,,,,,,,,,,,,,,,,,,,,,,,,,,,,,,,,,,,,,,,,,,,,356.7373895999044,None,,,,,"[0.44042714146925194, 0.44042714146925194, 0.44042714146925194, 0.44042714146925194]","[1543.8935346944854, 140.33105148252633, 249.67965579743196, 6766.532641578605]",None,"[7.239214312468036, 17.0, 11.626746627741383, 3.0]",True,357.7438389000017,360.0956578999758,360.0956578999758,361.3326303999638,None,1,,2.784751066705212,3.8157484667608514,None,1,None,1,0,,,,,,,,,,,,cbtxie,001,fr,0,0,2022-05-05_16h25.21.942,Cluster,2022.1.1,None,
,,,,2,0,2,0,3,0,3,0,,,both,,,,,,,,,,,,,,,,,,,,,,,,,,,,,,,,,,,,,,,,,,,,,,,,,,,,,,,,,,,,,,,,,,,,,,,,,,,,,,,,,,,,,,,,,,,,,,,,,,,,,,,,,,,,,,,,,,,,361.60878489993047,None,2143.5469250725882,0.0,7.799382669637754e-05,0,"[0.4647422862891812, 0.4647422862891812, 0.4647422862891812, 0.4647422862891812]","[425.3335804754283, 637.2803136596317, 954.8416039104175, 1430.6459324352597]",Perfect_5th,"[13.389643363353557, 12.0, 11.0, 7.067103149845728]",False,362.6326408999739,365.0639963999856,365.0639963999856,366.3002960999729,None,0,,2.901473533245735,3.9350484332535416,None,1,None,1,,,,,,,,,,,,,cbtxie,001,fr,0,0,2022-05-05_16h25.21.942,Cluster,2022.1.1,None,
,,,,2,0,2,0,4,0,4,0,,,time,,,,,,,,,,,,,,,,,,,,,,,,,,,,,,,,,,,,,,,,,,,,,,,,,,,,,,,,,,,,,,,,,,,,,,,,,,,,,,,,,,,,,,,,,,,,,,,,,,,,,,,,,,,,,,,,,,,,366.61503779992927,None,176.7766952966369,13.0,0.0015634862732566773,1,"[0.42197315036464805, 0.42197315036464805, 0.42197315036464805, 0.42197315036464805]","[4048.9898631278684, 506.0983093252506, 486.2342246702934, 1167.665302909969]",None,"[-2.063256987041779, 12.137771400097948, 12.137771400097948, 8.370031608802233]",False,367.63466300000437,369.9370412999997,369.9370412999997,371.17275819997303,['space'],1,[0.33764959999825805],2.6923143666936085,3.7248354667099193,None,1,None,1,,,,,,,,,,,,,cbtxie,001,fr,0,0,2022-05-05_16h25.21.942,Cluster,2022.1.1,None,
,,,,2,0,2,0,5,0,5,0,,,none,,,,,,,,,,,,,,,,,,,,,,,,,,,,,,,,,,,,,,,,,,,,,,,,,,,,,,,,,,,,,,,,,,,,,,,,,,,,,,,,,,,,,,,,,,,,,,,,,,,,,,,,,,,,,,,,,,,,371.4185916999122,None,659.7539553864473,6.0,9.688084955247381e-05,1,"[0.780796137799481, 0.4650800433909261, 0.7473179085404796, 0.6820456043866145]","[5406.853430736074, 177.3684156775341, 261.9827922259192, 799.4710576597403]",None,"[-3.0, 12.937531404266515, 12.0, 12.459334676748085]",False,372.4439632999711,375.4757239999017,375.4757239999017,376.712054100004,['space'],1,[0.3366260000038892],3.6985617332393304,4.718821133254096,None,1,None,1,,,,,,,,,,,,,cbtxie,001,fr,0,0,2022-05-05_16h25.21.942,Cluster,2022.1.1,None,
,,,,2,0,2,0,6,0,6,0,,,time,,,,,,,,,,,,,,,,,,,,,,,,,,,,,,,,,,,,,,,,,,,,,,,,,,,,,,,,,,,,,,,,,,,,,,,,,,,,,,,,,,,,,,,,,,,,,,,,,,,,,,,,,,,,,,,,,,,,377.20566320000216,None,1923.4571596527421,3.0962282850124176,0.0001019153722292762,0,"[0.6986086822150819, 0.6986086822150819, 0.6986086822150819, 0.6986086822150819]","[855.9458476722108, 2947.262282775831, 4811.603006848825, 621.823556206492]",None,"[12.0, 6.0, -3.8162840883782856, 12.0]",False,378.2313103999477,381.3620724999346,381.3620724999346,382.5829722000053,None,0,,3.8171884666662663,4.860830466612242,None,1,None,1,,,,,,,,,,,,,cbtxie,001,fr,0,0,2022-05-05_16h25.21.942,Cluster,2022.1.1,None,
,,,,2,0,2,0,7,0,7,0,,,none,,,,,,,,,,,,,,,,,,,,,,,,,,,,,,,,,,,,,,,,,,,,,,,,,,,,,,,,,,,,,,,,,,,,,,,,,,,,,,,,,,,,,,,,,,,,,,,,,,,,,,,,,,,,,,,,,,,,383.1369067999767,None,341.0725665988702,8.562099795198893,0.0002461477112798274,0,"[0.4799529266443465, 0.5284307281522962, 0.5479170435771835, 0.5296746136392426]","[248.41528472161235, 1389.1385035672922, 547.2963605833498, 702.7555584614031]",None,"[11.626746627741383, 7.067103149845728, 11.824873454476382, 12.572495526117587]",False,384.13541489990894,386.7340119999135,386.7340119999135,387.9556803999003,None,0,,3.1002135667949915,4.117703566793352,None,1,None,1,,,,,,,,,,,,,cbtxie,001,fr,0,0,2022-05-05_16h25.21.942,Cluster,2022.1.1,None,
,,,,2,0,2,0,8,0,8,0,,,none,,,,,,,,,,,,,,,,,,,,,,,,,,,,,,,,,,,,,,,,,,,,,,,,,,,,,,,,,,,,,,,,,,,,,,,,,,,,,,,,,,,,,,,,,,,,,,,,,,,,,,,,,,,,,,,,,,,,388.29819309990853,None,,,,,"[0.6849360660663555, 0.5995579194268083, 0.4498809837829578, 0.45928745134104293]","[6413.289348399831, 486.61054754227655, 6394.239412654398, 4147.637997477244]",None,"[1.0, 12.137771400097948, 1.0, -3.0]",True,389.32181009999476,392.0941517999163,392.0941517999163,393.3318950999528,None,1,,3.2122438666410744,4.2285506665939465,None,1,None,1,0,,,,,,,,,,,,cbtxie,001,fr,0,0,2022-05-05_16h25.21.942,Cluster,2022.1.1,None,
,,,,2,0,2,0,9,0,9,0,,,frequency,,,,,,,,,,,,,,,,,,,,,,,,,,,,,,,,,,,,,,,,,,,,,,,,,,,,,,,,,,,,,,,,,,,,,,,,,,,,,,,,,,,,,,,,,,,,,,,,,,,,,,,,,,,,,,,,,,,,393.59087209997233,None,6350.572618563275,-5.0,7.397091477478324e-05,1,"[0.7196812462081597, 0.6223852879067029, 0.7869181810275085, 0.6499725253988736]","[4000.610060506937, 4490.532963003701, 5040.452827653892, 5657.717005335159]",Tone,"[-2.063256987041779, -3.8006024616724545, -3.8162840883782856, -2.0910989360067767]",False,394.61436439992394,397.7760000999551,397.7760000999551,398.99909609998576,['space'],1,[0.2453329999698326],3.818453466752544,4.847348166746087,None,1,None,1,,,,,,,,,,,,,cbtxie,001,fr,0,0,2022-05-05_16h25.21.942,Cluster,2022.1.1,None,
,,,,2,0,2,0,10,0,10,0,,,none,,,,,,,,,,,,,,,,,,,,,,,,,,,,,,,,,,,,,,,,,,,,,,,,,,,,,,,,,,,,,,,,,,,,,,,,,,,,,,,,,,,,,,,,,,,,,,,,,,,,,,,,,,,,,,,,,,,,399.5042145999614,None,353.5533905932738,2.0,0.0001115563142959358,0,"[0.6753220891630567, 0.6333053415306158, 0.43800321232942724, 0.40308385124457063]","[2938.8855165176165, 525.8688924402485, 439.45156686646334, 613.297151091216]",None,"[7.0, 11.824873454476382, 13.389643363353557, 11.99822464899644]",False,400.5366969999159,403.31630129995756,403.31630129995756,404.53658169996925,None,0,,3.169216533191502,4.211575733264908,None,1,None,1,,,,,,,,,,,,,cbtxie,001,fr,0,0,2022-05-05_16h25.21.942,Cluster,2022.1.1,None,
,,,,2,0,2,0,11,0,11,0,,,both,,,,,,,,,,,,,,,,,,,,,,,,,,,,,,,,,,,,,,,,,,,,,,,,,,,,,,,,,,,,,,,,,,,,,,,,,,,,,,,,,,,,,,,,,,,,,,,,,,,,,,,,,,,,,,,,,,,,404.7853667999152,None,2634.6199908898066,3.0,0.000109513649777608,1,"[0.6953314493140734, 0.6953314493140734, 0.6953314493140734, 0.6953314493140734]","[4182.198545074928, 3725.915322815645, 3319.4131849959067, 2957.260951490994]",Tone,"[-3.0, -0.4626757056290218, 3.0, 6.0]",False,405.7818366999272,408.91181510000024,408.91181510000024,410.14795199991204,['space'],1,[0.31356609996873885],3.798225466744043,4.83236526674591,None,1,None,1,,,,,,,,,,,,,cbtxie,001,fr,0,0,2022-05-05_16h25.21.942,Cluster,2022.1.1,None,
,,,,2,0,2,0,12,0,12,0,,,frequency,,,,,,,,,,,,,,,,,,,,,,,,,,,,,,,,,,,,,,,,,,,,,,,,,,,,,,,,,,,,,,,,,,,,,,,,,,,,,,,,,,,,,,,,,,,,,,,,,,,,,,,,,,,,,,,,,,,,410.66582529991865,None,2000.0,0.0,7.481178280472168e-05,0,"[0.720328105222007, 0.6224241661792731, 0.49105761501829137, 0.518335901072561]","[5039.684199579493, 4000.0000000000005, 3174.8021039363994, 2519.8420997897465]",Major_3rd,"[-3.8162840883782856, -2.063256987041779, 4.0, 9.942223403142224]",False,411.77178369998,414.62083229993004,414.62083229993004,415.8547823999543,None,0,,3.3838703667279333,4.4184088667389005,None,1,None,1,,,,,,,,,,,,,cbtxie,001,fr,0,0,2022-05-05_16h25.21.942,Cluster,2022.1.1,None,
,,,,2,0,2,0,13,0,13,0,,,time,,,,,,,,,,,,,,,,,,,,,,,,,,,,,,,,,,,,,,,,,,,,,,,,,,,,,,,,,,,,,,,,,,,,,,,,,,,,,,,,,,,,,,,,,,,,,,,,,,,,,,,,,,,,,,,,,,,,416.2345164999133,None,435.2752816480623,6.0,0.00014914969050511658,1,"[0.7005331052379153, 0.7005331052379153, 0.7005331052379153, 0.7005331052379153]","[515.3879531154191, 125.55717062716936, 6441.5602427133545, 4513.217926090906]",None,"[12.0, 18.786162976081553, 1.5944249162846393, -3.8006024616724545]",False,417.26971189992037,420.3932285999181,420.3932285999181,421.622270999942,['space'],1,[0.33782820007763803],3.8162610332947224,4.853695033234544,None,1,None,1,,,,,,,,,,,,,cbtxie,001,fr,0,0,2022-05-05_16h25.21.942,Cluster,2022.1.1,None,
,,,,2,0,2,0,14,0,14,0,,,none,,,,,,,,,,,,,,,,,,,,,,,,,,,,,,,,,,,,,,,,,,,,,,,,,,,,,,,,,,,,,,,,,,,,,,,,,,,,,,,,,,,,,,,,,,,,,,,,,,,,,,,,,,,,,,,,,,,,422.1681357999332,None,,,,,"[0.5295708371683241, 0.5411605884062468, 0.5735148458389518, 0.6941224866905542]","[345.52769883292365, 2525.258928726396, 510.0520801596276, 770.3265925769757]",None,"[14.741967372715234, 9.942223403142224, 12.0, 12.654239689947314]",True,423.16774019994773,425.83061359997373,425.83061359997373,427.06389649992343,None,1,,3.3653109667357057,4.381700766738504,None,1,None,1,0,,,,,,,,,,,,cbtxie,001,fr,0,0,2022-05-05_16h25.21.942,Cluster,2022.1.1,None,
,,,,2,0,2,0,15,0,15,0,,,time,,,,,,,,,,,,,,,,,,,,,,,,,,,,,,,,,,,,,,,,,,,,,,,,,,,,,,,,,,,,,,,,,,,,,,,,,,,,,,,,,,,,,,,,,,,,,,,,,,,,,,,,,,,,,,,,,,,,427.5873968999367,None,4704.449831789805,-9.800602461672455,4.284421758569354e-05,0,"[0.7787986246415352, 0.7787986246415352, 0.7787986246415352, 0.7787986246415352]","[2158.371495689602, 1014.7836218563297, 1951.952880491446, 392.97995714493544]",None,"[10.259559986262376, 10.0, 9.785329093629244, 14.065615296582664]",False,428.5869471000042,431.9704580999678,431.9704580999678,433.2048571999185,None,0,,4.152635566657409,5.195170666673221,None,1,None,1,,,,,,,,,,,,,cbtxie,001,fr,0,0,2022-05-05_16h25.21.942,Cluster,2022.1.1,None,
,,,,2,0,2,0,16,0,16,0,,,time,,,,,,,,,,,,,,,,,,,,,,,,,,,,,,,,,,,,,,,,,,,,,,,,,,,,,,,,,,,,,,,,,,,,,,,,,,,,,,,,,,,,,,,,,,,,,,,,,,,,,,,,,,,,,,,,,,,,433.82707799994387,None,1071.7734625362941,8.0,0.00011819561324015676,1,"[0.7913692495777214, 0.7913692495777214, 0.7913692495777214, 0.7913692495777214]","[4232.586257980355, 1189.1274162132884, 242.34879191614698, 169.3330848036315]",None,"[-3.0, 8.0, 11.626746627741383, 14.0]",False,435.93639869999606,439.3463076999178,439.3463076999178,440.5754271999467,['space'],1,[0.2417726001003757],4.200881233322434,5.226829933351837,None,1,None,1,,,,,,,,,,,,,cbtxie,001,fr,0,0,2022-05-05_16h25.21.942,Cluster,2022.1.1,None,
,,,,2,0,2,0,17,0,17,0,,,none,,,,,,,,,,,,,,,,,,,,,,,,,,,,,,,,,,,,,,,,,,,,,,,,,,,,,,,,,,,,,,,,,,,,,,,,,,,,,,,,,,,,,,,,,,,,,,,,,,,,,,,,,,,,,,,,,,,,441.20769479998853,None,193.43145368700584,5.872930038518033,0.000568973556222651,1,"[0.6594491636359061, 0.47723171102686407, 0.5966777011133859, 0.5735304773072806]","[984.1637019123079, 4456.471379907989, 6735.5209809777925, 287.8932153617523]",None,"[10.254190837343113, -3.8006024616724545, 3.0, 13.271798484273098]",False,442.2329351999797,444.98970949999057,444.98970949999057,446.2163385999156,['space'],1,[0.3763745001051575],3.3459997666068375,4.381627866649069,None,1,None,1,,,,,,,,,,,,,cbtxie,001,fr,0,0,2022-05-05_16h25.21.942,Cluster,2022.1.1,None,
,,,,2,0,2,0,18,0,18,0,,,frequency,,,,,,,,,,,,,,,,,,,,,,,,,,,,,,,,,,,,,,,,,,,,,,,,,,,,,,,,,,,,,,,,,,,,,,,,,,,,,,,,,,,,,,,,,,,,,,,,,,,,,,,,,,,,,,,,,,,,446.6669045999879,None,4714.117805742826,-9.800602461672455,4.305946143142942e-05,0,"[0.7652684295907584, 0.7518583796675031, 0.6503298795133559, 0.5641360122141071]","[7483.195563938183, 6666.769335506001, 5939.4162551396175, 5291.418328205779]",Tone,"[6.160113034066281, 2.0, -1.0, -3.2410290068567154]",False,447.65907149994746,450.8420177999651,450.8420177999651,452.0597329000011,None,0,,3.774393366649747,4.790095166652463,None,1,None,1,,,,,,,,,,,,,cbtxie,001,fr,0,0,2022-05-05_16h25.21.942,Cluster,2022.1.1,None,
,,,,2,0,2,0,19,0,19,0,,,time,,,,,,,,,,,,,,,,,,,,,,,,,,,,,,,,,,,,,,,,,,,,,,,,,,,,,,,,,,,,,,,,,,,,,,,,,,,,,,,,,,,,,,,,,,,,,,,,,,,,,,,,,,,,,,,,,,,,452.49751819996163,None,2070.886833726322,4.0,0.00012105913541667763,0,"[0.6154955751965575, 0.6154955751965575, 0.6154955751965575, 0.6154955751965575]","[1303.6992237124075, 459.1180148647031, 200.8081147949046, 186.54353788109367]",None,"[7.208428754134724, 13.0, 11.181050693590539, 12.0]",False,453.49654459999874,456.3606317999074,456.3606317999074,457.59075999993365,None,0,,3.5010562668321654,4.527638466795906,None,1,None,1,,,,,,,,,,,,,cbtxie,001,fr,0,0,2022-05-05_16h25.21.942,Cluster,2022.1.1,None,
,,,,3,0,3,0,0,0,0,0,,,frequency,,,,,,,,,,,,,,,,,,,,,,,,,,,,,,,,,,,,,,,,,,,,,,,,,,,,,,,,,,,,,,,,,,,,,,,,,,,,,,,,,,,,,,,,,,,,,,,,,,,,,,,,,,,,,,,,,,,,460.13107399991713,None,153.8930516681146,6.0,0.0009287753780051238,0,"[0.7344086119883988, 0.43738204027949573, 0.5688001331748601, 0.46170377314964667]","[775.5723809168677, 517.632461920689, 345.4782199919442, 230.5790483964849]",Perfect_5th,"[12.654239689947314, 12.0, 14.741967372715234, 11.09100126744373]",False,461.1405111999484,463.90075419994537,463.90075419994537,465.13754369993694,None,0,,3.2197804333409294,4.249057233333588,None,1,None,1,,,,,,,,,,,,,cbtxie,001,fr,0,0,2022-05-05_16h25.21.942,Cluster,2022.1.1,None,
,,,,3,0,3,0,1,0,1,0,,,both,,,,,,,,,,,,,,,,,,,,,,,,,,,,,,,,,,,,,,,,,,,,,,,,,,,,,,,,,,,,,,,,,,,,,,,,,,,,,,,,,,,,,,,,,,,,,,,,,,,,,,,,,,,,,,,,,,,,465.43961519992445,None,,,,,"[0.5543485455631323, 0.5543485455631323, 0.5543485455631323, 0.5543485455631323]","[6067.002027665009, 5405.084329401596, 4815.382700504317, 4290.018275234461]",Tone,"[-0.44113974452419136, -3.0, -3.8162840883782856, -3.2044923810778823]",True,466.45285529992543,469.1370211999165,469.1370211999165,470.37115259992424,None,1,,3.253955166670494,4.290308266645297,None,1,None,1,0,,,,,,,,,,,,cbtxie,001,fr,0,0,2022-05-05_16h25.21.942,Cluster,2022.1.1,None,
,,,,3,0,3,0,2,0,2,0,,,time,,,,,,,,,,,,,,,,,,,,,,,,,,,,,,,,,,,,,,,,,,,,,,,,,,,,,,,,,,,,,,,,,,,,,,,,,,,,,,,,,,,,,,,,,,,,,,,,,,,,,,,,,,,,,,,,,,,,470.79159009992145,None,8000.0,4.0,0.0002877199686685786,1,"[0.6045276503323873, 0.6045276503323873, 0.6045276503323873, 0.6045276503323873]","[526.7214665976868, 197.48723683657911, 716.4523814896379, 421.97947038794575]",None,"[11.824873454476382, 11.181050693590539, 12.572495526117587, 14.0]",False,471.82150869991165,474.65051669999957,474.65051669999957,475.8800970999291,['space'],1,[0.3849867000244558],3.434249833226204,4.462766933254898,None,1,None,1,,,,,,,,,,,,,cbtxie,001,fr,0,0,2022-05-05_16h25.21.942,Cluster,2022.1.1,None,
,,,,3,0,3,0,3,0,3,0,,,frequency,,,,,,,,,,,,,,,,,,,,,,,,,,,,,,,,,,,,,,,,,,,,,,,,,,,,,,,,,,,,,,,,,,,,,,,,,,,,,,,,,,,,,,,,,,,,,,,,,,,,,,,,,,,,,,,,,,,,476.33054389990866,None,406.8170463138564,8.065615296582664,0.00019287244364444894,0,"[0.7357134764453673, 0.483382061885593, 0.6065302294907786, 0.7286697481857339]","[645.7818072772114, 575.3261843016193, 512.5573601068852, 456.6366950926203]",Tone,"[12.308239549758483, 11.795924888873552, 12.0, 13.0]",False,477.34120859997347,480.1889372000005,480.1889372000005,481.4255664999364,None,0,,3.5848704666132107,4.615726766642183,None,1,None,1,,,,,,,,,,,,,cbtxie,001,fr,0,0,2022-05-05_16h25.21.942,Cluster,2022.1.1,None,
,,,,3,0,3,0,4,0,4,0,,,time,,,,,,,,,,,,,,,,,,,,,,,,,,,,,,,,,,,,,,,,,,,,,,,,,,,,,,,,,,,,,,,,,,,,,,,,,,,,,,,,,,,,,,,,,,,,,,,,,,,,,,,,,,,,,,,,,,,,482.00409780000336,None,406.15018119955835,8.065615296582664,0.00019295868430114338,1,"[0.73380260868394, 0.73380260868394, 0.73380260868394, 0.73380260868394]","[2202.0154719502166, 130.38597223642674, 4566.15989156236, 824.3839993913703]",None,"[10.259559986262376, 18.06602173245764, -3.8006024616724545, 12.459334676748085]",False,483.02526269992813,486.26145699992776,486.26145699992776,487.4960342999548,['space'],1,[0.27272470004390925],3.9750883667729795,5.007200866704807,None,1,None,1,,,,,,,,,,,,,cbtxie,001,fr,0,0,2022-05-05_16h25.21.942,Cluster,2022.1.1,None,
,,,,3,0,3,0,5,0,5,0,,,none,,,,,,,,,,,,,,,,,,,,,,,,,,,,,,,,,,,,,,,,,,,,,,,,,,,,,,,,,,,,,,,,,,,,,,,,,,,,,,,,,,,,,,,,,,,,,,,,,,,,,,,,,,,,,,,,,,,,488.0788806999335,None,,,,,"[0.7466932690994919, 0.7335182310762063, 0.7919968778345512, 0.5868473553307281]","[204.49306580563763, 3669.428666425001, 797.6747265412482, 376.53739099551575]",None,"[11.181050693590539, 0.0, 12.459334676748085, 14.558264051257781]",True,489.0824330999749,492.39845699991565,492.39845699991565,493.6288969999878,None,1,,3.886021066689864,4.912144766654819,None,1,None,1,0,,,,,,,,,,,,cbtxie,001,fr,0,0,2022-05-05_16h25.21.942,Cluster,2022.1.1,None,
,,,,3,0,3,0,6,0,6,0,,,both,,,,,,,,,,,,,,,,,,,,,,,,,,,,,,,,,,,,,,,,,,,,,,,,,,,,,,,,,,,,,,,,,,,,,,,,,,,,,,,,,,,,,,,,,,,,,,,,,,,,,,,,,,,,,,,,,,,,494.03412739990745,None,4594.793419988137,-12.0,3.136478812909819e-05,0,"[0.7931942889406274, 0.7931942889406274, 0.7931942889406274, 0.7931942889406274]","[7293.779908465733, 6498.019170849882, 5789.07694976151, 5157.481233758314]",Tone,"[5.0, 1.5944249162846393, -2.0, -3.2410290068567154]",False,495.07055529998615,498.47388269996736,498.47388269996736,499.7067864999408,None,0,,4.19280793343205,5.223202133434825,None,1,None,1,,,,,,,,,,,,,cbtxie,001,fr,0,0,2022-05-05_16h25.21.942,Cluster,2022.1.1,None,
,,,,3,0,3,0,7,0,7,0,,,none,,,,,,,,,,,,,,,,,,,,,,,,,,,,,,,,,,,,,,,,,,,,,,,,,,,,,,,,,,,,,,,,,,,,,,,,,,,,,,,,,,,,,,,,,,,,,,,,,,,,,,,,,,,,,,,,,,,,500.347025499912,None,4924.577653379667,-8.0,5.874332325816365e-05,1,"[0.6918575054096762, 0.5233277121407962, 0.5967122619257187, 0.5961459835632313]","[6166.595316808765, 250.63041915412902, 1435.5311493959073, 539.2062907716493]",None,"[0.0, 11.626746627741383, 7.067103149845728, 11.824873454476382]",False,501.38253269996494,504.2260152999079,504.2260152999079,505.45344589999877,['space'],1,[0.20087539998348802],3.4405645332299173,4.459180933306925,None,1,None,1,,,,,,,,,,,,,cbtxie,001,fr,0,0,2022-05-05_16h25.21.942,Cluster,2022.1.1,None,
,,,,3,0,3,0,8,0,8,0,,,both,,,,,,,,,,,,,,,,,,,,,,,,,,,,,,,,,,,,,,,,,,,,,,,,,,,,,,,,,,,,,,,,,,,,,,,,,,,,,,,,,,,,,,,,,,,,,,,,,,,,,,,,,,,,,,,,,,,,505.8983453999972,None,185.98254348272613,6.0,0.000631487522277091,0,"[0.7196112680416288, 0.7196112680416288, 0.7196112680416288, 0.7196112680416288]","[937.2932857875008, 625.56821645757, 417.5166934148156, 278.6589610756937]",Perfect_5th,"[11.190438755645431, 12.0, 14.0, 13.0]",False,506.9089605999179,510.0842270000139,510.0842270000139,511.32775639998727,None,0,,3.91156126675196,4.945858766790479,None,1,None,1,,,,,,,,,,,,,cbtxie,001,fr,0,0,2022-05-05_16h25.21.942,Cluster,2022.1.1,None,
,,,,3,0,3,0,9,0,9,0,,,frequency,,,,,,,,,,,,,,,,,,,,,,,,,,,,,,,,,,,,,,,,,,,,,,,,,,,,,,,,,,,,,,,,,,,,,,,,,,,,,,,,,,,,,,,,,,,,,,,,,,,,,,,,,,,,,,,,,,,,511.9194573999848,None,329.87697769322364,1.0,0.00010632127908437066,0,"[0.5910313857140939, 0.6004074032435907, 0.7734378409928714, 0.780128571721362]","[523.6470614103135, 466.51649576840384, 415.618948071394, 370.27438807164117]",Tone,"[12.0, 12.691372772585694, 14.0, 14.558264051257781]",False,512.9307899000123,515.9249931999948,515.9249931999948,517.166262099985,None,0,,3.764308633399196,4.796953933429904,None,1,None,1,,,,,,,,,,,,,cbtxie,001,fr,0,0,2022-05-05_16h25.21.942,Cluster,2022.1.1,None,
,,,,3,0,3,0,10,0,10,0,,,none,,,,,,,,,,,,,,,,,,,,,,,,,,,,,,,,,,,,,,,,,,,,,,,,,,,,,,,,,,,,,,,,,,,,,,,,,,,,,,,,,,,,,,,,,,,,,,,,,,,,,,,,,,,,,,,,,,,,517.7739485999336,None,4978.336028615885,-9.816284088378286,4.885362795006995e-05,0,"[0.5594477823225359, 0.5321621729608824, 0.40775260686765424, 0.6552927137940436]","[203.58567880582865, 312.101462596679, 1482.0690435781758, 1897.463015602974]",None,"[11.181050693590539, 14.038727507742419, 7.239214312468036, 9.096228285012417]",False,518.7882523000007,521.3329851999879,521.3329851999879,522.5696969999699,None,0,,3.176123366691172,4.215277066687122,None,1,None,1,,,,,,,,,,,,,cbtxie,001,fr,0,0,2022-05-05_16h25.21.942,Cluster,2022.1.1,None,
,,,,3,0,3,0,11,0,11,0,,,both,,,,,,,,,,,,,,,,,,,,,,,,,,,,,,,,,,,,,,,,,,,,,,,,,,,,,,,,,,,,,,,,,,,,,,,,,,,,,,,,,,,,,,,,,,,,,,,,,,,,,,,,,,,,,,,,,,,,523.0622466999339,None,,,,,"[0.7220937435913259, 0.7220937435913259, 0.7220937435913259, 0.7220937435913259]","[335.62454034578263, 502.86862397356947, 753.451618038838, 1128.9018913917773]",Perfect_5th,"[14.562099795198893, 12.137771400097948, 12.654239689947314, 8.370031608802233]",True,524.060475199949,527.2730188999558,527.2730188999558,528.5045740999049,None,1,,3.9099532667314634,4.937867866712622,None,1,None,1,0,,,,,,,,,,,,cbtxie,001,fr,0,0,2022-05-05_16h25.21.942,Cluster,2022.1.1,None,
,,,,3,0,3,0,12,0,12,0,,,both,,,,,,,,,,,,,,,,,,,,,,,,,,,,,,,,,,,,,,,,,,,,,,,,,,,,,,,,,,,,,,,,,,,,,,,,,,,,,,,,,,,,,,,,,,,,,,,,,,,,,,,,,,,,,,,,,,,,529.0446896000067,None,535.8867312681471,0.0,6.584635451124388e-05,0,"[0.7671869026838961, 0.7671869026838961, 0.7671869026838961, 0.7671869026838961]","[337.5874865420477, 378.9291416275998, 425.33358047542816, 477.4208019552087]",Tone,"[14.562099795198893, 14.558264051257781, 13.389643363353557, 12.691372772585694]",False,530.0803515999578,533.4137030999409,533.4137030999409,534.6473721999209,None,0,,4.09632063342724,5.1186105334199965,None,1,None,1,,,,,,,,,,,,,cbtxie,001,fr,0,0,2022-05-05_16h25.21.942,Cluster,2022.1.1,None,
,,,,3,0,3,0,13,0,13,0,,,none,,,,,,,,,,,,,,,,,,,,,,,,,,,,,,,,,,,,,,,,,,,,,,,,,,,,,,,,,,,,,,,,,,,,,,,,,,,,,,,,,,,,,,,,,,,,,,,,,,,,,,,,,,,,,,,,,,,,535.2523929999443,None,1231.1444133449168,6.0,0.0001071865882769908,1,"[0.5571056808517326, 0.47371260878895016, 0.6431886899973559, 0.4020964424786548]","[197.46470740821522, 4256.9307653367605, 275.2687445110164, 368.7136939757974]",None,"[11.181050693590539, -3.0, 13.0, 14.558264051257781]",False,536.360489099985,539.0442742999876,539.0442742999876,540.2827423999552,['space'],1,[0.3473583000013605],3.0830651000142097,4.109704399947077,None,1,None,1,,,,,,,,,,,,,cbtxie,001,fr,0,0,2022-05-05_16h25.21.942,Cluster,2022.1.1,None,
,,,,3,0,3,0,14,0,14,0,,,time,,,,,,,,,,,,,,,,,,,,,,,,,,,,,,,,,,,,,,,,,,,,,,,,,,,,,,,,,,,,,,,,,,,,,,,,,,,,,,,,,,,,,,,,,,,,,,,,,,,,,,,,,,,,,,,,,,,,540.5245636999607,None,125.0,13.0,0.003228271145173279,1,"[0.6753677285609652, 0.6753677285609652, 0.6753677285609652, 0.6753677285609652]","[2998.4654308392946, 151.89266800010452, 2521.245837350007, 135.50876635426545]",None,"[6.0, 16.0, 9.942223403142224, 18.0]",False,541.5560558999423,544.6123602999141,544.6123602999141,545.8499249999877,['space'],1,[0.3402038000058383],3.7223855333868414,4.752548033371568,None,1,None,1,,,,,,,,,,,,,cbtxie,001,fr,0,0,2022-05-05_16h25.21.942,Cluster,2022.1.1,None,
,,,,3,0,3,0,15,0,15,0,,,frequency,,,,,,,,,,,,,,,,,,,,,,,,,,,,,,,,,,,,,,,,,,,,,,,,,,,,,,,,,,,,,,,,,,,,,,,,,,,,,,,,,,,,,,,,,,,,,,,,,,,,,,,,,,,,,,,,,,,,546.3477806999581,None,1045.1564039753014,3.272298795104259,6.696029107406933e-05,1,"[0.4798084419978528, 0.5212758233889366, 0.7147439678624219, 0.7352288805111371]","[5267.2582152036475, 3515.4730939291762, 2346.2967960195506, 1565.9652365191778]",Perfect_5th,"[-3.2410290068567154, 1.0, 10.35069724881328, 7.239214312468036]",False,547.3688027999597,550.1211541999364,550.1211541999364,551.3539089999394,['space'],1,[0.3557548000244424],3.4774683667346835,4.49937196681276,None,1,None,1,,,,,,,,,,,,,cbtxie,001,fr,0,0,2022-05-05_16h25.21.942,Cluster,2022.1.1,None,
,,,,3,0,3,0,16,0,16,0,,,none,,,,,,,,,,,,,,,,,,,,,,,,,,,,,,,,,,,,,,,,,,,,,,,,,,,,,,,,,,,,,,,,,,,,,,,,,,,,,,,,,,,,,,,,,,,,,,,,,,,,,,,,,,,,,,,,,,,,551.9182066000067,None,1097.3055408854723,3.0,6.797477380933266e-05,1,"[0.6814383395267889, 0.5123643437083396, 0.7611863610387714, 0.40049979080095927]","[797.545109640806, 321.0172515625703, 453.978744309001, 320.0281879837139]",None,"[12.459334676748085, 14.562099795198893, 13.0, 14.562099795198893]",False,552.9413351999829,555.9375539999455,555.9375539999455,557.1754389000125,['space'],1,[0.28505990002304316],3.40073646674864,4.42541776667349,None,1,None,1,,,,,,,,,,,,,cbtxie,001,fr,0,0,2022-05-05_16h25.21.942,Cluster,2022.1.1,None,
,,,,3,0,3,0,17,0,17,0,,,time,,,,,,,,,,,,,,,,,,,,,,,,,,,,,,,,,,,,,,,,,,,,,,,,,,,,,,,,,,,,,,,,,,,,,,,,,,,,,,,,,,,,,,,,,,,,,,,,,,,,,,,,,,,,,,,,,,,,557.4285524999723,None,,,,,"[0.44577539793780985, 0.44577539793780985, 0.44577539793780985, 0.44577539793780985]","[503.8738642808273, 7270.557759838077, 133.7946144682206, 1292.8917371652371]",None,"[12.137771400097948, 5.0, 18.06602173245764, 7.208428754134724]",True,558.427313299966,560.8139492999762,560.8139492999762,562.0473406999372,None,1,,2.8278538667364046,3.84865776670631,None,1,None,1,0,,,,,,,,,,,,cbtxie,001,fr,0,0,2022-05-05_16h25.21.942,Cluster,2022.1.1,None,
,,,,3,0,3,0,18,0,18,0,,,both,,,,,,,,,,,,,,,,,,,,,,,,,,,,,,,,,,,,,,,,,,,,,,,,,,,,,,,,,,,,,,,,,,,,,,,,,,,,,,,,,,,,,,,,,,,,,,,,,,,,,,,,,,,,,,,,,,,,562.3206279999577,None,2956.1859104254277,0.0,5.7546649612504096e-05,1,"[0.5716479968570689, 0.5716479968570689, 0.5716479968570689, 0.5716479968570689]","[1862.2804279738182, 2090.3391037099477, 2346.3263120114466, 2633.6622381825455]",Tone,"[9.096228285012417, 10.0, 10.35069724881328, 9.0]",False,563.3334854999557,566.0690284000011,566.0690284000011,567.289262300008,['space'],1,[0.2279297000495717],3.3088878666749224,4.354499066714197,None,1,None,1,,,,,,,,,,,,,cbtxie,001,fr,0,0,2022-05-05_16h25.21.942,Cluster,2022.1.1,None,
,,,,3,0,3,0,19,0,19,0,,,time,,,,,,,,,,,,,,,,,,,,,,,,,,,,,,,,,,,,,,,,,,,,,,,,,,,,,,,,,,,,,,,,,,,,,,,,,,,,,,,,,,,,,,,,,,,,,,,,,,,,,,,,,,,,,,,,,,,,567.7463935000123,None,233.25402276952093,5.09100126744373,0.00035992506111881057,0,"[0.6649338232058042, 0.6649338232058042, 0.6649338232058042, 0.6649338232058042]","[4441.105151830716, 1511.6431737593648, 178.06172638467737, 3399.066236460539]",None,"[-3.8006024616724545, 7.239214312468036, 12.937531404266515, 2.0]",False,568.7637633999111,571.7915767999366,571.7915767999366,573.0276553999865,None,0,,3.7036245666677132,4.724968766677193,None,1,None,1,,,,,,,,,,,,,cbtxie,001,fr,0,0,2022-05-05_16h25.21.942,Cluster,2022.1.1,None,
,,,,4,0,4,0,0,0,0,0,,,frequency,,,,,,,,,,,,,,,,,,,,,,,,,,,,,,,,,,,,,,,,,,,,,,,,,,,,,,,,,,,,,,,,,,,,,,,,,,,,,,,,,,,,,,,,,,,,,,,,,,,,,,,,,,,,,,,,,,,,575.4174827999668,None,1515.7165665103996,0.0,4.963027899072243e-05,1,"[0.7708831009360136, 0.7005515994599666, 0.4731431513786657, 0.6779888225273643]","[3819.3664156416708, 3031.4331330207997, 2406.050072164236, 1909.6832078208352]",Major_3rd,"[-1.0, 5.666273056370914, 10.0, 9.096228285012417]",False,576.4290071999421,579.3893880000105,579.3893880000105,580.6164519999875,['space'],1,[0.036809799959883094],3.6378167333314195,4.681321533280425,None,1,None,1,,,,,,,,,,,,,cbtxie,001,fr,0,0,2022-05-05_16h25.21.942,Cluster,2022.1.1,None,
,,,,4,0,4,0,1,0,1,0,,,time,,,,,,,,,,,,,,,,,,,,,,,,,,,,,,,,,,,,,,,,,,,,,,,,,,,,,,,,,,,,,,,,,,,,,,,,,,,,,,,,,,,,,,,,,,,,,,,,,,,,,,,,,,,,,,,,,,,,581.1518811999122,None,,,,,"[0.4508797084818875, 0.4508797084818875, 0.4508797084818875, 0.4508797084818875]","[2749.821900465199, 538.8486612196054, 4244.526939829718, 306.90722343683814]",None,"[8.0, 11.824873454476382, -3.0, 14.0]",True,582.1533107999712,584.523632699973,584.523632699973,585.7567747000139,None,1,,2.8454896666808054,3.8774395666550845,None,1,None,1,0,,,,,,,,,,,,cbtxie,001,fr,0,0,2022-05-05_16h25.21.942,Cluster,2022.1.1,None,
,,,,4,0,4,0,2,0,2,0,,,frequency,,,,,,,,,,,,,,,,,,,,,,,,,,,,,,,,,,,,,,,,,,,,,,,,,,,,,,,,,,,,,,,,,,,,,,,,,,,,,,,,,,,,,,,,,,,,,,,,,,,,,,,,,,,,,,,,,,,,586.0754186999984,None,568.2193496732616,5.795924888873552,0.00011849972772132265,1,"[0.7060113099047242, 0.5742259806439928, 0.5853718811232446, 0.4853328913731903]","[901.9919934200218, 803.5835107107467, 715.9115196109178, 637.8046551232691]",Tone,"[11.190438755645431, 12.459334676748085, 12.572495526117587, 12.308239549758483]",False,587.0930851999437,589.9886193999555,589.9886193999555,591.2193011000054,['space'],1,[0.33194199996069074],3.396221866714768,4.424738066620193,None,1,None,1,,,,,,,,,,,,,cbtxie,001,fr,0,0,2022-05-05_16h25.21.942,Cluster,2022.1.1,None,
,,,,4,0,4,0,3,0,3,0,,,time,,,,,,,,,,,,,,,,,,,,,,,,,,,,,,,,,,,,,,,,,,,,,,,,,,,,,,,,,,,,,,,,,,,,,,,,,,,,,,,,,,,,,,,,,,,,,,,,,,,,,,,,,,,,,,,,,,,,591.5680475999834,None,535.8867312681471,0.0,6.584635451124388e-05,0,"[0.44565669191088614, 0.44565669191088614, 0.44565669191088614, 0.44565669191088614]","[151.66827599479032, 4040.7397463041634, 129.80528462390885, 818.1652928468513]",None,"[16.0, -2.063256987041779, 18.06602173245764, 12.459334676748085]",False,592.6153595999349,594.9917795999208,594.9917795999208,596.2205254998989,None,0,,2.8020504333544523,3.838005533325486,None,1,None,1,,,,,,,,,,,,,cbtxie,001,fr,0,0,2022-05-05_16h25.21.942,Cluster,2022.1.1,None,
,,,,4,0,4,0,4,0,4,0,,,both,,,,,,,,,,,,,,,,,,,,,,,,,,,,,,,,,,,,,,,,,,,,,,,,,,,,,,,,,,,,,,,,,,,,,,,,,,,,,,,,,,,,,,,,,,,,,,,,,,,,,,,,,,,,,,,,,,,,596.5049410999054,None,1000.0,8.0,0.00011065473548028189,1,"[0.7301067416194874, 0.7301067416194874, 0.7301067416194874, 0.7301067416194874]","[2519.8420997897465, 2000.0000000000002, 1587.4010519681997, 1259.9210498948732]",Major_3rd,"[9.942223403142224, 9.785329093629244, 7.6869849008816455, 7.65358028324402]",False,597.5279580999631,600.742395099951,600.742395099951,601.9556180000072,['space'],1,[0.24556479998864233],3.956755433231592,4.987907833303325,None,1,None,1,,,,,,,,,,,,,cbtxie,001,fr,0,0,2022-05-05_16h25.21.942,Cluster,2022.1.1,None,
,,,,4,0,4,0,5,0,5,0,,,both,,,,,,,,,,,,,,,,,,,,,,,,,,,,,,,,,,,,,,,,,,,,,,,,,,,,,,,,,,,,,,,,,,,,,,,,,,,,,,,,,,,,,,,,,,,,,,,,,,,,,,,,,,,,,,,,,,,,602.5689579999307,None,,,,,"[0.4777866514988311, 0.4777866514988311, 0.4777866514988311, 0.4777866514988311]","[403.84975952914465, 320.5357665568343, 254.40940651287596, 201.9248797645723]",Major_3rd,"[14.065615296582664, 14.562099795198893, 12.0, 11.181050693590539]",True,603.583664799924,606.0471198000014,606.0471198000014,607.2697274999227,None,1,,2.9550144667737186,3.9734554666792974,None,1,None,1,0,,,,,,,,,,,,cbtxie,001,fr,0,0,2022-05-05_16h25.21.942,Cluster,2022.1.1,None,
,,,,4,0,4,0,6,0,6,0,,,both,,,,,,,,,,,,,,,,,,,,,,,,,,,,,,,,,,,,,,,,,,,,,,,,,,,,,,,,,,,,,,,,,,,,,,,,,,,,,,,,,,,,,,,,,,,,,,,,,,,,,,,,,,,,,,,,,,,,607.5955769999418,None,951.21493685826,5.0,7.587185965491483e-05,1,"[0.7967286503109035, 0.7967286503109035, 0.7967286503109035, 0.7967286503109035]","[188.7449489270833, 282.79789270217674, 423.71808396148384, 634.8598038001192]",Perfect_5th,"[11.872930038518033, 13.0, 13.389643363353557, 12.0]",False,608.5942104000133,612.0155654000118,612.0155654000118,613.2268137999345,['space'],1,[0.2852935999399051],4.21364656672813,5.241621466702782,None,1,None,1,,,,,,,,,,,,,cbtxie,001,fr,0,0,2022-05-05_16h25.21.942,Cluster,2022.1.1,None,
,,,,4,0,4,0,7,0,7,0,,,frequency,,,,,,,,,,,,,,,,,,,,,,,,,,,,,,,,,,,,,,,,,,,,,,,,,,,,,,,,,,,,,,,,,,,,,,,,,,,,,,,,,,,,,,,,,,,,,,,,,,,,,,,,,,,,,,,,,,,,613.8851260999218,None,378.9291416275994,5.0,0.00014586258125461746,1,"[0.593175416056065, 0.5126084558448903, 0.5485567511336814, 0.4312960873877734]","[601.5125180410581, 535.8867312681464, 477.4208019552081, 425.3335804754277]",Tone,"[11.99822464899644, 11.824873454476382, 12.691372772585694, 13.389643363353557]",False,614.9119084000122,617.6157349999994,617.6157349999994,618.8509143999545,['space'],1,[0.38268230005633086],3.0964734667213634,4.139653466641903,None,1,None,1,,,,,,,,,,,,,cbtxie,001,fr,0,0,2022-05-05_16h25.21.942,Cluster,2022.1.1,None,
,,,,4,0,4,0,8,0,8,0,,,time,,,,,,,,,,,,,,,,,,,,,,,,,,,,,,,,,,,,,,,,,,,,,,,,,,,,,,,,,,,,,,,,,,,,,,,,,,,,,,,,,,,,,,,,,,,,,,,,,,,,,,,,,,,,,,,,,,,,619.1077060999814,None,917.4668831774406,5.190438755645431,7.58102217785347e-05,1,"[0.7747371674438379, 0.7747371674438379, 0.7747371674438379, 0.7747371674438379]","[1971.8085244524304, 2434.77382185554, 165.7277831047226, 1365.2486952081147]",None,"[9.785329093629244, 10.0, 14.253100732853312, 7.208428754134724]",False,620.1127374999924,623.4570691999979,623.4570691999979,624.6911368999863,['space'],1,[0.37005070003215224],4.119105366640724,5.153880266705528,None,1,None,1,,,,,,,,,,,,,cbtxie,001,fr,0,0,2022-05-05_16h25.21.942,Cluster,2022.1.1,None,
,,,,4,0,4,0,9,0,9,0,,,none,,,,,,,,,,,,,,,,,,,,,,,,,,,,,,,,,,,,,,,,,,,,,,,,,,,,,,,,,,,,,,,,,,,,,,,,,,,,,,,,,,,,,,,,,,,,,,,,,,,,,,,,,,,,,,,,,,,,625.3131627999246,None,378.9291416275994,4.0,0.00013000016238178756,0,"[0.5838173979015618, 0.6772367168737511, 0.7376138702968471, 0.4953223242916638]","[2005.7624906107276, 3755.7665447334102, 165.12205193710037, 949.3696541548678]",None,"[9.785329093629244, -0.4626757056290218, 14.253100732853312, 11.0]",False,626.3289789999835,629.3616260999115,629.3616260999115,630.5961589999497,None,0,,3.5229584666667506,4.557992166606709,None,1,None,1,,,,,,,,,,,,,cbtxie,001,fr,0,0,2022-05-05_16h25.21.942,Cluster,2022.1.1,None,
,,,,4,0,4,0,10,0,10,0,,,none,,,,,,,,,,,,,,,,,,,,,,,,,,,,,,,,,,,,,,,,,,,,,,,,,,,,,,,,,,,,,,,,,,,,,,,,,,,,,,,,,,,,,,,,,,,,,,,,,,,,,,,,,,,,,,,,,,,,630.9460575999692,None,944.6902829955629,5.0,7.55420907078274e-05,1,"[0.5054116525091447, 0.7473974691850818, 0.46278730243743516, 0.593383240616851]","[280.5515439157311, 3794.772209746166, 990.4186756699686, 2543.6188738327414]",None,"[13.0, -1.0, 10.254190837343113, 9.942223403142224]",False,631.9517198000103,634.6836915999884,634.6836915999884,635.9147304999642,['space'],1,[0.4189512999728322],3.3297798667335883,4.346326966769993,None,1,None,1,,,,,,,,,,,,,cbtxie,001,fr,0,0,2022-05-05_16h25.21.942,Cluster,2022.1.1,None,
,,,,4,0,4,0,11,0,11,0,,,time,,,,,,,,,,,,,,,,,,,,,,,,,,,,,,,,,,,,,,,,,,,,,,,,,,,,,,,,,,,,,,,,,,,,,,,,,,,,,,,,,,,,,,,,,,,,,,,,,,,,,,,,,,,,,,,,,,,,636.3464752999134,None,,,,,"[0.7260591510130178, 0.7260591510130178, 0.7260591510130178, 0.7260591510130178]","[3283.397288181173, 1544.1493484728592, 319.3420913803716, 2858.12462770568]",None,"[3.0, 7.239214312468036, 14.562099795198893, 7.0]",True,637.3682479999261,640.5745643000118,640.5745643000118,641.7917545000091,None,1,,3.9456088667502627,4.971100166672841,None,1,None,1,0,,,,,,,,,,,,cbtxie,001,fr,0,0,2022-05-05_16h25.21.942,Cluster,2022.1.1,None,
,,,,4,0,4,0,12,0,12,0,,,frequency,,,,,,,,,,,,,,,,,,,,,,,,,,,,,,,,,,,,,,,,,,,,,,,,,,,,,,,,,,,,,,,,,,,,,,,,,,,,,,,,,,,,,,,,,,,,,,,,,,,,,,,,,,,,,,,,,,,,642.3878040999407,None,171.6825563150778,8.0,0.0009258153184841467,1,"[0.5144146260849702, 0.6820105948831536, 0.7181100131489431, 0.5031914046268741]","[432.61293320225707, 343.36511263015564, 272.52907049914415, 216.3064666011285]",Major_3rd,"[13.389643363353557, 14.741967372715234, 12.409733461880743, 10.916650309560254]",False,643.3950152999023,646.3464919999242,646.3464919999242,647.5641375000123,['space'],1,[0.33964999997988343],3.45447596674785,4.483467966783792,None,1,None,1,,,,,,,,,,,,,cbtxie,001,fr,0,0,2022-05-05_16h25.21.942,Cluster,2022.1.1,None,
,,,,4,0,4,0,13,0,13,0,,,time,,,,,,,,,,,,,,,,,,,,,,,,,,,,,,,,,,,,,,,,,,,,,,,,,,,,,,,,,,,,,,,,,,,,,,,,,,,,,,,,,,,,,,,,,,,,,,,,,,,,,,,,,,,,,,,,,,,,647.9361009999411,None,3031.4331330207992,-5.0,3.250253881325064e-05,0,"[0.704720015188842, 0.704720015188842, 0.704720015188842, 0.704720015188842]","[201.6928773752523, 139.22480601048827, 430.0710756139602, 295.17899910183337]",None,"[11.181050693590539, 17.0, 13.389643363353557, 13.271798484273098]",False,648.9470377999824,652.0856089999434,652.0856089999434,653.3203748000087,None,0,,3.825234166579321,4.857985066599213,None,1,None,1,,,,,,,,,,,,,cbtxie,001,fr,0,0,2022-05-05_16h25.21.942,Cluster,2022.1.1,None,
,,,,4,0,4,0,14,0,14,0,,,time,,,,,,,,,,,,,,,,,,,,,,,,,,,,,,,,,,,,,,,,,,,,,,,,,,,,,,,,,,,,,,,,,,,,,,,,,,,,,,,,,,,,,,,,,,,,,,,,,,,,,,,,,,,,,,,,,,,,653.8683017999865,None,724.7606013055708,6.572495526117587,9.13323477788832e-05,1,"[0.40772266374974536, 0.40772266374974536, 0.40772266374974536, 0.40772266374974536]","[5928.352841383035, 241.40483799301555, 7195.662117399068, 5833.500228205429]",None,"[-1.0, 11.09100126744373, 5.0, -1.0]",False,654.8726923000067,657.122847499908,657.122847499908,658.3619266999885,['space'],1,[0.3848415999673307],2.6509626667248085,3.672534366720356,None,1,None,1,,,,,,,,,,,,,cbtxie,001,fr,0,0,2022-05-05_16h25.21.942,Cluster,2022.1.1,None,
,,,,4,0,4,0,15,0,15,0,,,time,,,,,,,,,,,,,,,,,,,,,,,,,,,,,,,,,,,,,,,,,,,,,,,,,,,,,,,,,,,,,,,,,,,,,,,,,,,,,,,,,,,,,,,,,,,,,,,,,,,,,,,,,,,,,,,,,,,,658.5924591999501,None,,,,,"[0.4386993335879856, 0.4386993335879856, 0.4386993335879856, 0.4386993335879856]","[1326.0685671746671, 7317.665569302196, 429.97992156892246, 363.97755931879385]",None,"[7.208428754134724, 6.0, 13.389643363353557, 14.741967372715234]",True,659.6104382999474,661.965652899933,661.965652899933,663.1909030999523,None,1,,2.7908853667322546,3.818562966771424,None,1,None,1,0,,,,,,,,,,,,cbtxie,001,fr,0,0,2022-05-05_16h25.21.942,Cluster,2022.1.1,None,
,,,,4,0,4,0,16,0,16,0,,,both,,,,,,,,,,,,,,,,,,,,,,,,,,,,,,,,,,,,,,,,,,,,,,,,,,,,,,,,,,,,,,,,,,,,,,,,,,,,,,,,,,,,,,,,,,,,,,,,,,,,,,,,,,,,,,,,,,,,663.4829212999903,None,1741.101126592249,5.0,0.00011224801014638708,0,"[0.5722332855252387, 0.5722332855252387, 0.5722332855252387, 0.5722332855252387]","[4387.299918778506, 3482.2022531844987, 2763.825759935554, 2193.649959389253]",Major_3rd,"[-3.2044923810778823, 1.4742866494815487, 8.0, 10.259559986262376]",False,664.5803463999182,667.334841899923,667.334841899923,668.5728088999167,None,0,,3.3267396999290213,4.35695659997873,None,1,None,1,,,,,,,,,,,,,cbtxie,001,fr,0,0,2022-05-05_16h25.21.942,Cluster,2022.1.1,None,
,,,,4,0,4,0,17,0,17,0,,,both,,,,,,,,,,,,,,,,,,,,,,,,,,,,,,,,,,,,,,,,,,,,,,,,,,,,,,,,,,,,,,,,,,,,,,,,,,,,,,,,,,,,,,,,,,,,,,,,,,,,,,,,,,,,,,,,,,,,668.984880700009,None,3598.143566178654,-5.0,4.323615916711925e-05,1,"[0.5856485285705743, 0.5856485285705743, 0.5856485285705743, 0.5856485285705743]","[713.9621102605756, 1069.73448242523, 1602.7907453967362, 2401.472716580381]",Perfect_5th,"[12.572495526117587, 9.272298795104259, 7.6869849008816455, 10.0]",False,669.9945595999015,672.7747078000102,672.7747078000102,674.0071411000099,['space'],1,[0.2598507999209687],3.386571566690691,4.418430666672066,None,1,None,1,,,,,,,,,,,,,cbtxie,001,fr,0,0,2022-05-05_16h25.21.942,Cluster,2022.1.1,None,
,,,,4,0,4,0,18,0,18,0,,,both,,,,,,,,,,,,,,,,,,,,,,,,,,,,,,,,,,,,,,,,,,,,,,,,,,,,,,,,,,,,,,,,,,,,,,,,,,,,,,,,,,,,,,,,,,,,,,,,,,,,,,,,,,,,,,,,,,,,674.4623060999438,None,8000.0,1.0,0.0002036901389020564,0,"[0.7372819000962529, 0.7372819000962529, 0.7372819000962529, 0.7372819000962529]","[5039.684199579492, 5656.8542494923795, 6349.604207872798, 7127.189745122714]",Tone,"[-3.8162840883782856, -2.0910989360067767, 1.0, 5.0]",False,676.9244371999521,680.1815143999411,680.1815143999411,681.4162821999053,None,0,,3.9864928665338084,5.0161038666265085,None,1,None,1,,,,,,,,,,,,,cbtxie,001,fr,0,0,2022-05-05_16h25.21.942,Cluster,2022.1.1,None,
,,,,4,0,4,0,19,0,19,0,,,both,,,,,,,,,,,,,,,,,,,,,,,,,,,,,,,,,,,,,,,,,,,,,,,,,,,,,,,,,,,,,,,,,,,,,,,,,,,,,,,,,,,,,,,,,,,,,,,,,,,,,,,,,,,,,,,,,,,,681.9976025999058,None,4465.506818134189,-9.800602461672455,3.752448736911765e-05,0,"[0.6339473347185446, 0.6339473347185446, 0.6339473347185446, 0.6339473347185446]","[2813.093019308171, 3157.590152537448, 3544.2751103386895, 3978.3143001226945]",Tone,"[7.529142106080897, 4.0, 1.0, -2.0]",False,683.0031835999107,685.9206126999343,685.9206126999343,687.1561693999683,None,0,,3.554111066740006,4.58450866676867,None,1,None,1,,,,,,,,,,,,,cbtxie,001,fr,0,0,2022-05-05_16h25.21.942,Cluster,2022.1.1,None,
,,,,5,0,5,0,0,0,0,0,,,none,,,,,,,,,,,,,,,,,,,,,,,,,,,,,,,,,,,,,,,,,,,,,,,,,,,,,,,,,,,,,,,,,,,,,,,,,,,,,,,,,,,,,,,,,,,,,,,,,,,,,,,,,,,,,,,,,,,,689.559506499907,None,,,,,"[0.5844064623477755, 0.49805387814416424, 0.728044149262045, 0.6843276115772623]","[167.43938338285614, 519.4365786104297, 455.2776475001148, 4141.388977942789]",None,"[14.0, 12.0, 13.0, -3.0]",True,690.5184120999184,693.3625852999976,693.3625852999976,694.5985405999236,None,1,,3.5204552665818483,4.548075966653414,None,1,None,1,0,,,,,,,,,,,,cbtxie,001,fr,0,0,2022-05-05_16h25.21.942,Cluster,2022.1.1,None,
,,,,5,0,5,0,1,0,1,0,,,none,,,,,,,,,,,,,,,,,,,,,,,,,,,,,,,,,,,,,,,,,,,,,,,,,,,,,,,,,,,,,,,,,,,,,,,,,,,,,,,,,,,,,,,,,,,,,,,,,,,,,,,,,,,,,,,,,,,,695.1125292999204,None,535.8867312681471,3.0,9.301044792367187e-05,1,"[0.44264252515111785, 0.5317324483877807, 0.7325878075844503, 0.6633209401182156]","[313.61618345011425, 386.72693902863716, 128.36747213299276, 1298.8094791327119]",None,"[14.038727507742419, 14.558264051257781, 18.786162976081553, 7.208428754134724]",False,696.1463467999129,698.8676510999212,698.8676510999212,700.0994532000041,['space'],1,[0.2474862999515608],3.377031833399087,4.412581833312288,None,1,None,1,,,,,,,,,,,,,cbtxie,001,fr,0,0,2022-05-05_16h25.21.942,Cluster,2022.1.1,None,
,,,,5,0,5,0,2,0,2,0,,,frequency,,,,,,,,,,,,,,,,,,,,,,,,,,,,,,,,,,,,,,,,,,,,,,,,,,,,,,,,,,,,,,,,,,,,,,,,,,,,,,,,,,,,,,,,,,,,,,,,,,,,,,,,,,,,,,,,,,,,700.6202542999526,None,250.0,-3.0,0.00011856868528308277,0,"[0.7882551782363478, 0.43150566503168497, 0.656430647444569, 0.4330824523760182]","[396.85026299205003, 353.5533905932739, 314.98026247371837, 280.6155120773433]",Tone,"[14.065615296582664, 14.741967372715234, 14.038727507742419, 13.0]",False,701.6402023999253,704.5395557999145,704.5395557999145,705.7726479999255,None,0,,3.3220836668042466,4.348345166770741,None,1,None,1,,,,,,,,,,,,,cbtxie,001,fr,0,0,2022-05-05_16h25.21.942,Cluster,2022.1.1,None,
,,,,5,0,5,0,3,0,3,0,,,frequency,,,,,,,,,,,,,,,,,,,,,,,,,,,,,,,,,,,,,,,,,,,,,,,,,,,,,,,,,,,,,,,,,,,,,,,,,,,,,,,,,,,,,,,,,,,,,,,,,,,,,,,,,,,,,,,,,,,,706.0459697999759,None,212.90862952235034,5.0,0.0004270569364708084,1,"[0.4704064992709383, 0.5549949035047963, 0.48588057885459335, 0.4716520083887283]","[134.12403201973908, 150.54913570838826, 168.98569123844325, 189.6800251224783]",Tone,"[18.06602173245764, 16.0, 14.0, 11.872930038518033]",False,707.0582761999685,709.6025929999305,709.6025929999305,710.8442658999702,['space'],1,[0.3979506000177935],3.0115848667919636,4.029857866815291,None,1,None,1,,,,,,,,,,,,,cbtxie,001,fr,0,0,2022-05-05_16h25.21.942,Cluster,2022.1.1,None,
,,,,5,0,5,0,4,0,4,0,,,frequency,,,,,,,,,,,,,,,,,,,,,,,,,,,,,,,,,,,,,,,,,,,,,,,,,,,,,,,,,,,,,,,,,,,,,,,,,,,,,,,,,,,,,,,,,,,,,,,,,,,,,,,,,,,,,,,,,,,,711.1348048999207,None,2462.2888266898335,1.0,9.543828998156852e-05,1,"[0.42151932207689524, 0.4598578917043661, 0.7162747367919668, 0.7725553600964621]","[1551.144761833735, 1741.1011265922486, 1954.3199368684925, 2193.6499593892527]",Tone,"[7.239214312468036, 8.34684472884015, 9.785329093629244, 10.259559986262376]",False,713.380756199942,716.008399299928,716.008399299928,717.229531699908,['space'],1,[0.27428140002302825],3.395846900064498,4.440928400144912,None,1,None,1,,,,,,,,,,,,,cbtxie,001,fr,0,0,2022-05-05_16h25.21.942,Cluster,2022.1.1,None,
,,,,5,0,5,0,5,0,5,0,,,both,,,,,,,,,,,,,,,,,,,,,,,,,,,,,,,,,,,,,,,,,,,,,,,,,,,,,,,,,,,,,,,,,,,,,,,,,,,,,,,,,,,,,,,,,,,,,,,,,,,,,,,,,,,,,,,,,,,,717.8749416999053,None,466.5164957684038,2.0,9.209743910070227e-05,0,"[0.7048473707604487, 0.7048473707604487, 0.7048473707604487, 0.7048473707604487]","[740.5487761432823, 659.7539553864473, 587.7739531418044, 523.6470614103134]",Tone,"[12.654239689947314, 12.308239549758483, 11.795924888873552, 12.0]",False,718.8879312999779,722.0318931000074,722.0318931000074,723.2578690999653,None,0,,3.8254859667504206,4.847603266709484,None,1,None,1,,,,,,,,,,,,,cbtxie,001,fr,0,0,2022-05-05_16h25.21.942,Cluster,2022.1.1,None,
,,,,5,0,5,0,6,0,6,0,,,time,,,,,,,,,,,,,,,,,,,,,,,,,,,,,,,,,,,,,,,,,,,,,,,,,,,,,,,,,,,,,,,,,,,,,,,,,,,,,,,,,,,,,,,,,,,,,,,,,,,,,,,,,,,,,,,,,,,,723.7941279999213,None,6498.0191708498805,-2.0,0.00010803690958495784,1,"[0.5878049958740652, 0.5878049958740652, 0.5878049958740652, 0.5878049958740652]","[1680.7976696389908, 662.2023988332095, 612.7985899939048, 2663.313871976234]",None,"[8.0, 12.308239549758483, 11.99822464899644, 8.99099984172594]",False,724.8165359999985,727.6270225999178,727.6270225999178,728.8623145999154,['space'],1,[0.35736509994603693],3.3749666668009013,4.397662366856821,None,1,None,1,,,,,,,,,,,,,cbtxie,001,fr,0,0,2022-05-05_16h25.21.942,Cluster,2022.1.1,None,
,,,,5,0,5,0,7,0,7,0,,,none,,,,,,,,,,,,,,,,,,,,,,,,,,,,,,,,,,,,,,,,,,,,,,,,,,,,,,,,,,,,,,,,,,,,,,,,,,,,,,,,,,,,,,,,,,,,,,,,,,,,,,,,,,,,,,,,,,,,729.2721786999609,None,453.1436525432528,7.0,0.00016530471763287835,1,"[0.4536031742214259, 0.4224885521268186, 0.6119714381185701, 0.40597220467202155]","[707.5301557416419, 5727.829059681916, 549.5953300385797, 1771.1356568646002]",None,"[12.572495526117587, -2.0, 11.824873454476382, 8.34684472884015]",False,730.2690888999496,732.7995248999214,732.7995248999214,734.0343602999346,['space'],1,[0.4390973999397829],2.9276813667966053,3.9491559667512774,None,1,None,1,,,,,,,,,,,,,cbtxie,001,fr,0,0,2022-05-05_16h25.21.942,Cluster,2022.1.1,None,
,,,,5,0,5,0,8,0,8,0,,,time,,,,,,,,,,,,,,,,,,,,,,,,,,,,,,,,,,,,,,,,,,,,,,,,,,,,,,,,,,,,,,,,,,,,,,,,,,,,,,,,,,,,,,,,,,,,,,,,,,,,,,,,,,,,,,,,,,,,734.2668636000017,None,,,,,"[0.7514068339837116, 0.7514068339837116, 0.7514068339837116, 0.7514068339837116]","[572.248442741415, 960.288979437915, 392.5258920655842, 387.60489233012936]",None,"[11.795924888873552, 11.0, 14.558264051257781, 14.558264051257781]",True,735.2870192999253,738.5761848000111,738.5761848000111,739.8097998999292,None,1,,4.041840466670692,5.080403466708958,None,1,None,1,0,,,,,,,,,,,,cbtxie,001,fr,0,0,2022-05-05_16h25.21.942,Cluster,2022.1.1,None,
,,,,5,0,5,0,9,0,9,0,,,time,,,,,,,,,,,,,,,,,,,,,,,,,,,,,,,,,,,,,,,,,,,,,,,,,,,,,,,,,,,,,,,,,,,,,,,,,,,,,,,,,,,,,,,,,,,,,,,,,,,,,,,,,,,,,,,,,,,,740.4097957999911,None,4690.448305855825,-9.800602461672455,4.2532493298594205e-05,0,"[0.46661274191149116, 0.46661274191149116, 0.46661274191149116, 0.46661274191149116]","[442.6211822707528, 4215.440288541901, 224.03161055283877, 539.3531195589972]",None,"[13.389643363353557, -3.0, 11.0, 11.824873454476382]",False,741.4386228999356,743.8837926000124,743.8837926000124,745.1168357999995,None,0,,2.883493066765368,3.914614066714421,None,1,None,1,,,,,,,,,,,,,cbtxie,001,fr,0,0,2022-05-05_16h25.21.942,Cluster,2022.1.1,None,
,,,,5,0,5,0,10,0,10,0,,,time,,,,,,,,,,,,,,,,,,,,,,,,,,,,,,,,,,,,,,,,,,,,,,,,,,,,,,,,,,,,,,,,,,,,,,,,,,,,,,,,,,,,,,,,,,,,,,,,,,,,,,,,,,,,,,,,,,,,745.4117693000007,None,1414.213562373095,6.0,0.00010062574754963646,1,"[0.6174726625483931, 0.6174726625483931, 0.6174726625483931, 0.6174726625483931]","[877.0608356353282, 1420.8023687149887, 3773.2499113656736, 3190.398722022983]",None,"[11.954770458463514, 7.067103149845728, -0.4626757056290218, 4.0]",False,748.0306265999097,750.906438899925,750.906438899925,752.1412945999764,['space'],1,[0.34168400010094047],3.4783131999429315,4.514471499947831,None,1,None,1,,,,,,,,,,,,,cbtxie,001,fr,0,0,2022-05-05_16h25.21.942,Cluster,2022.1.1,None,
,,,,5,0,5,0,11,0,11,0,,,time,,,,,,,,,,,,,,,,,,,,,,,,,,,,,,,,,,,,,,,,,,,,,,,,,,,,,,,,,,,,,,,,,,,,,,,,,,,,,,,,,,,,,,,,,,,,,,,,,,,,,,,,,,,,,,,,,,,,752.6034579999978,None,5711.347171118704,-8.0,5.036620521969451e-05,1,"[0.41576098076360896, 0.41576098076360896, 0.41576098076360896, 0.41576098076360896]","[185.30515645145925, 3237.007014360292, 1754.3190239643993, 306.67942875481634]",None,"[12.0, 3.581638272757105, 8.34684472884015, 14.0]",False,753.610945399967,755.8953678999096,755.8953678999096,757.1301613999531,['space'],1,[0.3635168999899179],2.6853812667541206,3.715629866695963,None,1,None,1,,,,,,,,,,,,,cbtxie,001,fr,0,0,2022-05-05_16h25.21.942,Cluster,2022.1.1,None,
,,,,5,0,5,0,12,0,12,0,,,both,,,,,,,,,,,,,,,,,,,,,,,,,,,,,,,,,,,,,,,,,,,,,,,,,,,,,,,,,,,,,,,,,,,,,,,,,,,,,,,,,,,,,,,,,,,,,,,,,,,,,,,,,,,,,,,,,,,,757.3870250999462,None,1370.6558834260527,1.0671031498457277,5.824762103262207e-05,0,"[0.6528019375959351, 0.6528019375959351, 0.6528019375959351, 0.6528019375959351]","[3453.836399381475, 2741.311766852106, 2175.780591236918, 1726.9181996907373]",Major_3rd,"[1.4742866494815487, 8.0, 10.259559986262376, 8.34684472884015]",False,758.3801818999927,761.368984199944,761.368984199944,762.6003074999899,None,0,,3.655623266706243,4.683582366677001,None,1,None,1,,,,,,,,,,,,,cbtxie,001,fr,0,0,2022-05-05_16h25.21.942,Cluster,2022.1.1,None,
,,,,5,0,5,0,13,0,13,0,,,both,,,,,,,,,,,,,,,,,,,,,,,,,,,,,,,,,,,,,,,,,,,,,,,,,,,,,,,,,,,,,,,,,,,,,,,,,,,,,,,,,,,,,,,,,,,,,,,,,,,,,,,,,,,,,,,,,,,,763.1149213999743,None,,,,,"[0.5655012417764397, 0.5655012417764397, 0.5655012417764397, 0.5655012417764397]","[5438.141176973577, 4844.833003631956, 4316.255512539719, 3845.346503287809]",Tone,"[-3.0, -3.8162840883782856, -3.2044923810778823, -1.0]",True,764.1225767999422,766.8391771999886,766.8391771999886,768.074123499915,['space'],0,[0.5642397999763489],3.28503006673418,4.312446866650134,None,1,None,1,0,,,,,,,,,,,,cbtxie,001,fr,0,0,2022-05-05_16h25.21.942,Cluster,2022.1.1,None,
,,,,5,0,5,0,14,0,14,0,,,both,,,,,,,,,,,,,,,,,,,,,,,,,,,,,,,,,,,,,,,,,,,,,,,,,,,,,,,,,,,,,,,,,,,,,,,,,,,,,,,,,,,,,,,,,,,,,,,,,,,,,,,,,,,,,,,,,,,,768.4848980999086,None,307.7861033362292,4.0,0.00016841646196672018,0,"[0.5318857567679987, 0.5318857567679987, 0.5318857567679987, 0.5318857567679987]","[775.5723809168676, 615.5722066724584, 488.5799842171232, 387.7861904584338]",Major_3rd,"[12.654239689947314, 11.99822464899644, 12.137771400097948, 14.558264051257781]",False,769.5159012000076,772.1418849999318,772.1418849999318,773.382479099906,None,0,,3.1564093333436176,4.1886677333386615,None,1,None,1,,,,,,,,,,,,,cbtxie,001,fr,0,0,2022-05-05_16h25.21.942,Cluster,2022.1.1,None,
,,,,5,0,5,0,15,0,15,0,,,frequency,,,,,,,,,,,,,,,,,,,,,,,,,,,,,,,,,,,,,,,,,,,,,,,,,,,,,,,,,,,,,,,,,,,,,,,,,,,,,,,,,,,,,,,,,,,,,,,,,,,,,,,,,,,,,,,,,,,,773.7620508999098,None,2004.338517512033,3.785329093629243,0.00011582289097612308,1,"[0.5192833288482479, 0.4088807191169833, 0.7791667614200657, 0.724037736299065]","[397.71113389987283, 595.8934064748289, 892.8313079853891, 1337.7354672115725]",Perfect_5th,"[14.065615296582664, 11.99822464899644, 11.954770458463514, 7.208428754134724]",False,774.7638302999549,777.518251099973,777.518251099973,778.7522675999207,['space'],1,[0.26799770002253354],3.4513986667152494,4.488501066691242,None,1,None,1,,,,,,,,,,,,,cbtxie,001,fr,0,0,2022-05-05_16h25.21.942,Cluster,2022.1.1,None,
,,,,5,0,5,0,16,0,16,0,,,both,,,,,,,,,,,,,,,,,,,,,,,,,,,,,,,,,,,,,,,,,,,,,,,,,,,,,,,,,,,,,,,,,,,,,,,,,,,,,,,,,,,,,,,,,,,,,,,,,,,,,,,,,,,,,,,,,,,,779.3116916998988,None,3068.9525265654875,-1.0,5.46775826022544e-05,0,"[0.657721921197571, 0.657721921197571, 0.657721921197571, 0.657721921197571]","[1933.318944673956, 2170.077142674044, 2435.829234555259, 2734.125871950748]",Tone,"[9.785329093629244, 10.259559986262376, 10.0, 8.0]",False,780.3093657999998,783.3177974999417,783.3177974999417,784.551769200014,None,0,,3.6823052667314187,4.711104266694747,None,1,None,1,,,,,,,,,,,,,cbtxie,001,fr,0,0,2022-05-05_16h25.21.942,Cluster,2022.1.1,None,
,,,,5,0,5,0,17,0,17,0,,,frequency,,,,,,,,,,,,,,,,,,,,,,,,,,,,,,,,,,,,,,,,,,,,,,,,,,,,,,,,,,,,,,,,,,,,,,,,,,,,,,,,,,,,,,,,,,,,,,,,,,,,,,,,,,,,,,,,,,,,785.0756198999006,None,125.0,13.0,0.003228271145173279,1,"[0.7701141620417525, 0.7868282957608714, 0.5105930056931636, 0.7861755811515722]","[314.9802624737183, 250.00000000000003, 198.42513149602496, 157.49013123685916]",Major_3rd,"[14.038727507742419, 11.626746627741383, 11.181050693590539, 15.0]",False,786.0998108999338,789.1897750999779,789.1897750999779,790.4229978999356,['space'],1,[0.2962913999799639],3.8851819332921878,4.904472133261152,None,1,None,1,,,,,,,,,,,,,cbtxie,001,fr,0,0,2022-05-05_16h25.21.942,Cluster,2022.1.1,None,
,,,,5,0,5,0,18,0,18,0,,,none,,,,,,,,,,,,,,,,,,,,,,,,,,,,,,,,,,,,,,,,,,,,,,,,,,,,,,,,,,,,,,,,,,,,,,,,,,,,,,,,,,,,,,,,,,,,,,,,,,,,,,,,,,,,,,,,,,,,791.0535337999463,None,,,,,"[0.6163406182370104, 0.7935991606204871, 0.5472787816101928, 0.43150923489350645]","[1304.6416839337, 942.8005579464145, 6959.2320193844425, 125.91673619629076]",None,"[7.208428754134724, 11.0, 3.8560812483939153, 18.786162976081553]",True,792.0771747999825,795.0652814999921,795.0652814999921,796.3022284999024,None,1,,3.4200288667343557,4.451597066712566,None,1,None,1,0,,,,,,,,,,,,cbtxie,001,fr,0,0,2022-05-05_16h25.21.942,Cluster,2022.1.1,None,
,,,,5,0,5,0,19,0,19,0,,,none,,,,,,,,,,,,,,,,,,,,,,,,,,,,,,,,,,,,,,,,,,,,,,,,,,,,,,,,,,,,,,,,,,,,,,,,,,,,,,,,,,,,,,,,,,,,,,,,,,,,,,,,,,,,,,,,,,,,796.5721827999223,None,125.0,13.0,0.003228271145173279,1,"[0.683815137872247, 0.4961838472856672, 0.42718761224756757, 0.5929191053987057]","[6267.386836566563, 817.1258981035941, 409.818309719771, 6133.912837899523]",None,"[1.0, 12.459334676748085, 14.0, 0.0]",False,797.6029995999997,800.2263898999663,800.2263898999663,801.4683532000054,['space'],1,[0.35088610008824617],3.23372883326374,4.254940933315083,None,1,None,1,,,,,,,,,,,,,cbtxie,001,fr,0,0,2022-05-05_16h25.21.942,Cluster,2022.1.1,None,
,,,,6,0,6,0,0,0,0,0,,,none,,,,,,,,,,,,,,,,,,,,,,,,,,,,,,,,,,,,,,,,,,,,,,,,,,,,,,,,,,,,,,,,,,,,,,,,,,,,,,,,,,,,,,,,,,,,,,,,,,,,,,,,,,,,,,,,,,,,803.6292189999949,None,2778.4455620045283,2.0,8.635217594062942e-05,0,"[0.4290155890582483, 0.4644078242195406, 0.574557035161298, 0.5761138620444317]","[394.6905149495898, 170.18570925686947, 262.4664417408363, 3532.1251318835216]",None,"[14.065615296582664, 14.0, 12.0, 1.0]",False,804.6282161999261,807.1162507999688,807.1162507999688,808.3474688999122,None,0,,3.089070866815746,4.125675166840665,None,1,['space'],0,,[0.48664670006837696],,,,,,,,,,,cbtxie,001,fr,0,0,2022-05-05_16h25.21.942,Cluster,2022.1.1,None,
,,,,6,0,6,0,1,0,1,0,,,both,,,,,,,,,,,,,,,,,,,,,,,,,,,,,,,,,,,,,,,,,,,,,,,,,,,,,,,,,,,,,,,,,,,,,,,,,,,,,,,,,,,,,,,,,,,,,,,,,,,,,,,,,,,,,,,,,,,,808.8125132999849,None,125.0,9.0,0.0020369013890205647,1,"[0.58338899422957, 0.58338899422957, 0.58338899422957, 0.58338899422957]","[629.9605249474366, 420.4482076268573, 280.6155120773433, 187.2883846095852]",Perfect_5th,"[12.0, 14.0, 13.0, 12.0]",False,809.8432978999335,812.616256600013,812.616256600013,813.8569358999375,['space'],1,[0.35578890005126595],3.3576216667424887,4.391349166748114,None,1,None,1,,,,,,,,,,,,,cbtxie,001,fr,0,0,2022-05-05_16h25.21.942,Cluster,2022.1.1,None,
,,,,6,0,6,0,2,0,2,0,,,none,,,,,,,,,,,,,,,,,,,,,,,,,,,,,,,,,,,,,,,,,,,,,,,,,,,,,,,,,,,,,,,,,,,,,,,,,,,,,,,,,,,,,,,,,,,,,,,,,,,,,,,,,,,,,,,,,,,,814.2979214999359,None,,,,,"[0.44175184995243233, 0.5158344981927068, 0.43099100244438504, 0.5276914473854771]","[1162.6562781733091, 5477.573252900283, 439.1794434557119, 269.7341354678191]",None,"[8.370031608802233, -3.0, 13.389643363353557, 12.409733461880743]",True,815.291407499928,817.7296097999206,817.7296097999206,818.9622243999038,None,1,,2.937302066711709,3.968584966729395,None,1,None,1,0,,,,,,,,,,,,cbtxie,001,fr,0,0,2022-05-05_16h25.21.942,Cluster,2022.1.1,None,
,,,,6,0,6,0,3,0,3,0,,,time,,,,,,,,,,,,,,,,,,,,,,,,,,,,,,,,,,,,,,,,,,,,,,,,,,,,,,,,,,,,,,,,,,,,,,,,,,,,,,,,,,,,,,,,,,,,,,,,,,,,,,,,,,,,,,,,,,,,819.3131773999194,None,8000.0,0.0,0.0001815390273850507,0,"[0.7794426901944319, 0.7794426901944319, 0.7794426901944319, 0.7794426901944319]","[4523.794119857648, 3958.3014604852174, 296.5486243230051, 1699.77710804457]",None,"[-3.8006024616724545, -2.0, 13.271798484273098, 8.0]",False,820.3428719999501,823.6991271999432,823.6991271999432,824.9354799999855,None,0,,4.160782133345492,5.191804933245294,None,1,None,1,,,,,,,,,,,,,cbtxie,001,fr,0,0,2022-05-05_16h25.21.942,Cluster,2022.1.1,None,
,,,,6,0,6,0,4,0,4,0,,,none,,,,,,,,,,,,,,,,,,,,,,,,,,,,,,,,,,,,,,,,,,,,,,,,,,,,,,,,,,,,,,,,,,,,,,,,,,,,,,,,,,,,,,,,,,,,,,,,,,,,,,,,,,,,,,,,,,,,825.5814802999375,None,267.9433656340732,5.0,0.00026402711396027797,0,"[0.4909399017058941, 0.6847578146639814, 0.49711805965832384, 0.5028298587166519]","[2585.7750462902936, 1460.5715188044428, 695.3214743179037, 1409.602491036279]",None,"[9.0, 7.067103149845728, 12.572495526117587, 7.067103149845728]",False,826.609897099901,829.3070947999367,829.3070947999367,830.5421578999376,None,0,,3.19455093331635,4.222611333359964,None,1,None,1,,,,,,,,,,,,,cbtxie,001,fr,0,0,2022-05-05_16h25.21.942,Cluster,2022.1.1,None,
,,,,6,0,6,0,5,0,5,0,,,none,,,,,,,,,,,,,,,,,,,,,,,,,,,,,,,,,,,,,,,,,,,,,,,,,,,,,,,,,,,,,,,,,,,,,,,,,,,,,,,,,,,,,,,,,,,,,,,,,,,,,,,,,,,,,,,,,,,,830.8830998999765,None,2208.503110884147,4.259559986262376,0.00012971283335928962,1,"[0.6806877345812126, 0.5628901123139836, 0.43695705704110066, 0.6422553617241067]","[3733.6011694423228, 3653.8644835859054, 597.3945119878265, 3575.2545769687713]",None,"[-0.4626757056290218, 0.0, 11.99822464899644, 1.0]",False,831.8963165999157,834.6055769999512,834.6055769999512,835.8248385000043,['space'],1,[0.2879536999389529],3.359293966786936,4.377915266784839,None,1,None,1,,,,,,,,,,,,,cbtxie,001,fr,0,0,2022-05-05_16h25.21.942,Cluster,2022.1.1,None,
,,,,6,0,6,0,6,0,6,0,,,frequency,,,,,,,,,,,,,,,,,,,,,,,,,,,,,,,,,,,,,,,,,,,,,,,,,,,,,,,,,,,,,,,,,,,,,,,,,,,,,,,,,,,,,,,,,,,,,,,,,,,,,,,,,,,,,,,,,,,,836.3279144999105,None,,,,,"[0.5313271235862423, 0.7983798020516288, 0.686484958002647, 0.5815743783748634]","[128.32116831932854, 144.03564143316532, 161.67454111262515, 181.47353657675518]",Tone,"[18.786162976081553, 16.979024424982406, 15.0, 12.937531404266515]",True,837.3554072999395,840.4125958000077,840.4125958000077,841.646870699944,None,1,,3.6246936668176204,4.655632966780104,None,1,None,1,0,,,,,,,,,,,,cbtxie,001,fr,0,0,2022-05-05_16h25.21.942,Cluster,2022.1.1,None,
,,,,6,0,6,0,7,0,7,0,,,both,,,,,,,,,,,,,,,,,,,,,,,,,,,,,,,,,,,,,,,,,,,,,,,,,,,,,,,,,,,,,,,,,,,,,,,,,,,,,,,,,,,,,,,,,,,,,,,,,,,,,,,,,,,,,,,,,,,,842.0635051999707,None,7471.037936527758,0.1601130340662812,0.0001685840874953438,0,"[0.7339011202421627, 0.7339011202421627, 0.7339011202421627, 0.7339011202421627]","[4706.4589803972385, 5282.821587420728, 5929.766739869244, 6655.938120830425]",Tone,"[-3.8006024616724545, -3.2410290068567154, -1.0, 2.0]",False,843.0635408000089,846.284096499905,846.284096499905,847.5156797999516,None,0,,3.969969666795805,4.990154466708191,None,1,None,1,,,,,,,,,,,,,cbtxie,001,fr,0,0,2022-05-05_16h25.21.942,Cluster,2022.1.1,None,
,,,,6,0,6,0,8,0,8,0,,,time,,,,,,,,,,,,,,,,,,,,,,,,,,,,,,,,,,,,,,,,,,,,,,,,,,,,,,,,,,,,,,,,,,,,,,,,,,,,,,,,,,,,,,,,,,,,,,,,,,,,,,,,,,,,,,,,,,,,848.11633479991,None,343.4314470169189,8.741967372715234,0.0002496226648001264,1,"[0.6537930447984102, 0.6537930447984102, 0.6537930447984102, 0.6537930447984102]","[4168.920499044582, 1763.8202761058703, 3658.895654825625, 1194.6060105555923]",None,"[-3.0, 8.34684472884015, 0.0, 8.0]",False,849.1369550999952,852.1208683999721,852.1208683999721,853.3549401999917,['space'],1,[0.4158740999409929],3.6511180667439476,4.681654666666873,None,1,None,1,,,,,,,,,,,,,cbtxie,001,fr,0,0,2022-05-05_16h25.21.942,Cluster,2022.1.1,None,
,,,,6,0,6,0,9,0,9,0,,,frequency,,,,,,,,,,,,,,,,,,,,,,,,,,,,,,,,,,,,,,,,,,,,,,,,,,,,,,,,,,,,,,,,,,,,,,,,,,,,,,,,,,,,,,,,,,,,,,,,,,,,,,,,,,,,,,,,,,,,853.8736867000116,None,244.4850095262345,5.626746627741383,0.0003407678020882338,0,"[0.7799489775746821, 0.7124516023220532, 0.7605481538720442, 0.5715940542374827]","[388.0957613124, 345.75401626891625, 308.0318098858515, 274.42514457375376]",Tone,"[14.558264051257781, 14.741967372715234, 14.038727507742419, 12.409733461880743]",False,854.873275199905,858.1546011999017,858.1546011999017,859.394630099996,None,0,,3.8533768666675314,4.8898371666437015,None,1,None,1,,,,,,,,,,,,,cbtxie,001,fr,0,0,2022-05-05_16h25.21.942,Cluster,2022.1.1,None,
,,,,6,0,6,0,10,0,10,0,,,frequency,,,,,,,,,,,,,,,,,,,,,,,,,,,,,,,,,,,,,,,,,,,,,,,,,,,,,,,,,,,,,,,,,,,,,,,,,,,,,,,,,,,,,,,,,,,,,,,,,,,,,,,,,,,,,,,,,,,,859.817321099923,None,,,,,"[0.6827951741205429, 0.5292378334238093, 0.7752824418793489, 0.4276692446476099]","[1154.4140748255927, 1729.6667779572324, 2591.571974051809, 3882.970628957097]",Perfect_5th,"[8.370031608802233, 8.34684472884015, 9.0, -1.0]",True,860.8278083999176,863.8292237999849,863.8292237999849,865.0596547999885,None,1,,3.4388870667899027,4.471407066797838,None,1,None,1,0,,,,,,,,,,,,cbtxie,001,fr,0,0,2022-05-05_16h25.21.942,Cluster,2022.1.1,None,
,,,,6,0,6,0,11,0,11,0,,,none,,,,,,,,,,,,,,,,,,,,,,,,,,,,,,,,,,,,,,,,,,,,,,,,,,,,,,,,,,,,,,,,,,,,,,,,,,,,,,,,,,,,,,,,,,,,,,,,,,,,,,,,,,,,,,,,,,,,865.3479913999327,None,8000.0,5.0,0.00032282711451732784,1,"[0.632122106714663, 0.6520588120038058, 0.6415609459376066, 0.6159171893999112]","[213.24967391043833, 128.79974353210108, 2286.4232568789284, 2628.970280337569]",None,"[11.0, 18.786162976081553, 10.35069724881328, 9.0]",False,866.3711529999273,869.3230749999639,869.3230749999639,870.5447621999774,['space'],1,[0.37883389997296035],3.568903833278455,4.596095933346078,None,1,None,1,,,,,,,,,,,,,cbtxie,001,fr,0,0,2022-05-05_16h25.21.942,Cluster,2022.1.1,None,
,,,,6,0,6,0,12,0,12,0,,,frequency,,,,,,,,,,,,,,,,,,,,,,,,,,,,,,,,,,,,,,,,,,,,,,,,,,,,,,,,,,,,,,,,,,,,,,,,,,,,,,,,,,,,,,,,,,,,,,,,,,,,,,,,,,,,,,,,,,,,871.0271214999957,None,466.5164957684038,2.0,9.209743910070227e-05,0,"[0.7588888702632296, 0.7156079481922484, 0.48977454750432764, 0.7850583709213526]","[185.1371940358206, 233.25824788420195, 293.8869765709023, 370.27438807164117]",Major_3rd,"[12.0, 11.09100126744373, 13.271798484273098, 14.558264051257781]",False,872.056247600005,875.0457496999297,875.0457496999297,876.2712906999514,None,0,,3.785867933300324,4.83093543339055,None,1,None,1,,,,,,,,,,,,,cbtxie,001,fr,0,0,2022-05-05_16h25.21.942,Cluster,2022.1.1,None,
,,,,6,0,6,0,13,0,13,0,,,frequency,,,,,,,,,,,,,,,,,,,,,,,,,,,,,,,,,,,,,,,,,,,,,,,,,,,,,,,,,,,,,,,,,,,,,,,,,,,,,,,,,,,,,,,,,,,,,,,,,,,,,,,,,,,,,,,,,,,,876.9342783999164,None,567.8864792665026,5.795924888873552,0.0001186009315782739,1,"[0.7876680983031615, 0.6059602409905707, 0.5162924985405246, 0.6644351103700833]","[225.3658986465409, 283.9432396332514, 357.74606458927764, 450.73179729308174]",Major_3rd,"[11.0, 13.0, 14.741967372715234, 13.0]",False,877.9555147999199,880.8973469999619,880.8973469999619,882.1331492000027,['space'],1,[0.5033317999914289],3.616831966675818,4.649363166769035,None,1,None,1,,,,,,,,,,,,,cbtxie,001,fr,0,0,2022-05-05_16h25.21.942,Cluster,2022.1.1,None,
,,,,6,0,6,0,14,0,14,0,,,frequency,,,,,,,,,,,,,,,,,,,,,,,,,,,,,,,,,,,,,,,,,,,,,,,,,,,,,,,,,,,,,,,,,,,,,,,,,,,,,,,,,,,,,,,,,,,,,,,,,,,,,,,,,,,,,,,,,,,,882.6607874999754,None,3249.0095854249403,-9.0,2.510561532304301e-05,0,"[0.5335795257002642, 0.46366663665685126, 0.7525176286146448, 0.43670733916790977]","[5157.481233758315, 4594.793419988138, 4093.4955679870977, 3646.8899542328654]",Tone,"[-3.2410290068567154, -3.8006024616724545, -2.063256987041779, 0.0]",False,885.4693006000016,888.2343337999191,888.2343337999191,889.4704178000102,None,0,,3.1932581000728533,4.223220000043511,None,1,None,1,,,,,,,,,,,,,cbtxie,001,fr,0,0,2022-05-05_16h25.21.942,Cluster,2022.1.1,None,
,,,,6,0,6,0,15,0,15,0,,,frequency,,,,,,,,,,,,,,,,,,,,,,,,,,,,,,,,,,,,,,,,,,,,,,,,,,,,,,,,,,,,,,,,,,,,,,,,,,,,,,,,,,,,,,,,,,,,,,,,,,,,,,,,,,,,,,,,,,,,889.7484865000006,None,475.67789311054383,6.691372772585694,0.0001570464930325273,0,"[0.5322178963123443, 0.6359040598612491, 0.4627548547668054, 0.7106442395940388]","[188.77289698042355, 237.83894655527197, 299.6582952498089, 377.54579396084705]",Major_3rd,"[11.872930038518033, 11.09100126744373, 14.0, 14.558264051257781]",False,890.757980800001,893.4085751000093,893.4085751000093,894.6433620000025,None,0,,3.3880527667934075,4.419257066794671,None,1,None,1,,,,,,,,,,,,,cbtxie,001,fr,0,0,2022-05-05_16h25.21.942,Cluster,2022.1.1,None,
,,,,6,0,6,0,16,0,16,0,,,none,,,,,,,,,,,,,,,,,,,,,,,,,,,,,,,,,,,,,,,,,,,,,,,,,,,,,,,,,,,,,,,,,,,,,,,,,,,,,,,,,,,,,,,,,,,,,,,,,,,,,,,,,,,,,,,,,,,,895.2422694999259,None,,,,,"[0.6444266220805389, 0.4755277734249883, 0.7747730903023695, 0.6586766224545009]","[957.4851737881896, 520.0687649254536, 550.3559277370085, 1207.9166545348967]",None,"[11.0, 12.0, 11.824873454476382, 8.0]",True,896.2452395999571,899.1617797999643,899.1617797999643,900.4077326999977,None,1,,3.5753023667493835,4.622567566810176,None,1,None,1,0,,,,,,,,,,,,cbtxie,001,fr,0,0,2022-05-05_16h25.21.942,Cluster,2022.1.1,None,
