tTrials.thisRepN,tTrials.thisTrialN,tTrials.thisN,tTrials.thisIndex,blocks.thisRepN,blocks.thisTrialN,blocks.thisN,blocks.thisIndex,trials.thisRepN,trials.thisTrialN,trials.thisN,trials.thisIndex,tStart_text.started,tStart_text.stopped,Prediction,practice_Frequency,practice_Level,practice_Psychopy_Level,practice_isCatchTrial,Practice_trial_detection,practice_Cue_Delays,practice_Cue_Frequencies,practice_Interval,practice_Cue_Intensities,tCue_visual_cue.started,tCue_visual_cue.stopped,tProbe_visual_cue.started,tProbe_visual_cue.stopped,tFeedback.keys,tFeedback.corr,tFeedback.rt,tFeedback.started,tFeedback.stopped,tToo_late.keys,tToo_late.corr,tToo_early.keys,tToo_early.corr,tToo_early.rt,more_instructions.started,more_instructions.stopped,readyy.keys,readyy.rt,readyy.started,readyy.stopped,txt_rhythm.started,txt_rhythm.stopped,sound_1.started,sound_1.stopped,sound_2.started,sound_2.stopped,sound_3.started,sound_3.stopped,sound_4.started,sound_4.stopped,cross.started,cross.stopped,sound_5.started,sound_5.stopped,circle.started,circle.stopped,rhythm_ready.keys,rhythm_ready.rt,rhythm_ready.started,rhythm_ready.stopped,rhytm_ready_txt.started,rhytm_ready_txt.stopped,txt_freq.started,txt_freq.stopped,sound_6.started,sound_6.stopped,sound_7.started,sound_7.stopped,sound_8.started,sound_8.stopped,sound_9.started,sound_9.stopped,cross_2.started,cross_2.stopped,sound_10.started,sound_10.stopped,circle_2.started,circle_2.stopped,freq_ready.keys,freq_ready.rt,freq_ready.started,freq_ready.stopped,freq_ready_txt.started,freq_ready_txt.stopped,txt_freq_2.started,txt_freq_2.stopped,sound_11.started,sound_11.stopped,sound_12.started,sound_12.stopped,sound_13.started,sound_13.stopped,sound_14.started,sound_14.stopped,cross_3.started,cross_3.stopped,sound_15.started,sound_15.stopped,circle_3.started,circle_3.stopped,freq_ready_2.keys,freq_ready_2.rt,freq_ready_2.started,freq_ready_2.stopped,freq_ready_txt_2.started,freq_ready_txt_2.stopped,txt_freq_3.started,txt_freq_3.stopped,sound_16.started,sound_16.stopped,sound_17.started,sound_17.stopped,sound_18.started,sound_18.stopped,sound_19.started,sound_19.stopped,cross_4.started,cross_4.stopped,sound_20.started,sound_20.stopped,circle_4.started,circle_4.stopped,freq_ready_txt_3.started,freq_ready_txt_3.stopped,tStart_text_2.started,tStart_text_2.stopped,this_trial_is.started,this_trial_is.stopped,Frequency,Level,Psychopy_Level,Real trial detection,Cue Delays,Cue Frequencies,Interval,Cue Intensities,Catch trial,cue_visual_cue.started,cue_visual_cue.stopped,probe_visual_cue.started,probe_visual_cue.stopped,feedback.keys,feedback.corr,feedback.started,feedback.stopped,answer_too_late.keys,answer_too_late.corr,answer_too_early.keys,answer_too_early.corr,answer_too_early.rt,feedback.rt,Catch trial answer,Audiogram_both,Audiogram_none,Audiogram_time,Audiogram_frequency,goodbye_text.started,goodbye_text.stopped,key_resp.keys,key_resp.rt,key_resp.started,key_resp.stopped,participant,session,Language (english or french),Skip training? (1 for yes),Resume previous experiment,date,expName,psychopyVersion,frameRate,
0,0,0,0,,,,,,,,,44.22518800001126,None,time,1000,30,0.0013930605843148849,False,1,"[0.5321751159351253, 0.5321751159351253, 0.5321751159351253, 0.5321751159351253]","[566.3391976618229, 2294.409154930157, 4131.769552040283, 1470.0044683563308]",None,"[30, 30, 30, 30]",65.0804913000029,67.61818430000858,67.61818430000858,68.82947900000727,['space'],1,[0.7527378000086173],67.61818430000858,69.38467080000555,None,1,['space'],0,[1.4353057999978773],,,,,,,,,,,,,,,,,,,,,,,,,,,,,,,,,,,,,,,,,,,,,,,,,,,,,,,,,,,,,,,,,,,,,,,,,,,,,,,,,,,,,,,,,,,,,,,,,,,,,,,,,,,,,,,,,,,,,,,,,,,,,,,,,ttuwra,001,fr,0,0,2022-04-26_11h34.16.499,Cluster,2022.1.1,36.75662483008128,
1,0,1,0,,,,,,,,,,,both,2500,30,0.002716251657462167,False,1,"[0.5473770930956867, 0.5473770930956867, 0.5473770930956867, 0.5473770930956867]","[992.1256574801249, 1250.0000000000002, 1574.9013123685916, 1984.2513149602494]",Major_3rd,"[30, 30, 30, 30]",76.89710050000576,79.46135420000064,79.46135420000064,80.69436630001292,['space'],1,[0.3821012999978848],79.46135420000064,81.23460700000578,None,1,None,1,,,,,,,,,,,,,,,,,,,,,,,,,,,,,,,,,,,,,,,,,,,,,,,,,,,,,,,,,,,,,,,,,,,,,,,,,,,,,,,,,,,,,,,,,,,,,,,,,,,,,,,,,,,,,,,,,,,,,,,,,,,,,,,,,,ttuwra,001,fr,0,0,2022-04-26_11h34.16.499,Cluster,2022.1.1,36.75662483008128,
2,0,2,0,,,,,,,,,,,none,6000,30,0.003664122665694519,True,0,"[0.7330163057004393, 0.604949421454999, 0.6129126724892768, 0.4328607765798256]","[824.8906078811713, 3310.5882624858154, 301.74611762607117, 2870.52180913272]",None,"[30, 30, 30, 30]",84.50906330000726,87.38154860000941,87.38154860000941,88.60820850000891,['space'],0,[0.41339000000152737],87.38154860000941,89.04731830001401,None,1,None,1,,,,,,,,,,,,,,,,,,,,,,,,,,,,,,,,,,,,,,,,,,,,,,,,,,,,,,,,,,,,,,,,,,,,,,,,,,,,,,,,,,,,,,,,,,,,,,,,,,,,,,,,,,,,,,,,,,,,,,,,,,,,,,,,,,ttuwra,001,fr,0,0,2022-04-26_11h34.16.499,Cluster,2022.1.1,36.75662483008128,
3,0,3,0,,,,,,,,,,,none,440,30,0.0023562289915021436,False,1,"[0.737931590876384, 0.6632686924154956, 0.4648809085424723, 0.45829785575714355]","[7244.1944097540045, 5398.631613672738, 179.01623504097617, 2367.926848392506]",None,"[30, 30, 30, 30]",93.44433730001037,96.24641580000753,96.24641580000753,97.48680310000782,['space'],1,[0.38192429998889565],96.24641580000753,97.92133320000721,None,1,None,1,,,,,,,,,,,,,,,,,,,,,,,,,,,,,,,,,,,,,,,,,,,,,,,,,,,,,,,,,,,,,,,,,,,,,,,,,,,,,,,,,,,,,,,,,,,,,,,,,,,,,,,,,,,,,,,,,,,,,,,,,,,,,,,,,,ttuwra,001,fr,0,0,2022-04-26_11h34.16.499,Cluster,2022.1.1,36.75662483008128,
4,0,4,0,,,,,,,,,,,frequency,250,30,0.005296268625886445,True,0,"[0.5041657394225895, 0.42764604702706277, 0.40226876374728004, 0.6724780308837446]","[1259.9210498948732, 840.8964152537146, 561.2310241546866, 374.5767692191704]",Perfect_5th,"[30, 30, 30, 30]",101.3730879000068,103.6431031000102,103.6431031000102,104.89027530000021,['space'],0,[0.3770772999996552],103.6431031000102,105.55762410000898,None,1,None,1,,,,,,,,,,,,,,,,,,,,,,,,,,,,,,,,,,,,,,,,,,,,,,,,,,,,,,,,,,,,,,,,,,,,,,,,,,,,,,,,,,,,,,,,,,,,,,,,,,,,,,,,,,,,,,,,,,,,,,,,,,,,,,,,,,ttuwra,001,fr,0,0,2022-04-26_11h34.16.499,Cluster,2022.1.1,36.75662483008128,
,,,,,,,,,,,,,,,,,,,,,,,,,,,,,,,,,,,,,,113.1788377000048,None,space,20.712500199995702,113.1788377000048,None,,,,,,,,,,,,,,,,,,,,,,,,,,,,,,,,,,,,,,,,,,,,,,,,,,,,,,,,,,,,,,,,,,,,,,,,,,,,,,,,,,,,,,,,,,,,,,,,,,,,,,,,,,,,,,,,,,,,,,,,,,,ttuwra,001,fr,0,0,2022-04-26_11h34.16.499,Cluster,2022.1.1,36.75662483008128,
,,,,,,,,,,,,,,,,,,,,,,,,,,,,,,,,,,,,,,,,,,,,133.94678380001278,134.95904830000654,135.41624646667722,None,135.90994136667385,None,136.41943336667126,None,136.9101016666721,137.13624160000472,135.32476050000696,137.13624160000472,137.4351816666788,None,137.13624160000472,137.95473270000366,space,1.3634957999893231,138.1282113000052,None,,,,,,,,,,,,,,,,,,,,,,,,,,,,,,,,,,,,,,,,,,,,,,,,,,,,,,,,,,,,,,,,,,,,,,,,,,,,,,,,,,,,,,,,,,,,,,,,,,,,,,,ttuwra,001,fr,0,0,2022-04-26_11h34.16.499,Cluster,2022.1.1,36.75662483008128,
,,,,,,,,,,,,,,,,,,,,,,,,,,,,,,,,,,,,,,,,,,,,,,,,,,,,,,,,,,,,,,,,138.1282113000052,None,139.5390582000109,140.56446370000776,141.00403386667702,None,141.31870426667254,None,142.02290666666912,142.23860850000347,142.3986489666752,None,140.93056150000484,142.73287350000464,143.02619476667704,None,142.73287350000464,143.57651090000581,space,1.265708499995526,143.74540140001045,None,,,,,,,,,,,,,,,,,,,,,,,,,,,,,,,,,,,,,,,,,,,,,,,,,,,,,,,,,,,,,,,,,,,,,,,,,,,,,,,,,ttuwra,001,fr,0,0,2022-04-26_11h34.16.499,Cluster,2022.1.1,36.75662483008128,
,,,,,,,,,,,,,,,,,,,,,,,,,,,,,,,,,,,,,,,,,,,,,,,,,,,,,,,,,,,,,,,,,,,,,,,,,,,,,,,,,,,,,,143.74540140001045,None,145.07835730000807,146.11324250001053,146.54804816667846,None,147.04926246666972,147.27175360001274,147.56995996667345,None,148.0548601666708,None,146.47450080000272,148.2826819000038,148.55170046668016,None,148.2826819000038,149.10602650001238,space,1.0403656999988016,149.25112400000216,None,,,,,,,,,,,,,,,,,,,,,,,,,,,,,,,,,,,,,,,,,,,,,,,,,,,,,,,,,,,ttuwra,001,fr,0,0,2022-04-26_11h34.16.499,Cluster,2022.1.1,36.75662483008128,
,,,,0,0,0,0,0,0,0,0,,,frequency,,,,,,,,,,,,,,,,,,,,,,,,,,,,,,,,,,,,,,,,,,,,,,,,,,,,,,,,,,,,,,,,,,,,,,,,,,,,,,,,,,,,,,,,,,,,,,149.25112400000216,None,150.33767660000012,151.35442320001312,151.81807176667306,None,152.0976465666793,152.31708550000621,152.82111836667562,None,153.20206246668047,None,151.73416110000107,153.5200104000105,153.81888996667502,154.04906330000085,153.5200104000105,154.3376702000096,154.50574540000525,None,155.53909340000246,None,166.54685320000863,None,1913.4976548931877,23.841789413468156,0.0011034992660693714,0,"[0.798678791294679, 0.5712891103961633, 0.5060087210803739, 0.5849006106697914]","[4821.711948648806, 3826.995309786376, 3037.488190316129, 2410.8559743244027]",Major_3rd,"[23.0, 26.0, 28.268439788568884, 29.22822029262]",False,167.51965100000962,170.4247871000116,170.4247871000116,171.67585700000927,None,0,3.4929586666548857,4.517154066663352,None,1,['space'],0,[0.3946548000094481],,,,,,,,,,,,,ttuwra,001,fr,0,0,2022-04-26_11h34.16.499,Cluster,2022.1.1,36.75662483008128,
,,,,0,0,0,0,1,0,1,0,,,frequency,,,,,,,,,,,,,,,,,,,,,,,,,,,,,,,,,,,,,,,,,,,,,,,,,,,,,,,,,,,,,,,,,,,,,,,,,,,,,,,,,,,,,,,,,,,,,,,,,,,,,,,,,,,,,,,,,,,,172.08070810000936,None,353.5533905932738,19.0,0.0007897582242723967,0,"[0.675757517974011, 0.7136348056901978, 0.45857184773310006, 0.736958289167721]","[1781.7974362806788, 1189.2071150027211, 793.7005259840998, 529.7315471796477]",Perfect_5th,"[29.769780792544555, 27.0, 25.383581342819372, 25.788902942437673]",False,173.87964670000656,176.74041320000833,176.74041320000833,177.9453707000066,None,0,3.6025858000066364,4.636227600014536,None,1,['space'],0,[0.3982484000007389],,,,,,,,,,,,,ttuwra,001,fr,0,0,2022-04-26_11h34.16.499,Cluster,2022.1.1,36.75662483008128,
,,,,0,0,0,0,2,0,2,0,,,none,,,,,,,,,,,,,,,,,,,,,,,,,,,,,,,,,,,,,,,,,,,,,,,,,,,,,,,,,,,,,,,,,,,,,,,,,,,,,,,,,,,,,,,,,,,,,,,,,,,,,,,,,,,,,,,,,,,,178.55873760000395,None,7468.393874478469,8.58243639270409,0.0004443471347007452,1,"[0.6185644205117377, 0.5919586765942993, 0.417523409270736, 0.5436441797705428]","[2648.2830712580435, 4996.545916453832, 366.06480890386774, 1343.643556366058]",None,"[28.958951076732028, 22.0, 25.57041546457009, 28.0]",False,179.5654394000012,182.22272670001257,182.22272670001257,183.45117570000002,['space'],1,3.210321466671303,4.242540266670403,None,1,None,1,,[0.8908167000045069],,,,,,,,,,,,ttuwra,001,fr,0,0,2022-04-26_11h34.16.499,Cluster,2022.1.1,36.75662483008128,
,,,,0,0,0,0,3,0,3,0,,,both,,,,,,,,,,,,,,,,,,,,,,,,,,,,,,,,,,,,,,,,,,,,,,,,,,,,,,,,,,,,,,,,,,,,,,,,,,,,,,,,,,,,,,,,,,,,,,,,,,,,,,,,,,,,,,,,,,,,183.84169960000145,None,,,,,"[0.5643990254214605, 0.5643990254214605, 0.5643990254214605, 0.5643990254214605]","[2625.5272838775622, 2083.882386199226, 1653.9785460153264, 1312.7636419387811]",Major_3rd,"[28.958951076732028, 29.64975290668494, 29.546558954001995, 27.993129379184833]",True,184.85476590000326,187.5592037000024,187.5592037000024,188.79375230000005,None,1,3.2837702666583937,4.30639736665762,None,1,None,1,,,0,,,,,,,,,,,ttuwra,001,fr,0,0,2022-04-26_11h34.16.499,Cluster,2022.1.1,36.75662483008128,
,,,,0,0,0,0,4,0,4,0,,,frequency,,,,,,,,,,,,,,,,,,,,,,,,,,,,,,,,,,,,,,,,,,,,,,,,,,,,,,,,,,,,,,,,,,,,,,,,,,,,,,,,,,,,,,,,,,,,,,,,,,,,,,,,,,,,,,,,,,,,189.1924616000033,None,264.6622168712539,18.45503826001906,0.0012718942506624985,1,"[0.712805525989973, 0.604402985917068, 0.7637556124873375, 0.734744440150142]","[166.72674907396743, 187.14444827352833, 210.0625407388321, 235.7872297507806]",Tone,"[27.0, 26.05866239498316, 25.500858518366996, 24.653218692910055]",False,190.19779720000224,193.3191652000096,193.3191652000096,194.54866560001392,['space'],1,3.84361786665977,4.869549466660828,None,1,None,1,,[0.4248600999999326],,,,,,,,,,,,ttuwra,001,fr,0,0,2022-04-26_11h34.16.499,Cluster,2022.1.1,36.75662483008128,
,,,,0,0,0,0,5,0,5,0,,,both,,,,,,,,,,,,,,,,,,,,,,,,,,,,,,,,,,,,,,,,,,,,,,,,,,,,,,,,,,,,,,,,,,,,,,,,,,,,,,,,,,,,,,,,,,,,,,,,,,,,,,,,,,,,,,,,,,,,195.1077626000042,None,436.70703498561204,20.094873375709398,0.0007549892768945163,1,"[0.5215220177056268, 0.5215220177056268, 0.5215220177056268, 0.5215220177056268]","[173.30730168451854, 218.3535174928061, 275.1081930077748, 346.61460336903696]",Major_3rd,"[26.61195803563669, 25.0, 24.45503826001906, 25.57041546457009]",False,196.12877920000756,198.7038353000098,198.7038353000098,199.9362417000084,['space'],1,3.1216624666558346,4.156651666664402,None,1,None,1,,[0.2887157999939518],,,,,,,,,,,,ttuwra,001,fr,0,0,2022-04-26_11h34.16.499,Cluster,2022.1.1,36.75662483008128,
,,,,0,0,0,0,6,0,6,0,,,time,,,,,,,,,,,,,,,,,,,,,,,,,,,,,,,,,,,,,,,,,,,,,,,,,,,,,,,,,,,,,,,,,,,,,,,,,,,,,,,,,,,,,,,,,,,,,,,,,,,,,,,,,,,,,,,,,,,,200.31492500001332,None,901.1665369829661,19.42587904797925,0.0003860544492814302,1,"[0.7536386708653862, 0.7536386708653862, 0.7536386708653862, 0.7536386708653862]","[371.26775978831375, 7571.209118621298, 227.67801599203284, 2863.4073838314093]",None,"[25.849647623110307, 14.58243639270409, 24.653218692910055, 28.64606431841785]",False,201.32255050000094,204.6074418000062,204.6074418000062,205.84291920000396,['space'],1,4.030931566667277,5.036917066667229,None,1,None,1,,[0.33053469999867957],,,,,,,,,,,,ttuwra,001,fr,0,0,2022-04-26_11h34.16.499,Cluster,2022.1.1,36.75662483008128,
,,,,0,0,0,0,7,0,7,0,,,time,,,,,,,,,,,,,,,,,,,,,,,,,,,,,,,,,,,,,,,,,,,,,,,,,,,,,,,,,,,,,,,,,,,,,,,,,,,,,,,,,,,,,,,,,,,,,,,,,,,,,,,,,,,,,,,,,,,,206.38744560000487,None,,,,,"[0.6058166484738946, 0.6058166484738946, 0.6058166484738946, 0.6058166484738946]","[554.0901552463837, 3415.702098571066, 851.1901400761296, 483.1844968322204]",None,"[25.788902942437673, 27.205984099293445, 25.42587904797925, 26.0]",True,207.3935429000121,210.24548090000462,210.24548090000462,211.46165150000888,None,1,3.4677881666721078,4.492159566667397,None,1,None,1,,,0,,,,,,,,,,,ttuwra,001,fr,0,0,2022-04-26_11h34.16.499,Cluster,2022.1.1,36.75662483008128,
,,,,0,0,0,0,8,0,8,0,,,none,,,,,,,,,,,,,,,,,,,,,,,,,,,,,,,,,,,,,,,,,,,,,,,,,,,,,,,,,,,,,,,,,,,,,,,,,,,,,,,,,,,,,,,,,,,,,,,,,,,,,,,,,,,,,,,,,,,,211.9124526000087,None,353.5533905932738,19.0,0.0007897582242723967,1,"[0.42502720629486956, 0.7492426812594599, 0.5839000162706898, 0.6872289585311369]","[134.575501260468, 2701.0662236354588, 2496.2725663587776, 751.8346488108845]",None,"[27.64817655585913, 28.958951076732028, 29.22822029262, 25.38904172910234]",False,212.92474070000753,215.71362210001098,215.71362210001098,216.92904790000466,['space'],1,3.4724435666721547,4.506449366672314,None,1,None,1,,[0.29881949999253266],,,,,,,,,,,,ttuwra,001,fr,0,0,2022-04-26_11h34.16.499,Cluster,2022.1.1,36.75662483008128,
,,,,0,0,0,0,9,0,9,0,,,none,,,,,,,,,,,,,,,,,,,,,,,,,,,,,,,,,,,,,,,,,,,,,,,,,,,,,,,,,,,,,,,,,,,,,,,,,,,,,,,,,,,,,,,,,,,,,,,,,,,,,,,,,,,,,,,,,,,,217.472488600004,None,3507.6759925352185,21.205984099293445,0.000865131325114132,1,"[0.6697786156458598, 0.4113765111713954, 0.40091543415666475, 0.5207268499264375]","[2081.4082545879737, 1819.6984596813995, 254.52755794776925, 5952.632395505025]",None,"[29.64975290668494, 29.841789413468156, 24.465335243177176, 18.0]",False,218.48082830000203,220.98387520000688,220.98387520000688,222.1937420000031,['space'],1,3.0250175666587893,4.059597666666377,None,1,None,1,,[0.3862761999916984],,,,,,,,,,,,ttuwra,001,fr,0,0,2022-04-26_11h34.16.499,Cluster,2022.1.1,36.75662483008128,
,,,,0,0,0,0,10,0,10,0,,,frequency,,,,,,,,,,,,,,,,,,,,,,,,,,,,,,,,,,,,,,,,,,,,,,,,,,,,,,,,,,,,,,,,,,,,,,,,,,,,,,,,,,,,,,,,,,,,,,,,,,,,,,,,,,,,,,,,,,,,222.57960730000923,None,176.7766952966369,19.0,0.003119565241000184,1,"[0.5841619554822539, 0.48133320729661516, 0.5506693850144792, 0.6748727655208686]","[280.61551207734334, 250.00000000000006, 222.72467953508487, 198.42513149602496]",Tone,"[24.606844944034993, 24.465335243177176, 25.0, 25.500858518366996]",False,223.6012461000064,226.23052340000868,226.23052340000868,227.4665265000076,['space'],1,3.316285633321968,4.348263833322562,None,1,None,1,,[0.6976950999960536],,,,,,,,,,,,ttuwra,001,fr,0,0,2022-04-26_11h34.16.499,Cluster,2022.1.1,36.75662483008128,
,,,,0,0,0,0,11,0,11,0,,,frequency,,,,,,,,,,,,,,,,,,,,,,,,,,,,,,,,,,,,,,,,,,,,,,,,,,,,,,,,,,,,,,,,,,,,,,,,,,,,,,,,,,,,,,,,,,,,,,,,,,,,,,,,,,,,,,,,,,,,227.98225490000914,None,4745.0269140810815,17.0,0.00095715979415473,0,"[0.5151456562272915, 0.4397476044256136, 0.40159084928437466, 0.7475457466808713]","[2989.1796456842326, 3355.2407078594097, 3766.1303575148636, 4227.338395296245]",Tone,"[28.268439788568884, 27.7872268042997, 26.490680930160096, 25.0]",False,228.99361110001337,231.36863290000474,231.36863290000474,232.58239740000863,None,0,3.124428266659379,4.153357066650642,None,1,None,1,,,,,,,,,,,,,,ttuwra,001,fr,0,0,2022-04-26_11h34.16.499,Cluster,2022.1.1,36.75662483008128,
,,,,0,0,0,0,12,0,12,0,,,time,,,,,,,,,,,,,,,,,,,,,,,,,,,,,,,,,,,,,,,,,,,,,,,,,,,,,,,,,,,,,,,,,,,,,,,,,,,,,,,,,,,,,,,,,,,,,,,,,,,,,,,,,,,,,,,,,,,,233.18383390000963,None,,,,,"[0.6789674013227618, 0.6789674013227618, 0.6789674013227618, 0.6789674013227618]","[1613.91117121744, 205.19900626144127, 159.59946843913016, 1789.427433939783]",None,"[29.546558954001995, 25.500858518366996, 27.100592925878615, 29.769780792544555]",True,234.1874780000071,237.2497241000092,237.2497241000092,238.46341460000258,None,1,3.7333787666575518,4.763322966668056,None,1,None,1,,,0,,,,,,,,,,,ttuwra,001,fr,0,0,2022-04-26_11h34.16.499,Cluster,2022.1.1,36.75662483008128,
,,,,0,0,0,0,13,0,13,0,,,none,,,,,,,,,,,,,,,,,,,,,,,,,,,,,,,,,,,,,,,,,,,,,,,,,,,,,,,,,,,,,,,,,,,,,,,,,,,,,,,,,,,,,,,,,,,,,,,,,,,,,,,,,,,,,,,,,,,,238.97922540000582,None,189.4645708137998,21.0,0.003408826918638871,1,"[0.5315064257826241, 0.4688450095631341, 0.49909064753360877, 0.6007798326621836]","[181.76497912097585, 929.7656184963449, 3161.2428223572842, 1684.5758279910806]",None,"[26.61195803563669, 25.550552382978218, 28.0, 29.769780792544555]",False,239.99669290000747,242.51950130000478,242.51950130000478,243.73171600000933,['space'],1,3.115304966675467,4.153428966674255,None,1,None,1,,[0.2681276999937836],,,,,,,,,,,,ttuwra,001,fr,0,0,2022-04-26_11h34.16.499,Cluster,2022.1.1,36.75662483008128,
,,,,0,0,0,0,14,0,14,0,,,both,,,,,,,,,,,,,,,,,,,,,,,,,,,,,,,,,,,,,,,,,,,,,,,,,,,,,,,,,,,,,,,,,,,,,,,,,,,,,,,,,,,,,,,,,,,,,,,,,,,,,,,,,,,,,,,,,,,,244.20331520000764,None,189.4645708137998,21.0,0.003408826918638871,1,"[0.6612261826422856, 0.6612261826422856, 0.6612261826422856, 0.6612261826422856]","[477.4208019552084, 378.9291416275996, 300.7562590205292, 238.7104009776042]",Major_3rd,"[26.0, 25.849647623110307, 24.88373465489432, 24.653218692910055]",False,245.26267600001302,248.28067710000323,248.28067710000323,249.5167322000052,['space'],1,3.6760702333267545,4.7017381333280355,None,1,None,1,,[0.2874232999893138],,,,,,,,,,,,ttuwra,001,fr,0,0,2022-04-26_11h34.16.499,Cluster,2022.1.1,36.75662483008128,
,,,,0,0,0,0,15,0,15,0,,,both,,,,,,,,,,,,,,,,,,,,,,,,,,,,,,,,,,,,,,,,,,,,,,,,,,,,,,,,,,,,,,,,,,,,,,,,,,,,,,,,,,,,,,,,,,,,,,,,,,,,,,,,,,,,,,,,,,,,250.0067859000119,None,139.3652010294307,21.639725384498178,0.007184201550838704,1,"[0.4590666218684672, 0.4590666218684672, 0.4590666218684672, 0.4590666218684672]","[221.22846672187788, 197.0921574186737, 175.58915039981036, 156.4321490105423]",Tone,"[25.0, 25.500858518366996, 26.61195803563669, 27.4547801860206]",False,251.02092040001298,253.43901310001092,253.43901310001092,254.65039770001022,['space'],1,2.881060266663553,3.9147049666644307,None,1,None,1,,[0.22988169999734964],,,,,,,,,,,,ttuwra,001,fr,0,0,2022-04-26_11h34.16.499,Cluster,2022.1.1,36.75662483008128,
,,,,0,0,0,0,16,0,16,0,,,both,,,,,,,,,,,,,,,,,,,,,,,,,,,,,,,,,,,,,,,,,,,,,,,,,,,,,,,,,,,,,,,,,,,,,,,,,,,,,,,,,,,,,,,,,,,,,,,,,,,,,,,,,,,,,,,,,,,,254.97339110000758,None,,,,,"[0.7822882933184643, 0.7822882933184643, 0.7822882933184643, 0.7822882933184643]","[468.06349703937326, 416.9971695206621, 371.50224379410764, 330.9708727824303]",Tone,"[26.050848273502336, 26.031910949287646, 25.849647623110307, 25.23241404027677]",True,255.9796764000057,259.3663383000094,259.3663383000094,260.57801180001115,None,1,4.1680874666635646,5.203077466663672,None,1,None,1,,,0,,,,,,,,,,,ttuwra,001,fr,0,0,2022-04-26_11h34.16.499,Cluster,2022.1.1,36.75662483008128,
,,,,0,0,0,0,17,0,17,0,,,none,,,,,,,,,,,,,,,,,,,,,,,,,,,,,,,,,,,,,,,,,,,,,,,,,,,,,,,,,,,,,,,,,,,,,,,,,,,,,,,,,,,,,,,,,,,,,,,,,,,,,,,,,,,,,,,,,,,,261.2188649000018,None,2696.7284097634765,22.958951076732028,0.0010357118449250916,0,"[0.7865140872686994, 0.5779812353418525, 0.612734250671862, 0.6178694641640221]","[250.28402403038456, 275.0306715923321, 500.46387650085944, 139.48338949082907]",None,"[24.465335243177176, 24.45503826001906, 25.93370344417099, 27.639725384498178]",False,262.20733720000135,265.1967704000126,265.1967704000126,266.4185504000052,None,0,3.6340313666441943,4.671378866652958,None,1,None,1,,,,,,,,,,,,,,ttuwra,001,fr,0,0,2022-04-26_11h34.16.499,Cluster,2022.1.1,36.75662483008128,
,,,,0,0,0,0,18,0,18,0,,,frequency,,,,,,,,,,,,,,,,,,,,,,,,,,,,,,,,,,,,,,,,,,,,,,,,,,,,,,,,,,,,,,,,,,,,,,,,,,,,,,,,,,,,,,,,,,,,,,,,,,,,,,,,,,,,,,,,,,,,266.91718960000435,None,574.3491774985172,20.0,0.0005984619860562044,1,"[0.7898773963219705, 0.7477687226084042, 0.5572539052482778, 0.6657780961820585]","[361.81730936009427, 406.1261981781175, 455.8612442791081, 511.68694599838716]",Tone,"[25.57041546457009, 26.031910949287646, 26.050848273502336, 25.93370344417099]",False,267.9351772000082,271.06811830001243,271.06811830001243,272.2953877000109,['space'],1,3.767148166676634,4.802660666682641,None,1,None,1,,[0.33396499999798834],,,,,,,,,,,,ttuwra,001,fr,0,0,2022-04-26_11h34.16.499,Cluster,2022.1.1,36.75662483008128,
,,,,0,0,0,0,19,0,19,0,,,both,,,,,,,,,,,,,,,,,,,,,,,,,,,,,,,,,,,,,,,,,,,,,,,,,,,,,,,,,,,,,,,,,,,,,,,,,,,,,,,,,,,,,,,,,,,,,,,,,,,,,,,,,,,,,,,,,,,,272.78800780000165,None,307.7861033362292,16.0,0.0006704780114820167,1,"[0.6136670030577269, 0.6136670030577269, 0.6136670030577269, 0.6136670030577269]","[488.57998421712324, 435.2752816480623, 387.78619045843385, 345.4782199919442]",Tone,"[26.0, 26.094873375709398, 25.849647623110307, 25.57041546457009]",False,273.81128069999977,276.692085600007,276.692085600007,277.9128503000102,['space'],1,3.4918156333296793,4.50300673332822,None,1,None,1,,[0.3159765000018524],,,,,,,,,,,,ttuwra,001,fr,0,0,2022-04-26_11h34.16.499,Cluster,2022.1.1,36.75662483008128,
,,,,1,0,1,0,0,0,0,0,,,none,,,,,,,,,,,,,,,,,,,,,,,,,,,,,,,,,,,,,,,,,,,,,,,,,,,,,,,,,,,,,,,,,,,,,,,,,,,,,,,,,,,,,,,,,,,,,,,,,,,,,,,,,,,,,,,,,,,,285.42630869999994,None,,,,,"[0.669371503999259, 0.5544487590541349, 0.6575354422254398, 0.6206034157882501]","[1263.1709913722743, 1477.8765308743382, 1590.890120790498, 817.9137122581519]",None,"[27.332992356340597, 29.0, 29.546558954001995, 25.383581342819372]",True,286.4020336000103,289.3069736000034,289.3069736000034,290.53203740000026,None,1,3.5415254666586407,4.560373466665624,None,1,None,1,,,0,,,,,,,,,,,ttuwra,001,fr,0,0,2022-04-26_11h34.16.499,Cluster,2022.1.1,36.75662483008128,
,,,,1,0,1,0,1,0,1,0,,,both,,,,,,,,,,,,,,,,,,,,,,,,,,,,,,,,,,,,,,,,,,,,,,,,,,,,,,,,,,,,,,,,,,,,,,,,,,,,,,,,,,,,,,,,,,,,,,,,,,,,,,,,,,,,,,,,,,,,290.99923270000727,None,4847.687862867613,16.262216319791804,0.0009251501172637212,1,"[0.6036140498345263, 0.6036140498345263, 0.6036140498345263, 0.6036140498345263]","[961.9031016411903, 1441.2262244586254, 2159.399451486619, 3235.4434799660253]",Perfect_5th,"[25.550552382978218, 28.623583972636972, 29.64975290668494, 27.7872268042997]",False,292.006114600008,294.84018830000423,294.84018830000423,296.0669743000035,['space'],1,3.4432442666584393,4.4638138666632585,None,1,None,1,,[0.3794125999993412],,,,,,,,,,,,ttuwra,001,fr,0,0,2022-04-26_11h34.16.499,Cluster,2022.1.1,36.75662483008128,
,,,,1,0,1,0,2,0,2,0,,,time,,,,,,,,,,,,,,,,,,,,,,,,,,,,,,,,,,,,,,,,,,,,,,,,,,,,,,,,,,,,,,,,,,,,,,,,,,,,,,,,,,,,,,,,,,,,,,,,,,,,,,,,,,,,,,,,,,,,296.5110341000109,None,189.4645708137998,21.0,0.003408826918638871,1,"[0.673230983595307, 0.673230983595307, 0.673230983595307, 0.673230983595307]","[6312.294573366793, 129.31965055931667, 195.65773855308814, 672.3815759829057]",None,"[17.0, 27.49372105900766, 26.0, 25.470120899588693]",False,297.5339279000036,300.5759034000075,300.5759034000075,301.81879330000083,['space'],1,3.7204235333338147,4.748374233342474,None,1,None,1,,[0.31804990000091493],,,,,,,,,,,,ttuwra,001,fr,0,0,2022-04-26_11h34.16.499,Cluster,2022.1.1,36.75662483008128,
,,,,1,0,1,0,3,0,3,0,,,none,,,,,,,,,,,,,,,,,,,,,,,,,,,,,,,,,,,,,,,,,,,,,,,,,,,,,,,,,,,,,,,,,,,,,,,,,,,,,,,,,,,,,,,,,,,,,,,,,,,,,,,,,,,,,,,,,,,,302.3125294000056,None,615.5722066724584,18.0,0.0004242935302955497,0,"[0.6689225518621407, 0.6218154127409672, 0.421656582615922, 0.4536101003080879]","[956.360535201731, 6534.3520633568605, 197.87239848643014, 454.2221531581083]",None,"[25.550552382978218, 16.571895402035647, 25.500858518366996, 26.050848273502336]",False,303.3333827000024,306.0672512000019,306.0672512000019,307.306413000013,None,0,3.17098816667567,4.190549766673939,None,1,None,1,,,,,,,,,,,,,,ttuwra,001,fr,0,0,2022-04-26_11h34.16.499,Cluster,2022.1.1,36.75662483008128,
,,,,1,0,1,0,4,0,4,0,,,frequency,,,,,,,,,,,,,,,,,,,,,,,,,,,,,,,,,,,,,,,,,,,,,,,,,,,,,,,,,,,,,,,,,,,,,,,,,,,,,,,,,,,,,,,,,,,,,,,,,,,,,,,,,,,,,,,,,,,,307.5695795000065,None,,,,,"[0.7104602414616208, 0.7435528990098559, 0.6663652283770952, 0.4935121364337571]","[674.2084298188149, 849.4493927452951, 1070.2391707402146, 1348.4168596376294]",Major_3rd,"[25.470120899588693, 25.42587904797925, 26.186896755875843, 28.0]",True,308.5621938000113,311.7111092000123,311.7111092000123,312.9254193000088,None,1,3.657440166658489,4.679756766665378,None,1,None,1,,,0,,,,,,,,,,,ttuwra,001,fr,0,0,2022-04-26_11h34.16.499,Cluster,2022.1.1,36.75662483008128,
,,,,1,0,1,0,5,0,5,0,,,both,,,,,,,,,,,,,,,,,,,,,,,,,,,,,,,,,,,,,,,,,,,,,,,,,,,,,,,,,,,,,,,,,,,,,,,,,,,,,,,,,,,,,,,,,,,,,,,,,,,,,,,,,,,,,,,,,,,,313.2789085000113,None,2828.42712474619,21.0,0.000734764626542459,1,"[0.42495810911766946, 0.42495810911766946, 0.42495810911766946, 0.42495810911766946]","[4489.848193237493, 4000.000000000001, 3563.594872561358, 3174.8021039363994]",Tone,"[24.0, 25.641664062083585, 27.0, 28.0]",False,314.27687990000413,316.57209500001045,316.57209500001045,317.79237130000547,['space'],1,2.734117733343737,3.7465597333502956,None,1,None,1,,[0.3375175999972271],,,,,,,,,,,,ttuwra,001,fr,0,0,2022-04-26_11h34.16.499,Cluster,2022.1.1,36.75662483008128,
,,,,1,0,1,0,6,0,6,0,,,frequency,,,,,,,,,,,,,,,,,,,,,,,,,,,,,,,,,,,,,,,,,,,,,,,,,,,,,,,,,,,,,,,,,,,,,,,,,,,,,,,,,,,,,,,,,,,,,,,,,,,,,,,,,,,,,,,,,,,,318.05732510000234,None,421.9458493448803,20.094873375709398,0.000762614599148252,1,"[0.45607128583538564, 0.7379485613843045, 0.4715110834848969, 0.6679529140530318]","[265.8092287526928, 298.36077136528223, 334.8986425618392, 375.9110163059906]",Tone,"[24.45503826001906, 24.88373465489432, 25.23241404027677, 25.849647623110307]",False,319.06842520000646,321.7735881000117,321.7735881000117,322.9981834000064,['space'],1,3.3537256666604662,4.392218266657437,None,1,None,1,,[0.33298379999177996],,,,,,,,,,,,ttuwra,001,fr,0,0,2022-04-26_11h34.16.499,Cluster,2022.1.1,36.75662483008128,
,,,,1,0,1,0,7,0,7,0,,,time,,,,,,,,,,,,,,,,,,,,,,,,,,,,,,,,,,,,,,,,,,,,,,,,,,,,,,,,,,,,,,,,,,,,,,,,,,,,,,,,,,,,,,,,,,,,,,,,,,,,,,,,,,,,,,,,,,,,323.5023352000135,None,501.29283448740546,19.93370344417099,0.0007070131057910307,1,"[0.4059597636587786, 0.4059597636587786, 0.4059597636587786, 0.4059597636587786]","[3662.700482870005, 3002.3437764035925, 2885.0866235846634, 4557.040592931506]",None,"[26.490680930160096, 28.268439788568884, 28.64606431841785, 23.527401216238587]",False,324.51693350001005,326.7519387000066,326.7519387000066,327.9757918000105,['space'],1,2.6429211666691117,3.660120166663546,None,1,None,1,,[0.31418839999241754],,,,,,,,,,,,ttuwra,001,fr,0,0,2022-04-26_11h34.16.499,Cluster,2022.1.1,36.75662483008128,
,,,,1,0,1,0,8,0,8,0,,,frequency,,,,,,,,,,,,,,,,,,,,,,,,,,,,,,,,,,,,,,,,,,,,,,,,,,,,,,,,,,,,,,,,,,,,,,,,,,,,,,,,,,,,,,,,,,,,,,,,,,,,,,,,,,,,,,,,,,,,328.2189260000014,None,,,,,"[0.4600355390174388, 0.6112841057577327, 0.5201215409009867, 0.4537350715369574]","[6629.552076041339, 5261.8789697929915, 4176.35610598937, 3314.7760380206696]",Major_3rd,"[16.0, 20.868317207695284, 25.0, 27.7872268042997]",True,329.23132000000624,331.84924010001123,331.84924010001123,333.060621800003,None,1,3.06202036664763,4.087849866657052,None,1,None,1,,,0,,,,,,,,,,,ttuwra,001,fr,0,0,2022-04-26_11h34.16.499,Cluster,2022.1.1,36.75662483008128,
,,,,1,0,1,0,9,0,9,0,,,frequency,,,,,,,,,,,,,,,,,,,,,,,,,,,,,,,,,,,,,,,,,,,,,,,,,,,,,,,,,,,,,,,,,,,,,,,,,,,,,,,,,,,,,,,,,,,,,,,,,,,,,,,,,,,,,,,,,,,,333.35444819999975,None,8000.0,9.0,0.0005116464961403772,1,"[0.42957982482821766, 0.7102299125957489, 0.5924624651457475, 0.6765178606585226]","[3174.8021039364003, 4000.0000000000014, 5039.684199579494, 6349.604207872799]",Major_3rd,"[28.0, 25.641664062083585, 22.0, 17.0]",False,334.384773400001,337.1307610000076,337.1307610000076,338.3550666000083,['space'],1,3.4209553333348595,4.45492863333493,None,1,None,1,,[0.2742028999928152],,,,,,,,,,,,ttuwra,001,fr,0,0,2022-04-26_11h34.16.499,Cluster,2022.1.1,36.75662483008128,
,,,,1,0,1,0,10,0,10,0,,,frequency,,,,,,,,,,,,,,,,,,,,,,,,,,,,,,,,,,,,,,,,,,,,,,,,,,,,,,,,,,,,,,,,,,,,,,,,,,,,,,,,,,,,,,,,,,,,,,,,,,,,,,,,,,,,,,,,,,,,338.88288810000813,None,2242.986914996456,23.45727754036458,0.0011940655635577651,1,"[0.5645005050223325, 0.6218970525348378, 0.4353736792392138, 0.5414428130869497]","[3560.5197884162812, 3172.062515413377, 2825.9864288427975, 2517.6676869380435]",Tone,"[27.0, 28.0, 28.64606431841785, 29.22822029262]",False,339.88511620000645,342.53048030000355,342.53048030000355,343.76749110000674,['space'],1,3.1793939666531514,4.208193766651675,None,1,None,1,,[0.2500302999978885],,,,,,,,,,,,ttuwra,001,fr,0,0,2022-04-26_11h34.16.499,Cluster,2022.1.1,36.75662483008128,
,,,,1,0,1,0,11,0,11,0,,,both,,,,,,,,,,,,,,,,,,,,,,,,,,,,,,,,,,,,,,,,,,,,,,,,,,,,,,,,,,,,,,,,,,,,,,,,,,,,,,,,,,,,,,,,,,,,,,,,,,,,,,,,,,,,,,,,,,,,344.1422234000056,None,5318.341370480795,14.868317207695284,0.0007810087619804282,0,"[0.42688224483314713, 0.42688224483314713, 0.42688224483314713, 0.42688224483314713]","[1055.2925857784012, 1581.152349447271, 2369.051754797038, 3549.5670096995227]",Perfect_5th,"[26.186896755875843, 29.546558954001995, 29.45727754036458, 27.0]",False,345.16050610000093,347.45868260000134,347.45868260000134,348.6841132000118,None,0,2.736859466662281,3.7617920666671125,None,1,None,1,,,,,,,,,,,,,,ttuwra,001,fr,0,0,2022-04-26_11h34.16.499,Cluster,2022.1.1,36.75662483008128,
,,,,1,0,1,0,12,0,12,0,,,time,,,,,,,,,,,,,,,,,,,,,,,,,,,,,,,,,,,,,,,,,,,,,,,,,,,,,,,,,,,,,,,,,,,,,,,,,,,,,,,,,,,,,,,,,,,,,,,,,,,,,,,,,,,,,,,,,,,,348.96497400000226,None,,,,,"[0.7056142764647501, 0.7056142764647501, 0.7056142764647501, 0.7056142764647501]","[713.2525722758664, 5060.944883743341, 1806.4364001846036, 1841.6089293437744]",None,"[25.419866646430975, 22.0, 29.841789413468156, 29.841789413468156]",True,349.9848025000101,353.1254883000074,353.1254883000074,354.3376384000003,None,1,3.87373166665202,4.898437766649295,None,1,None,1,,,0,,,,,,,,,,,ttuwra,001,fr,0,0,2022-04-26_11h34.16.499,Cluster,2022.1.1,36.75662483008128,
,,,,1,0,1,0,13,0,13,0,,,time,,,,,,,,,,,,,,,,,,,,,,,,,,,,,,,,,,,,,,,,,,,,,,,,,,,,,,,,,,,,,,,,,,,,,,,,,,,,,,,,,,,,,,,,,,,,,,,,,,,,,,,,,,,,,,,,,,,,354.9194828000036,None,307.7861033362292,16.0,0.0006704780114820167,0,"[0.6727754654485576, 0.6727754654485576, 0.6727754654485576, 0.6727754654485576]","[5313.109094660757, 2069.376837152873, 752.3901409529421, 1531.351639948971]",None,"[20.868317207695284, 29.789018856764294, 25.38904172910234, 29.16105476387758]",False,355.9259821000014,358.9797285000095,358.9797285000095,360.21560030001274,None,0,3.728319833346177,4.756780533338315,None,1,None,1,,,,,,,,,,,,,,ttuwra,001,fr,0,0,2022-04-26_11h34.16.499,Cluster,2022.1.1,36.75662483008128,
,,,,1,0,1,0,14,0,14,0,,,time,,,,,,,,,,,,,,,,,,,,,,,,,,,,,,,,,,,,,,,,,,,,,,,,,,,,,,,,,,,,,,,,,,,,,,,,,,,,,,,,,,,,,,,,,,,,,,,,,,,,,,,,,,,,,,,,,,,,360.72732870001346,None,215.64622812306175,19.01355675944965,0.002095821380127779,1,"[0.5091151369785284, 0.5091151369785284, 0.5091151369785284, 0.5091151369785284]","[520.5853060384775, 819.9355565431181, 188.73615226324083, 131.47455746463504]",None,"[25.788902942437673, 25.383581342819372, 26.05866239498316, 27.64817655585913]",False,361.7316007000045,364.2961981000117,364.2961981000117,365.50897220001207,['space'],1,3.0560348666622303,4.091225966665661,None,1,None,1,,[0.38342009999905713],,,,,,,,,,,,ttuwra,001,fr,0,0,2022-04-26_11h34.16.499,Cluster,2022.1.1,36.75662483008128,
,,,,1,0,1,0,15,0,15,0,,,time,,,,,,,,,,,,,,,,,,,,,,,,,,,,,,,,,,,,,,,,,,,,,,,,,,,,,,,,,,,,,,,,,,,,,,,,,,,,,,,,,,,,,,,,,,,,,,,,,,,,,,,,,,,,,,,,,,,,365.86648330000753,None,3482.202253184498,20.0,0.0007485072584861476,1,"[0.5899972247422557, 0.5899972247422557, 0.5899972247422557, 0.5899972247422557]","[424.0430093992194, 3675.42924332418, 133.75942321602759, 1790.0249808376664]",None,"[26.094873375709398, 26.490680930160096, 27.64817655585913, 29.769780792544555]",False,367.5739709000045,370.36996160000854,370.36996160000854,371.5892613000033,['space'],1,3.3769878666644217,4.412744866654975,None,1,None,1,,[0.4023216999921715],,,,,,,,,,,,ttuwra,001,fr,0,0,2022-04-26_11h34.16.499,Cluster,2022.1.1,36.75662483008128,
,,,,1,0,1,0,16,0,16,0,,,frequency,,,,,,,,,,,,,,,,,,,,,,,,,,,,,,,,,,,,,,,,,,,,,,,,,,,,,,,,,,,,,,,,,,,,,,,,,,,,,,,,,,,,,,,,,,,,,,,,,,,,,,,,,,,,,,,,,,,,372.0407518000138,None,,,,,"[0.5143758035701909, 0.6446456712887442, 0.6747670963786416, 0.6769860333928082]","[5296.696378145666, 4718.820013668552, 4203.990701312291, 3745.3299268730257]",Tone,"[20.868317207695284, 23.0, 25.0, 26.490680930160096]",True,373.0331712000043,375.8906268000137,375.8906268000137,377.1240325000108,None,1,3.5343753666529665,4.5613734666549135,None,1,None,1,,,0,,,,,,,,,,,ttuwra,001,fr,0,0,2022-04-26_11h34.16.499,Cluster,2022.1.1,36.75662483008128,
,,,,1,0,1,0,17,0,17,0,,,both,,,,,,,,,,,,,,,,,,,,,,,,,,,,,,,,,,,,,,,,,,,,,,,,,,,,,,,,,,,,,,,,,,,,,,,,,,,,,,,,,,,,,,,,,,,,,,,,,,,,,,,,,,,,,,,,,,,,377.63122570000996,None,1231.1444133449168,17.0,0.00038031236666942936,0,"[0.6664339398406196, 0.6664339398406196, 0.6664339398406196, 0.6664339398406196]","[775.5723809168675, 870.5505632961243, 977.1599684342463, 1096.8249796946263]",Tone,"[25.38904172910234, 25.42587904797925, 25.79433112672813, 26.186896755875843]",False,378.6610964000138,381.67636570001196,381.67636570001196,382.9107759000035,None,0,3.6801628666580655,4.700848266656976,None,1,None,1,,,,,,,,,,,,,,ttuwra,001,fr,0,0,2022-04-26_11h34.16.499,Cluster,2022.1.1,36.75662483008128,
,,,,1,0,1,0,18,0,18,0,,,frequency,,,,,,,,,,,,,,,,,,,,,,,,,,,,,,,,,,,,,,,,,,,,,,,,,,,,,,,,,,,,,,,,,,,,,,,,,,,,,,,,,,,,,,,,,,,,,,,,,,,,,,,,,,,,,,,,,,,,383.41737740000826,None,1319.5079107728945,19.0,0.00047043407166894334,1,"[0.7972178206046612, 0.570968259518622, 0.6474589968731185, 0.7669489920150703]","[3324.9515845711526, 2639.0158215457895, 2094.588245641254, 1662.475792285576]",Major_3rd,"[27.7872268042997, 28.958951076732028, 29.64975290668494, 29.546558954001995]",False,384.4323091000115,387.47482310001215,387.47482310001215,388.70677990000695,['space'],1,3.8077445333474316,4.845186433347408,None,1,None,1,,[0.3866022000001976],,,,,,,,,,,,ttuwra,001,fr,0,0,2022-04-26_11h34.16.499,Cluster,2022.1.1,36.75662483008128,
,,,,1,0,1,0,19,0,19,0,,,both,,,,,,,,,,,,,,,,,,,,,,,,,,,,,,,,,,,,,,,,,,,,,,,,,,,,,,,,,,,,,,,,,,,,,,,,,,,,,,,,,,,,,,,,,,,,,,,,,,,,,,,,,,,,,,,,,,,,389.3177275000053,None,1655.3940457572635,23.546558954001995,0.0008913107784921823,1,"[0.5373502971605103, 0.5373502971605103, 0.5373502971605103, 0.5373502971605103]","[2627.774249656975, 2341.0807105815907, 2085.6658041202136, 1858.116991359838]",Tone,"[28.958951076732028, 29.45727754036458, 29.64975290668494, 29.841789413468156]",False,390.3086875000008,392.943852700002,392.943852700002,394.16000200000417,['space'],1,3.1889524666476063,4.200682666647481,None,1,None,1,,[0.25023560000408906],,,,,,,,,,,,ttuwra,001,fr,0,0,2022-04-26_11h34.16.499,Cluster,2022.1.1,36.75662483008128,
,,,,2,0,2,0,0,0,0,0,,,time,,,,,,,,,,,,,,,,,,,,,,,,,,,,,,,,,,,,,,,,,,,,,,,,,,,,,,,,,,,,,,,,,,,,,,,,,,,,,,,,,,,,,,,,,,,,,,,,,,,,,,,,,,,,,,,,,,,,398.65467550000176,None,561.8489793297839,19.652914047237584,0.0005937555915930754,1,"[0.6320848921889685, 0.6320848921889685, 0.6320848921889685, 0.6320848921889685]","[663.5263817692795, 3511.181611022876, 7758.447413579009, 4545.117473936696]",None,"[25.470120899588693, 27.205984099293445, 14.161888987513503, 23.527401216238587]",False,399.637561200012,402.5687584000116,402.5687584000116,403.770368700003,['space'],1,3.5555042666528607,4.588091066645575,None,1,None,1,,[0.3941766999923857],,,,,,,,,,,,ttuwra,001,fr,0,0,2022-04-26_11h34.16.499,Cluster,2022.1.1,36.75662483008128,
,,,,2,0,2,0,1,0,1,0,,,frequency,,,,,,,,,,,,,,,,,,,,,,,,,,,,,,,,,,,,,,,,,,,,,,,,,,,,,,,,,,,,,,,,,,,,,,,,,,,,,,,,,,,,,,,,,,,,,,,,,,,,,,,,,,,,,,,,,,,,404.2736115000007,None,,,,,"[0.6483277359345437, 0.6030191964006828, 0.7096453593165811, 0.42639414553502397]","[1521.8741437152385, 2280.2347996441817, 3416.491937247359, 5118.954047669841]",Perfect_5th,"[29.16105476387758, 29.45727754036458, 27.205984099293445, 21.0]",True,405.25987390000955,408.25833120000607,408.25833120000607,409.4756017000036,None,1,3.4083094666566467,4.4326927666552365,None,1,None,1,,,0,,,,,,,,,,,ttuwra,001,fr,0,0,2022-04-26_11h34.16.499,Cluster,2022.1.1,36.75662483008128,
,,,,2,0,2,0,2,0,2,0,,,frequency,,,,,,,,,,,,,,,,,,,,,,,,,,,,,,,,,,,,,,,,,,,,,,,,,,,,,,,,,,,,,,,,,,,,,,,,,,,,,,,,,,,,,,,,,,,,,,,,,,,,,,,,,,,,,,,,,,,,409.7216172000044,None,2710.775989568773,22.958951076732028,0.0010234391084020108,1,"[0.5588342488440096, 0.7243208709798048, 0.723958656433521, 0.7236066976206823]","[6830.727461614605, 5421.551979137546, 4303.088657491608, 3415.3637308073025]",Major_3rd,"[16.0, 20.0, 24.655004808211313, 27.205984099293445]",False,410.73751740000444,413.76152560001356,413.76152560001356,414.99572890000127,['space'],1,3.7479710666666506,4.779616266663652,None,1,None,1,,[0.30162660000496544],,,,,,,,,,,,ttuwra,001,fr,0,0,2022-04-26_11h34.16.499,Cluster,2022.1.1,36.75662483008128,
,,,,2,0,2,0,3,0,3,0,,,none,,,,,,,,,,,,,,,,,,,,,,,,,,,,,,,,,,,,,,,,,,,,,,,,,,,,,,,,,,,,,,,,,,,,,,,,,,,,,,,,,,,,,,,,,,,,,,,,,,,,,,,,,,,,,,,,,,,,415.567566800004,None,163.02296418991304,21.100592925878615,0.004541621733597815,1,"[0.6609234764689362, 0.6108536552935353, 0.5057981347701445, 0.6839565520233837]","[169.207482385154, 4220.896705061533, 1596.6687910343187, 425.0840468786349]",None,"[27.0, 25.0, 29.546558954001995, 26.094873375709398]",False,416.57217330001004,419.35396610001044,419.35396610001044,420.58668190000753,['space'],1,3.4842288666550303,4.515452766660019,None,1,None,1,,[0.3461615999985952],,,,,,,,,,,,ttuwra,001,fr,0,0,2022-04-26_11h34.16.499,Cluster,2022.1.1,36.75662483008128,
,,,,2,0,2,0,4,0,4,0,,,none,,,,,,,,,,,,,,,,,,,,,,,,,,,,,,,,,,,,,,,,,,,,,,,,,,,,,,,,,,,,,,,,,,,,,,,,,,,,,,,,,,,,,,,,,,,,,,,,,,,,,,,,,,,,,,,,,,,,421.1339921000035,None,1231.1444133449168,16.0,0.0003389537535779939,1,"[0.6901369898507811, 0.58749485136807, 0.44224314805733855, 0.7157675442562654]","[711.4246660404491, 439.4490124546295, 1387.278775241114, 249.03892950007233]",None,"[25.419866646430975, 26.094873375709398, 28.623583972636972, 24.465335243177176]",False,422.81456770001387,425.5752514000051,425.5752514000051,426.815577100002,['space'],1,3.4644903000007616,4.508037099993089,None,1,None,1,,[0.1563882000045851],,,,,,,,,,,,ttuwra,001,fr,0,0,2022-04-26_11h34.16.499,Cluster,2022.1.1,36.75662483008128,
,,,,2,0,2,0,5,0,5,0,,,both,,,,,,,,,,,,,,,,,,,,,,,,,,,,,,,,,,,,,,,,,,,,,,,,,,,,,,,,,,,,,,,,,,,,,,,,,,,,,,,,,,,,,,,,,,,,,,,,,,,,,,,,,,,,,,,,,,,,427.37007640000957,None,659.7539553864473,17.0,0.00034374622581541365,0,"[0.7164851743926379, 0.7164851743926379, 0.7164851743926379, 0.7164851743926379]","[415.6189480713939, 466.51649576840373, 523.6470614103134, 587.7739531418044]",Tone,"[26.031910949287646, 26.050848273502336, 25.788902942437673, 25.652914047237584]",False,428.3716790000035,431.5683390000049,431.5683390000049,432.8147370000079,None,0,3.8821946666721487,4.901679166665417,None,1,None,1,,,,,,,,,,,,,,ttuwra,001,fr,0,0,2022-04-26_11h34.16.499,Cluster,2022.1.1,36.75662483008128,
,,,,2,0,2,0,6,0,6,0,,,both,,,,,,,,,,,,,,,,,,,,,,,,,,,,,,,,,,,,,,,,,,,,,,,,,,,,,,,,,,,,,,,,,,,,,,,,,,,,,,,,,,,,,,,,,,,,,,,,,,,,,,,,,,,,,,,,,,,,433.32382420000795,None,,,,,"[0.6923705047835934, 0.6923705047835934, 0.6923705047835934, 0.6923705047835934]","[722.3276090775663, 482.09584018204407, 321.76037050228996, 214.74928301948648]",Perfect_5th,"[25.419866646430975, 26.0, 25.0, 25.01355675944965]",True,434.318995300011,437.42712560000655,437.42712560000655,438.6471712000057,None,1,3.804489566668053,4.839381966667133,None,1,None,1,,,0,,,,,,,,,,,ttuwra,001,fr,0,0,2022-04-26_11h34.16.499,Cluster,2022.1.1,36.75662483008128,
,,,,2,0,2,0,7,0,7,0,,,time,,,,,,,,,,,,,,,,,,,,,,,,,,,,,,,,,,,,,,,,,,,,,,,,,,,,,,,,,,,,,,,,,,,,,,,,,,,,,,,,,,,,,,,,,,,,,,,,,,,,,,,,,,,,,,,,,,,,439.1931526000117,None,1319.5079107728945,19.0,0.00047043407166894334,1,"[0.5416169369377346, 0.5416169369377346, 0.5416169369377346, 0.5416169369377346]","[4284.771060757715, 1334.0363674365462, 4923.422084903735, 1373.5119348363728]",None,"[24.655004808211313, 28.0, 22.262216319791804, 28.623583972636972]",False,440.21687880001264,442.8624310000014,442.8624310000014,444.09276540001156,['space'],1,3.197527866665041,4.232595566674718,None,1,None,1,,[0.3350427999976091],,,,,,,,,,,,ttuwra,001,fr,0,0,2022-04-26_11h34.16.499,Cluster,2022.1.1,36.75662483008128,
,,,,2,0,2,0,8,0,8,0,,,both,,,,,,,,,,,,,,,,,,,,,,,,,,,,,,,,,,,,,,,,,,,,,,,,,,,,,,,,,,,,,,,,,,,,,,,,,,,,,,,,,,,,,,,,,,,,,,,,,,,,,,,,,,,,,,,,,,,,444.50816390001273,None,5761.246857944469,13.0,0.0005568986166835388,0,"[0.7216510693688829, 0.7216510693688829, 0.7216510693688829, 0.7216510693688829]","[1143.176165368692, 1712.8289386886586, 2566.3437203163926, 3845.1709578480823]",Perfect_5th,"[26.70514406971935, 29.769780792544555, 29.0, 26.0]",False,445.5030334000039,448.7020610000036,448.7020610000036,449.91546010000457,None,0,3.9141336666507414,4.949007666655234,None,1,None,1,,,,,,,,,,,,,,ttuwra,001,fr,0,0,2022-04-26_11h34.16.499,Cluster,2022.1.1,36.75662483008128,
,,,,2,0,2,0,9,0,9,0,,,frequency,,,,,,,,,,,,,,,,,,,,,,,,,,,,,,,,,,,,,,,,,,,,,,,,,,,,,,,,,,,,,,,,,,,,,,,,,,,,,,,,,,,,,,,,,,,,,,,,,,,,,,,,,,,,,,,,,,,,450.4957959000021,None,3732.1319661472303,20.0,0.0007923801780976663,1,"[0.46346523740855333, 0.4399244521671326, 0.5707008951373225, 0.5292183319363293]","[5924.390209146259, 5278.031643091578, 4702.1916251344355, 4189.176491282507]",Tone,"[18.0, 20.868317207695284, 23.0, 25.0]",False,451.5243033000006,454.0349477000127,454.0349477000127,455.24566810000397,['space'],1,3.035276533322758,4.065361133325496,None,1,None,1,,[0.33650229999329895],,,,,,,,,,,,ttuwra,001,fr,0,0,2022-04-26_11h34.16.499,Cluster,2022.1.1,36.75662483008128,
,,,,2,0,2,0,10,0,10,0,,,none,,,,,,,,,,,,,,,,,,,,,,,,,,,,,,,,,,,,,,,,,,,,,,,,,,,,,,,,,,,,,,,,,,,,,,,,,,,,,,,,,,,,,,,,,,,,,,,,,,,,,,,,,,,,,,,,,,,,455.62626360000286,None,1571.1261708516868,23.546558954001995,0.0008169923516961754,1,"[0.6475761756922402, 0.6562280151437923, 0.5351216589400101, 0.49876878232071975]","[808.4609542755112, 698.9570910063559, 1196.5834332747322, 1058.5332345808831]",None,"[25.383581342819372, 25.419866646430975, 27.0, 26.186896755875843]",False,456.627944900014,459.493309100013,459.493309100013,460.70964320001076,['space'],1,3.3653302666789386,4.3930286666727625,None,1,None,1,,[0.2816464000061387],,,,,,,,,,,,ttuwra,001,fr,0,0,2022-04-26_11h34.16.499,Cluster,2022.1.1,36.75662483008128,
,,,,2,0,2,0,11,0,11,0,,,none,,,,,,,,,,,,,,,,,,,,,,,,,,,,,,,,,,,,,,,,,,,,,,,,,,,,,,,,,,,,,,,,,,,,,,,,,,,,,,,,,,,,,,,,,,,,,,,,,,,,,,,,,,,,,,,,,,,,461.05914690000645,None,,,,,"[0.734191146889831, 0.5000109959357598, 0.5591096695901144, 0.6722019013331693]","[2227.0313478161465, 6681.352054174514, 2530.4794883044897, 207.69373559863445]",None,"[29.45727754036458, 16.0, 29.22822029262, 25.500858518366996]",True,462.0612836000073,464.8922151000006,464.8922151000006,466.1141518000077,None,1,3.497804766651825,4.5224202666577185,None,1,None,1,,,0,,,,,,,,,,,ttuwra,001,fr,0,0,2022-04-26_11h34.16.499,Cluster,2022.1.1,36.75662483008128,
,,,,2,0,2,0,12,0,12,0,,,both,,,,,,,,,,,,,,,,,,,,,,,,,,,,,,,,,,,,,,,,,,,,,,,,,,,,,,,,,,,,,,,,,,,,,,,,,,,,,,,,,,,,,,,,,,,,,,,,,,,,,,,,,,,,,,,,,,,,466.62823860000935,None,406.12619817811805,14.0,0.0003821118841650657,1,"[0.4696997438165723, 0.4696997438165723, 0.4696997438165723, 0.4696997438165723]","[2046.7477839935516, 1366.0402567543968, 911.7224885582176, 608.501756835296]",Perfect_5th,"[29.789018856764294, 28.0, 25.550552382978218, 25.545558910866454]",False,467.64569490001304,470.0695611000119,470.0695611000119,471.3006599000073,['space'],1,2.910519433338777,3.9436453333328245,None,1,None,1,,[0.3916280999837909],,,,,,,,,,,,ttuwra,001,fr,0,0,2022-04-26_11h34.16.499,Cluster,2022.1.1,36.75662483008128,
,,,,2,0,2,0,13,0,13,0,,,both,,,,,,,,,,,,,,,,,,,,,,,,,,,,,,,,,,,,,,,,,,,,,,,,,,,,,,,,,,,,,,,,,,,,,,,,,,,,,,,,,,,,,,,,,,,,,,,,,,,,,,,,,,,,,,,,,,,,471.62305670000205,None,4032.128208531637,19.641664062083585,0.0008266897767524693,1,"[0.6968960808837839, 0.6968960808837839, 0.6968960808837839, 0.6968960808837839]","[6400.6045598937735, 5702.290397732573, 5080.163205803915, 4525.910887994424]",Tone,"[17.0, 19.409209796277565, 22.0, 24.0]",False,472.6254093000025,475.7269759000046,475.7269759000046,476.94292800000403,['space'],1,3.828745066683041,4.850574066673289,None,1,None,1,,[0.33343290000630077],,,,,,,,,,,,ttuwra,001,fr,0,0,2022-04-26_11h34.16.499,Cluster,2022.1.1,36.75662483008128,
,,,,2,0,2,0,14,0,14,0,,,none,,,,,,,,,,,,,,,,,,,,,,,,,,,,,,,,,,,,,,,,,,,,,,,,,,,,,,,,,,,,,,,,,,,,,,,,,,,,,,,,,,,,,,,,,,,,,,,,,,,,,,,,,,,,,,,,,,,,477.529912900005,None,435.2752816480623,17.0,0.0005292030719125924,1,"[0.7644309635474024, 0.5938104911780282, 0.6747626555668003, 0.7188032706971099]","[6237.190752924951, 146.89031932077816, 2166.7213386131375, 212.002936410762]",None,"[17.0, 27.639725384498178, 29.64975290668494, 25.01355675944965]",False,478.60770080001384,481.6523551999999,481.6523551999999,482.8899192000099,['space'],1,3.7846757333463756,4.812249133348814,None,1,None,1,,[0.25843149999855086],,,,,,,,,,,,ttuwra,001,fr,0,0,2022-04-26_11h34.16.499,Cluster,2022.1.1,36.75662483008128,
,,,,2,0,2,0,15,0,15,0,,,both,,,,,,,,,,,,,,,,,,,,,,,,,,,,,,,,,,,,,,,,,,,,,,,,,,,,,,,,,,,,,,,,,,,,,,,,,,,,,,,,,,,,,,,,,,,,,,,,,,,,,,,,,,,,,,,,,,,,483.4640298000013,None,189.4645708137998,16.0,0.001916924246771917,0,"[0.590903392081612, 0.590903392081612, 0.590903392081612, 0.590903392081612]","[477.4208019552084, 378.9291416275996, 300.7562590205292, 238.7104009776042]",Major_3rd,"[26.0, 25.849647623110307, 24.88373465489432, 24.653218692910055]",False,484.4829160000081,487.2902857000008,487.2902857000008,488.53576760001306,None,0,3.4055364333471516,4.427678233347251,None,1,None,1,,,,,,,,,,,,,,ttuwra,001,fr,0,0,2022-04-26_11h34.16.499,Cluster,2022.1.1,36.75662483008128,
,,,,2,0,2,0,16,0,16,0,,,frequency,,,,,,,,,,,,,,,,,,,,,,,,,,,,,,,,,,,,,,,,,,,,,,,,,,,,,,,,,,,,,,,,,,,,,,,,,,,,,,,,,,,,,,,,,,,,,,,,,,,,,,,,,,,,,,,,,,,,488.94783570000436,None,1023.4798953898149,20.0,0.00045034540143452446,0,"[0.7223178691371299, 0.47765124943286796, 0.517778630350695, 0.6114306130736615]","[1624.6730626100953, 1447.419148876473, 1289.5038643458306, 1148.8173397827145]",Tone,"[29.546558954001995, 28.623583972636972, 27.993129379184833, 26.70514406971935]",False,489.9513227000134,492.69444400000793,492.69444400000793,493.9082244000019,None,0,3.3578533666586736,4.374259966658428,None,1,None,1,,,,,,,,,,,,,,ttuwra,001,fr,0,0,2022-04-26_11h34.16.499,Cluster,2022.1.1,36.75662483008128,
,,,,2,0,2,0,17,0,17,0,,,frequency,,,,,,,,,,,,,,,,,,,,,,,,,,,,,,,,,,,,,,,,,,,,,,,,,,,,,,,,,,,,,,,,,,,,,,,,,,,,,,,,,,,,,,,,,,,,,,,,,,,,,,,,,,,,,,,,,,,,494.37687770000775,None,707.1067811865476,17.0,0.0003143487978586953,0,"[0.7099232178542179, 0.46358209117788923, 0.6371690320344936, 0.706510196259688]","[140.30775603867164, 210.22410381342866, 314.9802624737183, 471.93715634084674]",Perfect_5th,"[27.639725384498178, 25.500858518366996, 25.0, 26.050848273502336]",False,496.2047636000061,499.0292355000129,499.0292355000129,500.23363940000127,None,0,3.5467790333204903,4.558095633328776,None,1,None,1,,,,,,,,,,,,,,ttuwra,001,fr,0,0,2022-04-26_11h34.16.499,Cluster,2022.1.1,36.75662483008128,
,,,,2,0,2,0,18,0,18,0,,,both,,,,,,,,,,,,,,,,,,,,,,,,,,,,,,,,,,,,,,,,,,,,,,,,,,,,,,,,,,,,,,,,,,,,,,,,,,,,,,,,,,,,,,,,,,,,,,,,,,,,,,,,,,,,,,,,,,,,500.8088645000098,None,,,,,"[0.7025340306062586, 0.7025340306062586, 0.7025340306062586, 0.7025340306062586]","[430.28260940989804, 482.9758991101361, 542.1221169992244, 608.511501880763]",Tone,"[26.094873375709398, 26.0, 25.788902942437673, 25.545558910866454]",True,501.8090635000117,504.9438879000081,504.9438879000081,506.171038600005,None,1,3.8472729666682426,4.8803511666628765,None,1,None,1,,,0,,,,,,,,,,,ttuwra,001,fr,0,0,2022-04-26_11h34.16.499,Cluster,2022.1.1,36.75662483008128,
,,,,2,0,2,0,19,0,19,0,,,time,,,,,,,,,,,,,,,,,,,,,,,,,,,,,,,,,,,,,,,,,,,,,,,,,,,,,,,,,,,,,,,,,,,,,,,,,,,,,,,,,,,,,,,,,,,,,,,,,,,,,,,,,,,,,,,,,,,,506.7257224000059,None,339.9379219848554,19.23241404027677,0.000843532918654906,1,"[0.7735282009429149, 0.7735282009429149, 0.7735282009429149, 0.7735282009429149]","[1856.7073231416646, 5351.4582992858395, 1005.4574855420766, 4050.0484987897416]",None,"[29.841789413468156, 20.868317207695284, 25.79433112672813, 25.641664062083585]",False,507.72905330000503,511.072614100005,511.072614100005,512.3010421000072,['space'],1,4.133086966656265,5.172782266658032,None,1,None,1,,[0.334012299994356],,,,,,,,,,,,ttuwra,001,fr,0,0,2022-04-26_11h34.16.499,Cluster,2022.1.1,36.75662483008128,
,,,,3,0,3,0,0,0,0,0,,,none,,,,,,,,,,,,,,,,,,,,,,,,,,,,,,,,,,,,,,,,,,,,,,,,,,,,,,,,,,,,,,,,,,,,,,,,,,,,,,,,,,,,,,,,,,,,,,,,,,,,,,,,,,,,,,,,,,,,516.1599376000086,None,2629.9210759461866,22.958951076732028,0.001094078397535098,1,"[0.4731271458095227, 0.4370510500576787, 0.43842513154242335, 0.43691334484206823]","[5924.2375285637745, 1556.0415861768292, 435.7883297705784, 326.797564498156]",None,"[18.0, 29.16105476387758, 26.094873375709398, 25.23241404027677]",False,517.1375882000139,519.510214000009,519.510214000009,520.7307807000034,['space'],1,2.812154866667697,3.8256122666643932,None,1,None,1,,[0.27709559998766053],,,,,,,,,,,,ttuwra,001,fr,0,0,2022-04-26_11h34.16.499,Cluster,2022.1.1,36.75662483008128,
,,,,3,0,3,0,1,0,1,0,,,both,,,,,,,,,,,,,,,,,,,,,,,,,,,,,,,,,,,,,,,,,,,,,,,,,,,,,,,,,,,,,,,,,,,,,,,,,,,,,,,,,,,,,,,,,,,,,,,,,,,,,,,,,,,,,,,,,,,,521.008840200011,None,268.9655789759941,18.45503826001906,0.0012337329254202682,1,"[0.6810103930901618, 0.6810103930901618, 0.6810103930901618, 0.6810103930901618]","[169.43769732450843, 190.1873847996913, 213.47812150486442, 239.62108953358734]",Tone,"[27.0, 26.0, 25.01355675944965, 24.653218692910055]",False,522.0168633000139,525.0968817000103,525.0968817000103,526.3128423000016,['space'],1,3.7501707666669972,4.782048466659035,None,1,None,1,,[0.34674269999959506],,,,,,,,,,,,ttuwra,001,fr,0,0,2022-04-26_11h34.16.499,Cluster,2022.1.1,36.75662483008128,
,,,,3,0,3,0,2,0,2,0,,,both,,,,,,,,,,,,,,,,,,,,,,,,,,,,,,,,,,,,,,,,,,,,,,,,,,,,,,,,,,,,,,,,,,,,,,,,,,,,,,,,,,,,,,,,,,,,,,,,,,,,,,,,,,,,,,,,,,,,526.8431885000027,None,707.1067811865476,20.0,0.00044402947908243597,1,"[0.6013378722379273, 0.6013378722379273, 0.6013378722379273, 0.6013378722379273]","[1122.4620483093734, 1000.0000000000002, 890.8987181403395, 793.7005259840998]",Tone,"[26.70514406971935, 25.79433112672813, 25.42587904797925, 25.383581342819372]",False,528.8052960000059,531.6435029000131,531.6435029000131,532.8797699000133,['space'],1,3.437564100007876,4.469972599996254,None,1,None,1,,[0.327720400004182],,,,,,,,,,,,ttuwra,001,fr,0,0,2022-04-26_11h34.16.499,Cluster,2022.1.1,36.75662483008128,
,,,,3,0,3,0,3,0,3,0,,,both,,,,,,,,,,,,,,,,,,,,,,,,,,,,,,,,,,,,,,,,,,,,,,,,,,,,,,,,,,,,,,,,,,,,,,,,,,,,,,,,,,,,,,,,,,,,,,,,,,,,,,,,,,,,,,,,,,,,533.3164657000016,None,384.9779110800553,19.849647623110307,0.000790735670479851,1,"[0.7619069338741619, 0.7619069338741619, 0.7619069338741619, 0.7619069338741619]","[242.52088695715918, 272.2204915317388, 305.55717051649987, 342.9763274935668]",Tone,"[24.465335243177176, 24.45503826001906, 24.88373465489432, 25.57041546457009]",False,534.3257494000136,537.6534116000112,537.6534116000112,538.8677419000014,['space'],1,4.084483766666381,5.117049866676098,None,1,None,1,,[0.32818529999349266],,,,,,,,,,,,ttuwra,001,fr,0,0,2022-04-26_11h34.16.499,Cluster,2022.1.1,36.75662483008128,
,,,,3,0,3,0,4,0,4,0,,,time,,,,,,,,,,,,,,,,,,,,,,,,,,,,,,,,,,,,,,,,,,,,,,,,,,,,,,,,,,,,,,,,,,,,,,,,,,,,,,,,,,,,,,,,,,,,,,,,,,,,,,,,,,,,,,,,,,,,539.4913406000123,None,,,,,"[0.5770318404037682, 0.5770318404037682, 0.5770318404037682, 0.5770318404037682]","[2314.6345546549173, 6581.589220736015, 321.5743666660963, 482.48816680412966]",None,"[29.45727754036458, 16.571895402035647, 25.0, 26.0]",True,540.5077548000118,543.2592392000079,543.2592392000079,544.4837986000057,None,1,3.336790466666571,4.349385666675516,None,1,None,1,,,0,,,,,,,,,,,ttuwra,001,fr,0,0,2022-04-26_11h34.16.499,Cluster,2022.1.1,36.75662483008128,
,,,,3,0,3,0,5,0,5,0,,,none,,,,,,,,,,,,,,,,,,,,,,,,,,,,,,,,,,,,,,,,,,,,,,,,,,,,,,,,,,,,,,,,,,,,,,,,,,,,,,,,,,,,,,,,,,,,,,,,,,,,,,,,,,,,,,,,,,,,544.895182600012,None,870.5505632961246,16.0,0.0002547379968512103,0,"[0.6766704236917985, 0.5615767755952246, 0.7896767997351513, 0.5791179517800237]","[481.7883041581908, 2043.9142084124592, 313.8333154917487, 150.5614116481439]",None,"[26.0, 29.789018856764294, 25.0, 27.4547801860206]",False,545.9121490000107,548.9682988000131,548.9682988000131,550.1887316000066,None,0,3.6264838666829746,4.666907966675353,None,1,None,1,,,,,,,,,,,,,,ttuwra,001,fr,0,0,2022-04-26_11h34.16.499,Cluster,2022.1.1,36.75662483008128,
,,,,3,0,3,0,6,0,6,0,,,none,,,,,,,,,,,,,,,,,,,,,,,,,,,,,,,,,,,,,,,,,,,,,,,,,,,,,,,,,,,,,,,,,,,,,,,,,,,,,,,,,,,,,,,,,,,,,,,,,,,,,,,,,,,,,,,,,,,,550.6284322000138,None,280.10823626030776,18.606844944034993,0.0011549319726578996,1,"[0.4565409094717631, 0.5949802708716644, 0.6670397069034236, 0.5030814109529224]","[499.6749811173949, 509.0992421973687, 3738.472301562887, 2789.608065341041]",None,"[25.93370344417099, 25.93370344417099, 26.490680930160096, 28.64606431841785]",False,551.632342900004,554.3639821000106,554.3639821000106,555.5860078000114,['space'],1,3.2605718666600296,4.301006566660362,None,1,None,1,,[0.4538062999927206],,,,,,,,,,,,ttuwra,001,fr,0,0,2022-04-26_11h34.16.499,Cluster,2022.1.1,36.75662483008128,
,,,,3,0,3,0,7,0,7,0,,,both,,,,,,,,,,,,,,,,,,,,,,,,,,,,,,,,,,,,,,,,,,,,,,,,,,,,,,,,,,,,,,,,,,,,,,,,,,,,,,,,,,,,,,,,,,,,,,,,,,,,,,,,,,,,,,,,,,,,555.9786267000018,None,2462.2888266898335,20.0,0.0008505946547995336,1,"[0.4594649173789043, 0.4594649173789043, 0.4594649173789043, 0.4594649173789043]","[3908.639873736986, 3482.202253184498, 3102.289523667471, 2763.8257599355534]",Tone,"[26.0, 27.205984099293445, 28.0, 28.64606431841785]",False,556.9984336000052,559.4006291000114,559.4006291000114,560.624790300004,['space'],1,2.857995366677642,3.877037766666035,None,1,None,1,,[0.27659969999513123],,,,,,,,,,,,ttuwra,001,fr,0,0,2022-04-26_11h34.16.499,Cluster,2022.1.1,36.75662483008128,
,,,,3,0,3,0,8,0,8,0,,,time,,,,,,,,,,,,,,,,,,,,,,,,,,,,,,,,,,,,,,,,,,,,,,,,,,,,,,,,,,,,,,,,,,,,,,,,,,,,,,,,,,,,,,,,,,,,,,,,,,,,,,,,,,,,,,,,,,,,560.9258867000026,None,2462.2888266898335,22.0,0.0010708352260634208,1,"[0.7828991991496285, 0.7828991991496285, 0.7828991991496285, 0.7828991991496285]","[188.51720820364983, 1018.0075636116694, 5793.354855771431, 194.43974075223602]",None,"[26.05866239498316, 25.79433112672813, 19.0, 26.0]",False,561.9487610000069,565.3145710000099,565.3145710000099,566.5267238000088,['space'],1,4.149201233347412,5.179113433347084,None,1,None,1,,[0.37941359999240376],,,,,,,,,,,,ttuwra,001,fr,0,0,2022-04-26_11h34.16.499,Cluster,2022.1.1,36.75662483008128,
,,,,3,0,3,0,9,0,9,0,,,none,,,,,,,,,,,,,,,,,,,,,,,,,,,,,,,,,,,,,,,,,,,,,,,,,,,,,,,,,,,,,,,,,,,,,,,,,,,,,,,,,,,,,,,,,,,,,,,,,,,,,,,,,,,,,,,,,,,,567.1706537000136,None,,,,,"[0.49647715761685557, 0.7007910275747372, 0.454613249059751, 0.5212265901210927]","[2581.4171933276943, 166.29668458605798, 7158.2266067112005, 1108.1983898974563]",None,"[29.0, 27.0, 15.0, 26.186896755875843]",True,568.1798280000075,570.8572201000061,570.8572201000061,572.0829811000003,None,1,3.205449666667846,4.244244266665191,None,1,None,1,,,0,,,,,,,,,,,ttuwra,001,fr,0,0,2022-04-26_11h34.16.499,Cluster,2022.1.1,36.75662483008128,
,,,,3,0,3,0,10,0,10,0,,,both,,,,,,,,,,,,,,,,,,,,,,,,,,,,,,,,,,,,,,,,,,,,,,,,,,,,,,,,,,,,,,,,,,,,,,,,,,,,,,,,,,,,,,,,,,,,,,,,,,,,,,,,,,,,,,,,,,,,572.4704751000099,None,5083.662179558938,16.0,0.0009442964535578044,1,"[0.7291351518478206, 0.7291351518478206, 0.7291351518478206, 0.7291351518478206]","[1008.726336460351, 1511.3818085504324, 2264.514059613791, 3392.937441206086]",Perfect_5th,"[25.79433112672813, 29.16105476387758, 29.45727754036458, 27.205984099293445]",False,573.4769893000048,576.6808649000013,576.6808649000013,577.8963369000121,['space'],1,3.9602960666670697,4.996720766663202,None,1,None,1,,[0.24535939999623224],,,,,,,,,,,,ttuwra,001,fr,0,0,2022-04-26_11h34.16.499,Cluster,2022.1.1,36.75662483008128,
,,,,3,0,3,0,11,0,11,0,,,none,,,,,,,,,,,,,,,,,,,,,,,,,,,,,,,,,,,,,,,,,,,,,,,,,,,,,,,,,,,,,,,,,,,,,,,,,,,,,,,,,,,,,,,,,,,,,,,,,,,,,,,,,,,,,,,,,,,,578.5163926000096,None,4924.577653379667,16.0,0.0009310189313440615,1,"[0.7512955649936492, 0.7323540340255381, 0.526885948626755, 0.4873340917027378]","[634.9351980844928, 4411.819476395934, 320.9405870021147, 899.8268924085004]",None,"[25.545558910866454, 24.0, 25.0, 25.42587904797925]",False,579.5392422000004,582.5697118000098,582.5697118000098,583.7960576000041,['space'],1,3.5372553333290853,4.549987133330433,None,1,None,1,,[0.4150309999968158],,,,,,,,,,,,ttuwra,001,fr,0,0,2022-04-26_11h34.16.499,Cluster,2022.1.1,36.75662483008128,
,,,,3,0,3,0,12,0,12,0,,,time,,,,,,,,,,,,,,,,,,,,,,,,,,,,,,,,,,,,,,,,,,,,,,,,,,,,,,,,,,,,,,,,,,,,,,,,,,,,,,,,,,,,,,,,,,,,,,,,,,,,,,,,,,,,,,,,,,,,584.1293883000035,None,325.61797647960265,19.23241404027677,0.0008775644730828485,1,"[0.6938307809515838, 0.6938307809515838, 0.6938307809515838, 0.6938307809515838]","[261.5568853692543, 127.52768092998734, 3266.3163406810895, 3996.792865949247]",None,"[24.45503826001906, 27.49372105900766, 27.7872268042997, 25.641664062083585]",False,585.1438647000032,588.261516700004,588.261516700004,589.4888733000116,['space'],1,3.793549466674449,4.832273166670348,None,1,None,1,,[0.45623679998971056],,,,,,,,,,,,ttuwra,001,fr,0,0,2022-04-26_11h34.16.499,Cluster,2022.1.1,36.75662483008128,
,,,,3,0,3,0,13,0,13,0,,,both,,,,,,,,,,,,,,,,,,,,,,,,,,,,,,,,,,,,,,,,,,,,,,,,,,,,,,,,,,,,,,,,,,,,,,,,,,,,,,,,,,,,,,,,,,,,,,,,,,,,,,,,,,,,,,,,,,,,590.0281176000135,None,2000.0,21.0,0.0008394020090612801,1,"[0.4487441267778882, 0.4487441267778882, 0.4487441267778882, 0.4487441267778882]","[396.8502629920499, 594.6035575013606, 890.8987181403394, 1334.8398541700344]",Perfect_5th,"[26.0, 25.652914047237584, 25.42587904797925, 28.0]",False,591.1212253000122,593.5126080000045,593.5126080000045,594.7438685000088,['space'],1,2.80527113332937,3.8201610333344433,None,1,None,1,,[0.566009899994242],,,,,,,,,,,,ttuwra,001,fr,0,0,2022-04-26_11h34.16.499,Cluster,2022.1.1,36.75662483008128,
,,,,3,0,3,0,14,0,14,0,,,time,,,,,,,,,,,,,,,,,,,,,,,,,,,,,,,,,,,,,,,,,,,,,,,,,,,,,,,,,,,,,,,,,,,,,,,,,,,,,,,,,,,,,,,,,,,,,,,,,,,,,,,,,,,,,,,,,,,,594.9917986000073,None,1866.0659830736151,22.0,0.0008656905679825737,1,"[0.4709662499240175, 0.4709662499240175, 0.4709662499240175, 0.4709662499240175]","[427.9370106404926, 2436.242738426105, 782.442587033091, 688.9201504834784]",None,"[26.094873375709398, 29.22822029262, 25.38904172910234, 25.419866646430975]",False,596.0137164000043,598.4402136000135,598.4402136000135,599.6694368000026,['space'],1,2.890211466670735,3.931483866661438,None,1,None,1,,[0.42935200000647455],,,,,,,,,,,,ttuwra,001,fr,0,0,2022-04-26_11h34.16.499,Cluster,2022.1.1,36.75662483008128,
,,,,3,0,3,0,15,0,15,0,,,frequency,,,,,,,,,,,,,,,,,,,,,,,,,,,,,,,,,,,,,,,,,,,,,,,,,,,,,,,,,,,,,,,,,,,,,,,,,,,,,,,,,,,,,,,,,,,,,,,,,,,,,,,,,,,,,,,,,,,,600.0002902000124,None,,,,,"[0.7298283322394072, 0.7060166308639686, 0.6200791449991554, 0.6773383067895384]","[7584.001702040906, 6756.577394722394, 6019.4261399741745, 5362.6990320434425]",Tone,"[14.58243639270409, 16.0, 18.0, 20.868317207695284]",True,600.9920917000127,604.0774344000092,604.0774344000092,605.3219285000087,None,1,3.7651745666662464,4.792325466667535,None,1,None,1,,,0,,,,,,,,,,,ttuwra,001,fr,0,0,2022-04-26_11h34.16.499,Cluster,2022.1.1,36.75662483008128,
,,,,3,0,3,0,16,0,16,0,,,none,,,,,,,,,,,,,,,,,,,,,,,,,,,,,,,,,,,,,,,,,,,,,,,,,,,,,,,,,,,,,,,,,,,,,,,,,,,,,,,,,,,,,,,,,,,,,,,,,,,,,,,,,,,,,,,,,,,,605.8196651000035,None,4569.197768274327,17.527401216238587,0.0009260691662474782,0,"[0.7370896623192736, 0.5633125346923445, 0.4802785645204704, 0.44090520495413055]","[801.8989513689842, 3001.251076456441, 301.5160114401421, 315.9859805791038]",None,"[25.383581342819372, 28.268439788568884, 24.88373465489432, 25.0]",False,606.826484300007,609.627449800013,609.627449800013,610.8527260000119,None,0,3.248500766669167,4.2827829666639445,None,1,None,1,,,,,,,,,,,,,,ttuwra,001,fr,0,0,2022-04-26_11h34.16.499,Cluster,2022.1.1,36.75662483008128,
,,,,3,0,3,0,17,0,17,0,,,frequency,,,,,,,,,,,,,,,,,,,,,,,,,,,,,,,,,,,,,,,,,,,,,,,,,,,,,,,,,,,,,,,,,,,,,,,,,,,,,,,,,,,,,,,,,,,,,,,,,,,,,,,,,,,,,,,,,,,,611.1592585000035,None,1093.6187172545324,20.186896755875843,0.0004901157627134842,1,"[0.7472249329774618, 0.4482827302243957, 0.5498677876304114, 0.6458014728509932]","[688.9366212140073, 773.3052110032133, 868.0057511109787, 974.3035133363451]",Tone,"[25.419866646430975, 25.38904172910234, 25.42587904797925, 25.79433112672813]",False,612.1866738000099,614.9566720000003,614.9566720000003,616.1913197000104,['space'],1,3.4087446666671894,4.434817666668096,None,1,None,1,,[0.43666119998670183],,,,,,,,,,,,ttuwra,001,fr,0,0,2022-04-26_11h34.16.499,Cluster,2022.1.1,36.75662483008128,
,,,,3,0,3,0,18,0,18,0,,,time,,,,,,,,,,,,,,,,,,,,,,,,,,,,,,,,,,,,,,,,,,,,,,,,,,,,,,,,,,,,,,,,,,,,,,,,,,,,,,,,,,,,,,,,,,,,,,,,,,,,,,,,,,,,,,,,,,,,616.6658982000081,None,657.1889077195816,19.470120899588693,0.00045893505561305046,1,"[0.5868964807979362, 0.5868964807979362, 0.5868964807979362, 0.5868964807979362]","[5172.311209194277, 310.7567849304336, 192.43596710340208, 445.34749801766986]",None,"[21.0, 24.88373465489432, 26.0, 26.094873375709398]",False,617.6797711000108,620.4721169000113,620.4721169000113,621.6962454000022,['space'],1,3.3916678666719235,4.421571266677347,None,1,None,1,,[0.35472269999445416],,,,,,,,,,,,ttuwra,001,fr,0,0,2022-04-26_11h34.16.499,Cluster,2022.1.1,36.75662483008128,
,,,,3,0,3,0,19,0,19,0,,,none,,,,,,,,,,,,,,,,,,,,,,,,,,,,,,,,,,,,,,,,,,,,,,,,,,,,,,,,,,,,,,,,,,,,,,,,,,,,,,,,,,,,,,,,,,,,,,,,,,,,,,,,,,,,,,,,,,,,622.1477825000038,None,,,,,"[0.6103337207098796, 0.6652518692013112, 0.40242373110548413, 0.7410071014824421]","[4768.064945993408, 6055.1450006016585, 284.9476953500091, 426.6416530104946]",None,"[23.0, 17.940131619078713, 24.606844944034993, 26.094873375709398]",True,623.1601072000049,625.8588124000089,625.8588124000089,627.0949697000033,None,1,3.4410258666757727,4.464870666663046,None,1,None,1,,,0,,,,,,,,,,,ttuwra,001,fr,0,0,2022-04-26_11h34.16.499,Cluster,2022.1.1,36.75662483008128,
,,,,4,0,4,0,0,0,0,0,,,frequency,,,,,,,,,,,,,,,,,,,,,,,,,,,,,,,,,,,,,,,,,,,,,,,,,,,,,,,,,,,,,,,,,,,,,,,,,,,,,,,,,,,,,,,,,,,,,,,,,,,,,,,,,,,,,,,,,,,,629.6754388000118,None,176.7766952966369,15.0,0.0019683126003941904,0,"[0.41245841564964425, 0.6638840245086166, 0.5900616829395098, 0.4238003668523971]","[445.44935907016975, 353.55339059327383, 280.6155120773433, 222.72467953508485]",Major_3rd,"[26.094873375709398, 25.57041546457009, 24.606844944034993, 25.0]",False,630.6738989000005,633.3670134000131,633.3670134000131,634.6020587000094,None,0,3.1082477333548013,4.133146633350407,None,1,None,1,,,,,,,,,,,,,,ttuwra,001,fr,0,0,2022-04-26_11h34.16.499,Cluster,2022.1.1,36.75662483008128,
,,,,4,0,4,0,1,0,1,0,,,both,,,,,,,,,,,,,,,,,,,,,,,,,,,,,,,,,,,,,,,,,,,,,,,,,,,,,,,,,,,,,,,,,,,,,,,,,,,,,,,,,,,,,,,,,,,,,,,,,,,,,,,,,,,,,,,,,,,,634.84854430001,None,1094.1907984432419,20.186896755875843,0.0004903602523797972,1,"[0.6845374481850504, 0.6845374481850504, 0.6845374481850504, 0.6845374481850504]","[1736.9196245027265, 1547.4194669822784, 1378.594019559919, 1228.1876448618696]",Tone,"[29.769780792544555, 29.16105476387758, 28.623583972636972, 27.332992356340597]",False,635.8670521000022,638.9330527000129,638.9330527000129,640.1536277000123,['space'],1,3.756622866654652,4.780036466647289,None,1,None,1,,[0.3161221999907866],,,,,,,,,,,,ttuwra,001,fr,0,0,2022-04-26_11h34.16.499,Cluster,2022.1.1,36.75662483008128,
,,,,4,0,4,0,2,0,2,0,,,frequency,,,,,,,,,,,,,,,,,,,,,,,,,,,,,,,,,,,,,,,,,,,,,,,,,,,,,,,,,,,,,,,,,,,,,,,,,,,,,,,,,,,,,,,,,,,,,,,,,,,,,,,,,,,,,,,,,,,,640.692383200003,None,188.96444266362258,20.05866239498316,0.003077046350740613,1,"[0.789591481710413, 0.45876723130263386, 0.4804772304735294, 0.547897102396019]","[952.3211159742038, 635.5980897850253, 424.21083073969777, 283.12676172096366]",Perfect_5th,"[25.550552382978218, 25.545558910866454, 26.094873375709398, 24.606844944034993]",False,641.7101808000007,644.4638398000097,644.4638398000097,645.6989752000081,['space'],1,3.3165754666842986,4.342113566672197,None,1,None,1,,[0.35274469999421854],,,,,,,,,,,,ttuwra,001,fr,0,0,2022-04-26_11h34.16.499,Cluster,2022.1.1,36.75662483008128,
,,,,4,0,4,0,3,0,3,0,,,both,,,,,,,,,,,,,,,,,,,,,,,,,,,,,,,,,,,,,,,,,,,,,,,,,,,,,,,,,,,,,,,,,,,,,,,,,,,,,,,,,,,,,,,,,,,,,,,,,,,,,,,,,,,,,,,,,,,,646.1004031000048,None,,,,,"[0.7744516663399786, 0.7744516663399786, 0.7744516663399786, 0.7744516663399786]","[127.41595232298637, 143.0195708317487, 160.5340404241321, 180.19336783785099]",Tone,"[27.49372105900766, 27.639725384498178, 27.100592925878615, 26.61195803563669]",True,647.1079390000086,650.470212500004,650.470212500004,651.7028673000023,None,1,4.127326166664716,5.14325386667042,None,1,None,1,,,0,,,,,,,,,,,ttuwra,001,fr,0,0,2022-04-26_11h34.16.499,Cluster,2022.1.1,36.75662483008128,
,,,,4,0,4,0,4,0,4,0,,,none,,,,,,,,,,,,,,,,,,,,,,,,,,,,,,,,,,,,,,,,,,,,,,,,,,,,,,,,,,,,,,,,,,,,,,,,,,,,,,,,,,,,,,,,,,,,,,,,,,,,,,,,,,,,,,,,,,,,652.2869713000109,None,353.5533905932738,11.0,0.00031440841208643823,0,"[0.5226525313743453, 0.44989994983964876, 0.6530377783744934, 0.5928812360548908]","[182.12456532544527, 7157.061671874249, 3470.297940345237, 254.21500563153194]",None,"[26.61195803563669, 15.0, 27.205984099293445, 24.465335243177176]",False,653.3022457000043,655.949930200004,655.949930200004,657.1688488000073,None,0,3.2415603666740935,4.261956866670516,None,1,None,1,,,,,,,,,,,,,,ttuwra,001,fr,0,0,2022-04-26_11h34.16.499,Cluster,2022.1.1,36.75662483008128,
,,,,4,0,4,0,5,0,5,0,,,none,,,,,,,,,,,,,,,,,,,,,,,,,,,,,,,,,,,,,,,,,,,,,,,,,,,,,,,,,,,,,,,,,,,,,,,,,,,,,,,,,,,,,,,,,,,,,,,,,,,,,,,,,,,,,,,,,,,,657.6235386000044,None,1804.8690951820845,23.841789413468156,0.0010271647225421864,1,"[0.5308623223053573, 0.4581750822605269, 0.7353089482030384, 0.7137990699823811]","[3708.475981487949, 1091.8481842314736, 334.449611992432, 6573.651902886712]",None,"[26.490680930160096, 26.186896755875843, 25.23241404027677, 16.571895402035647]",False,658.6227363000071,661.3720176000061,661.3720176000061,662.6144688000059,['space'],1,3.4594019666546956,4.4852221666660625,None,1,None,1,,[0.17772629999672063],,,,,,,,,,,,ttuwra,001,fr,0,0,2022-04-26_11h34.16.499,Cluster,2022.1.1,36.75662483008128,
,,,,4,0,4,0,6,0,6,0,,,frequency,,,,,,,,,,,,,,,,,,,,,,,,,,,,,,,,,,,,,,,,,,,,,,,,,,,,,,,,,,,,,,,,,,,,,,,,,,,,,,,,,,,,,,,,,,,,,,,,,,,,,,,,,,,,,,,,,,,,663.1627307000017,None,1741.101126592249,21.0,0.0007082370640515017,1,"[0.623351351318032, 0.6504970596518419, 0.40418069290039593, 0.7510674575317942]","[4387.299918778506, 3482.2022531844987, 2763.825759935554, 2193.649959389253]",Major_3rd,"[24.0, 27.205984099293445, 28.64606431841785, 29.64975290668494]",False,664.2014498000062,666.9171126000001,666.9171126000001,668.1532313000062,['space'],1,3.455951666663168,4.486191866657464,None,1,None,1,,[0.3945757000037702],,,,,,,,,,,,ttuwra,001,fr,0,0,2022-04-26_11h34.16.499,Cluster,2022.1.1,36.75662483008128,
,,,,4,0,4,0,7,0,7,0,,,none,,,,,,,,,,,,,,,,,,,,,,,,,,,,,,,,,,,,,,,,,,,,,,,,,,,,,,,,,,,,,,,,,,,,,,,,,,,,,,,,,,,,,,,,,,,,,,,,,,,,,,,,,,,,,,,,,,,,668.7417947000067,None,,,,,"[0.5694124540418257, 0.7035957267278936, 0.7750294016963963, 0.7212223578927877]","[222.20231874571635, 7972.9269351185185, 242.32397267580978, 5075.770879806497]",None,"[25.0, 14.161888987513503, 24.465335243177176, 22.0]",True,669.7518532000104,672.829762600013,672.829762600013,674.0677449000068,None,1,3.807422966667218,4.841123866674025,None,1,None,1,,,0,,,,,,,,,,,ttuwra,001,fr,0,0,2022-04-26_11h34.16.499,Cluster,2022.1.1,36.75662483008128,
,,,,4,0,4,0,8,0,8,0,,,none,,,,,,,,,,,,,,,,,,,,,,,,,,,,,,,,,,,,,,,,,,,,,,,,,,,,,,,,,,,,,,,,,,,,,,,,,,,,,,,,,,,,,,,,,,,,,,,,,,,,,,,,,,,,,,,,,,,,674.6359440000087,None,189.4645708137998,15.0,0.0017084605332667944,0,"[0.7388831159808569, 0.7591823830379684, 0.7601704115270145, 0.7354313925850084]","[1126.219536459026, 428.6032895225776, 614.7907887153351, 143.28179767118905]",None,"[26.70514406971935, 26.094873375709398, 25.545558910866454, 27.639725384498178]",False,675.6648640000058,678.9541020000033,678.9541020000033,680.1681760000065,None,0,4.010926266666502,5.045509966657846,None,1,None,1,,,,,,,,,,,,,,ttuwra,001,fr,0,0,2022-04-26_11h34.16.499,Cluster,2022.1.1,36.75662483008128,
,,,,4,0,4,0,9,0,9,0,,,none,,,,,,,,,,,,,,,,,,,,,,,,,,,,,,,,,,,,,,,,,,,,,,,,,,,,,,,,,,,,,,,,,,,,,,,,,,,,,,,,,,,,,,,,,,,,,,,,,,,,,,,,,,,,,,,,,,,,680.7632821000007,None,1452.461588377008,23.0,0.0006989626607425073,1,"[0.7319163251769373, 0.5581218948507107, 0.7770971821164094, 0.6896316341601164]","[664.7278882753111, 133.4309302741107, 170.22634504383058, 1576.665094674081]",None,"[25.470120899588693, 27.64817655585913, 27.0, 29.546558954001995]",False,681.7755032000132,684.8682957000128,684.8682957000128,686.0997383000067,['space'],1,3.7966398666612804,4.816626266663661,None,1,None,1,,[0.3679431000055047],,,,,,,,,,,,ttuwra,001,fr,0,0,2022-04-26_11h34.16.499,Cluster,2022.1.1,36.75662483008128,
,,,,4,0,4,0,10,0,10,0,,,time,,,,,,,,,,,,,,,,,,,,,,,,,,,,,,,,,,,,,,,,,,,,,,,,,,,,,,,,,,,,,,,,,,,,,,,,,,,,,,,,,,,,,,,,,,,,,,,,,,,,,,,,,,,,,,,,,,,,686.6370171000017,None,4924.577653379667,16.0,0.0009310189313440615,1,"[0.5989884800037316, 0.5989884800037316, 0.5989884800037316, 0.5989884800037316]","[1966.0361638503844, 186.94497328207802, 3263.755706673387, 511.5933071826872]",None,"[29.789018856764294, 26.05866239498316, 27.7872268042997, 25.93370344417099]",False,687.6748793000006,690.5067536000133,690.5067536000133,691.7413140999997,['space'],1,3.4231535333383363,4.446363833340001,None,1,None,1,,[0.42195939998782706],,,,,,,,,,,,ttuwra,001,fr,0,0,2022-04-26_11h34.16.499,Cluster,2022.1.1,36.75662483008128,
,,,,4,0,4,0,11,0,11,0,,,frequency,,,,,,,,,,,,,,,,,,,,,,,,,,,,,,,,,,,,,,,,,,,,,,,,,,,,,,,,,,,,,,,,,,,,,,,,,,,,,,,,,,,,,,,,,,,,,,,,,,,,,,,,,,,,,,,,,,,,692.1627420000004,None,2174.522002432747,23.64975290668494,0.0011977178829273513,1,"[0.5164669746720606, 0.6238420849864503, 0.6673783149104802, 0.6560212377456041]","[3451.838514189738, 3075.238507519091, 2739.726044324568, 2440.8184209444603]",Tone,"[27.205984099293445, 28.268439788568884, 28.64606431841785, 29.22822029262]",False,693.1811851000093,696.0212600000086,696.0212600000086,697.2571503000072,['space'],1,3.486337366659427,4.514442266663536,None,1,None,1,,[0.35898019999149255],,,,,,,,,,,,ttuwra,001,fr,0,0,2022-04-26_11h34.16.499,Cluster,2022.1.1,36.75662483008128,
,,,,4,0,4,0,12,0,12,0,,,none,,,,,,,,,,,,,,,,,,,,,,,,,,,,,,,,,,,,,,,,,,,,,,,,,,,,,,,,,,,,,,,,,,,,,,,,,,,,,,,,,,,,,,,,,,,,,,,,,,,,,,,,,,,,,,,,,,,,697.7467465000082,None,659.7539553864473,22.0,0.00061127683564614,1,"[0.5072088699355228, 0.7954119797519521, 0.6879057336345705, 0.4456427187232277]","[254.86262453378413, 4566.191584907689, 224.55701685567894, 1722.4592935287646]",None,"[24.465335243177176, 23.527401216238587, 25.0, 29.769780792544555]",False,698.7808846000116,701.790639800005,701.790639800005,703.0277070000011,['space'],1,3.4403432666586014,4.467757166654337,None,1,None,1,,[0.3922261999978218],,,,,,,,,,,,ttuwra,001,fr,0,0,2022-04-26_11h34.16.499,Cluster,2022.1.1,36.75662483008128,
,,,,4,0,4,0,13,0,13,0,,,frequency,,,,,,,,,,,,,,,,,,,,,,,,,,,,,,,,,,,,,,,,,,,,,,,,,,,,,,,,,,,,,,,,,,,,,,,,,,,,,,,,,,,,,,,,,,,,,,,,,,,,,,,,,,,,,,,,,,,,703.3073253000039,None,,,,,"[0.6066538836745237, 0.42803314323211106, 0.6695510445317585, 0.7594364431196322]","[4112.884034666571, 2745.020762526294, 1832.0815571721575, 1222.767739301646]",Perfect_5th,"[25.0, 28.64606431841785, 29.841789413468156, 27.332992356340597]",True,704.318485900003,707.0384238000115,707.0384238000115,708.2757783000125,None,1,3.4833705666678725,4.5154524666577345,None,1,None,1,,,0,,,,,,,,,,,ttuwra,001,fr,0,0,2022-04-26_11h34.16.499,Cluster,2022.1.1,36.75662483008128,
,,,,4,0,4,0,14,0,14,0,,,both,,,,,,,,,,,,,,,,,,,,,,,,,,,,,,,,,,,,,,,,,,,,,,,,,,,,,,,,,,,,,,,,,,,,,,,,,,,,,,,,,,,,,,,,,,,,,,,,,,,,,,,,,,,,,,,,,,,,708.8782621999999,None,329.87697769322364,9.0,0.00026706697831277394,0,"[0.46719179811389155, 0.46719179811389155, 0.46719179811389155, 0.46719179811389155]","[130.9117653525784, 164.93848884661188, 207.80947403569704, 261.82353070515677]",Major_3rd,"[27.64817655585913, 27.100592925878615, 25.500858518366996, 24.45503826001906]",False,709.9043464000133,712.3297113000008,712.3297113000008,713.5683524000051,None,0,2.897052533342503,3.9292687333509093,None,1,None,1,,,,,,,,,,,,,,ttuwra,001,fr,0,0,2022-04-26_11h34.16.499,Cluster,2022.1.1,36.75662483008128,
,,,,4,0,4,0,15,0,15,0,,,both,,,,,,,,,,,,,,,,,,,,,,,,,,,,,,,,,,,,,,,,,,,,,,,,,,,,,,,,,,,,,,,,,,,,,,,,,,,,,,,,,,,,,,,,,,,,,,,,,,,,,,,,,,,,,,,,,,,,713.8728965000046,None,137.5762982459579,21.64817655585913,0.007383735901765684,1,"[0.5605988957714233, 0.5605988957714233, 0.5605988957714233, 0.5605988957714233]","[218.38876056152438, 194.56226684051956, 173.3352741266975, 154.42417352797912]",Tone,"[25.0, 26.0, 26.61195803563669, 27.4547801860206]",False,714.8690444000094,717.5745386000053,717.5745386000053,718.8080615000072,['space'],1,3.265808666648809,4.286632766656112,None,1,None,1,,[0.34759410000697244],,,,,,,,,,,,ttuwra,001,fr,0,0,2022-04-26_11h34.16.499,Cluster,2022.1.1,36.75662483008128,
,,,,4,0,4,0,16,0,16,0,,,both,,,,,,,,,,,,,,,,,,,,,,,,,,,,,,,,,,,,,,,,,,,,,,,,,,,,,,,,,,,,,,,,,,,,,,,,,,,,,,,,,,,,,,,,,,,,,,,,,,,,,,,,,,,,,,,,,,,,719.2052417000086,None,3249.0095854249403,14.0,0.00035462624224654577,0,"[0.40999199760838523, 0.40999199760838523, 0.40999199760838523, 0.40999199760838523]","[2046.7477839935482, 2297.3967099940683, 2578.7406168791567, 2894.5384748807546]",Tone,"[29.789018856764294, 29.45727754036458, 29.0, 28.64606431841785]",False,721.3559246000077,723.6181165000016,723.6181165000016,724.843374700009,None,0,2.6703125666681444,3.6862630666728364,None,1,None,1,,,,,,,,,,,,,,ttuwra,001,fr,0,0,2022-04-26_11h34.16.499,Cluster,2022.1.1,36.75662483008128,
,,,,4,0,4,0,17,0,17,0,,,both,,,,,,,,,,,,,,,,,,,,,,,,,,,,,,,,,,,,,,,,,,,,,,,,,,,,,,,,,,,,,,,,,,,,,,,,,,,,,,,,,,,,,,,,,,,,,,,,,,,,,,,,,,,,,,,,,,,,725.0837513000006,None,,,,,"[0.44597820769672447, 0.44597820769672447, 0.44597820769672447, 0.44597820769672447]","[524.5281614595851, 588.7629545078754, 660.864071885588, 741.7948397827698]",Tone,"[25.788902942437673, 25.652914047237584, 25.470120899588693, 25.38904172910234]",True,726.094636400012,728.4631688000081,728.4631688000081,729.6757758000022,None,1,2.8168265666463412,3.8498876666562865,None,1,None,1,,,0,,,,,,,,,,,ttuwra,001,fr,0,0,2022-04-26_11h34.16.499,Cluster,2022.1.1,36.75662483008128,
,,,,4,0,4,0,18,0,18,0,,,time,,,,,,,,,,,,,,,,,,,,,,,,,,,,,,,,,,,,,,,,,,,,,,,,,,,,,,,,,,,,,,,,,,,,,,,,,,,,,,,,,,,,,,,,,,,,,,,,,,,,,,,,,,,,,,,,,,,,729.9983087,None,1126.1233178893422,20.70514406971935,0.0005349942568021336,1,"[0.5589775214885165, 0.5589775214885165, 0.5589775214885165, 0.5589775214885165]","[301.8217284064766, 1231.3603114856564, 883.2050576688212, 644.7797690090645]",None,"[24.88373465489432, 27.332992356340597, 25.42587904797925, 25.470120899588693]",False,730.9995966000133,733.7181898000126,733.7181898000126,734.9532206000003,['space'],1,3.2508312666759593,4.284454466673196,None,1,None,1,,[0.5196109999960754],,,,,,,,,,,,ttuwra,001,fr,0,0,2022-04-26_11h34.16.499,Cluster,2022.1.1,36.75662483008128,
,,,,4,0,4,0,19,0,19,0,,,none,,,,,,,,,,,,,,,,,,,,,,,,,,,,,,,,,,,,,,,,,,,,,,,,,,,,,,,,,,,,,,,,,,,,,,,,,,,,,,,,,,,,,,,,,,,,,,,,,,,,,,,,,,,,,,,,,,,,735.3415385000117,None,819.6078175219508,19.383581342819372,0.00036258660747099373,1,"[0.5531848056965416, 0.4639864513231591, 0.6803442388661944, 0.6902233545835388]","[4397.1560442899145, 873.9531486274469, 327.3847884178137, 1098.5560819720577]",None,"[24.0, 25.42587904797925, 25.23241404027677, 26.186896755875843]",False,736.369631700014,739.090365400014,739.090365400014,740.3093379000056,['space'],1,3.4064569666516036,4.455898766653263,None,1,None,1,,[0.4034092999936547],,,,,,,,,,,,ttuwra,001,fr,0,0,2022-04-26_11h34.16.499,Cluster,2022.1.1,36.75662483008128,
,,,,5,0,5,0,0,0,0,0,,,both,,,,,,,,,,,,,,,,,,,,,,,,,,,,,,,,,,,,,,,,,,,,,,,,,,,,,,,,,,,,,,,,,,,,,,,,,,,,,,,,,,,,,,,,,,,,,,,,,,,,,,,,,,,,,,,,,,,,742.8304458000057,None,1470.988904960953,23.0,0.0006924653757672609,0,"[0.6530981815827419, 0.6530981815827419, 0.6530981815827419, 0.6530981815827419]","[3706.6597710442284, 2941.9778099219066, 2335.049335168567, 1853.3298855221137]",Major_3rd,"[26.490680930160096, 28.268439788568884, 29.45727754036458, 29.841789413468156]",False,743.8145425000112,746.7841779000009,746.7841779000009,748.0337196000037,None,0,3.6526072666747496,4.673384266672656,None,1,None,1,,,,,,,,,,,,,,ttuwra,001,fr,0,0,2022-04-26_11h34.16.499,Cluster,2022.1.1,36.75662483008128,
,,,,5,0,5,0,1,0,1,0,,,both,,,,,,,,,,,,,,,,,,,,,,,,,,,,,,,,,,,,,,,,,,,,,,,,,,,,,,,,,,,,,,,,,,,,,,,,,,,,,,,,,,,,,,,,,,,,,,,,,,,,,,,,,,,,,,,,,,,,748.5371270000032,None,,,,,"[0.4237576620085006, 0.4237576620085006, 0.4237576620085006, 0.4237576620085006]","[1048.1488646237317, 1320.5848179628513, 1663.8326103229854, 2096.297729247463]",Major_3rd,"[26.0, 28.0, 29.546558954001995, 29.64975290668494]",True,749.5503534000018,751.839002800014,751.839002800014,753.0714573000005,None,1,2.723009766661562,3.7516942666552495,None,1,None,1,,,0,,,,,,,,,,,ttuwra,001,fr,0,0,2022-04-26_11h34.16.499,Cluster,2022.1.1,36.75662483008128,
,,,,5,0,5,0,2,0,2,0,,,both,,,,,,,,,,,,,,,,,,,,,,,,,,,,,,,,,,,,,,,,,,,,,,,,,,,,,,,,,,,,,,,,,,,,,,,,,,,,,,,,,,,,,,,,,,,,,,,,,,,,,,,,,,,,,,,,,,,,753.3542232000036,None,500.0,15.0,0.0004017630610928086,1,"[0.6336114712241774, 0.6336114712241774, 0.6336114712241774, 0.6336114712241774]","[1259.9210498948732, 1000.0000000000001, 793.7005259840998, 629.9605249474366]",Major_3rd,"[27.332992356340597, 25.79433112672813, 25.383581342819372, 25.545558910866454]",False,754.3718853000028,757.3095491000131,757.3095491000131,758.5468091000075,['space'],1,3.5592878666648176,4.59315606666496,None,1,None,1,,[0.49147229999653064],,,,,,,,,,,,ttuwra,001,fr,0,0,2022-04-26_11h34.16.499,Cluster,2022.1.1,36.75662483008128,
,,,,5,0,5,0,3,0,3,0,,,time,,,,,,,,,,,,,,,,,,,,,,,,,,,,,,,,,,,,,,,,,,,,,,,,,,,,,,,,,,,,,,,,,,,,,,,,,,,,,,,,,,,,,,,,,,,,,,,,,,,,,,,,,,,,,,,,,,,,759.0310085000092,None,164.93848884661182,17.0,0.0027831859114393217,1,"[0.4220379229699706, 0.4220379229699706, 0.4220379229699706, 0.4220379229699706]","[7064.093091688024, 1031.0197759026935, 400.5755019708967, 152.76246988532168]",None,"[15.417890868073467, 26.0, 26.0, 27.4547801860206]",False,760.0430930000002,762.3335596000106,762.3335596000106,763.5519477000053,['space'],1,2.6947787666576914,3.726888166667777,None,1,None,1,,[0.38793369999621063],,,,,,,,,,,,ttuwra,001,fr,0,0,2022-04-26_11h34.16.499,Cluster,2022.1.1,36.75662483008128,
,,,,5,0,5,0,4,0,4,0,,,none,,,,,,,,,,,,,,,,,,,,,,,,,,,,,,,,,,,,,,,,,,,,,,,,,,,,,,,,,,,,,,,,,,,,,,,,,,,,,,,,,,,,,,,,,,,,,,,,,,,,,,,,,,,,,,,,,,,,763.833169000005,None,125.0,22.0,0.00909850429304992,1,"[0.7720360611354267, 0.7333013148901389, 0.6714917872002092, 0.7405095597283367]","[1232.0288260264113, 6673.797580526131, 6562.195785220485, 6255.908732676541]",None,"[27.332992356340597, 16.0, 16.571895402035647, 17.0]",False,764.8491356000013,768.0545191000128,768.0545191000128,769.2887881000061,['space'],1,3.925192266673548,4.957262366660871,None,1,None,1,,[0.4312915999908],,,,,,,,,,,,ttuwra,001,fr,0,0,2022-04-26_11h34.16.499,Cluster,2022.1.1,36.75662483008128,
,,,,5,0,5,0,5,0,5,0,,,time,,,,,,,,,,,,,,,,,,,,,,,,,,,,,,,,,,,,,,,,,,,,,,,,,,,,,,,,,,,,,,,,,,,,,,,,,,,,,,,,,,,,,,,,,,,,,,,,,,,,,,,,,,,,,,,,,,,,769.8739090000017,None,3612.274745909574,21.0,0.0008654580713729495,1,"[0.7963396978898111, 0.7963396978898111, 0.7963396978898111, 0.7963396978898111]","[1153.0954102383366, 1549.0346133805242, 3718.3647464702067, 411.4751796551732]",None,"[26.70514406971935, 29.16105476387758, 26.490680930160096, 26.031910949287646]",False,770.8767164000019,774.2942546000122,774.2942546000122,775.5263459000125,['space'],1,4.219651966661331,5.250609266659012,None,1,None,1,,[0.3636986000055913],,,,,,,,,,,,ttuwra,001,fr,0,0,2022-04-26_11h34.16.499,Cluster,2022.1.1,36.75662483008128,
,,,,5,0,5,0,6,0,6,0,,,time,,,,,,,,,,,,,,,,,,,,,,,,,,,,,,,,,,,,,,,,,,,,,,,,,,,,,,,,,,,,,,,,,,,,,,,,,,,,,,,,,,,,,,,,,,,,,,,,,,,,,,,,,,,,,,,,,,,,776.1845870000107,None,,,,,"[0.5365118790469157, 0.5365118790469157, 0.5365118790469157, 0.5365118790469157]","[2805.1610641854336, 2531.508247373207, 2056.0037893221484, 1783.7775146041772]",None,"[28.64606431841785, 29.22822029262, 29.789018856764294, 29.769780792544555]",True,777.1843320000044,779.8340509000118,779.8340509000118,781.0679296000017,None,1,3.1869349666521885,4.214379066659603,None,1,None,1,,,0,,,,,,,,,,,ttuwra,001,fr,0,0,2022-04-26_11h34.16.499,Cluster,2022.1.1,36.75662483008128,
,,,,5,0,5,0,7,0,7,0,,,both,,,,,,,,,,,,,,,,,,,,,,,,,,,,,,,,,,,,,,,,,,,,,,,,,,,,,,,,,,,,,,,,,,,,,,,,,,,,,,,,,,,,,,,,,,,,,,,,,,,,,,,,,,,,,,,,,,,,781.4558928000042,None,1096.8707128056321,20.186896755875843,0.0004915055642361194,1,"[0.7646976304288197, 0.7646976304288197, 0.7646976304288197, 0.7646976304288197]","[690.9852500385049, 775.6047191097845, 870.5868616903846, 977.2007120042178]",Tone,"[25.419866646430975, 25.38904172910234, 25.42587904797925, 25.79433112672813]",False,782.4573345000099,785.7720746000123,785.7720746000123,787.006014300001,['space'],1,4.081093166663777,5.1171760666620685,None,1,None,1,,[0.3600159000052372],,,,,,,,,,,,ttuwra,001,fr,0,0,2022-04-26_11h34.16.499,Cluster,2022.1.1,36.75662483008128,
,,,,5,0,5,0,8,0,8,0,,,none,,,,,,,,,,,,,,,,,,,,,,,,,,,,,,,,,,,,,,,,,,,,,,,,,,,,,,,,,,,,,,,,,,,,,,,,,,,,,,,,,,,,,,,,,,,,,,,,,,,,,,,,,,,,,,,,,,,,787.6328280000016,None,597.666197907541,19.545558910866454,0.000533435304199107,1,"[0.5663444674026946, 0.6615003455358852, 0.5524651439366461, 0.5599609395853679]","[2489.2779360295663, 682.5609490688814, 1006.3910419820281, 1719.7793893016265]",None,"[29.22822029262, 25.470120899588693, 25.79433112672813, 29.769780792544555]",False,788.6276821000065,791.446440300002,791.446440300002,792.6799997000053,['space'],1,3.3846207666647388,4.4200767666625325,None,1,None,1,,[0.2961490000016056],,,,,,,,,,,,ttuwra,001,fr,0,0,2022-04-26_11h34.16.499,Cluster,2022.1.1,36.75662483008128,
,,,,5,0,5,0,9,0,9,0,,,both,,,,,,,,,,,,,,,,,,,,,,,,,,,,,,,,,,,,,,,,,,,,,,,,,,,,,,,,,,,,,,,,,,,,,,,,,,,,,,,,,,,,,,,,,,,,,,,,,,,,,,,,,,,,,,,,,,,,793.1049035000033,None,233.2582478842019,16.0,0.0012637002588482907,0,"[0.5394680994720429, 0.5394680994720429, 0.5394680994720429, 0.5394680994720429]","[1175.5479062836089, 784.5840978967509, 523.6470614103134, 349.4924835447549]",Perfect_5th,"[27.0, 25.38904172910234, 25.788902942437673, 25.57041546457009]",False,794.145431900004,796.787533900002,796.787533900002,798.0180398000084,None,0,3.1927762666746275,4.22843896667473,None,1,None,1,,,,"{'estimation': [[125.0, 19.932839638095125], [133.9716828170366, 19.608126406553385], [143.5872943746293, 19.230615917614465], [149.54655108075326, 19.0], [153.89305166811442, 18.83249567501563], [164.93848884661162, 18.448142596917133], [176.77669529663666, 18.066261013949216], [178.79248415792742, 18.0], [189.46457081379947, 17.65952881959413], [203.0630990890585, 17.198228342439847], [208.12001469478832, 17.0], [217.6376408240306, 16.634588547380005], [232.16243143986145, 16.0], [233.25824788420132, 15.952808920913437], [249.99999999999937, 15.151990851674421], [252.90307827848721, 15.0], [267.94336563407256, 14.25384352917014], [272.9202618492623, 14.0], [287.1745887492579, 13.313978438877173], [294.08971038398784, 13.0], [307.78610333622805, 12.410133258328738], [319.2721490997723, 12.0], [329.87697769322244, 11.635684043228075], [353.55339059327247, 11.095549370799635], [363.98935363447987, 11.0], [378.929141627598, 10.867400271416784], [402.5302083337087, 11.0], [406.12619817811606, 11.019467119560185], [435.2752816480601, 11.553757858623174], [450.8840442754349, 12.0], [466.5164957684015, 12.426237092546385], [483.6973972066511, 13.0], [499.9999999999975, 13.521424911560587], [514.4703955085532, 14.0], [535.8867312681438, 14.682992627001203], [547.1921570501388, 15.0], [574.3491774985143, 15.736123444257256], [587.8315963555877, 16.0], [615.5722066724546, 16.52505137749968], [659.7539553864432, 16.946433405124807], [707.1067811865431, 16.99273656164144], [757.8582832551941, 16.742233755318622], [812.2523963562301, 16.362008889118087], [870.5505632961181, 16.04817720585992], [928.9086911757225, 16.0], [933.0329915368008, 15.99676227550379], [933.6026378223709, 16.0], [999.9999999999926, 16.344635030224016], [1059.134494482906, 17.0], [1071.773462536285, 17.130650601783636], [1128.7354714341466, 18.0], [1148.698354997026, 18.285466690259412], [1191.1684650197437, 19.0], [1231.1444133449063, 19.643923302350228], [1254.1119170058732, 20.0], [1319.5079107728816, 20.99416540674858], [1319.9910622096563, 21.000000000000004], [1404.8447966991764, 22.0], [1414.2135623730828, 22.106171092019306], [1515.7165665103846, 22.791712726104823], [1624.5047927124563, 22.960281986341947], [1741.1011265922298, 22.603807111517817], [1835.824579622105, 22.0], [1866.065983073597, 21.81009097544031], [1966.4105958033613, 21.0], [1999.9999999999802, 20.732871852073476], [2088.274122339012, 20.0], [2143.5469250725646, 19.547746873478292], [2217.2952176578497, 19.0], [2297.396709994046, 18.414478363533014], [2367.1950386411236, 18.0], [2462.2888266898062, 17.44879712728534], [2568.534567171031, 17.0], [2639.01582154576, 16.710771986344074], [2828.427124746159, 16.21462096170271], [2974.3191940900415, 16.0], [3031.4331330207656, 15.918468698292479], [3249.0095854249043, 15.784107095026698], [3482.2022531844555, 15.760459049225517], [3732.1319661471844, 15.80089305589417], [3999.9999999999504, 15.857659238326722], [4287.093850145114, 15.870770745564485], [4594.793419988081, 15.762771162824453], [4924.577653379601, 15.448323141617513], [5179.897115854111, 15.0], [5278.031643091513, 14.83577115227948], [5611.553395554163, 13.999999999999998], [5656.854249492303, 13.888525867633755], [5939.963030180305, 13.0], [6062.866266041508, 12.618028594759075], [6243.2282183184625, 12.0], [6498.019170849792, 11.115994470499428], [6533.149831474804, 11.0], [6824.550206859261, 10.0], [6964.404506368894, 9.532380711686738], [7149.381554994093, 9.0], [7464.2639322943505, 8.073273671521715], [7500.041688546452, 8.0], [7966.495984389861, 7.0], [7999.999999999892, 6.925958474734289]], 'plus_line': [[125.0, 17.15941666651065], [133.9716828170366, 17.00541478424461], [134.10606707168537, 17.0], [143.5872943746293, 16.599546727584578], [153.89305166811442, 16.144977979925574], [157.50291924650287, 16.0], [164.93848884661162, 15.68083867460151], [176.77669529663666, 15.266631361571516], [184.77689142249855, 15.0], [189.46457081379947, 14.833823079599883], [203.0630990890585, 14.326719259982111], [210.95878956074202, 14.0], [217.6376408240306, 13.71318316411243], [233.25824788420132, 13.012569697120563], [233.5132499043065, 13.0], [249.99999999999937, 12.203672015495115], [254.13044550141746, 12.0], [267.94336563407256, 11.340727156230296], [275.15601328760704, 11.0], [287.1745887492579, 10.45265972600549], [297.8101296634867, 10.0], [307.78610333622805, 9.585508747932572], [324.81516057193653, 9.0], [329.87697769322244, 8.824183604223359], [353.55339059327247, 8.265357063819279], [378.929141627598, 8.039741415784691], [406.12619817811606, 8.195345588559405], [435.2752816480601, 8.760439836626146], [443.08981315443157, 9.0], [466.5164957684015, 9.670622212631518], [476.0968771938997, 10.0], [499.9999999999975, 10.802285692695147], [505.92517101310966, 11.0], [535.8867312681438, 11.995871141084073], [536.0320408649584, 12.0], [572.3664564548324, 13.0], [574.3491774985143, 13.05269887837472], [615.5722066724546, 13.821246313456166], [634.4150174416834, 14.0], [659.7539553864432, 14.213991635644287], [707.1067811865431, 14.193567841988791], [737.5527855267585, 14.0], [757.8582832551941, 13.857457497684074], [812.2523963562301, 13.403151882033587], [870.550563296117, 13.094027658207603], [933.0329915368008, 13.106377148177451], [999.9999999999926, 13.551820112333928], [1033.9719684323657, 14.0], [1071.773462536285, 14.453808359263121], [1105.359528493145, 15.0], [1148.698354997026, 15.687162521802158], [1167.3811048651814, 16.0], [1225.2151720383508, 17.0], [1231.1444133449063, 17.096038328157427], [1290.7788399070307, 18.0], [1319.5079107728832, 18.436051371352573], [1367.023365750857, 19.0], [1414.2135623730828, 19.54875728430419], [1476.9410136671274, 20.0], [1515.7165665103846, 20.25676914408703], [1624.5047927124563, 20.4236061560034], [1741.1011265922318, 20.067598624329683], [1751.1013930843687, 20.0], [1866.065983073597, 19.22355283275782], [1892.008929505744, 19.0], [1999.9999999999802, 18.088801938174512], [2010.0491070546784, 18.0], [2122.8074601676813, 17.0], [2143.5469250725646, 16.82600908032727], [2248.3143919291597, 16.0], [2297.396709994046, 15.632885902466324], [2401.593954929027, 15.0], [2462.2888266898062, 14.64036577212031], [2617.9148601042866, 14.0], [2639.01582154576, 13.911768591011706], [2828.427124746159, 13.408794125611378], [3031.4331330207615, 13.129271896766188], [3239.90209955626, 13.0], [3249.0095854249043, 12.993744621390434], [3482.2022531844555, 12.960616024656357], [3634.5100053702567, 13.0], [3732.1319661471844, 13.021155780272023], [3999.9999999999504, 13.135520265006583], [4287.093850145118, 13.256095601788118], [4594.7934199880865, 13.286833522515249], [4924.577653379601, 13.09844226878498], [4984.958778266946, 13.0], [5278.031643091506, 12.521439664039924], [5477.955725236949, 12.0], [5656.854249492303, 11.541158082835512], [5815.439073628311, 11.0], [6062.866266041508, 10.196459964139589], [6116.204253840958, 10.0], [6375.694745159822, 9.0], [6498.019170849792, 8.580900208665014], [6654.085403804928, 8.0], [6938.043670352144, 7.0], [6964.404506368894, 6.913944431971913], [7238.502641626058, 6.0], [7464.2639322943505, 5.313436350081727], [7589.580225475862, 5.0], [7982.676977001259, 4.0], [7999.999999999882, 3.9563799206128962]], 'minus_line': [[125.0, 22.75718859160683], [133.9716828170366, 22.233675950560787], [139.13027058687777, 22.0], [143.5872943746292, 21.824482923188036], [153.89305166811442, 21.506404390604246], [164.93848884661162, 21.185322310202146], [171.13549699220437, 21.0], [176.77669529663655, 20.84925375803499], [189.46457081379947, 20.50511975542193], [203.0630990890585, 20.089516918646925], [205.53560607651636, 20.0], [217.6376408240306, 19.602429213983417], [231.95411772424305, 19.0], [233.25824788420118, 18.948189925899854], [249.99999999999937, 18.1486242078705], [252.6748612095169, 18.0], [267.94336563407256, 17.202755228094162], [271.62755208806533, 17.0], [287.1745887492579, 16.192767198048116], [291.1196718067213, 16.0], [307.78610333622805, 15.236541675902123], [314.0239769138904, 15.0], [329.87697769322244, 14.446182493067766], [348.60305735801984, 14.0], [353.55339059327247, 13.892332955147754], [378.929141627598, 13.679976018031295], [406.12619817811606, 13.81148804898515], [416.92490220910025, 14.0], [435.2752816480601, 14.328275671986528], [460.2939337998706, 15.0], [466.5164957684015, 15.16530801707464], [491.9382343849609, 16.0], [499.9999999999975, 16.251129481853365], [522.5338782447318, 17.0], [535.8867312681438, 17.41717381311485], [556.6625909579619, 18.0], [574.3491774985143, 18.47658878962053], [601.510531057082, 19.0], [615.5722066724546, 19.27279774682834], [659.7539553864432, 19.71881199591524], [707.1067811865431, 19.812464797794565], [757.8582832551941, 19.63470967767216], [812.2523963562301, 19.29638144839528], [862.217177604839, 19.0], [870.5505632961181, 18.956311950142513], [933.0329915368008, 18.835991210632052], [980.9829769753657, 19.0], [999.9999999999926, 19.067945594429247], [1071.773462536285, 19.752555943551414], [1088.3718613811457, 20.0], [1148.698354997026, 20.842530455166468], [1157.9537458594407, 21.0], [1217.8747379396066, 22.0], [1231.1444133449063, 22.20206568462832], [1280.6792248338468, 23.0], [1319.5079107728832, 23.569483451496254], [1355.0134564607063, 24.0], [1414.2135623730828, 24.685979035635192], [1460.8080794214716, 25.0], [1515.7165665103846, 25.376117331609045], [1624.5047927124563, 25.533797804537198], [1741.1011265922318, 25.175604680420317], [1768.4665201211628, 25.0], [1866.065983073597, 24.419350373949086], [1920.3103395755177, 24.0], [1999.9999999999802, 23.39234648602084], [2050.0798082570345, 23.0], [2143.5469250725646, 22.26133056283271], [2180.4666342114583, 22.0], [2297.396709994046, 21.17302350248787], [2327.174025972865, 21.0], [2462.2888266898062, 20.24291917405347], [2519.0047415067743, 20.0], [2639.0158215457564, 19.52345659007609], [2828.427124746159, 19.01068128676905], [2835.2420724121957, 19.0], [3031.4331330207615, 18.736162224656553], [3249.0095854249043, 18.61918973035643], [3482.2022531844555, 18.603218833362433], [3732.1319661471844, 18.623154914771916], [3999.999999999946, 18.613386719772492], [4287.093850145118, 18.513321111657678], [4594.793419988076, 18.26358990933646], [4775.731727624194, 18.0], [4924.577653379601, 17.818163899836122], [5278.031643091506, 17.16485684777534], [5344.10220368233, 17.0], [5656.854249492303, 16.253165431006487], [5745.006861515125, 16.0], [6062.866266041508, 15.047545414703203], [6078.310719039293, 15.0], [6390.4660072972865, 14.000000000000002], [6498.019170849792, 13.644484224371881], [6708.70279061608, 13.0], [6964.404506368894, 12.146454565474198], [7021.777949644988, 12.0], [7393.387497045247, 11.0], [7464.2639322943505, 10.807197068674057], [7933.071301096266, 9.999999999999998], [7999.999999999872, 9.880261160659018]]}",,,,,,,,,,ttuwra,001,fr,0,0,2022-04-26_11h34.16.499,Cluster,2022.1.1,36.75662483008128,
,,,,5,0,5,0,10,0,10,0,,,none,,,,,,,,,,,,,,,,,,,,,,,,,,,,,,,,,,,,,,,,,,,,,,,,,,,,,,,,,,,,,,,,,,,,,,,,,,,,,,,,,,,,,,,,,,,,,,,,,,,,,,,,,,,,,,,,,,,,798.4392412000016,None,267.9433656340732,15.0,0.0008349270441553179,0,"[0.6324734387960667, 0.6414475868557031, 0.7779237278298204, 0.6550794454978568]","[522.3423096637641, 238.9054027115568, 325.2486804092938, 1208.0792794263868]",None,"[25.788902942437673, 24.653218692910055, 25.23241404027677, 27.0]",False,799.4484364000091,802.5302402000088,802.5302402000088,803.7477312000119,None,0,3.7361964666488348,4.767954366659978,None,1,None,1,,,,,,,,,,,,,,ttuwra,001,fr,0,0,2022-04-26_11h34.16.499,Cluster,2022.1.1,36.75662483008128,
,,,,5,0,5,0,11,0,11,0,,,time,,,,,,,,,,,,,,,,,,,,,,,,,,,,,,,,,,,,,,,,,,,,,,,,,,,,,,,,,,,,,,,,,,,,,,,,,,,,,,,,,,,,,,,,,,,,,,,,,,,,,,,,,,,,,,,,,,,,804.2694283000019,None,125.0,21.0,0.008109050486794653,1,"[0.5325563635197342, 0.5325563635197342, 0.5325563635197342, 0.5325563635197342]","[2112.8204181852198, 187.67454900435692, 513.8877884290775, 333.2659486106274]",None,"[29.64975290668494, 26.05866239498316, 25.93370344417099, 25.23241404027677]",False,805.2881968000002,807.9103193000046,807.9103193000046,809.1234918000118,['space'],1,3.1590459666622337,4.194782766659046,None,1,None,1,,[0.3430307999951765],,,,,,,,,,,,ttuwra,001,fr,0,0,2022-04-26_11h34.16.499,Cluster,2022.1.1,36.75662483008128,
,,,,5,0,5,0,12,0,12,0,,,time,,,,,,,,,,,,,,,,,,,,,,,,,,,,,,,,,,,,,,,,,,,,,,,,,,,,,,,,,,,,,,,,,,,,,,,,,,,,,,,,,,,,,,,,,,,,,,,,,,,,,,,,,,,,,,,,,,,,809.5402574000036,None,1197.4093963319592,21.0,0.0005869223659330405,1,"[0.5350459148738262, 0.5350459148738262, 0.5350459148738262, 0.5350459148738262]","[1493.6509342632637, 1077.8081354566484, 3615.1919534036115, 223.6654926810982]",None,"[29.0, 26.186896755875843, 27.0, 25.0]",False,810.5549828000076,813.1927334000065,813.1927334000065,814.4123833000049,['space'],1,3.160453966658679,4.174894066658453,None,1,None,1,,[0.31870550000166986],,,,,,,,,,,,ttuwra,001,fr,0,0,2022-04-26_11h34.16.499,Cluster,2022.1.1,36.75662483008128,
,,,,5,0,5,0,13,0,13,0,,,time,,,,,,,,,,,,,,,,,,,,,,,,,,,,,,,,,,,,,,,,,,,,,,,,,,,,,,,,,,,,,,,,,,,,,,,,,,,,,,,,,,,,,,,,,,,,,,,,,,,,,,,,,,,,,,,,,,,,814.7777481000085,None,,,,,"[0.47587777190308844, 0.47587777190308844, 0.47587777190308844, 0.47587777190308844]","[787.0364777904888, 170.51859851930334, 794.648014591704, 1624.7345767386155]",None,"[25.383581342819372, 27.0, 25.383581342819372, 29.546558954001995]",True,815.781341000009,818.2321459000086,818.2321459000086,819.458495800005,['space'],0,2.9232223666476784,3.934988766646711,None,1,None,1,,[0.3697684999933699],0,,,,,,,,,,,ttuwra,001,fr,0,0,2022-04-26_11h34.16.499,Cluster,2022.1.1,36.75662483008128,
,,,,5,0,5,0,14,0,14,0,,,none,,,,,,,,,,,,,,,,,,,,,,,,,,,,,,,,,,,,,,,,,,,,,,,,,,,,,,,,,,,,,,,,,,,,,,,,,,,,,,,,,,,,,,,,,,,,,,,,,,,,,,,,,,,,,,,,,,,,819.7580014000123,None,300.84703465065724,18.88373465489432,0.0009991301886873075,1,"[0.42346880322666086, 0.5908115770966578, 0.6012612836687333, 0.6843465631064989]","[6398.274326688435, 148.88948279986693, 132.31544907708874, 6161.58702791978]",None,"[17.0, 27.4547801860206, 27.64817655585913, 17.940131619078713]",False,820.7622734000033,823.4020120000059,823.4020120000059,824.6234932000079,['space'],1,3.3428810666664504,4.377871166667319,None,1,None,1,,[0.31379679999372456],,,,,,,,,,,,ttuwra,001,fr,0,0,2022-04-26_11h34.16.499,Cluster,2022.1.1,36.75662483008128,
,,,,5,0,5,0,15,0,15,0,,,none,,,,,,,,,,,,,,,,,,,,,,,,,,,,,,,,,,,,,,,,,,,,,,,,,,,,,,,,,,,,,,,,,,,,,,,,,,,,,,,,,,,,,,,,,,,,,,,,,,,,,,,,,,,,,,,,,,,,825.1880660000024,None,,,,,"[0.5210684091306443, 0.7839523282410066, 0.7296617278176973, 0.5209230923446064]","[1670.9047360358657, 454.69743951730266, 3565.1511887669317, 165.0809764019681]",None,"[29.546558954001995, 26.050848273502336, 27.0, 27.100592925878615]",True,826.1924050000089,829.2387487000087,829.2387487000087,830.4732932000043,None,1,3.58573796665587,4.5982044666598085,None,1,None,1,,,0,,,,,,,,,,,ttuwra,001,fr,0,0,2022-04-26_11h34.16.499,Cluster,2022.1.1,36.75662483008128,
