tTrials.thisRepN,tTrials.thisTrialN,tTrials.thisN,tTrials.thisIndex,blocks.thisRepN,blocks.thisTrialN,blocks.thisN,blocks.thisIndex,trials.thisRepN,trials.thisTrialN,trials.thisN,trials.thisIndex,tStart_text.started,tStart_text.stopped,Prediction,practice_Frequency,practice_Level,practice_Psychopy_Level,practice_isCatchTrial,Practice_trial_detection,practice_Cue_Delays,practice_Cue_Frequencies,practice_Interval,practice_Cue_Intensities,tCue_visual_cue.started,tCue_visual_cue.stopped,tProbe_visual_cue.started,tProbe_visual_cue.stopped,tFeedback.keys,tFeedback.corr,tFeedback.started,tFeedback.stopped,tToo_late.keys,tToo_late.corr,tToo_early.keys,tToo_early.corr,more_instructions.started,more_instructions.stopped,readyy.keys,readyy.rt,readyy.started,readyy.stopped,txt_rhythm.started,txt_rhythm.stopped,sound_1.started,sound_1.stopped,sound_2.started,sound_2.stopped,sound_3.started,sound_3.stopped,sound_4.started,sound_4.stopped,cross.started,cross.stopped,sound_5.started,sound_5.stopped,circle.started,circle.stopped,rhythm_ready.keys,rhythm_ready.rt,rhythm_ready.started,rhythm_ready.stopped,rhytm_ready_txt.started,rhytm_ready_txt.stopped,txt_freq.started,txt_freq.stopped,sound_6.started,sound_6.stopped,sound_7.started,sound_7.stopped,sound_8.started,sound_8.stopped,sound_9.started,sound_9.stopped,cross_2.started,cross_2.stopped,sound_10.started,sound_10.stopped,circle_2.started,circle_2.stopped,freq_ready.keys,freq_ready.rt,freq_ready.started,freq_ready.stopped,freq_ready_txt.started,freq_ready_txt.stopped,txt_freq_2.started,txt_freq_2.stopped,sound_11.started,sound_11.stopped,sound_12.started,sound_12.stopped,sound_13.started,sound_13.stopped,sound_14.started,sound_14.stopped,cross_3.started,cross_3.stopped,sound_15.started,sound_15.stopped,circle_3.started,circle_3.stopped,freq_ready_2.keys,freq_ready_2.rt,freq_ready_2.started,freq_ready_2.stopped,freq_ready_txt_2.started,freq_ready_txt_2.stopped,txt_freq_3.started,txt_freq_3.stopped,sound_16.started,sound_16.stopped,sound_17.started,sound_17.stopped,sound_18.started,sound_18.stopped,sound_19.started,sound_19.stopped,cross_4.started,cross_4.stopped,sound_20.started,sound_20.stopped,circle_4.started,circle_4.stopped,freq_ready_txt_3.started,freq_ready_txt_3.stopped,tStart_text_2.started,tStart_text_2.stopped,this_trial_is.started,this_trial_is.stopped,API_start,API_stop,API_duration,Frequency,Level,Psychopy_Level,Real trial detection,Cue Delays,Cue Frequencies,Interval,Cue Intensities,Catch trial,cue_visual_cue.started,cue_visual_cue.stopped,probe_visual_cue.started,probe_visual_cue.stopped,feedback.keys,feedback.corr,feedback.rt,feedback.started,feedback.stopped,answer_too_late.keys,answer_too_late.corr,answer_too_early.keys,answer_too_early.corr,answer_too_early.rt,Catch trial answer,answer_too_late.rt,Audiogram_none,participant,session,Language (english or french),Skip training? (1 for yes),Resume previous experiment,date,expName,psychopyVersion,frameRate,
0,0,0,0,,,,,,,,,None,None,time,1000,30,0.0013930605843148849,False,0,"[0.6675121347943924, 0.6675121347943924, 0.6675121347943924, 0.6675121347943924]","[590.3861011007272, 6762.006100686623, 181.31792923536827, 293.208727376071]",None,"[30, 30, 30, 30]",None,None,None,None,None,0,None,None,None,1,None,1,,,,,,,,,,,,,,,,,,,,,,,,,,,,,,,,,,,,,,,,,,,,,,,,,,,,,,,,,,,,,,,,,,,,,,,,,,,,,,,,,,,,,,,,,,,,,,,,,,,,,,,,,,,,,,,,,,,,,,,,,,,,eqdcwr,001,fr,1,1,2022-04-21_12h16.29.024,Cluster,2022.1.1,None,
1,0,1,0,,,,,,,,,,,both,2500,30,0.002716251657462167,False,0,"[0.6464176537810293, 0.6464176537810293, 0.6464176537810293, 0.6464176537810293]","[992.1256574801249, 1250.0000000000002, 1574.9013123685916, 1984.2513149602494]",Major_3rd,"[30, 30, 30, 30]",None,None,None,None,None,0,None,None,None,1,None,1,,,,,,,,,,,,,,,,,,,,,,,,,,,,,,,,,,,,,,,,,,,,,,,,,,,,,,,,,,,,,,,,,,,,,,,,,,,,,,,,,,,,,,,,,,,,,,,,,,,,,,,,,,,,,,,,,,,,,,,,,,,,eqdcwr,001,fr,1,1,2022-04-21_12h16.29.024,Cluster,2022.1.1,None,
2,0,2,0,,,,,,,,,,,frequency,6000,30,0.003664122665694519,True,0,"[0.6954266287100231, 0.6365743159318502, 0.6354183779716984, 0.574356935724967]","[3779.7631496846193, 4242.640687119285, 4762.203155904598, 5345.392308842036]",Tone,"[30, 30, 30, 30]",None,None,None,None,None,1,None,None,None,1,None,1,,,,,,,,,,,,,,,,,,,,,,,,,,,,,,,,,,,,,,,,,,,,,,,,,,,,,,,,,,,,,,,,,,,,,,,,,,,,,,,,,,,,,,,,,,,,,,,,,,,,,,,,,,,,,,,,,,,,,,,,,,,,eqdcwr,001,fr,1,1,2022-04-21_12h16.29.024,Cluster,2022.1.1,None,
3,0,3,0,,,,,,,,,,,frequency,440,30,0.0023562289915021436,False,1,"[0.4739137550432102, 0.7380103919261563, 0.7287828605892849, 0.5146434567338543]","[2217.4610478149766, 1479.9776908465376, 987.7666025122483, 659.2551138257398]",Perfect_5th,"[30, 30, 30, 30]",None,None,None,None,None,0,None,None,None,1,None,1,,,,,,,,,,,,,,,,,,,,,,,,,,,,,,,,,,,,,,,,,,,,,,,,,,,,,,,,,,,,,,,,,,,,,,,,,,,,,,,,,,,,,,,,,,,,,,,,,,,,,,,,,,,,,,,,,,,,,,,,,,,,eqdcwr,001,fr,1,1,2022-04-21_12h16.29.024,Cluster,2022.1.1,None,
4,0,4,0,,,,,,,,,,,none,250,30,0.005296268625886445,True,0,"[0.5878726739551382, 0.5626668225758962, 0.7607537109702316, 0.7331830121119034]","[330.6530074466534, 688.2135966595215, 145.46402870949942, 4183.797791204848]",None,"[30, 30, 30, 30]",None,None,None,None,None,1,None,None,None,1,None,1,,,,,,,,,,,,,,,,,,,,,,,,,,,,,,,,,,,,,,,,,,,,,,,,,,,,,,,,,,,,,,,,,,,,,,,,,,,,,,,,,,,,,,,,,,,,,,,,,,,,,,,,,,,,,,,,,,,,,,,,,,,,eqdcwr,001,fr,1,1,2022-04-21_12h16.29.024,Cluster,2022.1.1,None,
,,,,,,,,,,,,,,,,,,,,,,,,,,,,,,,,,,,,23.23724010004662,None,space,6.004532700171694,23.23724010004662,None,,,,,,,,,,,,,,,,,,,,,,,,,,,,,,,,,,,,,,,,,,,,,,,,,,,,,,,,,,,,,,,,,,,,,,,,,,,,,,,,,,,,,,,,,,,,,,,,,,,,,,,,,,,,,,,,,,,,,,eqdcwr,001,fr,1,1,2022-04-21_12h16.29.024,Cluster,2022.1.1,None,
,,,,,,,,,,,,,,,,,,,,,,,,,,,,,,,,,,,,,,,,,,29.303692599991336,30.31062090001069,30.75610433998518,30.98655700008385,31.271701239887626,31.49508300004527,31.75816434007138,None,32.27354114004411,32.494795500067994,30.662002499913797,32.494795500067994,32.77420164006762,32.995446499902755,32.494795500067994,33.30100729991682,space,0.40529000014066696,33.47615369991399,None,,,,,,,,,,,,,,,,,,,,,,,,,,,,,,,,,,,,,,,,,,,,,,,,,,,,,,,,,,,,,,,,,,,,,,,,,,,,,,,,,,,,,,,,,,,,,,,,,,eqdcwr,001,fr,1,1,2022-04-21_12h16.29.024,Cluster,2022.1.1,None,
,,,,,,,,,,,,,,,,,,,,,,,,,,,,,,,,,,,,,,,,,,,,,,,,,,,,,,,,,,,,,,33.47615369991399,None,33.9548273999244,34.98203149996698,35.427555540017785,35.64976150006987,35.70677453991957,35.92900040000677,36.411393240001054,36.629745699930936,36.810777039872484,37.029700899962336,35.33805690007284,37.12530789989978,37.40233763996512,37.62643270008266,37.12530789989978,37.92929859994911,space,0.029018400236964226,38.10811090003699,None,,,,,,,,,,,,,,,,,,,,,,,,,,,,,,,,,,,,,,,,,,,,,,,,,,,,,,,,,,,,,,,,,,,,,,,,,,,,eqdcwr,001,fr,1,1,2022-04-21_12h16.29.024,Cluster,2022.1.1,None,
,,,,,,,,,,,,,,,,,,,,,,,,,,,,,,,,,,,,,,,,,,,,,,,,,,,,,,,,,,,,,,,,,,,,,,,,,,,,,,,,,,,,38.10811090003699,None,38.17602039990015,39.184350499883294,39.66164673995227,None,40.161923240078615,40.381355199962854,40.67818473991938,40.895074599888176,41.148461040016265,41.36868639988825,39.57436840003356,41.36868639988825,41.65020233988762,41.869030999951065,41.36868639988825,42.18351530004293,space,0.4796736999414861,42.36229379987344,None,,,,,,,,,,,,,,,,,,,,,,,,,,,,,,,,,,,,,,,,,,,,,,,,,,,,,,eqdcwr,001,fr,1,1,2022-04-21_12h16.29.024,Cluster,2022.1.1,None,
,,,,0,0,0,0,0,0,0,0,,,none,,,,,,,,,,,,,,,,,,,,,,,,,,,,,,,,,,,,,,,,,,,,,,,,,,,,,,,,,,,,,,,,,,,,,,,,,,,,,,,,,,,,,,,,,,,,42.36229379987344,None,42.89525240007788,43.90713659999892,44.35637494004332,44.5784149998799,44.667021240014584,None,45.360614739963786,45.57459149998613,45.756183240003885,None,44.264278299873695,46.039630400016904,46.35574103998952,46.57336469995789,46.039630400016904,46.86044580000453,47.06014379998669,None,None,None,48.109049200080335,None,1650536225.0574503,1650536226.3442037,1.2867534160614014,189.4645708137998,2.0,0.0003824766710234111,1,"[0.6075313418215931, 0.7826977341766677, 0.6300873260962411, 0.45245061370939105]","[1598.5039882989092, 1282.8784817888393, 800.7089501043386, 4093.9892666420346]",None,"[9.26681740728439, 9.0, 3.464680763121044, 0.4940193753806348]",False,50.402007000055164,53.466150199994445,53.466150199994445,54.66901770001277,['space'],1,[0.49029260012321174],3.5094760204665363,4.5373761204537,None,1,['space'],0,[-6.848969999933615],,,,eqdcwr,001,fr,1,1,2022-04-21_12h16.29.024,Cluster,2022.1.1,None,
,,,,0,0,0,0,1,0,1,0,,,none,,,,,,,,,,,,,,,,,,,,,,,,,,,,,,,,,,,,,,,,,,,,,,,,,,,,,,,,,,,,,,,,,,,,,,,,,,,,,,,,,,,,,,,,,,,,,,,,,,,,,,,,,,,,,,,,,,55.938356099883094,None,,,,1133.3209695078522,5.0,8.825400896937108e-05,1,"[0.6567662625909667, 0.7721779307403898, 0.5093529195448141, 0.7463185874522678]","[502.9548806594026, 283.221808704264, 799.2607789387432, 177.4375916902164]",None,"[1.9387558237431435, 5.596181116739962, 3.464680763121044, 3.1083421672832143]",False,56.95737720001489,59.9252114999108,59.9252114999108,61.14330130000599,['space'],1,[0.3089487000834197],3.721390420338139,4.729811320314184,None,1,None,1,,,,,eqdcwr,001,fr,1,1,2022-04-21_12h16.29.024,Cluster,2022.1.1,None,
,,,,0,0,0,0,2,0,2,0,,,frequency,,,,,,,,,,,,,,,,,,,,,,,,,,,,,,,,,,,,,,,,,,,,,,,,,,,,,,,,,,,,,,,,,,,,,,,,,,,,,,,,,,,,,,,,,,,,,,,,,,,,,,,,,,,,,,,,,,62.69817059999332,None,1650536239.643864,1650536240.6842005,1.0403366088867188,574.3491774985172,-9.0,2.1234232560005863e-05,0,"[0.6835883375092258, 0.5940025742651089, 0.7961465859032981, 0.6094467682993456]","[1447.2692374403773, 1148.6983549970344, 911.7224885582164, 723.6346187201887]",Major_3rd,"[9.58105541366995, 7.374753143792167, 4.794025478362087, 2.335362874573512]",False,64.79148659994826,67.88344440003857,67.88344440003857,69.11825899989344,None,0,,3.7288164403289557,4.760088240262121,None,1,None,1,,,,,eqdcwr,001,fr,1,1,2022-04-21_12h16.29.024,Cluster,2022.1.1,None,
,,,,0,0,0,0,3,0,3,0,,,frequency,,,,,,,,,,,,,,,,,,,,,,,,,,,,,,,,,,,,,,,,,,,,,,,,,,,,,,,,,,,,,,,,,,,,,,,,,,,,,,,,,,,,,,,,,,,,,,,,,,,,,,,,,,,,,,,,,,70.5575868000742,None,,,,,,,,"[0.42445224687074107, 0.7572615163487952, 0.5397764983286383, 0.524173979703881]","[126.26688181049006, 159.08630229762448, 200.4361810147162, 252.53376362098007]",Major_3rd,"[4.2409982726429245, 3.6893224035748413, 2.895042193204213, 4.191212245504896]",True,71.5716262999922,74.32235169992782,74.32235169992782,75.5571713000536,None,1,,3.2872066202107817,4.300884120166302,None,1,None,1,,0,,,eqdcwr,001,fr,1,1,2022-04-21_12h16.29.024,Cluster,2022.1.1,None,
,,,,0,0,0,0,4,0,4,0,,,time,,,,,,,,,,,,,,,,,,,,,,,,,,,,,,,,,,,,,,,,,,,,,,,,,,,,,,,,,,,,,,,,,,,,,,,,,,,,,,,,,,,,,,,,,,,,,,,,,,,,,,,,,,,,,,,,,,76.89585219998844,None,1650536253.8235958,1650536256.1566093,2.3330135345458984,574.3491774985172,-9.0,2.1234232560005863e-05,0,"[0.6754211112373446, 0.6754211112373446, 0.6754211112373446, 0.6754211112373446]","[138.1068590216613, 2400.736106590926, 2293.0710160879335, 1115.3890578833132]",None,"[4.216895407745912, 2.0, 3.034886487796405, 7.0]",False,80.21520660002716,83.2648994999472,83.2648994999472,84.50023690005764,None,0,,3.716986460611224,4.747065760428086,None,1,None,1,,,,,eqdcwr,001,fr,1,1,2022-04-21_12h16.29.024,Cluster,2022.1.1,None,
,,,,0,0,0,0,5,0,5,0,,,time,,,,,,,,,,,,,,,,,,,,,,,,,,,,,,,,,,,,,,,,,,,,,,,,,,,,,,,,,,,,,,,,,,,,,,,,,,,,,,,,,,,,,,,,,,,,,,,,,,,,,,,,,,,,,,,,,,85.9722158999648,None,,,,3281.5845738677385,-2.1169056521073517,5.590121314310605e-05,1,"[0.6476325492751454, 0.6476325492751454, 0.6476325492751454, 0.6476325492751454]","[126.2486182719437, 172.82570334122116, 7189.942019339745, 630.3629462909137]",None,"[4.2409982726429245, 3.1083421672832143, 4.774566040266244, 1.493318367043476]",False,86.98806710005738,89.97308139991947,89.97308139991947,91.20724530005828,['space'],1,[0.12746500014327466],3.6158200199715793,4.6202605199068785,None,1,None,1,,,,,eqdcwr,001,fr,1,1,2022-04-21_12h16.29.024,Cluster,2022.1.1,None,
,,,,0,0,0,0,6,0,6,0,,,time,,,,,,,,,,,,,,,,,,,,,,,,,,,,,,,,,,,,,,,,,,,,,,,,,,,,,,,,,,,,,,,,,,,,,,,,,,,,,,,,,,,,,,,,,,,,,,,,,,,,,,,,,,,,,,,,,,92.62369540007785,None,1650536269.5733545,1650536272.236817,2.6634624004364014,8000.0,0.0,0.0001815390273850507,1,"[0.7314290404562654, 0.7314290404562654, 0.7314290404562654, 0.7314290404562654]","[219.86923746839744, 4289.010995022114, 895.6476376548045, 675.8797801320928]",None,"[3.0952451234517246, 0.8358100735481013, 4.110395708048437, 2.0]",False,96.29627829999663,99.51505020004697,99.51505020004697,100.7249539999757,['space'],1,[0.1758439999539405],3.9381060008890927,4.968270700890571,None,1,None,1,,,,,eqdcwr,001,fr,1,1,2022-04-21_12h16.29.024,Cluster,2022.1.1,None,
,,,,0,0,0,0,7,0,7,0,,,both,,,,,,,,,,,,,,,,,,,,,,,,,,,,,,,,,,,,,,,,,,,,,,,,,,,,,,,,,,,,,,,,,,,,,,,,,,,,,,,,,,,,,,,,,,,,,,,,,,,,,,,,,,,,,,,,,,102.31052719987929,None,,,,,,,,"[0.4548667072142452, 0.4548667072142452, 0.4548667072142452, 0.4548667072142452]","[2754.1229482746066, 1838.1565373206106, 1226.8223021093695, 818.8056514201082]",Perfect_5th,"[0.4143334754883661, 7.260159745099018, 8.303968446146236, 3.464680763121044]",True,103.30316030001268,105.68830729997717,105.68830729997717,106.92381260008551,['space'],0,[0.2175888002384454],2.8597867200151086,3.88865432003513,None,1,None,1,,0,,,eqdcwr,001,fr,1,1,2022-04-21_12h16.29.024,Cluster,2022.1.1,None,
,,,,0,0,0,0,8,0,8,0,,,none,,,,,,,,,,,,,,,,,,,,,,,,,,,,,,,,,,,,,,,,,,,,,,,,,,,,,,,,,,,,,,,,,,,,,,,,,,,,,,,,,,,,,,,,,,,,,,,,,,,,,,,,,,,,,,,,,,108.22334899986163,None,1650536285.187631,1650536286.759395,1.5717639923095703,2828.42712474619,0.0,6.548596627134577e-05,1,"[0.4717069244369597, 0.4083765927722645, 0.47908692667042346, 0.7069942070184693]","[868.3215138917249, 174.83739280581983, 7114.268402999635, 5643.774606031125]",None,"[4.110395708048437, 3.1083421672832143, 4.774566040266244, 3.247730475677683]",False,110.82129730004817,113.20427630003542,113.20427630003542,114.42718779994175,['space'],1,[0.3338414002209902],3.1231269205454737,4.152465920662507,None,1,None,1,,,,,eqdcwr,001,fr,1,1,2022-04-21_12h16.29.024,Cluster,2022.1.1,None,
,,,,0,0,0,0,9,0,9,0,,,none,,,,,,,,,,,,,,,,,,,,,,,,,,,,,,,,,,,,,,,,,,,,,,,,,,,,,,,,,,,,,,,,,,,,,,,,,,,,,,,,,,,,,,,,,,,,,,,,,,,,,,,,,,,,,,,,,,115.97316829999909,None,,,,3084.836495343777,-2.0526067063665256,4.96240058057869e-05,0,"[0.4239522914340502, 0.4989770094671684, 0.7370211018011863, 0.5684500379783785]","[310.5028902888585, 817.4190969019782, 4157.859249322964, 1524.4423034270396]",None,"[6.059135077977032, 3.464680763121044, 0.8358100735481013, 9.6570143092373]",False,116.98460259987041,119.68180410005152,119.68180410005152,120.90421970002353,None,0,,3.2550135201308876,4.273742520017549,None,1,None,1,,,,,eqdcwr,001,fr,1,1,2022-04-21_12h16.29.024,Cluster,2022.1.1,None,
,,,,0,0,0,0,10,0,10,0,,,time,,,,,,,,,,,,,,,,,,,,,,,,,,,,,,,,,,,,,,,,,,,,,,,,,,,,,,,,,,,,,,,,,,,,,,,,,,,,,,,,,,,,,,,,,,,,,,,,,,,,,,,,,,,,,,,,,,122.27124830009416,None,,,,643.729138108855,-0.41446251275577584,4.763272500872133e-05,1,"[0.6854902558011704, 0.6854902558011704, 0.6854902558011704, 0.6854902558011704]","[422.798621298852, 5468.817270848464, 165.94095171895492, 2952.70483019936]",None,"[4.0, 3.0, 3.3723023506590977, 0.1755438318443634]",False,123.28761280002072,126.37669499986805,126.37669499986805,127.61272910004482,['space'],1,[0.08508970006369054],3.789159120293334,4.812257720390335,None,1,None,1,,,,,eqdcwr,001,fr,1,1,2022-04-21_12h16.29.024,Cluster,2022.1.1,None,
,,,,0,0,0,0,11,0,11,0,,,both,,,,,,,,,,,,,,,,,,,,,,,,,,,,,,,,,,,,,,,,,,,,,,,,,,,,,,,,,,,,,,,,,,,,,,,,,,,,,,,,,,,,,,,,,,,,,,,,,,,,,,,,,,,,,,,,,,129.12023180001415,None,1650536306.0754654,1650536307.1346035,1.0591380596160889,1071.7734625362941,10.0,0.00014879946107062842,1,"[0.6569787320735823, 0.6569787320735823, 0.6569787320735823, 0.6569787320735823]","[1701.334321901713, 1515.7165665103996, 1350.3499461681913, 1203.0250360821178]",Tone,"[8.426474349612413, 9.6570143092373, 9.103541586562777, 8.0]",False,131.1942996000871,134.1833061000798,134.1833061000798,135.386259800056,['space'],1,[0.3566431002691388],3.6644034003838897,4.694279100280255,None,1,None,1,,,,,eqdcwr,001,fr,1,1,2022-04-21_12h16.29.024,Cluster,2022.1.1,None,
,,,,0,0,0,0,12,0,12,0,,,frequency,,,,,,,,,,,,,,,,,,,,,,,,,,,,,,,,,,,,,,,,,,,,,,,,,,,,,,,,,,,,,,,,,,,,,,,,,,,,,,,,,,,,,,,,,,,,,,,,,,,,,,,,,,,,,,,,,,136.89667819999158,None,,,,,,,,"[0.5772449652861461, 0.6280466636328206, 0.4425276110857096, 0.48167350154242095]","[3637.2093195785637, 3240.385120420638, 2886.8549500637755, 2571.8953744689106]",Tone,"[0.2889914060118919, 0.12314290329400102, 0.4143334754883661, 1.0]",True,137.9060356998816,140.5765728999395,140.5765728999395,141.79219170007855,['space'],0,[0.1997136001009494],3.154669620329514,4.173181320307776,None,1,None,1,,0,,,eqdcwr,001,fr,1,1,2022-04-21_12h16.29.024,Cluster,2022.1.1,None,
,,,,0,0,0,0,13,0,13,0,,,none,,,,,,,,,,,,,,,,,,,,,,,,,,,,,,,,,,,,,,,,,,,,,,,,,,,,,,,,,,,,,,,,,,,,,,,,,,,,,,,,,,,,,,,,,,,,,,,,,,,,,,,,,,,,,,,,,,143.0959713999182,None,1650536320.0327103,1650536321.3254993,1.2927889823913574,1624.5047927124701,7.0,0.0001295257074132791,1,"[0.4292865540786176, 0.7078627060034783, 0.7380706706756983, 0.7522086232523034]","[4708.8447332655, 3502.332477481094, 159.92714328993034, 1480.482516218601]",None,"[1.3072675182586222, 0.17184970796578725, 3.3723023506590977, 9.6570143092373]",False,145.38679939997382,148.27519309986383,148.27519309986383,149.50026899995282,['space'],1,[0.35269760014489293],3.64749112050049,4.657969820545986,None,1,None,1,,,,,eqdcwr,001,fr,1,1,2022-04-21_12h16.29.024,Cluster,2022.1.1,None,
,,,,0,0,0,0,14,0,14,0,,,both,,,,,,,,,,,,,,,,,,,,,,,,,,,,,,,,,,,,,,,,,,,,,,,,,,,,,,,,,,,,,,,,,,,,,,,,,,,,,,,,,,,,,,,,,,,,,,,,,,,,,,,,,,,,,,,,,,151.07735130004585,None,,,,587.6001373168474,-0.8410274270283072,5.244679817494909e-05,1,"[0.717712490546135, 0.717712490546135, 0.717712490546135, 0.717712490546135]","[370.164890963307, 415.4960417228893, 466.378538056711, 523.4922091146667]",Tone,"[5.289027767580068, 4.0, 2.6311300037882948, 1.4829887434687423]",False,152.09050439996645,155.27187249995768,155.27187249995768,156.50758989993483,['space'],1,[0.6425859001465142],3.9184794202446938,4.934884520247579,None,1,None,1,,,,,eqdcwr,001,fr,1,1,2022-04-21_12h16.29.024,Cluster,2022.1.1,None,
,,,,0,0,0,0,15,0,15,0,,,time,,,,,,,,,,,,,,,,,,,,,,,,,,,,,,,,,,,,,,,,,,,,,,,,,,,,,,,,,,,,,,,,,,,,,,,,,,,,,,,,,,,,,,,,,,,,,,,,,,,,,,,,,,,,,,,,,,158.03295410005376,None,1650536334.9746263,1650536338.5601854,3.585559129714966,5278.031643091578,-2.0,0.00011318642836647141,0,"[0.7857486142273953, 0.7857486142273953, 0.7857486142273953, 0.7857486142273953]","[187.82951366072373, 163.83845724251478, 1531.3098988117592, 5646.593648997355]",None,"[2.9238165415902073, 3.3723023506590977, 9.6570143092373, 3.247730475677683]",False,162.62127080000937,166.0175449999515,166.0175449999515,167.25313750002533,None,0,,4.152804780984297,5.1819335808977485,None,1,['space'],0,[-7.624961499823257],,,,eqdcwr,001,fr,1,1,2022-04-21_12h16.29.024,Cluster,2022.1.1,None,
,,,,0,0,0,0,16,0,16,0,,,time,,,,,,,,,,,,,,,,,,,,,,,,,,,,,,,,,,,,,,,,,,,,,,,,,,,,,,,,,,,,,,,,,,,,,,,,,,,,,,,,,,,,,,,,,,,,,,,,,,,,,,,,,,,,,,,,,,168.841323700035,None,,,,,,,,"[0.6426986807605272, 0.6426986807605272, 0.6426986807605272, 0.6426986807605272]","[162.86683202849224, 1896.7321180277631, 784.2661135026704, 5921.584624373495]",None,"[3.3723023506590977, 7.0, 3.0, 3.8729078284856655]",True,169.84131729998626,172.79438169999048,172.79438169999048,174.02747149998322,['space'],0,[0.40702680009417236],3.589502020040527,4.622062820009887,None,1,None,1,,0,,,eqdcwr,001,fr,1,1,2022-04-21_12h16.29.024,Cluster,2022.1.1,None,
,,,,0,0,0,0,17,0,17,0,,,frequency,,,,,,,,,,,,,,,,,,,,,,,,,,,,,,,,,,,,,,,,,,,,,,,,,,,,,,,,,,,,,,,,,,,,,,,,,,,,,,,,,,,,,,,,,,,,,,,,,,,,,,,,,,,,,,,,,,175.48381130001508,None,,,,167.56604152824767,1.1479791289012402,0.0004377629754882504,1,"[0.5496838131896147, 0.7809487303892247, 0.4664087148936171, 0.606170302230487]","[422.2399659379955, 335.1320830564954, 265.99451059608737, 211.11998296899773]",Major_3rd,"[4.0, 6.159795749040223, 4.941271169810042, 3.0]",False,176.4781454000622,179.29947909992188,179.29947909992188,180.5337620000355,['space'],1,[0.3167814000044018],3.424252020427957,4.44453442026861,None,1,None,1,,,,,eqdcwr,001,fr,1,1,2022-04-21_12h16.29.024,Cluster,2022.1.1,None,
,,,,0,0,0,0,18,0,18,0,,,frequency,,,,,,,,,,,,,,,,,,,,,,,,,,,,,,,,,,,,,,,,,,,,,,,,,,,,,,,,,,,,,,,,,,,,,,,,,,,,,,,,,,,,,,,,,,,,,,,,,,,,,,,,,,,,,,,,,,181.94094139989465,None,1650536358.895712,1650536360.201355,1.305643081665039,1231.1444133449168,11.0,0.00019060770296529212,1,"[0.5960407132396486, 0.789019513346026, 0.7605939906074803, 0.5957636970018247]","[488.5799842171233, 615.5722066724585, 775.5723809168677, 977.1599684342464]",Major_3rd,"[2.0, 1.493318367043476, 3.0, 5.565978271147425]",False,184.26427799998783,187.43874179990962,187.43874179990962,188.67458859994076,['space'],1,[0.8650492001324892],3.7638190204743296,4.791889720596373,None,1,None,1,,,,,eqdcwr,001,fr,1,1,2022-04-21_12h16.29.024,Cluster,2022.1.1,None,
,,,,0,0,0,0,19,0,19,0,,,none,,,,,,,,,,,,,,,,,,,,,,,,,,,,,,,,,,,,,,,,,,,,,,,,,,,,,,,,,,,,,,,,,,,,,,,,,,,,,,,,,,,,,,,,,,,,,,,,,,,,,,,,,,,,,,,,,,190.08358579990454,None,,,,918.2586066944896,2.463256299630142,5.541188170841358e-05,1,"[0.7886105271092285, 0.733801199864877, 0.6890855215980887, 0.4658574872038987]","[210.76606159963018, 7430.127863115466, 5732.082563993284, 861.8389255875819]",None,"[3.0, 4.967547816596368, 3.247730475677683, 4.0]",False,191.07721080002375,194.3109796999488,194.3109796999488,195.51610230002552,['space'],1,[0.06126390001736581],3.7061632201075554,4.7373134202789515,['space'],0,None,1,,,[-0.05924939992837608],,eqdcwr,001,fr,1,1,2022-04-21_12h16.29.024,Cluster,2022.1.1,None,
,,,,1,0,1,0,0,0,0,0,,,none,,,,,,,,,,,,,,,,,,,,,,,,,,,,,,,,,,,,,,,,,,,,,,,,,,,,,,,,,,,,,,,,,,,,,,,,,,,,,,,,,,,,,,,,,,,,,,,,,,,,,,,,,,,,,,,,,,205.25976120005362,None,,,,,,,,"[0.7481130113788788, 0.5003196446997468, 0.7502360597635631, 0.7222255497993018]","[2135.0030931791466, 3784.7190333667563, 933.8963194964525, 2746.4671179416496]",None,"[4.40792723066625, 0.2889914060118919, 4.794025478362087, 0.4143334754883661]",True,206.24622149998322,209.26539160008542,209.26539160008542,210.4997942999471,None,1,,3.7543611202854663,4.7820329202804714,None,1,['space'],0,[0.40760530019178987],0,,,eqdcwr,001,fr,1,1,2022-04-21_12h16.29.024,Cluster,2022.1.1,None,
,,,,1,0,1,0,1,0,1,0,,,time,,,,,,,,,,,,,,,,,,,,,,,,,,,,,,,,,,,,,,,,,,,,,,,,,,,,,,,,,,,,,,,,,,,,,,,,,,,,,,,,,,,,,,,,,,,,,,,,,,,,,,,,,,,,,,,,,,212.0411155000329,None,,,,5853.252808321245,1.023680516435863,0.00013645128073997394,0,"[0.5511828728335874, 0.5511828728335874, 0.5511828728335874, 0.5511828728335874]","[1070.0228871505963, 1592.875395578083, 2207.2649345867762, 681.1877991785007]",None,"[6.437138982256159, 9.26681740728439, 4.0, 2.0]",False,213.05503479996696,215.73351310007274,215.73351310007274,216.94193079997785,None,0,,3.2543183201923966,4.28153812000528,None,1,None,1,,,,,eqdcwr,001,fr,1,1,2022-04-21_12h16.29.024,Cluster,2022.1.1,None,
,,,,1,0,1,0,2,0,2,0,,,frequency,,,,,,,,,,,,,,,,,,,,,,,,,,,,,,,,,,,,,,,,,,,,,,,,,,,,,,,,,,,,,,,,,,,,,,,,,,,,,,,,,,,,,,,,,,,,,,,,,,,,,,,,,,,,,,,,,,218.35555249988101,None,,,,164.34902387864267,1.1479791289012402,0.00045113476916635366,1,"[0.6087112117847946, 0.7329994610543786, 0.5912831353357624, 0.5270430609176087]","[260.88781339490413, 232.42461853195613, 207.06679471437707, 184.4755419804673]",Tone,"[4.941271169810042, 3.5253033140191206, 3.0, 3.0]",False,219.35642000008374,222.3066489000339,222.3066489000339,223.5116864000447,['space'],1,[0.19131650030612946],3.4884075201116502,4.523331120144576,None,1,None,1,,,,,eqdcwr,001,fr,1,1,2022-04-21_12h16.29.024,Cluster,2022.1.1,None,
,,,,1,0,1,0,3,0,3,0,,,time,,,,,,,,,,,,,,,,,,,,,,,,,,,,,,,,,,,,,,,,,,,,,,,,,,,,,,,,,,,,,,,,,,,,,,,,,,,,,,,,,,,,,,,,,,,,,,,,,,,,,,,,,,,,,,,,,,224.9203057999257,None,1650536401.8738368,1650536404.8852925,3.011455774307251,287.17458874925893,-1.0,0.0001141689127028708,1,"[0.4322371622009472, 0.4322371622009472, 0.4322371622009472, 0.4322371622009472]","[595.4014760936084, 199.2070730597364, 342.0082289937865, 427.7036971580173]",None,"[1.493318367043476, 2.895042193204213, 6.0, 4.0]",False,228.9925742999185,231.32414150005206,231.32414150005206,232.55551069998182,['space'],1,[0.6199336999561638],2.7606416610069573,3.7894795609172434,None,1,None,1,,,,,eqdcwr,001,fr,1,1,2022-04-21_12h16.29.024,Cluster,2022.1.1,None,
,,,,1,0,1,0,4,0,4,0,,,none,,,,,,,,,,,,,,,,,,,,,,,,,,,,,,,,,,,,,,,,,,,,,,,,,,,,,,,,,,,,,,,,,,,,,,,,,,,,,,,,,,,,,,,,,,,,,,,,,,,,,,,,,,,,,,,,,,233.8103775999043,None,1650536410.7493608,1650536412.501952,1.7525911331176758,4594.793419988137,-1.0,0.0001112864677867834,1,"[0.40999373173520853, 0.45420132996334117, 0.606873244085737, 0.6177777599858326]","[331.4302111202933, 2437.9912929335915, 862.2637619707027, 2173.0782090510193]",None,"[6.159795749040223, 2.0, 4.0, 4.0]",False,236.5642971000634,239.06075489986688,239.06075489986688,240.29237539996393,['space'],1,[0.10824059997685254],3.1313332605641335,4.137602160684764,None,1,None,1,,,,,eqdcwr,001,fr,1,1,2022-04-21_12h16.29.024,Cluster,2022.1.1,None,
,,,,1,0,1,0,5,0,5,0,,,none,,,,,,,,,,,,,,,,,,,,,,,,,,,,,,,,,,,,,,,,,,,,,,,,,,,,,,,,,,,,,,,,,,,,,,,,,,,,,,,,,,,,,,,,,,,,,,,,,,,,,,,,,,,,,,,,,,241.73042159993201,None,,,,1297.3909795430127,6.76323679566362,0.00011618634779417225,1,"[0.4356541213420721, 0.7802620945498141, 0.7340872412200361, 0.46733877071528335]","[4363.709104300146, 2848.4710948226, 1452.2581020839546, 442.90657776719036]",None,"[1.0, 0.4143334754883661, 9.58105541366995, 3.5168375051606526]",False,242.7464936999604,245.73142750002444,245.73142750002444,246.93504679994658,['space'],1,[0.2890326001215726],3.455634120153263,4.488258420256898,None,1,None,1,,,,,eqdcwr,001,fr,1,1,2022-04-21_12h16.29.024,Cluster,2022.1.1,None,
,,,,1,0,1,0,6,0,6,0,,,frequency,,,,,,,,,,,,,,,,,,,,,,,,,,,,,,,,,,,,,,,,,,,,,,,,,,,,,,,,,,,,,,,,,,,,,,,,,,,,,,,,,,,,,,,,,,,,,,,,,,,,,,,,,,,,,,,,,,248.27612910000607,None,1650536425.2326775,1650536426.528228,1.2955505847930908,8000.0,0.0,0.0001815390273850507,0,"[0.5096200489488495, 0.5610596450709002, 0.5011981399232434, 0.4673041099771793]","[3174.8021039364003, 4000.0000000000014, 5039.684199579494, 6349.604207872799]",Major_3rd,"[0.12314290329400102, 0.4940193753806348, 2.0, 4.3900618468875034]",False,250.59068439994007,253.2041881000623,253.2041881000623,254.4084584999364,None,0,,3.079263320658356,4.11235092068091,None,1,None,1,,,,,eqdcwr,001,fr,1,1,2022-04-21_12h16.29.024,Cluster,2022.1.1,None,
,,,,1,0,1,0,7,0,7,0,,,none,,,,,,,,,,,,,,,,,,,,,,,,,,,,,,,,,,,,,,,,,,,,,,,,,,,,,,,,,,,,,,,,,,,,,,,,,,,,,,,,,,,,,,,,,,,,,,,,,,,,,,,,,,,,,,,,,,255.71982820006087,None,,,,,,,,"[0.4658820856993998, 0.640246150933196, 0.6209104717331383, 0.5851271523706214]","[555.4155923780442, 302.2815760174213, 605.6524771332278, 6394.94634476461]",None,"[1.3517870611377325, 6.0, 1.493318367043476, 4.3900618468875034]",True,256.7276103000622,259.4794449999463,259.4794449999463,260.68577490001917,['space'],0,[0.1649193000048399],3.359038020251319,4.384807520080358,None,1,None,1,,0,,,eqdcwr,001,fr,1,1,2022-04-21_12h16.29.024,Cluster,2022.1.1,None,
,,,,1,0,1,0,8,0,8,0,,,frequency,,,,,,,,,,,,,,,,,,,,,,,,,,,,,,,,,,,,,,,,,,,,,,,,,,,,,,,,,,,,,,,,,,,,,,,,,,,,,,,,,,,,,,,,,,,,,,,,,,,,,,,,,,,,,,,,,,262.12571209995076,None,,,,6062.162553957334,1.6203762634771706,0.00014316362457183056,1,"[0.7997625814575646, 0.6613228410328442, 0.5513200258964135, 0.5468270558012263]","[3818.9231048076545, 4286.59625055839, 4811.541607677049, 5400.772848478954]",Tone,"[0.2889914060118919, 0.8358100735481013, 1.9130873754749476, 3.0]",False,263.13646250008605,266.18287379993126,266.18287379993126,267.38735199999064,['space'],1,[0.3149090001825243],3.583339920034632,4.613364020129666,None,1,None,1,,,,,eqdcwr,001,fr,1,1,2022-04-21_12h16.29.024,Cluster,2022.1.1,None,
,,,,1,0,1,0,9,0,9,0,,,time,,,,,,,,,,,,,,,,,,,,,,,,,,,,,,,,,,,,,,,,,,,,,,,,,,,,,,,,,,,,,,,,,,,,,,,,,,,,,,,,,,,,,,,,,,,,,,,,,,,,,,,,,,,,,,,,,,268.7828842999879,None,,,,7685.562772370356,2.6417106971943416,0.00023314890944656975,1,"[0.7749100134088427, 0.7749100134088427, 0.7749100134088427, 0.7749100134088427]","[1031.6906339620548, 166.5268314156616, 6016.050090848289, 863.9094348256789]",None,"[6.0, 3.3723023506590977, 3.8729078284856655, 4.0]",False,269.78371029999107,273.12503320001997,273.12503320001997,274.35906230006367,['space'],1,[0.020960200112313032],4.143244520295411,5.176053220406175,None,1,None,1,,,,,eqdcwr,001,fr,1,1,2022-04-21_12h16.29.024,Cluster,2022.1.1,None,
,,,,1,0,1,0,10,0,10,0,,,time,,,,,,,,,,,,,,,,,,,,,,,,,,,,,,,,,,,,,,,,,,,,,,,,,,,,,,,,,,,,,,,,,,,,,,,,,,,,,,,,,,,,,,,,,,,,,,,,,,,,,,,,,,,,,,,,,,275.9973164999392,None,1650536452.9384384,1650536456.5863972,3.647958755493164,1148.6983549970344,8.0,0.00012627772590742052,1,"[0.6570137894646756, 0.6570137894646756, 0.6570137894646756, 0.6570137894646756]","[2238.5859345225213, 899.3697606368648, 2798.8675981272486, 4973.204330256518]",None,"[4.0, 4.110395708048437, 0.4143334754883661, 2.0]",False,280.64895709999837,283.65135499997996,283.65135499997996,284.87357529997826,['space'],1,[0.2891767001710832],3.6584680010564625,4.660516300937161,None,1,None,1,,,,,eqdcwr,001,fr,1,1,2022-04-21_12h16.29.024,Cluster,2022.1.1,None,
,,,,1,0,1,0,11,0,11,0,,,frequency,,,,,,,,,,,,,,,,,,,,,,,,,,,,,,,,,,,,,,,,,,,,,,,,,,,,,,,,,,,,,,,,,,,,,,,,,,,,,,,,,,,,,,,,,,,,,,,,,,,,,,,,,,,,,,,,,,286.3169537000358,None,,,,,,,,"[0.5787719840586925, 0.4703515095223305, 0.7918143029459082, 0.5487927414723266]","[2911.89195240705, 1943.4547145549618, 1297.1004038813055, 865.7106569804073]",Perfect_5th,"[0.4143334754883661, 6.0, 9.0, 4.110395708048437]",True,287.33106760005467,290.1909556000028,290.1909556000028,291.4087159000337,['space'],0,[0.8234778002370149],3.4088034201413393,4.417870220262557,None,1,None,1,,0,,,eqdcwr,001,fr,1,1,2022-04-21_12h16.29.024,Cluster,2022.1.1,None,
,,,,1,0,1,0,12,0,12,0,,,none,,,,,,,,,,,,,,,,,,,,,,,,,,,,,,,,,,,,,,,,,,,,,,,,,,,,,,,,,,,,,,,,,,,,,,,,,,,,,,,,,,,,,,,,,,,,,,,,,,,,,,,,,,,,,,,,,,292.7665110998787,None,1650536469.7164607,1650536471.8160655,2.099604845046997,8000.0,-2.0,0.00014420157515633036,0,"[0.5228698685029436, 0.6710651220215699, 0.6377493961466649, 0.6911973400537879]","[3105.5617718511285, 136.99859117809515, 278.4823892456699, 151.10962462484068]",None,"[0.1755438318443634, 4.216895407745912, 5.596181116739962, 3.6893224035748413]",False,295.8802708000876,298.75521530001424,298.75521530001424,299.9783409999218,None,0,,3.568309340858832,4.5761771409306675,None,1,None,1,,,,,eqdcwr,001,fr,1,1,2022-04-21_12h16.29.024,Cluster,2022.1.1,None,
,,,,1,0,1,0,13,0,13,0,,,frequency,,,,,,,,,,,,,,,,,,,,,,,,,,,,,,,,,,,,,,,,,,,,,,,,,,,,,,,,,,,,,,,,,,,,,,,,,,,,,,,,,,,,,,,,,,,,,,,,,,,,,,,,,,,,,,,,,,301.4833825000096,None,1650536478.419951,1650536479.7785308,1.3585798740386963,2828.42712474619,-1.0,5.8364428873931735e-05,1,"[0.41830367144483005, 0.6404117953024168, 0.5975488124189057, 0.5460750560269437]","[1781.7974362806788, 2000.0000000000002, 2244.9240966187463, 2519.8420997897465]",Tone,"[8.0, 5.879256653915908, 3.034886487796405, 1.836466042985346]",False,303.84335920005105,306.532355299918,306.532355299918,307.7447434000205,['space'],1,[0.24342160020023584],3.2269464004784822,4.256997000426054,None,1,None,1,,,,,eqdcwr,001,fr,1,1,2022-04-21_12h16.29.024,Cluster,2022.1.1,None,
,,,,1,0,1,0,14,0,14,0,,,frequency,,,,,,,,,,,,,,,,,,,,,,,,,,,,,,,,,,,,,,,,,,,,,,,,,,,,,,,,,,,,,,,,,,,,,,,,,,,,,,,,,,,,,,,,,,,,,,,,,,,,,,,,,,,,,,,,,,309.12248010002077,None,,,,6902.944992312445,2.468256625445778,0.00019701945204901423,0,"[0.4462376071028717, 0.7006576569935445, 0.7983333881264513, 0.6980017908417384]","[1369.7177678094238, 2052.257824832591, 3074.912422522216, 4607.163043441056]",Perfect_5th,"[9.58105541366995, 5.0, 0.1755438318443634, 1.3072675182586222]",False,310.1209450000897,313.10606290004216,313.10606290004216,314.33126630005427,None,0,,3.687401220202446,4.696346220327541,None,1,None,1,,,,,eqdcwr,001,fr,1,1,2022-04-21_12h16.29.024,Cluster,2022.1.1,None,
,,,,1,0,1,0,15,0,15,0,,,both,,,,,,,,,,,,,,,,,,,,,,,,,,,,,,,,,,,,,,,,,,,,,,,,,,,,,,,,,,,,,,,,,,,,,,,,,,,,,,,,,,,,,,,,,,,,,,,,,,,,,,,,,,,,,,,,,,315.8401570999995,None,1650536492.7828164,1650536494.2811725,1.4983561038970947,5278.031643091578,2.0,0.00017938839979700797,1,"[0.6282237545443075, 0.6282237545443075, 0.6282237545443075, 0.6282237545443075]","[1047.294122820627, 1569.168195793502, 2351.095812567218, 3522.6634943845947]",Perfect_5th,"[6.0, 9.6570143092373, 3.0, 0.17184970796578725]",False,318.3444371998776,321.2654353999533,321.2654353999533,322.4753405000083,['space'],1,[0.004539099987596273],3.5471971007063985,4.577594100730494,None,1,None,1,,,,,eqdcwr,001,fr,1,1,2022-04-21_12h16.29.024,Cluster,2022.1.1,None,
,,,,1,0,1,0,16,0,16,0,,,none,,,,,,,,,,,,,,,,,,,,,,,,,,,,,,,,,,,,,,,,,,,,,,,,,,,,,,,,,,,,,,,,,,,,,,,,,,,,,,,,,,,,,,,,,,,,,,,,,,,,,,,,,,,,,,,,,,323.9722893999424,None,,,,,,,,"[0.6357194860372637, 0.7710368181155588, 0.7462158938190978, 0.7359833819095681]","[151.27035606935848, 3098.0919849943803, 1166.7710540285639, 1948.8150575774655]",None,"[3.6893224035748413, 0.1755438318443634, 7.374753143792167, 6.0]",True,324.9686447000131,328.13946340000257,328.13946340000257,329.3271518999245,None,1,,3.9104961201082915,4.9097061201464385,None,1,None,1,,0,,,eqdcwr,001,fr,1,1,2022-04-21_12h16.29.024,Cluster,2022.1.1,None,
,,,,1,0,1,0,17,0,17,0,,,time,,,,,,,,,,,,,,,,,,,,,,,,,,,,,,,,,,,,,,,,,,,,,,,,,,,,,,,,,,,,,,,,,,,,,,,,,,,,,,,,,,,,,,,,,,,,,,,,,,,,,,,,,,,,,,,,,,330.92056940007024,None,,,,274.3524014898602,3.0,0.00020013335798938853,1,"[0.7482367166957469, 0.7482367166957469, 0.7482367166957469, 0.7482367166957469]","[1150.8696303556997, 296.61848868037515, 2142.2960544887383, 1081.0008177738514]",None,"[7.374753143792167, 6.0, 4.40792723066625, 6.437138982256159]",False,331.9286138000898,335.22272909991443,335.22272909991443,336.43501950008795,['space'],1,[0.41015440016053617],4.025939119979739,5.030124119948596,None,1,None,1,,,,,eqdcwr,001,fr,1,1,2022-04-21_12h16.29.024,Cluster,2022.1.1,None,
,,,,1,0,1,0,18,0,18,0,,,frequency,,,,,,,,,,,,,,,,,,,,,,,,,,,,,,,,,,,,,,,,,,,,,,,,,,,,,,,,,,,,,,,,,,,,,,,,,,,,,,,,,,,,,,,,,,,,,,,,,,,,,,,,,,,,,,,,,,337.9719149998855,None,1650536514.908854,1650536516.143903,1.2350490093231201,287.17458874925893,-1.0,0.0001141689127028708,0,"[0.6301988651208261, 0.5326526285968634, 0.4832355278581595, 0.5566133165465075]","[723.6346187201895, 574.3491774985179, 455.8612442791087, 361.8173093600947]",Major_3rd,"[2.335362874573512, 1.3517870611377325, 3.0, 5.893201081980479]",False,340.20746679999866,342.8899206998758,342.8899206998758,344.125228199875,None,0,,3.252378740347922,4.27100034034811,None,1,None,1,,,,,eqdcwr,001,fr,1,1,2022-04-21_12h16.29.024,Cluster,2022.1.1,None,
,,,,1,0,1,0,19,0,19,0,,,frequency,,,,,,,,,,,,,,,,,,,,,,,,,,,,,,,,,,,,,,,,,,,,,,,,,,,,,,,,,,,,,,,,,,,,,,,,,,,,,,,,,,,,,,,,,,,,,,,,,,,,,,,,,,,,,,,,,,345.50192270008847,None,,,,872.8698664580588,1.7580508907210064,4.951135181301474e-05,1,"[0.516661666621836, 0.4129684486209678, 0.7792414236008269, 0.6318697338387818]","[2199.494237138871, 1745.739732916118, 1385.5945442468646, 1099.7471185694353]",Major_3rd,"[4.0, 8.426474349612413, 9.58105541366995, 7.0]",False,346.498104600003,349.22870650002733,349.22870650002733,350.46275569987483,['space'],1,[0.3049869001843035],3.3671300201676786,4.388247120194137,None,1,None,1,,,,,eqdcwr,001,fr,1,1,2022-04-21_12h16.29.024,Cluster,2022.1.1,None,
,,,,2,0,2,0,0,0,0,0,,,none,,,,,,,,,,,,,,,,,,,,,,,,,,,,,,,,,,,,,,,,,,,,,,,,,,,,,,,,,,,,,,,,,,,,,,,,,,,,,,,,,,,,,,,,,,,,,,,,,,,,,,,,,,,,,,,,,,354.97600380005315,None,,,,,,,,"[0.47470898628125213, 0.4998570762044293, 0.49671968708968595, 0.65070268955872]","[935.2655865794483, 4355.4674991980855, 130.55222980664206, 6833.762943283746]",None,"[4.794025478362087, 1.0, 4.216895407745912, 4.774566040266244]",True,355.9614359000698,358.47122769989073,358.47122769989073,359.69091330002993,None,1,,3.146528320154175,4.165878220228478,None,1,None,1,,0,,,eqdcwr,001,fr,1,1,2022-04-21_12h16.29.024,Cluster,2022.1.1,None,
,,,,2,0,2,0,1,0,1,0,,,none,,,,,,,,,,,,,,,,,,,,,,,,,,,,,,,,,,,,,,,,,,,,,,,,,,,,,,,,,,,,,,,,,,,,,,,,,,,,,,,,,,,,,,,,,,,,,,,,,,,,,,,,,,,,,,,,,,361.15659969998524,None,,,,323.8125101156377,3.811330766738057,0.00014939742474538958,1,"[0.4941920488136862, 0.6323637444631508, 0.7160012495103829, 0.7104454492566045]","[1065.350553665364, 253.48502716625302, 6652.362368580151, 4128.63684692581]",None,"[6.437138982256159, 4.191212245504896, 4.3900618468875034, 0.4940193753806348]",False,362.162905999925,365.0456375000067,365.0456375000067,366.2801588999573,['space'],1,[0.19876370020210743],3.5865790201351047,4.608930720249191,None,1,None,1,,,,,eqdcwr,001,fr,1,1,2022-04-21_12h16.29.024,Cluster,2022.1.1,None,
,,,,2,0,2,0,2,0,2,0,,,frequency,,,,,,,,,,,,,,,,,,,,,,,,,,,,,,,,,,,,,,,,,,,,,,,,,,,,,,,,,,,,,,,,,,,,,,,,,,,,,,,,,,,,,,,,,,,,,,,,,,,,,,,,,,,,,,,,,,367.8157591999043,None,1650536544.776021,1650536546.1207001,1.3446791172027588,435.2752816480623,-5.0,4.203609419229965e-05,0,"[0.46025799801905826, 0.684034872674149, 0.5754143500113204, 0.4081319415852418]","[274.2062449236566, 307.7861033362292, 345.4782199919442, 387.78619045843385]",Tone,"[5.0, 6.059135077977032, 6.0, 5.0]",False,370.1854660999961,372.92120089987293,372.92120089987293,374.15536660002545,None,0,,3.1779813005123287,4.20880090049468,None,1,None,1,,,,,eqdcwr,001,fr,1,1,2022-04-21_12h16.29.024,Cluster,2022.1.1,None,
,,,,2,0,2,0,3,0,3,0,,,none,,,,,,,,,,,,,,,,,,,,,,,,,,,,,,,,,,,,,,,,,,,,,,,,,,,,,,,,,,,,,,,,,,,,,,,,,,,,,,,,,,,,,,,,,,,,,,,,,,,,,,,,,,,,,,,,,,375.40008209994994,None,1650536552.349758,1650536554.9057114,2.5559535026550293,176.7766952966369,-2.0,0.0002780315447610839,1,"[0.6504790057895122, 0.594601499137692, 0.40318249165348685, 0.684150612273567]","[133.5907651456692, 5528.508262080165, 275.40269404689496, 2377.8409799637075]",None,"[4.216895407745912, 3.0, 5.0, 2.0]",False,379.0178751000203,381.6971621999983,381.6971621999983,382.9313081,['space'],1,[0.12376730004325509],3.3672734207939357,4.3990269207861274,None,1,None,1,,,,,eqdcwr,001,fr,1,1,2022-04-21_12h16.29.024,Cluster,2022.1.1,None,
,,,,2,0,2,0,4,0,4,0,,,time,,,,,,,,,,,,,,,,,,,,,,,,,,,,,,,,,,,,,,,,,,,,,,,,,,,,,,,,,,,,,,,,,,,,,,,,,,,,,,,,,,,,,,,,,,,,,,,,,,,,,,,,,,,,,,,,,,384.44730410003103,None,1650536561.3924909,1650536563.1478865,1.7553956508636475,176.7766952966369,-2.0,0.0002780315447610839,0,"[0.4563695434857189, 0.4563695434857189, 0.4563695434857189, 0.4563695434857189]","[1032.7492997900977, 3206.395150428563, 1068.0374595052522, 1058.4877666878347]",None,"[6.0, 0.12314290329400102, 6.437138982256159, 6.437138982256159]",False,387.2129140999168,389.60453130002134,389.60453130002134,390.84020709991455,None,0,,2.8586475604679435,3.88882386055775,None,1,None,1,,,,,eqdcwr,001,fr,1,1,2022-04-21_12h16.29.024,Cluster,2022.1.1,None,
,,,,2,0,2,0,5,0,5,0,,,frequency,,,,,,,,,,,,,,,,,,,,,,,,,,,,,,,,,,,,,,,,,,,,,,,,,,,,,,,,,,,,,,,,,,,,,,,,,,,,,,,,,,,,,,,,,,,,,,,,,,,,,,,,,,,,,,,,,,392.11818520003,None,,,,337.7541719518695,3.811330766738057,0.0001437843503041419,1,"[0.6523059755607896, 0.4777379034438034, 0.5301652045522073, 0.6431074683110434]","[134.03783196576148, 168.8770859759348, 212.77179546598651, 268.0756639315229]",Major_3rd,"[4.216895407745912, 3.3723023506590977, 3.0, 4.941271169810042]",False,393.12754000001587,395.81046939990483,395.81046939990483,397.0494995000772,['space'],1,[0.25131610012613237],3.320872619980946,4.349142919993028,None,1,None,1,,,,,eqdcwr,001,fr,1,1,2022-04-21_12h16.29.024,Cluster,2022.1.1,None,
,,,,2,0,2,0,6,0,6,0,,,none,,,,,,,,,,,,,,,,,,,,,,,,,,,,,,,,,,,,,,,,,,,,,,,,,,,,,,,,,,,,,,,,,,,,,,,,,,,,,,,,,,,,,,,,,,,,,,,,,,,,,,,,,,,,,,,,,,398.49387679994106,None,,,,,,,,"[0.7182585894819437, 0.7046327020754865, 0.7703541847568907, 0.7425592917530182]","[131.10796447337012, 4219.747119859079, 226.8061432321576, 436.0119110514954]",None,"[4.216895407745912, 0.8358100735481013, 3.5253033140191206, 3.5168375051606526]",True,399.49890680005774,402.71634939988144,402.71634939988144,403.93763699987903,['space'],0,[0.014528100145980716],3.9550660201348364,4.974365020170808,None,1,None,1,,0,,,eqdcwr,001,fr,1,1,2022-04-21_12h16.29.024,Cluster,2022.1.1,None,
,,,,2,0,2,0,7,0,7,0,,,frequency,,,,,,,,,,,,,,,,,,,,,,,,,,,,,,,,,,,,,,,,,,,,,,,,,,,,,,,,,,,,,,,,,,,,,,,,,,,,,,,,,,,,,,,,,,,,,,,,,,,,,,,,,,,,,,,,,,405.4956644999329,None,1650536582.4280174,1650536584.0121584,1.5841410160064697,4287.0938501451765,-2.0,8.236702324754047e-05,0,"[0.7185866032723345, 0.7701973409631144, 0.5874169583241412, 0.7212624082626101]","[6805.337287606852, 6062.8662660415985, 5401.399784672765, 4812.100144328471]",Tone,"[4.774566040266244, 3.8729078284856655, 3.0, 1.9130873754749476]",False,408.0767779999878,411.1928894999437,411.1928894999437,412.4275191000197,None,0,,3.8156373205129057,4.827150220517069,None,1,None,1,,,,,eqdcwr,001,fr,1,1,2022-04-21_12h16.29.024,Cluster,2022.1.1,None,
,,,,2,0,2,0,8,0,8,0,,,frequency,,,,,,,,,,,,,,,,,,,,,,,,,,,,,,,,,,,,,,,,,,,,,,,,,,,,,,,,,,,,,,,,,,,,,,,,,,,,,,,,,,,,,,,,,,,,,,,,,,,,,,,,,,,,,,,,,,413.92085159989074,None,,,,293.22371425660697,3.3038114442381756,0.00017801208751868608,1,"[0.5273560904382735, 0.4903153038460572, 0.49757036745795163, 0.6940015148016805]","[184.71936496012927, 207.3404767555533, 232.7318162364803, 261.2326311595603]",Tone,"[3.0, 3.0, 3.5253033140191206, 4.941271169810042]",False,414.9189140999224,417.4670043999795,417.4670043999795,418.70146930008195,['space'],1,[0.35419560014270246],3.2538924203254282,4.2578623201698065,None,1,None,1,,,,,eqdcwr,001,fr,1,1,2022-04-21_12h16.29.024,Cluster,2022.1.1,None,
,,,,2,0,2,0,9,0,9,0,,,none,,,,,,,,,,,,,,,,,,,,,,,,,,,,,,,,,,,,,,,,,,,,,,,,,,,,,,,,,,,,,,,,,,,,,,,,,,,,,,,,,,,,,,,,,,,,,,,,,,,,,,,,,,,,,,,,,,420.189037400065,None,,,,319.38128166565775,3.811330766738057,0.00015118148861439492,1,"[0.7582841620732723, 0.6263883372695999, 0.510941144060119, 0.6709389911062793]","[1101.929688786766, 1143.6601040652852, 6650.932256634756, 351.7677099573483]",None,"[7.0, 7.374753143792167, 4.3900618468875034, 5.893201081980479]",False,421.19104179996066,424.10450770007446,424.10450770007446,425.3084225000348,['space'],1,[0.28291249996982515],3.6130775201600045,4.637445620028302,None,1,None,1,,,,,eqdcwr,001,fr,1,1,2022-04-21_12h16.29.024,Cluster,2022.1.1,None,
,,,,2,0,2,0,10,0,10,0,,,time,,,,,,,,,,,,,,,,,,,,,,,,,,,,,,,,,,,,,,,,,,,,,,,,,,,,,,,,,,,,,,,,,,,,,,,,,,,,,,,,,,,,,,,,,,,,,,,,,,,,,,,,,,,,,,,,,,426.83388280007057,None,,,,1162.2256477130713,5.105381356535168,9.150745239378078e-05,1,"[0.6985409165907175, 0.6985409165907175, 0.6985409165907175, 0.6985409165907175]","[3309.459084706122, 367.5850058695213, 458.5787183128073, 1408.226339746058]",None,"[0.12314290329400102, 5.289027767580068, 3.0, 9.58105541366995]",False,427.8374159000814,430.9484771999996,430.9484771999996,432.183671399951,['space'],1,[0.263052900088951],3.8153544201049954,4.845259620109573,None,1,None,1,,,,,eqdcwr,001,fr,1,1,2022-04-21_12h16.29.024,Cluster,2022.1.1,None,
,,,,2,0,2,0,11,0,11,0,,,none,,,,,,,,,,,,,,,,,,,,,,,,,,,,,,,,,,,,,,,,,,,,,,,,,,,,,,,,,,,,,,,,,,,,,,,,,,,,,,,,,,,,,,,,,,,,,,,,,,,,,,,,,,,,,,,,,,433.70215229992755,None,,,,,,,,"[0.5753005451766482, 0.43054131259358164, 0.4771061716388044, 0.6659588902093541]","[1415.5150819349226, 182.3499181034666, 522.5834342524228, 465.6722079263012]",None,"[9.58105541366995, 3.0, 1.4829887434687423, 2.6311300037882948]",True,434.7016177000478,437.2237555999309,437.2237555999309,438.4546999000013,['space'],0,[0.6328561000991613],3.1745620199944824,4.188831220148131,None,1,None,1,,0,,,eqdcwr,001,fr,1,1,2022-04-21_12h16.29.024,Cluster,2022.1.1,None,
,,,,2,0,2,0,12,0,12,0,,,time,,,,,,,,,,,,,,,,,,,,,,,,,,,,,,,,,,,,,,,,,,,,,,,,,,,,,,,,,,,,,,,,,,,,,,,,,,,,,,,,,,,,,,,,,,,,,,,,,,,,,,,,,,,,,,,,,,439.91311389999464,None,1650536616.8497615,1650536619.0817704,2.232008934020996,4287.0938501451765,1.0,0.0001163465127759661,1,"[0.7386590530091365, 0.7386590530091365, 0.7386590530091365, 0.7386590530091365]","[4533.712296474883, 2035.9161011349956, 728.7901329126938, 219.9016709396969]",None,"[1.3072675182586222, 5.879256653915908, 2.335362874573512, 3.0952451234517246]",False,443.14748529996723,446.39789139991626,446.39789139991626,447.63351710001007,['space'],1,[0.2861654001753777],3.9973134407773614,5.028511440847069,None,1,None,1,,,,,eqdcwr,001,fr,1,1,2022-04-21_12h16.29.024,Cluster,2022.1.1,None,
,,,,2,0,2,0,13,0,13,0,,,time,,,,,,,,,,,,,,,,,,,,,,,,,,,,,,,,,,,,,,,,,,,,,,,,,,,,,,,,,,,,,,,,,,,,,,,,,,,,,,,,,,,,,,,,,,,,,,,,,,,,,,,,,,,,,,,,,,449.1806838000193,None,,,,1322.870850091611,6.76323679566362,0.00011480825503739106,1,"[0.6224441295289626, 0.6224441295289626, 0.6224441295289626, 0.6224441295289626]","[4326.861329308679, 1951.7868374019108, 282.9024059524261, 153.64709847048977]",None,"[0.8358100735481013, 6.0, 5.596181116739962, 3.6893224035748413]",False,450.1856688999105,453.0708012999967,453.0708012999967,454.3061510999687,['space'],1,[0.24008950009010732],3.5213716202415526,4.529702320229262,None,1,None,1,,,,,eqdcwr,001,fr,1,1,2022-04-21_12h16.29.024,Cluster,2022.1.1,None,
,,,,2,0,2,0,14,0,14,0,,,both,,,,,,,,,,,,,,,,,,,,,,,,,,,,,,,,,,,,,,,,,,,,,,,,,,,,,,,,,,,,,,,,,,,,,,,,,,,,,,,,,,,,,,,,,,,,,,,,,,,,,,,,,,,,,,,,,,455.7540797998663,None,,,,526.9263624577761,-0.6975054956328469,6.205537399467318e-05,1,"[0.4594855643143027, 0.4594855643143027, 0.4594855643143027, 0.4594855643143027]","[1327.7712316101756, 1053.8527249155522, 836.4434620752506, 663.8856158050878]",Major_3rd,"[9.103541586562777, 6.437138982256159, 4.0, 1.858479147960578]",False,456.7593839999754,459.1767992998939,459.1767992998939,460.4120207999367,['space'],1,[0.20556880021467805],2.8859922201372683,3.9183678200934082,None,1,None,1,,,,,eqdcwr,001,fr,1,1,2022-04-21_12h16.29.024,Cluster,2022.1.1,None,
,,,,2,0,2,0,15,0,15,0,,,both,,,,,,,,,,,,,,,,,,,,,,,,,,,,,,,,,,,,,,,,,,,,,,,,,,,,,,,,,,,,,,,,,,,,,,,,,,,,,,,,,,,,,,,,,,,,,,,,,,,,,,,,,,,,,,,,,,461.7226616998669,None,1650536638.671374,1650536640.0008042,1.329430103302002,2462.2888266898335,3.0,0.00012014968851597731,1,"[0.6288806122079417, 0.6288806122079417, 0.6288806122079417, 0.6288806122079417]","[977.1599684342466, 1231.144413344917, 1551.1447618337354, 1954.3199368684927]",Major_3rd,"[5.565978271147425, 8.303968446146236, 9.6570143092373, 6.0]",False,464.06659860000946,466.98501259996556,466.98501259996556,468.18987159989774,['space'],1,[0.24456350016407669],3.5473123602569103,4.572614460252225,None,1,None,1,,,,,eqdcwr,001,fr,1,1,2022-04-21_12h16.29.024,Cluster,2022.1.1,None,
,,,,2,0,2,0,16,0,16,0,,,none,,,,,,,,,,,,,,,,,,,,,,,,,,,,,,,,,,,,,,,,,,,,,,,,,,,,,,,,,,,,,,,,,,,,,,,,,,,,,,,,,,,,,,,,,,,,,,,,,,,,,,,,,,,,,,,,,,469.6540355000179,None,1650536646.58787,1650536649.089491,2.5016210079193115,500.0,-7.0,3.191317430952745e-05,0,"[0.627501649640808, 0.4993019580923066, 0.7663578369968904, 0.4322349290367926]","[5644.383175156049, 891.0688291681302, 516.6995957886953, 5350.24447484568]",None,"[3.247730475677683, 4.110395708048437, 1.9387558237431435, 2.566116844466812]",False,473.155425200006,476.0656673000194,476.0656673000194,477.29644639999606,None,0,,3.345555000938475,4.37297320086509,None,1,None,1,,,,,eqdcwr,001,fr,1,1,2022-04-21_12h16.29.024,Cluster,2022.1.1,None,
,,,,2,0,2,0,17,0,17,0,,,time,,,,,,,,,,,,,,,,,,,,,,,,,,,,,,,,,,,,,,,,,,,,,,,,,,,,,,,,,,,,,,,,,,,,,,,,,,,,,,,,,,,,,,,,,,,,,,,,,,,,,,,,,,,,,,,,,,478.542635000078,None,1650536655.4937825,1650536658.6975243,3.2037417888641357,2462.2888266898335,-4.0,5.366889446213605e-05,1,"[0.5070943764567355, 0.5070943764567355, 0.5070943764567355, 0.5070943764567355]","[5172.020167457962, 2695.5351974436394, 275.4342644079576, 751.8270328930695]",None,"[2.566116844466812, 0.9712394348077362, 5.0, 2.8910624098854916]",False,482.7634715999011,485.30164580000564,485.30164580000564,486.5071765000466,['space'],1,[0.3965130001306534],3.066219760803506,4.089552660705522,None,1,None,1,,,,,eqdcwr,001,fr,1,1,2022-04-21_12h16.29.024,Cluster,2022.1.1,None,
,,,,2,0,2,0,18,0,18,0,,,time,,,,,,,,,,,,,,,,,,,,,,,,,,,,,,,,,,,,,,,,,,,,,,,,,,,,,,,,,,,,,,,,,,,,,,,,,,,,,,,,,,,,,,,,,,,,,,,,,,,,,,,,,,,,,,,,,,487.88831209996715,None,,,,,,,,"[0.45986593665484277, 0.45986593665484277, 0.45986593665484277, 0.45986593665484277]","[799.359983426441, 2737.0721278578685, 1304.1165484220442, 560.2233729933957]",None,"[3.464680763121044, 0.4143334754883661, 9.0, 1.3517870611377325]",True,488.8927098000422,491.3106857999228,491.3106857999228,492.546156299999,['space'],0,[0.30792780010960996],2.890857720049098,3.9176870200317353,None,1,None,1,,0,,,eqdcwr,001,fr,1,1,2022-04-21_12h16.29.024,Cluster,2022.1.1,None,
,,,,2,0,2,0,19,0,19,0,,,time,,,,,,,,,,,,,,,,,,,,,,,,,,,,,,,,,,,,,,,,,,,,,,,,,,,,,,,,,,,,,,,,,,,,,,,,,,,,,,,,,,,,,,,,,,,,,,,,,,,,,,,,,,,,,,,,,,493.8225950000342,None,,,,196.48136853010317,0.6774070027430006,0.0003008267467496251,1,"[0.4862628790589729, 0.4862628790589729, 0.4862628790589729, 0.4862628790589729]","[1239.1639144520934, 552.4214999737139, 362.544248954654, 3511.965529156051]",None,"[8.303968446146236, 1.4829887434687423, 5.893201081980479, 0.17184970796578725]",False,494.83304629987106,497.3059688999783,497.3059688999783,498.5172260000836,['space'],1,[0.6076040002517402],2.986550820292905,4.017274120124057,None,1,None,1,,,,,eqdcwr,001,fr,1,1,2022-04-21_12h16.29.024,Cluster,2022.1.1,None,
,,,,3,0,3,0,0,0,0,0,,,frequency,,,,,,,,,,,,,,,,,,,,,,,,,,,,,,,,,,,,,,,,,,,,,,,,,,,,,,,,,,,,,,,,,,,,,,,,,,,,,,,,,,,,,,,,,,,,,,,,,,,,,,,,,,,,,,,,,,502.259229300078,None,1650536679.1808844,1650536680.8954418,1.714557409286499,1414.213562373095,8.0,0.00012668031067102203,1,"[0.4635576974233652, 0.72623844845036, 0.6544200851169573, 0.4659008130867821]","[561.2310241546867, 707.1067811865478, 890.8987181403395, 1122.4620483093731]",Major_3rd,"[1.3517870611377325, 2.335362874573512, 4.110395708048437, 7.0]",False,504.9614371000789,507.8284020998981,507.8284020998981,509.06363019999117,['space'],1,[0.27347920020110905],3.3462157207541168,4.3797372207045555,None,1,None,1,,,,,eqdcwr,001,fr,1,1,2022-04-21_12h16.29.024,Cluster,2022.1.1,None,
,,,,3,0,3,0,1,0,1,0,,,both,,,,,,,,,,,,,,,,,,,,,,,,,,,,,,,,,,,,,,,,,,,,,,,,,,,,,,,,,,,,,,,,,,,,,,,,,,,,,,,,,,,,,,,,,,,,,,,,,,,,,,,,,,,,,,,,,,510.377171699889,None,,,,2992.902119312326,-2.0,4.3898544762514394e-05,1,"[0.4662084590598982, 0.4662084590598982, 0.4662084590598982, 0.4662084590598982]","[593.86699657928, 889.7951236982352, 1333.186330807428, 1997.5225142440258]",Perfect_5th,"[1.3517870611377325, 4.110395708048437, 9.103541586562777, 5.879256653915908]",False,511.3828028999269,513.8010708000511,513.8010708000511,515.0343356998637,['space'],1,[0.2846020001452416],2.8884785203263164,3.9077500202693045,None,1,None,1,,,,,eqdcwr,001,fr,1,1,2022-04-21_12h16.29.024,Cluster,2022.1.1,None,
,,,,3,0,3,0,2,0,2,0,,,none,,,,,,,,,,,,,,,,,,,,,,,,,,,,,,,,,,,,,,,,,,,,,,,,,,,,,,,,,,,,,,,,,,,,,,,,,,,,,,,,,,,,,,,,,,,,,,,,,,,,,,,,,,,,,,,,,,516.325637999922,None,,,,1291.2272225650024,6.76323679566362,0.00011651971796690346,1,"[0.5722657129392049, 0.6163513712013415, 0.600833212767574, 0.6864920494276909]","[228.65893621840277, 286.1045418900163, 842.2449860502389, 6050.473665139401]",None,"[3.5253033140191206, 5.596181116739962, 4.0, 3.8729078284856655]",False,517.3188614998944,520.1427861000411,520.1427861000411,521.3773145999294,['space'],1,[0.28752969997003675],3.5262663203757256,4.554259920259938,None,1,None,1,,,,,eqdcwr,001,fr,1,1,2022-04-21_12h16.29.024,Cluster,2022.1.1,None,
,,,,3,0,3,0,3,0,3,0,,,both,,,,,,,,,,,,,,,,,,,,,,,,,,,,,,,,,,,,,,,,,,,,,,,,,,,,,,,,,,,,,,,,,,,,,,,,,,,,,,,,,,,,,,,,,,,,,,,,,,,,,,,,,,,,,,,,,,522.8881244000513,None,,,,,,,,"[0.6739835917387409, 0.6739835917387409, 0.6739835917387409, 0.6739835917387409]","[349.75944422232607, 440.66928617524036, 555.2085096943331, 699.5188884446519]",Major_3rd,"[5.893201081980479, 3.5168375051606526, 1.3517870611377325, 2.335362874573512]",True,523.8970679999329,526.9420863999985,526.9420863999985,528.1787616999354,None,1,,3.7156928202603012,4.74962892010808,None,1,None,1,,0,,,eqdcwr,001,fr,1,1,2022-04-21_12h16.29.024,Cluster,2022.1.1,None,
,,,,3,0,3,0,4,0,4,0,,,none,,,,,,,,,,,,,,,,,,,,,,,,,,,,,,,,,,,,,,,,,,,,,,,,,,,,,,,,,,,,,,,,,,,,,,,,,,,,,,,,,,,,,,,,,,,,,,,,,,,,,,,,,,,,,,,,,,529.6738845999353,None,1650536706.6073773,1650536708.7937098,2.1863324642181396,217.63764082403114,-6.0,0.00011571748233929631,0,"[0.7747475999535671, 0.562853835898855, 0.43632016664906403, 0.5558453211398426]","[1643.414803652882, 4964.6909307184505, 233.32742521629248, 3605.5754394633796]",None,"[9.0, 2.0, 3.5253033140191206, 0.17184970796578725]",False,532.9120161999017,535.7235727000516,535.7235727000516,536.9603679999709,None,0,,3.3560295407660306,4.392074640840292,None,1,None,1,,,,,eqdcwr,001,fr,1,1,2022-04-21_12h16.29.024,Cluster,2022.1.1,None,
,,,,3,0,3,0,5,0,5,0,,,frequency,,,,,,,,,,,,,,,,,,,,,,,,,,,,,,,,,,,,,,,,,,,,,,,,,,,,,,,,,,,,,,,,,,,,,,,,,,,,,,,,,,,,,,,,,,,,,,,,,,,,,,,,,,,,,,,,,,538.3333361998666,None,,,,2714.7475789725686,-1.2539304131858673,6.279759764668129e-05,1,"[0.569399153943228, 0.7852419477358457, 0.7336362059326788, 0.549765259066598]","[538.6741453361473, 807.0992840876474, 1209.2825690906254, 1811.8766312120986]",Perfect_5th,"[1.4829887434687423, 3.464680763121044, 8.0, 8.0]",False,539.3410602000076,542.4658645000309,542.4658645000309,543.6709950999357,['space'],1,[0.3380448000971228],3.659939020173624,4.686206320067868,None,1,None,1,,,,,eqdcwr,001,fr,1,1,2022-04-21_12h16.29.024,Cluster,2022.1.1,None,
,,,,3,0,3,0,6,0,6,0,,,both,,,,,,,,,,,,,,,,,,,,,,,,,,,,,,,,,,,,,,,,,,,,,,,,,,,,,,,,,,,,,,,,,,,,,,,,,,,,,,,,,,,,,,,,,,,,,,,,,,,,,,,,,,,,,,,,,,545.0582784998696,None,1650536721.9909742,1650536723.268545,1.2775707244873047,1624.5047927124701,9.0,0.00016306320454319325,1,"[0.5251200458829448, 0.5251200458829448, 0.5251200458829448, 0.5251200458829448]","[2578.7406168791576, 2297.396709994069, 2046.7477839935489, 1823.4449771164327]",Tone,"[1.0, 3.034886487796405, 5.0, 8.0]",False,547.3353091999888,549.9397585000843,549.9397585000843,551.1722627000418,['space'],1,[0.2277762999292463],3.1229359805583954,4.1539861804340035,None,1,None,1,,,,,eqdcwr,001,fr,1,1,2022-04-21_12h16.29.024,Cluster,2022.1.1,None,
,,,,3,0,3,0,7,0,7,0,,,time,,,,,,,,,,,,,,,,,,,,,,,,,,,,,,,,,,,,,,,,,,,,,,,,,,,,,,,,,,,,,,,,,,,,,,,,,,,,,,,,,,,,,,,,,,,,,,,,,,,,,,,,,,,,,,,,,,552.549984900048,None,,,,,,,,"[0.7156058569083211, 0.7156058569083211, 0.7156058569083211, 0.7156058569083211]","[330.62618141054827, 247.55327581377225, 1257.6572388417012, 860.3167485401204]",None,"[6.159795749040223, 4.191212245504896, 8.303968446146236, 4.0]",True,553.5582854000386,556.7510905999225,556.7510905999225,557.9735115999356,None,1,,3.8839534202124923,4.919395320117474,None,1,None,1,,0,,,eqdcwr,001,fr,1,1,2022-04-21_12h16.29.024,Cluster,2022.1.1,None,
,,,,3,0,3,0,8,0,8,0,,,time,,,,,,,,,,,,,,,,,,,,,,,,,,,,,,,,,,,,,,,,,,,,,,,,,,,,,,,,,,,,,,,,,,,,,,,,,,,,,,,,,,,,,,,,,,,,,,,,,,,,,,,,,,,,,,,,,,559.4913144998718,None,1650536736.4401605,1650536739.8497343,3.409573793411255,125.0,4.0,0.0011454338263838868,1,"[0.5618224286151302, 0.5618224286151302, 0.5618224286151302, 0.5618224286151302]","[825.8016294132198, 337.72244474403794, 970.1431341242702, 1418.4990376084281]",None,"[3.464680763121044, 6.0, 5.0, 9.58105541366995]",False,563.9158966999967,566.6176760999952,566.6176760999952,567.8334025999065,['space'],1,[0.40955290012061596],3.257002541096881,4.275314141064882,None,1,None,1,,,,,eqdcwr,001,fr,1,1,2022-04-21_12h16.29.024,Cluster,2022.1.1,None,
,,,,3,0,3,0,9,0,9,0,,,both,,,,,,,,,,,,,,,,,,,,,,,,,,,,,,,,,,,,,,,,,,,,,,,,,,,,,,,,,,,,,,,,,,,,,,,,,,,,,,,,,,,,,,,,,,,,,,,,,,,,,,,,,,,,,,,,,,569.2393443000037,None,,,,2895.3495158579794,-1.781506871556235,4.995487096881288e-05,1,"[0.6475087746608945, 0.6475087746608945, 0.6475087746608945, 0.6475087746608945]","[7295.823603664798, 5790.69903171596, 4596.080867288574, 3647.9118018323984]",Major_3rd,"[4.967547816596368, 3.247730475677683, 1.3072675182586222, 0.2889914060118919]",False,570.2375513999723,573.2255380998831,573.2255380998831,574.4567310998682,['space'],1,[0.3442815002053976],3.6217104201205075,4.651013720082119,None,1,None,1,,,,,eqdcwr,001,fr,1,1,2022-04-21_12h16.29.024,Cluster,2022.1.1,None,
,,,,3,0,3,0,10,0,10,0,,,both,,,,,,,,,,,,,,,,,,,,,,,,,,,,,,,,,,,,,,,,,,,,,,,,,,,,,,,,,,,,,,,,,,,,,,,,,,,,,,,,,,,,,,,,,,,,,,,,,,,,,,,,,,,,,,,,,,575.9075314998627,None,1650536752.851859,1650536754.296949,1.4450898170471191,329.87697769322364,-10.0,2.9965407820159457e-05,0,"[0.5466428751447878, 0.5466428751447878, 0.5466428751447878, 0.5466428751447878]","[1662.4757922855758, 1109.5694720678453, 740.5487761432823, 494.2570101764482]",Perfect_5th,"[9.0, 7.0, 2.8910624098854916, 2.0]",False,578.364029899938,581.0412270999514,581.0412270999514,582.2614142999519,None,0,,3.1944323205389082,4.226315120467916,None,1,None,1,,,,,eqdcwr,001,fr,1,1,2022-04-21_12h16.29.024,Cluster,2022.1.1,None,
,,,,3,0,3,0,11,0,11,0,,,time,,,,,,,,,,,,,,,,,,,,,,,,,,,,,,,,,,,,,,,,,,,,,,,,,,,,,,,,,,,,,,,,,,,,,,,,,,,,,,,,,,,,,,,,,,,,,,,,,,,,,,,,,,,,,,,,,,583.6390603999607,None,,,,2773.9366437845006,-1.781506871556235,5.610071787728854e-05,1,"[0.6268315618988816, 0.6268315618988816, 0.6268315618988816, 0.6268315618988816]","[301.6547616639776, 6691.618964620947, 1905.5505012978276, 2864.634922128088]",None,"[6.0, 4.3900618468875034, 7.0, 0.4143334754883661]",False,584.6326518999413,587.534283899935,587.534283899935,588.7524741999805,['space'],1,[0.3181197999510914],3.5413250201381743,4.545288420049474,None,1,None,1,,,,,eqdcwr,001,fr,1,1,2022-04-21_12h16.29.024,Cluster,2022.1.1,None,
,,,,3,0,3,0,12,0,12,0,,,frequency,,,,,,,,,,,,,,,,,,,,,,,,,,,,,,,,,,,,,,,,,,,,,,,,,,,,,,,,,,,,,,,,,,,,,,,,,,,,,,,,,,,,,,,,,,,,,,,,,,,,,,,,,,,,,,,,,,590.2206593998708,None,1650536767.1682312,1650536768.842859,1.6746277809143066,203.0630990890589,-4.0,0.00016369622261606785,0,"[0.6784839241844995, 0.6443288913842158, 0.7721043157046937, 0.7680133396790724]","[322.3425771098949, 287.1745887492588, 255.84347299919378, 227.93062213955423]",Tone,"[6.159795749040223, 5.596181116739962, 4.191212245504896, 3.5253033140191206]",False,592.9101362999063,596.0184426000342,596.0184426000342,597.231273900019,None,0,,3.8970963407773525,4.9013477405533195,None,1,['space'],0,[0.470561700174585],,,,eqdcwr,001,fr,1,1,2022-04-21_12h16.29.024,Cluster,2022.1.1,None,
,,,,3,0,3,0,13,0,13,0,,,time,,,,,,,,,,,,,,,,,,,,,,,,,,,,,,,,,,,,,,,,,,,,,,,,,,,,,,,,,,,,,,,,,,,,,,,,,,,,,,,,,,,,,,,,,,,,,,,,,,,,,,,,,,,,,,,,,,598.8470004000701,None,,,,,,,,"[0.5244456957570375, 0.5244456957570375, 0.5244456957570375, 0.5244456957570375]","[1530.0949715512659, 296.96283650614896, 1224.7742798906693, 1054.921190423289]",None,"[9.6570143092373, 6.0, 8.303968446146236, 6.437138982256159]",True,599.8454402000643,602.4604640998878,602.4604640998878,603.6714508000296,None,1,,3.1378822203259915,4.162269020220265,None,1,None,1,,0,,,eqdcwr,001,fr,1,1,2022-04-21_12h16.29.024,Cluster,2022.1.1,None,
,,,,3,0,3,0,14,0,14,0,,,frequency,,,,,,,,,,,,,,,,,,,,,,,,,,,,,,,,,,,,,,,,,,,,,,,,,,,,,,,,,,,,,,,,,,,,,,,,,,,,,,,,,,,,,,,,,,,,,,,,,,,,,,,,,,,,,,,,,,605.0386022999883,None,,,,165.4893118415439,1.1479791289012402,0.0004463950701549379,1,"[0.43563386700254, 0.7449294563094613, 0.6429321594101033, 0.5166012084461112]","[834.0138700871122, 556.6374763614334, 371.5109438859359, 247.95380707963724]",Perfect_5th,"[3.464680763121044, 1.3517870611377325, 5.289027767580068, 4.191212245504896]",False,606.0428814000916,608.8856357999612,608.8856357999612,610.1015031998977,['space'],1,[0.24764030030928552],3.369367220439017,4.392320720478892,None,1,None,1,,,,,eqdcwr,001,fr,1,1,2022-04-21_12h16.29.024,Cluster,2022.1.1,None,
,,,,3,0,3,0,15,0,15,0,,,time,,,,,,,,,,,,,,,,,,,,,,,,,,,,,,,,,,,,,,,,,,,,,,,,,,,,,,,,,,,,,,,,,,,,,,,,,,,,,,,,,,,,,,,,,,,,,,,,,,,,,,,,,,,,,,,,,,611.4540609999094,None,1650536788.404691,1650536793.776095,5.371403932571411,1866.0659830736151,-1.0,6.12861988184373e-05,1,"[0.4036307606012944, 0.4036307606012944, 0.4036307606012944, 0.4036307606012944]","[2177.5829514620705, 3432.113665543615, 5713.608489015587, 158.75294835126718]",None,"[4.0, 0.17184970796578725, 3.247730475677683, 3.6893224035748413]",False,617.8441317998804,620.0991149998736,620.0991149998736,621.3006472999696,['space'],1,[0.22878220002166927],2.6439975614193827,3.6572696613147855,None,1,None,1,,,,,eqdcwr,001,fr,1,1,2022-04-21_12h16.29.024,Cluster,2022.1.1,None,
,,,,3,0,3,0,16,0,16,0,,,both,,,,,,,,,,,,,,,,,,,,,,,,,,,,,,,,,,,,,,,,,,,,,,,,,,,,,,,,,,,,,,,,,,,,,,,,,,,,,,,,,,,,,,,,,,,,,,,,,,,,,,,,,,,,,,,,,,622.5494651000481,None,,,,217.34938945855538,0.9065744733959278,0.00025691453116532615,1,"[0.6350720810939288, 0.6350720810939288, 0.6350720810939288, 0.6350720810939288]","[136.92153548031638, 153.68922717290042, 172.51032473557834, 193.63629245721236]",Tone,"[4.216895407745912, 3.6893224035748413, 3.1083421672832143, 2.9238165415902073]",False,623.5555390000809,626.5047762999311,626.5047762999311,627.7392140999436,['space'],1,[0.309127600165084],3.587798120221123,4.596571020316333,None,1,None,1,,,,,eqdcwr,001,fr,1,1,2022-04-21_12h16.29.024,Cluster,2022.1.1,None,
,,,,3,0,3,0,17,0,17,0,,,frequency,,,,,,,,,,,,,,,,,,,,,,,,,,,,,,,,,,,,,,,,,,,,,,,,,,,,,,,,,,,,,,,,,,,,,,,,,,,,,,,,,,,,,,,,,,,,,,,,,,,,,,,,,,,,,,,,,,629.1681655999273,None,,,,,,,,"[0.7869879450868369, 0.5998866412409471, 0.6320879329580444, 0.6874537217972958]","[977.0942832409656, 870.4920444416299, 775.5202465444113, 690.9099935382959]",Tone,"[5.565978271147425, 4.110395708048437, 3.0, 2.335362874573512]",True,630.1585566999856,633.2141827000305,633.2141827000305,634.4314999000635,None,1,,3.725125019904226,4.734822120051831,None,1,None,1,,0,,,eqdcwr,001,fr,1,1,2022-04-21_12h16.29.024,Cluster,2022.1.1,None,
,,,,3,0,3,0,18,0,18,0,,,time,,,,,,,,,,,,,,,,,,,,,,,,,,,,,,,,,,,,,,,,,,,,,,,,,,,,,,,,,,,,,,,,,,,,,,,,,,,,,,,,,,,,,,,,,,,,,,,,,,,,,,,,,,,,,,,,,,635.9033751999959,None,,,,674.789716738418,-0.41446251275577584,4.5035857155592074e-05,0,"[0.5668166862761725, 0.5668166862761725, 0.5668166862761725, 0.5668166862761725]","[2224.2192880698153, 1494.3211491785407, 1626.4566242635565, 1171.344042530794]",None,"[4.0, 9.6570143092373, 9.26681740728439, 7.374753143792167]",False,636.9013397998642,639.6189065000508,639.6189065000508,640.8549651000649,None,0,,3.2872128202579916,4.2934074201621115,None,1,None,1,,,,,eqdcwr,001,fr,1,1,2022-04-21_12h16.29.024,Cluster,2022.1.1,None,
,,,,3,0,3,0,19,0,19,0,,,none,,,,,,,,,,,,,,,,,,,,,,,,,,,,,,,,,,,,,,,,,,,,,,,,,,,,,,,,,,,,,,,,,,,,,,,,,,,,,,,,,,,,,,,,,,,,,,,,,,,,,,,,,,,,,,,,,,642.2131054999772,None,,,,6171.086956649256,1.6203762634771706,0.00014934974355650755,0,"[0.4231888171819996, 0.4401463833515802, 0.6380933364112125, 0.5703584869582541]","[181.20113758160602, 286.75764566123127, 982.7459935421423, 172.09470463097185]",None,"[3.0, 5.596181116739962, 5.565978271147425, 3.1083421672832143]",False,643.209196700016,645.732460899977,645.732460899977,646.965533999959,None,0,,3.1066404201555997,4.154575420310721,None,1,None,1,,,,,eqdcwr,001,fr,1,1,2022-04-21_12h16.29.024,Cluster,2022.1.1,None,
,,,,4,0,4,0,0,0,0,0,,,both,,,,,,,,,,,,,,,,,,,,,,,,,,,,,,,,,,,,,,,,,,,,,,,,,,,,,,,,,,,,,,,,,,,,,,,,,,,,,,,,,,,,,,,,,,,,,,,,,,,,,,,,,,,,,,,,,,650.7702830999624,None,1650536827.690467,1650536829.166511,1.4760441780090332,707.1067811865476,-5.0,2.4969612569079748e-05,0,"[0.720002729905318, 0.720002729905318, 0.720002729905318, 0.720002729905318]","[280.61551207734334, 353.5533905932739, 445.44935907016975, 561.2310241546866]",Major_3rd,"[5.596181116739962, 5.893201081980479, 3.0, 1.3517870611377325]",False,653.2348307999782,656.436419500038,656.436419500038,657.6760124999564,None,0,,3.8988157603889704,4.906213160371408,None,1,None,1,,,,,eqdcwr,001,fr,1,1,2022-04-21_12h16.29.024,Cluster,2022.1.1,None,
,,,,4,0,4,0,1,0,1,0,,,frequency,,,,,,,,,,,,,,,,,,,,,,,,,,,,,,,,,,,,,,,,,,,,,,,,,,,,,,,,,,,,,,,,,,,,,,,,,,,,,,,,,,,,,,,,,,,,,,,,,,,,,,,,,,,,,,,,,,659.1631771000102,None,,,,,,,,"[0.7407507835703482, 0.5551271346748924, 0.46301046477711916, 0.41152127241710773]","[2406.611251657776, 2144.04687916403, 1910.1286162800293, 1701.731135727058]",Tone,"[2.0, 4.40792723066625, 7.0, 8.426474349612413]",True,660.1598338000476,662.943496099906,662.943496099906,664.1786980000325,None,1,,3.215528320055455,4.2195594201330096,None,1,None,1,,0,,,eqdcwr,001,fr,1,1,2022-04-21_12h16.29.024,Cluster,2022.1.1,None,
,,,,4,0,4,0,2,0,2,0,,,frequency,,,,,,,,,,,,,,,,,,,,,,,,,,,,,,,,,,,,,,,,,,,,,,,,,,,,,,,,,,,,,,,,,,,,,,,,,,,,,,,,,,,,,,,,,,,,,,,,,,,,,,,,,,,,,,,,,,665.3984995998908,None,1650536842.3359842,1650536844.3005838,1.964599609375,2143.5469250725882,-3.0,5.521540081768751e-05,0,"[0.7679351736117772, 0.4474639961801399, 0.7198088197481219, 0.639556413988839]","[5401.399784672766, 4287.093850145177, 3402.668643803426, 2700.6998923363826]",Major_3rd,"[3.0, 0.8358100735481013, 0.17184970796578725, 0.9712394348077362]",False,668.3679565999191,671.3189791999757,671.3189791999757,672.554532899987,None,0,,3.6109274406917393,4.634635740658268,None,1,None,1,,,,,eqdcwr,001,fr,1,1,2022-04-21_12h16.29.024,Cluster,2022.1.1,None,
,,,,4,0,4,0,3,0,3,0,,,frequency,,,,,,,,,,,,,,,,,,,,,,,,,,,,,,,,,,,,,,,,,,,,,,,,,,,,,,,,,,,,,,,,,,,,,,,,,,,,,,,,,,,,,,,,,,,,,,,,,,,,,,,,,,,,,,,,,,674.0210619999561,None,,,,249.89949756142263,1.9908723620891844,0.00021087442279908554,1,"[0.7425904191820015, 0.54283040239773, 0.7564466488510271, 0.7034392969011019]","[396.6907253153268, 353.4112586815861, 314.8536373357889, 280.5027019042776]",Tone,"[5.0, 5.893201081980479, 6.059135077977032, 5.596181116739962]",False,675.0398019999266,678.1259580000769,678.1259580000769,679.3592248999048,['space'],1,[0.22266159998252988],3.789157420396805,4.815629820339382,None,1,None,1,,,,,eqdcwr,001,fr,1,1,2022-04-21_12h16.29.024,Cluster,2022.1.1,None,
,,,,4,0,4,0,4,0,4,0,,,both,,,,,,,,,,,,,,,,,,,,,,,,,,,,,,,,,,,,,,,,,,,,,,,,,,,,,,,,,,,,,,,,,,,,,,,,,,,,,,,,,,,,,,,,,,,,,,,,,,,,,,,,,,,,,,,,,,680.8779144000728,None,,,,577.2107118275082,-0.8410274270283072,5.391797811435048e-05,1,"[0.4573560809672157, 0.4573560809672157, 0.4573560809672157, 0.4573560809672157]","[363.6199630281406, 408.1496085067452, 458.1324455811499, 514.2362832639999]",Tone,"[5.893201081980479, 4.450392872957826, 3.0, 1.9387558237431435]",False,681.8779903000686,684.2851324998774,684.2851324998774,685.5007825000212,['space'],1,[0.31628500018268824],2.856881820363924,3.889845320256427,['space'],0,None,1,,,[0.8190687000751495],,eqdcwr,001,fr,1,1,2022-04-21_12h16.29.024,Cluster,2022.1.1,None,
,,,,4,0,4,0,5,0,5,0,,,both,,,,,,,,,,,,,,,,,,,,,,,,,,,,,,,,,,,,,,,,,,,,,,,,,,,,,,,,,,,,,,,,,,,,,,,,,,,,,,,,,,,,,,,,,,,,,,,,,,,,,,,,,,,,,,,,,,686.7947378999088,None,1650536863.7249343,1650536865.187071,1.4621367454528809,164.93848884661182,-2.0,0.00031227859543881493,1,"[0.5630433712232468, 0.5630433712232468, 0.5630433712232468, 0.5630433712232468]","[415.6189480713941, 329.8769776932237, 261.82353070515677, 207.809474035697]",Major_3rd,"[4.0, 6.159795749040223, 4.941271169810042, 3.0]",False,689.3026932000648,692.0407791000325,692.0407791000325,693.274183700094,['space'],1,[0.2344111001584679],3.257265400607139,4.2643134004902095,None,1,None,1,,,,,eqdcwr,001,fr,1,1,2022-04-21_12h16.29.024,Cluster,2022.1.1,None,
,,,,4,0,4,0,6,0,6,0,,,none,,,,,,,,,,,,,,,,,,,,,,,,,,,,,,,,,,,,,,,,,,,,,,,,,,,,,,,,,,,,,,,,,,,,,,,,,,,,,,,,,,,,,,,,,,,,,,,,,,,,,,,,,,,,,,,,,,694.5920738000423,None,1650536871.5326507,1650536873.3498716,1.81722092628479,2143.5469250725882,2.0,9.818841039113999e-05,1,"[0.5230546469188804, 0.4460134689220132, 0.599079918692898, 0.4997784937469706]","[1094.4472990770275, 865.7847201041225, 242.46987251587467, 4646.22873064913]",None,"[6.437138982256159, 4.110395708048437, 4.0, 1.3072675182586222]",False,697.4164459998719,700.0158772999421,700.0158772999421,701.2506103999913,['space'],1,[0.2923368001356721],3.0975506405811757,4.120387540431693,None,1,None,1,,,,,eqdcwr,001,fr,1,1,2022-04-21_12h16.29.024,Cluster,2022.1.1,None,
,,,,4,0,4,0,7,0,7,0,,,frequency,,,,,,,,,,,,,,,,,,,,,,,,,,,,,,,,,,,,,,,,,,,,,,,,,,,,,,,,,,,,,,,,,,,,,,,,,,,,,,,,,,,,,,,,,,,,,,,,,,,,,,,,,,,,,,,,,,702.5608149999753,None,,,,,,,,"[0.41114506797554623, 0.5564677655974734, 0.4628982660828982, 0.7161140752006717]","[6476.127215851139, 5769.573435115544, 5140.105577560992, 4579.313470155096]",Tone,"[4.3900618468875034, 3.247730475677683, 2.566116844466812, 1.3072675182586222]",True,703.5722437000368,706.0396483000368,706.0396483000368,707.2567676999606,None,1,,3.1863786200992763,4.21882082009688,None,1,None,1,,0,,,eqdcwr,001,fr,1,1,2022-04-21_12h16.29.024,Cluster,2022.1.1,None,
,,,,4,0,4,0,8,0,8,0,,,both,,,,,,,,,,,,,,,,,,,,,,,,,,,,,,,,,,,,,,,,,,,,,,,,,,,,,,,,,,,,,,,,,,,,,,,,,,,,,,,,,,,,,,,,,,,,,,,,,,,,,,,,,,,,,,,,,,708.8090538000688,None,,,,2529.5193067705554,-1.0,7.491944556800719e-05,1,"[0.4694480807043375, 0.4694480807043375, 0.4694480807043375, 0.4694480807043375]","[501.92020106768126, 752.0305892870738, 1126.7727539565637, 1688.2515912849474]",Perfect_5th,"[1.9387558237431435, 2.8910624098854916, 7.0, 9.0]",False,709.811221400043,712.2626483999193,712.2626483999193,713.4961471999995,['space'],1,[0.25653580017387867],2.917226320365444,3.9498934203293175,None,1,None,1,,,,,eqdcwr,001,fr,1,1,2022-04-21_12h16.29.024,Cluster,2022.1.1,None,
,,,,4,0,4,0,9,0,9,0,,,none,,,,,,,,,,,,,,,,,,,,,,,,,,,,,,,,,,,,,,,,,,,,,,,,,,,,,,,,,,,,,,,,,,,,,,,,,,,,,,,,,,,,,,,,,,,,,,,,,,,,,,,,,,,,,,,,,,714.7792662999127,None,,,,5151.295875960225,0.0,0.00014716682004573532,0,"[0.5845123290840587, 0.7055451900444417, 0.4568018205423493, 0.7192344408823]","[780.3604674718625, 2149.232634542417, 1251.9083735030251, 7551.471388455082]",None,"[3.0, 4.40792723066625, 8.303968446146236, 4.967547816596368]",False,715.78166410001,718.5662485999055,718.5662485999055,719.7760729999281,None,0,,3.489623820176348,4.49412252032198,None,1,['space'],0,[0.45020800014026463],,,,eqdcwr,001,fr,1,1,2022-04-21_12h16.29.024,Cluster,2022.1.1,None,
,,,,4,0,4,0,10,0,10,0,,,both,,,,,,,,,,,,,,,,,,,,,,,,,,,,,,,,,,,,,,,,,,,,,,,,,,,,,,,,,,,,,,,,,,,,,,,,,,,,,,,,,,,,,,,,,,,,,,,,,,,,,,,,,,,,,,,,,,721.3080247000325,None,1650536898.2481916,1650536900.0298042,1.7816126346588135,1414.213562373095,8.0,0.00012668031067102203,1,"[0.506509386525067, 0.506509386525067, 0.506509386525067, 0.506509386525067]","[890.8987181403394, 1000.0000000000001, 1122.4620483093731, 1259.9210498948732]",Tone,"[4.110395708048437, 5.565978271147425, 7.0, 8.303968446146236]",False,724.0976666000206,726.6439680999611,726.6439680999611,727.8779480999801,['space'],1,[0.22418939997442067],3.0494743005838245,4.060112100560218,None,1,None,1,,,,,eqdcwr,001,fr,1,1,2022-04-21_12h16.29.024,Cluster,2022.1.1,None,
,,,,4,0,4,0,11,0,11,0,,,none,,,,,,,,,,,,,,,,,,,,,,,,,,,,,,,,,,,,,,,,,,,,,,,,,,,,,,,,,,,,,,,,,,,,,,,,,,,,,,,,,,,,,,,,,,,,,,,,,,,,,,,,,,,,,,,,,,729.1720561999828,None,,,,,,,,"[0.45202373651289124, 0.5510911810590182, 0.4437790758151275, 0.5069819004976536]","[296.53552817924486, 988.1597078306004, 3920.9038696287216, 2918.0978125866645]",None,"[6.0, 5.565978271147425, 0.4940193753806348, 0.4143334754883661]",True,730.1668302998878,732.6407323000021,732.6407323000021,733.8514276000205,None,1,,2.9872432202100754,4.000507320044562,None,1,None,1,,0,,,eqdcwr,001,fr,1,1,2022-04-21_12h16.29.024,Cluster,2022.1.1,None,
,,,,4,0,4,0,12,0,12,0,,,both,,,,,,,,,,,,,,,,,,,,,,,,,,,,,,,,,,,,,,,,,,,,,,,,,,,,,,,,,,,,,,,,,,,,,,,,,,,,,,,,,,,,,,,,,,,,,,,,,,,,,,,,,,,,,,,,,,735.2012257000897,None,,,,556.7594392303841,-0.8410274270283072,5.681395171856871e-05,0,"[0.7575212964617623, 0.7575212964617623, 0.7575212964617623, 0.7575212964617623]","[1402.9458744280528, 1113.5188784607683, 883.8005195275366, 701.4729372140264]",Major_3rd,"[9.58105541366995, 7.0, 4.110395708048437, 2.335362874573512]",False,736.2156644000206,739.5223485000897,739.5223485000897,740.7567368999589,None,0,,4.079462120542303,5.083805320551619,None,1,None,1,,,,,eqdcwr,001,fr,1,1,2022-04-21_12h16.29.024,Cluster,2022.1.1,None,
,,,,4,0,4,0,13,0,13,0,,,frequency,,,,,,,,,,,,,,,,,,,,,,,,,,,,,,,,,,,,,,,,,,,,,,,,,,,,,,,,,,,,,,,,,,,,,,,,,,,,,,,,,,,,,,,,,,,,,,,,,,,,,,,,,,,,,,,,,,742.3134649998974,None,1650536919.2488425,1650536921.1800616,1.9312191009521484,4000.0,0.0,8.394020090612804e-05,1,"[0.6542376617912735, 0.40607739175285773, 0.5516744739809518, 0.7752242432496951]","[793.7005259840998, 1189.2071150027211, 1781.7974362806788, 2669.679708340069]",Perfect_5th,"[3.464680763121044, 8.0, 8.0, 0.9712394348077362]",False,745.2474617999978,747.9047353998758,747.9047353998758,749.10923000006,['space'],1,[0.2708977002184838],3.415010500466451,4.449779800605029,None,1,None,1,,,,,eqdcwr,001,fr,1,1,2022-04-21_12h16.29.024,Cluster,2022.1.1,None,
,,,,4,0,4,0,14,0,14,0,,,frequency,,,,,,,,,,,,,,,,,,,,,,,,,,,,,,,,,,,,,,,,,,,,,,,,,,,,,,,,,,,,,,,,,,,,,,,,,,,,,,,,,,,,,,,,,,,,,,,,,,,,,,,,,,,,,,,,,,750.7492479998618,None,,,,5131.939850795838,0.0,0.0001478805990848359,1,"[0.4026645761915693, 0.6296489076796257, 0.7461382896635166, 0.6781856090695031]","[3232.919522406015, 3628.8294691392157, 4073.2233588954186, 4572.038634647336]",Tone,"[0.12314290329400102, 0.2889914060118919, 0.4940193753806348, 1.3072675182586222]",False,751.7614422000479,754.5827532999683,754.5827532999683,755.818539199885,['space'],1,[0.3125927001237869],3.49179082037881,4.506455220282078,None,1,None,1,,,,,eqdcwr,001,fr,1,1,2022-04-21_12h16.29.024,Cluster,2022.1.1,None,
,,,,4,0,4,0,15,0,15,0,,,frequency,,,,,,,,,,,,,,,,,,,,,,,,,,,,,,,,,,,,,,,,,,,,,,,,,,,,,,,,,,,,,,,,,,,,,,,,,,,,,,,,,,,,,,,,,,,,,,,,,,,,,,,,,,,,,,,,,,757.3018300998956,None,,,,,,,,"[0.49774265213634533, 0.599116908435553, 0.74750694940524, 0.5023067882994035]","[125.35315499062703, 187.81751923127598, 281.40831822564303, 421.63607468944616]",Perfect_5th,"[4.2409982726429245, 2.9238165415902073, 5.596181116739962, 4.0]",True,758.3031246000901,761.181226799963,761.181226799963,762.393244799925,['space'],0,[0.5520767001435161],3.383669420145452,4.417447620071471,None,1,None,1,,0,,,eqdcwr,001,fr,1,1,2022-04-21_12h16.29.024,Cluster,2022.1.1,None,
,,,,4,0,4,0,16,0,16,0,,,both,,,,,,,,,,,,,,,,,,,,,,,,,,,,,,,,,,,,,,,,,,,,,,,,,,,,,,,,,,,,,,,,,,,,,,,,,,,,,,,,,,,,,,,,,,,,,,,,,,,,,,,,,,,,,,,,,,763.7690091000404,None,1650536940.7106555,1650536942.5215774,1.8109219074249268,2000.0,-1.0,6.667607160816621e-05,1,"[0.6738714051632908, 0.6738714051632908, 0.6738714051632908, 0.6738714051632908]","[793.7005259841001, 1000.0000000000003, 1259.9210498948735, 1587.4010519681997]",Major_3rd,"[3.464680763121044, 5.565978271147425, 8.303968446146236, 9.26681740728439]",False,766.5952520999126,769.631336600054,769.631336600054,770.8616953999735,['space'],1,[0.6635439000092447],3.7182492406573147,4.725919340737164,None,1,None,1,,,,,eqdcwr,001,fr,1,1,2022-04-21_12h16.29.024,Cluster,2022.1.1,None,
,,,,4,0,4,0,17,0,17,0,,,both,,,,,,,,,,,,,,,,,,,,,,,,,,,,,,,,,,,,,,,,,,,,,,,,,,,,,,,,,,,,,,,,,,,,,,,,,,,,,,,,,,,,,,,,,,,,,,,,,,,,,,,,,,,,,,,,,,772.3400057998952,None,,,,2582.200754920424,-1.0,7.200168229404614e-05,1,"[0.6847098340828557, 0.6847098340828557, 0.6847098340828557, 0.6847098340828557]","[4098.988194753761, 3651.783328378509, 3253.3690861786754, 2898.4223485139887]",Tone,"[0.4940193753806348, 0.2889914060118919, 0.12314290329400102, 0.4143334754883661]",False,773.3523772999179,776.4322905999143,776.4322905999143,777.6630136999302,['space'],1,[0.33442740025930107],3.7790229201782495,4.81193892005831,None,1,None,1,,,,,eqdcwr,001,fr,1,1,2022-04-21_12h16.29.024,Cluster,2022.1.1,None,
,,,,4,0,4,0,18,0,18,0,,,both,,,,,,,,,,,,,,,,,,,,,,,,,,,,,,,,,,,,,,,,,,,,,,,,,,,,,,,,,,,,,,,,,,,,,,,,,,,,,,,,,,,,,,,,,,,,,,,,,,,,,,,,,,,,,,,,,,779.1986289999913,None,1650536956.1542861,1650536958.0029464,1.8486602306365967,189.4645708137998,-7.0,0.00013570784394859175,0,"[0.7349687560669805, 0.7349687560669805, 0.7349687560669805, 0.7349687560669805]","[477.4208019552084, 378.9291416275996, 300.7562590205292, 238.7104009776042]",Major_3rd,"[2.6311300037882948, 5.289027767580068, 6.0, 3.5253033140191206]",False,782.0705709999893,785.3059042000677,785.3059042000677,786.5383039999288,None,0,,3.9621438805479556,4.993018580600619,None,1,None,1,,,,,eqdcwr,001,fr,1,1,2022-04-21_12h16.29.024,Cluster,2022.1.1,None,
,,,,4,0,4,0,19,0,19,0,,,both,,,,,,,,,,,,,,,,,,,,,,,,,,,,,,,,,,,,,,,,,,,,,,,,,,,,,,,,,,,,,,,,,,,,,,,,,,,,,,,,,,,,,,,,,,,,,,,,,,,,,,,,,,,,,,,,,,788.1163367000408,None,,,,,,,,"[0.7689651161936712, 0.7689651161936712, 0.7689651161936712, 0.7689651161936712]","[391.0861873795674, 438.97940295157247, 492.7377198026477, 553.0793902489698]",Tone,"[5.0, 3.5168375051606526, 2.0, 1.4829887434687423]",True,789.1279190999921,792.4758846000768,792.4758846000768,793.6812539999373,None,1,,4.120177220087498,5.1481258200947195,None,1,None,1,,0,,,eqdcwr,001,fr,1,1,2022-04-21_12h16.29.024,Cluster,2022.1.1,None,
,,,,5,0,5,0,0,0,0,0,,,frequency,,,,,,,,,,,,,,,,,,,,,,,,,,,,,,,,,,,,,,,,,,,,,,,,,,,,,,,,,,,,,,,,,,,,,,,,,,,,,,,,,,,,,,,,,,,,,,,,,,,,,,,,,,,,,,,,,,808.7504052000586,None,1650536985.6636286,1650536987.7001193,2.0364906787872314,659.7539553864473,-6.0,2.4335369146397992e-05,0,"[0.4146289624796282, 0.6207170740813714, 0.4607396867112908, 0.6020173104385697]","[3324.9515845711517, 2219.1389441356905, 1481.0975522865647, 988.5140203528964]",Perfect_5th,"[0.12314290329400102, 4.0, 9.6570143092373, 5.565978271147425]",False,811.7688414999284,814.3036014998797,814.3036014998797,815.5372997999657,None,0,,3.1464393604546785,4.170245460467413,None,1,None,1,,,,,eqdcwr,001,fr,1,1,2022-04-21_12h16.29.024,Cluster,2022.1.1,None,
,,,,5,0,5,0,1,0,1,0,,,none,,,,,,,,,,,,,,,,,,,,,,,,,,,,,,,,,,,,,,,,,,,,,,,,,,,,,,,,,,,,,,,,,,,,,,,,,,,,,,,,,,,,,,,,,,,,,,,,,,,,,,,,,,,,,,,,,,816.9504332998767,None,1650536993.8918574,1650536996.2841816,2.392324209213257,125.0,2.0,0.000909850429304992,1,"[0.6098846069316102, 0.5302919494902358, 0.47244374368207476, 0.5036155641684104]","[6431.0655126216625, 1212.088065753187, 627.0954754095657, 141.59325410131416]",None,"[4.3900618468875034, 8.0, 1.493318367043476, 4.014491229490316]",False,820.3534387000836,823.011145999888,823.011145999888,824.2181980998721,['space'],1,[0.31555230007506907],3.1293802408035845,4.130041240947321,None,1,None,1,,,,,eqdcwr,001,fr,1,1,2022-04-21_12h16.29.024,Cluster,2022.1.1,None,
,,,,5,0,5,0,2,0,2,0,,,frequency,,,,,,,,,,,,,,,,,,,,,,,,,,,,,,,,,,,,,,,,,,,,,,,,,,,,,,,,,,,,,,,,,,,,,,,,,,,,,,,,,,,,,,,,,,,,,,,,,,,,,,,,,,,,,,,,,,825.5280317000579,None,,,,631.813019718507,-0.7265388918928083,4.6912808753317e-05,1,"[0.7196087332799026, 0.45211709935897776, 0.7735490425687677, 0.7212337858644122]","[250.73516303709076, 315.90650985925356, 398.0172615704958, 501.4703260741814]",Major_3rd,"[4.191212245504896, 6.059135077977032, 4.450392872957826, 1.9387558237431435]",False,826.537050700048,829.516581099946,829.516581099946,830.7190539999865,['space'],1,[0.2191585002001375],3.686837020330131,4.7001338202971965,None,1,None,1,,,,,eqdcwr,001,fr,1,1,2022-04-21_12h16.29.024,Cluster,2022.1.1,None,
,,,,5,0,5,0,3,0,3,0,,,time,,,,,,,,,,,,,,,,,,,,,,,,,,,,,,,,,,,,,,,,,,,,,,,,,,,,,,,,,,,,,,,,,,,,,,,,,,,,,,,,,,,,,,,,,,,,,,,,,,,,,,,,,,,,,,,,,,832.2694365000352,None,,,,,,,,"[0.5348992904069778, 0.5348992904069778, 0.5348992904069778, 0.5348992904069778]","[321.5589555277819, 1755.9253905608543, 611.6846262381196, 214.84118490034044]",None,"[6.159795749040223, 8.426474349612413, 1.493318367043476, 3.0952451234517246]",True,833.2734769000672,835.8963067999575,835.8963067999575,837.1280694999732,None,1,,3.1863189202267677,4.2167386203072965,None,1,None,1,,0,,,eqdcwr,001,fr,1,1,2022-04-21_12h16.29.024,Cluster,2022.1.1,None,
,,,,5,0,5,0,4,0,4,0,,,both,,,,,,,,,,,,,,,,,,,,,,,,,,,,,,,,,,,,,,,,,,,,,,,,,,,,,,,,,,,,,,,,,,,,,,,,,,,,,,,,,,,,,,,,,,,,,,,,,,,,,,,,,,,,,,,,,,838.5409748000093,None,,,,537.9529548438011,-0.6975054956328469,6.046795461240365e-05,0,"[0.7053053746905826, 0.7053053746905826, 0.7053053746905826, 0.7053053746905826]","[338.8891258304255, 380.39018232939225, 426.9735432142255, 479.2615978901502]",Tone,"[6.0, 5.289027767580068, 4.0, 2.6311300037882948]",False,839.5478646999691,842.6976352999918,842.6976352999918,843.9022647000384,None,0,,3.853413420030847,4.879378820070997,None,1,None,1,,,,,eqdcwr,001,fr,1,1,2022-04-21_12h16.29.024,Cluster,2022.1.1,None,
,,,,5,0,5,0,5,0,5,0,,,none,,,,,,,,,,,,,,,,,,,,,,,,,,,,,,,,,,,,,,,,,,,,,,,,,,,,,,,,,,,,,,,,,,,,,,,,,,,,,,,,,,,,,,,,,,,,,,,,,,,,,,,,,,,,,,,,,,845.4480395000428,None,,,,4480.7304533057,-1.0,0.00010429175224681616,1,"[0.619202382576614, 0.519075709469185, 0.7733828699091286, 0.7390795072724279]","[6211.661651997852, 1745.0440434178506, 4334.190407700658, 3586.5616216343137]",None,"[4.0, 8.426474349612413, 0.8358100735481013, 0.17184970796578725]",False,846.4555585000198,849.404137799982,849.404137799982,850.6371428999119,['space'],1,[0.4976256999652833],3.682688220171258,4.711988920113072,None,1,None,1,,,,,eqdcwr,001,fr,1,1,2022-04-21_12h16.29.024,Cluster,2022.1.1,None,
,,,,5,0,5,0,6,0,6,0,,,both,,,,,,,,,,,,,,,,,,,,,,,,,,,,,,,,,,,,,,,,,,,,,,,,,,,,,,,,,,,,,,,,,,,,,,,,,,,,,,,,,,,,,,,,,,,,,,,,,,,,,,,,,,,,,,,,,,852.1895983999129,None,1650537029.1226587,1650537030.832063,1.7094042301177979,4924.577653379667,-1.0,0.0001315099195278041,1,"[0.6585635549930029, 0.6585635549930029, 0.6585635549930029, 0.6585635549930029]","[3102.28952366747, 3482.2022531844973, 3908.639873736985, 4387.299918778505]",Tone,"[0.1755438318443634, 0.17184970796578725, 0.4940193753806348, 1.0]",False,854.9035455998965,857.9099168998655,857.9099168998655,859.114934500074,['space'],1,[0.21769870026037097],3.6627570807468146,4.694063380593434,None,1,None,1,,,,,eqdcwr,001,fr,1,1,2022-04-21_12h16.29.024,Cluster,2022.1.1,None,
,,,,5,0,5,0,7,0,7,0,,,frequency,,,,,,,,,,,,,,,,,,,,,,,,,,,,,,,,,,,,,,,,,,,,,,,,,,,,,,,,,,,,,,,,,,,,,,,,,,,,,,,,,,,,,,,,,,,,,,,,,,,,,,,,,,,,,,,,,,860.6608863999136,None,1650537037.5960767,1650537039.574067,1.9779903888702393,125.0,2.0,0.000909850429304992,1,"[0.7561361106808833, 0.6910602106294039, 0.5879048296653391, 0.5415316666060859]","[314.9802624737183, 250.00000000000003, 198.42513149602496, 157.49013123685916]",Major_3rd,"[6.059135077977032, 4.191212245504896, 2.895042193204213, 3.6893224035748413]",False,863.6984681000467,866.7817798999604,866.7817798999604,868.0176325000357,['space'],1,[0.2289241999387741],3.6309659604448825,4.664890360319987,None,1,None,1,,,,,eqdcwr,001,fr,1,1,2022-04-21_12h16.29.024,Cluster,2022.1.1,None,
,,,,5,0,5,0,8,0,8,0,,,frequency,,,,,,,,,,,,,,,,,,,,,,,,,,,,,,,,,,,,,,,,,,,,,,,,,,,,,,,,,,,,,,,,,,,,,,,,,,,,,,,,,,,,,,,,,,,,,,,,,,,,,,,,,,,,,,,,,,869.3723321999423,None,,,,,,,,"[0.5206004466406444, 0.7443534188702252, 0.7800684445292748, 0.7664443423577201]","[820.1491963884946, 547.3839168524445, 365.3349338731696, 243.8318149272404]",Perfect_5th,"[3.464680763121044, 1.4829887434687423, 5.893201081980479, 4.0]",True,870.3698008998763,873.4557073998731,873.4557073998731,874.6595598999411,None,1,,3.8543861203361303,4.864105420419946,None,1,None,1,,0,,,eqdcwr,001,fr,1,1,2022-04-21_12h16.29.024,Cluster,2022.1.1,None,
,,,,5,0,5,0,9,0,9,0,,,time,,,,,,,,,,,,,,,,,,,,,,,,,,,,,,,,,,,,,,,,,,,,,,,,,,,,,,,,,,,,,,,,,,,,,,,,,,,,,,,,,,,,,,,,,,,,,,,,,,,,,,,,,,,,,,,,,,876.2809810000472,None,1650537053.2203443,1650537056.7646046,3.544260263442993,435.2752816480623,-8.0,2.975927567541308e-05,0,"[0.4983953136373571, 0.4983953136373571, 0.4983953136373571, 0.4983953136373571]","[276.7994021014853, 654.7373271685834, 2654.36790785434, 1105.2508221779658]",None,"[5.0, 1.858479147960578, 0.9712394348077362, 7.0]",False,880.8363920000847,883.3677920999471,883.3677920999471,884.5764146000147,None,0,,3.029935840750113,4.045596740907058,None,1,None,1,,,,,eqdcwr,001,fr,1,1,2022-04-21_12h16.29.024,Cluster,2022.1.1,None,
,,,,5,0,5,0,10,0,10,0,,,frequency,,,,,,,,,,,,,,,,,,,,,,,,,,,,,,,,,,,,,,,,,,,,,,,,,,,,,,,,,,,,,,,,,,,,,,,,,,,,,,,,,,,,,,,,,,,,,,,,,,,,,,,,,,,,,,,,,,885.9039856998716,None,,,,3808.3009597445166,-1.8449518189695147,6.515582402002003e-05,1,"[0.6660489633945263, 0.718677538906557, 0.7852939241330957, 0.7148238493381298]","[6045.30094970995, 5385.75086686917, 4798.1585435169645, 4274.673295853381]",Tone,"[3.8729078284856655, 2.566116844466812, 1.9130873754749476, 0.8358100735481013]",False,886.9111546999775,890.1074480998795,890.1074480998795,891.3167705999222,['space'],1,[0.2884498001076281],3.9307960199657828,4.9520158199593425,None,1,None,1,,,,,eqdcwr,001,fr,1,1,2022-04-21_12h16.29.024,Cluster,2022.1.1,None,
,,,,5,0,5,0,11,0,11,0,,,time,,,,,,,,,,,,,,,,,,,,,,,,,,,,,,,,,,,,,,,,,,,,,,,,,,,,,,,,,,,,,,,,,,,,,,,,,,,,,,,,,,,,,,,,,,,,,,,,,,,,,,,,,,,,,,,,,,892.8996578999795,None,,,,1704.1991740532098,6.078317888087365,0.00012373038013812162,1,"[0.7618547062066312, 0.7618547062066312, 0.7618547062066312, 0.7618547062066312]","[152.96806412347772, 297.65702069450396, 1086.3897687036929, 3211.357662617764]",None,"[3.6893224035748413, 6.0, 6.437138982256159, 0.12314290329400102]",False,893.9004732999019,897.2374203999061,897.2374203999061,898.461361200083,['space'],1,[0.2917164000682533],4.091544520109892,5.103035820182413,None,1,None,1,,,,,eqdcwr,001,fr,1,1,2022-04-21_12h16.29.024,Cluster,2022.1.1,None,
,,,,5,0,5,0,12,0,12,0,,,time,,,,,,,,,,,,,,,,,,,,,,,,,,,,,,,,,,,,,,,,,,,,,,,,,,,,,,,,,,,,,,,,,,,,,,,,,,,,,,,,,,,,,,,,,,,,,,,,,,,,,,,,,,,,,,,,,,900.0351199000143,None,,,,,,,,"[0.6666189016425818, 0.6666189016425818, 0.6666189016425818, 0.6666189016425818]","[417.94485774872334, 4650.6141196554745, 5318.992484971125, 4204.354729209092]",None,"[4.0, 1.3072675182586222, 2.566116844466812, 0.8358100735481013]",True,901.0423216000199,904.0845562000759,904.0845562000759,905.2895144999493,None,1,,3.697448620107025,4.701452620094642,None,1,None,1,,0,,,eqdcwr,001,fr,1,1,2022-04-21_12h16.29.024,Cluster,2022.1.1,None,
,,,,5,0,5,0,13,0,13,0,,,none,,,,,,,,,,,,,,,,,,,,,,,,,,,,,,,,,,,,,,,,,,,,,,,,,,,,,,,,,,,,,,,,,,,,,,,,,,,,,,,,,,,,,,,,,,,,,,,,,,,,,,,,,,,,,,,,,,906.777540900046,None,1650537083.712057,1650537086.4980502,2.7859930992126465,707.1067811865476,-3.0,3.143487978586954e-05,0,"[0.7064820948585488, 0.5894372798527727, 0.605318029782856, 0.6862802937063065]","[2366.3129237428852, 7332.661991211152, 2442.6279769251655, 5082.868344423162]",None,"[3.0, 4.967547816596368, 2.0, 2.0]",False,910.5717785998713,913.4925001999363,913.4925001999363,914.7125220000744,None,0,,3.612761100754142,4.6284209007862955,None,1,None,1,,,,,eqdcwr,001,fr,1,1,2022-04-21_12h16.29.024,Cluster,2022.1.1,None,
,,,,5,0,5,0,14,0,14,0,,,none,,,,,,,,,,,,,,,,,,,,,,,,,,,,,,,,,,,,,,,,,,,,,,,,,,,,,,,,,,,,,,,,,,,,,,,,,,,,,,,,,,,,,,,,,,,,,,,,,,,,,,,,,,,,,,,,,,916.2456239000894,None,,,,380.81845468565405,2.9820769161921445,0.00011493253668550351,0,"[0.41415347196098273, 0.7480632406815944, 0.6886254836266328, 0.7153211993114876]","[484.0550222788283, 216.06312964837434, 5363.425011475543, 1818.195231362643]",None,"[2.0, 3.0952451234517246, 2.566116844466812, 8.0]",False,917.2467398999725,920.1282891998999,920.1282891998999,921.3326123000588,None,0,,3.6047006202861667,4.621537020197138,None,1,None,1,,,,,eqdcwr,001,fr,1,1,2022-04-21_12h16.29.024,Cluster,2022.1.1,None,
,,,,5,0,5,0,15,0,15,0,,,frequency,,,,,,,,,,,,,,,,,,,,,,,,,,,,,,,,,,,,,,,,,,,,,,,,,,,,,,,,,,,,,,,,,,,,,,,,,,,,,,,,,,,,,,,,,,,,,,,,,,,,,,,,,,,,,,,,,,922.9203299998771,None,1650537099.8365903,1650537101.8924184,2.055828094482422,8000.0,5.0,0.00032282711451732784,0,"[0.43950887935509947, 0.5955685325785245, 0.7034389048500062, 0.436029229914234]","[5039.684199579492, 5656.8542494923795, 6349.604207872798, 7127.189745122714]",Tone,"[2.0, 3.247730475677683, 4.3900618468875034, 4.774566040266244]",False,925.9678865999449,928.742241299944,928.742241299944,929.9755325999577,None,0,,3.1895176605321467,4.22593736066483,None,1,None,1,,,,,eqdcwr,001,fr,1,1,2022-04-21_12h16.29.024,Cluster,2022.1.1,None,
,,,,5,0,5,0,16,0,16,0,,,frequency,,,,,,,,,,,,,,,,,,,,,,,,,,,,,,,,,,,,,,,,,,,,,,,,,,,,,,,,,,,,,,,,,,,,,,,,,,,,,,,,,,,,,,,,,,,,,,,,,,,,,,,,,,,,,,,,,,931.248075600015,None,,,,,,,,"[0.5563138709119028, 0.4653239280788693, 0.4252795894196588, 0.6598825553226637]","[2905.705227971985, 1939.3255713836156, 1294.344531446962, 863.8713328012221]",Perfect_5th,"[0.4143334754883661, 6.0, 9.0, 4.0]",True,932.2473555998877,934.7135419000406,934.7135419000406,935.948875800008,None,1,,3.1376640202943236,4.170081620104611,None,1,None,1,,0,,,eqdcwr,001,fr,1,1,2022-04-21_12h16.29.024,Cluster,2022.1.1,None,
,,,,5,0,5,0,17,0,17,0,,,frequency,,,,,,,,,,,,,,,,,,,,,,,,,,,,,,,,,,,,,,,,,,,,,,,,,,,,,,,,,,,,,,,,,,,,,,,,,,,,,,,,,,,,,,,,,,,,,,,,,,,,,,,,,,,,,,,,,,937.4366552999709,None,,,,1105.0392795409261,4.159189187211544,7.820180873270126e-05,1,"[0.7925396891656832, 0.5242543560093011, 0.7592078839049828, 0.6372588000734664]","[438.535128702362, 552.5196397704632, 696.131124627139, 877.0702574047237]",Major_3rd,"[3.5168375051606526, 1.4829887434687423, 2.335362874573512, 4.110395708048437]",False,938.4639270000625,941.5897850000765,941.5897850000765,942.82301250007,['space'],1,[0.10663800011388958],3.7598295202478766,4.7685088203288615,None,1,None,1,,,,,eqdcwr,001,fr,1,1,2022-04-21_12h16.29.024,Cluster,2022.1.1,None,
,,,,5,0,5,0,18,0,18,0,,,none,,,,,,,,,,,,,,,,,,,,,,,,,,,,,,,,,,,,,,,,,,,,,,,,,,,,,,,,,,,,,,,,,,,,,,,,,,,,,,,,,,,,,,,,,,,,,,,,,,,,,,,,,,,,,,,,,,944.2494808000047,None,1650537121.1705804,1650537124.0671682,2.89658784866333,435.2752816480623,-2.0,5.937756127592179e-05,0,"[0.4056560781758511, 0.4284887463920449, 0.7318019273280687, 0.7947531741646308]","[1428.8987385751395, 1247.57461903952, 3297.5726057697343, 1009.4956233749551]",None,"[9.58105541366995, 8.303968446146236, 0.12314290329400102, 5.565978271147425]",False,948.1448679999448,950.736646699952,950.736646699952,951.9387924999464,None,0,,3.409178060712293,4.435631160857156,None,1,None,1,,,,,eqdcwr,001,fr,1,1,2022-04-21_12h16.29.024,Cluster,2022.1.1,None,
,,,,5,0,5,0,19,0,19,0,,,time,,,,,,,,,,,,,,,,,,,,,,,,,,,,,,,,,,,,,,,,,,,,,,,,,,,,,,,,,,,,,,,,,,,,,,,,,,,,,,,,,,,,,,,,,,,,,,,,,,,,,,,,,,,,,,,,,,953.5914032999426,None,1650537130.5160372,1650537134.5171845,4.001147270202637,1515.7165665103996,-1.0,4.4233032710320856e-05,0,"[0.5989949328971083, 0.5989949328971083, 0.5989949328971083, 0.5989949328971083]","[221.75133393090042, 734.6367244594645, 5246.052619841782, 729.7225366031147]",None,"[3.0952451234517246, 2.8910624098854916, 2.566116844466812, 2.335362874573512]",False,958.5922254000325,961.407726299949,961.407726299949,962.643335999921,None,0,,3.418377880938351,4.443154681008309,None,1,None,1,,,,,eqdcwr,001,fr,1,1,2022-04-21_12h16.29.024,Cluster,2022.1.1,None,
,,,,6,0,6,0,0,0,0,0,,,none,,,,,,,,,,,,,,,,,,,,,,,,,,,,,,,,,,,,,,,,,,,,,,,,,,,,,,,,,,,,,,,,,,,,,,,,,,,,,,,,,,,,,,,,,,,,,,,,,,,,,,,,,,,,,,,,,,966.7480681999587,None,,,,,,,,"[0.513825609155542, 0.6102182445428107, 0.6367483978617098, 0.4019238603174615]","[499.1119211555179, 799.5513030100226, 7082.454611714804, 516.2530983500379]",None,"[1.9387558237431435, 3.464680763121044, 4.774566040266244, 1.9387558237431435]",True,967.73252459988,970.516747900052,970.516747900052,971.7525722999126,['space'],0,[0.4668598002754152],3.1883457202930003,4.221724120434374,None,1,None,1,,0,,,eqdcwr,001,fr,1,1,2022-04-21_12h16.29.024,Cluster,2022.1.1,None,
,,,,6,0,6,0,1,0,1,0,,,none,,,,,,,,,,,,,,,,,,,,,,,,,,,,,,,,,,,,,,,,,,,,,,,,,,,,,,,,,,,,,,,,,,,,,,,,,,,,,,,,,,,,,,,,,,,,,,,,,,,,,,,,,,,,,,,,,,973.000064099906,None,,,,692.9538413951958,0.0,4.564405738858436e-05,0,"[0.5726537566298122, 0.7905739854628686, 0.44378849396129927, 0.4536064675069348]","[259.3749956244672, 4136.354576620421, 460.103866575015, 576.4884724192056]",None,"[4.941271169810042, 0.4940193753806348, 2.6311300037882948, 1.3517870611377325]",False,973.9980991999619,976.8242397999857,976.8242397999857,978.0594979999587,None,0,,3.295146419899538,4.325897020054981,None,1,None,1,,,,,eqdcwr,001,fr,1,1,2022-04-21_12h16.29.024,Cluster,2022.1.1,None,
,,,,6,0,6,0,2,0,2,0,,,time,,,,,,,,,,,,,,,,,,,,,,,,,,,,,,,,,,,,,,,,,,,,,,,,,,,,,,,,,,,,,,,,,,,,,,,,,,,,,,,,,,,,,,,,,,,,,,,,,,,,,,,,,,,,,,,,,,979.3416263998952,None,,,,359.5462060422697,3.560959577908617,0.0001311744913040635,1,"[0.6398961399027854, 0.6398961399027854, 0.6398961399027854, 0.6398961399027854]","[145.94017283177155, 652.7958634726197, 5195.89638042855, 219.74842803941453]",None,"[4.0, 1.858479147960578, 2.566116844466812, 3.0952451234517246]",False,980.3451405998785,983.2976770000532,983.2976770000532,984.5319513999857,['space'],1,[0.2683350001461804],3.589416720205918,4.619819620158523,None,1,None,1,,,,,eqdcwr,001,fr,1,1,2022-04-21_12h16.29.024,Cluster,2022.1.1,None,
,,,,6,0,6,0,3,0,3,0,,,frequency,,,,,,,,,,,,,,,,,,,,,,,,,,,,,,,,,,,,,,,,,,,,,,,,,,,,,,,,,,,,,,,,,,,,,,,,,,,,,,,,,,,,,,,,,,,,,,,,,,,,,,,,,,,,,,,,,,985.9881680000108,None,1650537162.9136922,1650537164.850653,1.9369606971740723,435.2752816480623,-5.0,4.203609419229965e-05,0,"[0.7502389466287874, 0.7433235745873289, 0.6542898294490651, 0.5039752605580842]","[2193.649959389253, 1464.0856959456262, 977.1599684342465, 652.1760348827825]",Perfect_5th,"[4.0, 9.58105541366995, 5.565978271147425, 1.858479147960578]",False,988.927661200054,992.106757799862,992.106757799862,993.3414223999716,None,0,,3.670277600409463,4.694190200418234,None,1,None,1,,,,,eqdcwr,001,fr,1,1,2022-04-21_12h16.29.024,Cluster,2022.1.1,None,
,,,,6,0,6,0,4,0,4,0,,,frequency,,,,,,,,,,,,,,,,,,,,,,,,,,,,,,,,,,,,,,,,,,,,,,,,,,,,,,,,,,,,,,,,,,,,,,,,,,,,,,,,,,,,,,,,,,,,,,,,,,,,,,,,,,,,,,,,,,994.6553118000738,None,,,,,,,,"[0.7274751059727347, 0.5340724181954488, 0.41312472435357095, 0.6882849762999597]","[144.28476818982986, 181.7874166215688, 229.0377928075237, 288.56953637965967]",Major_3rd,"[4.0, 3.0, 3.5253033140191206, 5.596181116739962]",True,995.6613799000625,998.3778917000163,998.3778917000163,999.6136690999847,None,1,,3.3880376201123,4.4020306202583015,None,1,None,1,,0,,,eqdcwr,001,fr,1,1,2022-04-21_12h16.29.024,Cluster,2022.1.1,None,
,,,,6,0,6,0,5,0,5,0,,,both,,,,,,,,,,,,,,,,,,,,,,,,,,,,,,,,,,,,,,,,,,,,,,,,,,,,,,,,,,,,,,,,,,,,,,,,,,,,,,,,,,,,,,,,,,,,,,,,,,,,,,,,,,,,,,,,,,1001.093325200025,None,,,,463.49299222681,0.4106012495610929,7.685883546946537e-05,0,"[0.6448542700159422, 0.6448542700159422, 0.6448542700159422, 0.6448542700159422]","[2335.858309541275, 1558.9983826349692, 1040.5065868638908, 694.4548303361781]",Perfect_5th,"[3.0, 9.6570143092373, 6.0, 2.335362874573512]",False,1002.0861333999783,1005.0522197000682,1005.0522197000682,1006.2891104000155,None,0,,3.6058052200824022,4.634703719988465,None,1,None,1,,,,,eqdcwr,001,fr,1,1,2022-04-21_12h16.29.024,Cluster,2022.1.1,None,
,,,,6,0,6,0,6,0,6,0,,,time,,,,,,,,,,,,,,,,,,,,,,,,,,,,,,,,,,,,,,,,,,,,,,,,,,,,,,,,,,,,,,,,,,,,,,,,,,,,,,,,,,,,,,,,,,,,,,,,,,,,,,,,,,,,,,,,,,1007.7577692999039,None,1650537184.7021604,1650537190.0108635,5.308703184127808,8000.0,-4.0,0.00011454338263838867,0,"[0.40004983083932666, 0.40004983083932666, 0.40004983083932666, 0.40004983083932666]","[195.15709766063813, 3581.3073647533934, 4457.308683139519, 211.6913490258649]",None,"[2.9238165415902073, 0.17184970796578725, 1.0, 3.0]",False,1014.0890643999446,1016.331319599878,1016.331319599878,1017.5663683998864,None,0,,2.6359654816333205,3.667858781525865,None,1,None,1,,,,,eqdcwr,001,fr,1,1,2022-04-21_12h16.29.024,Cluster,2022.1.1,None,
,,,,6,0,6,0,7,0,7,0,,,both,,,,,,,,,,,,,,,,,,,,,,,,,,,,,,,,,,,,,,,,,,,,,,,,,,,,,,,,,,,,,,,,,,,,,,,,,,,,,,,,,,,,,,,,,,,,,,,,,,,,,,,,,,,,,,,,,,1018.8019014000893,None,1650537195.7217493,1650537197.8889976,2.167248249053955,8000.0,4.0,0.0002877199686685786,0,"[0.4185397911255744, 0.4185397911255744, 0.4185397911255744, 0.4185397911255744]","[1587.4010519681997, 2378.4142300054423, 3563.5948725613575, 5339.359416680138]",Perfect_5th,"[9.26681740728439, 2.0, 0.17184970796578725, 2.566116844466812]",False,1022.0145387998782,1024.2927713000681,1024.2927713000681,1025.5085209999233,None,0,,2.693494500592351,3.7248829007148743,None,1,None,1,,,,,eqdcwr,001,fr,1,1,2022-04-21_12h16.29.024,Cluster,2022.1.1,None,
,,,,6,0,6,0,8,0,8,0,,,none,,,,,,,,,,,,,,,,,,,,,,,,,,,,,,,,,,,,,,,,,,,,,,,,,,,,,,,,,,,,,,,,,,,,,,,,,,,,,,,,,,,,,,,,,,,,,,,,,,,,,,,,,,,,,,,,,,1026.7681710000616,None,1650537203.6886117,1650537206.708408,3.019796371459961,8000.0,3.0,0.0002564306919956826,0,"[0.6115931596288482, 0.7991747366888088, 0.4432399233221635, 0.785214260147071]","[3277.3105233514793, 3069.5497452716527, 152.25634729517915, 328.4492803025324]",None,"[0.12314290329400102, 0.1755438318443634, 3.6893224035748413, 6.159795749040223]",False,1030.7876867998857,1033.6813789999578,1033.6813789999578,1034.918774599908,None,0,,3.667057721177116,4.6852601210121065,None,1,None,1,,,,,eqdcwr,001,fr,1,1,2022-04-21_12h16.29.024,Cluster,2022.1.1,None,
,,,,6,0,6,0,9,0,9,0,,,none,,,,,,,,,,,,,,,,,,,,,,,,,,,,,,,,,,,,,,,,,,,,,,,,,,,,,,,,,,,,,,,,,,,,,,,,,,,,,,,,,,,,,,,,,,,,,,,,,,,,,,,,,,,,,,,,,,1036.4997094999999,None,,,,770.7651288585521,0.557816882220582,4.233040482243969e-05,0,"[0.49346946767350364, 0.4525021173424888, 0.6758907040279633, 0.45121993097973506]","[2353.8784407524618, 160.136437858426, 143.5245623398932, 4461.074417751079]",None,"[3.0, 3.3723023506590977, 4.014491229490316, 1.0]",False,1037.5050285998732,1040.1573932000902,1040.1573932000902,1041.3921018999536,None,0,,3.123551420168951,4.144334220094606,None,1,None,1,,,,,eqdcwr,001,fr,1,1,2022-04-21_12h16.29.024,Cluster,2022.1.1,None,
,,,,6,0,6,0,10,0,10,0,,,both,,,,,,,,,,,,,,,,,,,,,,,,,,,,,,,,,,,,,,,,,,,,,,,,,,,,,,,,,,,,,,,,,,,,,,,,,,,,,,,,,,,,,,,,,,,,,,,,,,,,,,,,,,,,,,,,,,1042.683970599901,None,,,,,,,,"[0.7360852131966183, 0.7360852131966183, 0.7360852131966183, 0.7360852131966183]","[312.02402437220053, 467.5078038724102, 700.4702510371078, 1049.5195342704842]",Perfect_5th,"[6.059135077977032, 2.6311300037882948, 2.335362874573512, 6.0]",True,1043.6784731000662,1046.9308086999226,1046.9308086999226,1048.164951799903,None,1,,3.9629496200941503,4.987585320137441,None,1,None,1,,0,,,eqdcwr,001,fr,1,1,2022-04-21_12h16.29.024,Cluster,2022.1.1,None,
,,,,6,0,6,0,11,0,11,0,,,frequency,,,,,,,,,,,,,,,,,,,,,,,,,,,,,,,,,,,,,,,,,,,,,,,,,,,,,,,,,,,,,,,,,,,,,,,,,,,,,,,,,,,,,,,,,,,,,,,,,,,,,,,,,,,,,,,,,,1049.7040198000614,None,,,,1970.0519456397856,4.0,0.00011642551719655118,1,"[0.552927289642412, 0.5960525629510716, 0.6784994401108823, 0.6466824638931841]","[4964.219831395833, 3940.1038912795716, 3127.262530940594, 2482.109915697916]",Major_3rd,"[2.0, 0.4940193753806348, 0.1755438318443634, 1.836466042985346]",False,1050.7161338999867,1053.5697818000335,1053.5697818000335,1054.7748193000443,['space'],1,[0.3464964001905173],3.4914424202870578,4.514802920399234,None,1,None,1,,,,,eqdcwr,001,fr,1,1,2022-04-21_12h16.29.024,Cluster,2022.1.1,None,
,,,,6,0,6,0,12,0,12,0,,,time,,,,,,,,,,,,,,,,,,,,,,,,,,,,,,,,,,,,,,,,,,,,,,,,,,,,,,,,,,,,,,,,,,,,,,,,,,,,,,,,,,,,,,,,,,,,,,,,,,,,,,,,,,,,,,,,,,1056.2578819000628,None,,,,5334.820681574156,0.3891371818365409,0.00014683215842878415,0,"[0.47809531839003205, 0.47809531839003205, 0.47809531839003205, 0.47809531839003205]","[135.1337102969107, 166.39594033047157, 5541.421513060251, 6043.479127540109]",None,"[4.216895407745912, 3.3723023506590977, 3.0, 3.8729078284856655]",False,1057.259962900076,1059.714165299898,1059.714165299898,1060.944445699919,None,0,,2.9331794201862067,3.942688620183617,None,1,None,1,,,,,eqdcwr,001,fr,1,1,2022-04-21_12h16.29.024,Cluster,2022.1.1,None,
,,,,6,0,6,0,13,0,13,0,,,none,,,,,,,,,,,,,,,,,,,,,,,,,,,,,,,,,,,,,,,,,,,,,,,,,,,,,,,,,,,,,,,,,,,,,,,,,,,,,,,,,,,,,,,,,,,,,,,,,,,,,,,,,,,,,,,,,,1062.2280898999888,None,1650537239.1587405,1650537242.023924,2.8651835918426514,535.8867312681471,4.0,0.00010435943901325153,0,"[0.4169818525095882, 0.7024497225479507, 0.43269101177273916, 0.43029259265554964]","[905.3811685789747, 2755.338678932044, 1807.6072751220045, 3106.7005971709305]",None,"[4.794025478362087, 0.4143334754883661, 8.0, 0.1755438318443634]",False,1066.1033178998623,1068.6828914999496,1068.6828914999496,1069.888646000065,None,0,,3.000207180622965,4.034112280700356,None,1,None,1,,,,,eqdcwr,001,fr,1,1,2022-04-21_12h16.29.024,Cluster,2022.1.1,None,
