frequencies,training_trials.thisRepN,training_trials.thisTrialN,training_trials.thisN,training_trials.thisIndex,frequencies.thisRepN,frequencies.thisTrialN,frequencies.thisN,frequencies.thisIndex,trials.thisRepN,trials.thisTrialN,trials.thisN,trials.thisIndex,tFrequency,tLevel,tCorrect,Tprobe.started,Tprobe.stopped,tTriangle_cue.started,tTriangle_cue.stopped,Tfeedback.keys,Tfeedback.corr,Tfeedback.rt,Tfeedback.started,Tfeedback.stopped,reversals_nTrials.routineEndVal,track_dir.routineEndVal,step_up.routineEndVal,Correct,Frequency,Level,Psychopy_Level,Direction,Reversals,Track_dir,Step,probe.started,probe.stopped,cross_cue.started,cross_cue.stopped,circle_cue.started,circle_cue.stopped,triangle_cue.started,triangle_cue.stopped,feedback.keys,feedback.corr,feedback.rt,feedback.started,feedback.stopped,memo.started,memo.stopped,key_resp.keys,key_resp.rt,key_resp.started,key_resp.stopped,text.started,text.stopped,participant,session,skip_training,language (english or french),date,expName,psychopyVersion,frameRate,
1300,0,0,0,3,,,,,,,,,1300,30,right,33.230331959971224,None,33.1710520000197,33.48995960003231,right,1,2.9412421999732032,30.721942999982275,None,,,,,,,,,,,,,,,,,,,,,,,,,,,,,,,,,ddmfvc,001,0,fr,2022-05-05_11h26.04.013,3-AFC_adaptive_staircase_mess,2022.1.1,32.93842359769827,
200,0,1,1,0,,,,,,,,,200,30,left,37.416887559997846,37.63449149997905,None,None,left,1,1.5160633999621496,36.96366260002833,None,,,,,,,,,,,,,,,,,,,,,,,,,,,,,,,,,ddmfvc,001,0,fr,2022-05-05_11h26.04.013,3-AFC_adaptive_staircase_mess,2022.1.1,32.93842359769827,
5000,0,2,2,4,,,,,,,,,5000,30,left,41.97568565998226,None,None,None,left,1,0.9721715000923723,41.5234348999802,None,,,,,,,,,,,,,,,,,,,,,,,,,,,,,,,,,ddmfvc,001,0,fr,2022-05-05_11h26.04.013,3-AFC_adaptive_staircase_mess,2022.1.1,32.93842359769827,
450,0,3,3,1,,,,,,,,,450,30,right,48.61151576002594,48.82692590006627,48.55231830000412,48.8541358000366,right,1,2.821106700110249,46.15407400007825,None,,,,,,,,,,,,,,,,,,,,,,,,,,,,,,,,,ddmfvc,001,0,fr,2022-05-05_11h26.04.013,3-AFC_adaptive_staircase_mess,2022.1.1,32.93842359769827,
850,0,4,4,2,,,,,,,,,850,30,left,52.25295386004727,52.47743269999046,None,None,left,1,1.2702931000385433,51.784155800007284,None,,,,,,,,,,,,,,,,,,,,,,,,,,,,,,,,,ddmfvc,001,0,fr,2022-05-05_11h26.04.013,3-AFC_adaptive_staircase_mess,2022.1.1,32.93842359769827,
,,,,,0,0,0,0,0,0,0,0,,,,,,,,,,,,,[],[],10,left,1000,30,0.0013930605843148849,0,0,-1,10,60.25686316001229,None,60.19803149998188,60.51625680003781,None,None,None,None,left,1,0.4793562999693677,60.256791900028475,None,None,None,,,,,,,ddmfvc,001,0,fr,2022-05-05_11h26.04.013,3-AFC_adaptive_staircase_mess,2022.1.1,32.93842359769827,
,,,,,0,0,0,0,1,0,1,0,,,,,,,,,,,,,,,,right,1000,30,0.0013930605843148849,0,0,-1,10,64.26213756001088,64.4902415999677,62.21136050007772,62.5087583999848,63.20850509998854,63.53422580007464,64.23264920001384,64.54946250002831,right,1,2.3704318000236526,62.26948060002178,None,None,None,,,,,,,ddmfvc,001,0,fr,2022-05-05_11h26.04.013,3-AFC_adaptive_staircase_mess,2022.1.1,32.93842359769827,
,,,,,0,0,0,0,2,0,2,0,,,,,,,,,,,,,,,,left,1000,10,0.00013930605843148847,-1,0,-1,-10,66.2014734600205,66.41918720002286,66.17198510002345,66.47930660005659,None,None,None,None,left,1,0.6320635000010952,66.20084489998408,None,None,None,,,,,,,ddmfvc,001,0,fr,2022-05-05_11h26.04.013,3-AFC_adaptive_staircase_mess,2022.1.1,32.93842359769827,
,,,,,0,0,0,0,3,0,3,0,,,,,,,,,,,,,,,,left,1000,10,0.00013930605843148847,-1,0,-1,-10,68.39488465997856,68.61155799997505,68.3371904999949,68.63804930006154,None,None,None,None,left,1,0.6594844999490306,68.3953729000641,None,None,None,,,,,,,ddmfvc,001,0,fr,2022-05-05_11h26.04.013,3-AFC_adaptive_staircase_mess,2022.1.1,32.93842359769827,
,,,,,0,0,0,0,4,0,4,0,,,,,,,,,,,,,,,,up,1000,0,4.405244365040069e-05,-1,0,-1,-10,71.58506856004242,71.79875040007755,70.53742609999608,70.86208430002443,71.55558020004537,71.8541410000762,None,None,up,1,1.532449100050144,70.59507040004246,None,None,None,,,,,,,ddmfvc,001,0,fr,2022-05-05_11h26.04.013,3-AFC_adaptive_staircase_mess,2022.1.1,32.93842359769827,
,,,,,0,0,0,0,5,0,5,0,,,,,,,,,,,,,,,,right,1000,0,4.405244365040069e-05,-1,0,-1,-10,75.65140326002147,75.87197580002248,73.60217219998594,73.92853669996839,74.60152740008198,74.92268319998402,75.62191490002442,75.92827070003841,right,1,2.3865954999346286,73.65986680006608,None,None,None,,,,,,,ddmfvc,001,0,fr,2022-05-05_11h26.04.013,3-AFC_adaptive_staircase_mess,2022.1.1,32.93842359769827,
,,,,,0,0,0,0,6,0,6,0,,,,,,,,,,,,,,,,up,1000,-10,1.3930605843148848e-05,-1,0,-1,-10,78.60042805999983,78.81925860000774,77.54083850001916,77.86497690004762,78.54124010005035,78.84616559999995,79.54478070000187,79.86661480006296,up,1,5.731932500028051,77.59619660000317,None,80.10081760003231,None,,,,,,,ddmfvc,001,0,fr,2022-05-05_11h26.04.013,3-AFC_adaptive_staircase_mess,2022.1.1,32.93842359769827,
,,,,,0,0,0,0,7,0,7,0,,,,,,,,,,,,,,,,left,1000,-10,1.3930605843148848e-05,-1,0,-1,-10,84.8597319600638,85.08263339998666,84.8019067000132,85.11014090001117,85.80093220004346,86.10722530004568,86.80480340006761,87.1176416000817,left,1,4.482010099920444,84.86251120001543,None,87.35234530002344,None,,,,,,,ddmfvc,001,0,fr,2022-05-05_11h26.04.013,3-AFC_adaptive_staircase_mess,2022.1.1,32.93842359769827,
,,,,,0,0,0,0,8,0,8,0,,,,,,,,,,,,,,,,right,1000,-20,4.405244365040069e-06,-1,0,-1,-10,92.88540876000188,None,90.82037309999578,91.14224690000992,91.83443400007673,92.16115130006801,92.82709170004819,93.13238279998768,up,0,13.280733700026758,90.87815990007948,None,93.39557090005837,None,,,,,,,ddmfvc,001,0,fr,2022-05-05_11h26.04.013,3-AFC_adaptive_staircase_mess,2022.1.1,32.93842359769827,
,,,,,0,0,0,0,9,0,9,0,,,,,,,,,,,,,,,,right,1000,-15,7.833755350540743e-06,1,1,1,5,107.72616956005804,None,105.6616799000185,105.98671560001094,106.67205170006491,106.99486830004025,107.6677333000116,107.97888760000933,right,1,3.2398993000388145,105.71872320002876,None,108.21219640003983,None,,,,,,,ddmfvc,001,0,fr,2022-05-05_11h26.04.013,3-AFC_adaptive_staircase_mess,2022.1.1,32.93842359769827,
,,,,,0,0,0,0,10,0,10,0,,,,,,,,,,,,,,,,left,1000,-15,7.833755350540743e-06,1,1,1,5,110.46567496000789,110.67382650007494,110.40845570003148,110.72954850003589,111.42485349997878,111.72372280003037,112.42153609998059,112.74285240005702,up,0,3.1993671000236645,110.46407760004513,None,112.9790186000755,None,,,,,,,ddmfvc,001,0,fr,2022-05-05_11h26.04.013,3-AFC_adaptive_staircase_mess,2022.1.1,32.93842359769827,
,,,,,0,0,0,0,11,0,11,0,,,,,,,,,,,,,,,,right,1000,-10,1.3930605843148848e-05,1,1,1,5,117.17440516008064,117.38212109997403,115.11243500001729,115.43137760006357,116.12215750000905,116.44802740006708,117.11692469997797,117.43715840007644,left,0,3.0548306999262422,115.16944019997027,None,117.6707467000233,None,,,,,,,ddmfvc,001,0,fr,2022-05-05_11h26.04.013,3-AFC_adaptive_staircase_mess,2022.1.1,32.93842359769827,
,,,,,0,0,0,0,12,0,12,0,,,,,,,,,,,,,,,,left,1000,-5,2.4772509540239506e-05,1,1,1,5,119.75407136005815,119.96329420001712,119.69553949998226,120.01923330000136,None,None,None,None,left,1,0.6446622000075877,119.75489189999644,None,None,None,,,,,,,ddmfvc,001,0,fr,2022-05-05_11h26.04.013,3-AFC_adaptive_staircase_mess,2022.1.1,32.93842359769827,
,,,,,0,0,0,0,13,0,13,0,,,,,,,,,,,,,,,,left,1000,-5,2.4772509540239506e-05,1,1,1,5,121.92703945999965,122.14494380005635,121.85359050007537,122.17370040004607,122.88123549998272,123.17978590005077,123.87323360005394,124.19933069997933,left,1,3.289456400088966,121.9248884000117,None,124.42957350006327,None,,,,,,,ddmfvc,001,0,fr,2022-05-05_11h26.04.013,3-AFC_adaptive_staircase_mess,2022.1.1,32.93842359769827,
,,,,,0,0,0,0,14,0,14,0,,,,,,,,,,,,,,,,up,1000,-15,7.833755350540743e-06,-1,2,-1,-5.0,127.77048436000477,127.99010120006278,126.69681230001152,127.01756589999422,127.71171379997395,128.0171524999896,128.7150748000713,129.04022069997154,left,0,3.0381025999085978,126.75444659998175,None,129.24319100007415,None,,,,,,,ddmfvc,001,0,fr,2022-05-05_11h26.04.013,3-AFC_adaptive_staircase_mess,2022.1.1,32.93842359769827,
,,,,,0,0,0,0,15,0,15,0,,,,,,,,,,,,,,,,up,1000,-12.5,1.0446480654270193e-05,1,3,1,2.5,None,None,131.27703540003859,131.61055650003254,None,None,None,None,left,0,0.708244499983266,131.34013580007013,None,None,None,,,,,,,ddmfvc,001,0,fr,2022-05-05_11h26.04.013,3-AFC_adaptive_staircase_mess,2022.1.1,32.93842359769827,
,,,,,0,0,0,0,16,0,16,0,,,,,,,,,,,,,,,,right,1000,-10.0,1.3930605843148848e-05,1,3,1,2.5,135.58197415999604,135.79768149997108,133.53376600006595,133.85299959999975,134.54164810001384,134.8598158999812,135.5240825000219,135.82445970003027,up,0,2.9705892000347376,133.589165900019,None,136.09484640008304,None,,,,,,,ddmfvc,001,0,fr,2022-05-05_11h26.04.013,3-AFC_adaptive_staircase_mess,2022.1.1,32.93842359769827,
,,,,,0,0,0,0,17,0,17,0,,,,,,,,,,,,,,,,up,1000,-7.5,1.8576761454858622e-05,1,3,1,2.5,139.11785535998644,None,138.06518100004178,138.3862356999889,139.05974499997683,139.36739210004453,140.06199870002456,140.37312020000536,left,0,2.7886319999815896,138.12246820004657,None,140.61435629997868,None,,,,,,,ddmfvc,001,0,fr,2022-05-05_11h26.04.013,3-AFC_adaptive_staircase_mess,2022.1.1,32.93842359769827,
,,,,,0,0,0,0,18,0,18,0,,,,,,,,,,,,,,,,right,1000,-5.0,2.4772509540239506e-05,1,3,1,2.5,144.4636361599667,144.67382240004372,142.39558890007902,142.70856090006419,143.41683200001717,143.7389432999771,144.404578100075,144.72874990000855,up,0,2.3436012000311166,142.4555304000387,None,None,None,,,,,,,ddmfvc,001,0,fr,2022-05-05_11h26.04.013,3-AFC_adaptive_staircase_mess,2022.1.1,32.93842359769827,
,,,,,0,0,0,0,19,0,19,0,,,,,,,,,,,,,,,,right,1000,-2.5,3.303467240037979e-05,1,3,1,2.5,148.33083446004895,148.5447487999918,146.26411940006074,146.59988300001714,147.26643540000077,147.6011959000025,148.26785740000196,148.57594979996793,right,1,2.5956670999294147,146.3315610999707,None,148.8357872000197,None,,,,,,,ddmfvc,001,0,fr,2022-05-05_11h26.04.013,3-AFC_adaptive_staircase_mess,2022.1.1,32.93842359769827,
,,,,,0,0,0,0,20,0,20,0,,,,,,,,,,,,,,,,left,1000,-2.5,3.303467240037979e-05,1,3,1,2.5,150.46559876000975,150.6778886000393,150.40252680005506,150.70879820000846,151.40695289999712,151.73624600004405,152.42241410003044,152.7359113000566,up,0,2.4581189000746235,150.469528799993,None,152.9709219600307,None,,,,,,,ddmfvc,001,0,fr,2022-05-05_11h26.04.013,3-AFC_adaptive_staircase_mess,2022.1.1,32.93842359769827,
,,,,,0,0,0,0,21,0,21,0,,,,,,,,,,,,,,,,left,1000,0.0,4.405244365040069e-05,1,3,1,2.5,154.46166685998907,None,154.432178499992,154.75072890007868,155.41848190000746,155.739759100019,None,None,left,1,1.44334080000408,154.46017520001624,None,None,None,,,,,,,ddmfvc,001,0,fr,2022-05-05_11h26.04.013,3-AFC_adaptive_staircase_mess,2022.1.1,32.93842359769827,
,,,,,0,0,0,0,22,0,22,0,,,,,,,,,,,,,,,,right,1000,0.0,4.405244365040069e-05,1,3,1,2.5,159.44242026000285,None,157.37943500000983,157.7112532000756,158.383897599997,158.71472380007617,159.38419999997132,159.7116868000012,right,1,2.638009099988267,157.4415416000411,None,159.9465659999987,None,,,,,,,ddmfvc,001,0,fr,2022-05-05_11h26.04.013,3-AFC_adaptive_staircase_mess,2022.1.1,32.93842359769827,
,,,,,0,0,0,0,23,0,23,0,,,,,,,,,,,,,,,,left,1000,-5.0,2.4772509540239506e-05,-1,4,-1,-5.0,161.62659276004416,None,161.5971044000471,161.92041430005338,162.5799301000079,162.88908370002173,163.57192080002278,163.87650150002446,up,0,3.3484120999928564,161.62640970002394,None,164.149220900028,None,,,,,,,ddmfvc,001,0,fr,2022-05-05_11h26.04.013,3-AFC_adaptive_staircase_mess,2022.1.1,32.93842359769827,
,,,,,0,0,0,0,24,0,24,0,,,,,,,,,,,,,,,,up,1000,-2.5,3.303467240037979e-05,1,5,1,2.5,167.53745916003828,167.75224890001118,166.46435700007714,166.7852662000805,167.46694700000808,167.77948540006764,168.47273320006207,168.79209280002397,up,1,5.189836299978197,166.52210280008148,None,169.02501219999976,None,,,,,,,ddmfvc,001,0,fr,2022-05-05_11h26.04.013,3-AFC_adaptive_staircase_mess,2022.1.1,32.93842359769827,
,,,,,0,0,0,0,25,0,25,0,,,,,,,,,,,,,,,,left,1000,-2.5,3.303467240037979e-05,1,5,1,2.5,173.25850126002916,None,173.19964060001075,173.49516509997193,174.20092810003553,174.52345790003892,175.2193720000796,175.54446050000843,left,1,3.0310296999523416,173.25680880004074,None,175.7463370000478,None,,,,,,,ddmfvc,001,0,fr,2022-05-05_11h26.04.013,3-AFC_adaptive_staircase_mess,2022.1.1,32.93842359769827,
,,,,,0,0,0,0,26,0,26,0,,,,,,,,,,,,,,,,right,1000,-7.5,1.8576761454858622e-05,-1,6,-1,-5.0,179.80278815999628,180.01954750006553,177.7426283999812,178.06415850005578,178.75704240007326,179.08025730005465,179.7437981000403,180.0360348999966,left,0,4.3110029000090435,177.80128929996863,None,180.3108030000003,None,,,,,,,ddmfvc,001,0,fr,2022-05-05_11h26.04.013,3-AFC_adaptive_staircase_mess,2022.1.1,32.93842359769827,
,,,,,1,0,1,0,0,0,0,0,,,,,,,,,,,,,[],[],10,up,1500,30,0.001527460556607757,0,0,-1,10,196.58035476000515,196.79506100004073,195.52309070003685,195.82754530000966,196.52315929997712,196.8220336000668,197.51725899998564,197.84651830000803,up,1,2.7063308999640867,195.58015360007994,None,198.08206250006333,None,right,11.904843099997379,183.1664407000644,None,183.1664407000644,None,ddmfvc,001,0,fr,2022-05-05_11h26.04.013,3-AFC_adaptive_staircase_mess,2022.1.1,32.93842359769827,
,,,,,1,0,1,0,1,0,1,0,,,,,,,,,,,,,,,,up,1500,30,0.001527460556607757,0,0,-1,10,200.81860346004834,201.03728280006908,199.76887839997653,200.09251260000747,200.76098200003617,201.06275000004098,None,None,up,1,1.4853446000488475,199.82549550000113,None,None,None,,,,,,,ddmfvc,001,0,fr,2022-05-05_11h26.04.013,3-AFC_adaptive_staircase_mess,2022.1.1,32.93842359769827,
,,,,,1,0,1,0,2,0,2,0,,,,,,,,,,,,,,,,up,1500,10,0.0001527460556607757,-1,0,-1,-10,203.84545046004934,204.0668727000011,202.79086850001477,203.11710749997292,203.7851829000283,204.09793950000312,None,None,up,1,1.4817907999968156,202.8534339000471,None,None,None,,,,,,,ddmfvc,001,0,fr,2022-05-05_11h26.04.013,3-AFC_adaptive_staircase_mess,2022.1.1,32.93842359769827,
,,,,,1,0,1,0,3,0,3,0,,,,,,,,,,,,,,,,up,1500,10,0.0001527460556607757,-1,0,-1,-10,206.86454186001794,207.07944770005997,205.81086440000217,206.1335183000192,206.8060370000312,207.1067139999941,None,None,up,1,1.5359447000082582,205.87103210005444,None,None,None,,,,,,,ddmfvc,001,0,fr,2022-05-05_11h26.04.013,3-AFC_adaptive_staircase_mess,2022.1.1,32.93842359769827,
,,,,,1,0,1,0,4,0,4,0,,,,,,,,,,,,,,,,left,1500,0,4.830254394949071e-05,-1,0,-1,-10,208.9625940600643,None,208.90354830003344,209.21801790001336,209.91909089998808,None,None,None,left,1,1.2137891999445856,208.96104299998842,None,None,None,,,,,,,ddmfvc,001,0,fr,2022-05-05_11h26.04.013,3-AFC_adaptive_staircase_mess,2022.1.1,32.93842359769827,
,,,,,1,0,1,0,5,0,5,0,,,,,,,,,,,,,,,,up,1500,0,4.830254394949071e-05,-1,0,-1,-10,212.72008146003355,212.92717639997136,211.65876470005605,211.98569550004322,212.660436199978,212.9832136000041,None,None,up,1,1.5297946000937372,211.71695869998075,None,None,None,,,,,,,ddmfvc,001,0,fr,2022-05-05_11h26.04.013,3-AFC_adaptive_staircase_mess,2022.1.1,32.93842359769827,
,,,,,1,0,1,0,6,0,6,0,,,,,,,,,,,,,,,,up,1500,-10,1.527460556607758e-05,-1,0,-1,-10,215.7407905599801,215.95528910006396,214.70354480005335,215.00762140005827,215.71130219998304,216.00937580002937,216.7126336999936,217.03389399999287,left,0,3.9073115999344736,214.7643985999748,None,217.27005459996872,None,,,,,,,ddmfvc,001,0,fr,2022-05-05_11h26.04.013,3-AFC_adaptive_staircase_mess,2022.1.1,32.93842359769827,
,,,,,1,0,1,0,7,0,7,0,,,,,,,,,,,,,,,,up,1500,-5,2.716251657462168e-05,1,1,1,5,221.20129076002632,221.41651740006637,220.14954470004886,220.47021890000906,221.1428775000386,221.44816580007318,222.1519148000516,222.472896900028,up,1,2.6073052000720054,220.2078835000284,None,222.71319250005763,None,,,,,,,ddmfvc,001,0,fr,2022-05-05_11h26.04.013,3-AFC_adaptive_staircase_mess,2022.1.1,32.93842359769827,
,,,,,1,0,1,0,8,0,8,0,,,,,,,,,,,,,,,,right,1500,-5,2.716251657462168e-05,1,1,1,5,226.36232996005566,226.5771825000411,224.30817470001057,224.63606799999252,225.3071621999843,225.6315142000094,226.3048977999715,226.60438460006844,up,0,9.211714599980041,224.37269800005015,None,226.8720878000604,None,,,,,,,ddmfvc,001,0,fr,2022-05-05_11h26.04.013,3-AFC_adaptive_staircase_mess,2022.1.1,32.93842359769827,
,,,,,1,0,1,0,9,0,9,0,,,,,,,,,,,,,,,,left,1500,0,4.830254394949071e-05,1,1,1,5,235.1164192599943,None,235.05968100007158,235.36476620007306,None,None,None,None,left,1,0.7683413999620825,235.11895859998185,None,None,None,,,,,,,ddmfvc,001,0,fr,2022-05-05_11h26.04.013,3-AFC_adaptive_staircase_mess,2022.1.1,32.93842359769827,
,,,,,1,0,1,0,10,0,10,0,,,,,,,,,,,,,,,,right,1500,0,4.830254394949071e-05,1,1,1,5,239.44050186006353,239.6554817999713,237.39489039999899,237.72094250004739,238.39110060001258,238.70533829997294,239.37975429999642,239.68267950008158,right,1,2.5298023000359535,237.45408749999478,None,239.94709989998955,None,,,,,,,ddmfvc,001,0,fr,2022-05-05_11h26.04.013,3-AFC_adaptive_staircase_mess,2022.1.1,32.93842359769827,
,,,,,1,0,1,0,11,0,11,0,,,,,,,,,,,,,,,,up,1500,-10,1.527460556607758e-05,-1,2,-1,-5.0,242.49874526001514,None,241.45228980004322,241.77741790004075,242.46925690001808,242.7940047000302,243.44846580002923,243.77507740003057,up,1,2.585236100014299,241.51010359998327,None,244.0096120000817,None,,,,,,,ddmfvc,001,0,fr,2022-05-05_11h26.04.013,3-AFC_adaptive_staircase_mess,2022.1.1,32.93842359769827,
,,,,,1,0,1,0,12,0,12,0,,,,,,,,,,,,,,,,right,1500,-10,1.527460556607758e-05,-1,2,-1,-5.0,247.62640155998525,247.84036220004782,245.57021520007402,245.88362690003123,246.5581172000384,246.86042899999302,247.56512909999583,247.8720949999988,left,0,3.1334496999625117,245.63318320002872,None,248.10830379999243,None,,,,,,,ddmfvc,001,0,fr,2022-05-05_11h26.04.013,3-AFC_adaptive_staircase_mess,2022.1.1,32.93842359769827,
,,,,,1,0,1,0,13,0,13,0,,,,,,,,,,,,,,,,left,1500,-7.5,2.036901389020565e-05,1,3,1,2.5,250.30884896004574,None,250.2488927000668,250.56829740002286,251.2559212000342,251.55777120008133,252.24414379999507,252.56373479997274,up,0,4.167837499990128,250.3113532999996,None,252.8032045,None,,,,,,,ddmfvc,001,0,fr,2022-05-05_11h26.04.013,3-AFC_adaptive_staircase_mess,2022.1.1,32.93842359769827,
,,,,,1,0,1,0,14,0,14,0,,,,,,,,,,,,,,,,up,1500,-5.0,2.716251657462168e-05,1,3,1,2.5,257.03401766002645,257.2530641000485,255.98543910006993,256.2879749999847,256.97181220003404,257.2846008000197,257.9683888000436,258.2716596000828,up,1,2.404184399987571,256.0424525999697,None,None,None,,,,,,,ddmfvc,001,0,fr,2022-05-05_11h26.04.013,3-AFC_adaptive_staircase_mess,2022.1.1,32.93842359769827,
,,,,,1,0,1,0,15,0,15,0,,,,,,,,,,,,,,,,right,1500,-5.0,2.716251657462168e-05,1,3,1,2.5,262.0101112600649,None,259.94438930007163,260.2459504000144,260.95420010003727,261.2679703000467,261.94884189998265,262.26495530002285,right,1,2.7417687999550253,260.0093879000051,None,262.50241299998015,None,,,,,,,ddmfvc,001,0,fr,2022-05-05_11h26.04.013,3-AFC_adaptive_staircase_mess,2022.1.1,32.93842359769827,
,,,,,1,0,1,0,16,0,16,0,,,,,,,,,,,,,,,,up,1500,-10.0,1.527460556607758e-05,-1,4,-1,-5.0,265.28098355997355,None,264.2571679999819,264.5882185000228,265.22015010006726,265.5338693000376,266.2415992000606,266.5393993000034,left,0,8.218305899994448,264.2926054999698,None,266.77828019997105,None,,,,,,,ddmfvc,001,0,fr,2022-05-05_11h26.04.013,3-AFC_adaptive_staircase_mess,2022.1.1,32.93842359769827,
,,,,,1,0,1,0,17,0,17,0,,,,,,,,,,,,,,,,left,1500,-7.5,2.036901389020565e-05,1,5,1,2.5,274.06206976000686,274.2716202000156,274.0325814000098,274.35862299997825,274.9986059999792,275.30178650002927,276.02075260004494,276.32734840002377,right,0,3.1153404000215232,274.0672069999855,None,276.5653415999841,None,,,,,,,ddmfvc,001,0,fr,2022-05-05_11h26.04.013,3-AFC_adaptive_staircase_mess,2022.1.1,32.93842359769827,
,,,,,1,0,1,0,18,0,18,0,,,,,,,,,,,,,,,,right,1500,-5.0,2.716251657462168e-05,1,5,1,2.5,280.69923555997667,None,278.67391860007774,278.99459280003794,279.66058839997277,279.9713002999779,280.6697471999796,281.0049272000324,right,1,2.688103099935688,278.70435360004194,None,281.2043185000075,None,,,,,,,ddmfvc,001,0,fr,2022-05-05_11h26.04.013,3-AFC_adaptive_staircase_mess,2022.1.1,32.93842359769827,
,,,,,1,0,1,0,19,0,19,0,,,,,,,,,,,,,,,,right,1500,-5.0,2.716251657462168e-05,1,5,1,2.5,284.9309300600551,None,282.8964272000594,283.19957699999213,283.8917155000381,284.20822460006457,284.8687960000243,285.193508700002,right,1,2.898291099932976,282.9254884000402,None,285.4385008000536,None,,,,,,,ddmfvc,001,0,fr,2022-05-05_11h26.04.013,3-AFC_adaptive_staircase_mess,2022.1.1,32.93842359769827,
,,,,,1,0,1,0,20,0,20,0,,,,,,,,,,,,,,,,left,1500,-10.0,1.527460556607758e-05,-1,6,-1,-5.0,287.368053659983,287.583200699999,287.3057429000037,287.6155326999724,288.3043915000744,288.61002530006226,289.31606380001176,289.64363509998657,left,1,8.211996700032614,287.3713333000196,None,289.8468222999945,None,,,,,,,ddmfvc,001,0,fr,2022-05-05_11h26.04.013,3-AFC_adaptive_staircase_mess,2022.1.1,32.93842359769827,
,,,,,2,0,2,0,0,0,0,0,,,,,,,,,,,,,[],[],10,left,2000,30,0.0023657562948074026,0,0,-1,10,317.5295787599869,317.7481353000039,317.50009039998986,317.81075220007915,None,None,None,None,left,1,0.898899000021629,317.5327419000678,None,None,None,right,20.405281199957244,296.63392619998194,None,296.63392619998194,None,ddmfvc,001,0,fr,2022-05-05_11h26.04.013,3-AFC_adaptive_staircase_mess,2022.1.1,32.93842359769827,
,,,,,2,0,2,0,1,0,1,0,,,,,,,,,,,,,,,,up,2000,30,0.0023657562948074026,0,0,-1,10,320.9656786600361,321.1841812999919,319.92299910006113,320.2236779000377,320.936190300039,321.24937299999874,None,None,up,1,1.3460962999379262,319.9810249999864,None,None,None,,,,,,,ddmfvc,001,0,fr,2022-05-05_11h26.04.013,3-AFC_adaptive_staircase_mess,2022.1.1,32.93842359769827,
,,,,,2,0,2,0,2,0,2,0,,,,,,,,,,,,,,,,left,2000,10,0.00023657562948074026,-1,0,-1,-10,322.86633146002424,None,322.8368431000272,323.148471100023,None,None,None,None,left,1,0.5858009000075981,322.8697885000147,None,None,None,,,,,,,ddmfvc,001,0,fr,2022-05-05_11h26.04.013,3-AFC_adaptive_staircase_mess,2022.1.1,32.93842359769827,
,,,,,2,0,2,0,3,0,3,0,,,,,,,,,,,,,,,,up,2000,10,0.00023657562948074026,-1,0,-1,-10,325.97535246000626,None,324.92710369999986,325.231598900049,325.915618399973,326.24820230004843,None,None,up,1,1.3493355000391603,324.9851915000472,None,None,None,,,,,,,ddmfvc,001,0,fr,2022-05-05_11h26.04.013,3-AFC_adaptive_staircase_mess,2022.1.1,32.93842359769827,
,,,,,2,0,2,0,4,0,4,0,,,,,,,,,,,,,,,,right,2000,0,7.481178280472168e-05,-1,0,-1,-10,329.8864907599753,None,327.8401048000669,328.15526700008195,328.8232214000309,329.146829699981,329.82245360000525,330.1528175000567,right,1,2.430179200018756,327.87329700007103,None,None,None,,,,,,,ddmfvc,001,0,fr,2022-05-05_11h26.04.013,3-AFC_adaptive_staircase_mess,2022.1.1,32.93842359769827,
,,,,,2,0,2,0,5,0,5,0,,,,,,,,,,,,,,,,left,2000,0,7.481178280472168e-05,-1,0,-1,-10,331.84516946000514,None,331.8156811000081,332.1398264999734,None,None,None,None,left,1,0.677482399973087,331.84904970007483,None,None,None,,,,,,,ddmfvc,001,0,fr,2022-05-05_11h26.04.013,3-AFC_adaptive_staircase_mess,2022.1.1,32.93842359769827,
,,,,,2,0,2,0,6,0,6,0,,,,,,,,,,,,,,,,left,2000,-10,2.3657562948074015e-05,-1,0,-1,-10,334.064961960027,None,334.0058630000567,334.32920350006316,335.0213002000237,335.33959580003284,336.01029510004446,336.3328216000227,right,0,2.8457444000523537,334.0654520000098,None,336.55651060002856,None,,,,,,,ddmfvc,001,0,fr,2022-05-05_11h26.04.013,3-AFC_adaptive_staircase_mess,2022.1.1,32.93842359769827,
,,,,,2,0,2,0,7,0,7,0,,,,,,,,,,,,,,,,up,2000,-5,4.206975708225974e-05,1,1,1,5,339.4244776600506,None,338.39720330003183,338.71453960007057,339.39498930005357,339.721016400028,340.3785332000116,340.704446000047,up,1,2.433900299947709,338.42918490001466,None,None,None,,,,,,,ddmfvc,001,0,fr,2022-05-05_11h26.04.013,3-AFC_adaptive_staircase_mess,2022.1.1,32.93842359769827,
,,,,,2,0,2,0,8,0,8,0,,,,,,,,,,,,,,,,left,2000,-5,4.206975708225974e-05,1,1,1,5,342.3972741600126,None,342.36778580001555,342.69391889998224,343.3397366000572,343.67590350005776,344.3740753000602,344.71027270006016,left,1,2.6868170000379905,342.4002964000683,None,344.9121831000084,None,,,,,,,ddmfvc,001,0,fr,2022-05-05_11h26.04.013,3-AFC_adaptive_staircase_mess,2022.1.1,32.93842359769827,
,,,,,2,0,2,0,9,0,9,0,,,,,,,,,,,,,,,,up,2000,-15,1.3303625298994042e-05,-1,2,-1,-5.0,347.64146566002165,347.85758209996857,346.57607599999756,346.9128476000624,347.57611670007464,347.88659050001297,348.5696334000677,348.8760725000175,left,0,3.302105899900198,346.64828030008357,None,349.12322990002576,None,,,,,,,ddmfvc,001,0,fr,2022-05-05_11h26.04.013,3-AFC_adaptive_staircase_mess,2022.1.1,32.93842359769827,
,,,,,2,0,2,0,10,0,10,0,,,,,,,,,,,,,,,,right,2000,-12.5,1.7740669461678767e-05,1,3,1,2.5,353.5082367599942,None,351.4615536000347,351.776521999971,352.4498591000447,352.7682923000539,353.44718530005775,353.7646266000811,left,0,3.301450299913995,351.4973829999799,None,354.0080485000508,None,,,,,,,ddmfvc,001,0,fr,2022-05-05_11h26.04.013,3-AFC_adaptive_staircase_mess,2022.1.1,32.93842359769827,
,,,,,2,0,2,0,11,0,11,0,,,,,,,,,,,,,,,,right,2000,-10.0,2.3657562948074015e-05,1,3,1,2.5,358.32915406005924,358.55531710002106,356.27704710001126,356.58440240006894,357.28634290001355,357.59662329999264,358.2996657000622,358.6219625000376,up,0,3.1652474999427795,356.3374323999742,None,358.83541240007617,None,,,,,,,ddmfvc,001,0,fr,2022-05-05_11h26.04.013,3-AFC_adaptive_staircase_mess,2022.1.1,32.93842359769827,
,,,,,2,0,2,0,12,0,12,0,,,,,,,,,,,,,,,,right,2000,-7.5,3.154786722400965e-05,1,3,1,2.5,363.01119436004666,None,360.95879750000313,361.28565239999443,361.97182900004555,362.2870758000063,362.9817060000496,363.3138154000044,right,1,3.1823915999848396,361.0242149999831,None,363.52929109998513,None,,,,,,,ddmfvc,001,0,fr,2022-05-05_11h26.04.013,3-AFC_adaptive_staircase_mess,2022.1.1,32.93842359769827,
,,,,,2,0,2,0,13,0,13,0,,,,,,,,,,,,,,,,right,2000,-7.5,3.154786722400965e-05,1,3,1,2.5,367.77753135999666,367.99416070000734,365.7095394000644,366.04477939999197,366.7364003000548,367.0473224000307,367.71387179999147,368.02577890001703,up,0,3.0379328000126407,365.77753050008323,None,368.28270290000364,None,,,,,,,ddmfvc,001,0,fr,2022-05-05_11h26.04.013,3-AFC_adaptive_staircase_mess,2022.1.1,32.93842359769827,
,,,,,2,0,2,0,14,0,14,0,,,,,,,,,,,,,,,,left,2000,-5.0,4.206975708225974e-05,1,3,1,2.5,370.35825325998013,None,370.2939996999921,370.6221144000301,371.2969056000002,371.619245900074,372.2810410000384,372.5859619000694,left,1,2.7753673000261188,370.3592715000268,None,372.8474458999699,None,,,,,,,ddmfvc,001,0,fr,2022-05-05_11h26.04.013,3-AFC_adaptive_staircase_mess,2022.1.1,32.93842359769827,
,,,,,2,0,2,0,15,0,15,0,,,,,,,,,,,,,,,,left,2000,-5.0,4.206975708225974e-05,1,3,1,2.5,374.6864914600272,None,374.6224213000387,374.9564168000361,375.64101010002196,375.9550732000498,376.625287199975,376.92373919999227,up,0,2.8934938999591395,374.6903486000374,None,377.1688952000113,None,,,,,,,ddmfvc,001,0,fr,2022-05-05_11h26.04.013,3-AFC_adaptive_staircase_mess,2022.1.1,32.93842359769827,
,,,,,2,0,2,0,16,0,16,0,,,,,,,,,,,,,,,,left,2000,-2.5,5.610092271509818e-05,1,3,1,2.5,379.10267165997067,None,379.0731832999736,379.39862700004596,380.0615946999751,None,None,None,left,1,1.104036399978213,379.1030418999726,None,None,None,,,,,,,ddmfvc,001,0,fr,2022-05-05_11h26.04.013,3-AFC_adaptive_staircase_mess,2022.1.1,32.93842359769827,
,,,,,2,0,2,0,17,0,17,0,,,,,,,,,,,,,,,,left,2000,-2.5,5.610092271509818e-05,1,3,1,2.5,381.75748395996635,381.9745885999873,381.6930009999778,382.0053241000278,382.73169110005256,383.06630910001695,383.70670410001185,384.03423660004046,left,1,2.6673480999888852,381.7640490999911,None,384.26742509996984,None,,,,,,,ddmfvc,001,0,fr,2022-05-05_11h26.04.013,3-AFC_adaptive_staircase_mess,2022.1.1,32.93842359769827,
,,,,,2,0,2,0,18,0,18,0,,,,,,,,,,,,,,,,left,2000,-7.5,3.154786722400965e-05,-1,4,-1,-5.0,385.94357805997134,None,385.9140896999743,386.2440025000833,386.92123710003216,387.2375844999915,387.9039724000031,388.22528090002015,up,0,2.934097599936649,385.94488209998235,None,388.4682418999728,None,,,,,,,ddmfvc,001,0,fr,2022-05-05_11h26.04.013,3-AFC_adaptive_staircase_mess,2022.1.1,32.93842359769827,
,,,,,2,0,2,0,19,0,19,0,,,,,,,,,,,,,,,,up,2000,-5.0,4.206975708225974e-05,1,5,1,2.5,391.40957595997025,None,390.37356079998426,390.6796422000043,391.3800875999732,391.7061822999967,392.380632000044,392.7077845999738,up,1,3.6828842000104487,390.443804700044,None,392.91368440003134,None,,,,,,,ddmfvc,001,0,fr,2022-05-05_11h26.04.013,3-AFC_adaptive_staircase_mess,2022.1.1,32.93842359769827,
,,,,,2,0,2,0,20,0,20,0,,,,,,,,,,,,,,,,right,2000,-5.0,4.206975708225974e-05,1,5,1,2.5,397.6762487600325,397.89554150006734,395.61017410003114,395.94147520000115,396.6112955000717,396.94604820001405,397.61291889997665,397.92547580006067,right,1,2.9454593000700697,395.6776249000104,None,398.1820418999996,None,,,,,,,ddmfvc,001,0,fr,2022-05-05_11h26.04.013,3-AFC_adaptive_staircase_mess,2022.1.1,32.93842359769827,
,,,,,2,0,2,0,21,0,21,0,,,,,,,,,,,,,,,,right,2000,-10.0,2.3657562948074015e-05,-1,6,-1,-5.0,402.182990860031,402.40543699997943,400.1157435000641,400.4504979000194,401.118376599974,401.422926499974,402.12305479997303,402.43103039998095,right,1,2.772994800005108,400.18533540004864,None,402.6670206000563,None,,,,,,,ddmfvc,001,0,fr,2022-05-05_11h26.04.013,3-AFC_adaptive_staircase_mess,2022.1.1,32.93842359769827,
,,,,,3,0,3,0,0,0,0,0,,,,,,,,,,,,,[],[],10,left,3000,30,0.001733684252262658,0,0,-1,10,407.6499383600429,407.8712810999714,407.6204500000458,407.9322672999697,None,None,None,None,left,1,0.8083465999225155,407.6545338999713,None,None,None,right,3.1280938999261707,404.0225728000514,None,404.0225728000514,None,ddmfvc,001,0,fr,2022-05-05_11h26.04.013,3-AFC_adaptive_staircase_mess,2022.1.1,32.93842359769827,
,,,,,3,0,3,0,1,0,1,0,,,,,,,,,,,,,,,,up,3000,30,0.001733684252262658,0,0,-1,10,410.9910554600181,None,409.92902609996963,410.26566989999264,410.9255624000216,411.21292209997773,None,None,up,1,1.3022415000014007,409.9929806999862,None,None,None,,,,,,,ddmfvc,001,0,fr,2022-05-05_11h26.04.013,3-AFC_adaptive_staircase_mess,2022.1.1,32.93842359769827,
,,,,,3,0,3,0,2,0,2,0,,,,,,,,,,,,,,,,right,3000,10,0.00017336842522626576,-1,0,-1,-10,414.8311030599987,None,412.7616493999958,413.0639342999784,413.76337910001166,414.09329430002254,414.7662816999946,415.09699280001223,right,1,2.3051314000040293,412.82961900008377,None,None,None,,,,,,,ddmfvc,001,0,fr,2022-05-05_11h26.04.013,3-AFC_adaptive_staircase_mess,2022.1.1,32.93842359769827,
,,,,,3,0,3,0,3,0,3,0,,,,,,,,,,,,,,,,right,3000,10,0.00017336842522626576,-1,0,-1,-10,418.697676159977,None,416.6317844999721,416.96552980004344,417.6328259999864,417.96777400001884,418.6348147999961,418.9687526000198,right,1,2.516023200005293,416.6989893000573,None,419.2073189000366,None,,,,,,,ddmfvc,001,0,fr,2022-05-05_11h26.04.013,3-AFC_adaptive_staircase_mess,2022.1.1,32.93842359769827,
,,,,,3,0,3,0,4,0,4,0,,,,,,,,,,,,,,,,left,3000,0,5.482390980715923e-05,-1,0,-1,-10,420.7700982599752,None,420.74060989997815,421.0743025999982,421.70995960000437,422.0367736000335,422.73734760005027,423.0443711000262,left,1,4.747161499923095,420.77098879998084,None,423.2787245999789,None,,,,,,,ddmfvc,001,0,fr,2022-05-05_11h26.04.013,3-AFC_adaptive_staircase_mess,2022.1.1,32.93842359769827,
,,,,,3,0,3,0,5,0,5,0,,,,,,,,,,,,,,,,up,3000,0,5.482390980715923e-05,-1,0,-1,-10,428.0781060599955,None,427.01185650005937,427.3440587000223,428.01443189999554,428.34633580001537,429.00907859997824,429.31729620008264,right,0,3.1093842999543995,427.0816789000528,None,429.5838970000623,None,,,,,,,ddmfvc,001,0,fr,2022-05-05_11h26.04.013,3-AFC_adaptive_staircase_mess,2022.1.1,32.93842359769827,
,,,,,3,0,3,0,6,0,6,0,,,,,,,,,,,,,,,,left,3000,5,9.749222998790222e-05,1,1,1,5,431.7577347600134,None,431.6970396999968,432.02196879999246,432.68587676000317,None,None,None,left,1,0.8630351000465453,431.7599105000263,None,None,None,,,,,,,ddmfvc,001,0,fr,2022-05-05_11h26.04.013,3-AFC_adaptive_staircase_mess,2022.1.1,32.93842359769827,
,,,,,3,0,3,0,7,0,7,0,,,,,,,,,,,,,,,,left,3000,5,9.749222998790222e-05,1,1,1,5,434.17997806002387,None,434.1175308000529,434.4474574000342,435.1465465000365,None,None,None,left,1,1.1438638999825343,434.1828315000748,None,None,None,,,,,,,ddmfvc,001,0,fr,2022-05-05_11h26.04.013,3-AFC_adaptive_staircase_mess,2022.1.1,32.93842359769827,
,,,,,3,0,3,0,8,0,8,0,,,,,,,,,,,,,,,,right,3000,-5,3.082975009307411e-05,-1,2,-1,-5.0,438.8524897599826,439.0690906000091,436.7883508000523,437.12131539999973,437.7879176000133,438.11932629998773,438.7893066999968,439.09939019999,left,0,3.1764905999880284,436.8544185999781,None,439.35774050001055,None,,,,,,,ddmfvc,001,0,fr,2022-05-05_11h26.04.013,3-AFC_adaptive_staircase_mess,2022.1.1,32.93842359769827,
,,,,,3,0,3,0,9,0,9,0,,,,,,,,,,,,,,,,left,3000,-2.5,4.1112132497353565e-05,1,3,1,2.5,441.5907877600519,441.81035270006396,441.5262551000342,441.83972589997575,442.5290814000182,442.86412230005953,443.52710070007015,443.8631248000311,left,1,2.8030375000089407,441.5955424000276,None,444.0964169000508,None,,,,,,,ddmfvc,001,0,fr,2022-05-05_11h26.04.013,3-AFC_adaptive_staircase_mess,2022.1.1,32.93842359769827,
,,,,,3,0,3,0,10,0,10,0,,,,,,,,,,,,,,,,left,3000,-2.5,4.1112132497353565e-05,1,3,1,2.5,445.9230096600484,446.14762319996953,445.86060070001986,446.17655159998685,446.8627221999923,447.16545510001015,447.8654052000493,448.19845869997516,left,1,3.0503086000680923,445.9245544000296,None,448.43371240003034,None,,,,,,,ddmfvc,001,0,fr,2022-05-05_11h26.04.013,3-AFC_adaptive_staircase_mess,2022.1.1,32.93842359769827,
,,,,,3,0,3,0,11,0,11,0,,,,,,,,,,,,,,,,right,3000,-7.5,2.3119051069963017e-05,-1,4,-1,-5.0,452.5357422600035,None,450.46831060003024,450.77175850002095,451.47225930006243,451.8003241000697,452.4711312999716,452.806150300079,left,0,2.870300400070846,450.5377615999896,None,453.02661280008033,None,,,,,,,ddmfvc,001,0,fr,2022-05-05_11h26.04.013,3-AFC_adaptive_staircase_mess,2022.1.1,32.93842359769827,
,,,,,3,0,3,0,12,0,12,0,,,,,,,,,,,,,,,,right,3000,-5.0,3.082975009307411e-05,1,5,1,2.5,456.9384681600612,457.1547062000027,454.8711207000306,455.1779257999733,455.87373580003623,456.2084870999679,456.8783297999762,457.1861350000836,left,0,2.836543400073424,454.9387716000201,None,457.42905350006185,None,,,,,,,ddmfvc,001,0,fr,2022-05-05_11h26.04.013,3-AFC_adaptive_staircase_mess,2022.1.1,32.93842359769827,
,,,,,3,0,3,0,13,0,13,0,,,,,,,,,,,,,,,,right,3000,-2.5,4.1112132497353565e-05,1,5,1,2.5,461.3540171599714,None,459.285580500029,459.6164266000269,460.2905415999703,460.61687819997314,461.29002399998717,461.6227808999829,left,0,3.2597916999366134,459.3467264000792,None,461.8547074000817,None,,,,,,,ddmfvc,001,0,fr,2022-05-05_11h26.04.013,3-AFC_adaptive_staircase_mess,2022.1.1,32.93842359769827,
,,,,,3,0,3,0,14,0,14,0,,,,,,,,,,,,,,,,up,3000,0.0,5.482390980715923e-05,1,5,1,2.5,465.14835345996545,465.3655662999954,464.084059100016,464.4204275000375,465.1188650999684,465.4244857999729,466.08324579999316,466.41573640005663,left,0,3.799905200023204,464.15029120002873,None,466.6504968000809,None,,,,,,,ddmfvc,001,0,fr,2022-05-05_11h26.04.013,3-AFC_adaptive_staircase_mess,2022.1.1,32.93842359769827,
,,,,,3,0,3,0,15,0,15,0,,,,,,,,,,,,,,,,right,3000,2.5,7.310885872283589e-05,1,5,1,2.5,None,None,469.42392810003366,469.7580375999678,470.4230788999703,470.72808340005577,None,None,up,0,1.7569349000696093,469.49049580004066,None,None,None,,,,,,,ddmfvc,001,0,fr,2022-05-05_11h26.04.013,3-AFC_adaptive_staircase_mess,2022.1.1,32.93842359769827,
,,,,,3,0,3,0,16,0,16,0,,,,,,,,,,,,,,,,left,3000,5.0,9.749222998790222e-05,1,5,1,2.5,472.78824216006325,473.0039335000329,472.7253897000337,473.0382007000735,None,None,None,None,left,1,0.7418947999831289,472.79300409997813,None,None,None,,,,,,,ddmfvc,001,0,fr,2022-05-05_11h26.04.013,3-AFC_adaptive_staircase_mess,2022.1.1,32.93842359769827,
,,,,,3,0,3,0,17,0,17,0,,,,,,,,,,,,,,,,right,3000,5.0,9.749222998790222e-05,1,5,1,2.5,477.0976424599765,None,475.04924530000426,475.3585104000522,476.0277615999803,476.36186479998287,477.0373778999783,477.3653660999844,right,1,2.5539045999757946,475.0779757000273,None,477.59577700006776,None,,,,,,,ddmfvc,001,0,fr,2022-05-05_11h26.04.013,3-AFC_adaptive_staircase_mess,2022.1.1,32.93842359769827,
,,,,,3,0,3,0,18,0,18,0,,,,,,,,,,,,,,,,up,3000,0.0,5.482390980715923e-05,-1,6,-1,-5.0,480.1997122599976,480.42023350007366,479.1351723000407,479.46438849996775,480.1359664000338,480.44719590002205,481.13941559998784,481.46868320007343,up,1,3.759721099981107,479.2002131000627,None,481.70540690002963,None,,,,,,,ddmfvc,001,0,fr,2022-05-05_11h26.04.013,3-AFC_adaptive_staircase_mess,2022.1.1,32.93842359769827,
,,,,,4,0,4,0,0,0,0,0,,,,,,,,,,,,,[],[],10,left,4000,30,0.0026544222211549416,0,0,-1,10,491.3831821600441,None,491.3222294000443,491.6482421000255,None,None,None,None,left,1,0.5020597000839189,491.3849072000012,None,None,None,right,6.842325800098479,484.0375648000045,None,484.0375648000045,None,ddmfvc,001,0,fr,2022-05-05_11h26.04.013,3-AFC_adaptive_staircase_mess,2022.1.1,32.93842359769827,
,,,,,4,0,4,0,1,0,1,0,,,,,,,,,,,,,,,,right,4000,30,0.0026544222211549416,0,0,-1,10,495.44344405999874,495.66082129999995,493.40768609999213,493.71443410008214,494.3825774000725,494.71462710003834,495.3802785000298,495.69358020008076,right,1,2.28614799992647,493.44038599997293,None,None,None,,,,,,,ddmfvc,001,0,fr,2022-05-05_11h26.04.013,3-AFC_adaptive_staircase_mess,2022.1.1,32.93842359769827,
,,,,,4,0,4,0,2,0,2,0,,,,,,,,,,,,,,,,left,4000,10,0.00026544222211549425,-1,0,-1,-10,497.27767396003475,497.49494020000566,497.2132903999882,497.5264687000308,None,None,None,None,left,1,0.5237669999478385,497.28335510008037,None,None,None,,,,,,,ddmfvc,001,0,fr,2022-05-05_11h26.04.013,3-AFC_adaptive_staircase_mess,2022.1.1,32.93842359769827,
,,,,,4,0,4,0,3,0,3,0,,,,,,,,,,,,,,,,up,4000,10,0.00026544222211549425,-1,0,-1,-10,500.3605521600228,None,499.2955106999725,499.62163700000383,500.29869630001485,500.62172519997694,None,None,up,1,1.331159200053662,499.35592740005814,None,None,None,,,,,,,ddmfvc,001,0,fr,2022-05-05_11h26.04.013,3-AFC_adaptive_staircase_mess,2022.1.1,32.93842359769827,
,,,,,4,0,4,0,4,0,4,0,,,,,,,,,,,,,,,,up,4000,0,8.394020090612804e-05,-1,0,-1,-10,503.2399763600668,503.46741460007615,502.2123545000795,502.52332300005946,503.21048800006974,503.53011689998675,None,None,up,1,1.3844241000479087,502.24654560000636,None,None,None,,,,,,,ddmfvc,001,0,fr,2022-05-05_11h26.04.013,3-AFC_adaptive_staircase_mess,2022.1.1,32.93842359769827,
,,,,,4,0,4,0,5,0,5,0,,,,,,,,,,,,,,,,right,4000,0,8.394020090612804e-05,-1,0,-1,-10,507.18831196003595,507.4053751999745,505.1240961999865,505.4604436000809,506.12438429996837,506.42636330006644,507.12557530007325,507.43639230006374,right,1,2.3916449999669567,505.1919537000358,None,None,None,,,,,,,ddmfvc,001,0,fr,2022-05-05_11h26.04.013,3-AFC_adaptive_staircase_mess,2022.1.1,32.93842359769827,
,,,,,4,0,4,0,6,0,6,0,,,,,,,,,,,,,,,,up,4000,-10,2.6544222211549425e-05,-1,0,-1,-10,510.1299320599763,510.3503389999969,509.0643108000513,509.3971512999851,510.06549950002227,510.36767150007654,511.07169959996827,511.3894041000167,left,0,3.4587114000460133,509.13136220001616,None,511.6122347000055,None,,,,,,,ddmfvc,001,0,fr,2022-05-05_11h26.04.013,3-AFC_adaptive_staircase_mess,2022.1.1,32.93842359769827,
,,,,,4,0,4,0,7,0,7,0,,,,,,,,,,,,,,,,left,4000,-5,4.720304381429618e-05,1,1,1,5,514.1325351600069,514.3593419999816,514.0749165000161,514.3917393999873,515.0773217000533,515.404340500012,516.0703415999888,516.4053225000389,left,1,2.602655200054869,514.1320314999903,None,516.6428453000262,None,,,,,,,ddmfvc,001,0,fr,2022-05-05_11h26.04.013,3-AFC_adaptive_staircase_mess,2022.1.1,32.93842359769827,
,,,,,4,0,4,0,8,0,8,0,,,,,,,,,,,,,,,,up,4000,-5,4.720304381429618e-05,1,1,1,5,519.2668748599942,519.4911863000598,518.2078307999764,518.5114151000744,519.2373864999972,519.5494883999927,None,None,up,1,1.4989240999566391,518.2757843000581,None,None,None,,,,,,,ddmfvc,001,0,fr,2022-05-05_11h26.04.013,3-AFC_adaptive_staircase_mess,2022.1.1,32.93842359769827,
,,,,,4,0,4,0,9,0,9,0,,,,,,,,,,,,,,,,right,4000,-15,1.4926913094589802e-05,-1,2,-1,-5.0,523.3517551599768,None,521.2842962000286,521.6133216000162,522.2865868000081,522.6105028999737,523.286660999991,523.614541899995,right,1,2.8083058999618515,521.3508863999741,None,523.8298868000275,None,,,,,,,ddmfvc,001,0,fr,2022-05-05_11h26.04.013,3-AFC_adaptive_staircase_mess,2022.1.1,32.93842359769827,
,,,,,4,0,4,0,10,0,10,0,,,,,,,,,,,,,,,,up,4000,-15,1.4926913094589802e-05,-1,2,-1,-5.0,526.7111602599732,526.9285392999882,525.6443996999878,525.9813780999975,526.6474458000157,526.9557800000766,527.6462424000492,527.9482768999878,right,0,2.7832476999610662,525.7116822000826,None,528.2171185000334,None,,,,,,,ddmfvc,001,0,fr,2022-05-05_11h26.04.013,3-AFC_adaptive_staircase_mess,2022.1.1,32.93842359769827,
,,,,,4,0,4,0,11,0,11,0,,,,,,,,,,,,,,,,up,4000,-12.5,1.9905358527674868e-05,1,3,1,2.5,531.0552631599828,531.2759005000116,529.997542600031,530.3186792000197,530.9913477000082,531.3052697000094,531.9894490999868,532.2969941999763,left,0,2.9326616999460384,530.0586421000771,None,532.5587168000638,None,,,,,,,ddmfvc,001,0,fr,2022-05-05_11h26.04.013,3-AFC_adaptive_staircase_mess,2022.1.1,32.93842359769827,
,,,,,4,0,4,0,12,0,12,0,,,,,,,,,,,,,,,,up,4000,-10.0,2.6544222211549425e-05,1,3,1,2.5,535.5439556600293,535.7662781999679,534.4896078000311,534.8235935000703,535.5144673000323,535.8290555999847,536.4914479000727,536.8264622000279,left,0,2.883055799989961,534.5563215999864,None,537.0608110000612,None,,,,,,,ddmfvc,001,0,fr,2022-05-05_11h26.04.013,3-AFC_adaptive_staircase_mess,2022.1.1,32.93842359769827,
,,,,,4,0,4,0,13,0,13,0,,,,,,,,,,,,,,,,left,4000,-7.5,3.53972892192069e-05,1,3,1,2.5,538.9882642600685,539.2037420000415,538.9254954999778,539.2362383999862,None,None,None,None,left,1,0.7506740000098944,538.9925242000027,None,None,None,,,,,,,ddmfvc,001,0,fr,2022-05-05_11h26.04.013,3-AFC_adaptive_staircase_mess,2022.1.1,32.93842359769827,
,,,,,4,0,4,0,14,0,14,0,,,,,,,,,,,,,,,,right,4000,-7.5,3.53972892192069e-05,1,3,1,2.5,543.305408660043,None,541.234080699971,541.5664414999774,542.2386174000567,542.5651343000354,543.2348090000451,543.5660148999887,left,0,3.015357199939899,541.3038756999886,None,543.8054392000195,None,,,,,,,ddmfvc,001,0,fr,2022-05-05_11h26.04.013,3-AFC_adaptive_staircase_mess,2022.1.1,32.93842359769827,
,,,,,4,0,4,0,15,0,15,0,,,,,,,,,,,,,,,,up,4000,-5.0,4.720304381429618e-05,1,3,1,2.5,546.8661939600249,None,545.8238290000008,546.1381547000492,546.8031520000659,547.1352813000558,None,None,up,1,1.5547826000256464,545.8521130000008,None,None,None,,,,,,,ddmfvc,001,0,fr,2022-05-05_11h26.04.013,3-AFC_adaptive_staircase_mess,2022.1.1,32.93842359769827,
,,,,,4,0,4,0,16,0,16,0,,,,,,,,,,,,,,,,left,4000,-5.0,4.720304381429618e-05,1,3,1,2.5,548.963447960047,549.180501600029,548.9009977000533,549.2123082000762,549.9026885000058,550.2066588000162,550.9030267000198,551.2082819000352,left,1,2.598989099962637,548.9678243000526,None,551.4790228999918,None,,,,,,,ddmfvc,001,0,fr,2022-05-05_11h26.04.013,3-AFC_adaptive_staircase_mess,2022.1.1,32.93842359769827,
,,,,,4,0,4,0,17,0,17,0,,,,,,,,,,,,,,,,right,4000,-10.0,2.6544222211549425e-05,-1,4,-1,-5.0,555.1072816600324,None,553.0448098999914,553.352779100067,554.0474016000517,554.3526452999795,555.0496984000783,555.361988699995,up,0,3.109034699969925,553.1142035999801,None,555.615121699986,None,,,,,,,ddmfvc,001,0,fr,2022-05-05_11h26.04.013,3-AFC_adaptive_staircase_mess,2022.1.1,32.93842359769827,
,,,,,4,0,4,0,18,0,18,0,,,,,,,,,,,,,,,,up,4000,-7.5,3.53972892192069e-05,1,5,1,2.5,558.774781560013,558.9889289999846,557.7434296000283,558.0472495000577,558.745293200016,559.0530387000181,559.7157284000423,560.0493754000636,up,1,2.7012656000442803,557.7770593999885,None,560.2852146000369,None,,,,,,,ddmfvc,001,0,fr,2022-05-05_11h26.04.013,3-AFC_adaptive_staircase_mess,2022.1.1,32.93842359769827,
,,,,,4,0,4,0,19,0,19,0,,,,,,,,,,,,,,,,right,4000,-7.5,3.53972892192069e-05,1,5,1,2.5,564.0205877599772,564.236243500025,561.9503406999866,562.2859840000747,562.9518304000376,563.2626718999818,563.9565170999849,564.2745348999742,right,1,2.573362600058317,562.0167882000096,None,564.5238243000349,None,,,,,,,ddmfvc,001,0,fr,2022-05-05_11h26.04.013,3-AFC_adaptive_staircase_mess,2022.1.1,32.93842359769827,
,,,,,4,0,4,0,20,0,20,0,,,,,,,,,,,,,,,,right,4000,-12.5,1.9905358527674868e-05,-1,6,-1,-5.0,568.1588975600432,None,566.1148871000623,566.4210380000295,567.0880532000447,567.4147844000254,568.0952513000229,568.4247761999723,left,0,2.922917600022629,566.1485541000729,None,568.6597823000047,None,,,,,,,ddmfvc,001,0,fr,2022-05-05_11h26.04.013,3-AFC_adaptive_staircase_mess,2022.1.1,32.93842359769827,
,,,,,5,0,5,0,0,0,0,0,,,,,,,,,,,,,[],[],10,right,6000,30,0.003664122665694519,0,0,-1,10,580.0643906599842,580.2761154000182,578.0099320000736,578.3367636000039,579.0302719000028,579.3353582000127,580.0010553000029,580.3103691000724,right,1,2.470204700017348,578.0733607000438,None,580.5697608999908,None,right,7.373652399983257,570.160672100028,None,570.160672100028,None,ddmfvc,001,0,fr,2022-05-05_11h26.04.013,3-AFC_adaptive_staircase_mess,2022.1.1,32.93842359769827,
,,,,,5,0,5,0,1,0,1,0,,,,,,,,,,,,,,,,up,6000,30,0.003664122665694519,0,0,-1,10,583.1095884600188,None,582.0662398000713,582.372186099994,583.0491523999954,583.3765583999921,None,None,up,1,1.6265409999759868,582.0999176000478,None,None,None,,,,,,,ddmfvc,001,0,fr,2022-05-05_11h26.04.013,3-AFC_adaptive_staircase_mess,2022.1.1,32.93842359769827,
,,,,,5,0,5,0,2,0,2,0,,,,,,,,,,,,,,,,left,6000,10,0.00036641226656945183,-1,0,-1,-10,585.2769213600084,None,585.2474330000114,585.5745146999834,None,None,None,None,left,1,0.5856145001016557,585.2850051000714,None,None,None,,,,,,,ddmfvc,001,0,fr,2022-05-05_11h26.04.013,3-AFC_adaptive_staircase_mess,2022.1.1,32.93842359769827,
,,,,,5,0,5,0,3,0,3,0,,,,,,,,,,,,,,,,up,6000,10,0.00036641226656945183,-1,0,-1,-10,588.411694560037,588.6201845000032,587.3524137000786,587.6813245000085,588.3479140000418,588.6537483000429,None,None,up,1,1.306804799940437,587.4129552000668,None,None,None,,,,,,,ddmfvc,001,0,fr,2022-05-05_11h26.04.013,3-AFC_adaptive_staircase_mess,2022.1.1,32.93842359769827,
,,,,,5,0,5,0,4,0,4,0,,,,,,,,,,,,,,,,up,6000,0,0.00011586973249842387,-1,0,-1,-10,591.264142760029,None,590.2396167999832,590.5431134999963,591.234654400032,591.5509885000065,None,None,up,1,1.389648100011982,590.2728723000037,None,None,None,,,,,,,ddmfvc,001,0,fr,2022-05-05_11h26.04.013,3-AFC_adaptive_staircase_mess,2022.1.1,32.93842359769827,
,,,,,5,0,5,0,5,0,5,0,,,,,,,,,,,,,,,,left,6000,0,0.00011586973249842387,-1,0,-1,-10,593.2092534600058,None,593.1459018000169,593.4552049000049,None,None,None,None,left,1,0.5769781999988481,593.2140710999956,None,None,None,,,,,,,ddmfvc,001,0,fr,2022-05-05_11h26.04.013,3-AFC_adaptive_staircase_mess,2022.1.1,32.93842359769827,
,,,,,5,0,5,0,6,0,6,0,,,,,,,,,,,,,,,,up,6000,-10,3.664122665694518e-05,-1,0,-1,-10,596.3600259599741,None,595.2921067000134,595.624081099988,596.2913154000416,596.6206643000478,597.3021464999765,597.6141785000218,right,0,4.195500400033779,595.354874300072,None,597.8490561000071,None,,,,,,,ddmfvc,001,0,fr,2022-05-05_11h26.04.013,3-AFC_adaptive_staircase_mess,2022.1.1,32.93842359769827,
,,,,,5,0,5,0,7,0,7,0,,,,,,,,,,,,,,,,right,6000,-5,6.515833892261494e-05,1,1,1,5,603.064708760078,None,601.0224332000362,601.3520967999939,602.0444562999764,602.3612706999993,603.035220400081,603.3607409000397,right,1,2.6284231001045555,601.0824198999908,None,603.5872877000365,None,,,,,,,ddmfvc,001,0,fr,2022-05-05_11h26.04.013,3-AFC_adaptive_staircase_mess,2022.1.1,32.93842359769827,
,,,,,5,0,5,0,8,0,8,0,,,,,,,,,,,,,,,,right,6000,-5,6.515833892261494e-05,1,1,1,5,607.2558716600295,607.4716343000764,605.2230380000547,605.532074399991,606.2016142000211,606.5300600000191,607.1933061999734,607.5059664000291,right,1,2.5608611999778077,605.2621955000795,None,607.7459044000134,None,,,,,,,ddmfvc,001,0,fr,2022-05-05_11h26.04.013,3-AFC_adaptive_staircase_mess,2022.1.1,32.93842359769827,
,,,,,5,0,5,0,9,0,9,0,,,,,,,,,,,,,,,,up,6000,-15,2.0604875954866497e-05,-1,2,-1,-5.0,610.3566164599731,610.5741321999812,609.2914110000711,609.598757800064,610.2959625000367,610.607513600029,611.3009074999718,611.6288714000257,up,1,3.0262078000232577,609.3568262000335,None,611.8576443999773,None,,,,,,,ddmfvc,001,0,fr,2022-05-05_11h26.04.013,3-AFC_adaptive_staircase_mess,2022.1.1,32.93842359769827,
,,,,,5,0,5,0,10,0,10,0,,,,,,,,,,,,,,,,right,6000,-15,2.0604875954866497e-05,-1,2,-1,-5.0,615.9394420600263,616.1605373000493,613.8797546999995,614.1878761000698,614.8758522999706,615.2083879000274,615.8803420000477,616.1906851000385,right,1,3.0021021000575274,613.9402285000542,None,616.4405385999708,None,,,,,,,ddmfvc,001,0,fr,2022-05-05_11h26.04.013,3-AFC_adaptive_staircase_mess,2022.1.1,32.93842359769827,
,,,,,5,0,5,0,11,0,11,0,,,,,,,,,,,,,,,,left,6000,-20.0,1.1586973249842387e-05,-1,2,-1,-5.0,618.4804791600443,None,618.42066110007,618.7370841000229,619.4422309000511,619.7518281000666,620.4308578000637,620.7375085999956,up,0,2.7151014999253675,618.483406500076,None,620.9735823000083,None,,,,,,,ddmfvc,001,0,fr,2022-05-05_11h26.04.013,3-AFC_adaptive_staircase_mess,2022.1.1,32.93842359769827,
,,,,,5,0,5,0,12,0,12,0,,,,,,,,,,,,,,,,left,6000,-17.5,1.5451477162567947e-05,1,3,1,2.5,622.7177771600661,None,622.6882888000691,622.9992914000759,623.6703372000484,623.9790484000696,624.6747474999866,624.979259600048,left,1,8.56131879996974,622.7172014000826,None,625.2222065000096,None,,,,,,,ddmfvc,001,0,fr,2022-05-05_11h26.04.013,3-AFC_adaptive_staircase_mess,2022.1.1,32.93842359769827,
,,,,,5,0,5,0,13,0,13,0,,,,,,,,,,,,,,,,up,6000,-17.5,1.5451477162567947e-05,1,3,1,2.5,633.8166126600233,634.0363893000176,632.749991800054,633.0541343999794,633.7569210000802,634.066928800079,634.7666726000607,635.099893799983,up,1,3.6996997999958694,632.8112789000152,None,635.3203115999931,None,,,,,,,ddmfvc,001,0,fr,2022-05-05_11h26.04.013,3-AFC_adaptive_staircase_mess,2022.1.1,32.93842359769827,
,,,,,5,0,5,0,14,0,14,0,,,,,,,,,,,,,,,,up,6000,-22.5,8.689004143746873e-06,-1,4,-1,-5.0,639.069430460059,None,638.0052713999758,638.30289000005,639.00952219998,639.3359201999847,640.0128040000563,640.3239139000652,left,0,2.8640396000118926,638.0627406999702,None,640.5702288000612,None,,,,,,,ddmfvc,001,0,fr,2022-05-05_11h26.04.013,3-AFC_adaptive_staircase_mess,2022.1.1,32.93842359769827,
,,,,,5,0,5,0,15,0,15,0,,,,,,,,,,,,,,,,up,6000,-20.0,1.1586973249842387e-05,1,5,1,2.5,643.4574249600525,None,642.4154239000054,642.7274521000218,643.3966986000305,643.7182405000785,644.39945789997,644.7116758000338,left,0,3.584827500046231,642.4451299000066,None,644.9601273000007,None,,,,,,,ddmfvc,001,0,fr,2022-05-05_11h26.04.013,3-AFC_adaptive_staircase_mess,2022.1.1,32.93842359769827,
,,,,,5,0,5,0,16,0,16,0,,,,,,,,,,,,,,,,right,6000,-17.5,1.5451477162567947e-05,1,5,1,2.5,649.5804290599888,None,647.5299815000035,647.8400081000291,648.5332749000518,648.8572182999924,649.5201508000027,649.8454841000494,left,0,3.046678700018674,647.5592832000693,None,650.0605453000171,None,,,,,,,ddmfvc,001,0,fr,2022-05-05_11h26.04.013,3-AFC_adaptive_staircase_mess,2022.1.1,32.93842359769827,
,,,,,5,0,5,0,17,0,17,0,,,,,,,,,,,,,,,,left,6000,-15.0,2.0604875954866497e-05,1,5,1,2.5,652.1236410600366,None,652.0941527000396,652.4093363999855,653.080921899993,653.396671500057,654.0868632000638,654.4071528000059,left,1,2.8970017000101507,652.1255881000543,None,654.6339462000178,None,,,,,,,ddmfvc,001,0,fr,2022-05-05_11h26.04.013,3-AFC_adaptive_staircase_mess,2022.1.1,32.93842359769827,
,,,,,5,0,5,0,18,0,18,0,,,,,,,,,,,,,,,,up,6000,-15.0,2.0604875954866497e-05,1,5,1,2.5,657.5446869600098,657.7700063000666,656.4913172000088,656.8032059000107,657.484000400058,657.7981951000402,658.4904358000495,658.8000203999691,left,0,2.693504099966958,656.5213936000364,None,659.038931200048,None,,,,,,,ddmfvc,001,0,fr,2022-05-05_11h26.04.013,3-AFC_adaptive_staircase_mess,2022.1.1,32.93842359769827,
,,,,,5,0,5,0,19,0,19,0,,,,,,,,,,,,,,,,left,6000,-12.5,2.7477043692881217e-05,1,5,1,2.5,660.7581209600437,660.9779276000336,660.7286326000467,661.0402878000168,661.7067633999977,662.0247109000338,662.7094217999838,663.0202006000327,up,0,2.393164200009778,660.7589225000702,None,None,None,,,,,,,ddmfvc,001,0,fr,2022-05-05_11h26.04.013,3-AFC_adaptive_staircase_mess,2022.1.1,32.93842359769827,
,,,,,5,0,5,0,20,0,20,0,,,,,,,,,,,,,,,,right,6000,-10.0,3.664122665694518e-05,1,5,1,2.5,666.7113404600648,None,664.6453486999962,664.9818037999794,665.6509772000136,665.9642370999791,666.646481600008,666.9766897000372,right,1,3.0267106000101194,664.6997483000159,None,667.2167767999927,None,,,,,,,ddmfvc,001,0,fr,2022-05-05_11h26.04.013,3-AFC_adaptive_staircase_mess,2022.1.1,32.93842359769827,
,,,,,5,0,5,0,21,0,21,0,,,,,,,,,,,,,,,,right,6000,-10.0,3.664122665694518e-05,1,5,1,2.5,671.2483825600473,None,669.2140879000071,669.5492413999746,670.2111950999824,670.5140792999882,671.2188942000503,671.5524451000383,up,0,2.7318209999939427,669.2823348999955,None,671.7543735000072,None,,,,,,,ddmfvc,001,0,fr,2022-05-05_11h26.04.013,3-AFC_adaptive_staircase_mess,2022.1.1,32.93842359769827,
,,,,,5,0,5,0,22,0,22,0,,,,,,,,,,,,,,,,up,6000,-7.5,4.886186104779051e-05,1,5,1,2.5,674.5527347600553,674.772822799976,673.492734999978,673.8190483000362,674.4886943000602,674.8059311000397,None,None,up,1,1.6773573000682518,673.5537281000288,None,None,None,,,,,,,ddmfvc,001,0,fr,2022-05-05_11h26.04.013,3-AFC_adaptive_staircase_mess,2022.1.1,32.93842359769827,
,,,,,5,0,5,0,23,0,23,0,,,,,,,,,,,,,,,,up,6000,-7.5,4.886186104779051e-05,1,5,1,2.5,677.7697492599953,None,676.7591855999781,677.0907150000567,677.7402608999982,678.0653089999687,None,None,up,1,1.636838800041005,676.7775474999798,None,None,None,,,,,,,ddmfvc,001,0,fr,2022-05-05_11h26.04.013,3-AFC_adaptive_staircase_mess,2022.1.1,32.93842359769827,
,,,,,5,0,5,0,24,0,24,0,,,,,,,,,,,,,,,,left,6000,-12.5,2.7477043692881217e-05,-1,6,-1,-5.0,679.9557458600727,680.1691830999916,679.8924302000087,680.2000200999901,680.8961905000033,681.2245575999841,681.8956149000442,682.2317755999975,up,0,2.7441622000187635,679.9598936999682,None,682.4640200000722,None,,,,,,,ddmfvc,001,0,fr,2022-05-05_11h26.04.013,3-AFC_adaptive_staircase_mess,2022.1.1,32.93842359769827,
,,,,,6,0,6,0,0,0,0,0,,,,,,,,,,,,,[],[],10,up,8000,30,0.005740768107484416,0,0,-1,10,688.2356794600607,None,687.2021576999687,687.5352049000794,688.2061911000637,688.5106435000198,None,None,up,1,1.3694453000789508,687.2372253000503,None,None,None,right,2.934606699971482,683.7994352000533,None,683.7994352000533,None,ddmfvc,001,0,fr,2022-05-05_11h26.04.013,3-AFC_adaptive_staircase_mess,2022.1.1,32.93842359769827,
,,,,,6,0,6,0,1,0,1,0,,,,,,,,,,,,,,,,left,8000,30,0.005740768107484416,0,0,-1,10,690.1738318600226,None,690.1154713999713,690.4365392000182,None,None,None,None,left,1,0.7353066999930888,690.175364100025,None,None,None,,,,,,,ddmfvc,001,0,fr,2022-05-05_11h26.04.013,3-AFC_adaptive_staircase_mess,2022.1.1,32.93842359769827,
,,,,,6,0,6,0,2,0,2,0,,,,,,,,,,,,,,,,left,8000,10,0.0005740768107484417,-1,0,-1,-10,692.4701278600376,692.6888680000557,692.4406395000406,692.7499255000148,None,None,None,None,left,1,0.40443520003464073,692.4742309000576,None,None,None,,,,,,,ddmfvc,001,0,fr,2022-05-05_11h26.04.013,3-AFC_adaptive_staircase_mess,2022.1.1,32.93842359769827,
,,,,,6,0,6,0,3,0,3,0,,,,,,,,,,,,,,,,up,8000,10,0.0005740768107484417,-1,0,-1,-10,695.4393441599793,695.6582901000511,694.3738038999727,694.677220200072,695.3758872000035,695.6886263000779,None,None,up,1,1.412485699984245,694.4418789000483,None,None,None,,,,,,,ddmfvc,001,0,fr,2022-05-05_11h26.04.013,3-AFC_adaptive_staircase_mess,2022.1.1,32.93842359769827,
,,,,,6,0,6,0,4,0,4,0,,,,,,,,,,,,,,,,up,8000,0,0.0001815390273850507,-1,0,-1,-10,698.4110807600198,698.6270928999875,697.3487730000634,697.6770783000393,698.3456316000083,698.6543150000507,None,None,up,1,1.4489943999797106,697.4131647000322,None,None,None,,,,,,,ddmfvc,001,0,fr,2022-05-05_11h26.04.013,3-AFC_adaptive_staircase_mess,2022.1.1,32.93842359769827,
,,,,,6,0,6,0,5,0,5,0,,,,,,,,,,,,,,,,up,8000,0,0.0001815390273850507,-1,0,-1,-10,701.4033350600628,None,700.3486840999685,700.682976000011,701.3738467000658,701.6913506999845,None,None,up,1,1.2783329000230879,700.4156717000296,None,None,None,,,,,,,ddmfvc,001,0,fr,2022-05-05_11h26.04.013,3-AFC_adaptive_staircase_mess,2022.1.1,32.93842359769827,
,,,,,6,0,6,0,6,0,6,0,,,,,,,,,,,,,,,,right,8000,-10,5.740768107484415e-05,-1,0,-1,-10,705.2501989600248,705.4700866000494,703.1833966000704,703.4874045000179,704.185806500027,704.5198518000543,705.1865680000046,705.5005385000259,right,1,2.3460314999101683,703.2525527999969,None,None,None,,,,,,,ddmfvc,001,0,fr,2022-05-05_11h26.04.013,3-AFC_adaptive_staircase_mess,2022.1.1,32.93842359769827,
,,,,,6,0,6,0,7,0,7,0,,,,,,,,,,,,,,,,right,8000,-10,5.740768107484415e-05,-1,0,-1,-10,709.1580335599836,None,707.1022392000305,707.4223095000489,708.0857844999991,708.3967300000368,709.0950463999761,709.4247405000497,right,1,2.38554909999948,707.1327188999858,None,None,None,,,,,,,ddmfvc,001,0,fr,2022-05-05_11h26.04.013,3-AFC_adaptive_staircase_mess,2022.1.1,32.93842359769827,
,,,,,6,0,6,0,8,0,8,0,,,,,,,,,,,,,,,,right,8000,-20,1.815390273850507e-05,-1,0,-1,-10,713.0596991600003,None,711.0146808000281,711.3204989000224,711.9932532000821,712.3306366000324,712.9960490000667,713.3308670000406,left,0,3.132240300066769,711.0425080000423,None,713.5625730999745,None,,,,,,,ddmfvc,001,0,fr,2022-05-05_11h26.04.013,3-AFC_adaptive_staircase_mess,2022.1.1,32.93842359769827,
,,,,,6,0,6,0,9,0,9,0,,,,,,,,,,,,,,,,up,8000,-15,3.228271145173278e-05,1,1,1,5,716.7278094599721,716.9489325999748,715.6601204000181,715.9922932999907,716.6652949000709,716.9801736000227,717.6657266999828,718.0003650999861,right,0,2.53828620002605,715.7177429000149,None,718.2354715000838,None,,,,,,,ddmfvc,001,0,fr,2022-05-05_11h26.04.013,3-AFC_adaptive_staircase_mess,2022.1.1,32.93842359769827,
,,,,,6,0,6,0,10,0,10,0,,,,,,,,,,,,,,,,up,8000,-10,5.740768107484415e-05,1,1,1,5,720.8026974600041,None,719.738518099999,720.0705300000263,720.7387852000538,721.0712556000799,None,None,up,1,1.5104285000124946,719.8009037000593,None,None,None,,,,,,,ddmfvc,001,0,fr,2022-05-05_11h26.04.013,3-AFC_adaptive_staircase_mess,2022.1.1,32.93842359769827,
,,,,,6,0,6,0,11,0,11,0,,,,,,,,,,,,,,,,up,8000,-10,5.740768107484415e-05,1,1,1,5,723.8753428600728,None,722.8119924999774,723.1406857999973,723.817011600011,724.1405842000386,None,None,up,1,1.4291212999960408,722.8736318000592,None,None,None,,,,,,,ddmfvc,001,0,fr,2022-05-05_11h26.04.013,3-AFC_adaptive_staircase_mess,2022.1.1,32.93842359769827,
,,,,,6,0,6,0,12,0,12,0,,,,,,,,,,,,,,,,up,8000,-20,1.815390273850507e-05,-1,2,-1,-5.0,726.8391358600463,727.057330199983,725.7892596999882,726.1104407000821,726.7754427000182,727.0880786000052,727.7798967000563,728.0799474000232,left,0,2.5951612999197096,725.8200799999759,None,728.3512256999966,None,,,,,,,ddmfvc,001,0,fr,2022-05-05_11h26.04.013,3-AFC_adaptive_staircase_mess,2022.1.1,32.93842359769827,
,,,,,6,0,6,0,13,0,13,0,,,,,,,,,,,,,,,,right,8000,-17.5,2.420861837920497e-05,1,3,1,2.5,731.9795000600395,732.1971490000142,729.898858300061,730.2234591000015,730.9205949000316,731.2521266000113,731.9144293999998,732.2278883999679,right,1,2.672773699974641,729.9655834999867,None,732.4524592000525,None,,,,,,,ddmfvc,001,0,fr,2022-05-05_11h26.04.013,3-AFC_adaptive_staircase_mess,2022.1.1,32.93842359769827,
,,,,,6,0,6,0,14,0,14,0,,,,,,,,,,,,,,,,left,8000,-17.5,2.420861837920497e-05,1,3,1,2.5,734.1825956600485,None,734.1531073000515,734.485100400052,735.1549365000101,735.4869317000266,736.1503643000033,736.4611148000695,right,0,2.850998800015077,734.1876222999999,None,736.6786562000634,None,,,,,,,ddmfvc,001,0,fr,2022-05-05_11h26.04.013,3-AFC_adaptive_staircase_mess,2022.1.1,32.93842359769827,
,,,,,6,0,6,0,15,0,15,0,,,,,,,,,,,,,,,,up,8000,-15.0,3.228271145173278e-05,1,3,1,2.5,739.5859096600441,739.8071422000648,738.5234253000235,738.8589259000728,739.5222088000737,739.8372302000644,740.5228579000104,740.8595783000346,up,1,2.544398900005035,738.5899568999885,None,741.0929232999915,None,,,,,,,ddmfvc,001,0,fr,2022-05-05_11h26.04.013,3-AFC_adaptive_staircase_mess,2022.1.1,32.93842359769827,
,,,,,6,0,6,0,16,0,16,0,,,,,,,,,,,,,,,,left,8000,-15.0,3.228271145173278e-05,1,3,1,2.5,742.6879903600318,742.9058736000443,742.6241537000751,742.9365559000289,743.6252179000294,743.9282536000246,744.6314936999697,744.965769900009,left,1,3.6741229000035673,742.6919995000353,None,745.2012655000435,None,,,,,,,ddmfvc,001,0,fr,2022-05-05_11h26.04.013,3-AFC_adaptive_staircase_mess,2022.1.1,32.93842359769827,
,,,,,6,0,6,0,17,0,17,0,,,,,,,,,,,,,,,,right,8000,-20.0,1.815390273850507e-05,-1,4,-1,-5.0,749.8900701599894,750.1138332000701,747.8245381000452,748.1592799000209,748.8308423999697,749.1635970000643,749.8297474000137,750.1471524999943,left,0,2.7732746000401676,747.8807854000479,None,750.4019758000504,None,,,,,,,ddmfvc,001,0,fr,2022-05-05_11h26.04.013,3-AFC_adaptive_staircase_mess,2022.1.1,32.93842359769827,
,,,,,6,0,6,0,18,0,18,0,,,,,,,,,,,,,,,,left,8000,-17.5,2.420861837920497e-05,1,5,1,2.5,752.1979917600518,752.415672400035,752.1352627000306,752.4464392000809,753.1370954000158,753.4725292000221,754.1385434999829,754.4683942999691,left,1,8.483665899955668,752.2026258000406,None,754.706932400004,None,,,,,,,ddmfvc,001,0,fr,2022-05-05_11h26.04.013,3-AFC_adaptive_staircase_mess,2022.1.1,32.93842359769827,
,,,,,6,0,6,0,19,0,19,0,,,,,,,,,,,,,,,,right,8000,-17.5,2.420861837920497e-05,1,5,1,2.5,764.2451533600222,764.4603596000234,762.1798471000511,762.5156821999699,763.1873837000458,763.5123749000486,764.1822510000784,764.4916682000039,right,1,3.9108368000015616,762.2476516000461,None,764.7481111000525,None,,,,,,,ddmfvc,001,0,fr,2022-05-05_11h26.04.013,3-AFC_adaptive_staircase_mess,2022.1.1,32.93842359769827,
,,,,,6,0,6,0,20,0,20,0,,,,,,,,,,,,,,,,left,8000,-22.5,1.3613506540389564e-05,-1,6,-1,-5.0,767.7178105599712,767.9341580000473,767.6532356999815,767.9643500000238,768.6577957000118,768.9889098000713,769.6560017999727,769.984256100026,left,1,5.810043500037864,767.724178000004,None,770.2179349000799,None,,,,,,,ddmfvc,001,0,fr,2022-05-05_11h26.04.013,3-AFC_adaptive_staircase_mess,2022.1.1,32.93842359769827,
,,,,,7,0,7,0,0,0,0,0,,,,,,,,,,,,,[],[],10,right,750,30,0.0012851978913844323,0,0,-1,10,790.8096729600336,None,788.7764256000519,789.1119438000023,789.7793553000083,790.1116471000714,790.7801846000366,791.1115948000224,right,1,2.4361973999766633,788.8106626999797,None,791.3038937600329,None,right,13.674975999980234,774.6271084999898,None,774.6271084999898,None,ddmfvc,001,0,fr,2022-05-05_11h26.04.013,3-AFC_adaptive_staircase_mess,2022.1.1,32.93842359769827,
,,,,,7,0,7,0,1,0,1,0,,,,,,,,,,,,,,,,left,750,30,0.0012851978913844323,0,0,-1,10,792.7792899599997,792.9929740000516,792.7498016000027,793.0553419999778,None,None,None,None,left,1,0.5255372000392526,792.78476770001,None,None,None,,,,,,,ddmfvc,001,0,fr,2022-05-05_11h26.04.013,3-AFC_adaptive_staircase_mess,2022.1.1,32.93842359769827,
,,,,,7,0,7,0,2,0,2,0,,,,,,,,,,,,,,,,up,750,10,0.00012851978913844324,-1,0,-1,-10,795.8432547599775,796.0593304000795,794.7793558000121,795.0822423000354,795.7799272000557,796.0905208999757,None,None,up,1,1.4877857000101358,794.8464317000471,None,None,None,,,,,,,ddmfvc,001,0,fr,2022-05-05_11h26.04.013,3-AFC_adaptive_staircase_mess,2022.1.1,32.93842359769827,
,,,,,7,0,7,0,3,0,3,0,,,,,,,,,,,,,,,,right,750,10,0.00012851978913844324,-1,0,-1,-10,799.8862259600544,None,797.8204000999685,798.1529683000408,798.836426599999,799.1421160000609,799.8567376000574,800.1866961000487,right,1,2.323073499952443,797.883048000047,None,None,None,,,,,,,ddmfvc,001,0,fr,2022-05-05_11h26.04.013,3-AFC_adaptive_staircase_mess,2022.1.1,32.93842359769827,
,,,,,7,0,7,0,4,0,4,0,,,,,,,,,,,,,,,,up,750,0,4.064152580820497e-05,-1,0,-1,-10,802.7467208599671,802.9616733000148,801.6861073999899,802.0234120000387,802.7172324999701,803.0244971000357,None,None,up,1,1.3799873000243679,801.7556627000449,None,None,None,,,,,,,ddmfvc,001,0,fr,2022-05-05_11h26.04.013,3-AFC_adaptive_staircase_mess,2022.1.1,32.93842359769827,
,,,,,7,0,7,0,5,0,5,0,,,,,,,,,,,,,,,,up,750,0,4.064152580820497e-05,-1,0,-1,-10,805.687989860028,805.910703200032,804.6223157000495,804.9268252999755,805.6252961000428,805.9381284000119,None,None,up,1,1.4997384999878705,804.6908943000017,None,None,None,,,,,,,ddmfvc,001,0,fr,2022-05-05_11h26.04.013,3-AFC_adaptive_staircase_mess,2022.1.1,32.93842359769827,
,,,,,7,0,7,0,6,0,6,0,,,,,,,,,,,,,,,,right,750,-10,1.2851978913844322e-05,-1,0,-1,-10,809.7273898600367,809.9401551000774,807.6601732000709,807.9955532000167,808.6592285999795,808.9622207999928,809.6641959999688,809.9715732000768,up,0,3.359762500040233,807.7267194000306,None,810.2326102000661,None,,,,,,,ddmfvc,001,0,fr,2022-05-05_11h26.04.013,3-AFC_adaptive_staircase_mess,2022.1.1,32.93842359769827,
,,,,,7,0,7,0,7,0,7,0,,,,,,,,,,,,,,,,right,750,-5,2.285440948074376e-05,1,1,1,5,814.615694560064,None,812.5663668999914,812.9026084999787,813.5700262000319,813.8697025000583,814.586206200067,814.9121433000546,right,1,2.6248420000774786,812.6373385000043,None,815.1375729000429,None,,,,,,,ddmfvc,001,0,fr,2022-05-05_11h26.04.013,3-AFC_adaptive_staircase_mess,2022.1.1,32.93842359769827,
,,,,,7,0,7,0,8,0,8,0,,,,,,,,,,,,,,,,up,750,-5,2.285440948074376e-05,1,1,1,5,817.8012231600703,818.0160033999709,816.7365487000206,817.0395750000607,817.7365906999912,818.0469985000091,None,None,up,1,1.6896998999873176,816.8041550000198,None,None,None,,,,,,,ddmfvc,001,0,fr,2022-05-05_11h26.04.013,3-AFC_adaptive_staircase_mess,2022.1.1,32.93842359769827,
,,,,,7,0,7,0,9,0,9,0,,,,,,,,,,,,,,,,up,750,-15,7.22719885372964e-06,-1,2,-1,-5.0,821.038539760001,821.251923999982,819.9729819999775,820.2752875000006,820.9736657000612,821.2834472000832,821.9712506000651,822.2789006000385,up,1,2.8227582001127303,820.0408928999677,None,822.5413039000705,None,,,,,,,ddmfvc,001,0,fr,2022-05-05_11h26.04.013,3-AFC_adaptive_staircase_mess,2022.1.1,32.93842359769827,
,,,,,7,0,7,0,10,0,10,0,,,,,,,,,,,,,,,,left,750,-15,7.22719885372964e-06,-1,2,-1,-5.0,824.4127451600041,None,824.349294600077,824.6819129000651,825.3507822999964,825.6823500000173,826.373717200011,826.7102352000074,left,1,2.913148900028318,824.4139677999774,None,826.9136567000533,None,,,,,,,ddmfvc,001,0,fr,2022-05-05_11h26.04.013,3-AFC_adaptive_staircase_mess,2022.1.1,32.93842359769827,
,,,,,7,0,7,0,11,0,11,0,,,,,,,,,,,,,,,,up,750,-20.0,4.0641525808204974e-06,-1,2,-1,-5.0,829.8813228599727,830.0918824999826,828.8462470000377,829.1511286000023,829.8518344999757,830.154733399977,830.8491455999902,831.1536505999975,left,0,2.941079100011848,828.8803592000622,None,831.3883244000608,None,,,,,,,ddmfvc,001,0,fr,2022-05-05_11h26.04.013,3-AFC_adaptive_staircase_mess,2022.1.1,32.93842359769827,
,,,,,7,0,7,0,12,0,12,0,,,,,,,,,,,,,,,,left,750,-17.5,5.419634570106019e-06,1,3,1,2.5,833.3846910600084,833.5993765000021,833.3218655000674,833.6307515000226,834.3511536000296,834.6607249000808,835.3270239999983,835.6581233000616,left,1,2.818412100081332,833.3881639000028,None,835.8955764999846,None,,,,,,,ddmfvc,001,0,fr,2022-05-05_11h26.04.013,3-AFC_adaptive_staircase_mess,2022.1.1,32.93842359769827,
,,,,,7,0,7,0,13,0,13,0,,,,,,,,,,,,,,,,right,750,-17.5,5.419634570106019e-06,1,3,1,2.5,839.7583424599841,839.9752231000457,837.6948534999974,837.9966688000131,838.7237171999877,839.0283724999754,839.694796500029,840.0058580000186,up,0,2.6172182000009343,837.7660569000291,None,840.2557160999859,None,,,,,,,ddmfvc,001,0,fr,2022-05-05_11h26.04.013,3-AFC_adaptive_staircase_mess,2022.1.1,32.93842359769827,
,,,,,7,0,7,0,14,0,14,0,,,,,,,,,,,,,,,,right,750,-15.0,7.22719885372964e-06,1,3,1,2.5,843.9141814599977,None,841.8624487000052,842.1955085999798,842.8583012999734,843.1623744000681,843.855555200018,844.173064099974,left,0,2.9602208000142127,841.9335169000551,None,844.4347748999717,None,,,,,,,ddmfvc,001,0,fr,2022-05-05_11h26.04.013,3-AFC_adaptive_staircase_mess,2022.1.1,32.93842359769827,
,,,,,7,0,7,0,15,0,15,0,,,,,,,,,,,,,,,,right,750,-12.5,9.637624565954684e-06,1,3,1,2.5,848.4388796600513,None,846.3678083000705,846.6668540000683,847.3740497999825,847.7075697000837,848.3756440000143,848.7073118999833,up,0,7.051183600095101,846.4347134999698,None,848.9402686000103,None,,,,,,,ddmfvc,001,0,fr,2022-05-05_11h26.04.013,3-AFC_adaptive_staircase_mess,2022.1.1,32.93842359769827,
,,,,,7,0,7,0,16,0,16,0,,,,,,,,,,,,,,,,up,750,-10.0,1.2851978913844322e-05,1,3,1,2.5,856.0391459600767,856.2555610999698,855.0084831999848,855.3125585999805,855.9754595999839,856.2872120999964,856.9770833000075,857.282761599985,left,0,3.2602070999564603,855.0421332999831,None,857.5474431000184,None,,,,,,,ddmfvc,001,0,fr,2022-05-05_11h26.04.013,3-AFC_adaptive_staircase_mess,2022.1.1,32.93842359769827,
,,,,,7,0,7,0,17,0,17,0,,,,,,,,,,,,,,,,right,750,-7.5,1.7138389327322525e-05,1,3,1,2.5,861.8515305600129,None,859.7833240000764,860.0840648000594,860.790789199993,861.1138835999882,861.7870018000249,862.1165883999784,left,0,3.250537799904123,859.8516810999718,None,862.3472036999883,None,,,,,,,ddmfvc,001,0,fr,2022-05-05_11h26.04.013,3-AFC_adaptive_staircase_mess,2022.1.1,32.93842359769827,
,,,,,7,0,7,0,18,0,18,0,,,,,,,,,,,,,,,,left,750,-5.0,2.285440948074376e-05,1,3,1,2.5,864.6463793600676,864.860305899987,864.6168910000706,864.9227368000429,None,None,None,None,left,1,0.7717639999464154,864.651200100081,None,None,None,,,,,,,ddmfvc,001,0,fr,2022-05-05_11h26.04.013,3-AFC_adaptive_staircase_mess,2022.1.1,32.93842359769827,
,,,,,7,0,7,0,19,0,19,0,,,,,,,,,,,,,,,,left,750,-5.0,2.285440948074376e-05,1,3,1,2.5,866.979511860013,867.1982283999678,866.916324699996,867.230534399976,867.9227842000546,868.2580548999831,868.9241233000066,869.2600219000597,left,1,3.25325830001384,866.9853995000012,None,869.4889390000608,None,,,,,,,ddmfvc,001,0,fr,2022-05-05_11h26.04.013,3-AFC_adaptive_staircase_mess,2022.1.1,32.93842359769827,
,,,,,7,0,7,0,20,0,20,0,,,,,,,,,,,,,,,,left,750,-10.0,1.2851978913844322e-05,-1,4,-1,-5.0,871.790745660034,871.9992302000755,871.761257300037,872.0638719999697,872.7313282999676,873.0336981000146,873.728565700003,874.0573771999916,left,1,2.9860806999495253,871.796228799969,None,874.2780389999971,None,,,,,,,ddmfvc,001,0,fr,2022-05-05_11h26.04.013,3-AFC_adaptive_staircase_mess,2022.1.1,32.93842359769827,
,,,,,7,0,7,0,21,0,21,0,,,,,,,,,,,,,,,,left,750,-10.0,1.2851978913844322e-05,-1,4,-1,-5.0,876.3313555600587,876.5433156000217,876.2668019999983,876.5753446000163,877.2692338000052,877.6034755000146,878.287000900018,878.6023499000585,up,0,3.3577819999773055,876.3366823000833,None,878.8320064999862,None,,,,,,,ddmfvc,001,0,fr,2022-05-05_11h26.04.013,3-AFC_adaptive_staircase_mess,2022.1.1,32.93842359769827,
,,,,,7,0,7,0,22,0,22,0,,,,,,,,,,,,,,,,left,750,-7.5,1.7138389327322525e-05,1,5,1,2.5,881.2383710600668,881.4515827000141,881.1713546999963,881.4792525999947,882.1753254000796,882.4744402000215,883.176217500004,883.5120816000272,right,0,2.968008799944073,881.238724600058,None,883.7452119999798,None,,,,,,,ddmfvc,001,0,fr,2022-05-05_11h26.04.013,3-AFC_adaptive_staircase_mess,2022.1.1,32.93842359769827,
,,,,,7,0,7,0,23,0,23,0,,,,,,,,,,,,,,,,up,750,-5.0,2.285440948074376e-05,1,5,1,2.5,886.7317748600151,886.9482677000342,885.7019373000367,886.0079430000624,886.7022865000181,887.011752899969,887.7054050000152,888.040716700023,up,1,2.903344599995762,885.7351264000172,None,888.2429907000624,None,,,,,,,ddmfvc,001,0,fr,2022-05-05_11h26.04.013,3-AFC_adaptive_staircase_mess,2022.1.1,32.93842359769827,
,,,,,7,0,7,0,24,0,24,0,,,,,,,,,,,,,,,,left,750,-5.0,2.285440948074376e-05,1,5,1,2.5,890.1471503600012,890.360401700018,890.1176620000042,890.418749100063,891.1137804000173,891.4479079999728,892.1099875000073,892.4429157000268,up,0,3.2908527998952195,890.147210999974,None,892.6754801999778,None,,,,,,,ddmfvc,001,0,fr,2022-05-05_11h26.04.013,3-AFC_adaptive_staircase_mess,2022.1.1,32.93842359769827,
,,,,,7,0,7,0,25,0,25,0,,,,,,,,,,,,,,,,right,750,-2.5,3.0476844862008466e-05,1,5,1,2.5,896.9822094600647,None,894.9163509000791,895.251246000058,895.9208746000659,896.2519370000809,896.9237250000006,897.2498822000343,right,1,2.758945200010203,894.9835245000431,None,897.4861216000281,None,,,,,,,ddmfvc,001,0,fr,2022-05-05_11h26.04.013,3-AFC_adaptive_staircase_mess,2022.1.1,32.93842359769827,
,,,,,7,0,7,0,26,0,26,0,,,,,,,,,,,,,,,,right,750,-2.5,3.0476844862008466e-05,1,5,1,2.5,901.2819899600697,901.4972536000423,899.2259266000474,899.56113799999,900.2091582000721,900.5205544000491,901.2186535000801,901.5325526000233,right,1,2.6431627001147717,899.259533100063,None,901.7785722999834,None,,,,,,,ddmfvc,001,0,fr,2022-05-05_11h26.04.013,3-AFC_adaptive_staircase_mess,2022.1.1,32.93842359769827,
,,,,,7,0,7,0,27,0,27,0,,,,,,,,,,,,,,,,left,750,-7.5,1.7138389327322525e-05,-1,6,-1,-5.0,903.4162854600697,903.6335439999821,903.3867971000727,903.693411000073,904.3649126000237,904.6952124000527,905.3638246000046,905.6679866000777,left,1,2.898111099959351,903.4202877000207,None,905.935690500075,None,,,,,,,ddmfvc,001,0,fr,2022-05-05_11h26.04.013,3-AFC_adaptive_staircase_mess,2022.1.1,32.93842359769827,
,,,,,8,0,8,0,0,0,0,0,,,,,,,,,,,,,[],[],10,up,500,30,0.002259279721874612,0,0,-1,10,913.0905616600764,None,912.0482890000567,912.3572941999882,913.0610733000794,913.3811947000213,None,None,up,1,1.6182933000382036,912.108379399986,None,None,None,right,4.193366199964657,907.4044395000674,None,907.4044395000674,None,ddmfvc,001,0,fr,2022-05-05_11h26.04.013,3-AFC_adaptive_staircase_mess,2022.1.1,32.93842359769827,
,,,,,8,0,8,0,1,0,1,0,,,,,,,,,,,,,,,,right,500,30,0.002259279721874612,0,0,-1,10,917.2687697599874,None,915.2034458999988,915.5316130999709,916.2316009000642,916.5548202000791,917.2069567000726,917.5238467999734,right,1,2.3812916999449953,915.2650759000098,None,None,None,,,,,,,ddmfvc,001,0,fr,2022-05-05_11h26.04.013,3-AFC_adaptive_staircase_mess,2022.1.1,32.93842359769827,
,,,,,8,0,8,0,2,0,2,0,,,,,,,,,,,,,,,,up,500,10,0.0002259279721874612,-1,0,-1,-10,920.2217113599879,None,919.1523896000581,919.4697501000483,920.161752999993,920.4811524000252,None,None,up,1,1.3436349000548944,919.2143583999714,None,None,None,,,,,,,ddmfvc,001,0,fr,2022-05-05_11h26.04.013,3-AFC_adaptive_staircase_mess,2022.1.1,32.93842359769827,
,,,,,8,0,8,0,3,0,3,0,,,,,,,,,,,,,,,,right,500,10,0.0002259279721874612,-1,0,-1,-10,924.1040284600574,None,922.0542205000529,922.3724020000082,923.0451922999928,923.3536423000041,924.0404041999718,924.3712494000793,right,1,2.4425435999874026,922.0830571000697,None,924.5858072600793,None,,,,,,,ddmfvc,001,0,fr,2022-05-05_11h26.04.013,3-AFC_adaptive_staircase_mess,2022.1.1,32.93842359769827,
,,,,,8,0,8,0,4,0,4,0,,,,,,,,,,,,,,,,right,500,0,7.144469792555515e-05,-1,0,-1,-10,928.0913988600485,None,926.0593404000392,926.3731147000799,927.0425385000417,927.3448026999831,928.0339568000054,928.3533654999919,right,1,2.4038904000772163,926.0902044000104,None,None,None,,,,,,,ddmfvc,001,0,fr,2022-05-05_11h26.04.013,3-AFC_adaptive_staircase_mess,2022.1.1,32.93842359769827,
,,,,,8,0,8,0,5,0,5,0,,,,,,,,,,,,,,,,right,500,0,7.144469792555515e-05,-1,0,-1,-10,932.0405077599687,932.2635318000102,929.9957985000219,930.3101665000431,930.9848241000436,931.299211399979,932.0110193999717,932.324505000026,right,1,2.4821284000063315,930.0598512999713,None,932.5456127000507,None,,,,,,,ddmfvc,001,0,fr,2022-05-05_11h26.04.013,3-AFC_adaptive_staircase_mess,2022.1.1,32.93842359769827,
,,,,,8,0,8,0,6,0,6,0,,,,,,,,,,,,,,,,left,500,-10,2.259279721874613e-05,-1,0,-1,-10,934.0896350600058,934.3086053000297,934.031522299978,934.3383932000725,935.0404530999949,935.3506367000518,936.0306622000644,936.3481562000234,up,0,2.7893857000162825,934.0896846000105,None,936.5975074999733,None,,,,,,,ddmfvc,001,0,fr,2022-05-05_11h26.04.013,3-AFC_adaptive_staircase_mess,2022.1.1,32.93842359769827,
,,,,,8,0,8,0,7,0,7,0,,,,,,,,,,,,,,,,up,500,-5,4.017630610928089e-05,1,1,1,5,939.4043952599866,None,938.3731572000543,938.6684831000166,939.3749068999896,939.702439500019,940.3647678999696,940.6737144000363,left,0,2.601679899962619,938.4041465000482,None,940.9179601999931,None,,,,,,,ddmfvc,001,0,fr,2022-05-05_11h26.04.013,3-AFC_adaptive_staircase_mess,2022.1.1,32.93842359769827,
,,,,,8,0,8,0,8,0,8,0,,,,,,,,,,,,,,,,right,500,0,7.144469792555515e-05,1,1,1,5,944.5471374600427,None,942.4812409000006,942.8034654000076,943.4902727999724,943.8040960000362,944.4870186999906,944.8067000000738,right,1,2.5752380000194535,942.5437218999723,None,945.0565851000138,None,,,,,,,ddmfvc,001,0,fr,2022-05-05_11h26.04.013,3-AFC_adaptive_staircase_mess,2022.1.1,32.93842359769827,
,,,,,8,0,8,0,9,0,9,0,,,,,,,,,,,,,,,,left,500,0,7.144469792555515e-05,1,1,1,5,946.6541412600316,None,946.5917683000444,946.9075937999878,947.607927700039,947.9200825999724,948.5934862999711,948.9080620000605,up,0,2.4807148000691086,946.6546989000635,None,949.1568656000309,None,,,,,,,ddmfvc,001,0,fr,2022-05-05_11h26.04.013,3-AFC_adaptive_staircase_mess,2022.1.1,32.93842359769827,
,,,,,8,0,8,0,10,0,10,0,,,,,,,,,,,,,,,,right,500,5,0.00012704863527746526,1,1,1,5,952.6748354599811,None,950.6286265000235,950.9448670999845,951.6418826000299,951.9504913999699,952.6142922000727,952.9394377999706,right,1,2.468632100033574,950.6974582000403,None,953.2000125000486,None,,,,,,,ddmfvc,001,0,fr,2022-05-05_11h26.04.013,3-AFC_adaptive_staircase_mess,2022.1.1,32.93842359769827,
,,,,,8,0,8,0,11,0,11,0,,,,,,,,,,,,,,,,up,500,5,0.00012704863527746526,1,1,1,5,955.7423709600232,None,954.6722069000825,955.0011999000562,955.6818735999987,956.0084217999829,None,None,up,1,1.4896669000154361,954.7328605999937,None,None,None,,,,,,,ddmfvc,001,0,fr,2022-05-05_11h26.04.013,3-AFC_adaptive_staircase_mess,2022.1.1,32.93842359769827,
,,,,,8,0,8,0,12,0,12,0,,,,,,,,,,,,,,,,up,500,-5,4.017630610928089e-05,-1,2,-1,-5.0,958.7544686600565,958.9772339999909,957.704468699987,958.0342447999865,958.6940889999969,959.0085075000534,959.6899805000285,960.0269055999815,up,1,2.8967038000700995,957.7575655999826,None,960.2705594999716,None,,,,,,,ddmfvc,001,0,fr,2022-05-05_11h26.04.013,3-AFC_adaptive_staircase_mess,2022.1.1,32.93842359769827,
,,,,,8,0,8,0,13,0,13,0,,,,,,,,,,,,,,,,left,500,-5,4.017630610928089e-05,-1,2,-1,-5.0,962.1892882600193,None,962.138434200082,962.4485509999795,None,None,None,None,left,1,0.7016164000378922,962.1928932999726,None,None,None,,,,,,,ddmfvc,001,0,fr,2022-05-05_11h26.04.013,3-AFC_adaptive_staircase_mess,2022.1.1,32.93842359769827,
,,,,,8,0,8,0,14,0,14,0,,,,,,,,,,,,,,,,right,500,-10.0,2.259279721874613e-05,-1,2,-1,-5.0,966.4419563600793,966.65610500006,964.3944138999796,964.7204941000091,965.3954433000181,965.7338900000323,966.3788079000078,966.6856780999806,right,1,2.903623200021684,964.4223783999914,None,966.9445993000409,None,,,,,,,ddmfvc,001,0,fr,2022-05-05_11h26.04.013,3-AFC_adaptive_staircase_mess,2022.1.1,32.93842359769827,
,,,,,8,0,8,0,15,0,15,0,,,,,,,,,,,,,,,,right,500,-10.0,2.259279721874613e-05,-1,2,-1,-5.0,970.8623377599986,None,968.8164710999699,969.1339449000079,969.8237216999987,970.1526722999988,970.8328494000016,971.1572832000675,right,1,2.6199695001123473,968.8821048000827,None,971.3852658000542,None,,,,,,,ddmfvc,001,0,fr,2022-05-05_11h26.04.013,3-AFC_adaptive_staircase_mess,2022.1.1,32.93842359769827,
,,,,,8,0,8,0,16,0,16,0,,,,,,,,,,,,,,,,left,500,-15.0,1.2704863527746532e-05,-1,2,-1,-5.0,973.0224263600073,None,972.9929380000103,973.3249353000429,973.9756281999871,974.2873541000299,974.982309199986,975.2874035000568,up,0,3.068256700062193,973.0259121999843,None,975.550139500061,None,,,,,,,ddmfvc,001,0,fr,2022-05-05_11h26.04.013,3-AFC_adaptive_staircase_mess,2022.1.1,32.93842359769827,
,,,,,8,0,8,0,17,0,17,0,,,,,,,,,,,,,,,,up,500,-12.5,1.6942207806960138e-05,1,3,1,2.5,978.6554326599696,978.8738238000078,977.5898931999691,977.9244254999794,978.5893336000154,978.9075917999726,979.5928001999855,979.8944560000673,up,1,2.644408200052567,977.6569973999867,None,980.1656964999856,None,,,,,,,ddmfvc,001,0,fr,2022-05-05_11h26.04.013,3-AFC_adaptive_staircase_mess,2022.1.1,32.93842359769827,
,,,,,8,0,8,0,18,0,18,0,,,,,,,,,,,,,,,,up,500,-12.5,1.6942207806960138e-05,1,3,1,2.5,982.8620136599754,None,981.8002846000018,982.1284829999786,982.7982733000536,983.136465299991,983.8066078000702,984.1147807000671,left,0,2.899825199972838,981.8667017000262,None,984.3703421000391,None,,,,,,,ddmfvc,001,0,fr,2022-05-05_11h26.04.013,3-AFC_adaptive_staircase_mess,2022.1.1,32.93842359769827,
,,,,,8,0,8,0,19,0,19,0,,,,,,,,,,,,,,,,right,500,-10.0,2.259279721874613e-05,1,3,1,2.5,988.2980423600645,988.5168583000777,986.2505365000106,986.5650934000732,987.2334056000691,987.5692901000148,988.2351798000745,988.5471322999801,right,1,3.3182817000197247,986.2793851000024,None,988.7876787000569,None,,,,,,,ddmfvc,001,0,fr,2022-05-05_11h26.04.013,3-AFC_adaptive_staircase_mess,2022.1.1,32.93842359769827,
,,,,,8,0,8,0,20,0,20,0,,,,,,,,,,,,,,,,right,500,-10.0,2.259279721874613e-05,1,3,1,2.5,993.1371137600624,993.3593652000418,991.0671974000288,991.3978746000212,992.0895568999695,992.4080612000544,993.0735175000736,993.3765557999723,right,1,3.066829100018367,991.1242572000483,None,993.6418775999919,None,,,,,,,ddmfvc,001,0,fr,2022-05-05_11h26.04.013,3-AFC_adaptive_staircase_mess,2022.1.1,32.93842359769827,
,,,,,8,0,8,0,21,0,21,0,,,,,,,,,,,,,,,,right,500,-15.0,1.2704863527746532e-05,-1,4,-1,-5.0,997.7416809600079,997.9519590999698,995.6826315000653,995.9927299000556,996.7106672000373,997.0438509000232,997.7121926000109,998.0130682999734,left,0,2.8945957999676466,995.7430235000793,None,998.2394825000083,None,,,,,,,ddmfvc,001,0,fr,2022-05-05_11h26.04.013,3-AFC_adaptive_staircase_mess,2022.1.1,32.93842359769827,
,,,,,8,0,8,0,22,0,22,0,,,,,,,,,,,,,,,,left,500,-12.5,1.6942207806960138e-05,1,5,1,2.5,1000.1766258599935,1000.3944088000571,1000.1138408000115,1000.425014300039,1001.1146596000763,1001.4500819999957,1002.1150842000498,1002.4496073999908,right,0,2.7455076999031007,1000.1805719999829,None,1002.6838465000037,None,,,,,,,ddmfvc,001,0,fr,2022-05-05_11h26.04.013,3-AFC_adaptive_staircase_mess,2022.1.1,32.93842359769827,
,,,,,8,0,8,0,23,0,23,0,,,,,,,,,,,,,,,,left,500,-10.0,2.259279721874613e-05,1,5,1,2.5,1004.4785409600706,None,1004.4194604000077,1004.721514099976,1005.4201261000708,1005.756664399989,1006.4183338000439,1006.7235138000688,right,0,2.716549300006591,1004.4820004000794,None,1006.9918187999865,None,,,,,,,ddmfvc,001,0,fr,2022-05-05_11h26.04.013,3-AFC_adaptive_staircase_mess,2022.1.1,32.93842359769827,
,,,,,8,0,8,0,24,0,24,0,,,,,,,,,,,,,,,,up,500,-7.5,3.0127979303717903e-05,1,5,1,2.5,1009.7534122600453,1009.972766000079,1008.6884845000459,1009.0062625000719,1009.7239239000482,1010.0381866000826,1010.7079561999999,1011.0121820999775,up,1,2.632518899976276,1008.7576595999999,None,1011.2612604000606,None,,,,,,,ddmfvc,001,0,fr,2022-05-05_11h26.04.013,3-AFC_adaptive_staircase_mess,2022.1.1,32.93842359769827,
,,,,,8,0,8,0,25,0,25,0,,,,,,,,,,,,,,,,up,500,-7.5,3.0127979303717903e-05,1,5,1,2.5,1013.923791960068,1014.1432776000584,1012.859354800079,1013.1940715999808,1013.8609425000614,1014.1737279000226,1014.8661736000795,1015.1967631999869,left,0,3.2944548999657854,1012.9275382000487,None,1015.4305939000333,None,,,,,,,ddmfvc,001,0,fr,2022-05-05_11h26.04.013,3-AFC_adaptive_staircase_mess,2022.1.1,32.93842359769827,
,,,,,8,0,8,0,26,0,26,0,,,,,,,,,,,,,,,,up,500,-5.0,4.017630610928089e-05,1,5,1,2.5,1018.7631938600214,1018.983188000042,1017.7057388999965,1018.034864300047,1018.6996653000824,1019.0140766999684,1019.7016009000363,1020.0377384000458,right,0,3.6272562000667676,1017.7640357000055,None,1020.2801074000308,None,,,,,,,ddmfvc,001,0,fr,2022-05-05_11h26.04.013,3-AFC_adaptive_staircase_mess,2022.1.1,32.93842359769827,
,,,,,8,0,8,0,27,0,27,0,,,,,,,,,,,,,,,,right,500,-2.5,5.357596526188033e-05,1,5,1,2.5,1024.904095460032,1025.1202423999785,1022.8714429000393,1023.205907399999,1023.879964999971,1024.181035400019,1024.874607100035,1025.1814457,right,1,2.7081824999768287,1022.9376869000262,None,1025.424264900037,None,,,,,,,ddmfvc,001,0,fr,2022-05-05_11h26.04.013,3-AFC_adaptive_staircase_mess,2022.1.1,32.93842359769827,
,,,,,8,0,8,0,28,0,28,0,,,,,,,,,,,,,,,,up,500,-2.5,5.357596526188033e-05,1,5,1,2.5,1028.1712157600093,1028.3908832999878,1027.103685399983,1027.4077113000676,1028.1081593000563,1028.421215099981,1029.1010675000725,1029.4131227000616,up,1,2.9979181999806315,1027.1610440000659,None,1029.6785045000724,None,,,,,,,ddmfvc,001,0,fr,2022-05-05_11h26.04.013,3-AFC_adaptive_staircase_mess,2022.1.1,32.93842359769827,
,,,,,8,0,8,0,29,0,29,0,,,,,,,,,,,,,,,,right,500,-7.5,3.0127979303717903e-05,-1,6,-1,-5.0,1033.7120947599876,1033.9350644000806,1031.6603425000794,1031.9834092999808,1032.6860586999683,1033.0147501999745,1033.6826063999906,1033.9930626000278,right,1,2.6935712000122294,1031.7207003000658,None,1034.222463299986,None,,,,,,,ddmfvc,001,0,fr,2022-05-05_11h26.04.013,3-AFC_adaptive_staircase_mess,2022.1.1,32.93842359769827,
,,,,,9,0,9,0,0,0,0,0,,,,,,,,,,,,,[],[],10,left,250,30,0.005296268625886445,0,0,-1,10,1042.0324679599842,None,1041.9729364999803,1042.2983897000086,1042.961765200016,None,None,None,left,1,1.1173163000494242,1042.0328707000008,None,None,None,right,6.033011599909514,1035.4846417000517,None,1035.4846417000517,None,ddmfvc,001,0,fr,2022-05-05_11h26.04.013,3-AFC_adaptive_staircase_mess,2022.1.1,32.93842359769827,
,,,,,9,0,9,0,1,0,1,0,,,,,,,,,,,,,,,,right,250,30,0.005296268625886445,0,0,-1,10,1046.6974899600725,None,1044.6277220000047,1044.9630076000467,1045.627743500052,1045.9712071000831,1046.631847199984,1046.9641968000215,right,1,2.2940280000912026,1044.6976992000127,None,None,None,,,,,,,ddmfvc,001,0,fr,2022-05-05_11h26.04.013,3-AFC_adaptive_staircase_mess,2022.1.1,32.93842359769827,
,,,,,9,0,9,0,2,0,2,0,,,,,,,,,,,,,,,,right,250,10,0.0005296268625886444,-1,0,-1,-10,1050.51597095998,None,1048.4979232000187,1048.8333687999984,1049.4671620000154,1049.7957318000263,1050.486482599983,1050.8080105000408,right,1,2.3947155999485403,1048.5313961000647,None,None,None,,,,,,,ddmfvc,001,0,fr,2022-05-05_11h26.04.013,3-AFC_adaptive_staircase_mess,2022.1.1,32.93842359769827,
,,,,,9,0,9,0,3,0,3,0,,,,,,,,,,,,,,,,up,250,10,0.0005296268625886444,-1,0,-1,-10,1053.465827460005,1053.6828955999808,1052.4211038000649,1052.7330174000235,1053.4022631000262,1053.714425400016,None,None,up,1,1.512411400093697,1052.4532611999894,None,None,None,,,,,,,ddmfvc,001,0,fr,2022-05-05_11h26.04.013,3-AFC_adaptive_staircase_mess,2022.1.1,32.93842359769827,
,,,,,9,0,9,0,4,0,4,0,,,,,,,,,,,,,,,,right,250,0,0.0001674827195789138,-1,0,-1,-10,1057.5046485600294,1057.7274057000177,1055.4761499000015,1055.8060181000037,1056.4726066000294,1056.7737130000023,1057.4751602000324,1057.784328000038,right,1,2.55756470002234,1055.5052208000561,None,1058.0303157999879,None,,,,,,,ddmfvc,001,0,fr,2022-05-05_11h26.04.013,3-AFC_adaptive_staircase_mess,2022.1.1,32.93842359769827,
,,,,,9,0,9,0,5,0,5,0,,,,,,,,,,,,,,,,right,250,0,0.0001674827195789138,-1,0,-1,-10,1061.5745644600363,None,1059.5098903999897,1059.8130518000107,1060.5130080999807,1060.8472547000274,1061.5169905000366,1061.8239623999689,right,1,2.4036015999736264,1059.5786671000533,None,None,None,,,,,,,ddmfvc,001,0,fr,2022-05-05_11h26.04.013,3-AFC_adaptive_staircase_mess,2022.1.1,32.93842359769827,
,,,,,9,0,9,0,6,0,6,0,,,,,,,,,,,,,,,,up,250,-10,5.296268625886443e-05,-1,0,-1,-10,1064.5316384600708,None,1063.48056549998,1063.8154200999998,1064.5021501000738,1064.8221714000683,1065.487576500047,1065.8148446000414,right,0,3.010547799989581,1063.5469936999725,None,1066.0549930999987,None,,,,,,,ddmfvc,001,0,fr,2022-05-05_11h26.04.013,3-AFC_adaptive_staircase_mess,2022.1.1,32.93842359769827,
,,,,,9,0,9,0,7,0,7,0,,,,,,,,,,,,,,,,right,250,-5,9.418245447449e-05,1,1,1,5,1070.0890281600412,None,1068.0524428000208,1068.3540985999862,1069.0269289000425,1069.3314557999838,1070.0235000000102,1070.3595406999812,right,1,2.695600900100544,1068.0869781000074,None,1070.5950716000516,None,,,,,,,ddmfvc,001,0,fr,2022-05-05_11h26.04.013,3-AFC_adaptive_staircase_mess,2022.1.1,32.93842359769827,
,,,,,9,0,9,0,8,0,8,0,,,,,,,,,,,,,,,,left,250,-5,9.418245447449e-05,1,1,1,5,1072.3287160599837,1072.5460352000082,1072.2638700000243,1072.5768143000314,1073.2676706999773,1073.6043873999733,1074.2800827000756,1074.6064925000537,left,1,3.1980143000837415,1072.3357743000379,None,1074.8320213999832,None,,,,,,,ddmfvc,001,0,fr,2022-05-05_11h26.04.013,3-AFC_adaptive_staircase_mess,2022.1.1,32.93842359769827,
,,,,,9,0,9,0,9,0,9,0,,,,,,,,,,,,,,,,left,250,-15,2.9783107176450517e-05,-1,2,-1,-5.0,1077.0887084600515,1077.3064532000571,1077.0592201000545,1077.3718462000834,1078.0363796000602,1078.3720733000664,1079.0362185999984,1079.3653344999766,right,0,3.9764412000076845,1077.092970400001,None,1079.6036211000755,None,,,,,,,ddmfvc,001,0,fr,2022-05-05_11h26.04.013,3-AFC_adaptive_staircase_mess,2022.1.1,32.93842359769827,
,,,,,9,0,9,0,10,0,10,0,,,,,,,,,,,,,,,,right,250,-12.5,3.971641173621407e-05,1,3,1,2.5,1084.6020089600468,None,1082.5461333000567,1082.8579203999834,1083.5360266000498,1083.8376460999716,1084.5406303000636,1084.8711156999925,right,1,2.932274500024505,1082.6173926000483,None,1085.10703319998,None,,,,,,,ddmfvc,001,0,fr,2022-05-05_11h26.04.013,3-AFC_adaptive_staircase_mess,2022.1.1,32.93842359769827,
,,,,,9,0,9,0,11,0,11,0,,,,,,,,,,,,,,,,left,250,-12.5,3.971641173621407e-05,1,3,1,2.5,1087.074288960034,1087.2925846000435,1087.011427700054,1087.3200856000185,1088.037962500006,1088.3484258999815,1089.0146303999936,1089.3250481999712,right,0,2.890901600010693,1087.075311099994,None,1089.5668575000018,None,,,,,,,ddmfvc,001,0,fr,2022-05-05_11h26.04.013,3-AFC_adaptive_staircase_mess,2022.1.1,32.93842359769827,
,,,,,9,0,9,0,12,0,12,0,,,,,,,,,,,,,,,,right,250,-10.0,5.296268625886443e-05,1,3,1,2.5,1093.4991134600248,None,1091.4833787999814,1091.8167314999737,1092.469491600059,1092.7959817000665,1093.4696251000278,1093.7839650000678,left,0,2.7039194999961182,1091.5178494000575,None,1094.019136200077,None,,,,,,,ddmfvc,001,0,fr,2022-05-05_11h26.04.013,3-AFC_adaptive_staircase_mess,2022.1.1,32.93842359769827,
,,,,,9,0,9,0,13,0,13,0,,,,,,,,,,,,,,,,right,250,-7.5,7.06268772311377e-05,1,3,1,2.5,1097.7864357600454,None,1095.7177069999743,1096.0491322000744,1096.71280139999,1097.0486728000687,1097.721847900073,1098.057614600053,left,0,3.1597264000447467,1095.7834722000407,None,1098.2920883999905,None,,,,,,,ddmfvc,001,0,fr,2022-05-05_11h26.04.013,3-AFC_adaptive_staircase_mess,2022.1.1,32.93842359769827,
,,,,,9,0,9,0,14,0,14,0,,,,,,,,,,,,,,,,left,250,-5.0,9.418245447449e-05,1,3,1,2.5,1100.4886982599971,None,1100.4267168000806,1100.7580029000528,1101.4276661999756,1101.7613558999728,None,None,left,1,1.490264100022614,1100.4918434000574,None,None,None,,,,,,,ddmfvc,001,0,fr,2022-05-05_11h26.04.013,3-AFC_adaptive_staircase_mess,2022.1.1,32.93842359769827,
,,,,,9,0,9,0,15,0,15,0,,,,,,,,,,,,,,,,right,250,-5.0,9.418245447449e-05,1,3,1,2.5,1105.4956640600692,1105.714590699994,1103.4662581000011,1103.7680157000432,1104.4671466000145,1104.7721346999751,1105.4661757000722,1105.7803841000423,right,1,2.5631536000873893,1103.4991406999761,None,1106.0122344000265,None,,,,,,,ddmfvc,001,0,fr,2022-05-05_11h26.04.013,3-AFC_adaptive_staircase_mess,2022.1.1,32.93842359769827,
,,,,,9,0,9,0,16,0,16,0,,,,,,,,,,,,,,,,up,250,-10.0,5.296268625886443e-05,-1,4,-1,-5.0,1108.5930966600542,1108.8030671000015,1107.5294370000483,1107.8627757000504,1108.5316026000073,1108.8364932000404,1109.5360812,1109.8654995000688,right,0,2.352279999991879,1107.5983099000296,None,None,None,,,,,,,ddmfvc,001,0,fr,2022-05-05_11h26.04.013,3-AFC_adaptive_staircase_mess,2022.1.1,32.93842359769827,
,,,,,9,0,9,0,17,0,17,0,,,,,,,,,,,,,,,,up,250,-7.5,7.06268772311377e-05,1,5,1,2.5,1112.502420960064,None,1111.4379306000192,1111.769600700005,1112.4378967999946,1112.7700106999837,1113.4366128999973,1113.7722128999885,left,0,3.005612700013444,1111.5039815000491,None,1114.0073320000665,None,,,,,,,ddmfvc,001,0,fr,2022-05-05_11h26.04.013,3-AFC_adaptive_staircase_mess,2022.1.1,32.93842359769827,
,,,,,9,0,9,0,18,0,18,0,,,,,,,,,,,,,,,,up,250,-5.0,9.418245447449e-05,1,5,1,2.5,1117.0404821600066,None,1115.9746698000235,1116.3074852999998,1116.9756189000327,1117.3069235000294,1117.9759854000295,1118.2820618000114,left,0,2.9145967999938875,1116.0430856000166,None,1118.544926600065,None,,,,,,,ddmfvc,001,0,fr,2022-05-05_11h26.04.013,3-AFC_adaptive_staircase_mess,2022.1.1,32.93842359769827,
,,,,,9,0,9,0,19,0,19,0,,,,,,,,,,,,,,,,right,250,-2.5,0.00012559432157547898,1,5,1,2.5,1122.4770045600133,1122.6921362000285,1120.4569862000644,1120.7906122000422,1121.4473575999727,1121.7786124000559,1122.4475162000163,1122.7578916000202,right,1,2.580335900071077,1120.4897396999877,None,1122.9858051000629,None,,,,,,,ddmfvc,001,0,fr,2022-05-05_11h26.04.013,3-AFC_adaptive_staircase_mess,2022.1.1,32.93842359769827,
,,,,,9,0,9,0,20,0,20,0,,,,,,,,,,,,,,,,up,250,-2.5,0.00012559432157547898,1,5,1,2.5,1125.6106301600346,1125.828849200043,1124.5456276000477,1124.883460800047,1125.548370399978,1125.8579846000066,None,None,up,1,1.5624799000797793,1124.6124896000838,None,None,None,,,,,,,ddmfvc,001,0,fr,2022-05-05_11h26.04.013,3-AFC_adaptive_staircase_mess,2022.1.1,32.93842359769827,
,,,,,9,0,9,0,21,0,21,0,,,,,,,,,,,,,,,,left,250,-7.5,7.06268772311377e-05,-1,6,-1,-5.0,1127.7181149600772,None,1127.6554356999695,1127.985781700001,1128.6560956999892,1128.9870032999897,1129.653423300013,1129.9561857000226,left,1,2.5980914999963716,1127.7204163999995,None,1130.2240437000291,None,,,,,,,ddmfvc,001,0,fr,2022-05-05_11h26.04.013,3-AFC_adaptive_staircase_mess,2022.1.1,32.93842359769827,
,,,,,10,0,10,0,0,0,0,0,,,,,,,,,,,,,[],[],10,left,125,30,0.02285440948074376,0,0,-1,10,1133.1864447600208,1133.4046384000685,1133.1569564000238,1133.4652835000306,None,None,None,None,left,1,0.6134312000358477,1133.1928827000083,None,None,None,right,1.2976366999791935,1131.3897200999781,None,1131.3897200999781,None,ddmfvc,001,0,fr,2022-05-05_11h26.04.013,3-AFC_adaptive_staircase_mess,2022.1.1,32.93842359769827,
,,,,,10,0,10,0,1,0,1,0,,,,,,,,,,,,,,,,left,125,30,0.02285440948074376,0,0,-1,10,1135.3429851600201,None,1135.2793287000386,1135.6118347999873,None,None,None,None,left,1,0.4272616000380367,1135.3471001000144,None,None,None,,,,,,,ddmfvc,001,0,fr,2022-05-05_11h26.04.013,3-AFC_adaptive_staircase_mess,2022.1.1,32.93842359769827,
,,,,,10,0,10,0,2,0,2,0,,,,,,,,,,,,,,,,right,125,10,0.002285440948074376,-1,0,-1,-10,1139.297829960077,None,1137.2667844999814,1137.601025699987,1138.2685766000068,1138.5926242000423,1139.26834160008,1139.5966338000726,right,1,2.2971879000542685,1137.3009911000263,None,None,None,,,,,,,ddmfvc,001,0,fr,2022-05-05_11h26.04.013,3-AFC_adaptive_staircase_mess,2022.1.1,32.93842359769827,
,,,,,10,0,10,0,3,0,3,0,,,,,,,,,,,,,,,,up,125,10,0.002285440948074376,-1,0,-1,-10,1142.1671430600807,1142.3867432000116,1141.1082161000231,1141.4416573999915,1142.1376547000837,1142.4541130000725,None,None,right,0,1.3347512999316677,1141.1748368999688,None,None,None,,,,,,,ddmfvc,001,0,fr,2022-05-05_11h26.04.013,3-AFC_adaptive_staircase_mess,2022.1.1,32.93842359769827,
,,,,,10,0,10,0,4,0,4,0,,,,,,,,,,,,,,,,left,125,15,0.004064152580820497,1,1,1,5,1144.0483411600114,1144.2653729000594,1143.986992900027,1144.2969287000597,None,None,None,None,left,1,0.4883547999197617,1144.0529754000017,None,None,None,,,,,,,ddmfvc,001,0,fr,2022-05-05_11h26.04.013,3-AFC_adaptive_staircase_mess,2022.1.1,32.93842359769827,
,,,,,10,0,10,0,5,0,5,0,,,,,,,,,,,,,,,,left,125,15,0.004064152580820497,1,1,1,5,1146.066857760027,1146.2836401000386,1146.03736940003,1146.3492726000259,None,None,None,None,left,1,0.46703179995529354,1146.0743615999818,None,None,None,,,,,,,ddmfvc,001,0,fr,2022-05-05_11h26.04.013,3-AFC_adaptive_staircase_mess,2022.1.1,32.93842359769827,
,,,,,10,0,10,0,6,0,6,0,,,,,,,,,,,,,,,,up,125,5,0.0012851978913844323,-1,2,-1,-5.0,1149.1078358600614,None,1148.0381889999844,1148.3713095000712,1149.041848200024,1149.3720857000444,None,None,up,1,1.3601272999076173,1148.110206900048,None,None,None,,,,,,,ddmfvc,001,0,fr,2022-05-05_11h26.04.013,3-AFC_adaptive_staircase_mess,2022.1.1,32.93842359769827,
,,,,,10,0,10,0,7,0,7,0,,,,,,,,,,,,,,,,right,125,5,0.0012851978913844323,-1,2,-1,-5.0,1153.0101532600354,1153.230133700068,1150.9415399000281,1151.2750794000458,1151.949167200015,1152.2832581000403,1152.9486607,1153.2589158000192,right,1,2.3619178000371903,1151.0120388000505,None,None,None,,,,,,,ddmfvc,001,0,fr,2022-05-05_11h26.04.013,3-AFC_adaptive_staircase_mess,2022.1.1,32.93842359769827,
,,,,,10,0,10,0,8,0,8,0,,,,,,,,,,,,,,,,left,125,0.0,0.000722719885372964,-1,2,-1,-5.0,1154.916436660057,1155.131659900071,1154.8869483000599,1155.1924086000072,None,None,None,None,left,1,0.7890808000229299,1154.9208558000391,None,None,None,,,,,,,ddmfvc,001,0,fr,2022-05-05_11h26.04.013,3-AFC_adaptive_staircase_mess,2022.1.1,32.93842359769827,
,,,,,10,0,10,0,9,0,9,0,,,,,,,,,,,,,,,,left,125,0.0,0.000722719885372964,-1,2,-1,-5.0,1157.2497775600757,1157.4622805999825,1157.1876693000086,1157.495272399974,1158.1835036000703,1158.5201611000812,1159.1898757000454,1159.5176049000584,left,1,2.519583999994211,1157.2538761000615,None,1159.7550345000345,None,,,,,,,ddmfvc,001,0,fr,2022-05-05_11h26.04.013,3-AFC_adaptive_staircase_mess,2022.1.1,32.93842359769827,
,,,,,10,0,10,0,10,0,10,0,,,,,,,,,,,,,,,,up,125,-5.0,0.00040641525808204974,-1,2,-1,-5.0,1162.3197574599878,1162.534805100062,1161.25727260008,1161.5904662000248,1162.2902690999908,1162.6002388000488,1163.2541987000732,1163.5574305000482,left,0,3.332505499944091,1161.3214871999808,None,1163.8298470000736,None,,,,,,,ddmfvc,001,0,fr,2022-05-05_11h26.04.013,3-AFC_adaptive_staircase_mess,2022.1.1,32.93842359769827,
,,,,,10,0,10,0,11,0,11,0,,,,,,,,,,,,,,,,right,125,-2.5,0.000541963457010602,1,3,1,2.5,None,None,1166.1245541999815,1166.430233699968,1167.1644338000333,1167.490053000045,None,None,up,0,1.4995041000656784,1166.1944879000075,None,None,None,,,,,,,ddmfvc,001,0,fr,2022-05-05_11h26.04.013,3-AFC_adaptive_staircase_mess,2022.1.1,32.93842359769827,
,,,,,10,0,10,0,12,0,12,0,,,,,,,,,,,,,,,,right,125,0.0,0.000722719885372964,1,3,1,2.5,1171.230327160051,1171.4484860000666,1169.1661066000815,1169.4687647999963,1170.1651877000695,1170.4992634999799,1171.1675156999845,1171.478156600031,right,1,2.618535100016743,1169.2346790999873,None,1171.7397507000715,None,,,,,,,ddmfvc,001,0,fr,2022-05-05_11h26.04.013,3-AFC_adaptive_staircase_mess,2022.1.1,32.93842359769827,
,,,,,10,0,10,0,13,0,13,0,,,,,,,,,,,,,,,,up,125,0.0,0.000722719885372964,1,3,1,2.5,1174.3962437599664,1174.6201110000256,1173.362409100053,1173.6674736000132,1174.3667553999694,1174.6847738000797,None,None,up,1,1.5076685999520123,1173.4342047000537,None,None,None,,,,,,,ddmfvc,001,0,fr,2022-05-05_11h26.04.013,3-AFC_adaptive_staircase_mess,2022.1.1,32.93842359769827,
,,,,,10,0,10,0,14,0,14,0,,,,,,,,,,,,,,,,left,125,-5.0,0.00040641525808204974,-1,4,-1,-5.0,1176.4695374599657,None,1176.4061548999744,1176.7348680000287,1177.404481100035,1177.7390836999984,1178.40989920008,1178.7338540999917,left,1,2.534234600025229,1176.4721129999962,None,1178.9491682000225,None,,,,,,,ddmfvc,001,0,fr,2022-05-05_11h26.04.013,3-AFC_adaptive_staircase_mess,2022.1.1,32.93842359769827,
,,,,,10,0,10,0,15,0,15,0,,,,,,,,,,,,,,,,right,125,-5.0,0.00040641525808204974,-1,4,-1,-5.0,1182.5295570600545,1182.744183700066,1180.4605250000022,1180.7709983000532,1181.467628100072,1181.8020392999751,1182.4667787000071,1182.7770911999978,up,0,2.692797699943185,1180.5209392000688,None,1183.0323936999775,None,,,,,,,ddmfvc,001,0,fr,2022-05-05_11h26.04.013,3-AFC_adaptive_staircase_mess,2022.1.1,32.93842359769827,
