sweeps.thisRepN,sweeps.thisTrialN,sweeps.thisN,sweeps.thisIndex,trials.thisRepN,trials.thisTrialN,trials.thisN,trials.thisIndex,instructions.started,instructions.stopped,blank_text.started,blank_text.stopped,,text.started,text.stopped,Delay,Prediction,Frequency,Volume,Psychopy_level,isCatchTrial,len(y),finished_audiograms,probe.started,probe.stopped,feedback.keys,feedback.started,feedback.stopped,ISI.started,ISI.stopped,text_2.started,text_2.stopped,feedback.rt,break_txt.started,break_txt.stopped,Intervals,Audiogram_frequency,Audiogram_none,Audiogram_both,Audiogram_time,participant,session,language (english or french),Resume previous experiment,date,expName,psychopyVersion,frameRate,
0,0,0,0,0,0,0,0,25.134711199905723,None,50.41466209990904,None,0.5833333333333334,53.72432599996682,None,1.5788063013143845,frequency,4002.0,-4.901039250225294,4.782218794891839e-05,0,26,[],0.02271017001476139,0.21921236999332905,None,54.75552249990869,None,0.21921236999332905,1.7980186713077135,54.96259879996069,None,,,,,,,,,cbtxie,001,fr,0,2022-05-05_15h50.30.825,Continuous,2022.1.1,None,
0,0,0,0,1,0,1,0,,,,,,,,2.8507764432197655,frequency,2671.0,1.4415686620233579,8.885755648807454e-05,0,27,[],0.02417466987390071,None,['space'],56.56278009992093,56.56278009992093,0.23206676996778697,3.0828432131875525,56.7867473999504,56.56278009992093,[-1.404505499987863],,,,,,,,cbtxie,001,fr,0,2022-05-05_15h50.30.825,Continuous,2022.1.1,None,
0,0,0,0,2,0,2,0,,,,,,,,2.606720210801969,frequency,1783.0,0.7038764843625505,7.050140391296499e-05,0,28,[],0.02336627000477165,None,None,59.65973189997021,59.65973189997021,0.24265606992412359,2.8493762807260925,59.88194130000193,59.65973189997021,,,,,,,,,cbtxie,001,fr,0,2022-05-05_15h50.30.825,Continuous,2022.1.1,None,
0,0,0,0,3,0,3,0,,,,,,,,1.6753875856726486,frequency,,,,1,28,[],0.024265069980174303,None,None,62.511893999995664,62.511893999995664,0.2354214700171724,1.910809055689821,62.72418729995843,62.511893999995664,,,,,,,,,cbtxie,001,fr,0,2022-05-05_15h50.30.825,Continuous,2022.1.1,None,
0,0,0,0,4,0,4,0,,,,,,,,1.255716628801465,frequency,794.0,1.3889730464644234,4.5341486868562934e-05,0,29,[],0.024369170074351132,None,None,64.42353479994927,64.42353479994927,0.23806857003364712,1.493785198835112,64.63927279994823,64.42353479994927,,,,,,,,,cbtxie,001,fr,0,2022-05-05_15h50.30.825,Continuous,2022.1.1,None,
0,0,0,0,5,0,5,0,,,,,,,,1.175877228626753,frequency,530.0,1.6003564345614212,8.027210238210035e-05,0,30,[],0.024094470078125596,None,None,65.92530299990904,65.92530299990904,0.24591507005970925,1.4217922986864622,66.1493939999491,65.92530299990904,,,,,,,,,cbtxie,001,fr,0,2022-05-05_15h50.30.825,Continuous,2022.1.1,None,
0,0,0,0,6,0,6,0,,,,,,,,1.2931990969717522,frequency,354.0,0.0,8.849638639228378e-05,0,31,[],0.023376169963739812,None,None,67.34149269992486,67.34149269992486,0.22725086996797472,1.520449966939727,67.56166509992909,67.34149269992486,,,,,,,,,cbtxie,001,fr,0,2022-05-05_15h50.30.825,Continuous,2022.1.1,None,
0,0,0,0,7,0,7,0,,,,,,,,2.600932537344195,frequency,236.0,2.4517644429356804,0.00025847909185420343,0,32,[],0.020290669985115528,None,None,68.8778826999478,68.8778826999478,0.21788236987777054,2.8188149072219657,69.09782349993475,68.8778826999478,,,,,,,,,cbtxie,001,fr,0,2022-05-05_15h50.30.825,Continuous,2022.1.1,None,
0,0,0,0,8,0,8,0,,,,,,,,2.478278127858964,frequency,158.0,8.944540490027308,0.001201186288033789,0,33,[],0.024203569977544248,None,None,71.72649979998823,71.72649979998823,0.23168536997400224,2.709963497832966,71.94281199993566,71.72649979998823,,,,,,,,,cbtxie,001,fr,0,2022-05-05_15h50.30.825,Continuous,2022.1.1,None,
1,0,1,0,0,0,0,0,,,,,,77.85292360000312,None,1.8779393425847928,none,148.0,7.918973269218981,0.0012889640105106783,0,26,[],0.02511767006944865,None,None,78.88051829999313,None,0.2530397700611502,2.130979112645943,79.10905129997991,None,,74.4488321999088,None,"[0.16666666666666666, 0.3333333333333333, 0.16666666666666666, 0.5833333333333334, 0.5833333333333334, 0.16666666666666666, 0.3333333333333333, 0.3333333333333333, 0.5833333333333334, 0.16666666666666666, 0.5833333333333334, 0.16666666666666666, 0.5833333333333334, 0.3333333333333333, 0.3333333333333333]",,,,,cbtxie,001,fr,0,2022-05-05_15h50.30.825,Continuous,2022.1.1,None,
1,0,1,0,1,0,1,0,,,,,,,,2.783398119180113,none,668.0,4.352399725504938,7.894806615882712e-05,0,27,[],0.017380669829435647,None,None,81.01145539991558,81.01145539991558,0.22385096992366016,3.007249089103773,81.23130200000014,81.01145539991558,,,,,,,,,cbtxie,001,fr,0,2022-05-05_15h50.30.825,Continuous,2022.1.1,None,
1,0,1,0,2,0,2,0,,,,,,,,2.483210836813564,none,1261.0,1.22760928457637,6.246966293199425e-05,0,28,[],0.02169466996565461,None,['space'],84.04317570000421,84.04317570000421,0.22532887000124902,2.708539706814813,84.26073899993207,84.04317570000421,[-2.517243899987079],,,,,,,,cbtxie,001,fr,0,2022-05-05_15h50.30.825,Continuous,2022.1.1,None,
1,0,1,0,3,0,3,0,,,,,,,,1.5605343452739127,none,187.0,2.1940203429206515,0.00040267160324955546,0,29,[],0.021015569800511003,None,None,86.76484439999331,86.76484439999331,0.2225854698335752,1.7831198151074878,86.98188239999581,86.76484439999331,,,,,,,,,cbtxie,001,fr,0,2022-05-05_15h50.30.825,Continuous,2022.1.1,None,
1,0,1,0,4,0,4,0,,,,,,,,1.658081774794621,none,397.0,4.6677258449592625,0.00013235863322444465,0,30,[],0.02378536993637681,None,None,88.56564589997288,88.56564589997288,0.23371366993524134,1.8917954447298624,88.7792766999919,88.56564589997288,,,,,,,,,cbtxie,001,fr,0,2022-05-05_15h50.30.825,Continuous,2022.1.1,None,
1,0,1,0,5,0,5,0,,,,,,,,2.3701987984995316,none,236.0,2.5362951992425695,0.00026100688102882573,0,31,[],0.023522569914348423,None,None,90.45888049993664,90.45888049993664,0.23283446987625211,2.6030332683757837,90.67571609991137,90.45888049993664,,,,,,,,,cbtxie,001,fr,0,2022-05-05_15h50.30.825,Continuous,2022.1.1,None,
1,0,1,0,6,0,6,0,,,,,,,,2.3507743317340504,none,354.0,0.0,8.849638639228378e-05,0,32,[],0.018172669922932982,None,None,93.07195489993319,93.07195489993319,0.22102716995868832,2.5718015016927387,93.29106099996716,93.07195489993319,,,,,,,,,cbtxie,001,fr,0,2022-05-05_15h50.30.825,Continuous,2022.1.1,None,
1,0,1,0,7,0,7,0,,,,,,,,2.3157171112461157,none,595.0,3.4737499721109626,8.446817792119279e-05,0,33,[],0.023465969949029386,None,None,95.67265939991921,95.67265939991921,0.23052756988909096,2.5462446811352066,95.89170689997263,95.67265939991921,,,,,,,,,cbtxie,001,fr,0,2022-05-05_15h50.30.825,Continuous,2022.1.1,None,
1,0,1,0,8,0,8,0,,,,,,,,2.763669829545776,none,1001.0,2.91796410365386,6.169931889959398e-05,0,34,[],0.023538269917480648,None,None,98.22849659994245,98.22849659994245,0.2314218699466437,2.9950916994924195,98.44424849993084,98.22849659994245,,,,,,,,,cbtxie,001,fr,0,2022-05-05_15h50.30.825,Continuous,2022.1.1,None,
1,0,1,0,9,0,9,0,,,,,,,,2.9712081488916375,none,132.0,1.0736449755819955,0.0007472904415807964,0,35,[],0.02311127004213631,None,['space'],101.23881249991246,101.23881249991246,0.23099327005911618,3.2022014189507537,101.45576669997536,101.23881249991246,[-2.512742899940349],,,,,,,,cbtxie,001,fr,0,2022-05-05_15h50.30.825,Continuous,2022.1.1,None,
1,0,1,0,10,0,10,0,,,,,,,,1.2164491241232585,none,1589.0,0.7359591197174584,6.075717884883717e-05,0,36,[],0.01579656999092549,None,None,104.45580039999913,104.45580039999913,0.2199684699298814,1.4364175940531398,104.67582359991502,104.45580039999913,,,,,,,,,cbtxie,001,fr,0,2022-05-05_15h50.30.825,Continuous,2022.1.1,None,
1,0,1,0,11,0,11,0,,,,,,,,1.918648454207712,none,,,,1,36,[],0.021972169866785407,None,None,105.91671229992062,105.91671229992062,0.2305983699625358,2.149246824170248,106.13926759990864,105.91671229992062,,,,,,,,,cbtxie,001,fr,0,2022-05-05_15h50.30.825,Continuous,2022.1.1,None,
2,0,2,0,0,0,0,0,,,,,0.3333333333333333,113.13275489991065,None,2.1990989145803836,frequency,4288.0,-7.55617469237887,4.347160625727485e-05,0,34,[],0.024938369868323207,None,None,114.1484793999698,None,0.24661706993356347,2.445715984513947,114.36287469998933,None,,108.08043380000163,None,,,,,,cbtxie,001,fr,0,2022-05-05_15h50.30.825,Continuous,2022.1.1,None,
2,0,2,0,1,0,1,0,,,,,,,,2.977878988919465,frequency,3403.0,0.5250166562598029,7.803764042878003e-05,0,35,[],0.020845370017923415,None,None,116.59060070000123,116.59060070000123,0.23274547001346946,3.2106244589329345,116.80749859998468,116.59060070000123,,,,,,,,,cbtxie,001,fr,0,2022-05-05_15h50.30.825,Continuous,2022.1.1,None,
2,0,2,0,2,0,2,0,,,,,,,,2.8414804640116227,frequency,2701.0,9.227493429042797,0.00021237254764847364,0,36,[],0.023109869798645377,None,['space'],119.80786329996772,119.80786329996772,0.22667306987568736,3.06815353388731,120.02435660001356,119.80786329996772,[-2.8097305999835953],,,,,,,,cbtxie,001,fr,0,2022-05-05_15h50.30.825,Continuous,2022.1.1,None,
2,0,2,0,3,0,3,0,,,,,,,,1.6942806105500754,frequency,2144.0,9.866753338743177,0.00024291471149692464,0,37,[],0.022613869979977608,None,['space'],122.89260159991682,122.89260159991682,0.2385529698804021,1.9328335804304775,123.11119399999734,122.89260159991682,[-2.7571538999909535],,,,,,,,cbtxie,001,fr,0,2022-05-05_15h50.30.825,Continuous,2022.1.1,None,
2,0,2,0,4,0,4,0,,,,,,,,1.409621095355032,frequency,1702.0,8.302415443608018,0.00015958017087627788,0,38,[],0.022933769854716957,None,['space'],124.82590299996082,124.82590299996082,0.22978496993891895,1.639406065293951,125.04032579995692,124.82590299996082,[-1.587052599992603],,,,,,,,cbtxie,001,fr,0,2022-05-05_15h50.30.825,Continuous,2022.1.1,None,
2,0,2,0,5,0,5,0,,,,,,,,2.622253472668576,frequency,1351.0,1.4928776972281548,6.175350899741357e-05,0,39,[],0.021282569970935583,None,['space'],126.48254669993185,126.48254669993185,0.22950497001875192,2.851758442687328,126.69494239997584,126.48254669993185,[-1.212627499946393],,,,,,,,cbtxie,001,fr,0,2022-05-05_15h50.30.825,Continuous,2022.1.1,None,
2,0,2,0,6,0,6,0,,,,,,,,1.5560742788249808,frequency,1072.0,10.0,0.0001488294249497533,0,40,[],0.022716269828379154,None,None,129.34370129997842,129.34370129997842,0.2328933698590845,1.7889676486840653,129.5550623999443,129.34370129997842,,,,,,,,,cbtxie,001,fr,0,2022-05-05_15h50.30.825,Continuous,2022.1.1,None,
2,0,2,0,7,0,7,0,,,,,,,,1.3975604694524082,frequency,851.0,9.401841415687594,0.00011753494975233013,0,41,[],0.022813069983385503,None,['space'],131.13288709998596,131.13288709998596,0.22937866998836398,1.6269391394407722,131.3506328999065,131.13288709998596,[-1.478621100075543],,,,,,,,cbtxie,001,fr,0,2022-05-05_15h50.30.825,Continuous,2022.1.1,None,
2,0,2,0,8,0,8,0,,,,,,,,1.3109926393040463,frequency,,,,1,41,[],0.02276906988117844,None,['space'],132.77625999995507,132.77625999995507,0.2274742699228227,1.538466909226869,132.99438729998656,132.77625999995507,[-1.153800299973227],,,,,,,,cbtxie,001,fr,0,2022-05-05_15h50.30.825,Continuous,2022.1.1,None,
2,0,2,0,9,0,9,0,,,,,,,,1.3774801073170801,frequency,536.0,9.174484391953744,0.00018929511050646397,0,42,[],0.023856970015913248,None,None,134.32955949997995,134.32955949997995,0.23707177001051605,1.6145518773275962,134.55050239991397,134.32955949997995,,,,,,,,,cbtxie,001,fr,0,2022-05-05_15h50.30.825,Continuous,2022.1.1,None,
2,0,2,0,10,0,10,0,,,,,,,,1.487016499880883,frequency,425.0,7.744220462655453,0.00018360016296677142,0,43,[],0.0208988698432222,None,['space'],135.94851219991688,135.94851219991688,0.22858526988420635,1.7156017697650894,136.1637969999574,135.94851219991688,[-1.3182745999656618],,,,,,,,cbtxie,001,fr,0,2022-05-05_15h50.30.825,Continuous,2022.1.1,None,
2,0,2,0,11,0,11,0,,,,,,,,1.2921817532396147,frequency,337.0,9.997912510929785,0.000293735790166126,0,44,[],0.022476469981484115,None,['space'],137.68062749993987,137.68062749993987,0.22645896999165416,1.5186407232312689,137.89227690000553,137.68062749993987,[-1.178648000000976],,,,,,,,cbtxie,001,fr,0,2022-05-05_15h50.30.825,Continuous,2022.1.1,None,
2,0,2,0,12,0,12,0,,,,,,,,2.083320379347601,frequency,267.0,9.195812563873535,0.000430876395314124,0,45,[],0.022696669795550406,None,None,139.21069559990428,139.21069559990428,0.2279328698059544,2.3112532491535553,139.41827109991573,139.21069559990428,,,,,,,,,cbtxie,001,fr,0,2022-05-05_15h50.30.825,Continuous,2022.1.1,None,
2,0,2,0,13,0,13,0,,,,,,,,2.321668832612931,frequency,212.0,5.62692017762665,0.0004624227792290307,0,46,[],0.02213586983270943,None,['space'],141.53524899994954,141.53524899994954,0.22766326984856278,2.5493321024614937,141.75237519992515,141.53524899994954,[-1.8481050000991672],,,,,,,,cbtxie,001,fr,0,2022-05-05_15h50.30.825,Continuous,2022.1.1,None,
2,0,2,0,14,0,14,0,,,,,,,,2.9156015307093366,frequency,168.0,9.804802509694627,0.0011811009207925835,0,47,[],0.022114970022812486,None,None,144.10086429992225,144.10086429992225,0.23380636994261295,3.1494079006519495,144.3165642999811,144.10086429992225,,,,,,,,,cbtxie,001,fr,0,2022-05-05_15h50.30.825,Continuous,2022.1.1,None,
3,0,3,0,0,0,0,0,,,,,0.3333333333333333,154.57775639998727,None,2.3180296022361007,frequency,7127.0,-0.7581858033061871,0.000142113779868546,0,48,[],0.02514096989762038,0.22042496991343796,['space'],155.58771729993168,None,0.22042496991343796,2.5384545721495386,155.7998334999429,None,[-3.1652831999817863],147.25284179998562,None,,,,,,cbtxie,001,fr,0,2022-05-05_15h50.30.825,Continuous,2022.1.1,None,
3,0,3,0,1,0,1,0,,,,,,,,1.5237306563066995,frequency,5657.0,0.0,0.00012851831134311055,0,49,[],0.022338169859722257,None,None,158.13784169999417,158.13784169999417,0.2292638699291274,1.7529945262358269,158.358772699954,158.13784169999417,,,,,,,,,cbtxie,001,fr,0,2022-05-05_15h50.30.825,Continuous,2022.1.1,None,
3,0,3,0,2,0,2,0,,,,,,,,2.473592783215146,frequency,4490.0,-3.55517254146754,7.813615181272545e-05,0,50,[],0.022129269898869097,None,['space'],159.90428069990594,159.90428069990594,0.22962436988018453,2.7032171530953306,160.12076949991751,159.90428069990594,[-1.4342655999353155],,,,,,,,cbtxie,001,fr,0,2022-05-05_15h50.30.825,Continuous,2022.1.1,None,
3,0,3,0,3,0,3,0,,,,,,,,2.8439173336906,frequency,3564.0,-3.7934002725121223,4.929221268144442e-05,0,51,[],0.0202446699840948,None,['space'],162.63071179995313,162.63071179995313,0.2373135699890554,3.0812309036796552,162.84616429999005,162.63071179995313,[-2.3674998000497],,,,,,,,cbtxie,001,fr,0,2022-05-05_15h50.30.825,Continuous,2022.1.1,None,
3,0,3,0,4,0,4,0,,,,,,,,1.8254617393186197,frequency,2829.0,1.4945752632582379,7.773933891515042e-05,0,52,[],0.018833069829270244,None,['space'],165.7140196999535,165.7140196999535,0.2274579699151218,2.0529197092337412,165.92894839996006,165.7140196999535,[-2.7149531999602914],,,,,,,,cbtxie,001,fr,0,2022-05-05_15h50.30.825,Continuous,2022.1.1,None,
3,0,3,0,5,0,5,0,,,,,,,,1.1682852366527947,frequency,2245.0,3.4596711562786546,0.00011950592601143953,0,53,[],0.016454769880510867,None,['space'],167.78498629992828,167.78498629992828,0.21554896992165595,1.3838342065744507,168.00200159999076,167.78498629992828,[-1.6830701000289991],,,,,,,,cbtxie,001,fr,0,2022-05-05_15h50.30.825,Continuous,2022.1.1,None,
3,0,3,0,6,0,6,0,,,,,,,,2.6225084069968396,frequency,1782.0,1.406902820373165,7.639190704073521e-05,0,54,[],0.022104169940575957,None,['space'],169.19747399992775,169.19747399992775,0.22737696999683976,2.8498853769936794,169.41556499991566,169.19747399992775,[-1.0619753999635577],,,,,,,,cbtxie,001,fr,0,2022-05-05_15h50.30.825,Continuous,2022.1.1,None,
3,0,3,0,7,0,7,0,,,,,,,,2.9038524641994607,frequency,1414.0,0.856888418938682,5.5667176832514256e-05,0,55,[],0.02208297001197934,None,['space'],172.06273909995798,172.06273909995798,0.23296297003980726,3.136815434239268,172.28283679997548,172.06273909995798,[-0.39131629990879446],,,,,,,,cbtxie,001,fr,0,2022-05-05_15h50.30.825,Continuous,2022.1.1,None,
3,0,3,0,8,0,8,0,,,,,,,,1.627145741283918,frequency,1122.0,0.22308527494913744,5.043419356402429e-05,0,56,[],0.01462296990212053,None,['space'],175.21440279996023,175.21440279996023,0.2155606698943302,1.8427064111782483,175.4271825000178,175.21440279996023,[-0.8241034999955446],,,,,,,,cbtxie,001,fr,0,2022-05-05_15h50.30.825,Continuous,2022.1.1,None,
3,0,3,0,9,0,9,0,,,,,,,,2.813684846027849,frequency,,,,1,56,[],0.022165270056575537,None,None,177.0859327999642,177.0859327999642,0.23842037003487349,3.0521052160627224,177.30268049996812,177.0859327999642,,,,,,,,,cbtxie,001,fr,0,2022-05-05_15h50.30.825,Continuous,2022.1.1,None,
4,0,4,0,0,0,0,0,,,,,0.16666666666666666,183.13115889998153,None,2.125460711190493,frequency,249.0,9.963598115488074,0.0005335814748472339,0,57,[],0.025245769997127354,None,None,184.13384189992212,None,0.23232676996849477,2.357787481158988,184.3533106999239,None,,180.13790169998538,None,,,,,,cbtxie,001,fr,0,2022-05-05_15h50.30.825,Continuous,2022.1.1,None,
4,0,4,0,1,0,1,0,,,,,,,,1.5809190830807247,frequency,222.0,11.110837848340424,0.000799023539247785,0,58,[],0.02166386996395886,None,None,186.49980709992815,186.49980709992815,0.22955036989878863,1.8104694529795133,186.71121239999775,186.49980709992815,,,,,,,,,cbtxie,001,fr,0,2022-05-05_15h50.30.825,Continuous,2022.1.1,None,
4,0,4,0,2,0,2,0,,,,,,,,2.261497115664784,frequency,198.0,13.987273419217594,0.0013648675111240488,0,59,[],0.021947169909253716,None,['space'],188.31287529994734,188.31287529994734,0.2271656699012965,2.4886627855660803,188.5304424999049,188.31287529994734,[-1.3629118000390008],,,,,,,,cbtxie,001,fr,0,2022-05-05_15h50.30.825,Continuous,2022.1.1,None,
4,0,4,0,3,0,3,0,,,,,,,,2.7939784359525683,frequency,176.0,13.40280943379264,0.0016509358727819466,0,60,[],0.01742497005034238,None,['space'],190.82855019997805,190.82855019997805,0.2275453699985519,3.0215238059511202,191.045573099982,190.82855019997805,[-2.166544900042936],,,,,,,,cbtxie,001,fr,0,2022-05-05_15h50.30.825,Continuous,2022.1.1,None,
4,0,4,0,4,0,4,0,,,,,,,,1.9752233333178753,frequency,157.0,9.9588300875275,0.00137799231397766,0,61,[],0.021479369956068695,None,['space'],193.86898449994624,193.86898449994624,0.2379707699874416,2.213194103305317,194.09158090001438,193.86898449994624,[-2.726147499983199],,,,,,,,cbtxie,001,fr,0,2022-05-05_15h50.30.825,Continuous,2022.1.1,None,
4,0,4,0,5,0,5,0,,,,,,,,1.1372181551113583,frequency,140.0,11.191605343059825,0.0021371082826010207,0,62,[],0.021806669887155294,None,['space'],196.09003919991665,196.09003919991665,0.23471546988002956,1.3719336249913878,196.31053379992954,196.09003919991665,[-1.8751713999081403],,,,,,,,cbtxie,001,fr,0,2022-05-05_15h50.30.825,Continuous,2022.1.1,None,
4,0,4,0,6,0,6,0,,,,,,,,2.6747914688749175,frequency,125.0,16.0,0.004560054196779551,0,63,[],0.021889369934797287,None,['space'],197.47118649992626,197.47118649992626,0.23329146986361593,2.9080829387385334,197.6914669999387,197.47118649992626,[-1.0645307999802753],,,,,,,,cbtxie,001,fr,0,2022-05-05_15h50.30.825,Continuous,2022.1.1,None,
4,0,4,0,7,0,7,0,,,,,,,,1.4152419169786514,frequency,,,,1,63,[],0.02124456991441548,None,['space'],200.3907237999374,200.3907237999374,0.23763036995660514,1.6528722869352566,200.6085665000137,200.3907237999374,[-2.4326404000166804],,,,,,,,cbtxie,001,fr,0,2022-05-05_15h50.30.825,Continuous,2022.1.1,None,
5,0,5,0,0,0,0,0,,,,,,203.99537079990841,None,1.9215773708725419,time,446.0,0.3588025746155674,7.733337994923951e-05,0,26,[],0.025073769968003035,None,None,205.0032632999355,None,0.22484597004950047,2.146423340922042,205.21565799997188,None,,202.04900889995042,None,"[0.16666666666666666, 0.3333333333333333, 0.3333333333333333, 0.3333333333333333, 0.3333333333333333, 0.16666666666666666, 0.16666666666666666, 0.5833333333333334, 0.3333333333333333, 0.3333333333333333, 0.3333333333333333, 0.3333333333333333, 0.16666666666666666, 0.3333333333333333, 0.16666666666666666]",,,,,cbtxie,001,fr,0,2022-05-05_15h50.30.825,Continuous,2022.1.1,None,
5,0,5,0,1,0,1,0,,,,,,,,1.9215773708725419,time,354.0,0.0,8.849638639228378e-05,0,27,[],0.02132316993083805,None,None,207.16785139997955,207.16785139997955,0.23525046987924725,2.156827840751789,207.38478919991758,207.16785139997955,,,,,,,,,cbtxie,001,fr,0,2022-05-05_15h50.30.825,Continuous,2022.1.1,None,
5,0,5,0,2,0,2,0,,,,,,,,1.9215773708725419,time,795.0,2.8858807239996747,5.380588797176651e-05,0,28,[],0.016929170000366867,None,None,209.32900899997912,209.32900899997912,0.21690456999931484,2.1384819408718565,209.54571729991585,209.32900899997912,,,,,,,,,cbtxie,001,fr,0,2022-05-05_15h50.30.825,Continuous,2022.1.1,None,
5,0,5,0,3,0,3,0,,,,,,,,1.9215773708725419,time,708.0,0.06999489859977182,4.468325040015802e-05,0,29,[],0.014584069838747382,None,None,211.49969149997924,211.49969149997924,0.2134437698405236,2.1350211407130653,211.72108259995002,211.49969149997924,,,,,,,,,cbtxie,001,fr,0,2022-05-05_15h50.30.825,Continuous,2022.1.1,None,
5,0,5,0,4,0,4,0,,,,,,,,1.9215773708725419,time,167.0,1.9772106285979518,0.00048420415073832944,0,30,[],0.0192475700750947,None,None,213.66399189992808,213.66399189992808,0.2260758699849248,2.1476532408574665,213.87864349992014,213.66399189992808,,,,,,,,,cbtxie,001,fr,0,2022-05-05_15h50.30.825,Continuous,2022.1.1,None,
5,0,5,0,5,0,5,0,,,,,,,,1.9215773708725419,time,1002.0,1.8706500198227247,5.474272792364258e-05,0,31,[],0.02162367000710219,None,None,215.82558419997804,215.82558419997804,0.2305946700507775,2.152172040923319,216.0372552999761,215.82558419997804,,,,,,,,,cbtxie,001,fr,0,2022-05-05_15h50.30.825,Continuous,2022.1.1,None,
5,0,5,0,6,0,6,0,,,,,,,,1.9215773708725419,time,1125.0,1.206086778492739,5.6621632813339075e-05,0,32,[],0.020670069963671267,None,None,217.98293159995228,217.98293159995228,0.22439816989935935,2.145975540771901,218.19934379996266,217.98293159995228,,,,,,,,,cbtxie,001,fr,0,2022-05-05_15h50.30.825,Continuous,2022.1.1,None,
5,0,5,0,7,0,7,0,,,,,,,,1.9215773708725419,time,,,,1,32,[],0.02130247000604868,None,None,220.14728959999047,220.14728959999047,0.2319015699904412,2.153478940862983,220.35862810001709,220.14728959999047,,,,,,,,,cbtxie,001,fr,0,2022-05-05_15h50.30.825,Continuous,2022.1.1,None,
5,0,5,0,8,0,8,0,,,,,,,,1.9215773708725419,time,281.0,0.9032170471042527,0.00014939577488781394,0,33,[],0.02254267001990229,None,None,222.30294069997035,222.30294069997035,0.2355383699759841,2.1571157408485258,222.51992160000373,222.30294069997035,,,,,,,,,cbtxie,001,fr,0,2022-05-05_15h50.30.825,Continuous,2022.1.1,None,
5,0,5,0,9,0,9,0,,,,,,,,1.9215773708725419,time,188.0,1.732112953648305,0.00037737160001533515,0,34,[],0.015912969945929945,None,None,224.47179099998903,224.47179099998903,0.220689469948411,2.1422668408209526,224.69239219999872,224.47179099998903,,,,,,,,,cbtxie,001,fr,0,2022-05-05_15h50.30.825,Continuous,2022.1.1,None,
5,0,5,0,10,0,10,0,,,,,,,,1.9215773708725419,time,149.0,2.920206932331917,0.0007124801210440483,0,35,[],0.020982769900001585,None,None,226.63784559990745,226.63784559990745,0.22964796994347125,2.151225340816013,226.8612865000032,226.63784559990745,,,,,,,,,cbtxie,001,fr,0,2022-05-05_15h50.30.825,Continuous,2022.1.1,None,
6,0,6,0,0,0,0,0,,,,,,235.75673999998253,None,2.709284965172793,none,1447.0,-8.067742555776091,1.959996429291058e-05,0,37,[],0.0249931700527668,None,None,236.78089990001172,None,0.22305657004471868,2.9323415352175117,236.99329839996062,None,,228.8030371000059,None,"[0.16666666666666666, 0.5833333333333334, 0.16666666666666666, 0.16666666666666666, 0.5833333333333334, 0.5833333333333334, 0.5833333333333334, 0.16666666666666666, 0.3333333333333333, 0.3333333333333333, 0.16666666666666666, 0.16666666666666666, 0.3333333333333333, 0.3333333333333333, 0.3333333333333333]",,,,,cbtxie,001,fr,0,2022-05-05_15h50.30.825,Continuous,2022.1.1,None,
6,0,6,0,1,0,1,0,,,,,,,,2.839636429760027,none,767.0,-5.147822550350548,2.2041408268040917e-05,0,38,[],0.020789169939234853,None,None,239.72091309993993,239.72091309993993,0.22625736996997148,3.0658937997299986,239.93862859997898,239.72091309993993,,,,,,,,,cbtxie,001,fr,0,2022-05-05_15h50.30.825,Continuous,2022.1.1,None,
6,0,6,0,2,0,2,0,,,,,,,,2.352706683827882,none,4595.0,-10.0,3.9490423645624484e-05,0,39,[],0.021003969945013523,None,None,242.80154000001494,242.80154000001494,0.23114666994661093,2.5838533537744928,243.01755099999718,242.80154000001494,,,,,,,,,cbtxie,001,fr,0,2022-05-05_15h50.30.825,Continuous,2022.1.1,None,
6,0,6,0,3,0,3,0,,,,,,,,2.8327964085918067,none,5789.0,-9.511711568229863,4.136288080597557e-05,0,40,[],0.017587270005606115,None,None,245.39711389993317,245.39711389993317,0.22181307000573725,3.054609478597544,245.61557919997722,245.39711389993317,,,,,,,,,cbtxie,001,fr,0,2022-05-05_15h50.30.825,Continuous,2022.1.1,None,
6,0,6,0,4,0,4,0,,,,,,,,2.349068613141205,none,6498.0,-7.736483124271922,5.581438462631062e-05,0,41,[],0.020765569992363453,None,['space'],248.47716050001327,248.47716050001327,0.23172037000767887,2.5807889831488837,248.69974969991017,248.47716050001327,[-2.582881400012411],,,,,,,,cbtxie,001,fr,0,2022-05-05_15h50.30.825,Continuous,2022.1.1,None,
6,0,6,0,5,0,5,0,,,,,,,,2.625463452773677,none,966.0,3.481886769743859,6.433266351578917e-05,0,42,[],0.016526069957762957,None,None,251.07014219998382,251.07014219998382,0.21604696998838335,2.8415104227620605,251.2906807999825,251.07014219998382,,,,,,,,,cbtxie,001,fr,0,2022-05-05_15h50.30.825,Continuous,2022.1.1,None,
6,0,6,0,6,0,6,0,,,,,,,,1.842267197975318,none,,,,1,42,[],0.020973569829948246,None,['space'],253.94678679993376,253.94678679993376,0.23150246986187994,2.073769667837198,254.16531850001775,253.94678679993376,[-2.3884088000049815],,,,,,,,cbtxie,001,fr,0,2022-05-05_15h50.30.825,Continuous,2022.1.1,None,
6,0,6,0,7,0,7,0,,,,,,,,2.7818677263302316,none,3647.0,-6.51898252334976,3.6704180757157824e-05,0,43,[],0.0215793700190261,None,None,256.03198540001176,256.03198540001176,0.22781366994604468,3.0096813962762763,256.2490672999993,256.03198540001176,,,,,,,,,cbtxie,001,fr,0,2022-05-05_15h50.30.825,Continuous,2022.1.1,None,
6,0,6,0,8,0,8,0,,,,,,,,1.2414126601318705,none,7294.0,-2.939933887206646,0.00011415607371498778,0,44,[],0.018741970066912472,None,None,259.0597948000068,259.0597948000068,0.21995327004697174,1.4613659301788422,259.2811050999444,259.0597948000068,,,,,,,,,cbtxie,001,fr,0,2022-05-05_15h50.30.825,Continuous,2022.1.1,None,
6,0,6,0,9,0,9,0,,,,,,,,2.5375877754348886,none,2168.0,-6.407587577674827,3.755681556687946e-05,0,45,[],0.019169169827364385,None,None,260.5667135999538,260.5667135999538,0.23048296989873052,2.768070745333619,260.7756115999073,260.5667135999538,,,,,,,,,cbtxie,001,fr,0,2022-05-05_15h50.30.825,Continuous,2022.1.1,None,
6,0,6,0,10,0,10,0,,,,,,,,2.0379221815002317,none,3249.0,-8.131904485952553,2.7744353738871888e-05,0,46,[],0.014901369926519692,None,None,263.34039109991863,263.34039109991863,0.2206463699694723,2.258568551469704,263.55904299998656,263.34039109991863,,,,,,,,,cbtxie,001,fr,0,2022-05-05_15h50.30.825,Continuous,2022.1.1,None,
6,0,6,0,11,0,11,0,,,,,,,,2.305767813351768,none,512.0,3.7373341757204326,0.00010698072233386199,0,47,[],0.01917046995367855,None,None,265.6166053999914,265.6166053999914,0.2232558699324727,2.5290236832842408,265.8365480999928,265.6166053999914,,,,,,,,,cbtxie,001,fr,0,2022-05-05_15h50.30.825,Continuous,2022.1.1,None,
7,0,7,0,0,0,0,0,,,,,,271.4484951000195,None,1.2477125128093591,time,5401.0,-7.239705632860572,5.994647553726189e-05,0,36,[],0.024990470032207668,None,None,272.4711548999185,None,0.24799346993677318,1.4957059827461323,272.69765129999723,None,,268.16348390001804,None,"[0.5833333333333334, 0.16666666666666666, 0.5833333333333334, 0.16666666666666666, 0.3333333333333333, 0.3333333333333333, 0.16666666666666666, 0.16666666666666666, 0.3333333333333333, 0.16666666666666666, 0.16666666666666666, 0.5833333333333334, 0.5833333333333334, 0.3333333333333333, 0.5833333333333334]",,,,,cbtxie,001,fr,0,2022-05-05_15h50.30.825,Continuous,2022.1.1,None,
7,0,7,0,1,0,1,0,,,,,,,,1.2477125128093591,time,1516.0,-1.7331278989545225,4.0672399927965466e-05,0,37,[],0.015665569924749434,None,None,273.9628040000098,273.9628040000098,0.218381269951351,1.4660937827607101,274.1778629999608,273.9628040000098,,,,,,,,,cbtxie,001,fr,0,2022-05-05_15h50.30.825,Continuous,2022.1.1,None,
7,0,7,0,2,0,2,0,,,,,,,,1.2477125128093591,time,,,,1,37,[],0.020683769951574504,None,None,275.46157489996403,275.46157489996403,0.22736086999066174,1.4750733828000209,275.67573609994724,275.46157489996403,,,,,,,,,cbtxie,001,fr,0,2022-05-05_15h50.30.825,Continuous,2022.1.1,None,
7,0,7,0,3,0,3,0,,,,,,,,1.2477125128093591,time,1702.0,-5.592385185781399,3.2228411063811486e-05,0,38,[],0.020062969997525215,None,['space'],276.94727140001487,276.94727140001487,0.22655026998836547,1.4742627827977246,277.1680649999762,276.94727140001487,[0.08259630005341023],,,,,,,,cbtxie,001,fr,0,2022-05-05_15h50.30.825,Continuous,2022.1.1,None,
7,0,7,0,4,0,4,0,,,,,,,,1.2477125128093591,time,4812.0,-9.657481887792374,4.59902600439182e-05,0,39,[],0.019881869899109006,None,None,278.4463713999139,278.4463713999139,0.20671746984589845,1.4544299826552576,278.64732849993743,278.4463713999139,,,,,,,,,cbtxie,001,fr,0,2022-05-05_15h50.30.825,Continuous,2022.1.1,None,
7,0,7,0,5,0,5,0,,,,,,,,1.2477125128093591,time,1012.0,1.5373611542634134,5.318122739626376e-05,0,40,[],0.019990470027551055,None,None,279.9294969999464,279.9294969999464,0.22685997001826763,1.4745724828276268,280.1416091999272,279.9294969999464,,,,,,,,,cbtxie,001,fr,0,2022-05-05_15h50.30.825,Continuous,2022.1.1,None,
7,0,7,0,6,0,6,0,,,,,,,,1.2477125128093591,time,2701.0,0.35388738992923585,7.645714465833524e-05,0,41,[],0.020098370034247637,None,['space'],281.4197704999242,281.4197704999242,0.229103869991377,1.4768163828007361,281.6371363999788,281.4197704999242,[-0.7736067000078037],,,,,,,,cbtxie,001,fr,0,2022-05-05_15h50.30.825,Continuous,2022.1.1,None,
7,0,7,0,7,0,7,0,,,,,,,,1.2477125128093591,time,4287.0,-7.0,4.631549657275313e-05,0,42,[],0.014629469835199416,None,None,282.907892899937,282.907892899937,0.2152372698765248,1.462949782685884,283.1270544999279,282.907892899937,,,,,,,,,cbtxie,001,fr,0,2022-05-05_15h50.30.825,Continuous,2022.1.1,None,
7,0,7,0,8,0,8,0,,,,,,,,1.2477125128093591,time,3403.0,-6.012250746834061,3.676552392990599e-05,0,43,[],0.0162856699898839,0.21355936990585178,['space'],284.406707999995,284.406707999995,0.21355936990585178,1.461271882715211,284.6243220999604,284.406707999995,[-0.7841666999738663],,,,,,,,cbtxie,001,fr,0,2022-05-05_15h50.30.825,Continuous,2022.1.1,None,
7,0,7,0,9,0,9,0,,,,,,,,1.2477125128093591,time,2144.0,-2.1160654192169206,6.113823256406861e-05,0,44,[],0.012063469970598817,None,None,285.8982340999646,285.8982340999646,0.2119319699704647,1.4596444827798238,286.1142733999295,285.8982340999646,,,,,,,,,cbtxie,001,fr,0,2022-05-05_15h50.30.825,Continuous,2022.1.1,None,
7,0,7,0,10,0,10,0,,,,,,,,1.2477125128093591,time,3032.0,-6.047297317920028,2.883734826253118e-05,0,45,[],0.01379316987004131,0.20318676996976137,None,287.3962271999335,287.3962271999335,0.20318676996976137,1.4508992827791205,287.610689299996,287.3962271999335,,,,,,,,,cbtxie,001,fr,0,2022-05-05_15h50.30.825,Continuous,2022.1.1,None,
8,0,8,0,0,0,0,0,,,,,,295.03442499996163,None,1.4337833113403844,none,198.0,6.835482587628983,0.000599102255327853,0,48,[],0.02466577000450343,None,['space'],296.06630569999106,None,0.238576169940643,1.6723594812810274,296.2820568999741,None,[-1.6766483000246808],288.8899162999587,None,"[0.3333333333333333, 0.16666666666666666, 0.3333333333333333, 0.3333333333333333, 0.3333333333333333, 0.3333333333333333, 0.3333333333333333, 0.5833333333333334, 0.16666666666666666, 0.3333333333333333, 0.3333333333333333, 0.16666666666666666, 0.3333333333333333, 0.16666666666666666, 0.5833333333333334]",,,,,cbtxie,001,fr,0,2022-05-05_15h50.30.825,Continuous,2022.1.1,None,
8,0,8,0,1,0,1,0,,,,,,,,2.3652850099347127,none,470.0,6.692525716117987,0.0001576942526777914,0,49,[],0.01920416997745633,None,None,297.7433248999296,297.7433248999296,0.22456627001520246,2.589851279949915,297.9556589999702,297.7433248999296,,,,,,,,,cbtxie,001,fr,0,2022-05-05_15h50.30.825,Continuous,2022.1.1,None,
8,0,8,0,2,0,2,0,,,,,,,,1.0572212834911627,none,,,,1,49,[],0.019347069901414216,None,['space'],300.3540575999068,300.3540575999068,0.23077736992854625,1.287998653419709,300.5763364000013,300.3540575999068,[-2.2517676999559626],,,,,,,,cbtxie,001,fr,0,2022-05-05_15h50.30.825,Continuous,2022.1.1,None,
8,0,8,0,3,0,3,0,,,,,,,,2.627483548552311,none,125.0,7.0,0.0016179682846481417,0,50,[],0.01922667003236711,None,None,301.6564581999555,301.6564581999555,0.22549147007521242,2.8529750186275233,301.87899150000885,301.6564581999555,,,,,,,,,cbtxie,001,fr,0,2022-05-05_15h50.30.825,Continuous,2022.1.1,None,
8,0,8,0,4,0,4,0,,,,,,,,2.2230544927571927,none,314.0,7.458959451098246,0.00023526557262132996,0,51,[],0.017190370010212064,None,None,304.53746989998035,304.53746989998035,0.22697366995271295,2.4500281627099056,304.75186449999455,304.53746989998035,,,,,,,,,cbtxie,001,fr,0,2022-05-05_15h50.30.825,Continuous,2022.1.1,None,
8,0,8,0,5,0,5,0,,,,,,,,1.109283316330591,none,280.0,7.0,0.0003037954672864256,0,52,[],0.014803569996729493,None,None,306.9991106999805,306.9991106999805,0.2176364699844271,1.3269197863150182,307.2180404999526,306.9991106999805,,,,,,,,,cbtxie,001,fr,0,2022-05-05_15h50.30.825,Continuous,2022.1.1,None,
8,0,8,0,6,0,6,0,,,,,,,,2.6277630529252303,none,157.0,8.693261427298378,0.001191155230736519,0,53,[],0.019784469972364604,None,['space'],308.35680569999386,308.35680569999386,0.2336188699118793,2.8613819228371096,308.57604569999967,308.35680569999386,[-0.7976855000015348],,,,,,,,cbtxie,001,fr,0,2022-05-05_15h50.30.825,Continuous,2022.1.1,None,
8,0,8,0,7,0,7,0,,,,,,,,1.80179067703691,none,222.0,6.756602851617326,0.0004840027441712028,0,54,[],0.019613770069554448,None,['space'],311.2290195999667,311.2290195999667,0.22614267002791166,2.0279333470648218,311.44917699997313,311.2290195999667,[0.16943909996189177],,,,,,,,cbtxie,001,fr,0,2022-05-05_15h50.30.825,Continuous,2022.1.1,None,
9,0,9,0,0,0,0,0,,,,,,317.4972400999395,None,2.979498305156782,none,3102.0,2.3274100086847462,8.42894870147726e-05,0,55,[],0.02509226999245584,None,None,318.51739249995444,None,0.24028137000277638,3.2197796751595584,318.73220570001286,None,,313.2805979999248,None,"[0.3333333333333333, 0.3333333333333333, 0.3333333333333333, 0.5833333333333334, 0.3333333333333333, 0.16666666666666666, 0.16666666666666666, 0.16666666666666666, 0.16666666666666666, 0.3333333333333333, 0.3333333333333333, 0.5833333333333334, 0.5833333333333334, 0.3333333333333333, 0.3333333333333333]",,,,,cbtxie,001,fr,0,2022-05-05_15h50.30.825,Continuous,2022.1.1,None,
9,0,9,0,1,0,1,0,,,,,,,,2.05488821662889,none,517.0,5.9711112573236,0.00013680370677824236,0,56,[],0.018918170011602342,None,['space'],321.7380881999852,321.7380881999852,0.24285396991763264,2.2977421865465226,321.96733439993113,321.7380881999852,[-2.7719623000593856],,,,,,,,cbtxie,001,fr,0,2022-05-05_15h50.30.825,Continuous,2022.1.1,None,
9,0,9,0,2,0,2,0,,,,,,,,2.1666573571639387,none,822.0,5.236425546343435,7.125443189008433e-05,0,57,[],0.018163469969294965,None,['space'],324.0456395999063,324.0456395999063,0.22285226988606155,2.3895096270500003,324.26463519991376,324.0456395999063,[-1.9114286999683827],,,,,,,,cbtxie,001,fr,0,2022-05-05_15h50.30.825,Continuous,2022.1.1,None,
9,0,9,0,3,0,3,0,,,,,,,,2.8829298021369647,none,,,,1,57,[],0.011757269967347383,None,['space'],326.45678889995907,326.45678889995907,0.21231786999851465,3.0952476721354794,326.67459999991115,326.45678889995907,[-1.9871803999412805],,,,,,,,cbtxie,001,fr,0,2022-05-05_15h50.30.825,Continuous,2022.1.1,None,
9,0,9,0,4,0,4,0,,,,,,,,1.3241599909140134,none,1551.0,1.4268796021614623,6.200414470899954e-05,0,58,[],0.01672886998858303,None,None,329.5872184999753,329.5872184999753,0.21793336991686374,1.5420933608308771,329.8072877000086,329.5872184999753,,,,,,,,,cbtxie,001,fr,0,2022-05-05_15h50.30.825,Continuous,2022.1.1,None,
9,0,9,0,5,0,5,0,,,,,,,,1.9171596673055806,none,5855.0,2.404362409318219,0.00015987513825665257,0,59,[],0.012099470011889935,None,None,331.1627787000034,331.1627787000034,0.21189387002959847,2.129053537335179,331.3827380000148,331.1627787000034,,,,,,,,,cbtxie,001,fr,0,2022-05-05_15h50.30.825,Continuous,2022.1.1,None,
9,0,9,0,6,0,6,0,,,,,,,,1.474158471155504,none,2193.0,4.354912549928872,0.00013057726512256607,0,60,[],0.019016870064660907,None,['space'],333.3367483000038,333.3367483000038,0.2236003699945286,1.6977588411500326,333.5425186000066,333.3367483000038,[-1.8430776000022888],,,,,,,,cbtxie,001,fr,0,2022-05-05_15h50.30.825,Continuous,2022.1.1,None,
9,0,9,0,7,0,7,0,,,,,,,,1.261653567361268,none,2462.0,5.0,0.00015124811065779221,0,61,[],0.018907469930127263,None,['space'],335.05218160001095,335.05218160001095,0.238274069968611,1.499927637329879,335.2771974999923,335.05218160001095,[-1.2380686999531463],,,,,,,,cbtxie,001,fr,0,2022-05-05_15h50.30.825,Continuous,2022.1.1,None,
9,0,9,0,8,0,8,0,,,,,,,,2.812995815779538,none,652.0,6.20702402550596,0.00010060713049180308,0,62,[],0.016386870061978698,None,['space'],336.56166809995193,336.56166809995193,0.21514947002287954,3.0281452858024176,336.77849359996617,336.56166809995193,[-1.211470799986273],,,,,,,,cbtxie,001,fr,0,2022-05-05_15h50.30.825,Continuous,2022.1.1,None,
9,0,9,0,9,0,9,0,,,,,,,,2.398169597865963,none,3908.0,-0.8797156664134009,7.439558012231246e-05,0,63,[],0.013319269986823201,None,['space'],339.6188252000138,339.6188252000138,0.2079166698968038,2.606086267762767,339.8349305000156,339.6188252000138,[-2.7164884000085294],,,,,,,,cbtxie,001,fr,0,2022-05-05_15h50.30.825,Continuous,2022.1.1,None,
9,0,9,0,10,0,10,0,,,,,,,,1.6819990295122036,none,1741.0,4.107056536250582,0.00010127448887105646,0,64,[],0.018530969973653555,None,['space'],342.2633140999824,342.2633140999824,0.22621776990126818,1.9082167994134718,342.47917730000336,342.2633140999824,[-2.3854995999718085],,,,,,,,cbtxie,001,fr,0,2022-05-05_15h50.30.825,Continuous,2022.1.1,None,
9,0,9,0,11,0,11,0,,,,,,,,2.475525179044323,none,1231.0,2.2007073793822918,6.920332817463784e-05,0,65,[],0.015275369980372488,0.212051669950597,None,344.1844914999092,344.1844914999092,0.212051669950597,2.68757684899492,344.3986487999791,344.1844914999092,,,,,,,,,cbtxie,001,fr,0,2022-05-05_15h50.30.825,Continuous,2022.1.1,None,
10,0,10,0,0,0,0,0,,,,,0.16666666666666666,351.19930989993736,None,2.2907786798139815,frequency,1320.0,9.965898656569797,0.00016622378625681742,0,64,[],0.02498666988685727,None,['space'],352.22572049999144,None,0.24507126992102712,2.5358499497350087,352.44783650001045,None,[-1.8355787999462336],346.9006128999172,None,,,,,,cbtxie,001,fr,0,2022-05-05_15h50.30.825,Continuous,2022.1.1,None,
10,0,10,0,1,0,1,0,,,,,,,,2.97074202073254,frequency,1176.0,8.059031418645894,0.00013002687096047092,0,65,[],0.017531969933770597,None,['space'],354.7604493999388,354.7604493999388,0.22159746999386698,3.192339490726407,354.98142379999626,354.7604493999388,[-2.1626602000324056],,,,,,,,cbtxie,001,fr,0,2022-05-05_15h50.30.825,Continuous,2022.1.1,None,
10,0,10,0,2,0,2,0,,,,,,,,2.1075476552167576,frequency,1048.0,5.180927343158201,8.363184418081345e-05,0,66,[],0.018312070053070784,None,['space'],357.97739259991795,357.97739259991795,0.22227897006087005,2.3298266252776276,358.19192050001584,357.97739259991795,[-2.9779589999234304],,,,,,,,cbtxie,001,fr,0,2022-05-05_15h50.30.825,Continuous,2022.1.1,None,
10,0,10,0,3,0,3,0,,,,,,,,1.5081060162003008,frequency,934.0,5.2593901531723795,7.727537001407044e-05,0,67,[],0.018735569901764393,None,['space'],360.3344081999967,360.3344081999967,0.23015086993109435,1.7382568861313952,360.5446866999846,360.3344081999967,[-1.5928013001102954],,,,,,,,cbtxie,001,fr,0,2022-05-05_15h50.30.825,Continuous,2022.1.1,None,
10,0,10,0,4,0,4,0,,,,,,,,1.8924444159543887,frequency,832.0,8.07799523617661,9.955072155908601e-05,0,68,[],0.018312969943508506,None,['space'],362.0858188999118,362.0858188999118,0.22961446992121637,2.122058885875605,362.30208609998226,362.0858188999118,[-1.4552953999955207],,,,,,,,cbtxie,001,fr,0,2022-05-05_15h50.30.825,Continuous,2022.1.1,None,
10,0,10,0,5,0,5,0,,,,,,,,1.4196476260000055,frequency,741.0,7.214337376079987,9.506918476920798e-05,0,69,[],0.014063469949178398,None,['space'],364.2256579999812,364.2256579999812,0.21849527000449598,1.6381428960045015,364.44024699996226,364.2256579999812,[-1.8519970000488684],,,,,,,,cbtxie,001,fr,0,2022-05-05_15h50.30.825,Continuous,2022.1.1,None,
10,0,10,0,6,0,6,0,,,,,,,,2.505025900455315,frequency,660.0,15.0,0.0002729260002032934,0,70,[],0.014703769818879664,None,['space'],365.8924437999958,365.8924437999958,0.21806106984149665,2.7230869702968117,366.1093648999231,365.8924437999958,[-1.3903829000191763],,,,,,,,cbtxie,001,fr,0,2022-05-05_15h50.30.825,Continuous,2022.1.1,None,
10,0,10,0,7,0,7,0,,,,,,,,2.4588326223293295,frequency,,,,1,70,[],0.014906569849699736,None,['space'],368.64718309999444,368.64718309999444,0.21277566987555474,2.6716082922048843,368.8631570999278,368.64718309999444,[-2.497361100045964],,,,,,,,cbtxie,001,fr,0,2022-05-05_15h50.30.825,Continuous,2022.1.1,None,
10,0,10,0,8,0,8,0,,,,,,,,1.9652284585289372,frequency,524.0,7.75079035976595,0.00016524662819891834,0,71,[],0.016168970032595098,None,None,371.35190899996087,371.35190899996087,0.21790167002473027,2.1831301285536675,371.5707075999817,371.35190899996087,,,,,,,,,cbtxie,001,fr,0,2022-05-05_15h50.30.825,Continuous,2022.1.1,None,
10,0,10,0,9,0,9,0,,,,,,,,2.8020708632674163,frequency,467.0,8.434320720600144,0.00019311539606633416,0,72,[],0.011500169988721609,None,['space'],373.57368639996275,373.57368639996275,0.20945596997626126,3.0115268332436775,373.789752200013,373.57368639996275,[-1.888035700074397],,,,,,,,cbtxie,001,fr,0,2022-05-05_15h50.30.825,Continuous,2022.1.1,None,
10,0,10,0,10,0,10,0,,,,,,,,2.692257300826964,frequency,416.0,14.28671140670177,0.0003923220027933379,0,73,[],0.010030669975094497,None,None,376.63020209991373,376.63020209991373,0.21294746990315616,2.90520477073012,376.8540413000155,376.63020209991373,,,,,,,,,cbtxie,001,fr,0,2022-05-05_15h50.30.825,Continuous,2022.1.1,None,
10,0,10,0,11,0,11,0,,,,,,,,2.355189752229732,frequency,371.0,10.686313430635419,0.0002877557720444106,0,74,[],0.010867569944821298,None,['space'],379.580223799916,379.580223799916,0.2081512699369341,2.563341022166666,379.7990938000148,379.580223799916,[-2.66137909993995],,,,,,,,cbtxie,001,fr,0,2022-05-05_15h50.30.825,Continuous,2022.1.1,None,
10,0,10,0,12,0,12,0,,,,,,,,2.7264960238611184,frequency,331.0,10.1043698881284,0.00030234335291884855,0,75,[],0.01715396996587515,None,['space'],382.1907076999778,382.1907076999778,0.21954536996781826,2.9460413938289367,382.41169989993796,382.1907076999778,[-2.2169541000621393],,,,,,,,cbtxie,001,fr,0,2022-05-05_15h50.30.825,Continuous,2022.1.1,None,
10,0,10,0,13,0,13,0,,,,,,,,1.086761406572236,frequency,295.0,10.170836978298883,0.00038639583646170507,0,76,[],0.010445269988849759,0.20311416999902576,['space'],385.1703641999047,385.1703641999047,0.20311416999902576,1.2898755765712617,385.3823561000172,385.1703641999047,[-2.6670322000281885],,,,,,,,cbtxie,001,fr,0,2022-05-05_15h50.30.825,Continuous,2022.1.1,None,
10,0,10,0,14,0,14,0,,,,,,,,2.0902239982211315,frequency,263.0,9.863100832359287,0.00047847395532366673,0,77,[],0.013664869940839708,None,['space'],386.5024099999573,386.5024099999573,0.21462846989743412,2.3048524681185656,386.7183502999833,386.5024099999573,[-0.9912745000328869],,,,,,,,cbtxie,001,fr,0,2022-05-05_15h50.30.825,Continuous,2022.1.1,None,
11,0,11,0,0,0,0,0,,,,,,395.685467400006,None,1.4713689995449608,none,842.0,14.225055839372367,0.0002034832882838874,0,66,[],0.025007369928061962,None,['space'],396.69715499994345,None,0.23002056987024844,1.7013895694152092,396.9117527999915,None,[-3.187495499965735],388.8453752999194,None,"[0.16666666666666666, 0.3333333333333333, 0.5833333333333334, 0.3333333333333333, 0.3333333333333333, 0.5833333333333334, 0.5833333333333334, 0.5833333333333334, 0.5833333333333334, 0.3333333333333333, 0.5833333333333334, 0.3333333333333333, 0.5833333333333334, 0.5833333333333334, 0.16666666666666666]",,,,,cbtxie,001,fr,0,2022-05-05_15h50.30.825,Continuous,2022.1.1,None,
11,0,11,0,1,0,1,0,,,,,,,,2.992542766234917,none,668.0,12.31026949331817,0.00019734902484780652,0,67,[],0.016549869906157255,None,['space'],398.40744719991926,398.40744719991926,0.23095356998965144,3.2234963362245685,398.6286958999699,398.40744719991926,[-1.2818930000066757],,,,,,,,cbtxie,001,fr,0,2022-05-05_15h50.30.825,Continuous,2022.1.1,None,
11,0,11,0,2,0,2,0,,,,,,,,1.7027753759282238,none,1891.0,3.995922901367365,0.00011071635304581432,0,68,[],0.01251667004544288,None,['space'],401.6506403000094,401.6506403000094,0.22616416995879263,1.9289395458870164,401.8757601999678,401.6506403000094,[-2.9723004000261426],,,,,,,,cbtxie,001,fr,0,2022-05-05_15h50.30.825,Continuous,2022.1.1,None,
11,0,11,0,3,0,3,0,,,,,,,,1.0033082680271308,none,,,,1,68,[],0.010464369901455939,None,['space'],403.6076453999849,403.6076453999849,0.21711216995026916,1.2204204379774,403.8347270999802,403.6076453999849,[-1.6182100999867544],,,,,,,,cbtxie,001,fr,0,2022-05-05_15h50.30.825,Continuous,2022.1.1,None,
11,0,11,0,4,0,4,0,,,,,,,,1.2428305147678955,none,1262.0,17.5209894408193,0.00040751099000577265,0,69,[],0.01260656991507858,None,None,404.8761833999306,404.8761833999306,0.22583567001856863,1.4686661847864642,405.0965947000077,404.8761833999306,,,,,,,,,cbtxie,001,fr,0,2022-05-05_15h50.30.825,Continuous,2022.1.1,None,
11,0,11,0,5,0,5,0,,,,,,,,2.142917238548971,none,2123.0,13.070843604231122,0.00034918757076307053,0,70,[],0.017444469965994358,None,['space'],406.3657034999924,406.3657034999924,0.2285627699457109,2.371480008494682,406.58171810000204,406.3657034999924,[-1.2394372000126168],,,,,,,,cbtxie,001,fr,0,2022-05-05_15h50.30.825,Continuous,2022.1.1,None,
11,0,11,0,6,0,6,0,,,,,,,,1.908410117792763,none,236.0,16.062641807749387,0.0012387089839285936,0,71,[],0.012884670053608716,None,['space'],408.75397909991443,408.75397909991443,0.21846777002792805,2.126877887820691,408.9744434999302,408.75397909991443,[-2.1076496999012306],,,,,,,,cbtxie,001,fr,0,2022-05-05_15h50.30.825,Continuous,2022.1.1,None,
11,0,11,0,7,0,7,0,,,,,,,,1.4437122699759692,none,354.0,18.0,0.0007029517838246072,0,72,[],0.0175817699637264,None,['space'],410.9199394999305,410.9199394999305,0.22321146994363517,1.6669237399196044,411.1364922999637,410.9199394999305,[-1.842519999947399],,,,,,,,cbtxie,001,fr,0,2022-05-05_15h50.30.825,Continuous,2022.1.1,None,
11,0,11,0,8,0,8,0,,,,,,,,1.8066439986092944,none,158.0,11.211187049965783,0.001559346730161127,0,73,[],0.017369469976983964,None,['space'],412.6048049000092,412.6048049000092,0.22086687001865357,2.0275108686279477,412.82555880001746,412.6048049000092,[-1.4619140999857336],,,,,,,,cbtxie,001,fr,0,2022-05-05_15h50.30.825,Continuous,2022.1.1,None,
11,0,11,0,9,0,9,0,,,,,,,,2.6380160461275373,none,446.0,15.26262274253886,0.0004300886684621751,0,74,[],0.017535370076075196,None,['space'],414.6566711999476,414.6566711999476,0.22003657009918243,2.8580526162267197,414.87441669998225,414.6566711999476,[-1.7072097000200301],,,,,,,,cbtxie,001,fr,0,2022-05-05_15h50.30.825,Continuous,2022.1.1,None,
12,0,12,0,0,0,0,0,,,,,,427.34807680000085,None,2.7159845460860357,time,1587.0,8.812550968473674,0.0001535008113445707,0,46,[],0.024790269904769957,None,None,428.36533119995147,None,0.22179706988390535,2.937781615969941,428.5781616999302,None,,417.5419159999583,None,"[0.3333333333333333, 0.3333333333333333, 0.16666666666666666, 0.3333333333333333, 0.16666666666666666, 0.16666666666666666, 0.16666666666666666, 0.3333333333333333, 0.5833333333333334, 0.5833333333333334, 0.16666666666666666, 0.3333333333333333, 0.5833333333333334, 0.5833333333333334, 0.3333333333333333]",,,,,cbtxie,001,fr,0,2022-05-05_15h50.30.825,Continuous,2022.1.1,None,
12,0,12,0,1,0,1,0,,,,,,,,2.7159845460860357,time,,,,1,46,[],0.0166515699820593,None,['space'],431.3230316999834,431.3230316999834,0.223841069964692,2.9398256160507277,431.5402285999153,431.3230316999834,[-0.2761138000059873],,,,,,,,cbtxie,001,fr,0,2022-05-05_15h50.30.825,Continuous,2022.1.1,None,
12,0,12,0,2,0,2,0,,,,,,,,2.7159845460860357,time,1999.0,4.7365064298567825,0.00012898319355300616,0,47,[],0.015430069994181395,0.2131733699934557,None,434.2807631000178,434.2807631000178,0.2131733699934557,2.9291579160794914,434.50138399994466,434.2807631000178,,,,,,,,,cbtxie,001,fr,0,2022-05-05_15h50.30.825,Continuous,2022.1.1,None,
12,0,12,0,3,0,3,0,,,,,,,,2.7159845460860357,time,561.0,9.710133677045002,0.00018940806781094017,0,48,[],0.015667969943024218,None,None,437.24815080000553,437.24815080000553,0.21764676994644105,2.9336313160324767,437.4643541999394,437.24815080000553,,,,,,,,,cbtxie,001,fr,0,2022-05-05_15h50.30.825,Continuous,2022.1.1,None,
12,0,12,0,4,0,4,0,,,,,,,,2.7159845460860357,time,1059.0,8.860045403165811,0.00012901620224088417,0,49,[],0.016628569923341274,None,['space'],440.2184984999476,440.2184984999476,0.22237966989632696,2.9383642159823626,440.43106199998874,440.2184984999476,[-2.6283296999754384],,,,,,,,cbtxie,001,fr,0,2022-05-05_15h50.30.825,Continuous,2022.1.1,None,
12,0,12,0,5,0,5,0,,,,,,,,2.7159845460860357,time,223.0,9.555960751352904,0.0006621736476019757,0,50,[],0.014006069977767766,None,['space'],443.17200419993605,443.17200419993605,0.21218826994299889,2.9281728160290346,443.39492079999764,443.17200419993605,[-2.6376041000476107],,,,,,,,cbtxie,001,fr,0,2022-05-05_15h50.30.825,Continuous,2022.1.1,None,
12,0,12,0,6,0,6,0,,,,,,,,2.7159845460860357,time,500.0,6.3742688893312405,0.00014882758987046078,0,51,[],0.01658187003340572,None,['space'],446.1356688999804,446.1356688999804,0.22211957001127303,2.9381041160973087,446.3486999999732,446.1356688999804,[-2.5938543000956997],,,,,,,,cbtxie,001,fr,0,2022-05-05_15h50.30.825,Continuous,2022.1.1,None,
12,0,12,0,7,0,7,0,,,,,,,,2.7159845460860357,time,126.0,11.08941800762166,0.002558926603031757,0,52,[],0.014857070054858923,None,['space'],449.0946895999368,449.0946895999368,0.2145826700143516,2.9305672161003873,449.31095959991217,449.0946895999368,[-2.6728790999623016],,,,,,,,cbtxie,001,fr,0,2022-05-05_15h50.30.825,Continuous,2022.1.1,None,
12,0,12,0,8,0,8,0,,,,,,,,2.7159845460860357,time,177.0,11.0,0.001239035698041918,0,53,[],0.013499970082193613,None,['space'],452.0521407999331,452.0521407999331,0.21254527010023594,2.9285298161862716,452.2669627999421,452.0521407999331,[-2.622196300071664],,,,,,,,cbtxie,001,fr,0,2022-05-05_15h50.30.825,Continuous,2022.1.1,None,
12,0,12,0,9,0,9,0,,,,,,,,2.7159845460860357,time,158.0,9.752909424971513,0.001318344199409963,0,54,[],0.012972869910299778,None,['space'],455.0188709999202,455.0188709999202,0.21940486994571984,2.9353894160317555,455.2389826999279,455.0188709999202,[-2.6447603999404237],,,,,,,,cbtxie,001,fr,0,2022-05-05_15h50.30.825,Continuous,2022.1.1,None,
12,0,12,0,10,0,10,0,,,,,,,,2.7159845460860357,time,334.0,9.97964781616112,0.00029557587431770137,0,55,[],0.015637369826436043,None,['space'],457.98957139998674,457.98957139998674,0.22144436987582594,2.9374289159618616,458.20781870000064,457.98957139998674,[-2.671103399945423],,,,,,,,cbtxie,001,fr,0,2022-05-05_15h50.30.825,Continuous,2022.1.1,None,
12,0,12,0,11,0,11,0,,,,,,,,2.7159845460860357,time,141.0,11.0,0.002058892788319686,0,56,[],0.015908270026557148,None,['space'],460.95572480000556,460.95572480000556,0.21845337003469467,2.9344379161207303,461.1738820999162,460.95572480000556,[-2.613667899975553],,,,,,,,cbtxie,001,fr,0,2022-05-05_15h50.30.825,Continuous,2022.1.1,None,
13,0,13,0,0,0,0,0,,,,,0.3333333333333333,467.76691999996547,None,1.6071156307753551,both,1416.0,0.5587748911571537,5.373605347268028e-05,0,26,[],0.024872469948604703,None,None,468.77421740000136,None,0.24837356992065907,1.8554892006960142,469.0024973999243,None,,463.9272228999762,None,,,,,,cbtxie,001,fr,0,2022-05-05_15h50.30.825,Continuous,2022.1.1,None,
13,0,13,0,1,0,1,0,,,,,,,,1.6071156307753551,both,1124.0,0.4430829349769354,5.1815946161927186e-05,0,27,[],0.012821169919334352,None,None,470.63468809996266,470.63468809996266,0.21811936993617564,1.8252350007115308,470.8514885000186,470.63468809996266,,,,,,,,,cbtxie,001,fr,0,2022-05-05_15h50.30.825,Continuous,2022.1.1,None,
13,0,13,0,2,0,2,0,,,,,,,,1.6071156307753551,both,,,,1,27,[],0.009738970082253218,None,None,472.4966621999629,472.4966621999629,0.21238187002018094,1.819497500795536,472.7202427999582,472.4966621999629,,,,,,,,,cbtxie,001,fr,0,2022-05-05_15h50.30.825,Continuous,2022.1.1,None,
13,0,13,0,3,0,3,0,,,,,,,,1.6071156307753551,both,708.0,2.239794175133321,5.736337843985303e-05,0,28,[],0.01667066989466548,None,None,474.3534834999591,474.3534834999591,0.21902166993822902,1.8261373007135842,474.5743599999696,474.3534834999591,,,,,,,,,cbtxie,001,fr,0,2022-05-05_15h50.30.825,Continuous,2022.1.1,None,
13,0,13,0,4,0,4,0,,,,,,,,1.6071156307753551,both,562.0,2.376280059402663,8.121016830780167e-05,0,29,[],0.013213869999162853,None,['space'],476.213744699955,476.213744699955,0.21267627004999667,1.8197919008253518,476.43036619992927,476.213744699955,[-1.3116852999664843],,,,,,,,cbtxie,001,fr,0,2022-05-05_15h50.30.825,Continuous,2022.1.1,None,
13,0,13,0,5,0,5,0,,,,,,,,1.6071156307753551,both,446.0,3.527901220732768,0.00011138377280157425,0,30,[],0.016465869965031743,None,['space'],478.0741625999799,478.0741625999799,0.2159328699344769,1.823048500709832,478.2834486999782,478.0741625999799,[-1.460679000010714],,,,,,,,cbtxie,001,fr,0,2022-05-05_15h50.30.825,Continuous,2022.1.1,None,
13,0,13,0,6,0,6,0,,,,,,,,1.6071156307753551,both,354.0,0.0,8.849638639228378e-05,0,31,[],0.014858969952911139,None,['space'],479.9263178999536,479.9263178999536,0.21829256997443736,1.8254082007497925,480.14664069993887,479.9263178999536,[-1.5673588999779895],,,,,,,,cbtxie,001,fr,0,2022-05-05_15h50.30.825,Continuous,2022.1.1,None,
13,0,13,0,7,0,7,0,,,,,,,,1.6071156307753551,both,281.0,3.676300679480606,0.00020558550773756338,0,32,[],0.012530169798992574,None,['space'],481.78648569993675,481.78648569993675,0.21250796981621534,1.8196236005915705,481.99859390000347,481.78648569993675,[-1.4122681999579072],,,,,,,,cbtxie,001,fr,0,2022-05-05_15h50.30.825,Continuous,2022.1.1,None,
13,0,13,0,8,0,8,0,,,,,,,,1.6071156307753551,both,223.0,0.1336809149446534,0.00022379887620272,0,33,[],0.011929169879294932,None,['space'],483.6518001999939,483.6518001999939,0.22233796992804855,1.8294536007034037,483.86500270001125,483.6518001999939,[-0.8459109999239445],,,,,,,,cbtxie,001,fr,0,2022-05-05_15h50.30.825,Continuous,2022.1.1,None,
13,0,13,0,9,0,9,0,,,,,,,,1.6071156307753551,both,177.0,2.964388392237946,0.0004912507638714627,0,34,[],0.01116946991533041,None,None,485.5042249999242,485.5042249999242,0.21199776988942176,1.819113400664777,485.72117669996805,485.5042249999242,,,,,,,,,cbtxie,001,fr,0,2022-05-05_15h50.30.825,Continuous,2022.1.1,None,
13,0,13,0,10,0,10,0,,,,,,,,1.6071156307753551,both,140.0,5.401100358855296,0.0010972391076201381,0,35,[],0.015663669910281897,None,None,487.3672814000165,487.3672814000165,0.22528946993406862,1.8324051007094238,487.587884599925,487.3672814000165,,,,,,,,,cbtxie,001,fr,0,2022-05-05_15h50.30.825,Continuous,2022.1.1,None,
14,0,14,0,0,0,0,0,,,,,0.3333333333333333,493.471855700016,None,1.8048980775814758,both,7294.0,-4.18306571943533,9.893328543479587e-05,0,36,[],0.025097570032812655,None,None,494.49596779991407,None,0.2227724699769169,2.027670547558393,494.7031631999416,None,,489.2207501999801,None,,,,,,cbtxie,001,fr,0,2022-05-05_15h50.30.825,Continuous,2022.1.1,None,
14,0,14,0,1,0,1,0,,,,,,,,1.8048980775814758,both,,,,1,36,[],0.014194170013070107,None,None,496.54472769994754,496.54472769994754,0.21791146998293698,2.022809547564413,496.7641928999219,496.54472769994754,,,,,,,,,cbtxie,001,fr,0,2022-05-05_15h50.30.825,Continuous,2022.1.1,None,
14,0,14,0,2,0,2,0,,,,,,,,1.8048980775814758,both,4595.0,-9.0,4.430898409859327e-05,0,37,[],0.013769869925454259,None,None,498.59828719997313,498.59828719997313,0.2169585699448362,2.0218566475263122,498.81920969998464,498.59828719997313,,,,,,,,,cbtxie,001,fr,0,2022-05-05_15h50.30.825,Continuous,2022.1.1,None,
14,0,14,0,3,0,3,0,,,,,,,,1.8048980775814758,both,3647.0,-7.634289527045189,3.2281238227039154e-05,0,38,[],0.016240769997239113,None,None,500.6605046999175,500.6605046999175,0.21963496995158494,2.024533047533061,500.87206869991496,500.6605046999175,,,,,,,,,cbtxie,001,fr,0,2022-05-05_15h50.30.825,Continuous,2022.1.1,None,
14,0,14,0,4,0,4,0,,,,,,,,1.8048980775814758,both,2895.0,-5.4886396547839595,3.26118162920161e-05,0,39,[],0.015950469998642802,None,None,502.7179357999703,502.7179357999703,0.23155247000977397,2.03645054759125,502.9324573999038,502.7179357999703,,,,,,,,,cbtxie,001,fr,0,2022-05-05_15h50.30.825,Continuous,2022.1.1,None,
14,0,14,0,5,0,5,0,,,,,,,,1.8048980775814758,both,2298.0,-3.451047570093137,5.472251875624562e-05,0,40,[],0.016061169910244644,None,None,504.77081030001864,504.77081030001864,0.22690846992190927,2.0318065475033853,504.98413599992637,504.77081030001864,,,,,,,,,cbtxie,001,fr,0,2022-05-05_15h50.30.825,Continuous,2022.1.1,None,
14,0,14,0,6,0,6,0,,,,,,,,1.8048980775814758,both,1824.0,1.45004129646466,7.901323633758185e-05,0,41,[],0.015870369970798492,None,['space'],506.8201033999212,506.8201033999212,0.22213056997861713,2.027028647560093,507.0412631999934,506.8201033999212,[-1.3744891999522224],,,,,,,,cbtxie,001,fr,0,2022-05-05_15h50.30.825,Continuous,2022.1.1,None,
14,0,14,0,7,0,7,0,,,,,,,,1.8048980775814758,both,1448.0,-5.74617598675853,2.559270869681567e-05,0,42,[],0.007885269937105477,None,['space'],508.8816395999165,508.8816395999165,0.2114562699571252,2.016354347538601,509.09933989995625,508.8816395999165,[-1.2598058000439778],,,,,,,,cbtxie,001,fr,0,2022-05-05_15h50.30.825,Continuous,2022.1.1,None,
14,0,14,0,8,0,8,0,,,,,,,,1.8048980775814758,both,1149.0,1.4492928416228237,5.941558492044493e-05,0,43,[],0.016000770032405853,None,['space'],510.9441474999767,510.9441474999767,0.22368257003836334,2.0285806476198394,511.15427910001017,510.9441474999767,[-0.634382399963215],,,,,,,,cbtxie,001,fr,0,2022-05-05_15h50.30.825,Continuous,2022.1.1,None,
14,0,14,0,9,0,9,0,,,,,,,,1.8048980775814758,both,912.0,-7.5591409910871,1.7403146979868217e-05,0,44,[],0.011355269933119416,0.2091954699717462,None,512.98663509998,512.98663509998,0.2091954699717462,2.0140935475532222,513.1988028999185,512.98663509998,,,,,,,,,cbtxie,001,fr,0,2022-05-05_15h50.30.825,Continuous,2022.1.1,None,
14,0,14,0,10,0,10,0,,,,,,,,1.8048980775814758,both,724.0,-2.945710703134088,3.057663717016154e-05,0,45,[],0.011703969910740852,0.20885466993786395,None,515.0388433999615,515.0388433999615,0.20885466993786395,2.01375274751934,515.2569310999243,515.0388433999615,,,,,,,,,cbtxie,001,fr,0,2022-05-05_15h50.30.825,Continuous,2022.1.1,None,
15,0,15,0,0,0,0,0,,,,,,522.7013416999253,None,1.0630065699533546,none,2000.0,4.8325802427661415,0.00013049654588348202,0,75,[],0.02496326994150877,None,None,523.7229136999231,None,0.22358266985975206,1.2865892398131067,523.9335353999631,None,,517.0871814999264,None,"[0.16666666666666666, 0.16666666666666666, 0.16666666666666666, 0.16666666666666666, 0.3333333333333333, 0.3333333333333333, 0.16666666666666666, 0.3333333333333333, 0.3333333333333333, 0.3333333333333333, 0.16666666666666666, 0.3333333333333333, 0.16666666666666666, 0.16666666666666666, 0.16666666666666666]",,,,,cbtxie,001,fr,0,2022-05-05_15h50.30.825,Continuous,2022.1.1,None,
15,0,15,0,1,0,1,0,,,,,,,,2.2493021696954436,none,3564.0,2.2492858695921223,9.883542196513453e-05,0,76,[],0.011813769931904972,None,None,525.0274979999522,525.0274979999522,0.21108037000522017,2.460382539700664,525.2462964999722,525.0274979999522,,,,,,,,,cbtxie,001,fr,0,2022-05-05_15h50.30.825,Continuous,2022.1.1,None,
15,0,15,0,2,0,2,0,,,,,,,,1.8138519650801166,none,2520.0,4.811368320271654,0.00014730195369509123,0,77,[],0.010857669985853136,None,['space'],527.5322566999821,527.5322566999821,0.20621336996555328,2.02006533504567,527.7491279999958,527.5322566999821,[-2.117512800032273],,,,,,,,cbtxie,001,fr,0,2022-05-05_15h50.30.825,Continuous,2022.1.1,None,
15,0,15,0,3,0,3,0,,,,,,,,2.8866115235448024,none,4490.0,-5.332048457822427,6.368075777622896e-05,0,78,[],0.010808369959704578,None,['space'],529.5980923000025,529.5980923000025,0.20964466989971697,3.0962561934445194,529.8184215999208,529.5980923000025,[-1.7837139000184834],,,,,,,,cbtxie,001,fr,0,2022-05-05_15h50.30.825,Continuous,2022.1.1,None,
15,0,15,0,4,0,4,0,,,,,,,,1.4063604265673648,none,8000.0,5.0,0.00032282711451732784,0,79,[],0.007122970069758594,None,['space'],532.7448145999806,532.7448145999806,0.20796937006525695,1.6143297966326218,532.97109919996,532.7448145999806,[-2.7063852000283077],,,,,,,,cbtxie,001,fr,0,2022-05-05_15h50.30.825,Continuous,2022.1.1,None,
15,0,15,0,5,0,5,0,,,,,,,,1.529188344444645,none,,,,1,79,[],0.007534570060670376,None,['space'],534.4143866999075,534.4143866999075,0.20625497004948556,1.7354433144941306,534.6355961000081,534.4143866999075,[-1.399922200012952],,,,,,,,cbtxie,001,fr,0,2022-05-05_15h50.30.825,Continuous,2022.1.1,None,
15,0,15,0,6,0,6,0,,,,,,,,2.5917660454336646,none,2245.0,4.533919405787115,0.00013523896983092353,0,80,[],0.01655976998154074,None,None,536.2013091999106,536.2013091999106,0.22321886999998242,2.814984915433647,536.4226676999824,536.2013091999106,,,,,,,,,cbtxie,001,fr,0,2022-05-05_15h50.30.825,Continuous,2022.1.1,None,
15,0,15,0,7,0,7,0,,,,,,,,1.2870807308980652,none,6350.0,-4.036810003312228,8.263483769466866e-05,0,81,[],0.011974769877269864,None,['space'],539.0421758999582,539.0421758999582,0.20983896986581385,1.496919700763879,539.2550264999736,539.0421758999582,[-2.4918955999892205],,,,,,,,cbtxie,001,fr,0,2022-05-05_15h50.30.825,Continuous,2022.1.1,None,
15,0,15,0,8,0,8,0,,,,,,,,2.4259694010668555,none,5040.0,3.4089729412112995,0.00022397746904295672,0,82,[],0.01177676988299936,None,['space'],540.5788761000149,540.5788761000149,0.2122350699501112,2.6382044710169668,540.7932859999128,540.5788761000149,[-1.2292949999682605],,,,,,,,cbtxie,001,fr,0,2022-05-05_15h50.30.825,Continuous,2022.1.1,None,
16,0,16,0,0,0,0,0,,,,,0.3333333333333333,551.9588813999435,None,2.8534410253581703,frequency,8000.0,2.0,0.0002285440948074376,0,78,[],0.025163769954815507,None,['space'],552.9884978999617,None,0.22502486989833415,3.0784658952565045,553.1967503000051,None,[-2.5185162000125274],543.2587590999901,None,,,,,,cbtxie,001,fr,0,2022-05-05_15h50.30.825,Continuous,2022.1.1,None,
16,0,16,0,1,0,1,0,,,,,,,,2.6792242746658914,frequency,6350.0,-1.9720545642713625,0.00010480957269219254,0,79,[],0.015035069896839559,None,['space'],556.0874764999608,556.0874764999608,0.22383676993194968,2.903061044597841,556.3022935999325,556.0874764999608,[-2.593325800029561],,,,,,,,cbtxie,001,fr,0,2022-05-05_15h50.30.825,Continuous,2022.1.1,None,
16,0,16,0,2,0,2,0,,,,,,,,1.6256016028852207,frequency,5040.0,-0.1461659071423611,0.0001487467174143052,0,80,[],0.011121169896796346,None,"['space', 'space']",559.0114079000195,559.0114079000195,0.20748156995978206,1.8330831728450028,559.2259613999631,559.0114079000195,"[-2.670090700034052, 0.21061960002407432]",,,,,,,,cbtxie,001,fr,0,2022-05-05_15h50.30.825,Continuous,2022.1.1,None,
16,0,16,0,3,0,3,0,,,,,,,,1.0251236722983077,frequency,4000.0,1.587118094873036,0.00010076875875939263,0,81,[],0.011509369825944304,None,None,560.8851540000178,560.8851540000178,0.21402276982553303,1.2391464421238407,561.1036182999378,560.8851540000178,,,,,,,,,cbtxie,001,fr,0,2022-05-05_15h50.30.825,Continuous,2022.1.1,None,
16,0,16,0,4,0,4,0,,,,,,,,2.0904456852515487,frequency,3175.0,-1.977238060859921,5.5317275546291986e-05,0,82,[],0.005475869984366,None,['space'],562.1774937999435,562.1774937999435,0.19955837004818022,2.290004055299729,562.3943190999562,562.1774937999435,[-1.0199541000183672],,,,,,,,cbtxie,001,fr,0,2022-05-05_15h50.30.825,Continuous,2022.1.1,None,
16,0,16,0,5,0,5,0,,,,,,,,1.5627238122741136,frequency,2520.0,2.325831152051291,0.00011064496318024255,0,83,[],0.01065986999310553,None,None,564.522859599907,564.522859599907,0.2136437699664384,1.776367582240552,564.7441827999428,564.522859599907,,,,,,,,,cbtxie,001,fr,0,2022-05-05_15h50.30.825,Continuous,2022.1.1,None,
16,0,16,0,6,0,6,0,,,,,,,,1.9815860852400067,frequency,2000.0,2.0628216713636736,9.486610896745651e-05,0,84,[],0.011229970026761293,None,['space'],566.3419227999402,566.3419227999402,0.21319397003389895,2.1947800552739056,566.561339500011,566.3419227999402,[-1.4871131000109017],,,,,,,,cbtxie,001,fr,0,2022-05-05_15h50.30.825,Continuous,2022.1.1,None,
16,0,16,0,7,0,7,0,,,,,,,,1.5010910591069628,frequency,1587.0,1.7242988308004843,6.787315986663984e-05,0,85,['frequency'],0.008439769968390465,0.20680626993998885,None,568.5825864999788,568.5825864999788,0.20680626993998885,1.7078973290469517,568.8021998999175,568.5825864999788,,,,,"{'estimation': [[124.99999999999991, 9.144489910758864], [133.9716828170366, 9.088188520399832], [139.85103034071952, 9.0], [143.5872943746293, 8.947272662329466], [153.89305166811442, 8.8258627999494], [164.9384888466117, 8.80558064478214], [176.77669529663666, 8.913887573882262], [182.28348894119563, 9.0], [189.46457081379947, 9.108188436969748], [203.0630990890585, 9.28041382558429], [217.6376408240306, 9.289975598224295], [233.25824788420132, 9.01042263684325], [233.52535583707734, 9.0], [249.99999999999937, 8.383614037146446], [257.2807835465952, 8.0], [267.94336563407256, 7.452488056236033], [275.89827135779586, 7.0], [287.1745887492579, 6.369454622133524], [294.65544174787607, 6.0], [307.78610333622805, 5.361480057804634], [319.26378073579644, 5.0], [329.87697769322244, 4.671225567402895], [353.55339059327247, 4.488079387314051], [378.929141627598, 4.886082273068572], [382.18801979620747, 5.0], [406.12619817811606, 5.799891392264928], [410.64764104245677, 5.999999999999999], [434.2985317615264, 7.0], [435.2752816480601, 7.039582082964541], [458.1316834460818, 8.0], [466.5164957684015, 8.335284180007735], [486.90048404690884, 9.0], [499.9999999999975, 9.411559281666005], [532.7652614586934, 10.0], [535.8867312681438, 10.055040716206504], [574.3491774985143, 10.16416419002202], [590.7522087911018, 10.0], [615.5722066724546, 9.757730733105713], [657.2982278872568, 9.0], [659.7539553864424, 8.956947141013767], [703.5190804913551, 8.0], [707.1067811865431, 7.925426123277109], [748.935901930417, 7.0], [757.8582832551941, 6.813330229486338], [797.4669662255315, 6.0], [812.2523963562301, 5.710892124516654], [850.2314028680514, 5.0], [870.5505632961181, 4.633509030887403], [906.4313042832852, 4.0], [933.0329915368008, 3.5435446650686413], [964.3177017292161, 3.0], [999.9999999999926, 2.3956185825755734], [1023.0281442538194, 2.0], [1071.773462536285, 1.183024667110106], [1083.073456763327, 1.0], [1146.2646519314656, 0.0], [1148.698354997026, -0.03761126450291931], [1219.474967876235, -1.0], [1231.1444133449063, -1.154441720476535], [1315.3313949877047, -2.0], [1319.5079107728832, -2.0409095631342606], [1414.2135623730828, -2.6137266219152595], [1515.7165665103846, -2.8642271527232266], [1624.5047927124563, -2.8742134578987173], [1741.1011265922298, -2.7808476613169857], [1866.065983073597, -2.7276100481154297], [1999.9999999999802, -2.813899699373739], [2104.6025957710863, -3.0], [2143.5469250725646, -3.0687838246373023], [2297.396709994046, -3.4544190140158832], [2462.2888266898062, -3.8931295787038707], [2505.7417949605106, -4.0], [2639.01582154576, -4.314994816889165], [2828.427124746159, -4.66621205225008], [3031.4331330207615, -4.926726584925431], [3127.7178016958655, -5.0], [3249.0095854249043, -5.088061370447868], [3482.2022531844555, -5.130571207668132], [3732.1319661471844, -5.019214179874045], [3748.2547781317244, -5.0], [3999.9999999999554, -4.71217487067984], [4287.093850145118, -4.18459357774521], [4363.616651727932, -4.0], [4594.793419988081, -3.447701416302489], [4761.75288352414, -3.0], [4924.577653379601, -2.5656702001109144], [5139.057427773312, -2.0], [5278.031643091506, -1.6377611597080763], [5554.662128888429, -1.0], [5656.854249492303, -0.7697796572094694], [6062.866266041508, -0.04116954082897709], [6093.359449018444, 0.0], [6498.019170849792, 0.519937543280437], [6964.404506368894, 0.9329169940527304], [7067.142133376848, 1.0], [7464.2639322943505, 1.2515675628000769], [7999.999999999882, 1.5290726792606346]], 'plus_line': [[125.0, 2.2427584885809115], [133.9716828170366, 2.651500694897079], [143.5872943746293, 2.722894236242097], [153.89305166811442, 2.683618416726159], [164.93848884661162, 2.6957592986364243], [176.77669529663666, 2.8264733761414162], [186.00585280364527, 3.0], [189.46457081379947, 3.0582602883933685], [203.0630990890585, 3.2892480404630193], [217.6376408240306, 3.3840594973328058], [233.25824788420132, 3.174836035037766], [237.85206226558014, 3.0], [249.99999999999937, 2.5371008347715813], [259.3382805345123, 2.0], [267.94336563407256, 1.511980407463611], [275.82462016370056, 1.0], [287.1745887492579, 0.27891641761514196], [292.06992018561044, 0.0], [307.78610333622805, -0.8807542311848277], [311.0509022657381, -1.0], [329.87697769322244, -1.688636890061325], [353.55339059327247, -1.9123309070684287], [378.929141627598, -1.4913323544188821], [391.6631505520262, -1.0], [406.12619817811606, -0.4732375909415161], [415.80102411721987, 0.0], [435.2752816480607, 0.922080372461666], [436.91379044619134, 1.0], [458.7092400978579, 2.0], [466.5164957684015, 2.345004878527998], [485.7220178767428, 3.0], [499.9999999999975, 3.4685881729498163], [532.1874239673999, 4.0], [535.8867312681438, 4.05773900534423], [574.3491774985143, 4.038844467673908], [577.4930741152643, 4.0], [615.5722066724546, 3.5183941652789867], [643.4348840704849, 3.0], [659.7539553864432, 2.6993449470487363], [693.799364378136, 2.0], [707.1067811865431, 1.7362920275842322], [743.5518043727612, 1.0], [757.8582832551941, 0.7242911499074708], [795.3836791581379, 0.0], [812.2523963562301, -0.31079215862128573], [849.1887469296704, -1.0], [870.5505632961181, -1.3823358667354961], [904.018274217816, -2.0], [933.0329915368008, -2.514793967500987], [959.2009207633314, -3.0], [999.9999999999926, -3.7262314322170402], [1014.8509870896343, -4.0], [1071.3754175394204, -5.0], [1071.773462536285, -5.006894588606959], [1129.3624151455736, -6.0], [1148.6983549970246, -6.317871782760383], [1194.9680330204633, -7.0], [1231.1444133449063, -7.51435177710151], [1275.9674166530256, -8.0], [1319.5079107728816, -8.463341740740805], [1404.9545227820413, -9.0], [1414.2135623730828, -9.058638708523818], [1515.7165665103846, -9.319257444274987], [1624.5047927124563, -9.326004373301528], [1741.1011265922318, -9.25842912355704], [1866.065983073597, -9.290751946909516], [1999.9999999999802, -9.516554702210499], [2143.5469250725646, -9.911321153071718], [2171.9165234986986, -10.0], [2297.3967099940432, -10.40108190678906], [2462.2888266898062, -10.84588826077296], [2541.890786415717, -11.0], [2639.01582154576, -11.189268112165655], [2828.427124746159, -11.407750593480324], [3031.4331330207615, -11.507165627332487], [3249.0095854249043, -11.498034553579021], [3482.2022531844555, -11.3735735597119], [3732.1319661471844, -11.123098682641753], [3817.6656026541914, -11.0], [3999.999999999946, -10.763668472001562], [4287.093850145124, -10.293085983704348], [4436.896809342794, -10.0], [4594.793419988081, -9.705034721941253], [4923.2709700723535, -9.0], [4924.577653379601, -8.997267221134782], [5278.031643091506, -8.22573079890665], [5383.371505388678, -8.0], [5656.854249492303, -7.436606967045779], [5891.045584601958, -7.0], [6062.866266041516, -6.696633162657998], [6498.019170849792, -6.0488717502016325], [6540.014835020443, -6.0], [6964.404506368894, -5.548668555883253], [7464.26393229436, -5.257679378582304], [7999.999999999882, -5.331800785726179]], 'minus_line': [[125.0, 15.775734241907552], [133.9716828170366, 15.251969924722983], [140.849309584968, 15.0], [143.5872943746293, 14.910758518928297], [153.89305166811442, 14.745327390138216], [164.93848884661162, 14.742845564461039], [176.77669529663655, 14.887866280920296], [183.3324031613929, 15.0], [189.46457081379947, 15.109195950567022], [203.0630990890585, 15.267761223879122], [217.6376408240306, 15.20931014533597], [226.22383857816416, 15.0], [233.25824788420132, 14.84563376239215], [249.99999999999937, 14.171935309190838], [253.23861840355625, 14.0], [267.94336563407256, 13.255984424761557], [272.65493475330607, 13.0], [287.1745887492579, 12.234697357239884], [292.2686502301608, 12.0], [307.78610333622805, 11.3090918568315], [318.59162338816185, 11.0], [329.87697769322244, 10.694536240772084], [353.55339059327247, 10.572755252106031], [378.929141627598, 10.996316652839054], [379.03601226115444, 11.0], [406.12619817811606, 11.913305032355847], [408.14374097594987, 12.0], [432.17274521805143, 13.0], [435.2752816480601, 13.124096968856124], [456.3953041957981, 14.0], [466.5164957684015, 14.397391741556332], [484.6248075476088, 15.0], [499.9999999999975, 15.494514470540242], [525.1235315895011, 16.0], [535.8867312681438, 16.21769768712457], [574.3491774985143, 16.428493710103854], [615.5722066724546, 16.056794809267526], [618.3378643050204, 16.0], [659.7539553864432, 15.201993509374132], [667.5804555706943, 15.0], [707.1067811865431, 14.026228181739853], [708.1128838704825, 14.0], [748.2234785821288, 13.0], [757.8582832551941, 12.770770791300503], [792.5667513362265, 12.0], [812.2523963562301, 11.578948974431272], [842.7393951558591, 11.0], [870.5505632961181, 10.48755512305301], [899.1271990122139, 10.0], [933.0329915368008, 9.4352623426472], [959.3165667572275, 9.0], [999.9999999999926, 8.338664234833438], [1020.570380344119, 8.0], [1071.773462536285, 7.169004667227824], [1082.5813947465303, 7.0], [1147.5414334703264, 6.0], [1148.698354997026, 5.982682800146218], [1223.6167462415692, 5.0], [1231.1444133449063, 4.903844816301998], [1319.5079107728832, 4.042310667021146], [1326.30070348645, 4.0], [1414.2135623730828, 3.490510207817656], [1515.7165665103846, 3.2362271111449123], [1624.5047927124563, 3.2256922950310027], [1741.1011265922318, 3.3448538246372084], [1866.065983073597, 3.4641721416383184], [1999.9999999999802, 3.47774359805664], [2143.5469250725646, 3.32245732479292], [2291.453902976926, 2.9999999999999996], [2297.396709994046, 2.9879471372180246], [2462.2888266898062, 2.549923994538611], [2639.01582154576, 2.0639745944737653], [2665.4535467203973, 2.0], [2828.427124746159, 1.638501874384587], [3031.4331330207656, 1.30298023625366], [3249.0095854249043, 1.0695863115356263], [3393.353821739033, 1.0], [3482.2022531844555, 0.9615425272532799], [3632.456445005463, 1.0], [3732.1319661471844, 1.0266084979440686], [3999.9999999999504, 1.3544952503266054], [4287.093850145118, 1.9748380104261223], [4295.581027194077, 2.0], [4594.793419988081, 2.888544517964504], [4628.864079903802, 3.0], [4924.577653379594, 3.958845265142382], [4937.9292986752625, 4.0], [5266.993095825473, 5.0], [5278.031643091506, 5.0329866959181935], [5656.854249492303, 5.966678243219681], [5675.460805738729, 6.0], [6062.866266041508, 6.680673967113783], [6360.369208060646, 7.0], [6498.019170849792, 7.146823727878048], [6964.404506368894, 7.467401768638785], [7464.2639322943505, 7.818674194771975], [7617.732019490527, 8.0], [7999.999999999882, 8.473793427859679]]}",,,,cbtxie,001,fr,0,2022-05-05_15h50.30.825,Continuous,2022.1.1,None,
16,0,16,0,8,0,8,0,,,,,,,,1.5416940424310195,frequency,,,,1,85,['frequency'],0.006695869844406843,None,None,570.3347926000133,570.3347926000133,0.20638166985008866,1.7480757122811081,570.5547930999892,570.3347926000133,,,,,,,,,cbtxie,001,fr,0,2022-05-05_15h50.30.825,Continuous,2022.1.1,None,
17,0,17,0,0,0,0,0,,,,,,576.272239999962,None,2.2076502077474984,time,6805.0,-1.5160798509770874,0.00012204180955028475,0,57,['frequency'],0.024989370023831725,None,['space'],577.3015020999592,None,0.23511417000554502,2.4427643777530434,577.5231815999141,None,[-1.5999742000130937],572.1337425999809,None,"[0.16666666666666666, 0.16666666666666666, 0.3333333333333333, 0.5833333333333334, 0.3333333333333333, 0.5833333333333334, 0.3333333333333333, 0.3333333333333333, 0.5833333333333334, 0.16666666666666666, 0.16666666666666666, 0.5833333333333334, 0.16666666666666666, 0.16666666666666666, 0.16666666666666666]",,,,,cbtxie,001,fr,0,2022-05-05_15h50.30.825,Continuous,2022.1.1,None,
17,0,17,0,1,0,1,0,,,,,,,,2.2076502077474984,time,637.0,3.045552533153577,7.178036557822396e-05,0,58,['frequency'],0.013027569861151278,None,None,579.7655973999063,579.7655973999063,0.2250629699556157,2.432713177703114,579.9886172999395,579.7655973999063,,,,,,,,,cbtxie,001,fr,0,2022-05-05_15h50.30.825,Continuous,2022.1.1,None,
17,0,17,0,2,0,2,0,,,,,,,,2.2076502077474984,time,7638.0,1.9832280495532721,0.00021431557194958727,0,59,['frequency'],0.009649169980548322,None,['space'],582.2219394999556,582.2219394999556,0.2085209699580446,2.416171177705543,582.4382238999242,582.2219394999556,[-1.896785999997519],,,,,,,,cbtxie,001,fr,0,2022-05-05_15h50.30.825,Continuous,2022.1.1,None,
17,0,17,0,3,0,3,0,,,,,,,,2.2076502077474984,time,,,,1,59,['frequency'],0.007005969877354801,0.20141316996887326,['space'],584.6836705999449,584.6836705999449,0.20141316996887326,2.4090633777163717,584.8938231999055,584.6836705999449,[-2.0538504000287503],,,,,,,,cbtxie,001,fr,0,2022-05-05_15h50.30.825,Continuous,2022.1.1,None,
17,0,17,0,4,0,4,0,,,,,,,,2.2076502077474984,time,2549.0,3.5405930837282407,0.00012454443408008758,0,60,['frequency'],0.014902869937941432,None,None,587.1384086000035,587.1384086000035,0.22177346993703395,2.4294236776845324,587.3598698999267,587.1384086000035,,,,,,,,,cbtxie,001,fr,0,2022-05-05_15h50.30.825,Continuous,2022.1.1,None,
17,0,17,0,5,0,5,0,,,,,,,,2.2076502077474984,time,4047.0,0.46969355269448876,9.20178392078371e-05,0,61,['frequency'],0.010140669881366193,None,['space'],589.5952950000064,589.5952950000064,0.211609169957228,2.4192593777047264,589.809869299992,589.5952950000064,[-2.0843369000358507],,,,,,,,cbtxie,001,fr,0,2022-05-05_15h50.30.825,Continuous,2022.1.1,None,
17,0,17,0,6,0,6,0,,,,,,,,2.2076502077474984,time,715.0,4.944294210361523,7.723304718584263e-05,0,62,['frequency'],0.0015415699454024434,0.18319596990477294,['space'],592.0678071000148,592.0678071000148,0.18319596990477294,2.3908461776522714,592.2678570999997,592.0678071000148,[-2.1422256999649107],,,,,,,,cbtxie,001,fr,0,2022-05-05_15h50.30.825,Continuous,2022.1.1,None,
17,0,17,0,7,0,7,0,,,,,,,,2.2076502077474984,time,3212.0,1.9499226767565325,8.775281023696995e-05,0,63,['frequency'],0.012850669911131263,None,['space'],594.5143869000021,594.5143869000021,0.23014786990825087,2.4377980776557493,594.737349199946,594.5143869000021,[-2.060011899913661],,,,,,,,cbtxie,001,fr,0,2022-05-05_15h50.30.825,Continuous,2022.1.1,None,
17,0,17,0,8,0,8,0,,,,,,,,2.2076502077474984,time,1350.0,1.7468250037162312,6.361599109674144e-05,0,64,['frequency'],0.009776370017789304,0.20594246999826282,['space'],596.9721691999584,596.9721691999584,0.20594246999826282,2.4135926777457613,597.1866618999047,596.9721691999584,[-2.198614099994302],,,,,,,,cbtxie,001,fr,0,2022-05-05_15h50.30.825,Continuous,2022.1.1,None,
17,0,17,0,9,0,9,0,,,,,,,,2.2076502077474984,time,6063.0,2.0,0.00014960914001532408,0,65,['frequency'],0.00957096996717155,None,None,599.4291607999476,599.4291607999476,0.20936877001076937,2.417018977758268,599.6528500999557,599.4291607999476,,,,,,,,,cbtxie,001,fr,0,2022-05-05_15h50.30.825,Continuous,2022.1.1,None,
17,0,17,0,10,0,10,0,,,,,,,,2.2076502077474984,time,901.0,4.773536638025975,7.144660503597768e-05,0,66,['frequency'],0.009787869988940656,None,['space'],601.8962127999403,601.8962127999403,0.21118927001953125,2.4188394777670297,602.1120225999039,601.8962127999403,[-2.193503799964674],,,,,,,,cbtxie,001,fr,0,2022-05-05_15h50.30.825,Continuous,2022.1.1,None,
18,0,18,0,0,0,0,0,,,,,0.16666666666666666,610.2747909999453,None,2.0974217173955383,both,708.0,-4.661906182110677,2.5914909915776396e-05,0,46,['frequency'],0.022927969926968217,None,['space'],611.307253499981,None,0.2299775698920712,2.3273992872876095,611.5227823000168,None,[-3.6376687000738457],604.3565922999987,None,,,,,,cbtxie,001,fr,0,2022-05-05_15h50.30.825,Continuous,2022.1.1,None,
18,0,18,0,1,0,1,0,,,,,,,,2.0974217173955383,both,,,,1,46,['frequency'],0.009387669968418777,None,None,613.6558693000115,613.6558693000115,0.2041092700092122,2.3015309874047505,613.8738000999438,613.6558693000115,,,,,,,,,cbtxie,001,fr,0,2022-05-05_15h50.30.825,Continuous,2022.1.1,None,
18,0,18,0,2,0,2,0,,,,,,,,2.0974217173955383,both,562.0,0.29903648690580553,6.393640775567084e-05,0,47,['frequency'],0.01018126995768398,None,None,616.005444200011,616.005444200011,0.20535776996985078,2.302779487365389,616.2191357999109,616.005444200011,,,,,,,,,cbtxie,001,fr,0,2022-05-05_15h50.30.825,Continuous,2022.1.1,None,
18,0,18,0,3,0,3,0,,,,,,,,2.0974217173955383,both,501.0,-6.458922816082291,3.389023180839183e-05,0,48,['frequency'],0.01059146982152015,None,None,618.3561641999986,618.3561641999986,0.21453356987331063,2.311955287268849,618.5754935999867,618.3561641999986,,,,,,,,,cbtxie,001,fr,0,2022-05-05_15h50.30.825,Continuous,2022.1.1,None,
18,0,18,0,4,0,4,0,,,,,,,,2.0974217173955383,both,446.0,1.3426396253248,8.660816646768214e-05,0,49,['frequency'],0.009599269949831069,None,['space'],620.7091217999114,620.7091217999114,0.21160846995189786,2.309030187347436,620.924630299909,620.7091217999114,[-0.20615410001482815],,,,,,,,cbtxie,001,fr,0,2022-05-05_15h50.30.825,Continuous,2022.1.1,None,
18,0,18,0,5,0,5,0,,,,,,,,2.0974217173955383,both,397.0,-2.828041910810068,5.584237568510701e-05,0,50,['frequency'],0.007021469995379448,None,None,623.0568566999864,623.0568566999864,0.20690426998771727,2.3043259873832556,623.2773105999222,623.0568566999864,,,,,,,,,cbtxie,001,fr,0,2022-05-05_15h50.30.825,Continuous,2022.1.1,None,
18,0,18,0,6,0,6,0,,,,,,,,2.0974217173955383,both,354.0,-9.0,3.139970279077028e-05,0,51,['frequency'],0.009850269882008433,None,['space'],625.404212799971,625.404212799971,0.20628586993552744,2.3037075873310657,625.6188356999774,625.404212799971,[0.18558539997320622],,,,,,,,cbtxie,001,fr,0,2022-05-05_15h50.30.825,Continuous,2022.1.1,None,
18,0,18,0,7,0,7,0,,,,,,,,2.0974217173955383,both,315.0,-3.9194960505504515,6.280514199095105e-05,0,52,['frequency'],0.009145869873464108,None,None,627.7542117999401,627.7542117999401,0.20669676992110908,2.3041184873166474,627.9736178999301,627.7542117999401,,,,,,,,,cbtxie,001,fr,0,2022-05-05_15h50.30.825,Continuous,2022.1.1,None,
18,0,18,0,8,0,8,0,,,,,,,,2.0974217173955383,both,281.0,-2.083786564599361,0.00010592247856992054,0,53,['frequency'],0.004417069838382304,None,None,630.1121268999996,630.1121268999996,0.20330416993238032,2.3007258873279186,630.3289083999116,630.1121268999996,,,,,,,,,cbtxie,001,fr,0,2022-05-05_15h50.30.825,Continuous,2022.1.1,None,
18,0,18,0,9,0,9,0,,,,,,,,2.0974217173955383,both,250.0,-7.785181695347527,6.834565650796856e-05,0,54,['frequency'],0.005728069925680757,None,None,632.4681569999084,632.4681569999084,0.20489676983561367,2.302318487231152,632.6850014999509,632.4681569999084,,,,,,,,,cbtxie,001,fr,0,2022-05-05_15h50.30.825,Continuous,2022.1.1,None,
18,0,18,0,10,0,10,0,,,,,,,,2.0974217173955383,both,223.0,-6.513596760243068,0.0001041103766445318,0,55,['frequency'],0.00949976989068091,None,None,634.8155055999523,634.8155055999523,0.20916706987190992,2.306588787267448,635.0265043999534,634.8155055999523,,,,,,,,,cbtxie,001,fr,0,2022-05-05_15h50.30.825,Continuous,2022.1.1,None,
18,0,18,0,11,0,11,0,,,,,,,,2.0974217173955383,both,199.0,-1.4333785647993649,0.00022814936744210094,0,56,['frequency'],0.008825969998724759,None,None,637.1633867999772,637.1633867999772,0.2131194700486958,2.310541187444234,637.3776320000179,637.1633867999772,,,,,,,,,cbtxie,001,fr,0,2022-05-05_15h50.30.825,Continuous,2022.1.1,None,
18,0,18,0,12,0,12,0,,,,,,,,2.0974217173955383,both,177.0,3.1075985206766954,0.0004994174871151084,0,57,['frequency'],0.008406469831243157,None,None,639.5167771999259,639.5167771999259,0.2122976698447019,2.30971938724024,639.7324212999083,639.5167771999259,,,,,,,,,cbtxie,001,fr,0,2022-05-05_15h50.30.825,Continuous,2022.1.1,None,
18,0,18,0,13,0,13,0,,,,,,,,2.0974217173955383,both,158.0,5.411495188943212,0.0007997570936809317,0,58,['frequency'],0.01065526984166354,None,None,641.8629529000027,641.8629529000027,0.21064656984526664,2.308068287240805,642.0849399999715,641.8629529000027,,,,,,,,,cbtxie,001,fr,0,2022-05-05_15h50.30.825,Continuous,2022.1.1,None,
18,0,18,0,14,0,14,0,,,,,,,,2.0974217173955383,both,141.0,-5.320088846618592,0.0003145062570466288,0,59,['frequency'],0.010301069938577712,None,['space'],644.2156697999453,644.2156697999453,0.21019327000249177,2.30761498739803,644.4320662999526,644.2156697999453,[-1.63408630003687],,,,,,,,cbtxie,001,fr,0,2022-05-05_15h50.30.825,Continuous,2022.1.1,None,
19,0,19,0,0,0,0,0,,,,,0.5833333333333334,655.7559856999433,None,1.6130863222534164,both,5657.0,1.0,0.0001441999170426954,0,60,['frequency'],0.025109369889833033,None,['space'],656.7880486999638,None,0.2515632699942216,1.864649592247638,657.0078235999681,None,[-0.9903691000072286],646.5605176999234,None,,,,,,cbtxie,001,fr,0,2022-05-05_15h50.30.825,Continuous,2022.1.1,None,
19,0,19,0,1,0,1,0,,,,,,,,1.6130863222534164,both,3776.0,-5.490716219672598,4.252046911492057e-05,0,61,['frequency'],0.008684470085427165,None,['space'],658.6559333999176,658.6559333999176,0.20894537004642189,1.8220316922998383,658.8696068999125,658.6559333999176,[-1.4810462000314146],,,,,,,,cbtxie,001,fr,0,2022-05-05_15h50.30.825,Continuous,2022.1.1,None,
19,0,19,0,2,0,2,0,,,,,,,,1.6130863222534164,both,,,,1,61,['frequency'],0.008009669953025877,None,None,660.5193662999664,660.5193662999664,0.2089218699838966,1.822008192237313,660.7370630999794,660.5193662999664,,,,,,,,,cbtxie,001,fr,0,2022-05-05_15h50.30.825,Continuous,2022.1.1,None,
19,0,19,0,3,0,3,0,,,,,,,,1.6130863222534164,both,1682.0,1.2506378996159022,6.981527259294916e-05,0,62,['frequency'],0.006942169973626733,0.1876634699292481,None,662.3930670999689,662.3930670999689,0.1876634699292481,1.8007497921826645,662.5895376999397,662.3930670999689,,,,,,,,,cbtxie,001,fr,0,2022-05-05_15h50.30.825,Continuous,2022.1.1,None,
19,0,19,0,4,0,4,0,,,,,,,,1.6130863222534164,both,1123.0,1.8889864914141368,6.114902449123533e-05,0,63,['frequency'],0.008377469959668815,None,None,664.239500299911,664.239500299911,0.21756116999313235,1.8306474922465488,664.4626256999327,664.239500299911,,,,,,,,,cbtxie,001,fr,0,2022-05-05_15h50.30.825,Continuous,2022.1.1,None,
19,0,19,0,5,0,5,0,,,,,,,,1.6130863222534164,both,750.0,2.747749409314459,5.576445663243072e-05,0,64,['frequency'],0.009434269974008203,None,None,666.1057303999551,666.1057303999551,0.21043966989964247,1.8235259921530589,666.329196000006,666.1057303999551,,,,,,,,,cbtxie,001,fr,0,2022-05-05_15h50.30.825,Continuous,2022.1.1,None,
19,0,19,0,6,0,6,0,,,,,,,,1.6130863222534164,both,501.0,5.883447756184473,0.00014034374718279753,0,65,['frequency'],0.008695869939401746,None,['space'],667.9809637999861,667.9809637999861,0.2096347699407488,1.8227210921941652,668.1933795999503,667.9809637999861,[-1.3190149000147358],,,,,,,,cbtxie,001,fr,0,2022-05-05_15h50.30.825,Continuous,2022.1.1,None,
19,0,19,0,7,0,7,0,,,,,,,,1.6130863222534164,both,334.0,2.8918613940947404,0.0001307012261349987,0,66,['frequency'],0.0071097699692472816,None,['space'],669.8494095999049,669.8494095999049,0.21007457002997398,1.8231608922833904,670.067142099957,669.8494095999049,[-1.4437675999943167],,,,,,,,cbtxie,001,fr,0,2022-05-05_15h50.30.825,Continuous,2022.1.1,None,
19,0,19,0,8,0,8,0,,,,,,,,1.6130863222534164,both,223.0,2.879670635083718,0.00030701343970969733,0,67,['frequency'],0.008391270064748824,None,None,671.7202025000006,671.7202025000006,0.21091667003929615,1.8240029922927126,671.942335599917,671.7202025000006,,,,,,,,,cbtxie,001,fr,0,2022-05-05_15h50.30.825,Continuous,2022.1.1,None,
20,0,20,0,0,0,0,0,,,,,,679.6290545999072,None,2.0581786385543968,none,1382.0,8.467666942527622,0.00013580804002642153,0,83,['frequency'],0.02496936998795718,0.22124656999949366,None,680.6443184999516,None,0.22124656999949366,2.2794252085538904,680.8552804999053,None,,673.5886183999246,None,"[0.5833333333333334, 0.5833333333333334, 0.5833333333333334, 0.3333333333333333, 0.3333333333333333, 0.3333333333333333, 0.16666666666666666, 0.3333333333333333, 0.16666666666666666, 0.16666666666666666, 0.16666666666666666, 0.5833333333333334, 0.3333333333333333, 0.5833333333333334, 0.3333333333333333]",,,,,cbtxie,001,fr,0,2022-05-05_15h50.30.825,Continuous,2022.1.1,None,
20,0,20,0,1,0,1,0,,,,,,,,2.9016611694840586,none,388.0,9.76287490051097,0.0002451527801626065,0,84,['frequency'],0.005890269996598363,None,['space'],682.947926199995,682.947926199995,0.20444477000273764,3.1061059394867963,683.166078899987,682.947926199995,[-1.8544853000203148],,,,,,,,cbtxie,001,fr,0,2022-05-05_15h50.30.825,Continuous,2022.1.1,None,
