frequencies,training_trials.thisRepN,training_trials.thisTrialN,training_trials.thisN,training_trials.thisIndex,frequencies.thisRepN,frequencies.thisTrialN,frequencies.thisN,frequencies.thisIndex,trials.thisRepN,trials.thisTrialN,trials.thisN,trials.thisIndex,tFrequency,tLevel,tCorrect,Tprobe.started,Tprobe.stopped,tTriangle_cue.started,tTriangle_cue.stopped,Tfeedback.keys,Tfeedback.corr,Tfeedback.rt,Tfeedback.started,Tfeedback.stopped,reversals_nTrials.routineEndVal,track_dir.routineEndVal,step_up.routineEndVal,Correct,Frequency,Level,Psychopy_Level,Direction,Reversals,Track_dir,Step,probe.started,probe.stopped,cross_cue.started,cross_cue.stopped,circle_cue.started,circle_cue.stopped,triangle_cue.started,triangle_cue.stopped,feedback.keys,feedback.corr,feedback.rt,feedback.started,feedback.stopped,memo.started,memo.stopped,key_resp.keys,key_resp.rt,key_resp.started,key_resp.stopped,text.started,text.stopped,participant,session,skip_training,language (english or french),date,expName,psychopyVersion,frameRate,
450,0,0,0,1,,,,,,,,,450,30,right,49.19709736008663,49.4130139000481,49.163233400089666,49.473487599985674,right,1,2.971397199900821,46.71051270002499,None,,,,,,,,,,,,,,,,,,,,,,,,,,,,,,,,,hoavur,001,0,fr,2022-05-04_15h25.06.816,3-AFC_adaptive_staircase_mess,2022.1.1,29.971931285462844,
850,0,1,1,2,,,,,,,,,850,30,left,54.204157360061075,54.414710200042464,None,None,left,1,1.0670492000645027,53.76672690000851,None,,,,,,,,,,,,,,,,,,,,,,,,,,,,,,,,,hoavur,001,0,fr,2022-05-04_15h25.06.816,3-AFC_adaptive_staircase_mess,2022.1.1,29.971931285462844,
200,0,2,2,0,,,,,,,,,200,30,left,58.81445256008301,59.02727530000266,None,None,left,1,1.0056133000180125,58.37270860001445,None,,,,,,,,,,,,,,,,,,,,,,,,,,,,,,,,,hoavur,001,0,fr,2022-05-04_15h25.06.816,3-AFC_adaptive_staircase_mess,2022.1.1,29.971931285462844,
1300,0,3,3,3,,,,,,,,,1300,30,right,64.58360276003368,64.80097019998357,64.54973880003672,64.85798189998604,right,1,2.8116460000164807,62.13431900006253,None,,,,,,,,,,,,,,,,,,,,,,,,,,,,,,,,,hoavur,001,0,fr,2022-05-04_15h25.06.816,3-AFC_adaptive_staircase_mess,2022.1.1,29.971931285462844,
5000,0,4,4,4,,,,,,,,,5000,30,left,68.79905246004928,None,None,None,left,1,1.0488735999679193,68.34522830008063,None,,,,,,,,,,,,,,,,,,,,,,,,,,,,,,,,,hoavur,001,0,fr,2022-05-04_15h25.06.816,3-AFC_adaptive_staircase_mess,2022.1.1,29.971931285462844,
,,,,,0,0,0,0,0,0,0,0,,,,,,,,,,,,,[],[],10,left,1000,30,0.0013930605843148849,0,0,-1,10,109.32539606005885,None,109.29153210006189,109.60082190006506,None,None,None,None,left,1,0.3908934999490157,109.32342590007465,None,None,None,,,,,,,hoavur,001,0,fr,2022-05-04_15h25.06.816,3-AFC_adaptive_staircase_mess,2022.1.1,29.971931285462844,
,,,,,0,0,0,0,1,0,1,0,,,,,,,,,,,,,,,,up,1000,30,0.0013930605843148849,0,0,-1,10,112.24877186007798,112.46826710004825,111.19631340005435,111.5004132000031,112.18357510003261,112.49684690008871,None,None,up,1,1.3197966000298038,111.2268497000914,None,None,None,,,,,,,hoavur,001,0,fr,2022-05-04_15h25.06.816,3-AFC_adaptive_staircase_mess,2022.1.1,29.971931285462844,
,,,,,0,0,0,0,2,0,2,0,,,,,,,,,,,,,,,,right,1000,10,0.00013930605843148847,-1,0,-1,-10,116.07601365998853,116.28708670008928,114.0385086000897,114.33943570009433,115.02641689998563,115.35496180003975,116.01264119998086,116.31483859999571,right,1,2.3510549999773502,114.06784340005834,None,None,None,,,,,,,hoavur,001,0,fr,2022-05-04_15h25.06.816,3-AFC_adaptive_staircase_mess,2022.1.1,29.971931285462844,
,,,,,0,0,0,0,3,0,3,0,,,,,,,,,,,,,,,,right,1000,10,0.00013930605843148847,-1,0,-1,-10,119.93256586003118,None,117.89432199997827,118.19380350003485,118.87382890004665,119.17860230000224,119.86801279999781,120.19329090008978,right,1,2.381528199999593,117.92424050008412,None,None,None,,,,,,,hoavur,001,0,fr,2022-05-04_15h25.06.816,3-AFC_adaptive_staircase_mess,2022.1.1,29.971931285462844,
,,,,,0,0,0,0,4,0,4,0,,,,,,,,,,,,,,,,right,1000,0,4.405244365040069e-05,-1,0,-1,-10,123.83566376001109,124.04820910003036,121.7606898000231,122.06468000006862,122.77248240006156,123.07729180005845,123.77070400002412,124.08079180005006,right,1,2.7028559000464156,121.81146400002763,None,124.32706050004344,None,,,,,,,hoavur,001,0,fr,2022-05-04_15h25.06.816,3-AFC_adaptive_staircase_mess,2022.1.1,29.971931285462844,
,,,,,0,0,0,0,5,0,5,0,,,,,,,,,,,,,,,,up,1000,0,4.405244365040069e-05,-1,0,-1,-10,127.07781386007555,127.29761190002318,126.01014660007786,126.30812450009398,127.01626659999602,127.32492699997965,128.01525719999336,None,up,1,1.930525799980387,126.07271760003641,None,None,None,,,,,,,hoavur,001,0,fr,2022-05-04_15h25.06.816,3-AFC_adaptive_staircase_mess,2022.1.1,29.971931285462844,
,,,,,0,0,0,0,6,0,6,0,,,,,,,,,,,,,,,,up,1000,-10,1.3930605843148848e-05,-1,0,-1,-10,130.5133170600049,130.73428269999567,129.47850700002164,129.77656210004352,130.47945310000796,130.78956790000666,131.4638236000901,131.79619240004104,up,1,3.0526567000197247,129.51005430007353,None,132.00442290003411,None,,,,,,,hoavur,001,0,fr,2022-05-04_15h25.06.816,3-AFC_adaptive_staircase_mess,2022.1.1,29.971931285462844,
,,,,,0,0,0,0,7,0,7,0,,,,,,,,,,,,,,,,right,1000,-10,1.3930605843148848e-05,-1,0,-1,-10,136.10662406000773,136.32427450001705,134.07391430006828,134.35796450008638,135.05093050003052,135.35161420004442,136.04015500005335,136.35297380003612,left,0,2.5257909999927506,134.10027579998132,None,136.59151960001327,None,,,,,,,hoavur,001,0,fr,2022-05-04_15h25.06.816,3-AFC_adaptive_staircase_mess,2022.1.1,29.971931285462844,
,,,,,0,0,0,0,8,0,8,0,,,,,,,,,,,,,,,,right,1000,-5,2.4772509540239506e-05,1,1,1,5,None,None,138.12568529997952,138.42825120000634,139.13673720008228,None,None,None,left,0,1.1753831000532955,138.15493650001008,None,None,None,,,,,,,hoavur,001,0,fr,2022-05-04_15h25.06.816,3-AFC_adaptive_staircase_mess,2022.1.1,29.971931285462844,
,,,,,0,0,0,0,9,0,9,0,,,,,,,,,,,,,,,,right,1000,0,4.405244365040069e-05,1,1,1,5,142.8564655600814,143.07563930004835,140.7996232000878,141.10173180000857,141.81297670002095,142.11543040000834,142.82260160008445,143.13247620000038,right,1,2.56826099997852,140.85732300009113,None,143.3715152000077,None,,,,,,,hoavur,001,0,fr,2022-05-04_15h25.06.816,3-AFC_adaptive_staircase_mess,2022.1.1,29.971931285462844,
,,,,,0,0,0,0,10,0,10,0,,,,,,,,,,,,,,,,right,1000,0,4.405244365040069e-05,1,1,1,5,146.9358751600841,None,144.90501600003336,145.20522000000346,145.88669559999835,146.21628910000436,146.8812673999928,147.19729480007663,right,1,2.5873574999859557,144.93468090007082,None,147.44501660007518,None,,,,,,,hoavur,001,0,fr,2022-05-04_15h25.06.816,3-AFC_adaptive_staircase_mess,2022.1.1,29.971931285462844,
,,,,,0,0,0,0,11,0,11,0,,,,,,,,,,,,,,,,right,1000,-10,1.3930605843148848e-05,-1,2,-1,-5.0,151.0438866600627,151.2678806000622,148.97198080003727,149.28267540002707,149.99016719998326,150.29013450001366,151.01002270006575,151.33156020008028,up,0,3.4048633000347763,149.04486380005255,None,151.53658740001265,None,,,,,,,hoavur,001,0,fr,2022-05-04_15h25.06.816,3-AFC_adaptive_staircase_mess,2022.1.1,29.971931285462844,
,,,,,0,0,0,0,12,0,12,0,,,,,,,,,,,,,,,,right,1000,-7.5,1.8576761454858622e-05,1,3,1,2.5,155.95948146008885,156.17416440008674,153.93083239998668,154.24181540007703,154.923772500013,155.22916510002688,155.9256175000919,156.2333683000179,right,1,2.5064290000591427,153.96066390001215,None,156.46983419999015,None,,,,,,,hoavur,001,0,fr,2022-05-04_15h25.06.816,3-AFC_adaptive_staircase_mess,2022.1.1,29.971931285462844,
,,,,,0,0,0,0,13,0,13,0,,,,,,,,,,,,,,,,right,1000,-7.5,1.8576761454858622e-05,1,3,1,2.5,159.9876796600176,160.20889050001279,157.94527560006827,158.2504318000283,158.92849670001306,159.23113790003117,159.9147683000192,160.2412667000899,right,1,2.5551877999678254,157.97562610008754,None,160.476525300066,None,,,,,,,hoavur,001,0,fr,2022-05-04_15h25.06.816,3-AFC_adaptive_staircase_mess,2022.1.1,29.971931285462844,
,,,,,0,0,0,0,14,0,14,0,,,,,,,,,,,,,,,,up,1000,-12.5,1.0446480654270193e-05,-1,4,-1,-5.0,163.04248146007302,163.2552069000667,161.9889758999925,162.29864140006248,162.98257240001112,163.27167030004784,163.98067369998898,164.2898540000897,left,0,2.3372765999520198,162.01713460008614,None,None,None,,,,,,,hoavur,001,0,fr,2022-05-04_15h25.06.816,3-AFC_adaptive_staircase_mess,2022.1.1,29.971931285462844,
,,,,,0,0,0,0,15,0,15,0,,,,,,,,,,,,,,,,right,1000,-10.0,1.3930605843148848e-05,1,5,1,2.5,None,None,165.81111230002716,None,None,None,None,None,left,0,-0.7304753999924287,165.8686383999884,None,None,None,,,,,,,hoavur,001,0,fr,2022-05-04_15h25.06.816,3-AFC_adaptive_staircase_mess,2022.1.1,29.971931285462844,
,,,,,0,0,0,0,16,0,16,0,,,,,,,,,,,,,,,,up,1000,-7.5,1.8576761454858622e-05,1,5,1,2.5,168.36999196005053,168.58552090008743,167.30357660003938,167.60667190002277,168.3063087000046,168.6131170000881,169.31727100000717,169.61364390002564,up,1,3.0123035999713466,167.3579639000818,None,169.87697009998374,None,,,,,,,hoavur,001,0,fr,2022-05-04_15h25.06.816,3-AFC_adaptive_staircase_mess,2022.1.1,29.971931285462844,
,,,,,0,0,0,0,17,0,17,0,,,,,,,,,,,,,,,,right,1000,-7.5,1.8576761454858622e-05,1,5,1,2.5,173.90774366008117,174.1199900000356,171.83751089998987,172.13225490006153,172.83835780003574,173.13313650002237,173.82935230003204,174.1490577000659,right,1,2.4717523999279365,171.86605700000655,None,174.37728246003388,None,,,,,,,hoavur,001,0,fr,2022-05-04_15h25.06.816,3-AFC_adaptive_staircase_mess,2022.1.1,29.971931285462844,
,,,,,0,0,0,0,18,0,18,0,,,,,,,,,,,,,,,,right,1000,-12.5,1.0446480654270193e-05,-1,6,-1,-5.0,177.84642806001938,178.0630607000785,175.8083438000176,176.11205140000675,176.80687950004358,177.10410670004785,177.81256410002243,178.1194087000331,right,1,2.5180610000388697,175.83588520006742,None,178.35168710001744,None,,,,,,,hoavur,001,0,fr,2022-05-04_15h25.06.816,3-AFC_adaptive_staircase_mess,2022.1.1,29.971931285462844,
,,,,,1,0,1,0,0,0,0,0,,,,,,,,,,,,,[],[],10,right,1500,30,0.001527460556607757,0,0,-1,10,197.35465466002933,None,195.29147890000604,195.59074040001724,196.2922653000569,196.58732849999797,197.3001678000437,197.61306570004672,right,1,2.3786112000234425,195.35200040007476,None,None,None,left,15.402577599976212,179.44688270008191,None,179.44688270008191,None,hoavur,001,0,fr,2022-05-04_15h25.06.816,3-AFC_adaptive_staircase_mess,2022.1.1,29.971931285462844,
,,,,,1,0,1,0,1,0,1,0,,,,,,,,,,,,,,,,left,1500,30,0.001527460556607757,0,0,-1,10,199.26439606007187,199.48006630002055,199.23053210007492,199.54165640007704,None,None,None,None,left,1,0.4404007000848651,199.25850050000008,None,None,None,,,,,,,hoavur,001,0,fr,2022-05-04_15h25.06.816,3-AFC_adaptive_staircase_mess,2022.1.1,29.971931285462844,
,,,,,1,0,1,0,2,0,2,0,,,,,,,,,,,,,,,,up,1500,10,0.0001527460556607757,-1,0,-1,-10,202.20774626003112,202.42169790004846,201.17161130008753,201.46912220004015,202.17388230003417,202.48278870002832,None,None,up,1,1.326942100073211,201.204504000023,None,None,None,,,,,,,hoavur,001,0,fr,2022-05-04_15h25.06.816,3-AFC_adaptive_staircase_mess,2022.1.1,29.971931285462844,
,,,,,1,0,1,0,3,0,3,0,,,,,,,,,,,,,,,,up,1500,10,0.0001527460556607757,-1,0,-1,-10,205.06219726002308,205.2848437000066,204.00773740001023,204.2948558999924,205.007993599982,205.31807230005506,None,None,up,1,1.3067578999325633,204.07066470000427,None,None,None,,,,,,,hoavur,001,0,fr,2022-05-04_15h25.06.816,3-AFC_adaptive_staircase_mess,2022.1.1,29.971931285462844,
,,,,,1,0,1,0,4,0,4,0,,,,,,,,,,,,,,,,left,1500,0,4.830254394949071e-05,-1,0,-1,-10,206.91219445997848,207.12890790007077,206.87833049998153,207.18475400004536,207.86521640000865,208.15975620003883,208.86199420003686,209.15769700007513,right,0,2.499011700041592,206.911130100023,None,209.42603570001666,None,,,,,,,hoavur,001,0,fr,2022-05-04_15h25.06.816,3-AFC_adaptive_staircase_mess,2022.1.1,29.971931285462844,
,,,,,1,0,1,0,5,0,5,0,,,,,,,,,,,,,,,,left,1500,5,8.589541935787943e-05,1,1,1,5,210.95554656004532,None,210.8920413000742,211.21968560002279,None,None,None,None,left,1,0.5242400000570342,210.9498889000388,None,None,None,,,,,,,hoavur,001,0,fr,2022-05-04_15h25.06.816,3-AFC_adaptive_staircase_mess,2022.1.1,29.971931285462844,
,,,,,1,0,1,0,6,0,6,0,,,,,,,,,,,,,,,,up,1500,5,8.589541935787943e-05,1,1,1,5,213.96818996004293,None,212.9288081000559,213.225310800015,213.93432600004598,214.23126120003872,None,None,up,1,1.4760951000498608,212.95843100000639,None,None,None,,,,,,,hoavur,001,0,fr,2022-05-04_15h25.06.816,3-AFC_adaptive_staircase_mess,2022.1.1,29.971931285462844,
,,,,,1,0,1,0,7,0,7,0,,,,,,,,,,,,,,,,left,1500,-5,2.716251657462168e-05,-1,2,-1,-5.0,215.94302966007962,216.15772700007074,215.90916570008267,216.21287669998128,216.8968709000619,217.191049200017,217.9210665000137,218.22278240008745,right,0,3.004212300060317,215.9413663999876,None,218.4562070000684,None,,,,,,,hoavur,001,0,fr,2022-05-04_15h25.06.816,3-AFC_adaptive_staircase_mess,2022.1.1,29.971931285462844,
,,,,,1,0,1,0,8,0,8,0,,,,,,,,,,,,,,,,left,1500,-2.5,3.622179800374953e-05,1,3,1,2.5,220.4927431600401,220.70788860006724,220.4259290000191,220.73806570004672,221.41275150002912,221.72766980004963,222.40861670009326,222.73102060006931,left,1,2.517997699906118,220.49289130000398,None,222.96931750001386,None,,,,,,,hoavur,001,0,fr,2022-05-04_15h25.06.816,3-AFC_adaptive_staircase_mess,2022.1.1,29.971931285462844,
,,,,,1,0,1,0,9,0,9,0,,,,,,,,,,,,,,,,up,1500,-2.5,3.622179800374953e-05,1,3,1,2.5,225.53165216003543,225.7456695000874,224.49426389997825,224.79415060009342,225.49778820003849,225.80590520007536,226.4792002000613,226.80253940005787,left,0,2.2603857000358403,224.5585156000452,None,None,None,,,,,,,hoavur,001,0,fr,2022-05-04_15h25.06.816,3-AFC_adaptive_staircase_mess,2022.1.1,29.971931285462844,
,,,,,1,0,1,0,10,0,10,0,,,,,,,,,,,,,,,,up,1500,0.0,4.830254394949071e-05,1,3,1,2.5,229.3405070599867,229.5504289000528,228.2871130000567,228.6010311000282,229.2770519000478,229.57816010003444,None,None,up,1,1.7197683999547735,228.34706280007958,None,None,None,,,,,,,hoavur,001,0,fr,2022-05-04_15h25.06.816,3-AFC_adaptive_staircase_mess,2022.1.1,29.971931285462844,
,,,,,1,0,1,0,11,0,11,0,,,,,,,,,,,,,,,,up,1500,0.0,4.830254394949071e-05,1,3,1,2.5,232.59151495997793,232.80531189998146,231.52775270002894,231.82361730001867,232.52842970006168,232.83127439999953,None,None,up,1,1.681503799976781,231.58613339997828,None,None,None,,,,,,,hoavur,001,0,fr,2022-05-04_15h25.06.816,3-AFC_adaptive_staircase_mess,2022.1.1,29.971931285462844,
,,,,,1,0,1,0,12,0,12,0,,,,,,,,,,,,,,,,right,1500,-5.0,2.716251657462168e-05,-1,4,-1,-5.0,236.79629766002762,237.0078084000852,234.74142420000862,235.03973790002055,235.7452625000151,236.04202679998707,236.73401870008092,237.03524170001037,right,1,2.556588399922475,234.77394400001504,None,237.29911490005907,None,,,,,,,hoavur,001,0,fr,2022-05-04_15h25.06.816,3-AFC_adaptive_staircase_mess,2022.1.1,29.971931285462844,
,,,,,1,0,1,0,13,0,13,0,,,,,,,,,,,,,,,,up,1500,-5.0,2.716251657462168e-05,-1,4,-1,-5.0,239.83396056008058,240.0578763000667,238.79334930004552,239.09251370001584,239.7673961999826,240.0886332000373,240.79047770006582,241.11385110008996,right,0,2.6507970000384375,238.82295559998602,None,241.31808040000033,None,,,,,,,hoavur,001,0,fr,2022-05-04_15h25.06.816,3-AFC_adaptive_staircase_mess,2022.1.1,29.971931285462844,
,,,,,1,0,1,0,14,0,14,0,,,,,,,,,,,,,,,,up,1500,-2.5,3.622179800374953e-05,1,5,1,2.5,244.0183441599831,244.2270756000653,242.9597447999986,243.2559282000875,243.95163250004407,244.25923100009095,244.96260259998962,245.2597038000822,up,1,2.8689951000269502,242.98950949998107,None,245.49475620000158,None,,,,,,,hoavur,001,0,fr,2022-05-04_15h25.06.816,3-AFC_adaptive_staircase_mess,2022.1.1,29.971931285462844,
,,,,,1,0,1,0,15,0,15,0,,,,,,,,,,,,,,,,up,1500,-2.5,3.622179800374953e-05,1,5,1,2.5,248.35855466003994,248.57327870000154,247.31429990008473,247.6198793000076,248.2963909000391,248.59907710005064,249.31042300001718,249.60501450009178,left,0,2.7892468000063673,247.3725071999943,None,249.87084320001304,None,,,,,,,hoavur,001,0,fr,2022-05-04_15h25.06.816,3-AFC_adaptive_staircase_mess,2022.1.1,29.971931285462844,
,,,,,1,0,1,0,16,0,16,0,,,,,,,,,,,,,,,,right,1500,0.0,4.830254394949071e-05,1,5,1,2.5,253.66103726001455,253.88031510007568,251.6233935999917,251.9204374999972,252.62257480004337,252.92606670001987,253.6271733000176,253.93648720008787,right,1,3.100613999995403,251.68526920001023,None,254.17142500006594,None,,,,,,,hoavur,001,0,fr,2022-05-04_15h25.06.816,3-AFC_adaptive_staircase_mess,2022.1.1,29.971931285462844,
,,,,,1,0,1,0,17,0,17,0,,,,,,,,,,,,,,,,up,1500,0.0,4.830254394949071e-05,1,5,1,2.5,257.33801485998555,None,256.27495900006033,256.5715379000176,257.2743444000371,257.6030365000479,258.2780762000475,258.5987682000268,left,0,2.8364917999133468,256.33257090009283,None,258.8353360000765,None,,,,,,,hoavur,001,0,fr,2022-05-04_15h25.06.816,3-AFC_adaptive_staircase_mess,2022.1.1,29.971931285462844,
,,,,,1,0,1,0,18,0,18,0,,,,,,,,,,,,,,,,up,1500,2.5,6.441247758465671e-05,1,5,1,2.5,261.7233665599953,261.93506090005394,260.6641704000067,260.9570434000343,261.6593515999848,261.9613219000166,None,None,up,1,1.7579795999918133,260.6919102000538,None,None,None,,,,,,,hoavur,001,0,fr,2022-05-04_15h25.06.816,3-AFC_adaptive_staircase_mess,2022.1.1,29.971931285462844,
,,,,,1,0,1,0,19,0,19,0,,,,,,,,,,,,,,,,right,1500,2.5,6.441247758465671e-05,1,5,1,2.5,265.94179485999047,266.1540064000292,263.9042165999999,264.2040168000385,264.9086564000463,265.2053182000527,265.9079308999935,266.21446540008765,right,1,2.6426458000205457,263.96714910003357,None,266.4504168999847,None,,,,,,,hoavur,001,0,fr,2022-05-04_15h25.06.816,3-AFC_adaptive_staircase_mess,2022.1.1,29.971931285462844,
,,,,,1,0,1,0,20,0,20,0,,,,,,,,,,,,,,,,right,1500,-2.5,3.622179800374953e-05,-1,6,-1,-5.0,270.1269664600724,270.35404050000943,268.0746464000549,268.3753446000628,269.05947490001563,269.35924030002207,270.06509520008694,270.38599370000884,up,0,2.6492173000006005,268.1054372000508,None,270.62272880005185,None,,,,,,,hoavur,001,0,fr,2022-05-04_15h25.06.816,3-AFC_adaptive_staircase_mess,2022.1.1,29.971931285462844,
,,,,,2,0,2,0,0,0,0,0,,,,,,,,,,,,,[],[],10,up,2000,30,0.0023657562948074026,0,0,-1,10,313.75796056007965,313.9681448000483,312.68654570006765,312.98918570007663,313.6901191000361,314.0002187000355,None,None,up,1,1.345917799975723,312.7520059000235,None,None,None,left,40.40998410002794,271.83253900008276,None,271.83253900008276,None,hoavur,001,0,fr,2022-05-04_15h25.06.816,3-AFC_adaptive_staircase_mess,2022.1.1,29.971931285462844,
,,,,,2,0,2,0,1,0,1,0,,,,,,,,,,,,,,,,left,2000,30,0.0023657562948074026,0,0,-1,10,315.63548936001024,None,315.5739169000881,315.9003876000643,None,None,None,None,left,1,0.4356051000067964,315.62963520002086,None,None,None,,,,,,,hoavur,001,0,fr,2022-05-04_15h25.06.816,3-AFC_adaptive_staircase_mess,2022.1.1,29.971931285462844,
,,,,,2,0,2,0,2,0,2,0,,,,,,,,,,,,,,,,right,2000,10,0.00023657562948074026,-1,0,-1,-10,319.5833128600381,319.8074059999781,317.52741500001866,317.82790700008627,318.54895690002013,318.86252409999724,319.5199463000754,319.83947210002225,right,1,2.325932100065984,317.5969884999795,None,None,None,,,,,,,hoavur,001,0,fr,2022-05-04_15h25.06.816,3-AFC_adaptive_staircase_mess,2022.1.1,29.971931285462844,
,,,,,2,0,2,0,3,0,3,0,,,,,,,,,,,,,,,,right,2000,10,0.00023657562948074026,-1,0,-1,-10,323.43294956004246,323.6445294000441,321.38334360008594,321.6959082999965,322.4031683000503,322.7268101000227,323.3990856000455,323.70559030002914,right,1,2.399853999959305,321.4423082000576,None,None,None,,,,,,,hoavur,001,0,fr,2022-05-04_15h25.06.816,3-AFC_adaptive_staircase_mess,2022.1.1,29.971931285462844,
,,,,,2,0,2,0,4,0,4,0,,,,,,,,,,,,,,,,up,2000,0,7.481178280472168e-05,-1,0,-1,-10,326.3593927600188,326.58199650002643,325.2992674000561,325.60270570009016,326.2976447000401,326.61278050008696,None,None,up,1,1.677277300041169,325.3652438999852,None,None,None,,,,,,,hoavur,001,0,fr,2022-05-04_15h25.06.816,3-AFC_adaptive_staircase_mess,2022.1.1,29.971931285462844,
,,,,,2,0,2,0,5,0,5,0,,,,,,,,,,,,,,,,right,2000,0,7.481178280472168e-05,-1,0,-1,-10,330.5855006600497,None,328.5326326000504,328.83600360003766,329.5192407000577,329.8386477000313,330.52196530008223,330.85022110003047,right,1,2.434218099922873,328.59263060009107,None,None,None,,,,,,,hoavur,001,0,fr,2022-05-04_15h25.06.816,3-AFC_adaptive_staircase_mess,2022.1.1,29.971931285462844,
,,,,,2,0,2,0,6,0,6,0,,,,,,,,,,,,,,,,left,2000,-10,2.3657562948074015e-05,-1,0,-1,-10,332.5386133600725,332.75377359997947,332.47265250002965,332.78573100001086,333.4733295000624,333.77797260007355,334.47531790006906,334.7766038000118,right,0,2.637580499984324,332.5326490000589,None,335.02231969998684,None,,,,,,,hoavur,001,0,fr,2022-05-04_15h25.06.816,3-AFC_adaptive_staircase_mess,2022.1.1,29.971931285462844,
,,,,,2,0,2,0,7,0,7,0,,,,,,,,,,,,,,,,left,2000,-5,4.206975708225974e-05,1,1,1,5,336.70802066002506,336.92556230002083,336.64340260007884,336.95810659998097,None,None,None,None,left,1,0.8835744999814779,336.70232470007613,None,None,None,,,,,,,hoavur,001,0,fr,2022-05-04_15h25.06.816,3-AFC_adaptive_staircase_mess,2022.1.1,29.971931285462844,
,,,,,2,0,2,0,8,0,8,0,,,,,,,,,,,,,,,,right,2000,-5,4.206975708225974e-05,1,1,1,5,341.1283481599996,None,339.05928310006857,339.3608524000738,340.05997030006256,340.3559030999895,341.0579058000585,341.36538380000275,right,1,2.4639174999902025,339.08999680005945,None,341.5937563600484,None,,,,,,,hoavur,001,0,fr,2022-05-04_15h25.06.816,3-AFC_adaptive_staircase_mess,2022.1.1,29.971931285462844,
,,,,,2,0,2,0,9,0,9,0,,,,,,,,,,,,,,,,right,2000,-15,1.3303625298994042e-05,-1,2,-1,-5.0,345.0920593600487,345.3001782000065,343.02951560006477,343.36097300006077,344.0265395999886,344.32937510008924,345.02368890005164,345.3280936999945,up,0,2.3613083999371156,343.09624039998744,None,None,None,,,,,,,hoavur,001,0,fr,2022-05-04_15h25.06.816,3-AFC_adaptive_staircase_mess,2022.1.1,29.971931285462844,
,,,,,2,0,2,0,10,0,10,0,,,,,,,,,,,,,,,,right,2000,-12.5,1.7740669461678767e-05,1,3,1,2.5,349.0358413600363,349.249050399987,346.96208720002323,347.2674157000147,347.9645741999848,348.2954383000033,348.965976000065,349.27757000003476,right,1,3.17827239993494,347.03188999998383,None,349.5013723000884,None,,,,,,,hoavur,001,0,fr,2022-05-04_15h25.06.816,3-AFC_adaptive_staircase_mess,2022.1.1,29.971931285462844,
,,,,,2,0,2,0,11,0,11,0,,,,,,,,,,,,,,,,right,2000,-12.5,1.7740669461678767e-05,1,3,1,2.5,353.7750842600828,None,351.704054400092,352.00383780000266,352.7053214000771,353.03858480008785,353.70658170001116,354.0431814000476,left,0,2.714404599973932,351.76730120007414,None,354.2410294000292,None,,,,,,,hoavur,001,0,fr,2022-05-04_15h25.06.816,3-AFC_adaptive_staircase_mess,2022.1.1,29.971931285462844,
,,,,,2,0,2,0,12,0,12,0,,,,,,,,,,,,,,,,right,2000,-10.0,2.3657562948074015e-05,1,3,1,2.5,358.04001436003017,358.2548436000943,355.97256350005046,356.2749738000566,356.9742443000432,357.276918400079,357.9762642000569,358.2816260000691,up,0,2.61653350002598,356.0405301999999,None,358.5473148000892,None,,,,,,,hoavur,001,0,fr,2022-05-04_15h25.06.816,3-AFC_adaptive_staircase_mess,2022.1.1,29.971931285462844,
,,,,,2,0,2,0,13,0,13,0,,,,,,,,,,,,,,,,up,2000,-7.5,3.154786722400965e-05,1,3,1,2.5,361.21676306000444,None,360.1473744000541,360.44510510005057,361.1480494000716,361.48330940003507,362.1484743000474,362.44887349999044,right,0,3.1162581000244245,360.2145004000049,None,362.71616810001433,None,,,,,,,hoavur,001,0,fr,2022-05-04_15h25.06.816,3-AFC_adaptive_staircase_mess,2022.1.1,29.971931285462844,
,,,,,2,0,2,0,14,0,14,0,,,,,,,,,,,,,,,,left,2000,-5.0,4.206975708225974e-05,1,3,1,2.5,364.8875343599822,365.10066200001165,364.8183524000924,365.1177943000803,365.81674969999585,366.11873590003233,366.8135618000524,367.11553900002036,left,1,2.748474600026384,364.88430989999324,None,367.3848337000236,None,,,,,,,hoavur,001,0,fr,2022-05-04_15h25.06.816,3-AFC_adaptive_staircase_mess,2022.1.1,29.971931285462844,
,,,,,2,0,2,0,15,0,15,0,,,,,,,,,,,,,,,,right,2000,-5.0,4.206975708225974e-05,1,3,1,2.5,371.1879174600355,371.3920341000194,369.1224687000504,369.4523383000633,370.1205895000603,370.4258265000535,371.122752700001,371.42686420003884,up,0,2.7040871999925002,369.18686630006414,None,371.6919832000276,None,,,,,,,hoavur,001,0,fr,2022-05-04_15h25.06.816,3-AFC_adaptive_staircase_mess,2022.1.1,29.971931285462844,
,,,,,2,0,2,0,16,0,16,0,,,,,,,,,,,,,,,,left,2000,-2.5,5.610092271509818e-05,1,3,1,2.5,373.42355465998406,373.64380150008947,373.3539760999847,373.67251549998764,None,None,None,None,left,1,0.7532164000440389,373.42559250001796,None,None,None,,,,,,,hoavur,001,0,fr,2022-05-04_15h25.06.816,3-AFC_adaptive_staircase_mess,2022.1.1,29.971931285462844,
,,,,,2,0,2,0,17,0,17,0,,,,,,,,,,,,,,,,up,2000,-2.5,5.610092271509818e-05,1,3,1,2.5,376.6976523600053,None,375.65669980004895,375.96201690007,376.66378840000834,376.96598360000644,None,None,up,1,1.4017018000595272,375.72055239998735,None,None,None,,,,,,,hoavur,001,0,fr,2022-05-04_15h25.06.816,3-AFC_adaptive_staircase_mess,2022.1.1,29.971931285462844,
,,,,,2,0,2,0,18,0,18,0,,,,,,,,,,,,,,,,left,2000,-7.5,3.154786722400965e-05,-1,4,-1,-5.0,378.66575566008686,None,378.5966828999808,378.934794300003,379.62802459998056,379.9328466000734,380.59672260005027,380.89701570000034,right,0,2.7427516999887303,378.666216099984,None,381.1682316000806,None,,,,,,,hoavur,001,0,fr,2022-05-04_15h25.06.816,3-AFC_adaptive_staircase_mess,2022.1.1,29.971931285462844,
,,,,,2,0,2,0,19,0,19,0,,,,,,,,,,,,,,,,up,2000,-5.0,4.206975708225974e-05,1,5,1,2.5,383.9614067600807,384.17347540007904,382.90128930006176,383.2045137999812,383.8930620000465,384.20729940000456,None,None,up,1,1.4942117999307811,382.9712549999822,None,None,None,,,,,,,hoavur,001,0,fr,2022-05-04_15h25.06.816,3-AFC_adaptive_staircase_mess,2022.1.1,29.971931285462844,
,,,,,2,0,2,0,20,0,20,0,,,,,,,,,,,,,,,,right,2000,-5.0,4.206975708225974e-05,1,5,1,2.5,388.0050605600001,388.21722910006065,385.9642388999928,386.2670625000028,386.9710059000645,387.2721120000351,387.97119660000317,388.27685700007714,left,0,3.807305600028485,386.0346220000647,None,388.504228200065,None,,,,,,,hoavur,001,0,fr,2022-05-04_15h25.06.816,3-AFC_adaptive_staircase_mess,2022.1.1,29.971931285462844,
,,,,,2,0,2,0,21,0,21,0,,,,,,,,,,,,,,,,up,2000,-2.5,5.610092271509818e-05,1,5,1,2.5,392.375273359986,None,391.3127864000853,391.61111920000985,392.3052357999841,392.607932300074,None,None,up,1,1.5723167000105605,391.37376710004173,None,None,None,,,,,,,hoavur,001,0,fr,2022-05-04_15h25.06.816,3-AFC_adaptive_staircase_mess,2022.1.1,29.971931285462844,
,,,,,2,0,2,0,22,0,22,0,,,,,,,,,,,,,,,,left,2000,-2.5,5.610092271509818e-05,1,5,1,2.5,394.5097750600427,394.7197474000277,394.44268400000874,394.74921390006784,395.4467776999809,395.7477307000663,396.4471034000162,396.7444685000228,right,0,2.63029630004894,394.5074374000542,None,396.98981559998356,None,,,,,,,hoavur,001,0,fr,2022-05-04_15h25.06.816,3-AFC_adaptive_staircase_mess,2022.1.1,29.971931285462844,
,,,,,2,0,2,0,23,0,23,0,,,,,,,,,,,,,,,,right,2000,0.0,7.481178280472168e-05,1,5,1,2.5,400.6508746600477,None,398.6246285000816,398.94689940009266,399.61992440000176,399.92225519998465,400.61701070005074,400.91929490002804,right,1,2.626740899984725,398.6562459000852,None,401.1803325000219,None,,,,,,,hoavur,001,0,fr,2022-05-04_15h25.06.816,3-AFC_adaptive_staircase_mess,2022.1.1,29.971931285462844,
,,,,,2,0,2,0,24,0,24,0,,,,,,,,,,,,,,,,left,2000,0.0,7.481178280472168e-05,1,5,1,2.5,402.8132522600237,None,402.74773370008916,403.0771601999877,403.773118800018,None,None,None,left,1,1.0953993999864906,402.8105648000492,None,None,None,,,,,,,hoavur,001,0,fr,2022-05-04_15h25.06.816,3-AFC_adaptive_staircase_mess,2022.1.1,29.971931285462844,
,,,,,2,0,2,0,25,0,25,0,,,,,,,,,,,,,,,,right,2000,-5.0,4.206975708225974e-05,-1,6,-1,-5.0,407.4199732600711,407.6318987000268,405.36892370006535,405.6894329000497,406.3824708000757,406.6905105999904,407.38610930007417,407.6968399999896,right,1,2.490704600000754,405.43056370003615,None,407.93282940005884,None,,,,,,,hoavur,001,0,fr,2022-05-04_15h25.06.816,3-AFC_adaptive_staircase_mess,2022.1.1,29.971931285462844,
,,,,,3,0,3,0,0,0,0,0,,,,,,,,,,,,,[],[],10,up,3000,30,0.001733684252262658,0,0,-1,10,444.6581906599924,444.87728720007,443.6098081000382,443.899991900078,444.62432669999544,444.9331286000088,None,None,up,1,1.2596090999431908,443.6701306999894,None,None,None,left,34.13712849991862,408.9996302999789,None,408.9996302999789,None,hoavur,001,0,fr,2022-05-04_15h25.06.816,3-AFC_adaptive_staircase_mess,2022.1.1,29.971931285462844,
,,,,,3,0,3,0,1,0,1,0,,,,,,,,,,,,,,,,up,3000,30,0.001733684252262658,0,0,-1,10,447.44514335999264,447.6683954000473,446.3982546000043,446.7000477000838,447.36878890008666,447.6977678000694,None,None,up,1,1.2996592000126839,446.42919970001094,None,None,None,,,,,,,hoavur,001,0,fr,2022-05-04_15h25.06.816,3-AFC_adaptive_staircase_mess,2022.1.1,29.971931285462844,
,,,,,3,0,3,0,2,0,2,0,,,,,,,,,,,,,,,,right,3000,10,0.00017336842522626576,-1,0,-1,-10,451.2721318600699,451.4822297000792,449.2334556999849,449.536565800081,450.22555700002704,450.52952680003364,451.23826790007297,451.54253209999297,right,1,2.32075889990665,449.2649962999858,None,None,None,,,,,,,hoavur,001,0,fr,2022-05-04_15h25.06.816,3-AFC_adaptive_staircase_mess,2022.1.1,29.971931285462844,
,,,,,3,0,3,0,3,0,3,0,,,,,,,,,,,,,,,,right,3000,10,0.00017336842522626576,-1,0,-1,-10,455.1104046600405,455.3368115000194,453.0645622999873,453.37450080004055,454.05551500001457,454.3805813000072,455.0557830000762,455.369091700064,right,1,2.395935600041412,453.0943022000138,None,None,None,,,,,,,hoavur,001,0,fr,2022-05-04_15h25.06.816,3-AFC_adaptive_staircase_mess,2022.1.1,29.971931285462844,
,,,,,3,0,3,0,4,0,4,0,,,,,,,,,,,,,,,,right,3000,0,5.482390980715923e-05,-1,0,-1,-10,459.021882260032,459.2390538000036,456.9761972000124,457.29239369998686,457.97252880001906,458.2845684000058,458.98801830003504,459.30158159998246,right,1,2.650508299935609,457.04684229998384,None,459.53858679998666,None,,,,,,,hoavur,001,0,fr,2022-05-04_15h25.06.816,3-AFC_adaptive_staircase_mess,2022.1.1,29.971931285462844,
,,,,,3,0,3,0,5,0,5,0,,,,,,,,,,,,,,,,up,3000,0,5.482390980715923e-05,-1,0,-1,-10,462.25194906005635,None,461.2195537000662,461.5204221000895,462.19690280000214,462.50729410001077,463.20218130003195,463.51994610007387,left,0,2.6242551000323147,461.24872800009325,None,463.7702708999859,None,,,,,,,hoavur,001,0,fr,2022-05-04_15h25.06.816,3-AFC_adaptive_staircase_mess,2022.1.1,29.971931285462844,
,,,,,3,0,3,0,6,0,6,0,,,,,,,,,,,,,,,,right,3000,5,9.749222998790222e-05,1,1,1,5,467.41047736005856,467.6222536000423,465.35146250005346,465.6690210000379,466.3478919999907,466.6686288000783,467.3466873000143,467.6497987000039,up,0,2.548287400044501,465.4221203000052,None,467.9117182000773,None,,,,,,,hoavur,001,0,fr,2022-05-04_15h25.06.816,3-AFC_adaptive_staircase_mess,2022.1.1,29.971931285462844,
,,,,,3,0,3,0,7,0,7,0,,,,,,,,,,,,,,,,up,3000,10,0.00017336842522626576,1,1,1,5,470.4928397600772,470.7059288000455,469.43672680004966,469.7385565000586,470.4304432000499,470.73207999998704,None,None,up,1,1.3232502000173554,469.49480410001706,None,None,None,,,,,,,hoavur,001,0,fr,2022-05-04_15h25.06.816,3-AFC_adaptive_staircase_mess,2022.1.1,29.971931285462844,
,,,,,3,0,3,0,8,0,8,0,,,,,,,,,,,,,,,,right,3000,10,0.00017336842522626576,1,1,1,5,474.31333706008735,474.5297452000668,472.27330410003196,472.5626614000648,473.2775976000121,473.5761334000854,474.2794731000904,474.58558499999344,right,1,2.469888300052844,472.33166530006565,None,474.82012970000505,None,,,,,,,hoavur,001,0,fr,2022-05-04_15h25.06.816,3-AFC_adaptive_staircase_mess,2022.1.1,29.971931285462844,
,,,,,3,0,3,0,9,0,9,0,,,,,,,,,,,,,,,,up,3000,0,5.482390980715923e-05,-1,2,-1,-5.0,477.33114985998253,477.5560578000732,476.25237940007355,476.54831490002107,477.2658330000704,477.58591570006683,478.2621112000197,478.58120040001813,right,0,2.763259300030768,476.31046549999155,None,478.8180601000786,None,,,,,,,hoavur,001,0,fr,2022-05-04_15h25.06.816,3-AFC_adaptive_staircase_mess,2022.1.1,29.971931285462844,
,,,,,3,0,3,0,10,0,10,0,,,,,,,,,,,,,,,,right,3000,2.5,7.310885872283589e-05,1,3,1,2.5,482.5987935599871,None,480.5553165000165,480.8834037000779,481.5374199000653,481.8338407999836,482.534516200074,482.8593561000889,right,1,2.6345528000965714,480.5836328000296,None,483.10577390005346,None,,,,,,,hoavur,001,0,fr,2022-05-04_15h25.06.816,3-AFC_adaptive_staircase_mess,2022.1.1,29.971931285462844,
,,,,,3,0,3,0,11,0,11,0,,,,,,,,,,,,,,,,left,3000,2.5,7.310885872283589e-05,1,3,1,2.5,484.75162326002027,484.969460500055,484.68704250000883,484.9995844999794,None,None,None,None,left,1,0.6805533999577165,484.74543700006325,None,None,None,,,,,,,hoavur,001,0,fr,2022-05-04_15h25.06.816,3-AFC_adaptive_staircase_mess,2022.1.1,29.971931285462844,
,,,,,3,0,3,0,12,0,12,0,,,,,,,,,,,,,,,,up,3000,-2.5,4.1112132497353565e-05,-1,4,-1,-5.0,487.94561166006605,488.1750957000768,486.90074960002676,487.19813800009433,487.88269100000616,488.20517790003214,488.9076326000504,489.20769680000376,up,1,2.3717409999808297,486.9590728000039,None,None,None,,,,,,,hoavur,001,0,fr,2022-05-04_15h25.06.816,3-AFC_adaptive_staircase_mess,2022.1.1,29.971931285462844,
,,,,,3,0,3,0,13,0,13,0,,,,,,,,,,,,,,,,right,3000,-2.5,4.1112132497353565e-05,-1,4,-1,-5.0,492.8621820600703,493.0763985000085,490.8001088000601,491.1100073000416,491.7855250000721,492.09661240002606,492.7958706000354,493.1068234000122,right,1,2.5599837999325246,490.8662615000503,None,493.34272070007864,None,,,,,,,hoavur,001,0,fr,2022-05-04_15h25.06.816,3-AFC_adaptive_staircase_mess,2022.1.1,29.971931285462844,
,,,,,3,0,3,0,14,0,14,0,,,,,,,,,,,,,,,,left,3000,-7.5,2.3119051069963017e-05,-1,4,-1,-5.0,494.92785866004414,495.14405920007266,494.8939947000472,495.2044032000704,495.882366899983,496.199061900028,496.88553490000777,497.18142600008287,right,0,2.5687154000625014,494.9219858000288,None,497.4218188000377,None,,,,,,,hoavur,001,0,fr,2022-05-04_15h25.06.816,3-AFC_adaptive_staircase_mess,2022.1.1,29.971931285462844,
,,,,,3,0,3,0,15,0,15,0,,,,,,,,,,,,,,,,up,3000,-5.0,3.082975009307411e-05,1,5,1,2.5,500.00272936006075,500.2233538000146,498.969533400028,499.26768440008163,499.9688654000638,500.2796454000054,500.9574476000853,501.25259130005725,up,1,2.8237853000173345,499.00183040008415,None,501.5178524000803,None,,,,,,,hoavur,001,0,fr,2022-05-04_15h25.06.816,3-AFC_adaptive_staircase_mess,2022.1.1,29.971931285462844,
,,,,,3,0,3,0,16,0,16,0,,,,,,,,,,,,,,,,right,3000,-5.0,3.082975009307411e-05,1,5,1,2.5,505.361883260007,None,503.3179933000356,503.61436880007386,504.3232405000599,504.6431472999975,505.30772949999664,505.6199044000823,left,0,2.6060647000558674,503.3473513000645,None,505.86399630003143,None,,,,,,,hoavur,001,0,fr,2022-05-04_15h25.06.816,3-AFC_adaptive_staircase_mess,2022.1.1,29.971931285462844,
,,,,,3,0,3,0,17,0,17,0,,,,,,,,,,,,,,,,up,3000,-2.5,4.1112132497353565e-05,1,5,1,2.5,508.50768376006744,508.72696570004337,507.44454699999187,507.74375790008344,508.4310554000549,508.75725949998014,509.4322127000196,509.73792099999264,up,1,3.068189400015399,507.4776057000272,None,509.9733859000262,None,,,,,,,hoavur,001,0,fr,2022-05-04_15h25.06.816,3-AFC_adaptive_staircase_mess,2022.1.1,29.971931285462844,
,,,,,3,0,3,0,18,0,18,0,,,,,,,,,,,,,,,,left,3000,-2.5,4.1112132497353565e-05,1,5,1,2.5,512.0659684599843,512.284949199995,512.0025259000249,512.3105415999889,513.0121616000542,513.3146299000364,514.0033887000754,514.3151585999876,right,0,2.5961708000395447,512.0624888000311,None,514.580331300036,None,,,,,,,hoavur,001,0,fr,2022-05-04_15h25.06.816,3-AFC_adaptive_staircase_mess,2022.1.1,29.971931285462844,
,,,,,3,0,3,0,19,0,19,0,,,,,,,,,,,,,,,,left,3000,0.0,5.482390980715923e-05,1,5,1,2.5,516.1733584600036,None,516.119031600072,516.4339109000284,517.1367701999843,517.4554745000787,518.13446630002,518.4308822000166,left,1,3.182052999967709,516.1807197000599,None,518.6690156999975,None,,,,,,,hoavur,001,0,fr,2022-05-04_15h25.06.816,3-AFC_adaptive_staircase_mess,2022.1.1,29.971931285462844,
,,,,,3,0,3,0,20,0,20,0,,,,,,,,,,,,,,,,right,3000,0.0,5.482390980715923e-05,1,5,1,2.5,None,None,520.8358602999942,521.1589689999819,521.82832900004,522.1273280000314,None,None,up,0,1.7111772999633104,520.8659061000217,None,None,None,,,,,,,hoavur,001,0,fr,2022-05-04_15h25.06.816,3-AFC_adaptive_staircase_mess,2022.1.1,29.971931285462844,
,,,,,3,0,3,0,21,0,21,0,,,,,,,,,,,,,,,,left,3000,2.5,7.310885872283589e-05,1,5,1,2.5,524.1358187600738,524.3454922999954,524.0678839000175,524.3765929000219,525.0662733000936,525.3701371999923,526.0636219000444,526.3606814000523,right,0,2.5261585999978706,524.1308519000886,None,526.6264749000547,None,,,,,,,hoavur,001,0,fr,2022-05-04_15h25.06.816,3-AFC_adaptive_staircase_mess,2022.1.1,29.971931285462844,
,,,,,3,0,3,0,22,0,22,0,,,,,,,,,,,,,,,,left,3000,5.0,9.749222998790222e-05,1,5,1,2.5,528.1817841600162,528.4001914000837,528.1183784999885,528.4261974000838,None,None,None,None,left,1,0.560160499997437,528.1781986000715,None,None,None,,,,,,,hoavur,001,0,fr,2022-05-04_15h25.06.816,3-AFC_adaptive_staircase_mess,2022.1.1,29.971931285462844,
,,,,,3,0,3,0,23,0,23,0,,,,,,,,,,,,,,,,up,3000,5.0,9.749222998790222e-05,1,5,1,2.5,531.2347551599844,531.4517334999982,530.1959320000606,530.5179334999993,531.2008911999874,531.5128926000325,532.1856471999781,532.479209400015,up,1,2.5791872000554577,530.2553279000567,None,532.7427823999897,None,,,,,,,hoavur,001,0,fr,2022-05-04_15h25.06.816,3-AFC_adaptive_staircase_mess,2022.1.1,29.971931285462844,
,,,,,3,0,3,0,24,0,24,0,,,,,,,,,,,,,,,,right,3000,0.0,5.482390980715923e-05,-1,6,-1,-5.0,536.3408550600755,536.5574389999965,534.3032863000408,534.5988338000607,535.3005867000902,535.6229409000371,536.3069911000784,536.6135770999826,right,1,2.6341638000449166,534.3602643000195,None,536.8462138000177,None,,,,,,,hoavur,001,0,fr,2022-05-04_15h25.06.816,3-AFC_adaptive_staircase_mess,2022.1.1,29.971931285462844,
,,,,,4,0,4,0,0,0,0,0,,,,,,,,,,,,,[],[],10,left,4000,30,0.0026544222211549416,0,0,-1,10,635.4469666600228,635.6563199000666,635.3798043000279,635.688493900001,None,None,None,None,left,1,0.6521589999319986,635.4464233000763,None,None,None,left,96.85554799996316,538.0743283000775,None,538.0743283000775,None,hoavur,001,0,fr,2022-05-04_15h25.06.816,3-AFC_adaptive_staircase_mess,2022.1.1,29.971931285462844,
,,,,,4,0,4,0,1,0,1,0,,,,,,,,,,,,,,,,right,4000,30,0.0026544222211549416,0,0,-1,10,639.6481984600425,None,637.5775896999985,637.8810351000866,638.5823703000788,638.9048200000543,639.5814154000254,639.913500100025,right,1,2.381389299989678,637.6363243000815,None,None,None,,,,,,,hoavur,001,0,fr,2022-05-04_15h25.06.816,3-AFC_adaptive_staircase_mess,2022.1.1,29.971931285462844,
,,,,,4,0,4,0,2,0,2,0,,,,,,,,,,,,,,,,right,4000,10,0.00026544222211549425,-1,0,-1,-10,643.5544468600303,643.7638495999854,641.4865987000521,641.816241600085,642.4987447999883,642.8154009000864,643.4871474000392,643.7969336999813,right,1,2.400107800029218,641.5528535000049,None,None,None,,,,,,,hoavur,001,0,fr,2022-05-04_15h25.06.816,3-AFC_adaptive_staircase_mess,2022.1.1,29.971931285462844,
,,,,,4,0,4,0,3,0,3,0,,,,,,,,,,,,,,,,right,4000,10,0.00026544222211549425,-1,0,-1,-10,647.4885615599808,647.7009816000937,645.4215261000209,645.7283454000717,646.4369377000257,646.7557357000187,647.4219398000278,647.7330383000663,right,1,2.3901231000199914,645.4843755000038,None,None,None,,,,,,,hoavur,001,0,fr,2022-05-04_15h25.06.816,3-AFC_adaptive_staircase_mess,2022.1.1,29.971931285462844,
,,,,,4,0,4,0,4,0,4,0,,,,,,,,,,,,,,,,right,4000,0,8.394020090612804e-05,-1,0,-1,-10,651.3840769600822,651.6054804000305,649.3272930000676,649.6559115999844,650.33690200001,650.6587095999857,651.3221169000026,651.6384999000002,up,0,3.265543100074865,649.3922479000175,None,651.8840477000922,None,,,,,,,hoavur,001,0,fr,2022-05-04_15h25.06.816,3-AFC_adaptive_staircase_mess,2022.1.1,29.971931285462844,
,,,,,4,0,4,0,5,0,5,0,,,,,,,,,,,,,,,,right,4000,5,0.00014926913094589803,1,1,1,5,656.1803432599875,None,654.1276695000706,654.441554900026,655.1340248000342,655.4623849000782,656.1169882999966,656.4419486999977,right,1,2.5758155999938026,654.1940174000338,None,656.6823111000704,None,,,,,,,hoavur,001,0,fr,2022-05-04_15h25.06.816,3-AFC_adaptive_staircase_mess,2022.1.1,29.971931285462844,
,,,,,4,0,4,0,6,0,6,0,,,,,,,,,,,,,,,,right,4000,5,0.00014926913094589803,1,1,1,5,660.2819640600821,None,658.2363614999922,658.5645356000168,659.2361379000358,659.5340910999803,660.2481001000851,660.5460219000233,right,1,2.627964699990116,658.3016371000558,None,660.7919115000404,None,,,,,,,hoavur,001,0,fr,2022-05-04_15h25.06.816,3-AFC_adaptive_staircase_mess,2022.1.1,29.971931285462844,
,,,,,4,0,4,0,7,0,7,0,,,,,,,,,,,,,,,,up,4000,-5,4.720304381429618e-05,-1,2,-1,-5.0,663.4449591599871,663.6540788999991,662.4098733999999,662.7078993000323,663.3822327000089,663.6855412999867,664.3961687000701,664.7097726999782,up,1,2.646467100013979,662.4428513000021,None,664.9396470000502,None,,,,,,,hoavur,001,0,fr,2022-05-04_15h25.06.816,3-AFC_adaptive_staircase_mess,2022.1.1,29.971931285462844,
,,,,,4,0,4,0,8,0,8,0,,,,,,,,,,,,,,,,up,4000,-5,4.720304381429618e-05,-1,2,-1,-5.0,667.6405910600909,667.8554461000022,666.5799900999991,666.9084231000161,667.5731858999934,667.8888087000232,668.5593489999883,668.8786957000848,right,0,2.701380400103517,666.6122355000116,None,669.1351524000056,None,,,,,,,hoavur,001,0,fr,2022-05-04_15h25.06.816,3-AFC_adaptive_staircase_mess,2022.1.1,29.971931285462844,
,,,,,4,0,4,0,9,0,9,0,,,,,,,,,,,,,,,,right,4000,-2.5,6.294627058970837e-05,1,3,1,2.5,672.8387791599846,673.0596834000899,670.7832778000738,671.1118972999975,671.7840407000622,672.1151525999885,672.7761348000495,673.0920801000902,left,0,2.720737800002098,670.8489207000239,None,673.3490324000595,None,,,,,,,hoavur,001,0,fr,2022-05-04_15h25.06.816,3-AFC_adaptive_staircase_mess,2022.1.1,29.971931285462844,
,,,,,4,0,4,0,10,0,10,0,,,,,,,,,,,,,,,,right,4000,0.0,8.394020090612804e-05,1,3,1,2.5,677.1170917600859,677.330570399994,675.0474377000937,675.3548275000649,676.0485385000939,676.3547777000349,677.050228600041,677.3628204000415,right,1,2.6069783000275493,675.106763000018,None,677.6109936999856,None,,,,,,,hoavur,001,0,fr,2022-05-04_15h25.06.816,3-AFC_adaptive_staircase_mess,2022.1.1,29.971931285462844,
,,,,,4,0,4,0,11,0,11,0,,,,,,,,,,,,,,,,right,4000,0.0,8.394020090612804e-05,1,3,1,2.5,681.2227255600039,None,679.1775422000792,679.4913591999793,680.1752654000884,680.4862079999875,681.1888616000069,681.5032565000001,up,0,2.6536537000210956,679.2359804000007,None,681.7235605000751,None,,,,,,,hoavur,001,0,fr,2022-05-04_15h25.06.816,3-AFC_adaptive_staircase_mess,2022.1.1,29.971931285462844,
,,,,,4,0,4,0,12,0,12,0,,,,,,,,,,,,,,,,up,4000,2.5,0.000111936056928417,1,3,1,2.5,684.3961907600053,None,683.338049700018,683.6584067000076,684.3623268000083,684.6611590000102,685.3643249000888,685.6927355000516,right,0,2.653725599986501,683.3961563000921,None,685.9076539999805,None,,,,,,,hoavur,001,0,fr,2022-05-04_15h25.06.816,3-AFC_adaptive_staircase_mess,2022.1.1,29.971931285462844,
,,,,,4,0,4,0,13,0,13,0,,,,,,,,,,,,,,,,right,4000,5.0,0.00014926913094589803,1,3,1,2.5,689.5994207599899,None,687.5208406000165,687.8276923000813,688.5218353000237,688.8283112000208,689.5311137000099,689.8642801999813,right,1,2.6884821000276133,687.5847430999856,None,690.0779193000635,None,,,,,,,hoavur,001,0,fr,2022-05-04_15h25.06.816,3-AFC_adaptive_staircase_mess,2022.1.1,29.971931285462844,
,,,,,4,0,4,0,14,0,14,0,,,,,,,,,,,,,,,,right,4000,5.0,0.00014926913094589803,1,3,1,2.5,693.7857667600504,694.0018788999878,691.736397700035,692.0378684999887,692.740289599984,693.0435900000157,693.721664300072,694.029259400093,right,1,2.98739350005053,691.797551900032,None,694.303694000002,None,,,,,,,hoavur,001,0,fr,2022-05-04_15h25.06.816,3-AFC_adaptive_staircase_mess,2022.1.1,29.971931285462844,
,,,,,4,0,4,0,15,0,15,0,,,,,,,,,,,,,,,,right,4000,0.0,8.394020090612804e-05,-1,4,-1,-5.0,698.2883937600302,None,696.2367570000933,696.5360865000403,697.2482608000282,697.5694840999786,698.2545298000332,698.5801773000276,left,0,2.745078800013289,696.296804200043,None,698.7928736000322,None,,,,,,,hoavur,001,0,fr,2022-05-04_15h25.06.816,3-AFC_adaptive_staircase_mess,2022.1.1,29.971931285462844,
,,,,,4,0,4,0,16,0,16,0,,,,,,,,,,,,,,,,up,4000,2.5,0.000111936056928417,1,5,1,2.5,701.5760068600532,701.7880811000941,700.5056912000291,700.8054721000372,701.5117834000848,701.8170997999841,702.4977754000574,702.7979570000898,up,1,2.8956274000229314,700.5623092000606,None,703.0661681999918,None,,,,,,,hoavur,001,0,fr,2022-05-04_15h25.06.816,3-AFC_adaptive_staircase_mess,2022.1.1,29.971931285462844,
,,,,,4,0,4,0,17,0,17,0,,,,,,,,,,,,,,,,left,4000,2.5,0.000111936056928417,1,5,1,2.5,704.9771906600101,705.1926518999971,704.9107977000531,705.221105900011,705.9292529000668,706.2454815000528,706.9266164000146,707.2266465000575,right,0,4.183332600048743,704.9697309000185,None,707.4676317999838,None,,,,,,,hoavur,001,0,fr,2022-05-04_15h25.06.816,3-AFC_adaptive_staircase_mess,2022.1.1,29.971931285462844,
,,,,,4,0,4,0,18,0,18,0,,,,,,,,,,,,,,,,right,4000,5.0,0.00014926913094589803,1,5,1,2.5,712.7198858600343,None,710.6433842000552,710.9501049000537,711.6411708000815,711.9500831000041,712.6532826999901,712.9752737000817,up,0,2.7390273000346497,710.7028524000198,None,713.2151861999882,None,,,,,,,hoavur,001,0,fr,2022-05-04_15h25.06.816,3-AFC_adaptive_staircase_mess,2022.1.1,29.971931285462844,
,,,,,4,0,4,0,19,0,19,0,,,,,,,,,,,,,,,,left,4000,7.5,0.00019905358527674868,1,5,1,2.5,714.9964848600096,715.2008217000403,714.9299504000228,715.2281636000844,None,None,None,None,left,1,0.6887865000171587,714.9929748000577,None,None,None,,,,,,,hoavur,001,0,fr,2022-05-04_15h25.06.816,3-AFC_adaptive_staircase_mess,2022.1.1,29.971931285462844,
,,,,,4,0,4,0,20,0,20,0,,,,,,,,,,,,,,,,left,4000,7.5,0.00019905358527674868,1,5,1,2.5,717.2150708600414,717.4375524000498,717.1508831999963,717.4660585999954,None,None,None,None,left,1,0.42266299994662404,717.2106254000682,None,None,None,,,,,,,hoavur,001,0,fr,2022-05-04_15h25.06.816,3-AFC_adaptive_staircase_mess,2022.1.1,29.971931285462844,
,,,,,4,0,4,0,21,0,21,0,,,,,,,,,,,,,,,,left,4000,2.5,0.000111936056928417,-1,6,-1,-5.0,719.1650790600572,719.388391799992,719.1006205000449,719.4165107000154,720.1087155999849,720.4092168000061,721.0991338000167,721.4009277999867,left,1,3.2407080000266433,719.1612285000738,None,721.6692900999915,None,,,,,,,hoavur,001,0,fr,2022-05-04_15h25.06.816,3-AFC_adaptive_staircase_mess,2022.1.1,29.971931285462844,
,,,,,5,0,5,0,0,0,0,0,,,,,,,,,,,,,[],[],10,right,6000,30,0.003664122665694519,0,0,-1,10,787.8718202600023,788.088195700082,785.8295732000843,786.1262942000758,786.8148010000587,787.1352082000813,787.8379563000053,788.1438713000389,right,1,2.4189732000231743,785.887267800048,None,None,None,up,61.89994380006101,723.4622062999988,None,723.4622062999988,None,hoavur,001,0,fr,2022-05-04_15h25.06.816,3-AFC_adaptive_staircase_mess,2022.1.1,29.971931285462844,
,,,,,5,0,5,0,1,0,1,0,,,,,,,,,,,,,,,,up,6000,30,0.003664122665694519,0,0,-1,10,790.8354349600152,None,789.7869150000624,790.0827999000903,790.7713803000515,791.101633500075,None,None,up,1,1.275032200035639,789.8146000000415,None,None,None,,,,,,,hoavur,001,0,fr,2022-05-04_15h25.06.816,3-AFC_adaptive_staircase_mess,2022.1.1,29.971931285462844,
,,,,,5,0,5,0,2,0,2,0,,,,,,,,,,,,,,,,left,6000,10,0.00036641226656945183,-1,0,-1,-10,792.6177052599844,None,792.5838412999874,792.8816745000659,None,None,None,None,left,1,0.41244210000149906,792.6129082000116,None,None,None,,,,,,,hoavur,001,0,fr,2022-05-04_15h25.06.816,3-AFC_adaptive_staircase_mess,2022.1.1,29.971931285462844,
,,,,,5,0,5,0,3,0,3,0,,,,,,,,,,,,,,,,up,6000,10,0.00036641226656945183,-1,0,-1,-10,795.5525546600577,795.7637969000498,794.486462800065,794.799717499991,795.4889818000374,795.791183500085,None,None,up,1,1.2646679999306798,794.5449022999965,None,None,None,,,,,,,hoavur,001,0,fr,2022-05-04_15h25.06.816,3-AFC_adaptive_staircase_mess,2022.1.1,29.971931285462844,
,,,,,5,0,5,0,4,0,4,0,,,,,,,,,,,,,,,,up,6000,0,0.00011586973249842387,-1,0,-1,-10,798.311038060044,798.5281120000873,797.2532307000365,797.5479367000517,798.2493244999787,798.5533418999985,None,None,up,1,1.3320820000953972,797.3094613000285,None,None,None,,,,,,,hoavur,001,0,fr,2022-05-04_15h25.06.816,3-AFC_adaptive_staircase_mess,2022.1.1,29.971931285462844,
,,,,,5,0,5,0,5,0,5,0,,,,,,,,,,,,,,,,left,6000,0,0.00011586973249842387,-1,0,-1,-10,800.1682716600365,800.3867889000103,800.1344077000394,800.44191709999,None,None,None,None,left,1,0.3099155999952927,800.155434400076,None,None,None,,,,,,,hoavur,001,0,fr,2022-05-04_15h25.06.816,3-AFC_adaptive_staircase_mess,2022.1.1,29.971931285462844,
,,,,,5,0,5,0,6,0,6,0,,,,,,,,,,,,,,,,right,6000,-10,3.664122665694518e-05,-1,0,-1,-10,803.9662809600588,804.1901235000696,801.9172122000018,802.2397329000523,802.9222291000187,803.2257743000519,803.9324170000618,804.2504639000399,right,1,2.7425319999456406,801.9788963000756,None,804.4606200000271,None,,,,,,,hoavur,001,0,fr,2022-05-04_15h25.06.816,3-AFC_adaptive_staircase_mess,2022.1.1,29.971931285462844,
,,,,,5,0,5,0,7,0,7,0,,,,,,,,,,,,,,,,up,6000,-10,3.664122665694518e-05,-1,0,-1,-10,807.2388850599993,807.4610250000842,806.1945385000436,806.5052193000447,807.2050211000023,807.5200229000766,808.2105284000281,808.4975507000927,left,0,2.6152751999907196,806.2666074000299,None,808.7420420000562,None,,,,,,,hoavur,001,0,fr,2022-05-04_15h25.06.816,3-AFC_adaptive_staircase_mess,2022.1.1,29.971931285462844,
,,,,,5,0,5,0,8,0,8,0,,,,,,,,,,,,,,,,left,6000,-5,6.515833892261494e-05,1,1,1,5,810.4157439599978,None,810.3482121999841,810.6706529000076,None,None,None,None,left,1,0.43444919993635267,810.4149187000003,None,None,None,,,,,,,hoavur,001,0,fr,2022-05-04_15h25.06.816,3-AFC_adaptive_staircase_mess,2022.1.1,29.971931285462844,
,,,,,5,0,5,0,9,0,9,0,,,,,,,,,,,,,,,,left,6000,-5,6.515833892261494e-05,1,1,1,5,812.3946963600349,812.6083868000424,812.3313496999908,812.6340248000342,None,None,None,None,left,1,0.4258388999151066,812.3908851000015,None,None,None,,,,,,,hoavur,001,0,fr,2022-05-04_15h25.06.816,3-AFC_adaptive_staircase_mess,2022.1.1,29.971931285462844,
,,,,,5,0,5,0,10,0,10,0,,,,,,,,,,,,,,,,left,6000,-15,2.0604875954866497e-05,-1,2,-1,-5.0,814.3500142600853,814.5611003000522,814.2842334000161,814.5930852000602,815.2957351000514,815.6203336000908,816.2773211000022,816.5796565000201,up,0,2.938095699995756,814.344094500062,None,816.8437509000069,None,,,,,,,hoavur,001,0,fr,2022-05-04_15h25.06.816,3-AFC_adaptive_staircase_mess,2022.1.1,29.971931285462844,
,,,,,5,0,5,0,11,0,11,0,,,,,,,,,,,,,,,,left,6000,-12.5,2.7477043692881217e-05,1,3,1,2.5,818.7851904600859,819.0009066000348,818.7513265000889,819.06131930009,819.7564549000235,820.0545128000667,820.7557607000927,821.0541130000493,up,0,2.59670770005323,818.7799942999845,None,821.2899423000636,None,,,,,,,hoavur,001,0,fr,2022-05-04_15h25.06.816,3-AFC_adaptive_staircase_mess,2022.1.1,29.971931285462844,
,,,,,5,0,5,0,12,0,12,0,,,,,,,,,,,,,,,,right,6000,-10.0,3.664122665694518e-05,1,3,1,2.5,824.8742339599878,825.088501600083,822.8377948000561,823.1347688999958,823.8373741999967,824.1422829000512,824.8403699999908,825.1429556000512,left,0,2.5269350999733433,822.867112100008,None,825.3764632000821,None,,,,,,,hoavur,001,0,fr,2022-05-04_15h25.06.816,3-AFC_adaptive_staircase_mess,2022.1.1,29.971931285462844,
,,,,,5,0,5,0,13,0,13,0,,,,,,,,,,,,,,,,right,6000,-7.5,4.886186104779051e-05,1,3,1,2.5,828.9094823600492,829.1172075000359,826.8625062999781,827.1621097000316,827.8654762000078,828.1661707999883,828.8756184000522,829.1726181000704,right,1,2.9308006999781355,826.9273717000615,None,829.4044060000451,None,,,,,,,hoavur,001,0,fr,2022-05-04_15h25.06.816,3-AFC_adaptive_staircase_mess,2022.1.1,29.971931285462844,
,,,,,5,0,5,0,14,0,14,0,,,,,,,,,,,,,,,,left,6000,-7.5,4.886186104779051e-05,1,3,1,2.5,831.3875160600758,None,831.3536521000788,831.6785674000857,832.339289000025,832.6441097999923,833.3449367000721,833.6754285000497,left,1,2.832935000071302,831.3922199000372,None,833.9144733999856,None,,,,,,,hoavur,001,0,fr,2022-05-04_15h25.06.816,3-AFC_adaptive_staircase_mess,2022.1.1,29.971931285462844,
,,,,,5,0,5,0,15,0,15,0,,,,,,,,,,,,,,,,up,6000,-12.5,2.7477043692881217e-05,-1,4,-1,-5.0,836.7483159599826,836.9589428000618,835.7161811999977,836.044343000045,836.7144519999856,837.0201563000446,837.7185347999912,838.0498898000224,up,1,2.624198400066234,835.7449841999914,None,838.2460294000339,None,,,,,,,hoavur,001,0,fr,2022-05-04_15h25.06.816,3-AFC_adaptive_staircase_mess,2022.1.1,29.971931285462844,
,,,,,5,0,5,0,16,0,16,0,,,,,,,,,,,,,,,,right,6000,-12.5,2.7477043692881217e-05,-1,4,-1,-5.0,841.92115906002,None,839.871593000018,840.185648499988,840.8676270000869,841.1897463999921,841.8561361000175,842.187635499984,right,1,2.4471673000371084,839.9052677000873,None,842.4023813599954,None,,,,,,,hoavur,001,0,fr,2022-05-04_15h25.06.816,3-AFC_adaptive_staircase_mess,2022.1.1,29.971931285462844,
,,,,,5,0,5,0,17,0,17,0,,,,,,,,,,,,,,,,left,6000,-17.5,1.5451477162567947e-05,-1,4,-1,-5.0,843.8704935600283,844.0811069000047,843.8366296000313,844.1364429000532,844.8112460999982,845.1177866000216,845.8315810000058,846.1567548000021,left,1,2.612131700036116,843.8688565000193,None,846.3959106000839,None,,,,,,,hoavur,001,0,fr,2022-05-04_15h25.06.816,3-AFC_adaptive_staircase_mess,2022.1.1,29.971931285462844,
,,,,,5,0,5,0,18,0,18,0,,,,,,,,,,,,,,,,right,6000,-17.5,1.5451477162567947e-05,-1,4,-1,-5.0,850.0020597600844,None,847.9588737000013,848.3072040000698,848.9695077000652,849.2702859999845,849.9681958000874,850.2642189000035,up,0,2.5988973999628797,848.0273319000844,None,850.5092240000376,None,,,,,,,hoavur,001,0,fr,2022-05-04_15h25.06.816,3-AFC_adaptive_staircase_mess,2022.1.1,29.971931285462844,
,,,,,5,0,5,0,19,0,19,0,,,,,,,,,,,,,,,,up,6000,-15.0,2.0604875954866497e-05,1,5,1,2.5,853.130975759984,853.3472496999893,852.0939029000001,852.3961169000249,853.097111799987,853.4036876000464,854.0917647000169,854.3940732000628,right,0,2.703056300058961,852.1611940000439,None,854.630060800002,None,,,,,,,hoavur,001,0,fr,2022-05-04_15h25.06.816,3-AFC_adaptive_staircase_mess,2022.1.1,29.971931285462844,
,,,,,5,0,5,0,20,0,20,0,,,,,,,,,,,,,,,,left,6000,-12.5,2.7477043692881217e-05,1,5,1,2.5,856.4315964599839,856.655831500073,856.366200700053,856.6874134000391,857.3730701000895,857.6975389000727,858.3673642000649,858.6739587000338,left,1,3.242456099949777,856.4396742000245,None,858.9111199000617,None,,,,,,,hoavur,001,0,fr,2022-05-04_15h25.06.816,3-AFC_adaptive_staircase_mess,2022.1.1,29.971931285462844,
,,,,,5,0,5,0,21,0,21,0,,,,,,,,,,,,,,,,left,6000,-12.5,2.7477043692881217e-05,1,5,1,2.5,861.2207349599805,861.4362929000054,861.1586239000317,861.4618563000113,862.1719785000896,862.5018062000163,863.1620302000083,863.4560609000036,up,0,2.736174700083211,861.2167670000345,None,863.7234399000881,None,,,,,,,hoavur,001,0,fr,2022-05-04_15h25.06.816,3-AFC_adaptive_staircase_mess,2022.1.1,29.971931285462844,
,,,,,5,0,5,0,22,0,22,0,,,,,,,,,,,,,,,,up,6000,-10.0,3.664122665694518e-05,1,5,1,2.5,866.4847195600626,None,865.4484015000053,865.7709075000603,866.4508556000656,866.7624869000865,867.4377409000881,867.7411387000466,right,0,2.587789800018072,865.4778674000409,None,867.9836425000103,None,,,,,,,hoavur,001,0,fr,2022-05-04_15h25.06.816,3-AFC_adaptive_staircase_mess,2022.1.1,29.971931285462844,
,,,,,5,0,5,0,23,0,23,0,,,,,,,,,,,,,,,,right,6000,-7.5,4.886186104779051e-05,1,5,1,2.5,871.5859618600691,None,869.5307479000185,869.8345308999997,870.5104440000141,870.8192803000566,871.5214792999905,871.8489297000924,left,0,2.821021900046617,869.5636041000253,None,872.0752796999877,None,,,,,,,hoavur,001,0,fr,2022-05-04_15h25.06.816,3-AFC_adaptive_staircase_mess,2022.1.1,29.971931285462844,
,,,,,5,0,5,0,24,0,24,0,,,,,,,,,,,,,,,,left,6000,-5.0,6.515833892261494e-05,1,5,1,2.5,873.9472277600319,874.1643411000259,873.8805629999842,874.1910324000055,None,None,None,None,left,1,0.7916954000247642,873.9462524000555,None,None,None,,,,,,,hoavur,001,0,fr,2022-05-04_15h25.06.816,3-AFC_adaptive_staircase_mess,2022.1.1,29.971931285462844,
,,,,,5,0,5,0,25,0,25,0,,,,,,,,,,,,,,,,up,6000,-5.0,6.515833892261494e-05,1,5,1,2.5,877.279979059985,877.4978601000039,876.2378523000516,876.5606471999781,877.2155217999825,877.5284917000681,None,None,up,1,1.4110554000362754,876.2694979000371,None,None,None,,,,,,,hoavur,001,0,fr,2022-05-04_15h25.06.816,3-AFC_adaptive_staircase_mess,2022.1.1,29.971931285462844,
,,,,,5,0,5,0,26,0,26,0,,,,,,,,,,,,,,,,left,6000,-10.0,3.664122665694518e-05,-1,6,-1,-5.0,879.2174918600824,879.4275787000079,879.1520511000417,879.4596596000483,880.157013899996,880.4576872000471,881.1529958000174,881.4590890000109,right,0,2.595322799985297,879.2142491000704,None,881.6895825000247,None,,,,,,,hoavur,001,0,fr,2022-05-04_15h25.06.816,3-AFC_adaptive_staircase_mess,2022.1.1,29.971931285462844,
,,,,,6,0,6,0,0,0,0,0,,,,,,,,,,,,,[],[],10,left,8000,30,0.005740768107484416,0,0,-1,10,885.0565627600765,885.26804980007,884.991162499995,885.3004705000203,None,None,None,None,left,1,0.40171050000935793,885.0549886000808,None,None,None,left,1.646332399919629,882.8830095999874,None,882.8830095999874,None,hoavur,001,0,fr,2022-05-04_15h25.06.816,3-AFC_adaptive_staircase_mess,2022.1.1,29.971931285462844,
,,,,,6,0,6,0,1,0,1,0,,,,,,,,,,,,,,,,right,8000,30,0.005740768107484416,0,0,-1,10,888.9752147599822,889.1950425000396,886.9275994000491,887.2280484000221,887.9328332000878,888.2576911000069,888.9117746000411,889.2227669000858,right,1,2.2562313999515027,886.9927517999895,None,None,None,,,,,,,hoavur,001,0,fr,2022-05-04_15h25.06.816,3-AFC_adaptive_staircase_mess,2022.1.1,29.971931285462844,
,,,,,6,0,6,0,2,0,2,0,,,,,,,,,,,,,,,,left,8000,10,0.0005740768107484417,-1,0,-1,-10,890.7632497600746,890.9803859000094,890.7293858000776,891.037504900014,None,None,None,None,left,1,0.45447569992393255,890.7629876000574,None,None,None,,,,,,,hoavur,001,0,fr,2022-05-04_15h25.06.816,3-AFC_adaptive_staircase_mess,2022.1.1,29.971931285462844,
,,,,,6,0,6,0,3,0,3,0,,,,,,,,,,,,,,,,left,8000,10,0.0005740768107484417,-1,0,-1,-10,892.7321909600171,892.9490041000536,892.6666194000281,892.9765716000693,None,None,None,None,left,1,0.35888459999114275,892.7312732000137,None,None,None,,,,,,,hoavur,001,0,fr,2022-05-04_15h25.06.816,3-AFC_adaptive_staircase_mess,2022.1.1,29.971931285462844,
,,,,,6,0,6,0,4,0,4,0,,,,,,,,,,,,,,,,left,8000,0,0.0001815390273850507,-1,0,-1,-10,894.5959304600722,894.8151311000111,894.5620665000752,894.8760713000083,None,None,None,None,left,1,0.5790143999038264,894.5899123999989,None,None,None,,,,,,,hoavur,001,0,fr,2022-05-04_15h25.06.816,3-AFC_adaptive_staircase_mess,2022.1.1,29.971931285462844,
,,,,,6,0,6,0,5,0,5,0,,,,,,,,,,,,,,,,right,8000,0,0.0001815390273850507,-1,0,-1,-10,898.7129856599961,None,896.6531175000127,896.9481977000833,897.6435450999998,897.9418252999894,898.6448576999828,898.9806134999963,left,0,2.6951024000300094,896.6827358000446,None,899.216306700022,None,,,,,,,hoavur,001,0,fr,2022-05-04_15h25.06.816,3-AFC_adaptive_staircase_mess,2022.1.1,29.971931285462844,
,,,,,6,0,6,0,6,0,6,0,,,,,,,,,,,,,,,,up,8000,5,0.00032282711451732784,1,1,1,5,901.9123921600869,902.1215270999819,900.8546892000595,901.1766349000391,901.843006500043,902.1535763000138,None,None,up,1,1.3555065999971703,900.8870320999995,None,None,None,,,,,,,hoavur,001,0,fr,2022-05-04_15h25.06.816,3-AFC_adaptive_staircase_mess,2022.1.1,29.971931285462844,
,,,,,6,0,6,0,7,0,7,0,,,,,,,,,,,,,,,,right,8000,5,0.00032282711451732784,1,1,1,5,905.7784265600378,905.9869293000083,903.7137592000654,904.0117272000061,904.711065200041,905.0119600000326,905.7109667999903,906.0203422000632,right,1,2.3821064000949264,903.7795852000127,None,None,None,,,,,,,hoavur,001,0,fr,2022-05-04_15h25.06.816,3-AFC_adaptive_staircase_mess,2022.1.1,29.971931285462844,
,,,,,6,0,6,0,8,0,8,0,,,,,,,,,,,,,,,,left,8000,-5,0.00010208689723347648,-1,2,-1,-5.0,907.7140557599953,907.9232783000916,907.648254300002,907.9556906999787,908.6518889000872,908.9517160999821,909.6529248000588,909.9537601000629,right,0,2.4653914999216795,907.711744200089,None,910.2155198600842,None,,,,,,,hoavur,001,0,fr,2022-05-04_15h25.06.816,3-AFC_adaptive_staircase_mess,2022.1.1,29.971931285462844,
,,,,,6,0,6,0,9,0,9,0,,,,,,,,,,,,,,,,left,8000,-2.5,0.00013613506540389563,1,3,1,2.5,911.7210316600278,911.9316656000447,911.6568881000858,911.9646075000055,None,None,None,None,left,1,0.6506126000313088,911.7188802000601,None,None,None,,,,,,,hoavur,001,0,fr,2022-05-04_15h25.06.816,3-AFC_adaptive_staircase_mess,2022.1.1,29.971931285462844,
,,,,,6,0,6,0,10,0,10,0,,,,,,,,,,,,,,,,right,8000,-2.5,0.00013613506540389563,1,3,1,2.5,915.9143380600028,916.1333267000737,913.8592499999795,914.1876012000721,914.8574563000584,915.1585075000767,915.8526825000299,916.166222800035,left,0,2.5572632999392226,913.9242059000535,None,916.4062800999964,None,,,,,,,hoavur,001,0,fr,2022-05-04_15h25.06.816,3-AFC_adaptive_staircase_mess,2022.1.1,29.971931285462844,
,,,,,6,0,6,0,11,0,11,0,,,,,,,,,,,,,,,,up,8000,0.0,0.0001815390273850507,1,3,1,2.5,918.9932740600082,919.2062459000153,917.9605176000623,918.25991230004,918.9594101000112,919.2683891000925,None,None,up,1,1.6239181000273675,917.9938882000279,None,None,None,,,,,,,hoavur,001,0,fr,2022-05-04_15h25.06.816,3-AFC_adaptive_staircase_mess,2022.1.1,29.971931285462844,
,,,,,6,0,6,0,12,0,12,0,,,,,,,,,,,,,,,,left,8000,0.0,0.0001815390273850507,1,3,1,2.5,921.1259549600538,921.3409593000542,921.0920910000568,921.4031969000353,922.0801677000709,922.396544200019,923.099138300051,923.4006437000353,up,0,2.718381499988027,921.1226206000429,None,923.6310163000599,None,,,,,,,hoavur,001,0,fr,2022-05-04_15h25.06.816,3-AFC_adaptive_staircase_mess,2022.1.1,29.971931285462844,
,,,,,6,0,6,0,13,0,13,0,,,,,,,,,,,,,,,,up,8000,2.5,0.00024208618379204972,1,3,1,2.5,926.3341635599966,926.5460748000769,925.2839022000553,925.5998427000595,926.3002995999996,926.6066149000544,927.2897813000018,927.5852679000236,up,1,2.4175173999974504,925.3435203999979,None,None,None,,,,,,,hoavur,001,0,fr,2022-05-04_15h25.06.816,3-AFC_adaptive_staircase_mess,2022.1.1,29.971931285462844,
,,,,,6,0,6,0,14,0,14,0,,,,,,,,,,,,,,,,up,8000,2.5,0.00024208618379204972,1,3,1,2.5,930.2945084600244,930.5167851999868,929.2489682000596,929.574288600008,930.2288586000213,930.5492592999944,931.238297700067,931.5382529000053,up,1,2.549084100057371,929.2769878000254,None,931.7842571000801,None,,,,,,,hoavur,001,0,fr,2022-05-04_15h25.06.816,3-AFC_adaptive_staircase_mess,2022.1.1,29.971931285462844,
,,,,,6,0,6,0,15,0,15,0,,,,,,,,,,,,,,,,left,8000,-2.5,0.00013613506540389563,-1,4,-1,-5.0,933.3767515600659,933.5863071000203,933.313748100074,933.6183063000208,934.3081967000617,934.6212004000554,935.3008265000535,935.6134367000777,left,1,3.619021199992858,933.3745942000533,None,935.8770307999803,None,,,,,,,hoavur,001,0,fr,2022-05-04_15h25.06.816,3-AFC_adaptive_staircase_mess,2022.1.1,29.971931285462844,
,,,,,6,0,6,0,16,0,16,0,,,,,,,,,,,,,,,,up,8000,-2.5,0.00013613506540389563,-1,4,-1,-5.0,939.5421334599844,939.7602082000813,938.4787504000124,938.7802990000928,939.4780519000487,939.7924202000722,940.4830319000175,940.8132352000102,up,1,2.7835507000563666,938.5463282000273,None,941.0221038000891,None,,,,,,,hoavur,001,0,fr,2022-05-04_15h25.06.816,3-AFC_adaptive_staircase_mess,2022.1.1,29.971931285462844,
,,,,,6,0,6,0,17,0,17,0,,,,,,,,,,,,,,,,up,8000,-7.5,7.655437308410152e-05,-1,4,-1,-5.0,943.8831151599763,944.0970808999846,942.823403700022,943.1494712000713,943.8163138000527,944.1303703000303,944.820698000025,945.11891379999,right,0,2.7644353999057785,942.8526930999942,None,945.3609516000142,None,,,,,,,hoavur,001,0,fr,2022-05-04_15h25.06.816,3-AFC_adaptive_staircase_mess,2022.1.1,29.971931285462844,
,,,,,6,0,6,0,18,0,18,0,,,,,,,,,,,,,,,,left,8000,-5.0,0.00010208689723347648,1,5,1,2.5,947.1610679600155,947.369807900046,947.093623300083,947.4020786000183,948.086624699994,948.392874800018,949.101870500017,949.4239335000748,left,1,2.664170000003651,947.1611044000601,None,949.6576824000804,None,,,,,,,hoavur,001,0,fr,2022-05-04_15h25.06.816,3-AFC_adaptive_staircase_mess,2022.1.1,29.971931285462844,
,,,,,6,0,6,0,19,0,19,0,,,,,,,,,,,,,,,,up,8000,-5.0,0.00010208689723347648,1,5,1,2.5,952.3613188600168,None,951.3024795000674,951.6295767000411,952.2942583999829,952.6266025999794,953.2937368000858,953.602343400009,up,1,3.0081003999803215,951.3312271999894,None,953.860196600086,None,,,,,,,hoavur,001,0,fr,2022-05-04_15h25.06.816,3-AFC_adaptive_staircase_mess,2022.1.1,29.971931285462844,
,,,,,6,0,6,0,20,0,20,0,,,,,,,,,,,,,,,,up,8000,-10.0,5.740768107484415e-05,-1,6,-1,-5.0,956.8748421600787,None,955.8095512000145,956.1325686000055,956.8103439999977,957.1408136000391,957.8304824000224,958.1517552000005,right,0,2.4537297999486327,955.8682680000784,None,958.3645521600731,None,,,,,,,hoavur,001,0,fr,2022-05-04_15h25.06.816,3-AFC_adaptive_staircase_mess,2022.1.1,29.971931285462844,
,,,,,7,0,7,0,0,0,0,0,,,,,,,,,,,,,[],[],10,right,750,30,0.0012851978913844323,0,0,-1,10,1075.3294636600651,None,1073.2903074000496,1073.607794300071,1074.2988425000804,1074.6075382999843,1075.266440300038,1075.5912630000385,right,1,2.3928257999941707,1073.3194404999958,None,None,None,left,113.41635630000383,959.4007645000238,None,959.4007645000238,None,hoavur,001,0,fr,2022-05-04_15h25.06.816,3-AFC_adaptive_staircase_mess,2022.1.1,29.971931285462844,
,,,,,7,0,7,0,1,0,1,0,,,,,,,,,,,,,,,,left,750,30,0.0012851978913844323,0,0,-1,10,1077.242864660034,1077.4594312000554,1077.209000700037,1077.5195416000206,None,None,None,None,left,1,0.34842669998761266,1077.236764900037,None,None,None,,,,,,,hoavur,001,0,fr,2022-05-04_15h25.06.816,3-AFC_adaptive_staircase_mess,2022.1.1,29.971931285462844,
,,,,,7,0,7,0,2,0,2,0,,,,,,,,,,,,,,,,up,750,10,0.00012851978913844324,-1,0,-1,-10,1080.1251141600544,None,1079.0556854000315,1079.3512814000715,1080.063135900069,1080.390192800085,None,None,up,1,1.367011700058356,1079.1134484000504,None,None,None,,,,,,,hoavur,001,0,fr,2022-05-04_15h25.06.816,3-AFC_adaptive_staircase_mess,2022.1.1,29.971931285462844,
,,,,,7,0,7,0,3,0,3,0,,,,,,,,,,,,,,,,left,750,10,0.00012851978913844324,-1,0,-1,-10,1082.0205749600893,None,1081.958553400007,1082.2795210999902,None,None,None,None,left,1,0.38346040004398674,1082.0170543000568,None,None,None,,,,,,,hoavur,001,0,fr,2022-05-04_15h25.06.816,3-AFC_adaptive_staircase_mess,2022.1.1,29.971931285462844,
,,,,,7,0,7,0,4,0,4,0,,,,,,,,,,,,,,,,up,750,0,4.064152580820497e-05,-1,0,-1,-10,1084.92189816006,1085.1384312000591,1083.8663606999908,1084.186142200022,1084.888034200063,1085.1974288000492,None,None,up,1,1.4518514999654144,1083.925684100017,None,None,None,,,,,,,hoavur,001,0,fr,2022-05-04_15h25.06.816,3-AFC_adaptive_staircase_mess,2022.1.1,29.971931285462844,
,,,,,7,0,7,0,5,0,5,0,,,,,,,,,,,,,,,,left,750,0,4.064152580820497e-05,-1,0,-1,-10,1086.9237576600165,1087.1400214000605,1086.8561505000107,1087.1697331999894,None,None,None,None,left,1,0.5172830999363214,1086.9236192000099,None,None,None,,,,,,,hoavur,001,0,fr,2022-05-04_15h25.06.816,3-AFC_adaptive_staircase_mess,2022.1.1,29.971931285462844,
,,,,,7,0,7,0,6,0,6,0,,,,,,,,,,,,,,,,up,750,-10,1.2851978913844322e-05,-1,0,-1,-10,1089.9940752600553,1090.2086947000353,1088.9309865999967,1089.2499642000766,1089.9261918000411,1090.238700499991,1090.919361300068,1091.212927900022,right,0,2.5441198999760672,1088.9925143000437,None,1091.4907055000076,None,,,,,,,hoavur,001,0,fr,2022-05-04_15h25.06.816,3-AFC_adaptive_staircase_mess,2022.1.1,29.971931285462844,
,,,,,7,0,7,0,7,0,7,0,,,,,,,,,,,,,,,,left,750,-5,2.285440948074376e-05,1,1,1,5,1093.043623360037,1093.2601181000937,1093.00975940004,1093.3164989000652,None,None,None,None,left,1,0.449550399906002,1093.0391394000035,None,None,None,,,,,,,hoavur,001,0,fr,2022-05-04_15h25.06.816,3-AFC_adaptive_staircase_mess,2022.1.1,29.971931285462844,
,,,,,7,0,7,0,8,0,8,0,,,,,,,,,,,,,,,,right,750,-5,2.285440948074376e-05,1,1,1,5,1097.0330038600835,1097.2434121000115,1094.978915499989,1095.2765961000696,1095.9640000000363,1096.2666923999786,1096.9660524000647,1097.2758657999802,right,1,2.4810696999775246,1095.00818730006,None,1097.5128246999811,None,,,,,,,hoavur,001,0,fr,2022-05-04_15h25.06.816,3-AFC_adaptive_staircase_mess,2022.1.1,29.971931285462844,
,,,,,7,0,7,0,9,0,9,0,,,,,,,,,,,,,,,,right,750,-15,7.22719885372964e-06,-1,2,-1,-5.0,None,None,1098.9712650000583,1099.2675062000053,1099.9938863000134,None,None,None,left,0,1.0761963000986725,1099.0207477000076,None,None,None,,,,,,,hoavur,001,0,fr,2022-05-04_15h25.06.816,3-AFC_adaptive_staircase_mess,2022.1.1,29.971931285462844,
,,,,,7,0,7,0,10,0,10,0,,,,,,,,,,,,,,,,left,750,-12.5,9.637624565954684e-06,1,3,1,2.5,1101.6004954600241,1101.8169668000191,1101.5666315000271,1101.877874800004,1102.5414585000835,1102.839396800031,1103.5461999999825,1103.8739392000716,up,0,2.4377214000560343,1101.5945217000553,None,1104.0938956600614,None,,,,,,,hoavur,001,0,fr,2022-05-04_15h25.06.816,3-AFC_adaptive_staircase_mess,2022.1.1,29.971931285462844,
,,,,,7,0,7,0,11,0,11,0,,,,,,,,,,,,,,,,right,750,-10.0,1.2851978913844322e-05,1,3,1,2.5,1107.5790222600801,1107.7938898000866,1105.5066871000454,1105.806649300037,1106.510192100075,1106.8119031999959,1107.5116997000296,1107.823924300028,up,0,2.3868780999910086,1105.5664746999973,None,None,None,,,,,,,hoavur,001,0,fr,2022-05-04_15h25.06.816,3-AFC_adaptive_staircase_mess,2022.1.1,29.971931285462844,
,,,,,7,0,7,0,12,0,12,0,,,,,,,,,,,,,,,,up,750,-7.5,1.7138389327322525e-05,1,3,1,2.5,1110.4777732600226,1110.6914035000373,1109.4338221000507,1109.7480434000026,1110.4120506000472,1110.723408000078,1111.4301273000892,1111.7313149999827,right,0,2.40431010001339,1109.467972000013,None,None,None,,,,,,,hoavur,001,0,fr,2022-05-04_15h25.06.816,3-AFC_adaptive_staircase_mess,2022.1.1,29.971931285462844,
,,,,,7,0,7,0,13,0,13,0,,,,,,,,,,,,,,,,left,750,-5.0,2.285440948074376e-05,1,3,1,2.5,1113.379558760021,1113.5969064000528,1113.345694800024,1113.6581954000285,1114.3374814999988,1114.6526250999887,1115.34969120007,1115.6526084000943,left,1,3.028067299979739,1113.373448700062,None,1115.895295400056,None,,,,,,,hoavur,001,0,fr,2022-05-04_15h25.06.816,3-AFC_adaptive_staircase_mess,2022.1.1,29.971931285462844,
,,,,,7,0,7,0,14,0,14,0,,,,,,,,,,,,,,,,left,750,-5.0,2.285440948074376e-05,1,3,1,2.5,1117.957466059993,1118.1704931000713,1117.8903818000108,1118.2005538999802,None,None,None,None,left,1,0.6365353999426588,1117.9575110999867,None,None,None,,,,,,,hoavur,001,0,fr,2022-05-04_15h25.06.816,3-AFC_adaptive_staircase_mess,2022.1.1,29.971931285462844,
,,,,,7,0,7,0,15,0,15,0,,,,,,,,,,,,,,,,up,750,-10.0,1.2851978913844322e-05,-1,4,-1,-5.0,1121.1459575599758,None,1120.0961688000243,1120.39422570006,1121.0839255000465,1121.4046678000595,1122.0831612000475,1122.3793563999934,up,1,2.355007499922067,1120.1570875000907,None,None,None,,,,,,,hoavur,001,0,fr,2022-05-04_15h25.06.816,3-AFC_adaptive_staircase_mess,2022.1.1,29.971931285462844,
,,,,,7,0,7,0,16,0,16,0,,,,,,,,,,,,,,,,right,750,-10.0,1.2851978913844322e-05,-1,4,-1,-5.0,1126.042607359984,None,1123.9929277000483,1124.2946714999853,1124.9788836999796,1125.2953913999954,1125.9791832000483,1126.3067431000527,right,1,2.711309100035578,1124.057884800015,None,1126.552366900025,None,,,,,,,hoavur,001,0,fr,2022-05-04_15h25.06.816,3-AFC_adaptive_staircase_mess,2022.1.1,29.971931285462844,
,,,,,7,0,7,0,17,0,17,0,,,,,,,,,,,,,,,,left,750,-15.0,7.22719885372964e-06,-1,4,-1,-5.0,1128.3333550600103,1128.5458947999869,1128.2658200000878,1128.5765537000261,1129.2644050000235,1129.570065899985,1130.2723341999808,1130.5675869000843,left,1,2.437061700038612,1128.332450099988,None,1130.807954760082,None,,,,,,,hoavur,001,0,fr,2022-05-04_15h25.06.816,3-AFC_adaptive_staircase_mess,2022.1.1,29.971931285462844,
,,,,,7,0,7,0,18,0,18,0,,,,,,,,,,,,,,,,right,750,-15.0,7.22719885372964e-06,-1,4,-1,-5.0,1134.2929989600555,None,1132.2283736000536,1132.5369002000662,1133.245895100059,1133.5437448000303,1134.2305427000392,1134.5507384000812,up,0,2.563174100010656,1132.2860089000314,None,1134.7921120000537,None,,,,,,,hoavur,001,0,fr,2022-05-04_15h25.06.816,3-AFC_adaptive_staircase_mess,2022.1.1,29.971931285462844,
,,,,,7,0,7,0,19,0,19,0,,,,,,,,,,,,,,,,left,750,-12.5,9.637624565954684e-06,1,5,1,2.5,1136.3734692599858,1136.589615300065,1136.3104636000935,1136.616744800005,1137.3234049000312,1137.6209554000525,1138.3001173000084,1138.6114226999925,right,0,2.3326909000752494,1136.3717624000274,None,None,None,,,,,,,hoavur,001,0,fr,2022-05-04_15h25.06.816,3-AFC_adaptive_staircase_mess,2022.1.1,29.971931285462844,
,,,,,7,0,7,0,20,0,20,0,,,,,,,,,,,,,,,,up,750,-10.0,1.2851978913844322e-05,1,5,1,2.5,1141.202167860046,1141.4259083000943,1140.1596029000357,1140.459625700023,1141.1401249000337,1141.45761640009,1142.1336859000148,1142.4482730000746,left,0,2.6766580999828875,1140.188920799992,None,1142.6902659999905,None,,,,,,,hoavur,001,0,fr,2022-05-04_15h25.06.816,3-AFC_adaptive_staircase_mess,2022.1.1,29.971931285462844,
,,,,,7,0,7,0,21,0,21,0,,,,,,,,,,,,,,,,up,750,-7.5,1.7138389327322525e-05,1,5,1,2.5,1145.3966710600537,None,1144.3500221000286,1144.654210000066,1145.3331884000218,1145.6608005000744,1146.3538055000827,1146.651998699992,right,0,3.4093140000477433,1144.3827069000108,None,1146.9052219000878,None,,,,,,,hoavur,001,0,fr,2022-05-04_15h25.06.816,3-AFC_adaptive_staircase_mess,2022.1.1,29.971931285462844,
,,,,,7,0,7,0,22,0,22,0,,,,,,,,,,,,,,,,up,750,-5.0,2.285440948074376e-05,1,5,1,2.5,1150.31871506006,1150.5374915000284,1149.287653000094,1149.589265000075,1150.284851100063,1150.5985825000098,1151.280599300051,1151.576781700016,up,1,2.2664038001094013,1149.318275500089,None,None,None,,,,,,,hoavur,001,0,fr,2022-05-04_15h25.06.816,3-AFC_adaptive_staircase_mess,2022.1.1,29.971931285462844,
,,,,,7,0,7,0,23,0,23,0,,,,,,,,,,,,,,,,right,750,-5.0,2.285440948074376e-05,1,5,1,2.5,1155.1310378599912,1155.347165800049,1153.055557499989,1153.358819700079,1154.0762588999933,1154.39372120006,1155.0646273000166,1155.3748238000553,right,1,2.8717078000772744,1153.1130479000276,None,1155.6130819000537,None,,,,,,,hoavur,001,0,fr,2022-05-04_15h25.06.816,3-AFC_adaptive_staircase_mess,2022.1.1,29.971931285462844,
,,,,,7,0,7,0,24,0,24,0,,,,,,,,,,,,,,,,left,750,-10.0,1.2851978913844322e-05,-1,6,-1,-5.0,1157.502641659975,1157.720477099996,1157.438319900073,1157.7481077000266,1158.4309473000467,1158.7306534000672,1159.4334196000127,1159.732494900003,left,1,2.7085437000496313,1157.4999021000694,None,1160.0041368000675,None,,,,,,,hoavur,001,0,fr,2022-05-04_15h25.06.816,3-AFC_adaptive_staircase_mess,2022.1.1,29.971931285462844,
,,,,,8,0,8,0,0,0,0,0,,,,,,,,,,,,,[],[],10,right,500,30,0.002259279721874612,0,0,-1,10,1165.991111460072,None,1163.947581400047,1164.2689267999958,1164.9489442000631,1165.2471112000057,1165.927856400027,1166.252768300008,right,1,2.4072864000918344,1163.9774536000332,None,None,None,left,2.187488800031133,1161.3023128000787,None,1161.3023128000787,None,hoavur,001,0,fr,2022-05-04_15h25.06.816,3-AFC_adaptive_staircase_mess,2022.1.1,29.971931285462844,
,,,,,8,0,8,0,1,0,1,0,,,,,,,,,,,,,,,,right,500,30,0.002259279721874612,0,0,-1,10,1169.9280819599983,None,1167.860194100067,1168.1731390000787,1168.8774818000384,1169.176650700043,1169.8653984999983,1170.190181300044,right,1,2.353743499959819,1167.9193521999987,None,None,None,,,,,,,hoavur,001,0,fr,2022-05-04_15h25.06.816,3-AFC_adaptive_staircase_mess,2022.1.1,29.971931285462844,
,,,,,8,0,8,0,2,0,2,0,,,,,,,,,,,,,,,,right,500,10,0.0002259279721874612,-1,0,-1,-10,1173.8007727599936,None,1171.7431747000664,1172.0452662000898,1172.7477185000898,1173.046644999995,1173.7384974000743,1174.0582419000566,right,1,2.412128199939616,1171.812239299994,None,None,None,,,,,,,hoavur,001,0,fr,2022-05-04_15h25.06.816,3-AFC_adaptive_staircase_mess,2022.1.1,29.971931285462844,
,,,,,8,0,8,0,3,0,3,0,,,,,,,,,,,,,,,,left,500,10,0.0002259279721874612,-1,0,-1,-10,1175.747754660016,1175.9690778000513,1175.681223600055,1175.997900800081,None,None,None,None,left,1,0.4318323000334203,1175.7447796000633,None,None,None,,,,,,,hoavur,001,0,fr,2022-05-04_15h25.06.816,3-AFC_adaptive_staircase_mess,2022.1.1,29.971931285462844,
,,,,,8,0,8,0,4,0,4,0,,,,,,,,,,,,,,,,up,500,0,7.144469792555515e-05,-1,0,-1,-10,1178.7182128599845,1178.9318087000865,1177.6775906999828,1177.9868717000354,1178.6511255999794,1178.962745900033,None,None,up,1,1.3518647000892088,1177.7058919999981,None,None,None,,,,,,,hoavur,001,0,fr,2022-05-04_15h25.06.816,3-AFC_adaptive_staircase_mess,2022.1.1,29.971931285462844,
,,,,,8,0,8,0,5,0,5,0,,,,,,,,,,,,,,,,up,500,0,7.144469792555515e-05,-1,0,-1,-10,1181.6115246600705,1181.8342779000523,1180.5447272000602,1180.855034600012,1181.5496618000325,1181.865489399992,None,None,up,1,1.4937190000200644,1180.6029927000636,None,None,None,,,,,,,hoavur,001,0,fr,2022-05-04_15h25.06.816,3-AFC_adaptive_staircase_mess,2022.1.1,29.971931285462844,
,,,,,8,0,8,0,6,0,6,0,,,,,,,,,,,,,,,,right,500,-10,2.259279721874613e-05,-1,0,-1,-10,1185.6122226600303,1185.8384540000698,1183.5455755000003,1183.8576520000352,1184.5576024000766,1184.8589968000306,1185.5494861000916,1185.8696595000802,right,1,2.7307955999858677,1183.6054054000415,None,1186.1260215999791,None,,,,,,,hoavur,001,0,fr,2022-05-04_15h25.06.816,3-AFC_adaptive_staircase_mess,2022.1.1,29.971931285462844,
,,,,,8,0,8,0,7,0,7,0,,,,,,,,,,,,,,,,right,500,-10,2.259279721874613e-05,-1,0,-1,-10,1189.895123260026,1190.1062479000539,1187.827776900027,1188.1290867000353,1188.830315100029,1189.1301380000077,1189.829345999984,1190.1394458999857,left,0,2.6547059000004083,1187.8908028000733,None,1190.3737230000552,None,,,,,,,hoavur,001,0,fr,2022-05-04_15h25.06.816,3-AFC_adaptive_staircase_mess,2022.1.1,29.971931285462844,
,,,,,8,0,8,0,8,0,8,0,,,,,,,,,,,,,,,,right,500,-5,4.017630610928089e-05,1,1,1,5,1194.074877060065,None,1192.0420213000616,1192.3648136000847,1193.0283791000256,1193.3329051000765,1194.041013100068,1194.3400156000862,right,1,2.6034412999870256,1192.0700868000276,None,1194.603389600059,None,,,,,,,hoavur,001,0,fr,2022-05-04_15h25.06.816,3-AFC_adaptive_staircase_mess,2022.1.1,29.971931285462844,
,,,,,8,0,8,0,9,0,9,0,,,,,,,,,,,,,,,,right,500,-5,4.017630610928089e-05,1,1,1,5,1198.2046381599969,1198.4173033999978,1196.165156400064,1196.4674360000063,1197.1493670000928,1197.470790600055,1198.1707741999999,1198.4782629000256,right,1,2.5285380999557674,1196.1928080000216,None,1198.6927650000434,None,,,,,,,hoavur,001,0,fr,2022-05-04_15h25.06.816,3-AFC_adaptive_staircase_mess,2022.1.1,29.971931285462844,
,,,,,8,0,8,0,10,0,10,0,,,,,,,,,,,,,,,,left,500,-15,1.2704863527746532e-05,-1,2,-1,-5.0,1200.2361303599785,1200.4531202000799,1200.1717260000296,1200.483931499999,1201.191027300083,1201.5069943000562,1202.1755078000715,1202.5037977000466,right,0,3.4355892000021413,1200.2298894000705,None,1202.7402314000065,None,,,,,,,hoavur,001,0,fr,2022-05-04_15h25.06.816,3-AFC_adaptive_staircase_mess,2022.1.1,29.971931285462844,
,,,,,8,0,8,0,11,0,11,0,,,,,,,,,,,,,,,,right,500,-12.5,1.6942207806960138e-05,1,3,1,2.5,1207.2116880600108,1207.4269829000114,1205.1432520999806,1205.4456649000058,1206.1442453000927,1206.445811200072,1207.1450773000252,1207.4579563000007,left,0,2.78240150003694,1205.203317800071,None,1207.7020118000219,None,,,,,,,hoavur,001,0,fr,2022-05-04_15h25.06.816,3-AFC_adaptive_staircase_mess,2022.1.1,29.971931285462844,
,,,,,8,0,8,0,12,0,12,0,,,,,,,,,,,,,,,,up,500,-10.0,2.259279721874613e-05,1,3,1,2.5,1210.5088063600008,1210.729556000093,1209.4453880999936,1209.739074000041,1210.4460194000276,1210.762014499982,None,None,up,1,1.8412082000868395,1209.5045149000362,None,None,None,,,,,,,hoavur,001,0,fr,2022-05-04_15h25.06.816,3-AFC_adaptive_staircase_mess,2022.1.1,29.971931285462844,
,,,,,8,0,8,0,13,0,13,0,,,,,,,,,,,,,,,,left,500,-10.0,2.259279721874613e-05,1,3,1,2.5,1212.8590583600337,None,1212.8251944000367,1213.1242198999971,1213.8089606000576,1214.1209898000816,1214.8206588000758,1215.141733800061,left,1,3.6424377999501303,1212.854282299988,None,1215.3895328000654,None,,,,,,,hoavur,001,0,fr,2022-05-04_15h25.06.816,3-AFC_adaptive_staircase_mess,2022.1.1,29.971931285462844,
,,,,,8,0,8,0,14,0,14,0,,,,,,,,,,,,,,,,right,500,-15.0,1.2704863527746532e-05,-1,4,-1,-5.0,1220.027191760065,None,1217.9808026000392,1218.2924181000562,1218.9907488999888,1219.2938437000848,1219.993327800068,1220.2925664000213,up,0,2.742983900010586,1218.0420748000033,None,1220.5315035000676,None,,,,,,,hoavur,001,0,fr,2022-05-04_15h25.06.816,3-AFC_adaptive_staircase_mess,2022.1.1,29.971931285462844,
,,,,,8,0,8,0,15,0,15,0,,,,,,,,,,,,,,,,right,500,-12.5,1.6942207806960138e-05,1,5,1,2.5,1224.3318068599795,None,1222.268126100069,1222.5957751000533,1223.263246800052,1223.5633632000536,1224.2647676999914,1224.5638974000467,right,1,2.55100149998907,1222.297744999989,None,1224.8064719000831,None,,,,,,,hoavur,001,0,fr,2022-05-04_15h25.06.816,3-AFC_adaptive_staircase_mess,2022.1.1,29.971931285462844,
,,,,,8,0,8,0,16,0,16,0,,,,,,,,,,,,,,,,up,500,-12.5,1.6942207806960138e-05,1,5,1,2.5,1227.4004266600125,1227.61359730002,1226.3385190999834,1226.663595000049,1227.3330840000417,1227.6458406000165,1228.3244106000056,1228.6408658000873,left,0,3.248134699999355,1226.3677896000445,None,1228.9054082999937,None,,,,,,,hoavur,001,0,fr,2022-05-04_15h25.06.816,3-AFC_adaptive_staircase_mess,2022.1.1,29.971931285462844,
,,,,,8,0,8,0,17,0,17,0,,,,,,,,,,,,,,,,left,500,-10.0,2.259279721874613e-05,1,5,1,2.5,1231.142434560042,1231.350303800078,1231.108570600045,1231.4122316000285,1232.100386200007,1232.4105598999886,1233.0895141999936,1233.4099085000344,up,0,2.6828014000784606,1231.1420967000304,None,1233.673957400024,None,,,,,,,hoavur,001,0,fr,2022-05-04_15h25.06.816,3-AFC_adaptive_staircase_mess,2022.1.1,29.971931285462844,
,,,,,8,0,8,0,18,0,18,0,,,,,,,,,,,,,,,,left,500,-7.5,3.0127979303717903e-05,1,5,1,2.5,1235.3652855600697,None,1235.2991293000523,1235.6211851000553,1236.2927292999811,1236.6145398999797,1237.3072148000356,1237.611153200036,right,0,2.5456561000319198,1235.359447200084,None,1237.859256500029,None,,,,,,,hoavur,001,0,fr,2022-05-04_15h25.06.816,3-AFC_adaptive_staircase_mess,2022.1.1,29.971931285462844,
,,,,,8,0,8,0,19,0,19,0,,,,,,,,,,,,,,,,left,500,-5.0,4.017630610928089e-05,1,5,1,2.5,1239.4334609599784,None,1239.3691180000314,1239.6915049999952,1240.3816426000558,1240.6800825999817,1241.382293200004,1241.6812413000735,left,1,3.0351444999687374,1239.430380600039,None,1241.9329105000943,None,,,,,,,hoavur,001,0,fr,2022-05-04_15h25.06.816,3-AFC_adaptive_staircase_mess,2022.1.1,29.971931285462844,
,,,,,8,0,8,0,20,0,20,0,,,,,,,,,,,,,,,,right,500,-5.0,4.017630610928089e-05,1,5,1,2.5,1245.9902132599848,1246.1999491000315,1243.9250125000253,1244.2497110000113,1244.9520116000203,1245.2514657999855,1245.9235421000049,1246.2323152000317,right,1,2.8802691999590024,1243.9851961000822,None,1246.4786750000203,None,,,,,,,hoavur,001,0,fr,2022-05-04_15h25.06.816,3-AFC_adaptive_staircase_mess,2022.1.1,29.971931285462844,
,,,,,8,0,8,0,21,0,21,0,,,,,,,,,,,,,,,,left,500,-10.0,2.259279721874613e-05,-1,6,-1,-5.0,1248.3955598600908,1248.6016998999985,1248.3616959000938,1248.6629821000388,1249.3681907600724,None,None,None,left,1,0.9331517000682652,1248.3954899000237,None,None,None,,,,,,,hoavur,001,0,fr,2022-05-04_15h25.06.816,3-AFC_adaptive_staircase_mess,2022.1.1,29.971931285462844,
,,,,,9,0,9,0,0,0,0,0,,,,,,,,,,,,,[],[],10,left,250,30,0.005296268625886445,0,0,-1,10,1375.229372459976,1375.443287900067,1375.1671427000547,1375.4692869000137,None,None,None,None,left,1,0.376547500025481,1375.225004500011,None,None,None,left,124.32969130005222,1250.391495399992,None,1250.391495399992,None,hoavur,001,0,fr,2022-05-04_15h25.06.816,3-AFC_adaptive_staircase_mess,2022.1.1,29.971931285462844,
,,,,,9,0,9,0,1,0,1,0,,,,,,,,,,,,,,,,up,250,30,0.005296268625886445,0,0,-1,10,1378.1143832600676,1378.3224424000364,1377.0767744000768,1377.3761607999913,1378.0805193000706,1378.3840384000214,None,None,up,1,1.2763926999177784,1377.1404708999908,None,None,None,,,,,,,hoavur,001,0,fr,2022-05-04_15h25.06.816,3-AFC_adaptive_staircase_mess,2022.1.1,29.971931285462844,
,,,,,9,0,9,0,2,0,2,0,,,,,,,,,,,,,,,,left,250,10,0.0005296268625886444,-1,0,-1,-10,1379.963177660061,1380.1721509000054,1379.929313700064,1380.2273686000844,None,None,None,None,left,1,0.444100399967283,1379.9569990000455,None,None,None,,,,,,,hoavur,001,0,fr,2022-05-04_15h25.06.816,3-AFC_adaptive_staircase_mess,2022.1.1,29.971931285462844,
,,,,,9,0,9,0,3,0,3,0,,,,,,,,,,,,,,,,right,250,10,0.0005296268625886444,-1,0,-1,-10,1383.9051908600843,1384.1170662000077,1381.8653085000115,1382.1624705999857,1382.8662609000457,1383.1626727000112,1383.8713269000873,1384.1739747000393,right,1,2.37816570000723,1381.8946041000308,None,None,None,,,,,,,hoavur,001,0,fr,2022-05-04_15h25.06.816,3-AFC_adaptive_staircase_mess,2022.1.1,29.971931285462844,
,,,,,9,0,9,0,4,0,4,0,,,,,,,,,,,,,,,,right,250,0,0.0001674827195789138,-1,0,-1,-10,1387.801295260014,1388.0127244000323,1385.7531468999805,1386.0404475000687,1386.7572301999899,1387.0554306000704,1387.738196099992,1388.029297400033,right,1,2.386649399995804,1385.7735941000283,None,None,None,,,,,,,hoavur,001,0,fr,2022-05-04_15h25.06.816,3-AFC_adaptive_staircase_mess,2022.1.1,29.971931285462844,
,,,,,9,0,9,0,5,0,5,0,,,,,,,,,,,,,,,,right,250,0,0.0001674827195789138,-1,0,-1,-10,1391.6617495600833,None,1389.6328096999787,1389.9344783000415,1390.6370851000538,1390.933907300001,1391.6278856000863,1391.9469429000746,right,1,2.4209161999169737,1389.6607558000833,None,None,None,,,,,,,hoavur,001,0,fr,2022-05-04_15h25.06.816,3-AFC_adaptive_staircase_mess,2022.1.1,29.971931285462844,
,,,,,9,0,9,0,6,0,6,0,,,,,,,,,,,,,,,,left,250,-10,5.296268625886443e-05,-1,0,-1,-10,1393.608629660029,1393.8170496000675,1393.574765700032,1393.8711998000508,1394.5596402999945,1394.8645875999937,1395.5782534000464,1395.8845366000896,left,1,2.683239500038326,1393.6049492000602,None,1396.1226684000576,None,,,,,,,hoavur,001,0,fr,2022-05-04_15h25.06.816,3-AFC_adaptive_staircase_mess,2022.1.1,29.971931285462844,
,,,,,9,0,9,0,7,0,7,0,,,,,,,,,,,,,,,,left,250,-10,5.296268625886443e-05,-1,0,-1,-10,1397.8353981600842,1398.0429050000384,1397.7727535000304,1398.0721670000348,1398.762324100011,1399.0580357,1399.7678797000553,1400.0674480000744,left,1,2.4214386000530794,1397.834513299982,None,None,None,,,,,,,hoavur,001,0,fr,2022-05-04_15h25.06.816,3-AFC_adaptive_staircase_mess,2022.1.1,29.971931285462844,
,,,,,9,0,9,0,8,0,8,0,,,,,,,,,,,,,,,,left,250,-20,1.674827195789138e-05,-1,0,-1,-10,1401.8027216600487,1402.0191386999795,1401.7371098999865,1402.0491921000648,1402.7292654000921,1403.0247887000442,1403.740234100027,1404.0367953000823,up,0,2.6160486999433488,1401.7997266000602,None,1404.2700541000813,None,,,,,,,hoavur,001,0,fr,2022-05-04_15h25.06.816,3-AFC_adaptive_staircase_mess,2022.1.1,29.971931285462844,
,,,,,9,0,9,0,9,0,9,0,,,,,,,,,,,,,,,,up,250,-15,2.9783107176450517e-05,1,1,1,5,1406.9253821600462,1407.1415184000507,1405.8761363000376,1406.1889512999915,1406.8618903000606,1407.168682700023,1407.874125600094,1408.1701037000166,right,0,2.5076692000729963,1405.9093711000169,None,1408.4345337999985,None,,,,,,,hoavur,001,0,fr,2022-05-04_15h25.06.816,3-AFC_adaptive_staircase_mess,2022.1.1,29.971931285462844,
,,,,,9,0,9,0,10,0,10,0,,,,,,,,,,,,,,,,right,250,-10,5.296268625886443e-05,1,1,1,5,1411.9670154600637,1412.1906081000343,1409.9061300000176,1410.2126741000684,1410.9098218000727,1411.2047390000662,1411.903824100038,1412.2194709000178,right,1,2.771291399956681,1409.9341578000458,None,1412.440939799999,None,,,,,,,hoavur,001,0,fr,2022-05-04_15h25.06.816,3-AFC_adaptive_staircase_mess,2022.1.1,29.971931285462844,
,,,,,9,0,9,0,11,0,11,0,,,,,,,,,,,,,,,,right,250,-10,5.296268625886443e-05,1,1,1,5,1416.229499360011,None,1414.1687978000846,1414.4792859000154,1415.157389900065,1415.4656869000755,1416.1652170000598,1416.4956496000523,left,0,2.7373418000061065,1414.2394121000543,None,1416.7285731000593,None,,,,,,,hoavur,001,0,fr,2022-05-04_15h25.06.816,3-AFC_adaptive_staircase_mess,2022.1.1,29.971931285462844,
,,,,,9,0,9,0,12,0,12,0,,,,,,,,,,,,,,,,left,250,-5,9.418245447449e-05,1,1,1,5,1418.5134122600314,1418.7213358000154,1418.450893000001,1418.7483637999976,1419.4540904000169,1419.753009099979,1420.4548900000518,1420.7574378000572,up,0,5.189050499931909,1418.5080094999867,None,1420.9928012000164,None,,,,,,,hoavur,001,0,fr,2022-05-04_15h25.06.816,3-AFC_adaptive_staircase_mess,2022.1.1,29.971931285462844,
,,,,,9,0,9,0,13,0,13,0,,,,,,,,,,,,,,,,right,250,0,0.0001674827195789138,1,1,1,5,1427.2320236600237,1427.444908100064,1425.181692800019,1425.504597500083,1426.187889700057,1426.482737399987,1427.1981597000267,1427.5051743000513,right,1,2.604269600007683,1425.2368783000857,None,1427.7401171000674,None,,,,,,,hoavur,001,0,fr,2022-05-04_15h25.06.816,3-AFC_adaptive_staircase_mess,2022.1.1,29.971931285462844,
,,,,,9,0,9,0,14,0,14,0,,,,,,,,,,,,,,,,left,250,0,0.0001674827195789138,1,1,1,5,1429.4084191599861,1429.6211684000446,1429.344810300041,1429.6482539999997,1430.3537375000305,1430.677175500081,1431.3271537000546,1431.6264954999788,left,1,2.8216085999738425,1429.4027630999917,None,1431.8918286000844,None,,,,,,,hoavur,001,0,fr,2022-05-04_15h25.06.816,3-AFC_adaptive_staircase_mess,2022.1.1,29.971931285462844,
,,,,,9,0,9,0,15,0,15,0,,,,,,,,,,,,,,,,right,250,-10,5.296268625886443e-05,-1,2,-1,-5.0,1435.7810002600775,None,1433.7196304000681,1434.0183700000634,1434.7190415000077,1435.0477616999997,1435.7116404999979,1436.013773499988,up,0,2.7460090999957174,1433.7496833000332,None,1436.2786312000826,None,,,,,,,hoavur,001,0,fr,2022-05-04_15h25.06.816,3-AFC_adaptive_staircase_mess,2022.1.1,29.971931285462844,
,,,,,9,0,9,0,16,0,16,0,,,,,,,,,,,,,,,,left,250,-7.5,7.06268772311377e-05,1,3,1,2.5,1438.043823560048,1438.256536000059,1438.009959600051,1438.3168396999827,1438.9909693000372,1439.3099495000206,1439.9832016000291,1440.302444800036,right,0,2.452631299966015,1438.0442343000323,None,1440.5422694600886,None,,,,,,,hoavur,001,0,fr,2022-05-04_15h25.06.816,3-AFC_adaptive_staircase_mess,2022.1.1,29.971931285462844,
,,,,,9,0,9,0,17,0,17,0,,,,,,,,,,,,,,,,right,250,-5.0,9.418245447449e-05,1,3,1,2.5,1444.0276906600222,1444.2400084000546,1441.9654110000702,1442.2620520000346,1442.9756216000533,1443.2726930000354,1443.9640846999828,1444.2652120999992,right,1,2.9212381000397727,1442.0237286000047,None,1444.5024657000322,None,,,,,,,hoavur,001,0,fr,2022-05-04_15h25.06.816,3-AFC_adaptive_staircase_mess,2022.1.1,29.971931285462844,
,,,,,9,0,9,0,18,0,18,0,,,,,,,,,,,,,,,,up,250,-5.0,9.418245447449e-05,1,3,1,2.5,1447.46448446,1447.6792062000604,1446.4171373000136,1446.7169404000742,1447.4004228999838,1447.7046367999865,1448.397527400055,1448.6951395000797,up,1,2.44653620000463,1446.4501894999994,None,None,None,,,,,,,hoavur,001,0,fr,2022-05-04_15h25.06.816,3-AFC_adaptive_staircase_mess,2022.1.1,29.971931285462844,
,,,,,9,0,9,0,19,0,19,0,,,,,,,,,,,,,,,,up,250,-10.0,5.296268625886443e-05,-1,4,-1,-5.0,1451.3903961600038,1451.6106913000112,1450.3544889000477,1450.6548047000542,1451.3565322000068,1451.6656522999983,1452.346177700092,1452.6429455000907,up,1,2.4794744999380782,1450.3850118999835,None,1452.8916928999824,None,,,,,,,hoavur,001,0,fr,2022-05-04_15h25.06.816,3-AFC_adaptive_staircase_mess,2022.1.1,29.971931285462844,
,,,,,9,0,9,0,20,0,20,0,,,,,,,,,,,,,,,,up,250,-10.0,5.296268625886443e-05,-1,4,-1,-5.0,1455.3988969600061,1455.6215503000421,1454.344343899982,1454.658970599994,1455.3366635000566,1455.6505470999982,1456.3511598000769,1456.6476726999972,up,1,2.7014778000302613,1454.4026784000453,None,1456.885093000019,None,,,,,,,hoavur,001,0,fr,2022-05-04_15h25.06.816,3-AFC_adaptive_staircase_mess,2022.1.1,29.971931285462844,
,,,,,9,0,9,0,21,0,21,0,,,,,,,,,,,,,,,,up,250,-15.0,2.9783107176450517e-05,-1,4,-1,-5.0,1459.6547381600133,1459.8690988000017,1458.5924405000405,1458.8884379999945,1459.5929209000897,1459.8969632000662,1460.6050957000116,1460.916101400042,left,0,2.8391439999686554,1458.6490947999991,None,1461.1540399000514,None,,,,,,,hoavur,001,0,fr,2022-05-04_15h25.06.816,3-AFC_adaptive_staircase_mess,2022.1.1,29.971931285462844,
,,,,,9,0,9,0,22,0,22,0,,,,,,,,,,,,,,,,left,250,-12.5,3.971641173621407e-05,1,5,1,2.5,1463.0345117600402,1463.2437915999908,1462.9684387000743,1463.275824900018,1463.9608960000332,1464.2598216000479,1464.969822700019,1465.2701112000505,right,0,2.6812416999600828,1463.0313059000764,None,1465.536393300048,None,,,,,,,hoavur,001,0,fr,2022-05-04_15h25.06.816,3-AFC_adaptive_staircase_mess,2022.1.1,29.971931285462844,
,,,,,9,0,9,0,23,0,23,0,,,,,,,,,,,,,,,,right,250,-10.0,5.296268625886443e-05,1,5,1,2.5,1469.2185481599765,1469.44027989998,1467.172408399987,1467.4723725999938,1468.1797155999811,1468.506231800071,1469.1846841999795,1469.4959638,left,0,2.938208199921064,1467.2381420000456,None,1469.732182500069,None,,,,,,,hoavur,001,0,fr,2022-05-04_15h25.06.816,3-AFC_adaptive_staircase_mess,2022.1.1,29.971931285462844,
,,,,,9,0,9,0,24,0,24,0,,,,,,,,,,,,,,,,up,250,-7.5,7.06268772311377e-05,1,5,1,2.5,1472.7128450600896,None,1471.642485300079,1471.9425812000409,1472.6498380000703,1472.9613433000632,1473.6404744000174,1473.945347800036,right,0,2.58356089994777,1471.7045144999865,None,1474.1919745000778,None,,,,,,,hoavur,001,0,fr,2022-05-04_15h25.06.816,3-AFC_adaptive_staircase_mess,2022.1.1,29.971931285462844,
,,,,,9,0,9,0,25,0,25,0,,,,,,,,,,,,,,,,right,250,-5.0,9.418245447449e-05,1,5,1,2.5,1477.813760360051,1478.0286883000517,1475.7769654000876,1476.0770801000763,1476.777437300072,1477.081422700081,1477.779896400054,1478.089661700069,right,1,2.631037599989213,1475.8338890000014,None,1478.330310099991,None,,,,,,,hoavur,001,0,fr,2022-05-04_15h25.06.816,3-AFC_adaptive_staircase_mess,2022.1.1,29.971931285462844,
,,,,,9,0,9,0,26,0,26,0,,,,,,,,,,,,,,,,right,250,-5.0,9.418245447449e-05,1,5,1,2.5,1481.9761958600022,1482.196184600005,1479.9405745000113,1480.2509756999789,1480.9312788000097,1481.2544798000017,1481.9423319000052,1482.256482900004,left,0,2.8122073999838904,1479.9723099999828,None,1482.4756779000163,None,,,,,,,hoavur,001,0,fr,2022-05-04_15h25.06.816,3-AFC_adaptive_staircase_mess,2022.1.1,29.971931285462844,
,,,,,9,0,9,0,27,0,27,0,,,,,,,,,,,,,,,,left,250,-2.5,0.00012559432157547898,1,5,1,2.5,1484.305321960058,None,1484.271458000061,1484.5978648000164,None,None,None,None,left,1,0.4836591000203043,1484.3014077000553,None,None,None,,,,,,,hoavur,001,0,fr,2022-05-04_15h25.06.816,3-AFC_adaptive_staircase_mess,2022.1.1,29.971931285462844,
,,,,,9,0,9,0,28,0,28,0,,,,,,,,,,,,,,,,up,250,-2.5,0.00012559432157547898,1,5,1,2.5,1487.3249585599872,None,1486.256005500094,1486.5575757999904,1487.2597410000162,1487.57016880007,1488.2595703999978,1488.5598605000414,up,1,2.565476300078444,1486.3147479000036,None,1488.7965013000648,None,,,,,,,hoavur,001,0,fr,2022-05-04_15h25.06.816,3-AFC_adaptive_staircase_mess,2022.1.1,29.971931285462844,
,,,,,9,0,9,0,29,0,29,0,,,,,,,,,,,,,,,,left,250,-7.5,7.06268772311377e-05,-1,6,-1,-5.0,1490.4189635600662,1490.6425670000026,1490.3574786999961,1490.6735232000938,1491.35477049998,1491.6632831000024,1492.3476081000408,1492.6610967000015,left,1,2.6552799999481067,1490.4169473000802,None,1492.9316109000938,None,,,,,,,hoavur,001,0,fr,2022-05-04_15h25.06.816,3-AFC_adaptive_staircase_mess,2022.1.1,29.971931285462844,
,,,,,10,0,10,0,0,0,0,0,,,,,,,,,,,,,[],[],10,up,125,30,0.02285440948074376,0,0,-1,10,1498.8496028599795,None,1497.7747583000455,1498.0906002999982,1498.7864596000873,1499.1144938000944,None,None,up,1,1.3969047999707982,1497.8359232000075,None,None,None,left,3.1915404999163,1494.153298099991,None,1494.153298099991,None,hoavur,001,0,fr,2022-05-04_15h25.06.816,3-AFC_adaptive_staircase_mess,2022.1.1,29.971931285462844,
,,,,,10,0,10,0,1,0,1,0,,,,,,,,,,,,,,,,up,125,30,0.02285440948074376,0,0,-1,10,1501.7531803600025,None,1500.6964910000097,1501.0070178000024,1501.6909944000654,1502.0183069000486,None,None,up,1,1.3240060000680387,1500.7565930000274,None,None,None,,,,,,,hoavur,001,0,fr,2022-05-04_15h25.06.816,3-AFC_adaptive_staircase_mess,2022.1.1,29.971931285462844,
,,,,,10,0,10,0,2,0,2,0,,,,,,,,,,,,,,,,right,125,10,0.002285440948074376,-1,0,-1,-10,1505.6336978599895,1505.8578023000155,1503.5708196000196,1503.8788177000824,1504.5653383000754,1504.8764806999825,1505.5678001000779,1505.889479000005,right,1,2.284566399990581,1503.6358695999952,None,None,None,,,,,,,hoavur,001,0,fr,2022-05-04_15h25.06.816,3-AFC_adaptive_staircase_mess,2022.1.1,29.971931285462844,
,,,,,10,0,10,0,3,0,3,0,,,,,,,,,,,,,,,,left,125,10,0.002285440948074376,-1,0,-1,-10,1507.4485651600874,1507.659493300016,1507.4147012000903,1507.722171899979,None,None,None,None,left,1,0.5052819999400526,1507.4476321000839,None,None,None,,,,,,,hoavur,001,0,fr,2022-05-04_15h25.06.816,3-AFC_adaptive_staircase_mess,2022.1.1,29.971931285462844,
,,,,,10,0,10,0,4,0,4,0,,,,,,,,,,,,,,,,up,125,0,0.000722719885372964,-1,0,-1,-10,1510.4609504599823,None,1509.4189297000412,1509.7483858000487,1510.4270864999853,1510.7270100000314,1511.4190225000493,1511.7458991000894,up,1,2.948889399995096,1509.4842148000607,None,1511.9835238000378,None,,,,,,,hoavur,001,0,fr,2022-05-04_15h25.06.816,3-AFC_adaptive_staircase_mess,2022.1.1,29.971931285462844,
,,,,,10,0,10,0,5,0,5,0,,,,,,,,,,,,,,,,up,125,0,0.000722719885372964,-1,0,-1,-10,1514.9540856599808,1515.1727727000834,1513.8926416999893,1514.2092472000513,1514.9202216999838,1515.2284112999914,1515.9004378999816,1516.2205374999903,up,1,2.5435506000649184,1513.9525624000235,None,1516.4572836000007,None,,,,,,,hoavur,001,0,fr,2022-05-04_15h25.06.816,3-AFC_adaptive_staircase_mess,2022.1.1,29.971931285462844,
,,,,,10,0,10,0,6,0,6,0,,,,,,,,,,,,,,,,up,125,-10,0.0002285440948074376,-1,0,-1,-10,1519.0680466599763,None,1518.0003894000547,1518.2972397999838,1518.9992123000557,1519.3383880000329,1520.0019035000587,1520.3008583000628,right,0,2.846536200027913,1518.034783900017,None,1520.534970800043,None,,,,,,,hoavur,001,0,fr,2022-05-04_15h25.06.816,3-AFC_adaptive_staircase_mess,2022.1.1,29.971931285462844,
,,,,,10,0,10,0,7,0,7,0,,,,,,,,,,,,,,,,right,125,-5,0.00040641525808204974,1,1,1,5,1524.437950460054,1524.6474088000832,1522.3743013000349,1522.6907502000686,1523.3666154000675,1523.6697435000679,1524.369586899993,1524.6818241000874,left,0,2.7346268000546843,1522.4501758000115,None,1524.944278400042,None,,,,,,,hoavur,001,0,fr,2022-05-04_15h25.06.816,3-AFC_adaptive_staircase_mess,2022.1.1,29.971931285462844,
,,,,,10,0,10,0,8,0,8,0,,,,,,,,,,,,,,,,up,125,0,0.000722719885372964,1,1,1,5,1527.7103391599842,1527.9290399000747,1526.6733629000373,1526.9847376000835,1527.6764751999872,1527.9913073000498,1528.6804943000898,1528.9824953000061,up,1,2.4569793000118807,1526.7434354000725,None,1529.2399191600737,None,,,,,,,hoavur,001,0,fr,2022-05-04_15h25.06.816,3-AFC_adaptive_staircase_mess,2022.1.1,29.971931285462844,
,,,,,10,0,10,0,9,0,9,0,,,,,,,,,,,,,,,,up,125,0,0.000722719885372964,1,1,1,5,1531.74021526,1531.9502496999921,1530.6720591000048,1530.9831434000516,1531.673381700064,1531.9822393000359,1532.6623569000512,1532.9745683000656,right,0,2.6834290999686345,1530.7412170000607,None,1533.2289042000193,None,,,,,,,hoavur,001,0,fr,2022-05-04_15h25.06.816,3-AFC_adaptive_staircase_mess,2022.1.1,29.971931285462844,
,,,,,10,0,10,0,10,0,10,0,,,,,,,,,,,,,,,,up,125,5,0.0012851978913844323,1,1,1,5,1535.976042159996,1536.1876582000405,1534.9126925000455,1535.2420315000927,1535.9090696000494,1536.2195873000892,None,None,up,1,1.8687138999812305,1534.9794630000833,None,None,None,,,,,,,hoavur,001,0,fr,2022-05-04_15h25.06.816,3-AFC_adaptive_staircase_mess,2022.1.1,29.971931285462844,
,,,,,10,0,10,0,11,0,11,0,,,,,,,,,,,,,,,,up,125,5,0.0012851978913844323,1,1,1,5,1539.36496716009,1539.5922446000623,1538.313078999985,1538.6424100000877,1539.301233700011,1539.62439240003,None,None,up,1,1.3818659000098705,1538.3789720000932,None,None,None,,,,,,,hoavur,001,0,fr,2022-05-04_15h25.06.816,3-AFC_adaptive_staircase_mess,2022.1.1,29.971931285462844,
