sweeps.thisRepN,sweeps.thisTrialN,sweeps.thisN,sweeps.thisIndex,trials.thisRepN,trials.thisTrialN,trials.thisN,trials.thisIndex,instructions.started,instructions.stopped,blank_text.started,blank_text.stopped,,text.started,text.stopped,Delay,Prediction,Frequency,Volume,Psychopy_level,isCatchTrial,len(y),finished_audiograms,probe.started,probe.stopped,feedback.keys,feedback.started,feedback.stopped,ISI.started,ISI.stopped,text_2.started,text_2.stopped,feedback.rt,break_txt.started,break_txt.stopped,Intervals,Audiogram_frequency,Audiogram_time,Audiogram_none,Audiogram_both,participant,session,language (english or french),Resume previous experiment,date,expName,psychopyVersion,frameRate,
0,0,0,0,0,0,0,0,20.86837220005691,None,57.347011800156906,None,0.16666666666666666,59.35305409994908,None,1.2162048424170089,both,708.0,-0.6997486487091552,4.0893810501644284e-05,0,26,[],0.028573049930855632,None,None,60.36082830000669,None,0.22533124987967312,1.441536092296682,60.57104860013351,None,,,,,,,,,klxufm,001,fr,0,2022-05-09_17h25.11.568,Continuous,2022.1.1,35.54447198847977,
0,0,0,0,1,0,1,0,,,,,,,,1.2162048424170089,both,631.0,-1.575409129693789,4.260441028143882e-05,0,27,[],0.02218874986283481,None,None,61.79152359999716,61.79152359999716,0.22534454986453056,1.4415493922815394,62.00327880005352,61.79152359999716,,,,,,,,,klxufm,001,fr,0,2022-05-09_17h25.11.568,Continuous,2022.1.1,35.54447198847977,
0,0,0,0,2,0,2,0,,,,,,,,1.2162048424170089,both,562.0,-1.0609174954137723,5.4670183654136756e-05,0,28,[],0.028299349825829268,None,None,63.21468869992532,63.21468869992532,0.2350108497776091,1.451215692194618,63.43791410000995,63.21468869992532,,,,,,,,,klxufm,001,fr,0,2022-05-09_17h25.11.568,Continuous,2022.1.1,35.54447198847977,
0,0,0,0,3,0,3,0,,,,,,,,1.2162048424170089,both,501.0,0.8705448307856843,7.880393820075432e-05,0,29,[],0.028519350104033947,None,None,64.64394089998677,64.64394089998677,0.23281254991889,1.4490173923358989,64.8526141999755,64.64394089998677,,,,,,,,,klxufm,001,fr,0,2022-05-09_17h25.11.568,Continuous,2022.1.1,35.54447198847977,
0,0,0,0,4,0,4,0,,,,,,,,1.2162048424170089,both,446.0,-1.4208503331295408,6.300635365582079e-05,0,30,[],0.028233350021764636,None,['space'],66.06332880002446,66.06332880002446,0.23243844998069108,1.4486432923977,66.28019249998033,66.06332880002446,[-1.0418118999805301],,,,,,,,klxufm,001,fr,0,2022-05-09_17h25.11.568,Continuous,2022.1.1,35.54447198847977,
0,0,0,0,5,0,5,0,,,,,,,,1.2162048424170089,both,397.0,-1.9061811539865157,6.20950418195747e-05,0,31,[],0.02832595002837479,None,['space'],67.49692549998872,67.49692549998872,0.2295082500204444,1.4457130924374533,67.71113499999046,67.49692549998872,[-1.0831003999337554],,,,,,,,klxufm,001,fr,0,2022-05-09_17h25.11.568,Continuous,2022.1.1,35.54447198847977,
0,0,0,0,6,0,6,0,,,,,,,,1.2162048424170089,both,354.0,-2.0,7.02951783824607e-05,0,32,[],0.02831694995984435,None,['space'],68.92328630015254,68.92328630015254,0.23216504999436438,1.4483698924113733,69.14637610013597,68.92328630015254,[-1.0369005999527872],,,,,,,,klxufm,001,fr,0,2022-05-09_17h25.11.568,Continuous,2022.1.1,35.54447198847977,
0,0,0,0,7,0,7,0,,,,,,,,1.2162048424170089,both,315.0,-2.363964573087464,7.512280155074095e-05,0,33,[],0.02819414995610714,None,['space'],70.35443990002386,70.35443990002386,0.2367788499686867,1.4529836923856956,70.57271019998007,70.35443990002386,[-1.0608971999026835],,,,,,,,klxufm,001,fr,0,2022-05-09_17h25.11.568,Continuous,2022.1.1,35.54447198847977,
0,0,0,0,8,0,8,0,,,,,,,,1.2162048424170089,both,,,,1,33,[],0.028234749799594283,None,['space'],71.7846409000922,71.7846409000922,0.23312464985065162,1.4493294922676605,72.00046529993415,71.7846409000922,[-0.6508700998965651],,,,,,,,klxufm,001,fr,0,2022-05-09_17h25.11.568,Continuous,2022.1.1,35.54447198847977,
0,0,0,0,9,0,9,0,,,,,,,,1.2162048424170089,both,250.0,-2.4819539548895775,0.0001258555310739155,0,34,[],0.029492649948224425,None,None,73.2084514000453,73.2084514000453,0.23225854989141226,1.4484633923084211,73.42365669994615,73.2084514000453,,,,,,,,,klxufm,001,fr,0,2022-05-09_17h25.11.568,Continuous,2022.1.1,35.54447198847977,
0,0,0,0,10,0,10,0,,,,,,,,1.2162048424170089,both,223.0,-3.615010591876441,0.00014535277451565039,0,35,[],0.028164749965071678,None,['space'],74.63046410004608,74.63046410004608,0.23335845000110567,1.4495632924181145,74.8420772999525,74.63046410004608,[-0.920115299988538],,,,,,,,klxufm,001,fr,0,2022-05-09_17h25.11.568,Continuous,2022.1.1,35.54447198847977,
0,0,0,0,11,0,11,0,,,,,,,,1.2162048424170089,both,199.0,-2.3692443819360185,0.00020484528785787666,0,36,[],0.02818624977953732,None,['space'],76.05008419998921,76.05008419998921,0.23124844976700842,1.4474532921840173,76.25665530003607,76.05008419998921,[-1.04388100001961],,,,,,,,klxufm,001,fr,0,2022-05-09_17h25.11.568,Continuous,2022.1.1,35.54447198847977,
0,0,0,0,12,0,12,0,,,,,,,,1.2162048424170089,both,177.0,-3.415151429268521,0.0002356819091958959,0,37,[],0.028016849886626005,None,['space'],77.47444660007022,77.47444660007022,0.23229654971510172,1.4485013921321106,77.69072280009277,77.47444660007022,[-1.0759209000971168],,,,,,,,klxufm,001,fr,0,2022-05-09_17h25.11.568,Continuous,2022.1.1,35.54447198847977,
0,0,0,0,13,0,13,0,,,,,,,,1.2162048424170089,both,158.0,-2.0,0.0003407087925765764,0,38,[],0.024468049872666597,None,['space'],78.90860580001026,78.90860580001026,0.23029274982400239,1.4464975922410113,79.12257360015064,78.90860580001026,[-1.1023111999966204],,,,,,,,klxufm,001,fr,0,2022-05-09_17h25.11.568,Continuous,2022.1.1,35.54447198847977,
0,0,0,0,14,0,14,0,,,,,,,,1.2162048424170089,both,141.0,-1.915674332070588,0.00046542533049048486,0,39,[],0.02323464979417622,None,['space'],80.32926909998059,80.32926909998059,0.2192957499064505,1.4355005923234594,80.54935940005817,80.32926909998059,[-1.1161485000047833],,,,,,,,klxufm,001,fr,0,2022-05-09_17h25.11.568,Continuous,2022.1.1,35.54447198847977,
1,0,1,0,0,0,0,0,,,,,0.16666666666666666,87.62389570008963,None,1.6209927849850774,frequency,708.0,-0.3541301493109944,4.255381538821368e-05,0,26,[],0.029032049933448434,None,None,88.64548430009745,None,0.2322256499901414,1.8532184349752188,88.86477089999244,None,,81.76377920014784,None,,,,,,klxufm,001,fr,0,2022-05-09_17h25.11.568,Continuous,2022.1.1,35.54447198847977,
1,0,1,0,1,0,1,0,,,,,,,,2.5495505869499064,frequency,631.0,-0.24908468186926203,4.9633029068524996e-05,0,27,[],0.027461049845442176,None,None,90.47632970008999,90.47632970008999,0.23303434974513948,2.782584936695046,90.69697019993328,90.47632970008999,,,,,,,,,klxufm,001,fr,0,2022-05-09_17h25.11.568,Continuous,2022.1.1,35.54447198847977,
1,0,1,0,2,0,2,0,,,,,,,,2.7091640034743887,frequency,562.0,-1.3706756014246866,5.275487854560185e-05,0,28,[],0.027754549868404865,None,['space'],93.23585129994899,93.23585129994899,0.23391744983382523,2.943081453308214,93.4448083001189,93.23585129994899,[-1.9099858000408858],,,,,,,,klxufm,001,fr,0,2022-05-09_17h25.11.568,Continuous,2022.1.1,35.54447198847977,
1,0,1,0,3,0,3,0,,,,,,,,1.9252950939700415,frequency,,,,1,28,[],0.021499650087207556,None,['space'],96.16111650015227,96.16111650015227,0.23051725002005696,2.1558123439900987,96.38165599992499,96.16111650015227,[-2.515409199986607],,,,,,,,klxufm,001,fr,0,2022-05-09_17h25.11.568,Continuous,2022.1.1,35.54447198847977,
1,0,1,0,4,0,4,0,,,,,,,,1.7733783167483805,frequency,446.0,-1.7671551065330124,6.0543720839104125e-05,0,29,[],0.02885984955355525,None,None,98.30204780003987,98.30204780003987,0.2338469496462494,2.00722526639463,98.51745310006663,98.30204780003987,,,,,,,,,klxufm,001,fr,0,2022-05-09_17h25.11.568,Continuous,2022.1.1,35.54447198847977,
1,0,1,0,5,0,5,0,,,,,,,,1.9035318283254896,frequency,397.0,-1.3403117494330186,6.627510037206057e-05,0,30,[],0.027704049833118916,None,['space'],100.28806099994108,100.28806099994108,0.23336034989915788,2.1368921782246475,100.51076880004257,100.28806099994108,[-1.314029899891466],,,,,,,,klxufm,001,fr,0,2022-05-09_17h25.11.568,Continuous,2022.1.1,35.54447198847977,
1,0,1,0,6,0,6,0,,,,,,,,1.969146162932385,frequency,354.0,-2.0,7.02951783824607e-05,0,31,[],0.026522249914705753,None,['space'],102.40970940003172,102.40970940003172,0.23126054997555912,2.2004067129079443,102.6208864999935,102.40970940003172,[-1.7243190999142826],,,,,,,,klxufm,001,fr,0,2022-05-09_17h25.11.568,Continuous,2022.1.1,35.54447198847977,
1,0,1,0,7,0,7,0,,,,,,,,1.931276674268937,frequency,315.0,-2.925559268594911,7.041935468165562e-05,0,32,[],0.027514249784871936,None,['space'],104.59148770011961,104.59148770011961,0.2344489498063922,2.1657256240753293,104.81379100005142,104.59148770011961,[-1.6826406000182033],,,,,,,,klxufm,001,fr,0,2022-05-09_17h25.11.568,Continuous,2022.1.1,35.54447198847977,
1,0,1,0,8,0,8,0,,,,,,,,1.6333393305002184,frequency,281.0,-3.7077158282295986,8.786009559502379e-05,0,33,[],0.027421749895438552,None,['space'],106.73660390009172,106.73660390009172,0.230309649836272,1.8636489803364904,106.94624450011179,106.73660390009172,[-1.6347409998998046],,,,,,,,klxufm,001,fr,0,2022-05-09_17h25.11.568,Continuous,2022.1.1,35.54447198847977,
1,0,1,0,9,0,9,0,,,,,,,,1.5667822991823384,frequency,250.0,-2.9211112161122985,0.00011965047953850764,0,34,[],0.023338450118899345,0.21940355002880096,['space'],108.57502690004185,108.57502690004185,0.21940355002880096,1.7861858492111393,108.78909879992716,108.57502690004185,[-1.4085938001517206],,,,,,,,klxufm,001,fr,0,2022-05-09_17h25.11.568,Continuous,2022.1.1,35.54447198847977,
1,0,1,0,10,0,10,0,,,,,,,,2.0505449375375875,frequency,223.0,-4.671384300897093,0.00012870773291241076,0,35,[],0.027144449995830655,None,['space'],110.34947560005821,110.34947560005821,0.2333548499736935,2.283899787511281,110.56032960000448,110.34947560005821,[-1.3763982998207211],,,,,,,,klxufm,001,fr,0,2022-05-09_17h25.11.568,Continuous,2022.1.1,35.54447198847977,
1,0,1,0,11,0,11,0,,,,,,,,2.843827138909286,frequency,199.0,-3.2010022932213698,0.00018613930266594522,0,36,[],0.024345549987629056,None,['space'],112.61223420011811,112.61223420011811,0.2199965501204133,3.0638236890296993,112.82268789992668,112.61223420011811,[-1.846762799890712],,,,,,,,klxufm,001,fr,0,2022-05-09_17h25.11.568,Continuous,2022.1.1,35.54447198847977,
1,0,1,0,12,0,12,0,,,,,,,,2.821168975212652,frequency,177.0,-3.385137406610033,0.0002364977148545,0,37,[],0.022921750089153647,None,['space'],115.6662353000138,115.6662353000138,0.21977465017698705,3.040943625389639,115.88579310011119,115.6662353000138,[-2.6292139000725],,,,,,,,klxufm,001,fr,0,2022-05-09_17h25.11.568,Continuous,2022.1.1,35.54447198847977,
1,0,1,0,13,0,13,0,,,,,,,,1.9766265171637007,frequency,158.0,-2.0,0.0003407087925765764,0,38,[],0.020720649976283312,0.21490665012970567,"['space', 'space']",118.70545390015468,118.70545390015468,0.21490665012970567,2.1915331672934064,118.92230949993245,118.70545390015468,"[-2.675119500141591, -0.8517752999905497]",,,,,,,,klxufm,001,fr,0,2022-05-09_17h25.11.568,Continuous,2022.1.1,35.54447198847977,
1,0,1,0,14,0,14,0,,,,,,,,1.8565374784620112,frequency,141.0,-0.9790553260728583,0.0005184190669751791,0,39,[],0.02709624986164272,None,['space'],120.89309450006112,120.89309450006112,0.2309467496816069,2.087484228143618,121.1079128999263,120.89309450006112,[-1.7755337001290172],,,,,,,,klxufm,001,fr,0,2022-05-09_17h25.11.568,Continuous,2022.1.1,35.54447198847977,
2,0,2,0,0,0,0,0,,,,,0.16666666666666666,125.95893219998106,None,1.7182484149897412,frequency,7818.0,-3.759210494810317,0.00011418442138407073,0,40,[],0.02784885000437498,None,None,126.97599530010484,None,0.23569905012845993,1.9539474651182012,127.20102980011143,None,,122.96024139993824,None,,,,,,klxufm,001,fr,0,2022-05-09_17h25.11.568,Continuous,2022.1.1,35.54447198847977,
2,0,2,0,1,0,1,0,,,,,,,,2.286493386969447,frequency,,,,1,40,[],0.02688364963978529,None,['space'],128.91136409994215,128.91136409994215,0.22890094970352948,2.5153943366729763,129.12769940006547,128.91136409994215,[-1.3129819999448955],,,,,,,,klxufm,001,fr,0,2022-05-09_17h25.11.568,Continuous,2022.1.1,35.54447198847977,
2,0,2,0,2,0,2,0,,,,,,,,2.7759626826631116,frequency,6205.0,-5.030094317423448,7.034703745777028e-05,0,41,[],0.028181249974295497,None,None,131.4080505000893,131.4080505000893,0.23117455001920462,3.0071372326823163,131.62194889993407,131.4080505000893,,,,,,,,,klxufm,001,fr,0,2022-05-09_17h25.11.568,Continuous,2022.1.1,35.54447198847977,
2,0,2,0,3,0,3,0,,,,,,,,2.019875538322692,frequency,5528.0,-5.508834514047605,7.068188594905373e-05,0,42,[],0.02677635010331869,None,None,134.4004216999747,134.4004216999747,0.2284188501071185,2.2482943884298106,134.61022450006567,134.4004216999747,,,,,,,,,klxufm,001,fr,0,2022-05-09_17h25.11.568,Continuous,2022.1.1,35.54447198847977,
2,0,2,0,4,0,4,0,,,,,,,,1.2972151186278955,frequency,4925.0,-2.0,0.00011723142226817425,0,43,[],0.027018649969249964,None,None,136.63011200004257,136.63011200004257,0.2298461499158293,1.5270612685437248,136.8423635000363,136.63011200004257,,,,,,,,,klxufm,001,fr,0,2022-05-09_17h25.11.568,Continuous,2022.1.1,35.54447198847977,
2,0,2,0,5,0,5,0,,,,,,,,1.0508438971837537,frequency,4388.0,-2.733344767972092,8.076675834270706e-05,0,44,[],0.020470150047913194,0.21477105002850294,['space'],138.14287400012836,138.14287400012836,0.21477105002850294,1.2656149472122566,138.3591255999636,138.14287400012836,[-0.9771734999958426],,,,,,,,klxufm,001,fr,0,2022-05-09_17h25.11.568,Continuous,2022.1.1,35.54447198847977,
2,0,2,0,6,0,6,0,,,,,,,,2.3303298920816404,frequency,3909.0,-3.3052450139661973,5.6281188700129814e-05,0,45,[],0.02660374972037971,None,['space'],139.40585980005562,139.40585980005562,0.23177534970454872,2.562105241786189,139.6164116000291,139.40585980005562,[-0.7998756999149919],,,,,,,,klxufm,001,fr,0,2022-05-09_17h25.11.568,Continuous,2022.1.1,35.54447198847977,
2,0,2,0,7,0,7,0,,,,,,,,1.5799514903702794,frequency,3483.0,-2.479734369202938,5.627176557550785e-05,0,46,[],0.026740649715065956,None,['space'],141.9420909001492,141.9420909001492,0.2304828497581184,1.8104343401283978,142.15652310010046,141.9420909001492,[-2.1046045999974012],,,,,,,,klxufm,001,fr,0,2022-05-09_17h25.11.568,Continuous,2022.1.1,35.54447198847977,
2,0,2,0,8,0,8,0,,,,,,,,1.3154132074128606,frequency,3103.0,-2.9806896426801375,4.581475771858866e-05,0,47,[],0.020636150147765875,None,None,143.73130919993855,143.73130919993855,0.21918435022234917,1.5345975576352098,143.95088379993103,143.73130919993855,,,,,,,,,klxufm,001,fr,0,2022-05-09_17h25.11.568,Continuous,2022.1.1,35.54447198847977,
2,0,2,0,9,0,9,0,,,,,,,,1.277298343319584,frequency,2764.0,-4.516395228888443,4.131430390104396e-05,0,48,[],0.021489950129762292,None,None,145.26487520011142,145.26487520011142,0.21639095013961196,1.4936892934591959,145.48057140014134,145.26487520011142,,,,,,,,,klxufm,001,fr,0,2022-05-09_17h25.11.568,Continuous,2022.1.1,35.54447198847977,
2,0,2,0,10,0,10,0,,,,,,,,1.436607524923638,frequency,2462.0,-3.0772048632609286,5.968012376800454e-05,0,49,[],0.0265538499224931,None,None,146.76255640015006,146.76255640015006,0.2313162498176098,1.6679237747412479,146.96948570013046,146.76255640015006,,,,,,,,,klxufm,001,fr,0,2022-05-09_17h25.11.568,Continuous,2022.1.1,35.54447198847977,
2,0,2,0,11,0,11,0,,,,,,,,2.7667824608425073,frequency,2193.0,-3.6532078766921474,5.1935168733013554e-05,0,50,[],0.026446549920365214,None,None,148.40766620007344,148.40766620007344,0.22904834989458323,2.9958308107370906,148.62508790008724,148.40766620007344,,,,,,,,,klxufm,001,fr,0,2022-05-09_17h25.11.568,Continuous,2022.1.1,35.54447198847977,
2,0,2,0,12,0,12,0,,,,,,,,2.4236562210061297,frequency,1954.0,-2.3119836209419806,5.5736887070510034e-05,0,51,[],0.02313424996100366,None,None,151.38794260006398,151.38794260006398,0.22101844986900687,2.6446746708751365,151.6021338000428,151.38794260006398,,,,,,,,,klxufm,001,fr,0,2022-05-09_17h25.11.568,Continuous,2022.1.1,35.54447198847977,
3,0,3,0,0,0,0,0,,,,,0.3333333333333333,157.7984434000682,None,1.6873249337699536,frequency,5279.0,-6.169994884405503,7.001414051973949e-05,0,52,[],0.02926865010522306,None,None,158.81010350002907,None,0.24155735014937818,1.9288822839193318,159.02917110011913,None,,154.02294560009614,None,,,,,,klxufm,001,fr,0,2022-05-09_17h25.11.568,Continuous,2022.1.1,35.54447198847977,
3,0,3,0,1,0,1,0,,,,,,,,2.466565929941938,frequency,4190.0,-4.250287552726068,5.9472604723394755e-05,0,53,[],0.025824150070548058,None,None,160.70772540010512,160.70772540010512,0.23024505004286766,2.6968109799848055,160.917650999967,160.70772540010512,,,,,,,,,klxufm,001,fr,0,2022-05-09_17h25.11.568,Continuous,2022.1.1,35.54447198847977,
3,0,3,0,2,0,2,0,,,,,,,,1.9806337306106518,frequency,3326.0,-3.9061781577566177,4.599164794673631e-05,0,54,[],0.01920545008033514,None,"['space', 'space']",163.3889498000499,163.3889498000499,0.21362245013006032,2.1942561807407124,163.60751380003057,163.3889498000499,"[-2.238516200101003, -0.6712367001455277]",,,,,,,,klxufm,001,fr,0,2022-05-09_17h25.11.568,Continuous,2022.1.1,35.54447198847977,
3,0,3,0,3,0,3,0,,,,,,,,1.2113360866178458,frequency,2640.0,-4.903782019255487,4.3893711243434667e-05,0,55,[],0.0260086499620229,None,None,165.58456049999222,165.58456049999222,0.22831814992241561,1.4396542365402614,165.78985780011863,165.58456049999222,,,,,,,,,klxufm,001,fr,0,2022-05-09_17h25.11.568,Continuous,2022.1.1,35.54447198847977,
3,0,3,0,4,0,4,0,,,,,,,,1.0358834694850219,frequency,2095.0,-4.958876063388204,4.345926109479091e-05,0,56,[],0.02432895009405911,None,None,167.00245160004124,167.00245160004124,0.2221748500596732,1.258058319544695,167.21863349992782,167.00245160004124,,,,,,,,,klxufm,001,fr,0,2022-05-09_17h25.11.568,Continuous,2022.1.1,35.54447198847977,
3,0,3,0,5,0,5,0,,,,,,,,1.4598205527714863,frequency,1663.0,-3.3051611102941054,4.073363119882793e-05,0,57,[],0.02213704981841147,None,None,168.2561357000377,168.2561357000377,0.22306034970097244,1.6828809024724587,168.47669570008293,168.2561357000377,,,,,,,,,klxufm,001,fr,0,2022-05-09_17h25.11.568,Continuous,2022.1.1,35.54447198847977,
3,0,3,0,6,0,6,0,,,,,,,,2.250524853800866,frequency,1320.0,-4.0,3.3296473404479444e-05,0,58,[],0.026302249636501074,None,None,169.93596150004305,169.93596150004305,0.23043744964525104,2.480962303446117,170.15032840007916,169.93596150004305,,,,,,,,,klxufm,001,fr,0,2022-05-09_17h25.11.568,Continuous,2022.1.1,35.54447198847977,
3,0,3,0,7,0,7,0,,,,,,,,2.673019073452408,frequency,1048.0,-1.279056430953891,3.975323581163243e-05,0,59,[],0.025779749965295196,None,['space'],172.40283509995788,172.40283509995788,0.2298075498547405,2.9028266233071487,172.6186083999928,172.40283509995788,[-2.165761499898508],,,,,,,,klxufm,001,fr,0,2022-05-09_17h25.11.568,Continuous,2022.1.1,35.54447198847977,
3,0,3,0,8,0,8,0,,,,,,,,1.5164419659010426,frequency,832.0,-3.1703116888896767,2.726647938340615e-05,0,60,[],0.01823324989527464,None,['space'],175.29601310007274,175.29601310007274,0.21859765006229281,1.7350396159633354,175.51499900012277,175.29601310007274,[-2.402770600048825],,,,,,,,klxufm,001,fr,0,2022-05-09_17h25.11.568,Continuous,2022.1.1,35.54447198847977,
3,0,3,0,9,0,9,0,,,,,,,,1.9521261639980079,frequency,,,,1,60,[],0.026102050207555294,None,None,177.02796089998446,177.02796089998446,0.22742155008018017,2.179547714078188,177.23769979993813,177.02796089998446,,,,,,,,,klxufm,001,fr,0,2022-05-09_17h25.11.568,Continuous,2022.1.1,35.54447198847977,
3,0,3,0,10,0,10,0,,,,,,,,1.7309149559675534,frequency,524.0,0.4609831109178538,7.139079926312891e-05,0,61,[],0.025827950099483132,None,None,179.19386090012267,179.19386090012267,0.24214985012076795,1.9730648060883214,179.4138359001372,179.19386090012267,,,,,,,,,klxufm,001,fr,0,2022-05-09_17h25.11.568,Continuous,2022.1.1,35.54447198847977,
3,0,3,0,11,0,11,0,,,,,,,,1.449505603518768,frequency,416.0,-2.732996478324824,5.529135986241185e-05,0,62,[],0.018060349859297276,None,['space'],181.14261510013603,181.14261510013603,0.21659384993836284,1.6660994534571307,181.35962740005925,181.14261510013603,[-1.5280983000993729],,,,,,,,klxufm,001,fr,0,2022-05-09_17h25.11.568,Continuous,2022.1.1,35.54447198847977,
3,0,3,0,12,0,12,0,,,,,,,,2.1312116901917997,frequency,330.0,-3.2812843771590847,6.492464354268967e-05,0,63,[],0.025812249863520265,None,None,182.81072770012543,182.81072770012543,0.2307721497491002,2.3619838399409,183.02795709995553,182.81072770012543,,,,,,,,,klxufm,001,fr,0,2022-05-09_17h25.11.568,Continuous,2022.1.1,35.54447198847977,
3,0,3,0,13,0,13,0,,,,,,,,2.8116405838275047,frequency,262.0,-4.602618515758454,9.11077516399263e-05,0,64,[],0.018948349868878722,0.21298464993014932,None,185.16217390005477,185.16217390005477,0.21298464993014932,3.024625233757654,185.37641960009933,185.16217390005477,,,,,,,,,klxufm,001,fr,0,2022-05-09_17h25.11.568,Continuous,2022.1.1,35.54447198847977,
3,0,3,0,14,0,14,0,,,,,,,,1.2886578231129582,frequency,208.0,-4.9292956128319885,0.00014160325476047904,0,65,[],0.02571634971536696,None,['space'],188.18156419997104,188.18156419997104,0.2299705499317497,1.5186283730447079,188.39782500010915,188.18156419997104,[-2.5351218001451343],,,,,,,,klxufm,001,fr,0,2022-05-09_17h25.11.568,Continuous,2022.1.1,35.54447198847977,
4,0,4,0,0,0,0,0,,,,,0.5833333333333334,195.12785849999636,None,1.9453451713587928,frequency,6276.0,-5.728523812287925,6.664214278876431e-05,0,66,[],0.026633049827069044,None,None,196.15345979994163,None,0.230206549866125,2.1755517212249176,196.37310989992693,None,,189.6762127999682,None,,,,,,klxufm,001,fr,0,2022-05-09_17h25.11.568,Continuous,2022.1.1,35.54447198847977,
4,0,4,0,1,0,1,0,,,,,,,,2.6533930273568007,frequency,4189.0,4.146567633432737,0.0001562613565186912,0,67,[],0.025007849792018533,None,None,198.3167840000242,198.3167840000242,0.22758944984525442,2.880982477202055,198.5253500000108,198.3167840000242,,,,,,,,,klxufm,001,fr,0,2022-05-09_17h25.11.568,Continuous,2022.1.1,35.54447198847977,
4,0,4,0,2,0,2,0,,,,,,,,1.0607623417603729,frequency,2796.0,-3.65202349029965,4.433120983063004e-05,0,68,[],0.025671149836853147,None,['space'],201.18155800015666,201.18155800015666,0.2324015498161316,1.2931638915765045,201.39361599995755,201.18155800015666,[-2.4955704999156296],,,,,,,,klxufm,001,fr,0,2022-05-09_17h25.11.568,Continuous,2022.1.1,35.54447198847977,
4,0,4,0,3,0,3,0,,,,,,,,2.0095120494569523,frequency,1866.0,5.0,0.0001222767448299766,0,69,[],0.022759650135412812,0.2180135501548648,None,202.45631549996324,202.45631549996324,0.2180135501548648,2.227525599611817,202.66623360011727,202.45631549996324,,,,,,,,,klxufm,001,fr,0,2022-05-09_17h25.11.568,Continuous,2022.1.1,35.54447198847977,
4,0,4,0,4,0,4,0,,,,,,,,2.3167903606269786,frequency,1245.0,2.757449153461998,7.45886933277244e-05,0,70,[],0.021385449916124344,0.21582574979402125,None,204.67717589996755,204.67717589996755,0.21582574979402125,2.532616110421,204.89131590002216,204.67717589996755,,,,,,,,,klxufm,001,fr,0,2022-05-09_17h25.11.568,Continuous,2022.1.1,35.54447198847977,
4,0,4,0,5,0,5,0,,,,,,,,1.8826266964706866,frequency,831.0,4.57691308335921,6.647769134737886e-05,0,71,[],0.02558344998396933,None,['space'],207.20534290000796,207.20534290000796,0.22858604998327792,2.1112127464539645,207.41806409996934,207.20534290000796,[-2.0237861000932753],,,,,,,,klxufm,001,fr,0,2022-05-09_17h25.11.568,Continuous,2022.1.1,35.54447198847977,
4,0,4,0,6,0,6,0,,,,,,,,1.2192263258674014,frequency,555.0,3.3058549587288537,9.198127807433534e-05,0,72,[],0.018442749977111816,None,['space'],209.30469799996354,209.30469799996354,0.2166671499144286,1.43589347578183,209.51991440006532,209.30469799996354,[-1.7872649000491947],,,,,,,,klxufm,001,fr,0,2022-05-09_17h25.11.568,Continuous,2022.1.1,35.54447198847977,
4,0,4,0,7,0,7,0,,,,,,,,1.2991541404671405,frequency,370.0,1.5538928692050442,0.0001008653146659593,0,73,[],0.018566149985417724,None,['space'],210.73873029998504,210.73873029998504,0.21523474995046854,1.514388890417609,210.95595660014078,210.73873029998504,[-1.0451237000524998],,,,,,,,klxufm,001,fr,0,2022-05-09_17h25.11.568,Continuous,2022.1.1,35.54447198847977,
4,0,4,0,8,0,8,0,,,,,,,,2.2899820638054837,frequency,247.0,-1.6630301501157763,0.0001431522296227437,0,74,[],0.02536435006186366,None,['space'],212.25723160011694,212.25723160011694,0.23144965013489127,2.521431713940375,212.46738109993748,212.25723160011694,[-1.091551800025627],,,,,,,,klxufm,001,fr,0,2022-05-09_17h25.11.568,Continuous,2022.1.1,35.54447198847977,
4,0,4,0,9,0,9,0,,,,,,,,2.515215128590655,frequency,,,,1,74,[],0.025530549930408597,None,['space'],214.7599629999604,214.7599629999604,0.23079934972338378,2.7460144783140388,214.97298180009238,214.7599629999604,[-2.1538708999287337],,,,,,,,klxufm,001,fr,0,2022-05-09_17h25.11.568,Continuous,2022.1.1,35.54447198847977,
5,0,5,0,0,0,0,0,,,,,0.5833333333333334,221.77781170001253,None,1.1314908153629701,frequency,2000.0,-12.644277690227142,1.7448420532280785e-05,0,75,[],0.02954275021329522,None,None,222.7800362999551,None,0.23855855013243854,1.3700493654954087,222.99094619997777,None,,217.48883010004647,None,,,,,,klxufm,001,fr,0,2022-05-09_17h25.11.568,Continuous,2022.1.1,35.54447198847977,
5,0,5,0,1,0,1,0,,,,,,,,1.6864725787929575,frequency,1335.0,0.40616799945881044,5.49074166340153e-05,0,76,[],0.020673849852755666,0.21591204986907542,None,224.11427669995464,224.11427669995464,0.21591204986907542,1.902384628662033,224.32882599998266,224.11427669995464,,,,,,,,,klxufm,001,fr,0,2022-05-09_17h25.11.568,Continuous,2022.1.1,35.54447198847977,
5,0,5,0,2,0,2,0,,,,,,,,2.321979731601971,frequency,891.0,-7.243775001394504,1.7787400340947294e-05,0,77,[],0.025229149730876088,None,None,226.0121428000275,226.0121428000275,0.22792044980451465,2.5499001814064854,226.2221409000922,226.0121428000275,,,,,,,,,klxufm,001,fr,0,2022-05-09_17h25.11.568,Continuous,2022.1.1,35.54447198847977,
5,0,5,0,3,0,3,0,,,,,,,,2.7611618089626275,frequency,595.0,-11.853814387679174,1.4464882429241674e-05,0,78,[],0.02498134970664978,None,None,228.54968990013003,228.54968990013003,0.22676344984211028,2.987925258804738,228.7609836999327,228.54968990013003,,,,,,,,,klxufm,001,fr,0,2022-05-09_17h25.11.568,Continuous,2022.1.1,35.54447198847977,
5,0,5,0,4,0,4,0,,,,,,,,2.7727300341068855,frequency,397.0,-4.03443877143423,4.8600869936673054e-05,0,79,[],0.0194411501288414,0.21178655023686588,None,231.52562239998952,231.52562239998952,0.21178655023686588,2.9845165843437513,231.74216479994357,231.52562239998952,,,,,,,,,klxufm,001,fr,0,2022-05-09_17h25.11.568,Continuous,2022.1.1,35.54447198847977,
5,0,5,0,5,0,5,0,,,,,,,,1.1574056310278207,frequency,265.0,-10.145525788737785,4.7141001489074165e-05,0,80,[],0.020540850004181266,None,['space'],234.510091900127,234.510091900127,0.2150465501472354,1.372452181175056,234.7232359999325,234.510091900127,[-2.4809011998586357],,,,,,,,klxufm,001,fr,0,2022-05-09_17h25.11.568,Continuous,2022.1.1,35.54447198847977,
5,0,5,0,6,0,6,0,,,,,,,,2.294996579048306,frequency,177.0,-14.0,6.967609763950411e-05,0,81,[],0.024376050103455782,None,None,235.8852407000959,235.8852407000959,0.22956735012121499,2.524563929169521,236.09318660013378,235.8852407000959,,,,,,,,,klxufm,001,fr,0,2022-05-09_17h25.11.568,Continuous,2022.1.1,35.54447198847977,
5,0,5,0,7,0,7,0,,,,,,,,1.3100522799044434,frequency,,,,1,81,[],0.025147750042378902,None,None,238.39456430007704,238.39456430007704,0.22683995007537305,1.5368922299798164,238.61451090010814,238.39456430007704,,,,,,,,,klxufm,001,fr,0,2022-05-09_17h25.11.568,Continuous,2022.1.1,35.54447198847977,
6,0,6,0,0,0,0,0,,,,,,242.9037399000954,None,1.0603493491059914,time,1335.0,-0.8055404601595484,4.7757940251805e-05,0,26,[],0.02932584984228015,None,None,243.90611970005557,None,0.24432744993828237,1.3046767990442738,244.12626120005734,None,,239.91304609994404,None,"[0.16666666666666666, 0.16666666666666666, 0.5833333333333334, 0.5833333333333334, 0.5833333333333334, 0.5833333333333334, 0.16666666666666666, 0.16666666666666666, 0.3333333333333333, 0.5833333333333334, 0.5833333333333334, 0.16666666666666666, 0.5833333333333334, 0.3333333333333333, 0.16666666666666666]",,,,,klxufm,001,fr,0,2022-05-09_17h25.11.568,Continuous,2022.1.1,35.54447198847977,
6,0,6,0,1,0,1,0,,,,,,,,1.0603493491059914,time,891.0,-0.27449895613505537,3.9680421989704864e-05,0,27,[],0.024083149852231145,None,None,245.17877579992637,245.17877579992637,0.22600144986063242,1.2863507989666239,245.3941434000153,245.17877579992637,,,,,,,,,klxufm,001,fr,0,2022-05-09_17h25.11.568,Continuous,2022.1.1,35.54447198847977,
6,0,6,0,2,0,2,0,,,,,,,,1.0603493491059914,time,1682.0,-2.6622979311584816,4.449422498805977e-05,0,28,[],0.018856449984014034,0.2114269498270005,None,246.4592033000663,246.4592033000663,0.2114269498270005,1.271776298932992,246.66955920006149,246.4592033000663,,,,,,,,,klxufm,001,fr,0,2022-05-09_17h25.11.568,Continuous,2022.1.1,35.54447198847977,
6,0,6,0,3,0,3,0,,,,,,,,1.0603493491059914,time,250.0,-2.5627389834244103,0.0001246904106320457,0,29,[],0.019409649772569537,0.21185394981876016,None,247.72541450010613,247.72541450010613,0.21185394981876016,1.2722032989247516,247.941874000011,247.72541450010613,,,,,,,,,klxufm,001,fr,0,2022-05-09_17h25.11.568,Continuous,2022.1.1,35.54447198847977,
6,0,6,0,4,0,4,0,,,,,,,,1.0603493491059914,time,149.0,-1.6380117656426094,0.0004215623498539288,0,30,[],0.024529549991711974,None,['space'],248.99909700010903,248.99909700010903,0.2271037499886006,1.287453099094592,249.21775930002332,248.99909700010903,[-0.8253480999264866],,,,,,,,klxufm,001,fr,0,2022-05-09_17h25.11.568,Continuous,2022.1.1,35.54447198847977,
6,0,6,0,5,0,5,0,,,,,,,,1.0603493491059914,time,223.0,-3.950227878168146,0.00013984999711534753,0,31,[],0.02361864992417395,None,['space'],250.2739278001245,250.2739278001245,0.22588984994217753,1.286239199048169,250.4903384000063,250.2739278001245,[-0.8680503000505269],,,,,,,,klxufm,001,fr,0,2022-05-09_17h25.11.568,Continuous,2022.1.1,35.54447198847977,
6,0,6,0,6,0,6,0,,,,,,,,1.0603493491059914,time,281.0,-3.465502884004873,9.034462481212474e-05,0,32,[],0.024479249957948923,None,['space'],251.55726270005107,251.55726270005107,0.2259442498907447,1.2862935989967361,251.77020319993608,251.55726270005107,[-0.9032947001978755],,,,,,,,klxufm,001,fr,0,2022-05-09_17h25.11.568,Continuous,2022.1.1,35.54447198847977,
6,0,6,0,7,0,7,0,,,,,,,,1.0603493491059914,time,,,,1,32,[],0.024472649907693267,None,['space'],252.83654309995472,252.83654309995472,0.2284708498045802,1.2888201989105716,253.04919479996897,252.83654309995472,[-0.9830145000014454],,,,,,,,klxufm,001,fr,0,2022-05-09_17h25.11.568,Continuous,2022.1.1,35.54447198847977,
6,0,6,0,8,0,8,0,,,,,,,,1.0603493491059914,time,1888.0,-2.4936377015975486,5.234692627597406e-05,0,33,[],0.02325254981406033,None,None,254.1109561000485,254.1109561000485,0.22260664985515177,1.2829559989611432,254.32939750002697,254.1109561000485,,,,,,,,,klxufm,001,fr,0,2022-05-09_17h25.11.568,Continuous,2022.1.1,35.54447198847977,
6,0,6,0,9,0,9,0,,,,,,,,1.0603493491059914,time,794.0,-0.5832877664926828,3.6131227565069446e-05,0,34,[],0.024166750023141503,None,None,255.3957801000215,255.3957801000215,0.22695054998621345,1.2872998990922049,255.61139600002207,255.3957801000215,,,,,,,,,klxufm,001,fr,0,2022-05-09_17h25.11.568,Continuous,2022.1.1,35.54447198847977,
6,0,6,0,10,0,10,0,,,,,,,,1.0603493491059914,time,354.0,-2.0,7.02951783824607e-05,0,35,[],0.024492450058460236,None,None,256.6744155001361,256.6744155001361,0.2288015498779714,1.2891508989839628,256.9005609001033,256.6744155001361,,,,,,,,,klxufm,001,fr,0,2022-05-09_17h25.11.568,Continuous,2022.1.1,35.54447198847977,
7,0,7,0,0,0,0,0,,,,,,266.58150049997494,None,2.0058639836390273,time,1231.0,1.1507030044791362,6.132347580263883e-05,0,36,[],0.02908474998548627,None,None,267.62163050007075,None,0.23469864996150136,2.2405626336005287,267.83643310004845,None,,257.9537319999654,None,"[0.5833333333333334, 0.3333333333333333, 0.5833333333333334, 0.3333333333333333, 0.3333333333333333, 0.5833333333333334, 0.3333333333333333, 0.16666666666666666, 0.5833333333333334, 0.3333333333333333, 0.3333333333333333, 0.5833333333333334, 0.16666666666666666, 0.5833333333333334, 0.5833333333333334]",,,,,klxufm,001,fr,0,2022-05-09_17h25.11.568,Continuous,2022.1.1,35.54447198847977,
7,0,7,0,1,0,1,0,,,,,,,,2.0058639836390273,time,6205.0,-4.168051227034809,7.768693136070616e-05,0,37,[],0.023784050019457936,None,None,269.84262620005757,269.84262620005757,0.22689504991285503,2.2327590335518823,270.04976510000415,269.84262620005757,,,,,,,,,klxufm,001,fr,0,2022-05-09_17h25.11.568,Continuous,2022.1.1,35.54447198847977,
7,0,7,0,2,0,2,0,,,,,,,,2.0058639836390273,time,652.0,0.3063328981519727,5.1002821941692724e-05,0,38,[],0.024154650047421455,None,None,272.0624631999526,272.0624631999526,0.22701945016160607,2.2328834338006334,272.28008840000257,272.0624631999526,,,,,,,,,klxufm,001,fr,0,2022-05-09_17h25.11.568,Continuous,2022.1.1,35.54447198847977,
7,0,7,0,3,0,3,0,,,,,,,,2.0058639836390273,time,,,,1,38,[],0.024213450029492378,None,['space'],274.2815908000339,274.2815908000339,0.22953925002366304,2.2354032336626903,274.4967015001457,274.2815908000339,[-1.62834950000979],,,,,,,,klxufm,001,fr,0,2022-05-09_17h25.11.568,Continuous,2022.1.1,35.54447198847977,
7,0,7,0,4,0,4,0,,,,,,,,2.0058639836390273,time,4925.0,0.0,0.00014758561655417712,0,39,[],0.025162049802020192,None,None,276.501239300007,276.501239300007,0.23057984979823232,2.2364438334372596,276.71745390002616,276.501239300007,,,,,,,,,klxufm,001,fr,0,2022-05-09_17h25.11.568,Continuous,2022.1.1,35.54447198847977,
7,0,7,0,5,0,5,0,,,,,,,,2.0058639836390273,time,517.0,0.6117965566641734,7.381287646507043e-05,0,40,[],0.02389574982225895,None,['space'],278.7197337001562,278.7197337001562,0.22520914976485074,2.231073133403878,278.9302342000883,278.7197337001562,[-1.7295810000505298],,,,,,,,klxufm,001,fr,0,2022-05-09_17h25.11.568,Continuous,2022.1.1,35.54447198847977,
7,0,7,0,6,0,6,0,,,,,,,,2.0058639836390273,time,7818.0,-2.7717176672618224,0.00012793267972588323,0,41,[],0.02185714989900589,0.22101944987662137,['space'],280.93939510011114,280.93939510011114,0.22101944987662137,2.2268834335156487,281.15489619993605,280.93939510011114,[-1.6291682000737637],,,,,,,,klxufm,001,fr,0,2022-05-09_17h25.11.568,Continuous,2022.1.1,35.54447198847977,
7,0,7,0,7,0,7,0,,,,,,,,2.0058639836390273,time,1551.0,-0.4916755853532889,4.971563167191254e-05,0,42,[],0.021326650166884065,None,['space'],283.15886770002544,283.15886770002544,0.22136085014790297,2.2272248337869303,283.375977500109,283.15886770002544,[-1.8323836999479681],,,,,,,,klxufm,001,fr,0,2022-05-09_17h25.11.568,Continuous,2022.1.1,35.54447198847977,
7,0,7,0,8,0,8,0,,,,,,,,2.0058639836390273,time,977.0,0.005600066546237292,4.342673075130388e-05,0,43,[],0.02384354965761304,None,None,285.3881280000787,285.3881280000787,0.22607554984278977,2.231939533481817,285.5985147000756,285.3881280000787,,,,,,,,,klxufm,001,fr,0,2022-05-09_17h25.11.568,Continuous,2022.1.1,35.54447198847977,
7,0,7,0,9,0,9,0,,,,,,,,2.0058639836390273,time,3287.0,-3.337653350154734,4.8636494269427104e-05,0,44,[],0.023641549749299884,None,['space'],287.6072395001538,287.6072395001538,0.22681024973280728,2.2326742333718346,287.8243110999465,287.6072395001538,[-1.6737005999311805],,,,,,,,klxufm,001,fr,0,2022-05-09_17h25.11.568,Continuous,2022.1.1,35.54447198847977,
7,0,7,0,10,0,10,0,,,,,,,,2.0058639836390273,time,2928.0,-1.4910906225996623,4.994442666249702e-05,0,45,[],0.023718949873000383,None,None,289.8298841000069,289.8298841000069,0.2255216499324888,2.231385633571516,290.03796700015664,289.8298841000069,,,,,,,,,klxufm,001,fr,0,2022-05-09_17h25.11.568,Continuous,2022.1.1,35.54447198847977,
8,0,8,0,0,0,0,0,,,,,,297.08975589997135,None,2.1666513292568603,time,334.0,-7.2533135133196005,4.0646290470751154e-05,0,46,[],0.029279449954628944,None,None,298.0983830001205,None,0.23777364986017346,2.404424979117034,298.30932170012966,None,,292.0500988001004,None,"[0.3333333333333333, 0.5833333333333334, 0.16666666666666666, 0.3333333333333333, 0.5833333333333334, 0.3333333333333333, 0.16666666666666666, 0.16666666666666666, 0.16666666666666666, 0.5833333333333334, 0.3333333333333333, 0.5833333333333334, 0.5833333333333334, 0.16666666666666666, 0.3333333333333333]",,,,,klxufm,001,fr,0,2022-05-09_17h25.11.568,Continuous,2022.1.1,35.54447198847977,
8,0,8,0,1,0,1,0,,,,,,,,2.1666513292568603,time,265.0,-5.238177049584288,8.294042217431562e-05,0,47,[],0.01941444957628846,0.21428894973360002,None,300.4791280000936,300.4791280000936,0.21428894973360002,2.3809402789904603,300.6940351999365,300.4791280000936,,,,,,,,,klxufm,001,fr,0,2022-05-09_17h25.11.568,Continuous,2022.1.1,35.54447198847977,
8,0,8,0,2,0,2,0,,,,,,,,2.1666513292568603,time,500.0,-6.660493920453119,3.318526639643412e-05,0,48,[],0.02335244999267161,None,None,302.8563739999663,302.8563739999663,0.22541465004906058,2.392065979305921,303.0725006000139,302.8563739999663,,,,,,,,,klxufm,001,fr,0,2022-05-09_17h25.11.568,Continuous,2022.1.1,35.54447198847977,
8,0,8,0,3,0,3,0,,,,,,,,2.1666513292568603,time,158.0,-4.614046756605361,0.000252162791513254,0,49,[],0.01973585016094148,None,None,305.23364920006134,305.23364920006134,0.21505775023251772,2.381709079489378,305.4517163001001,305.23364920006134,,,,,,,,,klxufm,001,fr,0,2022-05-09_17h25.11.568,Continuous,2022.1.1,35.54447198847977,
8,0,8,0,4,0,4,0,,,,,,,,2.1666513292568603,time,177.0,-8.0,0.0001390220918741947,0,50,[],0.02062814962118864,0.21639804961159825,['space'],307.6177185999695,307.6177185999695,0.21639804961159825,2.3830493788684586,307.8272386000026,307.6177185999695,[-1.8763458000030369],,,,,,,,klxufm,001,fr,0,2022-05-09_17h25.11.568,Continuous,2022.1.1,35.54447198847977,
8,0,8,0,5,0,5,0,,,,,,,,2.1666513292568603,time,1060.0,-3.6629865791383542,3.0540979434022705e-05,0,51,[],0.02328435005620122,None,None,309.996516100131,309.996516100131,0.22431685007177293,2.3909681793286333,310.2176530000288,309.996516100131,,,,,,,,,klxufm,001,fr,0,2022-05-09_17h25.11.568,Continuous,2022.1.1,35.54447198847977,
8,0,8,0,6,0,6,0,,,,,,,,2.1666513292568603,time,749.0,-7.489983305504357,1.719518734262789e-05,0,52,[],0.019353649811819196,None,['space'],312.3738824999891,312.3738824999891,0.21497134980745614,2.3816226790643165,312.5929149999283,312.3738824999891,[-1.8641131001058966],,,,,,,,klxufm,001,fr,0,2022-05-09_17h25.11.568,Continuous,2022.1.1,35.54447198847977,
8,0,8,0,7,0,7,0,,,,,,,,2.1666513292568603,time,841.0,-1.273522609817464,3.414190175250965e-05,0,53,[],0.02084954991005361,0.22001395002007484,None,314.75922970008105,314.75922970008105,0.22001395002007484,2.386665279276935,314.9730577999726,314.75922970008105,,,,,,,,,klxufm,001,fr,0,2022-05-09_17h25.11.568,Continuous,2022.1.1,35.54447198847977,
8,0,8,0,8,0,8,0,,,,,,,,2.1666513292568603,time,126.0,-0.27594845961350767,0.000691495735225316,0,54,[],0.023155950009822845,None,None,317.13822500011884,317.13822500011884,0.23169834981672466,2.398349679073585,317.3523663999513,317.13822500011884,,,,,,,,,klxufm,001,fr,0,2022-05-09_17h25.11.568,Continuous,2022.1.1,35.54447198847977,
8,0,8,0,9,0,9,0,,,,,,,,2.1666513292568603,time,,,,1,54,[],0.01960364985279739,None,['space'],319.5152237000875,319.5152237000875,0.21429264987818897,2.3809439791350493,319.7291806000285,319.5152237000875,[-1.9335155999287963],,,,,,,,klxufm,001,fr,0,2022-05-09_17h25.11.568,Continuous,2022.1.1,35.54447198847977,
9,0,9,0,0,0,0,0,,,,,,328.6355371000245,None,2.2618370426872616,time,7726.0,-6.0392568138151175,8.643086822601472e-05,0,55,[],0.029520449927076697,None,None,329.6437552999705,None,0.2373443499673158,2.4991813926545774,329.8572927999776,None,,321.8987380999606,None,"[0.16666666666666666, 0.5833333333333334, 0.3333333333333333, 0.16666666666666666, 0.16666666666666666, 0.16666666666666666, 0.16666666666666666, 0.5833333333333334, 0.3333333333333333, 0.3333333333333333, 0.5833333333333334, 0.3333333333333333, 0.16666666666666666, 0.3333333333333333, 0.5833333333333334]",,,,,klxufm,001,fr,0,2022-05-09_17h25.11.568,Continuous,2022.1.1,35.54447198847977,
9,0,9,0,1,0,1,0,,,,,,,,2.2618370426872616,time,2894.0,-4.918742382851345,3.485856815076898e-05,0,56,[],0.02281025005504489,None,None,332.1213926000055,332.1213926000055,0.22563145007006824,2.48746849275733,332.33757019997574,332.1213926000055,,,,,,,,,klxufm,001,fr,0,2022-05-09_17h25.11.568,Continuous,2022.1.1,35.54447198847977,
9,0,9,0,2,0,2,0,,,,,,,,2.2618370426872616,time,1217.0,-4.523538026478265,3.156124774335258e-05,0,57,[],0.0187222498934716,None,None,334.6014463000465,334.6014463000465,0.21145654981955886,2.4732935925068205,334.813039700035,334.6014463000465,,,,,,,,,klxufm,001,fr,0,2022-05-09_17h25.11.568,Continuous,2022.1.1,35.54447198847977,
9,0,9,0,3,0,3,0,,,,,,,,2.2618370426872616,time,861.0,-3.2279323695886,2.7654596409674438e-05,0,58,[],0.02302965009585023,None,None,337.08129200013354,337.08129200013354,0.2238667500205338,2.4857037927077954,337.2936378000304,337.08129200013354,,,,,,,,,klxufm,001,fr,0,2022-05-09_17h25.11.568,Continuous,2022.1.1,35.54447198847977,
9,0,9,0,4,0,4,0,,,,,,,,2.2618370426872616,time,406.0,-1.1254796906469218,6.698125655346456e-05,0,59,[],0.022224250016734004,None,None,339.5636245000642,339.5636245000642,0.23894235002808273,2.5007793927153443,339.7841402001213,339.5636245000642,,,,,,,,,klxufm,001,fr,0,2022-05-09_17h25.11.568,Continuous,2022.1.1,35.54447198847977,
9,0,9,0,5,0,5,0,,,,,,,,2.2618370426872616,time,6132.0,-6.3926999979799515,5.8485349285364744e-05,0,60,[],0.017625849694013596,None,['space'],342.0428244001232,342.0428244001232,0.2187018496915698,2.4805388923788314,342.2598516999278,342.0428244001232,[-2.077947699930519],,,,,,,,klxufm,001,fr,0,2022-05-09_17h25.11.568,Continuous,2022.1.1,35.54447198847977,
9,0,9,0,6,0,6,0,,,,,,,,2.2618370426872616,time,1823.0,-5.0,3.75754692053257e-05,0,61,[],0.018644049996510148,None,None,344.52701720013283,344.52701720013283,0.22806945000775158,2.489906492695013,344.74799109995365,344.52701720013283,,,,,,,,,klxufm,001,fr,0,2022-05-09_17h25.11.568,Continuous,2022.1.1,35.54447198847977,
9,0,9,0,7,0,7,0,,,,,,,,2.2618370426872616,time,5463.0,-5.953728745928081,6.836043347512675e-05,0,62,[],0.01801344961859286,None,['space'],347.01333980006166,347.01333980006166,0.22473154962062836,2.48656859230789,347.2319241000805,347.01333980006166,[-0.3601492000743747],,,,,,,,klxufm,001,fr,0,2022-05-09_17h25.11.568,Continuous,2022.1.1,35.54447198847977,
9,0,9,0,8,0,8,0,,,,,,,,2.2618370426872616,time,2297.0,-5.0,4.5772032481394935e-05,0,63,[],0.01876985002309084,None,None,349.4982288000174,349.4982288000174,0.2295312499627471,2.4913682926500087,349.72233480005525,349.4982288000174,,,,,,,,,klxufm,001,fr,0,2022-05-09_17h25.11.568,Continuous,2022.1.1,35.54447198847977,
9,0,9,0,9,0,9,0,,,,,,,,2.2618370426872616,time,1084.0,-3.015546986663302,3.3613874211850295e-05,0,64,[],0.01843205001205206,None,None,351.98421710007824,351.98421710007824,0.2265162500552833,2.488353292742545,352.20499849994667,351.98421710007824,,,,,,,,,klxufm,001,fr,0,2022-05-09_17h25.11.568,Continuous,2022.1.1,35.54447198847977,
9,0,9,0,10,0,10,0,,,,,,,,2.2618370426872616,time,609.0,-1.7896637198233107,4.4303718101586637e-05,0,65,[],0.01704924996010959,None,None,354.47166989999823,354.47166989999823,0.22164354985579848,2.48348059254306,354.6832918000873,354.47166989999823,,,,,,,,,klxufm,001,fr,0,2022-05-09_17h25.11.568,Continuous,2022.1.1,35.54447198847977,
9,0,9,0,11,0,11,0,,,,,,,,2.2618370426872616,time,966.0,-4.4562609243153934,2.5794323831578185e-05,0,66,[],0.022399049950763583,None,None,356.95191020006314,356.95191020006314,0.22113344981335104,2.4829704925006126,357.1623416999355,356.95191020006314,,,,,,,,,klxufm,001,fr,0,2022-05-09_17h25.11.568,Continuous,2022.1.1,35.54447198847977,
9,0,9,0,12,0,12,0,,,,,,,,2.2618370426872616,time,,,,1,66,[],0.016087650088593364,None,None,359.4307520999573,359.4307520999573,0.21230445010587573,2.4741414927931373,359.64302429999225,359.4307520999573,,,,,,,,,klxufm,001,fr,0,2022-05-09_17h25.11.568,Continuous,2022.1.1,35.54447198847977,
9,0,9,0,13,0,13,0,,,,,,,,2.2618370426872616,time,767.0,-2.1829268425958834,3.1008740340097196e-05,0,67,[],0.020876949885860085,None,None,361.9082251000218,361.9082251000218,0.2168482500128448,2.4786852927001064,362.1235810001381,361.9082251000218,,,,,,,,,klxufm,001,fr,0,2022-05-09_17h25.11.568,Continuous,2022.1.1,35.54447198847977,
10,0,10,0,0,0,0,0,,,,,0.5833333333333334,370.01018570014276,None,2.551772295788546,frequency,6276.0,0.1087487955189852,0.00013050062245988382,0,82,[],0.029194649774581194,None,None,371.03614139999263,None,0.22720164991915226,2.778973945707698,371.24749929993413,None,,364.4001164000947,None,,,,,,klxufm,001,fr,0,2022-05-09_17h25.11.568,Continuous,2022.1.1,35.54447198847977,
10,0,10,0,1,0,1,0,,,,,,,,1.6150013794574194,frequency,4189.0,2.5070051878479616,0.00012938188310949585,0,83,[],0.021889349911361933,None,None,373.8033201000653,373.8033201000653,0.222226349869743,1.8372277293271624,374.01665999996476,373.8033201000653,,,,,,,,,klxufm,001,fr,0,2022-05-09_17h25.11.568,Continuous,2022.1.1,35.54447198847977,
10,0,10,0,2,0,2,0,,,,,,,,2.844017698864067,frequency,2796.0,7.610486849573361,0.00016211944214657335,0,84,[],0.02228094986639917,None,['space'],375.63863350008614,375.63863350008614,0.22450854978524148,3.0685262486493086,375.85100050014444,375.63863350008614,[-1.401419600006193],,,,,,,,klxufm,001,fr,0,2022-05-09_17h25.11.568,Continuous,2022.1.1,35.54447198847977,
10,0,10,0,3,0,3,0,,,,,,,,2.5642478357876746,frequency,1866.0,9.0,0.00019379558047733455,0,85,['frequency'],0.01526484964415431,0.21101774973794818,['space'],378.70152650005184,378.70152650005184,0.21101774973794818,2.7752655855256227,378.9205517000519,378.70152650005184,[-2.6726208000909537],,,,"{'estimation': [[125.0, 0.7806786897517363], [127.6891788788618, 0.0], [131.29394238227454, -1.0], [133.9716828170366, -1.6745973426522314], [135.16856163768747, -2.0], [138.81456998393995, -3.0], [142.64461223712914, -4.0], [143.5872943746293, -4.231717529086721], [146.84890056978452, -5.0], [151.10054510441987, -6.000000000000001], [153.89305166811442, -6.621879608324836], [155.96512794909725, -7.0], [161.44775928665464, -8.0], [164.93848884661162, -8.60858688986163], [168.1474742414125, -9.0], [176.62488291453758, -9.999999999999998], [176.77669529663666, -10.017353537191894], [189.46457081379947, -10.773861231245789], [203.0630990890585, -10.897816422306134], [217.6376408240306, -10.500682520756698], [227.65061141007394, -10.0], [233.25824788420132, -9.738469650197716], [246.13395569104355, -9.0], [249.99999999999937, -8.79103324492101], [264.3379538852065, -8.0], [267.94336563407256, -7.80977468360189], [284.9118582187021, -7.0], [287.1745887492579, -6.895407708550275], [307.78610333622805, -6.086584169086002], [310.3202799491346, -6.0], [329.87697769322244, -5.359447203460531], [341.6145925745271, -5.0], [353.55339059327247, -4.64998240302406], [375.0115310916119, -4.0], [378.929141627598, -3.8859022917927697], [406.12619817811606, -3.012073154969162], [406.4693214585398, -3.0000000000000004], [435.2752816480596, -2.0175445978146334], [435.7775854986251, -2.0], [465.18172696329555, -1.0], [466.5164957684015, -0.9558331383980604], [498.12408655842034, 0.0], [499.9999999999975, 0.055150060970244], [535.8867312681438, 0.8535309708659241], [548.9883351161964, 1.0], [574.3491774985143, 1.2758326945277725], [615.5722066724546, 1.1924533787969303], [628.9840998275708, 1.0], [659.7539553864424, 0.5713908048794485], [684.7895346324675, 0.0], [707.1067811865431, -0.4952664344132682], [726.4727719404265, -1.0], [757.8582832551941, -1.7932122185715693], [766.7788685873813, -2.0], [811.2997368508893, -3.0], [812.2523963562311, -3.0207023154319055], [870.5505632961181, -3.849487953849737], [926.6236570439576, -4.0], [933.0329915368008, -4.01683927537593], [934.7596364302533, -4.0], [999.9999999999914, -3.3861868102698187], [1019.4856456845885, -2.9999999999999996], [1071.0129658916997, -2.0], [1071.773462536285, -1.985670203452832], [1109.5850595191812, -1.0], [1148.698354997026, -0.008356948649252368], [1149.0031392450733, 0.0], [1184.981373218012, 1.0], [1221.523295517962, 2.0], [1231.1444133449063, 2.2509187492149723], [1260.8379012748237, 3.0], [1300.4758765444644, 4.0], [1319.5079107728832, 4.458344659423062], [1346.829032189205, 5.0], [1397.329410980615, 6.0], [1414.2135623730828, 6.323706804455004], [1465.9162152854865, 7.0], [1515.7165665103846, 7.643213522076178], [1572.53086001319, 8.0], [1624.5047927124563, 8.325158443029213], [1741.1011265922318, 8.363680391062429], [1822.9127398086425, 8.0], [1866.0659830735945, 7.813962051587214], [1968.875424866735, 7.0], [1999.9999999999802, 6.76248257900276], [2073.278982963002, 6.0], [2143.5469250725646, 5.300068762627474], [2168.563179865936, 5.0], [2254.2266176108915, 4.0], [2297.396709994046, 3.525811271784036], [2339.9399856731457, 3.0], [2423.5122448609363, 2.0], [2462.2888266898062, 1.5677900342633861], [2511.0393181708105, 1.0], [2599.894983783007, 0.0], [2639.01582154576, -0.4089540429327164], [2699.3390040439663, -1.0], [2805.617791748165, -2.0], [2828.427124746159, -2.201590743306552], [2943.088604706811, -3.0], [3031.4331330207615, -3.586268280520635], [3144.1797419604413, -4.0], [3249.0095854249043, -4.371970414217786], [3482.2022531844555, -4.432266242298955], [3640.9810134949735, -4.0], [3732.1319661471844, -3.758372171798188], [3888.5547012835605, -3.0], [3999.9999999999504, -2.4736819269711443], [4081.1525946421207, -2.0], [4253.1709766268195, -1.0], [4287.093850145118, -0.8079875243821295], [4429.188981494949, 0.0], [4594.793419988081, 0.9333811208581057], [4609.400459113398, 1.0], [4826.018888530421, 2.0], [4924.577653379601, 2.4507572542269904], [5111.795635797351, 3.0], [5278.031643091506, 3.4884223316687817], [5656.854249492303, 3.900469567748577], [6062.866266041501, 3.6692571538836427], [6429.628996739465, 2.9999999999999996], [6498.019170849792, 2.8807781997608766], [6845.16706049501, 2.0], [6964.404506368894, 1.713623756021347], [7226.742533158838, 1.0], [7464.2639322943505, 0.38041993621864967], [7622.41769551866, 0.0], [7999.999999999882, -0.9122610554098631]], 'plus_line': [[125.0, -4.274097897545652], [127.67433636838338, -5.0], [131.77675568875927, -6.0], [133.9716828170366, -6.472072318618865], [135.8225705401079, -7.0], [139.41349967508785, -8.0], [143.5872943746293, -8.995169081558618], [143.60656446449482, -9.0], [147.44074269973282, -10.0], [151.63967359650437, -11.0], [153.89305166811442, -11.487364757125686], [156.47980837046373, -12.0], [161.72339433839545, -13.0], [164.93848884661162, -13.558798712104739], [168.43106013797495, -14.0], [176.77669529663666, -14.984226484611687], [177.0498809169501, -15.0], [189.46457081379947, -15.705270619817027], [203.0630990890585, -15.714972275529732], [217.6376408240306, -15.149800322521124], [219.98249332233854, -15.0], [233.25824788420132, -14.220563558486214], [236.52085555890375, -14.0], [249.99999999999937, -13.139018052949744], [252.2924691089656, -13.0], [267.94336563407256, -12.093516591800281], [269.82378359329414, -12.0], [287.1745887492579, -11.179367302137187], [291.6316007993199, -11.0], [307.78610333622805, -10.388161728699192], [319.0876090084251, -10.0], [329.87697769322244, -9.653958476223858], [350.4502741391416, -9.0], [353.55339059327247, -8.907940047126356], [378.929141627598, -8.113433788190715], [382.2388676741122, -8.0], [406.12619817811606, -7.227192414354876], [412.5863044536389, -7.0], [435.2752816480601, -6.233768204287932], [441.9895195475298, -6.0], [466.5164957684015, -5.1733412582735845], [472.028229265136, -5.0], [499.9999999999975, -4.155666749081353], [506.58924188175973, -4.0], [535.8867312681438, -3.3539501271727983], [567.5792526952417, -3.0], [574.3491774985137, -2.931391921602122], [599.1484680045093, -3.0], [615.5722066724546, -3.048772864816313], [659.7539553864432, -3.7260077445356297], [671.1733430322671, -4.0], [707.1067811865431, -4.837010589950067], [713.1226427518812, -5.0], [750.9686184027634, -5.999999999999999], [757.8582832551941, -6.1738850233863225], [792.8152299012404, -7.0], [812.2523963562301, -7.435792729334018], [850.3884044623604, -8.0], [870.550563296117, -8.297134170977175], [933.0329915368008, -8.503145280442354], [987.3432845873651, -8.0], [999.9999999999926, -7.890619817342124], [1046.2482068919533, -7.0], [1071.773462536285, -6.507021174319805], [1092.0276597183652, -6.000000000000001], [1130.0679541375612, -5.0], [1148.698354997026, -4.51423847807405], [1168.3357005856278, -4.0], [1204.1850013944693, -3.0], [1231.1444133449063, -2.236597303485687], [1241.1627127009162, -2.0], [1281.9458025906154, -1.0], [1319.5079107728848, -0.03059868467221808], [1321.1514686999087, 0.0], [1374.561501252237, 1.0], [1414.2135623730828, 1.7742890887120006], [1432.6503718639738, 2.0], [1514.1790170970976, 3.0], [1515.7165665103846, 3.0184256064934756], [1624.5047927124563, 3.5956221512825044], [1741.1011265922318, 3.5618933127564523], [1864.7731384973495, 3.0000000000000004], [1866.065983073597, 2.9940608942520246], [1995.386287408321, 2.0], [1999.9999999999802, 1.9661292287960583], [2097.313841076723, 1.0], [2143.5469250725646, 0.5816364870877606], [2195.096059227487, 0.0], [2293.593851798051, -1.0], [2297.396709994046, -1.03628919485458], [2380.493623527214, -2.0], [2462.2888266898062, -2.8211222288866917], [2478.4168228271456, -3.0], [2570.764740434185, -4.0], [2639.01582154576, -4.64501535129396], [2676.231264231861, -5.0], [2786.240127834992, -6.0], [2828.427124746159, -6.349402525346665], [2921.0631724048735, -7.0], [3031.4331330207615, -7.725542758502436], [3103.548447549369, -8.0], [3249.0095854249043, -8.555099648431867], [3482.2022531844555, -8.652268039100854], [3723.8173076040925, -8.0], [3732.1319661471844, -7.979016366599258], [3937.448436333584, -7.0], [3999.9999999999504, -6.706655812315222], [4126.413984230498, -6.0], [4287.093850145124, -5.069550178665355], [4300.324024399899, -5.000000000000001], [4489.0565742614635, -4.0], [4594.7934199880865, -3.425726455393516], [4697.837873004585, -3.0], [4924.577653379601, -2.0356795643477543], [4938.489729604525, -2.0], [5278.031643091506, -1.1491730989273152], [5459.751238810136, -1.0], [5656.854249492303, -0.8496097318144434], [5873.929457860396, -1.0], [6062.866266041508, -1.136636344930849], [6498.019170849792, -1.8999187963833948], [6538.627010054934, -2.0], [6964.404506368894, -2.9999194632285087], [6964.433707055237, -3.0], [7330.858798603734, -4.0], [7464.26393229436, -4.3418711560883025], [7695.122038235043, -5.0], [7999.999999999882, -5.846133408767552]], 'minus_line': [[125.0, 5.885388002898251], [127.86914226933982, 5.0], [130.93436713501697, 4.0], [133.9716828170366, 3.0442956816524136], [134.13977582781658, 3.0], [137.86635613669742, 2.0], [141.30455981207578, 1.0], [143.5872943746293, 0.362369208013413], [145.2348607022245, 0.0], [149.54304170454085, -1.0], [153.67572644186308, -2.0], [153.89305166811442, -2.049312344933389], [159.37175286202415, -3.0], [164.82003016698718, -4.0], [164.9384888466117, -4.020671727656567], [173.16209453965382, -5.0], [176.77669529663666, -5.42709432542563], [185.62513575135085, -6.0], [189.46457081379947, -6.233678461341956], [203.0630990890585, -6.443115634752951], [217.6376408240306, -6.170255286228208], [221.68071166859602, -6.0], [233.25824788420132, -5.5250458015854935], [243.35102965205294, -5.0], [249.99999999999937, -4.665767354417607], [262.4415316482005, -4.0], [267.94336563407256, -3.7146943189269654], [282.69292750648924, -3.0], [287.1745887492579, -2.786914822708235], [306.85605518577864, -2.0], [307.78610333622805, -1.9629761571405737], [329.87697769322244, -1.2300848213780586], [337.7407670182366, -1.0], [353.55339059327247, -0.540678296099188], [372.1080641220689, 0.0], [378.929141627598, 0.1977820355794716], [403.76621540178746, 1.0], [406.12619817811606, 1.0752995878391105], [432.04914214187244, 2.0], [435.2752816480601, 2.112243378265137], [459.8782817478927, 3.0], [466.5164957684015, 3.2320540031449188], [490.55903480619145, 4.0], [499.9999999999975, 4.294330664801809], [530.2447580624955, 5.0], [535.8867312681438, 5.132107548783147], [574.3491774985143, 5.604961168133352], [615.5722066724546, 5.570471627484441], [657.656961300087, 5.0], [659.7539553864432, 4.973472943747227], [703.2523761888184, 4.0], [707.1067811865431, 3.916420616381715], [742.3900481415576, 3.0], [757.8582832551941, 2.6041549042132583], [783.6457152940714, 2.0], [812.2523963562301, 1.3430503959263447], [834.9241246786432, 1.0], [870.5505632961181, 0.49395410380433147], [933.0329915368008, 0.33474480244950955], [999.9999999999926, 0.9870353994849911], [1000.6242487055708, 1.0], [1048.755993327406, 2.0], [1071.773462536285, 2.443534728100051], [1091.7834570694627, 3.0], [1129.2873687943347, 4.0], [1148.698354997026, 4.470811936382292], [1166.4070294931118, 5.0], [1200.5370316600429, 6.0], [1231.1444133449063, 6.788369631909119], [1238.9290582205658, 6.999999999999999], [1274.9562072244935, 8.0], [1315.7098500930738, 9.0], [1319.5079107728832, 9.088901851015475], [1360.402798143274, 10.0], [1409.6639226971008, 11.0], [1414.2135623730828, 11.089202311086906], [1474.963490526008, 12.0], [1515.7165665103846, 12.580192490307208], [1570.4129647321436, 13.0], [1624.5047927124563, 13.423914178688836], [1741.101126592234, 13.595054075280844], [1866.065983073597, 13.11940153098507], [1880.9418258138649, 13.0], [1999.9999999999802, 12.068264570685455], [2006.2380609867735, 12.0], [2099.1692781379343, 11.0], [2143.5469250725646, 10.524239499488255], [2185.067118661692, 10.0], [2262.7284265758967, 9.0], [2297.396709994046, 8.56531080894148], [2340.1588077993506, 8.0], [2413.755805175589, 7.0], [2462.2888266898062, 6.35449236458631], [2490.545507563229, 6.0], [2569.021828796101, 5.0], [2639.01582154576, 4.106818945846811], [2649.088505661124, 4.0], [2744.3465060965987, 3.0], [2828.427124746159, 2.107660875392701], [2842.58286290401, 2.0], [2977.5629237789976, 1.0], [3031.4331330207615, 0.6139278535873518], [3190.8283983216966, 0.0], [3249.0095854249043, -0.2089251316394941], [3482.2022531844555, -0.2536679585779074], [3570.7577852236645, 0.0], [3732.1319661471844, 0.4671655554959604], [3834.027793702003, 1.0], [3999.999999999946, 1.8293034366227825], [4026.5640581145854, 2.0], [4179.772644572211, 3.0], [4287.093850145118, 3.6459356257789124], [4341.810853907906, 4.0], [4495.761168072422, 5.0], [4594.793419988081, 5.59784467383211], [4669.4093019805305, 6.0], [4856.741166619291, 7.0], [4924.577653379601, 7.347672937352709], [5108.128100500292, 8.0], [5278.031643091506, 8.593947248592192], [5565.757352377156, 9.0], [5656.854249492303, 9.134207553089182], [5903.737907816822, 9.0], [6062.866266041508, 8.923024417520116], [6498.019170849792, 8.047951387962945], [6514.1780732279985, 8.0], [6866.698874909244, 7.0], [6964.404506368894, 6.7353936066344575], [7218.927295483296, 6.0], [7464.2639322943505, 5.303590963799078], [7603.153000152278, 5.0], [7999.999999999882, 4.133505266831884]]}",,,,klxufm,001,fr,0,2022-05-09_17h25.11.568,Continuous,2022.1.1,35.54447198847977,
10,0,10,0,4,0,4,0,,,,,,,,1.7005587592823932,frequency,1245.0,4.038548832637134,8.644263225113533e-05,0,86,['frequency'],0.016945549985393882,0.21408604993484914,None,381.4797263001092,381.4797263001092,0.21408604993484914,1.9146448092172423,381.69916740013286,381.4797263001092,,,,,,,,,klxufm,001,fr,0,2022-05-09_17h25.11.568,Continuous,2022.1.1,35.54447198847977,
10,0,10,0,5,0,5,0,,,,,,,,1.8319398447753568,frequency,831.0,0.2657997814885399,4.046879412838374e-05,0,87,['frequency'],0.019483249867334962,None,['space'],383.3969807000831,383.3969807000831,0.21759054996073246,2.049530394736089,383.61331870011054,383.3969807000831,[-1.3189451999496669],,,,,,,,klxufm,001,fr,0,2022-05-09_17h25.11.568,Continuous,2022.1.1,35.54447198847977,
10,0,10,0,6,0,6,0,,,,,,,,2.42571526377392,frequency,555.0,7.008837611791625,0.00014087975004926432,0,88,['frequency'],0.019675449933856726,None,None,385.44935160013847,385.44935160013847,0.2172602501232177,2.6429755138971376,385.66181660001166,385.44935160013847,,,,,,,,,klxufm,001,fr,0,2022-05-09_17h25.11.568,Continuous,2022.1.1,35.54447198847977,
10,0,10,0,7,0,7,0,,,,,,,,2.8352355377121086,frequency,370.0,3.5543431461755786,0.00012698849072092296,0,89,['frequency'],0.017281650099903345,0.21153854997828603,['space'],388.09251550002955,388.09251550002955,0.21153854997828603,3.0467740876903946,388.3063884000294,388.09251550002955,[-2.20741800009273],,,,,,,,klxufm,001,fr,0,2022-05-09_17h25.11.568,Continuous,2022.1.1,35.54447198847977,
10,0,10,0,8,0,8,0,,,,,,,,2.8411174742114196,frequency,247.0,-4.502608550880742,0.00010323315409377692,0,90,['frequency'],0.01799904997460544,0.2131311499979347,['space'],391.14256920013577,391.14256920013577,0.2131311499979347,3.0542486242093543,391.35927959997207,391.14256920013577,[-2.6322906999848783],,,,,,,,klxufm,001,fr,0,2022-05-09_17h25.11.568,Continuous,2022.1.1,35.54447198847977,
10,0,10,0,9,0,9,0,,,,,,,,2.6392455086287314,frequency,165.0,-0.9663410469598768,0.0003515423231127047,0,91,['frequency'],0.017897950019687414,None,['space'],394.19566870015115,394.19566870015115,0.21295884996652603,2.8522043585952574,394.41322640003636,394.19566870015115,[-2.22998939990066],,,,,,,,klxufm,001,fr,0,2022-05-09_17h25.11.568,Continuous,2022.1.1,35.54447198847977,
10,0,10,0,10,0,10,0,,,,,,,,1.2639183949704786,frequency,,,,1,91,['frequency'],0.021280049812048674,None,['space'],397.05898219998926,397.05898219998926,0.22459324984811246,1.488511644818591,397.27221880014986,397.05898219998926,[-2.34178450005129],,,,,,,,klxufm,001,fr,0,2022-05-09_17h25.11.568,Continuous,2022.1.1,35.54447198847977,
11,0,11,0,0,0,0,0,,,,,,402.9220738001168,None,1.2185004239643569,time,944.0,6.993642564410188,9.498838592335681e-05,0,68,['frequency'],0.029141450067982078,None,None,403.9415474999696,None,0.22616115002892911,1.444661573993286,404.15152320009656,None,,398.53994749998674,None,"[0.5833333333333334, 0.3333333333333333, 0.16666666666666666, 0.5833333333333334, 0.5833333333333334, 0.16666666666666666, 0.5833333333333334, 0.5833333333333334, 0.5833333333333334, 0.16666666666666666, 0.3333333333333333, 0.3333333333333333, 0.5833333333333334, 0.16666666666666666, 0.16666666666666666]",,,,,klxufm,001,fr,0,2022-05-09_17h25.11.568,Continuous,2022.1.1,35.54447198847977,
11,0,11,0,1,0,1,0,,,,,,,,1.2185004239643569,time,500.0,4.531676984390151,0.00012037986544516735,0,69,['frequency'],0.017019249964505434,None,['space'],405.3765728001017,405.3765728001017,0.22530994983389974,1.4438103737982566,405.5987247999292,405.3765728001017,[-0.8839318999089301],,,,,,,,klxufm,001,fr,0,2022-05-09_17h25.11.568,Continuous,2022.1.1,35.54447198847977,
11,0,11,0,2,0,2,0,,,,,,,,1.2185004239643569,time,236.0,0.16168573232487837,0.00019857358824414348,0,70,['frequency'],0.020206650020554662,0.20827115001156926,['space'],406.82346109999344,406.82346109999344,0.20827115001156926,1.4267715739759261,407.02064909995534,406.82346109999344,[-1.0651466001290828],,,,,,,,klxufm,001,fr,0,2022-05-09_17h25.11.568,Continuous,2022.1.1,35.54447198847977,
11,0,11,0,3,0,3,0,,,,,,,,1.2185004239643569,time,158.0,-0.5581677661754219,0.0004022304576645243,0,71,['frequency'],0.016233850037679076,0.20093224989250302,['space'],408.2458258001134,408.2458258001134,0.20093224989250302,1.41943267385686,408.4511152000632,408.2458258001134,[-1.0653097999747843],,,,,,,,klxufm,001,fr,0,2022-05-09_17h25.11.568,Continuous,2022.1.1,35.54447198847977,
11,0,11,0,4,0,4,0,,,,,,,,1.2185004239643569,time,397.0,5.238850224493058,0.000141354127026597,0,72,['frequency'],0.01883114967495203,None,['space'],409.6751194000244,409.6751194000244,0.23254354973323643,1.4510439736975933,409.89615650009364,409.6751194000244,[-1.1026661000214517],,,,,,,,klxufm,001,fr,0,2022-05-09_17h25.11.568,Continuous,2022.1.1,35.54447198847977,
11,0,11,0,5,0,5,0,,,,,,,,1.2185004239643569,time,354.0,8.0,0.00022229287221640665,0,73,['frequency'],0.016300749965012074,None,['space'],411.11646139994264,411.11646139994264,0.22436624998226762,1.4428666739466245,411.3361293000635,411.11646139994264,[-1.1514882000628859],,,,,,,,klxufm,001,fr,0,2022-05-09_17h25.11.568,Continuous,2022.1.1,35.54447198847977,
11,0,11,0,6,0,6,0,,,,,,,,1.2185004239643569,time,1190.0,2.2721303192172733,6.754706689776436e-05,0,74,['frequency'],0.02020545001141727,None,['space'],412.56122380006127,412.56122380006127,0.232390149962157,1.4508905739265139,412.77762589999475,412.56122380006127,[-1.1879534998442978],,,,,,,,klxufm,001,fr,0,2022-05-09_17h25.11.568,Continuous,2022.1.1,35.54447198847977,
11,0,11,0,7,0,7,0,,,,,,,,1.2185004239643569,time,630.0,4.0926404305418504,8.196001436799146e-05,0,75,['frequency'],0.017322950065135956,None,['space'],414.00040449993685,414.00040449993685,0.22993474989198148,1.4484351738563384,414.22501130006276,414.00040449993685,[-1.123522800160572],,,,,,,,klxufm,001,fr,0,2022-05-09_17h25.11.568,Continuous,2022.1.1,35.54447198847977,
11,0,11,0,8,0,8,0,,,,,,,,1.2185004239643569,time,1060.0,3.87194879494856,7.271595785410363e-05,0,76,['frequency'],0.019765150034800172,None,['space'],415.44915500003844,415.44915500003844,0.23692304990254343,1.4554234738669003,415.6661108999979,415.44915500003844,[-1.115978900110349],,,,,,,,klxufm,001,fr,0,2022-05-09_17h25.11.568,Continuous,2022.1.1,35.54447198847977,
11,0,11,0,9,0,9,0,,,,,,,,1.2185004239643569,time,,,,1,76,['frequency'],0.01575345010496676,None,['space'],416.88826430006884,416.88826430006884,0.22159645007923245,1.4400968740435893,417.1014201999642,416.88826430006884,[-1.1638544001616538],,,,,,,,klxufm,001,fr,0,2022-05-09_17h25.11.568,Continuous,2022.1.1,35.54447198847977,
12,0,12,0,0,0,0,0,,,,,,421.19980260008015,None,2.6954706226730063,none,176.0,-3.081727379961977,0.00024745906270407376,0,26,['frequency'],0.029226050013676286,None,None,422.2267331001349,None,0.23379345005378127,2.9292640727267876,422.4384854999371,None,,418.3276516001206,None,"[0.16666666666666666, 0.16666666666666666, 0.3333333333333333, 0.3333333333333333, 0.16666666666666666, 0.16666666666666666, 0.3333333333333333, 0.16666666666666666, 0.3333333333333333, 0.16666666666666666, 0.3333333333333333, 0.3333333333333333, 0.3333333333333333, 0.16666666666666666, 0.5833333333333334]",,,,,klxufm,001,fr,0,2022-05-09_17h25.11.568,Continuous,2022.1.1,35.54447198847977,
12,0,12,0,1,0,1,0,,,,,,,,1.5600770352239672,none,354.0,-2.0,7.02951783824607e-05,0,27,['frequency'],0.011118649737909436,None,['space'],425.13867820007727,425.13867820007727,0.21360514988191426,1.7736821851058815,425.369366500061,425.13867820007727,[-1.92483099992387],,,,,,,,klxufm,001,fr,0,2022-05-09_17h25.11.568,Continuous,2022.1.1,35.54447198847977,
12,0,12,0,2,0,2,0,,,,,,,,1.308041897220764,none,891.0,-1.6209360589257924,3.398242968610195e-05,0,28,['frequency'],0.015234949998557568,None,['space'],426.93154170014895,426.93154170014895,0.2217789499554783,1.5298208471762422,427.1511673000641,426.93154170014895,[-0.8866485999897122],,,,,,,,klxufm,001,fr,0,2022-05-09_17h25.11.568,Continuous,2022.1.1,35.54447198847977,
12,0,12,0,3,0,3,0,,,,,,,,2.557933637692526,none,157.0,-2.0,0.00034778055070299667,0,29,['frequency'],0.015273950062692165,None,None,428.46522550005466,428.46522550005466,0.22219605022110045,2.7801296879136266,428.6860557999462,428.46522550005466,,,,,,,,,klxufm,001,fr,0,2022-05-09_17h25.11.568,Continuous,2022.1.1,35.54447198847977,
12,0,12,0,4,0,4,0,,,,,,,,1.835811340507373,none,,,,1,29,['frequency'],0.020327250007539988,None,['space'],431.24715370009653,431.24715370009653,0.2350621500518173,2.0708734905591903,431.46791400015354,431.24715370009653,[-2.3213932998478413],,,,,,,,klxufm,001,fr,0,2022-05-09_17h25.11.568,Continuous,2022.1.1,35.54447198847977,
12,0,12,0,5,0,5,0,,,,,,,,2.2566046799809625,none,125.0,0.38314921733185026,0.0007553138793638764,0,30,['frequency'],0.020524349762126803,0.2194919497705996,None,433.299242899986,433.299242899986,0.2194919497705996,2.476096629751562,433.50768609996885,433.299242899986,,,,,,,,,klxufm,001,fr,0,2022-05-09_17h25.11.568,Continuous,2022.1.1,35.54447198847977,
12,0,12,0,6,0,6,0,,,,,,,,2.9624180462437817,none,281.0,-3.9782071554428957,8.516616765262646e-05,0,31,['frequency'],0.017882249783724546,None,['space'],435.7691041000653,435.7691041000653,0.2171932498458773,3.179611296089659,435.9863331001252,435.7691041000653,[-1.9470710000023246],,,,,,,,klxufm,001,fr,0,2022-05-09_17h25.11.568,Continuous,2022.1.1,35.54447198847977,
12,0,12,0,7,0,7,0,,,,,,,,1.9213172711826323,none,630.0,-1.735814309984978,4.189664904370027e-05,0,32,['frequency'],0.016549750231206417,0.21025425009429455,None,438.9564841000829,438.9564841000829,0.21025425009429455,2.1315715212769266,439.1658111999277,438.9564841000829,,,,,,,,,klxufm,001,fr,0,2022-05-09_17h25.11.568,Continuous,2022.1.1,35.54447198847977,
12,0,12,0,8,0,8,0,,,,,,,,2.8681655243552586,none,500.0,-1.9847413084670578,5.685032331422525e-05,0,33,['frequency'],0.015192049788311124,None,['space'],441.09592350013554,441.09592350013554,0.21629044995643198,3.0844559743116906,441.30965810013004,441.09592350013554,[-0.9383115000091493],,,,,,,,klxufm,001,fr,0,2022-05-09_17h25.11.568,Continuous,2022.1.1,35.54447198847977,
12,0,12,0,9,0,9,0,,,,,,,,1.0796146900944634,none,397.0,-1.1551460481103768,6.770311941125214e-05,0,34,['frequency'],0.016654749866575003,None,None,444.18120490014553,444.18120490014553,0.21137394988909364,1.290988639983557,444.39947489998303,444.18120490014553,,,,,,,,,klxufm,001,fr,0,2022-05-09_17h25.11.568,Continuous,2022.1.1,35.54447198847977,
12,0,12,0,10,0,10,0,,,,,,,,2.1816144524281604,none,794.0,-0.29121334735743487,3.7366845641733756e-05,0,35,['frequency'],0.016641449881717563,0.21050864993594587,None,445.4863261000719,445.4863261000719,0.21050864993594587,2.3921231023641063,445.70191540010273,445.4863261000719,,,,,,,,,klxufm,001,fr,0,2022-05-09_17h25.11.568,Continuous,2022.1.1,35.54447198847977,
12,0,12,0,11,0,11,0,,,,,,,,2.274963198677736,none,250.0,-3.1264564117051377,0.00011685496878857547,0,36,['frequency'],0.016816250048577785,0.21008675009943545,None,447.88695750012994,447.88695750012994,0.21008675009943545,2.4850499487771716,448.1022493999917,447.88695750012994,,,,,,,,,klxufm,001,fr,0,2022-05-09_17h25.11.568,Continuous,2022.1.1,35.54447198847977,
12,0,12,0,12,0,12,0,,,,,,,,1.1943556687884476,none,1335.0,-1.8075776759846178,4.255432705673076e-05,0,37,['frequency'],0.01990704983472824,None,['space'],450.3838180999737,450.3838180999737,0.22212934982962906,1.4164850186180766,450.59373800014146,450.3838180999737,[-1.9864565001334995],,,,,,,,klxufm,001,fr,0,2022-05-09_17h25.11.568,Continuous,2022.1.1,35.54447198847977,
13,0,13,0,0,0,0,0,,,,,,454.73683690000325,None,2.015290739497811,none,2928.0,-2.9437454704112005,4.2252682826911734e-05,0,38,['frequency'],0.029386349953711033,None,None,455.74304249999113,None,0.2382623499725014,2.253553089470312,455.96440199995413,None,,451.79840840003453,None,"[0.16666666666666666, 0.16666666666666666, 0.16666666666666666, 0.3333333333333333, 0.3333333333333333, 0.5833333333333334, 0.5833333333333334, 0.16666666666666666, 0.5833333333333334, 0.5833333333333334, 0.3333333333333333, 0.3333333333333333, 0.5833333333333334, 0.3333333333333333, 0.3333333333333333]",,,,,klxufm,001,fr,0,2022-05-09_17h25.11.568,Continuous,2022.1.1,35.54447198847977,
13,0,13,0,1,0,1,0,,,,,,,,1.163081139025017,none,,,,1,38,['frequency'],0.014588349964469671,None,None,457.9787981000263,457.9787981000263,0.2160408499184996,1.3791219889435167,458.1974363999907,457.9787981000263,,,,,,,,,klxufm,001,fr,0,2022-05-09_17h25.11.568,Continuous,2022.1.1,35.54447198847977,
13,0,13,0,2,0,2,0,,,,,,,,1.9501354338024701,none,651.0,-0.9177506522526175,4.437750257971048e-05,0,39,['frequency'],0.017532049911096692,None,None,459.363130700076,459.363130700076,0.21261784993112087,2.1627532837335908,459.58081359998323,459.363130700076,,,,,,,,,klxufm,001,fr,0,2022-05-09_17h25.11.568,Continuous,2022.1.1,35.54447198847977,
13,0,13,0,3,0,3,0,,,,,,,,2.199641247275713,none,1304.0,0.6044910094157563,5.700062597077702e-05,0,40,['frequency'],0.015866749919950962,0.210417449939996,['space'],461.5325915000867,461.5325915000867,0.210417449939996,2.410058697215709,461.7464191999752,461.5325915000867,[-1.5505407999735326],,,,,,,,klxufm,001,fr,0,2022-05-09_17h25.11.568,Continuous,2022.1.1,35.54447198847977,
13,0,13,0,4,0,4,0,,,,,,,,1.6006045719379782,none,3287.0,-2.020303838322497,5.660173437558713e-05,0,41,['frequency'],0.016365150222554803,0.21141045005060732,['space'],463.95213420013897,463.95213420013897,0.21141045005060732,1.8120150219885856,464.16954430006444,463.95213420013897,[-1.7786755999550223],,,,,,,,klxufm,001,fr,0,2022-05-09_17h25.11.568,Continuous,2022.1.1,35.54447198847977,
13,0,13,0,5,0,5,0,,,,,,,,1.4703944960181035,none,7379.0,-3.487129992864622,0.00010891086138274723,0,42,['frequency'],0.014989749994128942,0.2097519498784095,['space'],465.77622490003705,465.77622490003705,0.2097519498784095,1.680146445896513,465.9897316999268,465.77622490003705,[-0.5789938000962138],,,,,,,,klxufm,001,fr,0,2022-05-09_17h25.11.568,Continuous,2022.1.1,35.54447198847977,
13,0,13,0,6,0,6,0,,,,,,,,2.3450800770372826,none,1954.0,-3.63917395527615,4.7839121166414034e-05,0,43,['frequency'],0.019456350011751056,None,['space'],467.4684770000167,467.4684770000167,0.22463175002485514,2.5697118270621377,467.6799678001553,467.4684770000167,[-1.1029711000155658],,,,,,,,klxufm,001,fr,0,2022-05-09_17h25.11.568,Continuous,2022.1.1,35.54447198847977,
13,0,13,0,7,0,7,0,,,,,,,,2.403961644892534,none,4925.0,-1.0,0.0001315358192089576,0,44,['frequency'],0.015390950022265315,0.2099527500104159,None,470.02510150009766,470.02510150009766,0.2099527500104159,2.6139143949029497,470.2428820000496,470.02510150009766,,,,,,,,,klxufm,001,fr,0,2022-05-09_17h25.11.568,Continuous,2022.1.1,35.54447198847977,
13,0,13,0,8,0,8,0,,,,,,,,1.1693872100951805,none,1035.0,-0.011084809704856369,4.545834265742063e-05,0,45,['frequency'],0.016322749899700284,0.20944884978234768,['space'],472.64578570006415,472.64578570006415,0.20944884978234768,1.3788360598775282,472.8621851000935,472.64578570006415,[-2.1681368998251855],,,,,,,,klxufm,001,fr,0,2022-05-09_17h25.11.568,Continuous,2022.1.1,35.54447198847977,
13,0,13,0,9,0,9,0,,,,,,,,2.5083166706387447,none,821.0,-0.9039018236916567,3.511388198826352e-05,0,46,['frequency'],0.0159274498000741,None,['space'],474.03168090013787,474.03168090013787,0.21275464980863035,2.721071320447375,474.24402590002865,474.03168090013787,[-0.9136574000585824],,,,,,,,klxufm,001,fr,0,2022-05-09_17h25.11.568,Continuous,2022.1.1,35.54447198847977,
14,0,14,0,0,0,0,0,,,,,,481.2949634999968,None,1.369914024702651,time,1782.0,-3.4014466036821345,4.391671838890411e-05,0,77,['frequency'],0.029287549667060375,None,None,482.31794530013576,None,0.22656724974513054,1.5964812744477814,482.5252096999902,None,,476.76361429993995,None,"[0.16666666666666666, 0.3333333333333333, 0.16666666666666666, 0.5833333333333334, 0.16666666666666666, 0.3333333333333333, 0.16666666666666666, 0.5833333333333334, 0.5833333333333334, 0.3333333333333333, 0.16666666666666666, 0.5833333333333334, 0.3333333333333333, 0.5833333333333334, 0.5833333333333334]",,,,,klxufm,001,fr,0,2022-05-09_17h25.11.568,Continuous,2022.1.1,35.54447198847977,
14,0,14,0,1,0,1,0,,,,,,,,1.369914024702651,time,,,,1,77,['frequency'],0.019109449815005064,None,['space'],483.9024698000867,483.9024698000867,0.22103765001520514,1.590951674717856,484.1185542999301,483.9024698000867,[0.09576730011031032],,,,,,,,klxufm,001,fr,0,2022-05-09_17h25.11.568,Continuous,2022.1.1,35.54447198847977,
14,0,14,0,2,0,2,0,,,,,,,,1.369914024702651,time,1260.0,-0.2659013665890315,5.262503333593688e-05,0,78,['frequency'],0.016210350207984447,None,None,485.48960159998387,485.48960159998387,0.21153405006043613,1.581448074763087,485.7079779000487,485.48960159998387,,,,,,,,,klxufm,001,fr,0,2022-05-09_17h25.11.568,Continuous,2022.1.1,35.54447198847977,
14,0,14,0,3,0,3,0,,,,,,,,1.369914024702651,time,5657.0,-2.3883016375430692,9.762250076743758e-05,0,79,['frequency'],0.015714149922132492,None,None,487.0800751000643,487.0800751000643,0.21163644990883768,1.5815504746114886,487.29817109997384,487.0800751000643,,,,,,,,,klxufm,001,fr,0,2022-05-09_17h25.11.568,Continuous,2022.1.1,35.54447198847977,
14,0,14,0,4,0,4,0,,,,,,,,1.369914024702651,time,1123.0,-0.22972223904567324,4.7913080780764876e-05,0,80,['frequency'],0.018396549858152866,None,None,488.674878800055,488.674878800055,0.21761534991674125,1.5875293746193921,488.8811125000939,488.674878800055,,,,,,,,,klxufm,001,fr,0,2022-05-09_17h25.11.568,Continuous,2022.1.1,35.54447198847977,
14,0,14,0,5,0,5,0,,,,,,,,1.369914024702651,time,2670.0,-1.589837464584316,6.273103761570232e-05,0,81,['frequency'],0.01660604984499514,None,['space'],490.259662500117,490.259662500117,0.21503514982759953,1.5849491745302504,490.47549930005334,490.259662500117,[-1.1748208000790328],,,,,,,,klxufm,001,fr,0,2022-05-09_17h25.11.568,Continuous,2022.1.1,35.54447198847977,
14,0,14,0,6,0,6,0,,,,,,,,1.369914024702651,time,668.0,0.013799647432037432,4.790838075511864e-05,0,82,['frequency'],0.015897250035777688,None,None,491.85096499999054,491.85096499999054,0.2089706500992179,1.5788846748018688,492.065566000063,491.85096499999054,,,,,,,,,klxufm,001,fr,0,2022-05-09_17h25.11.568,Continuous,2022.1.1,35.54447198847977,
14,0,14,0,7,0,7,0,,,,,,,,1.369914024702651,time,530.0,-0.26457375818506423,6.476168321890155e-05,0,83,['frequency'],0.011489950120449066,0.20011845021508634,['space'],493.4430013000965,493.4430013000965,0.20011845021508634,1.5700324749177372,493.653188199969,493.4430013000965,[-0.9018879998475313],,,,,,,,klxufm,001,fr,0,2022-05-09_17h25.11.568,Continuous,2022.1.1,35.54447198847977,
14,0,14,0,8,0,8,0,,,,,,,,1.369914024702651,time,4000.0,-1.0,7.481178280472168e-05,0,84,['frequency'],0.01720515009947121,None,['space'],495.0313397999853,495.0313397999853,0.2175601499620825,1.5874741746647334,495.2469810000621,495.0313397999853,[-1.1296302999835461],,,,,,,,klxufm,001,fr,0,2022-05-09_17h25.11.568,Continuous,2022.1.1,35.54447198847977,
14,0,14,0,9,0,9,0,,,,,,,,1.369914024702651,time,5040.0,-4.937171733337099,8.568348043063627e-05,0,85,"['frequency', 'time']",0.014358749845996499,None,['space'],496.6188503000885,496.6188503000885,0.20917104999534786,1.5790850746979987,496.8345916001126,496.6188503000885,[-1.1490875999443233],,,,,"{'estimation': [[125.0, 4.541701881665295], [126.49201621823435, 4.0], [129.2834734162374, 3.0], [132.2453416291122, 2.0], [133.9716828170366, 1.4619149591916865], [135.27263239285259, 1.0], [138.04109937540755, 0.0], [140.8624773332985, -1.0], [143.5872943746293, -1.9017653683552442], [143.90428601006505, -2.0], [147.05884374246682, -3.0], [150.18472035248044, -4.0], [153.45684621325861, -5.000000000000001], [153.89305166811442, -5.128019722400404], [157.48830304005548, -6.0], [161.58205675833764, -7.0], [164.93848884661162, -7.791181707185968], [166.33488956162665, -8.0], [173.0086788781325, -9.0], [176.77669529663666, -9.553004493650981], [185.23080680620032, -10.0], [189.46457081379947, -10.220246739760587], [196.19176672572988, -10.0], [203.0630990890585, -9.786015532746957], [211.24674562741959, -9.0], [217.6376408240306, -8.422337068282724], [220.797051334811, -8.0], [228.53084717289434, -7.0], [233.25824788420132, -6.425956785630802], [236.30108039877848, -6.0], [243.54983770331515, -5.0], [249.99999999999937, -4.158620336415188], [251.2783470312474, -4.0], [259.3327036721258, -3.0], [267.66579722590757, -2.0], [267.94336563407256, -1.9677078196048068], [277.9790699050595, -1.0], [287.1745887492579, -0.1312437980414319], [289.2099703220414, 0.0], [304.88608348006704, 1.0], [307.78610333622805, 1.1814143665714194], [329.87697769322244, 1.9059953946331578], [342.4475672988033, 2.0], [353.55339059327247, 2.0803100624156485], [360.6688576132462, 2.0], [378.929141627598, 1.8034326033173889], [406.12619817811606, 1.2181923023290293], [414.44308055283096, 1.0], [435.2752816480601, 0.475528709352917], [454.8393460972189, 0.0], [466.5164957684015, -0.27314085699483553], [499.9999999999975, -0.8914628336273653], [509.9338319900589, -1.0], [535.8867312681438, -1.2724003259699614], [574.3491774985143, -1.3353635536692137], [615.5722066724546, -1.0465653012587592], [618.7503984468311, -1.0], [659.7539553864432, -0.4238561767853356], [681.9134191032377, 0.0], [707.1067811865431, 0.4628420394491788], [732.9711900642344, 1.0], [757.8582832551941, 1.4948208322784877], [783.8739440919284, 2.0], [812.2523963562301, 2.526560942039333], [842.8219172459917, 3.0], [870.5505632961181, 3.411220841453772], [930.3381873726821, 4.0], [933.0329915368008, 4.025671784996702], [999.9999999999926, 4.298470054640115], [1071.773462536285, 4.201964096331567], [1106.3116858380904, 4.0], [1148.698354997026, 3.7595714545422796], [1231.1444133449063, 3.0293295522389205], [1233.8353170669973, 3.0], [1319.5079107728832, 2.088958317041708], [1327.2784038097102, 2.0], [1414.2135623730828, 1.0314196890668115], [1417.1117517183995, 1.0], [1512.278691512179, 0.0], [1515.7165665103846, -0.034990058743431314], [1624.5047927124563, -0.9933839633500983], [1625.5221426061914, -1.0], [1741.1011265922318, -1.7309047710384], [1818.7240737641632, -2.0], [1866.065983073597, -2.1624110556055887], [1999.9999999999777, -2.247973400874989], [2143.5469250725646, -2.018076191370438], [2149.576680707939, -2.0], [2297.396709994046, -1.565019387854088], [2462.2888266898062, -1.0247811394682307], [2470.652957203655, -1.0], [2639.01582154576, -0.5295597115267107], [2828.427124746159, -0.1838207116654036], [3031.4331330207615, -0.029621487753327135], [3249.0095854249043, -0.05845925576613614], [3482.2022531844555, -0.2302496791333117], [3732.1319661471844, -0.5034309335106475], [3999.9999999999504, -0.8582497499417436], [4089.7972515754336, -1.0], [4287.093850145118, -1.2991592964578622], [4594.793419988076, -1.8374066882726634], [4674.022263576244, -2.0], [4924.577653379601, -2.474440879233634], [5184.090447865698, -3.0000000000000004], [5278.031643091506, -3.1759179152860644], [5656.854249492303, -3.870713909004012], [5741.261447681796, -4.0], [6062.866266041508, -4.469301620616256], [6498.019170849792, -4.8804719614909615], [6833.910005967001, -5.0], [6964.404506368894, -5.044835859990888], [7181.653496560004, -5.0], [7464.2639322943505, -4.943203557710204], [7999.999999999882, -4.605449240808419]], 'plus_line': [[125.0, -1.5469107290969892], [126.31848971343156, -2.0], [129.3312005658412, -3.0], [132.79707750710543, -4.0], [133.9716828170366, -4.309253321515631], [135.79403238353888, -5.0], [138.46204564255328, -6.0], [141.41803180241075, -7.000000000000001], [143.5872943746293, -7.652834240130007], [144.59229027285022, -8.0], [147.40460097488497, -9.0], [150.39701801740796, -10.0], [153.80571392739387, -11.0], [153.8930516681143, -11.024730195069196], [157.37818133452893, -12.0], [161.12639987871228, -13.0], [164.93848884661162, -13.91684812540995], [165.42710080923987, -14.0], [171.23704417844817, -15.0], [176.77669529663666, -15.881169168676006], [178.75969533939008, -16.0], [189.46457081379947, -16.640997500231656], [203.0630990890585, -16.119838412120025], [204.11262832675033, -16.0], [213.19215926428976, -15.0], [217.6376408240306, -14.52886751383733], [221.2552310194741, -14.0], [228.04755100059526, -13.0], [233.25824788420132, -12.249624156949965], [234.9770041129137, -12.0], [241.80208830136735, -11.0], [248.46701119158868, -10.0], [249.99999999999937, -9.781881752373426], [256.43483174817027, -9.0], [264.3072978474034, -8.0], [267.94336563407256, -7.548027411830976], [274.00049223992676, -7.000000000000001], [284.7143643202391, -6.0], [287.1745887492579, -5.7742848912672535], [300.2393252287938, -5.0], [307.78610333622805, -4.554769324041632], [325.49240823075473, -4.0], [329.87697769322244, -3.8692393556819455], [353.55339059327247, -3.698246868566168], [378.929141627598, -3.951692416470983], [381.15798963792315, -4.0], [406.12619817811606, -4.542208851657026], [423.97793818805917, -5.0], [435.2752816480596, -5.2883191962288345], [465.42860470373563, -6.0], [466.5164957684015, -6.025572677523151], [499.9999999999975, -6.634629121607386], [535.8867312681438, -6.975931725140848], [564.8343523865027, -7.0], [574.3491774985143, -7.008293155313024], [575.3345612886412, -7.0], [615.5722066724546, -6.696480263211023], [659.7539553864432, -6.019862671213933], [660.6863971741861, -5.999999999999999], [707.1067811865423, -5.067604330300042], [710.0258330676146, -4.999999999999999], [755.2907743539935, -4.0], [757.8582832551941, -3.946131836367423], [803.3358133081182, -3.0], [812.2523963562301, -2.823509258124454], [861.4322023840854, -2.0], [870.5505632961192, -1.85590865693707], [933.0329915368008, -1.1894848846195958], [975.4111951068335, -1.0], [999.9999999999926, -0.9004595580193709], [1057.8720975146894, -1.0], [1071.773462536285, -1.0251509613337428], [1148.698354997026, -1.5463280268835722], [1194.1611520817462, -2.0], [1231.1444133449063, -2.3701106315621185], [1284.7580992002238, -3.0], [1319.5079107728832, -3.4015976878663685], [1369.4285391069739, -4.0], [1414.2135623730828, -4.520981041946741], [1457.8148472855926, -5.0], [1515.7165665103846, -5.614556453313945], [1557.812410497927, -6.0], [1624.5047927124563, -6.594144080368755], [1683.4913430948682, -7.0], [1741.1011265922318, -7.394065781828403], [1866.065983073597, -7.951130613153745], [1890.2154650155471, -8.0], [1999.9999999999802, -8.234147523834267], [2143.5469250725646, -8.179563381241884], [2215.168696085681, -8.0], [2297.396709994046, -7.808479600904801], [2462.2888266898062, -7.215536846409538], [2517.5344081417556, -7.0], [2639.01582154576, -6.566765794109994], [2828.427124746162, -6.052347094375372], [2878.5763385209834, -6.0], [3031.4331330207615, -5.85638632444544], [3231.9440146671163, -6.0], [3249.0095854249043, -6.013009701669953], [3482.2022531844555, -6.451371170569496], [3732.1319661471844, -6.977174477555667], [3744.317593015965, -7.0], [3999.999999999946, -7.490687395077132], [4287.093850145118, -7.902263293194915], [4370.35709039549, -8.0], [4594.793419988081, -8.259306808207107], [4924.577653379601, -8.615112552867886], [5248.3043265488695, -9.0], [5278.031643091506, -9.034325086163022], [5656.854249492303, -9.56331331463063], [5989.211668764155, -10.0], [6062.866266041508, -10.0967094953892], [6498.019170849792, -10.517163813091305], [6964.4045063688845, -10.685289646127147], [7464.2639322943505, -10.63968700725329], [7999.999999999882, -10.584113198008726]], 'minus_line': [[125.0, 10.909288105341863], [127.37870753461686, 10.0], [129.84273154279686, 9.0], [132.2833053557698, 8.0], [133.9716828170366, 7.348903300312263], [134.9900172651399, 7.0], [137.77461070777122, 6.0], [140.36646378016246, 5.0], [142.96178175265845, 4.0], [143.5872943746293, 3.7755190230363143], [146.2477393314867, 3.0], [149.39742044722013, 2.0], [152.41810895033012, 1.0], [153.89305166811442, 0.5325794807391236], [156.30773637399457, 0.0], [160.59025489848148, -1.0], [164.71174794846317, -2.0], [164.93848884661162, -2.0527163894286673], [171.88049942268526, -3.0], [176.77669529663666, -3.685943881208113], [183.32233363646026, -4.0], [189.46457081379947, -4.279553632392506], [198.89260190043188, -4.0], [203.0630990890585, -3.8748468057813263], [213.0687650550603, -3.0], [217.6376408240306, -2.6264246836932443], [222.58298297467894, -2.0], [231.15517060125518, -1.0], [233.25824788420132, -0.7701103742443816], [238.69700893999942, 0.0], [246.29788089068023, 1.0], [249.99999999999937, 1.4483832469004962], [254.14029925553533, 2.0], [261.8767675660701, 3.0], [267.94336563407256, 3.714715842157797], [270.61156317975934, 4.0], [280.0162940794549, 5.0], [287.1745887492579, 5.7047344022604465], [291.30470371785594, 6.000000000000001], [305.70823973738, 7.0], [307.78610333622805, 7.140200674837381], [329.87697769322244, 7.902152839355392], [348.26392933119314, 8.0], [353.55339059327247, 8.029074257656134], [355.45469784874615, 8.0], [378.929141627598, 7.679642140191186], [406.12619817811606, 7.007942225012319], [406.39687812478445, 7.0], [435.2752816480601, 6.211147684548269], [443.1052110970241, 6.0], [466.5164957684015, 5.410089597824316], [486.25252543475375, 5.0], [499.9999999999975, 4.734871089251436], [535.8867312681438, 4.3166751135147905], [574.3491774985143, 4.235632129691473], [615.5722066724546, 4.531925855805218], [648.3819041793406, 5.0], [659.7539553864432, 5.163544535424973], [704.3443681366496, 6.0], [707.1067811865431, 6.051057551400238], [754.0381981391328, 7.0], [757.8582832551941, 7.07491428606783], [807.4619855832871, 8.0], [812.2523963562301, 8.08654986383109], [870.5505632961181, 8.94551844022788], [876.148719000146, 8.999999999999998], [933.0329915368008, 9.553982955455147], [999.9999999999926, 9.817737814460113], [1071.773462536285, 9.741645015702218], [1148.698354997026, 9.342075987840072], [1188.9545814966432, 9.0], [1231.1444133449063, 8.662499647316217], [1295.5956056730786, 8.0], [1319.5079107728832, 7.763739278571128], [1388.6102806886959, 7.0], [1414.2135623730828, 6.725856655735026], [1482.250677867573, 5.999999999999999], [1515.7165665103846, 5.6544068617835155], [1588.9842676520848, 5.0], [1624.5047927124563, 4.6951266410089225], [1741.1011265922318, 4.0070380839326045], [1744.1311394887116, 4.0], [1866.065983073597, 3.7372453490282465], [1999.9999999999802, 3.8741230549764363], [2040.8966946570895, 4.0], [2143.5469250725646, 4.331622713429963], [2297.396709994046, 4.904658948921998], [2327.240099945959, 5.0], [2462.2888266898062, 5.4321599834640075], [2639.01582154576, 5.776642613866791], [2828.427124746162, 5.942366419368044], [2994.6779477260243, 6.0], [3031.4331330207615, 6.013140832357642], [3249.0095854249043, 6.067056604855733], [3482.2022531844555, 6.101418162510511], [3732.1319661471844, 6.044973603633645], [3781.9120952671487, 6.0], [3999.9999999999554, 5.817952166896167], [4287.093850145118, 5.351009905152548], [4430.516852784772, 5.0], [4594.793419988076, 4.630221220007963], [4817.247788185369, 4.0], [4924.577653379601, 3.7204184790782513], [5182.471186229503, 3.0], [5278.031643091513, 2.7537574279585857], [5601.874980045222, 2.0], [5656.854249492297, 1.8812173792156435], [6062.866266041516, 1.2222426675019327], [6280.810311925987, 1.0], [6498.019170849792, 0.7974773202147641], [6964.4045063688845, 0.6247661789339183], [7464.2639322943505, 0.7576116818689353], [7685.303850365192, 1.0], [7999.999999999882, 1.3600413637730522]]}",,,klxufm,001,fr,0,2022-05-09_17h25.11.568,Continuous,2022.1.1,35.54447198847977,
14,0,14,0,10,0,10,0,,,,,,,,1.369914024702651,time,1588.0,-1.3661117198683328,4.762514361470698e-05,0,86,"['frequency', 'time']",0.017303949920460582,None,['space'],498.21740190009587,498.21740190009587,0.22034795000217855,1.5902619747048294,498.42075700010173,498.21740190009587,[-1.276203699875623],,,,,,,,klxufm,001,fr,0,2022-05-09_17h25.11.568,Continuous,2022.1.1,35.54447198847977,
15,0,15,0,0,0,0,0,,,,,,502.90251830010675,None,2.9068526765047684,none,140.0,3.583409557144403,0.000890054782634284,0,47,"['frequency', 'time']",0.029177549993619323,None,None,503.9257737000007,None,0.23944345000199974,3.146296126506768,504.13816570001654,None,,499.8026179999579,None,"[0.3333333333333333, 0.16666666666666666, 0.3333333333333333, 0.16666666666666666, 0.16666666666666666, 0.3333333333333333, 0.16666666666666666, 0.3333333333333333, 0.3333333333333333, 0.5833333333333334, 0.16666666666666666, 0.5833333333333334, 0.5833333333333334, 0.16666666666666666, 0.3333333333333333]",,,,,klxufm,001,fr,0,2022-05-09_17h25.11.568,Continuous,2022.1.1,35.54447198847977,
15,0,15,0,1,0,1,0,,,,,,,,2.5490665288230896,none,177.0,5.0,0.000620988873867065,0,48,"['frequency', 'time']",0.013409949839115143,None,['space'],507.04718200000934,507.04718200000934,0.2089022498112172,2.757968778634307,507.2621421001386,507.04718200000934,[-2.7131423999089748],,,,,,,,klxufm,001,fr,0,2022-05-09_17h25.11.568,Continuous,2022.1.1,35.54447198847977,
15,0,15,0,2,0,2,0,,,,,,,,1.9294885046776005,none,445.0,1.9486436376962222,9.293044075995603e-05,0,49,"['frequency', 'time']",0.014192149741575122,0.21142074977979064,['space'],509.82175530004315,509.82175530004315,0.21142074977979064,2.140909254457391,510.03396959998645,509.82175530004315,[-2.2558824999723583],,,,,,,,klxufm,001,fr,0,2022-05-09_17h25.11.568,Continuous,2022.1.1,35.54447198847977,
15,0,15,0,3,0,3,0,,,,,,,,1.7249811248958518,none,297.0,1.2511699697808831,0.00013592517465989368,0,50,"['frequency', 'time']",0.0025086498353630304,0.18709234986454248,['space'],511.980053300038,511.980053300038,0.18709234986454248,1.9120734747603942,512.1873813001439,511.980053300038,[-1.7435928001068532],,,,,,,,klxufm,001,fr,0,2022-05-09_17h25.11.568,Continuous,2022.1.1,35.54447198847977,
15,0,15,0,4,0,4,0,,,,,,,,2.4816253074934576,none,944.0,2.172511906517858,5.452729769859483e-05,0,51,"['frequency', 'time']",0.016312449937686324,None,['space'],513.9187120001297,513.9187120001297,0.21748075005598366,2.699106057549441,514.1393321000505,513.9187120001297,[-1.3291856998112053],,,,,,,,klxufm,001,fr,0,2022-05-09_17h25.11.568,Continuous,2022.1.1,35.54447198847977,
15,0,15,0,5,0,5,0,,,,,,,,2.3447958399891844,none,749.0,4.793912849455401,7.072968429538989e-05,0,52,"['frequency', 'time']",0.013705450110137463,0.2103651501238346,['space'],516.62199470005,516.62199470005,0.2103651501238346,2.555160990113019,516.8368061000947,516.62199470005,[-2.160157699836418],,,,,,,,klxufm,001,fr,0,2022-05-09_17h25.11.568,Continuous,2022.1.1,35.54447198847977,
15,0,15,0,6,0,6,0,,,,,,,,1.9525847878614015,none,,,,1,52,"['frequency', 'time']",0.014399149920791388,0.21030224999412894,['space'],519.181982900016,519.181982900016,0.21030224999412894,2.1628870378555307,519.3951449999586,519.181982900016,[-2.1119536000769585],,,,,,,,klxufm,001,fr,0,2022-05-09_17h25.11.568,Continuous,2022.1.1,35.54447198847977,
15,0,15,0,7,0,7,0,,,,,,,,2.3849916683294907,none,667.0,1.756031556597588,5.865682699949358e-05,0,53,"['frequency', 'time']",0.01502435002475977,None,None,521.3505901999306,521.3505901999306,0.21310864994302392,2.5981003182725146,521.5695533000398,521.3505901999306,,,,,,,,,klxufm,001,fr,0,2022-05-09_17h25.11.568,Continuous,2022.1.1,35.54447198847977,
16,0,16,0,0,0,0,0,,,,,0.3333333333333333,526.7680884001311,None,2.5814960569338883,both,6205.0,-6.848606702061907,5.705847937121521e-05,0,40,"['frequency', 'time']",0.02933204988949001,None,None,527.7807599999942,None,0.23355704988352954,2.815053106817418,528.0002773001324,None,,523.9621971000452,None,,,,,,klxufm,001,fr,0,2022-05-09_17h25.11.568,Continuous,2022.1.1,35.54447198847977,
16,0,16,0,1,0,1,0,,,,,,,,2.5814960569338883,both,4925.0,-1.0,0.0001315358192089576,0,41,"['frequency', 'time']",0.01300974958576262,0.20503564970567822,None,530.5800552000292,530.5800552000292,0.20503564970567822,2.7865317066395665,530.7917645000853,530.5800552000292,,,,,,,,,klxufm,001,fr,0,2022-05-09_17h25.11.568,Continuous,2022.1.1,35.54447198847977,
16,0,16,0,2,0,2,0,,,,,,,,2.5814960569338883,both,3909.0,-2.2606785377517373,6.347337413746205e-05,0,42,"['frequency', 'time']",0.014092949917539954,0.20953354984521866,['space'],533.380757200066,533.380757200066,0.20953354984521866,2.791029606779107,533.5928987001535,533.380757200066,[-2.263176499865949],,,,,,,,klxufm,001,fr,0,2022-05-09_17h25.11.568,Continuous,2022.1.1,35.54447198847977,
16,0,16,0,3,0,3,0,,,,,,,,2.5814960569338883,both,3103.0,-2.2482681688740946,4.984555866798764e-05,0,43,"['frequency', 'time']",0.014086949871852994,None,['space'],536.1812976000365,536.1812976000365,0.21017364994622767,2.791669706880116,536.3976428001188,536.1812976000365,[-2.3921498998533934],,,,,,,,klxufm,001,fr,0,2022-05-09_17h25.11.568,Continuous,2022.1.1,35.54447198847977,
16,0,16,0,4,0,4,0,,,,,,,,2.5814960569338883,both,2463.0,-3.5582839516146145,5.6479251898383445e-05,0,44,"['frequency', 'time']",0.00949764996767044,0.20443405001424253,['space'],538.992587100016,538.992587100016,0.20443405001424253,2.785930106948131,539.1993057001382,538.992587100016,[-2.2906150000635535],,,,,,,,klxufm,001,fr,0,2022-05-09_17h25.11.568,Continuous,2022.1.1,35.54447198847977,
16,0,16,0,5,0,5,0,,,,,,,,2.5814960569338883,both,1955.0,-1.6880179193272262,5.992534144485212e-05,0,45,"['frequency', 'time']",0.013713850174099207,0.20897505013272166,None,541.7900483000558,541.7900483000558,0.20897505013272166,2.79047110706661,542.0016753999516,541.7900483000558,,,,,,,,,klxufm,001,fr,0,2022-05-09_17h25.11.568,Continuous,2022.1.1,35.54447198847977,
16,0,16,0,6,0,6,0,,,,,,,,2.5814960569338883,both,1552.0,-1.0021299014802212,4.695340082160539e-05,0,46,"['frequency', 'time']",0.01275905012153089,None,None,544.5934441999998,544.5934441999998,0.21902094990946352,2.800517006843352,544.8185700001195,544.5934441999998,,,,,,,,,klxufm,001,fr,0,2022-05-09_17h25.11.568,Continuous,2022.1.1,35.54447198847977,
16,0,16,0,7,0,7,0,,,,,,,,2.5814960569338883,both,1232.0,0.22294378144793314,5.5153979329850876e-05,0,47,"['frequency', 'time']",0.009404350072145462,0.2014958499930799,None,547.4021441000514,547.4021441000514,0.2014958499930799,2.782991906926968,547.6095906000119,547.4021441000514,,,,,,,,,klxufm,001,fr,0,2022-05-09_17h25.11.568,Continuous,2022.1.1,35.54447198847977,
16,0,16,0,8,0,8,0,,,,,,,,2.5814960569338883,both,,,,1,47,"['frequency', 'time']",0.01338834990747273,0.20769404992461205,None,550.2002000000793,550.2002000000793,0.20769404992461205,2.7891901068585003,550.4112098000478,550.2002000000793,,,,,,,,,klxufm,001,fr,0,2022-05-09_17h25.11.568,Continuous,2022.1.1,35.54447198847977,
16,0,16,0,9,0,9,0,,,,,,,,2.5814960569338883,both,776.0,-0.8454496991060219,3.579952251304618e-05,0,48,"['frequency', 'time']",0.014709349954500794,0.2101854500360787,None,553.0003760000691,553.0003760000691,0.2101854500360787,2.791681506969967,553.2094419000205,553.0003760000691,,,,,,,,,klxufm,001,fr,0,2022-05-09_17h25.11.568,Continuous,2022.1.1,35.54447198847977,
17,0,17,0,0,0,0,0,,,,,,558.7662867000327,None,1.5654370306410117,none,461.0,0.841446058825378,8.09077300563252e-05,0,54,"['frequency', 'time']",0.025626849848777056,None,None,559.7674929001369,None,0.22937324969097972,1.7948102803319914,559.9951872001402,None,,555.7972683999687,None,"[0.5833333333333334, 0.16666666666666666, 0.5833333333333334, 0.5833333333333334, 0.3333333333333333, 0.16666666666666666, 0.5833333333333334, 0.5833333333333334, 0.5833333333333334, 0.3333333333333333, 0.16666666666666666, 0.5833333333333334, 0.3333333333333333, 0.16666666666666666, 0.5833333333333334]",,,,,klxufm,001,fr,0,2022-05-09_17h25.11.568,Continuous,2022.1.1,35.54447198847977,
17,0,17,0,1,0,1,0,,,,,,,,2.788144437503184,none,2194.0,-3.447075312347637,5.3197335668551825e-05,0,55,"['frequency', 'time']",0.01283554988913238,None,['space'],561.5602680000011,561.5602680000011,0.2089721499942243,2.997116587497408,561.7768141999841,561.5602680000011,[-1.3230991000309587],,,,,,,,klxufm,001,fr,0,2022-05-09_17h25.11.568,Continuous,2022.1.1,35.54447198847977,
17,0,17,0,2,0,2,0,,,,,,,,2.861138890362345,none,6965.0,0.022609304882376335,0.0001505571015015941,0,56,"['frequency', 'time']",0.013350550085306168,None,None,564.5765498999972,564.5765498999972,0.20703615015372634,3.0681750405160715,564.7919113000389,564.5765498999972,,,,,,,,,klxufm,001,fr,0,2022-05-09_17h25.11.568,Continuous,2022.1.1,35.54447198847977,
17,0,17,0,3,0,3,0,,,,,,,,1.7633907351163893,none,411.0,0.38711133209348836,7.945572708413684e-05,0,57,"['frequency', 'time']",0.014404849847778678,0.21323344996199012,['space'],567.6594211999327,567.6594211999327,0.21323344996199012,1.9766241850783794,567.8730440000072,567.6594211999327,[-2.622062599984929],,,,,,,,klxufm,001,fr,0,2022-05-09_17h25.11.568,Continuous,2022.1.1,35.54447198847977,
17,0,17,0,4,0,4,0,,,,,,,,1.291126963210288,none,4925.0,1.0,0.0001655937853633201,0,58,"['frequency', 'time']",0.012770650209859014,0.20567915006540716,['space'],569.6383505000267,569.6383505000267,0.20567915006540716,1.4968061132756951,569.848852599971,569.6383505000267,[-1.4332059000153095],,,,,,,,klxufm,001,fr,0,2022-05-09_17h25.11.568,Continuous,2022.1.1,35.54447198847977,
