sweeps.thisRepN,sweeps.thisTrialN,sweeps.thisN,sweeps.thisIndex,trials.thisRepN,trials.thisTrialN,trials.thisN,trials.thisIndex,instructions.started,instructions.stopped,blank_text.started,blank_text.stopped,Intervals,text.started,text.stopped,Delay,Prediction,Frequency,Volume,Psychopy_level,isCatchTrial,len(y),finished_audiograms,probe.started,probe.stopped,feedback.keys,feedback.started,feedback.stopped,ISI.started,ISI.stopped,text_2.started,text_2.stopped,feedback.rt,break_txt.started,break_txt.stopped,,Audiogram_time,Audiogram_both,Audiogram_frequency,Audiogram_none,end_txt.started,end_txt.stopped,participant,session,language (english or french),Resume previous experiment,date,expName,psychopyVersion,frameRate,
0,0,0,0,0,0,0,0,31.544443599996157,None,36.95280499997898,None,"[0.3333333333333333, 0.3333333333333333, 0.16666666666666666, 0.16666666666666666, 0.5833333333333334, 0.16666666666666666, 0.16666666666666666, 0.3333333333333333, 0.3333333333333333, 0.3333333333333333, 0.16666666666666666, 0.16666666666666666, 0.3333333333333333, 0.5833333333333334, 0.16666666666666666]",39.3371027999965,None,2.3662689047164847,time,562.0,2.2838818178182034,8.035085427971771e-05,0,26,[],0.011463966657174751,None,None,40.3875207999954,None,0.211690866650315,2.5779597713667997,40.59288089998881,None,,,,,,,,,,,gtyzck,001,fr,0,2022-04-27_11h49.33.830,Continuous,2022.1.1,None,
0,0,0,0,1,0,1,0,,,,,,,,2.3662689047164847,time,281.0,6.226332818485522,0.0002757364016693691,0,27,[],7.546666893176734e-05,None,None,42.99535849998938,42.99535849998938,0.21071486666915007,2.5769837713856347,43.221771099983016,42.99535849998938,,,,,,,,,,,gtyzck,001,fr,0,2022-04-27_11h49.33.830,Continuous,2022.1.1,None,
0,0,0,0,2,0,2,0,,,,,,,,2.3662689047164847,time,,,,1,27,[],0.011506666662171483,None,None,45.61073270000634,45.61073270000634,0.220558966655517,2.5868278713720017,45.82893369998783,45.61073270000634,,,,,,,,,,,gtyzck,001,fr,0,2022-04-27_11h49.33.830,Continuous,2022.1.1,None,
0,0,0,0,3,0,3,0,,,,,,,,2.3662689047164847,time,446.0,6.253553676512963,0.00015244196808798425,0,28,[],0.013353466638363898,None,None,48.215277899987996,48.215277899987996,0.22249226665007882,2.5887611713665635,48.42793350000284,48.215277899987996,,,,,,,,,,,gtyzck,001,fr,0,2022-04-27_11h49.33.830,Continuous,2022.1.1,None,
0,0,0,0,4,0,4,0,,,,,,,,2.3662689047164847,time,708.0,2.297214742376731,5.77438517509261e-05,0,29,[],0.012119366641854867,None,['space'],50.81426179999835,50.81426179999835,0.22132016663090326,2.587589071347388,51.032957499992335,50.81426179999835,[-1.7582202999910805],,,,,,,,,,gtyzck,001,fr,0,2022-04-27_11h49.33.830,Continuous,2022.1.1,None,
0,0,0,0,5,0,5,0,,,,,,,,2.3662689047164847,time,354.0,1.0,9.929457867117957e-05,0,30,[],0.01164206667453982,None,None,53.417030799988424,53.417030799988424,0.2257774666941259,2.5920463714106106,53.63529939998989,53.417030799988424,,,,,,,,,,,gtyzck,001,fr,0,2022-04-27_11h49.33.830,Continuous,2022.1.1,None,
0,0,0,0,6,0,6,0,,,,,,,,2.3662689047164847,time,1191.0,4.1695033521803815,8.41054893038825e-05,0,31,[],0.01196796665317379,None,None,56.02086709998548,56.02086709998548,0.21919796665315516,2.58546687136964,56.23940969997784,56.02086709998548,,,,,,,,,,,gtyzck,001,fr,0,2022-04-27_11h49.33.830,Continuous,2022.1.1,None,
0,0,0,0,7,0,7,0,,,,,,,,2.3662689047164847,time,501.0,3.6106351606576563,0.00010803200546636851,0,32,[],0.01175616669934243,None,['space'],58.631286699994234,58.631286699994234,0.22757766669383273,2.5938465714103174,58.84883859998081,58.631286699994234,[-1.687622099998407],,,,,,,,,,gtyzck,001,fr,0,2022-04-27_11h49.33.830,Continuous,2022.1.1,None,
0,0,0,0,8,0,8,0,,,,,,,,2.3662689047164847,time,177.0,0.6692920612866239,0.0003771797967456667,0,33,[],0.0117901666671969,None,None,61.243377699982375,61.243377699982375,0.22441766667179763,2.5906865713882823,61.45855749998009,61.243377699982375,,,,,,,,,,,gtyzck,001,fr,0,2022-04-27_11h49.33.830,Continuous,2022.1.1,None,
0,0,0,0,9,0,9,0,,,,,,,,2.3662689047164847,time,223.0,1.2031442425799157,0.00025312268451287015,0,34,[],0.011939266667468473,None,None,63.84388739999849,63.84388739999849,0.2215269666921813,2.587795871408666,64.0603129999945,63.84388739999849,,,,,,,,,,,gtyzck,001,fr,0,2022-04-27_11h49.33.830,Continuous,2022.1.1,None,
0,0,0,0,10,0,10,0,,,,,,,,2.3662689047164847,time,199.0,0.9999065101725542,0.00030191418816489325,0,35,[],0.0037326666642911732,0.2007328666804824,None,66.44840130000375,66.44840130000375,0.2007328666804824,2.567001771396967,66.66046789998654,66.44840130000375,,,,,,,,,,,gtyzck,001,fr,0,2022-04-27_11h49.33.830,Continuous,2022.1.1,None,
1,0,1,0,0,0,0,0,,,,,"[0.5833333333333334, 0.16666666666666666, 0.5833333333333334, 0.3333333333333333, 0.5833333333333334, 0.5833333333333334, 0.3333333333333333, 0.3333333333333333, 0.16666666666666666, 0.16666666666666666, 0.16666666666666666, 0.5833333333333334, 0.5833333333333334, 0.3333333333333333, 0.3333333333333333]",73.48166170000331,None,2.1659074858768363,none,668.0,6.401602194653823,9.995433171193521e-05,0,26,[],0.012721466657239944,None,None,74.5260333000042,None,0.21119156666100025,2.3770990525378366,74.74237910000375,None,,69.06057729999884,None,,,,,,,,gtyzck,001,fr,0,2022-04-27_11h49.33.830,Continuous,2022.1.1,None,
1,0,1,0,1,0,1,0,,,,,,,,2.4184484551022734,none,354.0,1.0,9.929457867117957e-05,0,27,[],0.002967766660731286,None,None,76.92912509999587,76.92912509999587,0.2032192666665651,2.6216677217688384,77.14725529999123,76.92912509999587,,,,,,,,,,,gtyzck,001,fr,0,2022-04-27_11h49.33.830,Continuous,2022.1.1,None,
1,0,1,0,2,0,2,0,,,,,,,,2.197105042367033,none,315.0,2.4856734441730746,0.00013129665943999364,0,28,[],0.011200666660442948,None,None,79.59586679999484,79.59586679999484,0.22017196664819494,2.417277009015228,79.80687339999713,79.59586679999484,,,,,,,,,,,gtyzck,001,fr,0,2022-04-27_11h49.33.830,Continuous,2022.1.1,None,
1,0,1,0,3,0,3,0,,,,,,,,2.452371699117851,none,1001.0,1.5432944406612723,5.2668007255646785e-05,0,29,[],0.011509166652103886,None,None,82.03564769998775,82.03564769998775,0.22218376665841788,2.674555465776269,82.25670279999031,82.03564769998775,,,,,,,,,,,gtyzck,001,fr,0,2022-04-27_11h49.33.830,Continuous,2022.1.1,None,
1,0,1,0,4,0,4,0,,,,,,,,1.5510336070854485,none,1261.0,3.9640509545129943,8.560344568483756e-05,0,30,[],0.008870466641383246,None,None,84.7291111999948,84.7291111999948,0.2104726666584611,1.7615062737439096,84.95020029999432,84.7291111999948,,,,,,,,,,,gtyzck,001,fr,0,2022-04-27_11h49.33.830,Continuous,2022.1.1,None,
1,0,1,0,5,0,5,0,,,,,,,,2.0308574411817215,none,397.0,6.241176511356038,0.0001586444221581353,0,31,[],0.010443766659591347,None,None,86.5303058999998,86.5303058999998,0.21243306665564887,2.2432905078373704,86.74411309999414,86.5303058999998,,,,,,,,,,,gtyzck,001,fr,0,2022-04-27_11h49.33.830,Continuous,2022.1.1,None,
1,0,1,0,6,0,6,0,,,,,,,,1.9835004321893117,none,250.0,4.001587121428006,0.00026549072924007784,0,32,[],0.011184766655787826,None,"['space', 'space', 'space', 'space', 'space']",88.79670609999448,88.79670609999448,0.21892136667156592,2.2024217988608776,89.01625600000261,88.79670609999448,"[-1.259861099999398, -1.0693543999805115, -0.7651517999765929, -0.604576099984115, -0.34825999999884516]",,,,,,,,,,gtyzck,001,fr,0,2022-04-27_11h49.33.830,Continuous,2022.1.1,None,
1,0,1,0,7,0,7,0,,,,,,,,1.4641153005316996,none,1589.0,4.028188910442902,8.875832329218948e-05,0,33,[],0.006809266633354127,None,None,91.02250979997916,91.02250979997916,0.21498476664419286,1.6791000671758924,91.24388639998506,91.02250979997916,,,,,,,,,,,gtyzck,001,fr,0,2022-04-27_11h49.33.830,Continuous,2022.1.1,None,
1,0,1,0,8,0,8,0,,,,,,,,2.7330907935189828,none,132.0,1.890042838452322,0.0008209360369423675,0,34,[],0.010849066660739481,None,None,92.73122339998372,92.73122339998372,0.2195706666680053,2.952661460186988,92.94318360000034,92.73122339998372,,,,,,,,,,,gtyzck,001,fr,0,2022-04-27_11h49.33.830,Continuous,2022.1.1,None,
1,0,1,0,9,0,9,0,,,,,,,,1.939174257146009,none,446.0,1.9734743940444117,9.313235457325639e-05,0,35,[],0.01084336667554453,None,None,95.7008438000048,95.7008438000048,0.21476406668080017,2.153938323826809,95.91443340000114,95.7008438000048,,,,,,,,,,,gtyzck,001,fr,0,2022-04-27_11h49.33.830,Continuous,2022.1.1,None,
1,0,1,0,10,0,10,0,,,,,,,,1.8120197747595164,none,,,,1,35,[],0.0072759666363708675,0.2011303666222375,None,97.88075250000111,97.88075250000111,0.2011303666222375,2.013150141381754,98.09572349998052,97.88075250000111,,,,,,,,,,,gtyzck,001,fr,0,2022-04-27_11h49.33.830,Continuous,2022.1.1,None,
2,0,2,0,0,0,0,0,,,,,"[0.16666666666666666, 0.5833333333333334, 0.5833333333333334, 0.5833333333333334, 0.3333333333333333, 0.3333333333333333, 0.16666666666666666, 0.3333333333333333, 0.3333333333333333, 0.3333333333333333, 0.3333333333333333, 0.3333333333333333, 0.16666666666666666, 0.5833333333333334, 0.3333333333333333]",103.57645799999591,None,1.298574500273373,time,,,,1,35,[],0.012797266652341932,None,None,104.60127759998431,None,0.2211181666352786,1.5196926669086517,104.81689799999003,None,,99.93878860000405,None,,,,,,,,gtyzck,001,fr,0,2022-04-27_11h49.33.830,Continuous,2022.1.1,None,
2,0,2,0,1,0,1,0,,,,,,,,1.298574500273373,time,831.0,-5.386535811906288,2.1110741311916535e-05,0,36,[],0.011050566652556881,None,None,106.1373709999898,106.1373709999898,0.22151006665080786,1.520084566924181,106.35640419999254,106.1373709999898,,,,,,,,,,,gtyzck,001,fr,0,2022-04-27_11h49.33.830,Continuous,2022.1.1,None,
2,0,2,0,2,0,2,0,,,,,,,,1.298574500273373,time,2962.0,-5.4554397740284495,3.051495636763142e-05,0,37,[],0.010803166660480201,None,None,107.6797544999863,107.6797544999863,0.2167239666741807,1.5152984669475538,107.89155060000485,107.6797544999863,,,,,,,,,,,gtyzck,001,fr,0,2022-04-27_11h49.33.830,Continuous,2022.1.1,None,
2,0,2,0,3,0,3,0,,,,,,,,1.298574500273373,time,2351.0,3.1789579863918185,0.00011909361784753964,0,38,[],0.010741466656327248,None,None,109.21526769999764,109.21526769999764,0.22487366665154696,1.52344816692492,109.43350109999301,109.21526769999764,,,,,,,,,,,gtyzck,001,fr,0,2022-04-27_11h49.33.830,Continuous,2022.1.1,None,
2,0,2,0,4,0,4,0,,,,,,,,1.298574500273373,time,5278.0,-6.0,7.141639309910207e-05,0,39,[],0.010640866647008806,None,None,110.75731950000045,110.75731950000045,0.22861696663312614,1.5271914669064992,110.9639157000056,110.75731950000045,,,,,,,,,,,gtyzck,001,fr,0,2022-04-27_11h49.33.830,Continuous,2022.1.1,None,
2,0,2,0,5,0,5,0,,,,,,,,1.298574500273373,time,1866.0,-1.508942329487403,5.7795862905748305e-05,0,40,[],0.0031802666489966214,None,None,112.29821489998722,112.29821489998722,0.20242436663829722,1.5009988669116703,112.51629149998189,112.29821489998722,,,,,,,,,,,gtyzck,001,fr,0,2022-04-27_11h49.33.830,Continuous,2022.1.1,None,
2,0,2,0,6,0,6,0,,,,,,,,1.298574500273373,time,1245.0,1.5453159044890858,6.487335172720338e-05,0,41,[],0.007140266650822014,0.20597636664751917,None,113.84334369999124,113.84334369999124,0.20597636664751917,1.5045508669208922,114.0628880999866,113.84334369999124,,,,,,,,,,,gtyzck,001,fr,0,2022-04-27_11h49.33.830,Continuous,2022.1.1,None,
2,0,2,0,7,0,7,0,,,,,,,,1.298574500273373,time,3325.0,-4.08298293665869,4.5053962690366074e-05,0,42,[],0.010660466650733724,None,None,115.38615629999549,115.38615629999549,0.21507276664488018,1.5136472669182532,115.59976290000486,115.38615629999549,,,,,,,,,,,gtyzck,001,fr,0,2022-04-27_11h49.33.830,Continuous,2022.1.1,None,
2,0,2,0,8,0,8,0,,,,,,,,1.298574500273373,time,6650.0,-5.858596127279283,7.163231468397257e-05,0,43,[],0.010658666637027636,None,None,116.93740870000329,116.93740870000329,0.232719666644698,1.531294166918071,117.15645340000628,116.93740870000329,,,,,,,,,,,gtyzck,001,fr,0,2022-04-27_11h49.33.830,Continuous,2022.1.1,None,
2,0,2,0,9,0,9,0,,,,,,,,1.298574500273373,time,555.0,1.0997552513876308,7.135007835920277e-05,0,44,[],0.010687166708521545,None,['space'],118.4758290000027,118.4758290000027,0.2205852666811552,1.5191597669545283,118.6905394999776,118.4758290000027,[-1.1316405999823473],,,,,,,,,,gtyzck,001,fr,0,2022-04-27_11h49.33.830,Continuous,2022.1.1,None,
3,0,3,0,0,0,0,0,,,,,,122.20041279998259,None,1.0123750008148893,both,140.0,1.318214107895696,0.0006857360251251302,0,26,[],0.012479166645789519,None,None,123.22660679998808,None,0.23723316664109007,1.2496081674559794,123.44215479999548,None,,120.01221929999883,None,0.3333333333333333,,,,,,,gtyzck,001,fr,0,2022-04-27_11h49.33.830,Continuous,2022.1.1,None,
3,0,3,0,1,0,1,0,,,,,,,,1.0123750008148893,both,177.0,0.3950154887926744,0.00036545557678020367,0,27,[],0.009780066669918597,None,None,124.48652839998249,124.48652839998249,0.21156936668558046,1.2239443675004698,124.70524779998232,124.48652839998249,,,,,,,,,,,gtyzck,001,fr,0,2022-04-27_11h49.33.830,Continuous,2022.1.1,None,
3,0,3,0,2,0,2,0,,,,,,,,1.0123750008148893,both,223.0,1.8225121831477806,0.0002718313017058988,0,28,[],0.00755716665298678,None,None,125.73895939998329,125.73895939998329,0.20819586666766554,1.2205708674825548,125.95587879998493,125.73895939998329,,,,,,,,,,,gtyzck,001,fr,0,2022-04-27_11h49.33.830,Continuous,2022.1.1,None,
3,0,3,0,3,0,3,0,,,,,,,,1.0123750008148893,both,281.0,5.528368321568094,0.0002544461470450833,0,29,[],0.010123866668436676,None,None,127.00038449998829,127.00038449998829,0.2166520666796714,1.2290270674945607,127.20727869999246,127.00038449998829,,,,,,,,,,,gtyzck,001,fr,0,2022-04-27_11h49.33.830,Continuous,2022.1.1,None,
3,0,3,0,4,0,4,0,,,,,,,,1.0123750008148893,both,354.0,1.0,9.929457867117957e-05,0,30,[],0.00914546666899696,None,None,128.25433739999426,128.25433739999426,0.21558286668732762,1.227957867502217,128.47357979998924,128.25433739999426,,,,,,,,,,,gtyzck,001,fr,0,2022-04-27_11h49.33.830,Continuous,2022.1.1,None,
3,0,3,0,5,0,5,0,,,,,,,,1.0123750008148893,both,446.0,1.33247681514277,8.650689098864764e-05,0,31,[],0.009224466630257666,None,None,129.51155880000442,129.51155880000442,0.22500596664031036,1.2373809674551997,129.73240829998394,129.51155880000442,,,,,,,,,,,gtyzck,001,fr,0,2022-04-27_11h49.33.830,Continuous,2022.1.1,None,
3,0,3,0,6,0,6,0,,,,,,,,1.0123750008148893,both,,,,1,31,[],0.010444166633533314,None,None,130.76688399998238,130.76688399998238,0.21534576662816107,1.2277207674430504,130.98335599998245,130.76688399998238,,,,,,,,,,,gtyzck,001,fr,0,2022-04-27_11h49.33.830,Continuous,2022.1.1,None,
3,0,3,0,7,0,7,0,,,,,,,,1.0123750008148893,both,708.0,4.771122369302657,7.677169532043804e-05,0,32,[],0.011488266667583957,None,None,132.0214535999985,132.0214535999985,0.21566636668285355,1.2280413674977428,132.24656219998724,132.0214535999985,,,,,,,,,,,gtyzck,001,fr,0,2022-04-27_11h49.33.830,Continuous,2022.1.1,None,
3,0,3,0,8,0,8,0,,,,,,,,1.0123750008148893,both,892.0,8.58487507661698,0.00011011494690830972,0,33,[],0.00821506665670313,None,None,133.2823950999882,133.2823950999882,0.20849626665585674,1.220871267470746,133.50023089998285,133.2823950999882,,,,,,,,,,,gtyzck,001,fr,0,2022-04-27_11h49.33.830,Continuous,2022.1.1,None,
3,0,3,0,9,0,9,0,,,,,,,,1.0123750008148893,both,1124.0,2.9311577881745956,6.900287333160673e-05,0,34,[],0.0034802666632458568,None,['space'],134.53667069997755,134.53667069997755,0.20004076664918102,1.2124157674640703,134.75331319999532,134.53667069997755,[0.07092430000193417],,,,,,,,,,gtyzck,001,fr,0,2022-04-27_11h49.33.830,Continuous,2022.1.1,None,
3,0,3,0,10,0,10,0,,,,,,,,1.0123750008148893,both,1416.0,2.8295076038752436,6.979147919788454e-05,0,35,[],0.007805466681020334,None,None,135.80502859997796,135.80502859997796,0.22323776668054052,1.2356127674954298,136.0204836000048,135.80502859997796,,,,,,,,,,,gtyzck,001,fr,0,2022-04-27_11h49.33.830,Continuous,2022.1.1,None,
4,0,4,0,0,0,0,0,,,,,,140.78201159997843,None,1.045335076155542,both,832.0,6.942081560796053,8.734714783485407e-05,0,36,[],0.012796266644727439,None,None,141.83499750000192,None,0.22223236665013246,1.2675674428056745,142.05272879998665,None,,137.05755689999205,None,0.3333333333333333,,,,,,,gtyzck,001,fr,0,2022-04-27_11h49.33.830,Continuous,2022.1.1,None,
4,0,4,0,1,0,1,0,,,,,,,,1.045335076155542,both,1048.0,-1.087509676441302,4.063963723519451e-05,0,37,[],0.009616166644264013,None,None,143.1254405999789,143.1254405999789,0.21893506665946916,1.2642701428150112,143.34000949998153,143.1254405999789,,,,,,,,,,,gtyzck,001,fr,0,2022-04-27_11h49.33.830,Continuous,2022.1.1,None,
4,0,4,0,2,0,2,0,,,,,,,,1.045335076155542,both,1320.0,-3.863615884277273,3.382341415682659e-05,0,38,[],0.0007280666613951325,None,None,144.41626959998393,144.41626959998393,0.20444336667424068,1.2497784428297827,144.64030889997957,144.41626959998393,,,,,,,,,,,gtyzck,001,fr,0,2022-04-27_11h49.33.830,Continuous,2022.1.1,None,
4,0,4,0,3,0,3,0,,,,,,,,1.045335076155542,both,1663.0,-4.584281579685918,3.515580958386037e-05,0,39,[],0.009190866694552824,None,None,145.71278499998152,145.71278499998152,0.2135228666884359,1.258857942843978,145.92969229997834,145.71278499998152,,,,,,,,,,,gtyzck,001,fr,0,2022-04-27_11h49.33.830,Continuous,2022.1.1,None,
4,0,4,0,4,0,4,0,,,,,,,,1.045335076155542,both,2095.0,-0.225402103494595,7.494730762556787e-05,0,40,[],0.009462166664889082,None,None,147.0072261999885,147.0072261999885,0.22517786666867323,1.2705129428242152,147.22712169997976,147.0072261999885,,,,,,,,,,,gtyzck,001,fr,0,2022-04-27_11h49.33.830,Continuous,2022.1.1,None,
4,0,4,0,5,0,5,0,,,,,,,,1.045335076155542,both,2639.0,2.3067912879250234,0.00010075820875224664,0,41,[],0.009465266688494012,None,None,148.2977103999874,148.2977103999874,0.2264519666787237,1.2717870428342657,148.51818600000115,148.2977103999874,,,,,,,,,,,gtyzck,001,fr,0,2022-04-27_11h49.33.830,Continuous,2022.1.1,None,
4,0,4,0,6,0,6,0,,,,,,,,1.045335076155542,both,3325.0,-3.563077582072273,4.78330708087714e-05,0,42,[],0.004210466664517298,None,None,149.5843210000021,149.5843210000021,0.21294496665359475,1.2582800428091367,149.8160597999813,149.5843210000021,,,,,,,,,,,gtyzck,001,fr,0,2022-04-27_11h49.33.830,Continuous,2022.1.1,None,
4,0,4,0,7,0,7,0,,,,,,,,1.045335076155542,both,4189.0,-6.234516973262429,4.729305398347296e-05,0,43,[],0.009615366667276248,None,None,150.88100029999623,150.88100029999623,0.2155599666875787,1.2608950428431207,151.09797790000448,150.88100029999623,,,,,,,,,,,gtyzck,001,fr,0,2022-04-27_11h49.33.830,Continuous,2022.1.1,None,
4,0,4,0,8,0,8,0,,,,,,,,1.045335076155542,both,5278.0,-5.0,8.01305109968759e-05,0,44,[],0.006245066644623876,None,None,152.17102779998095,152.17102779998095,0.20533206666004844,1.2506671428155904,152.3911884999834,152.17102779998095,,,,,,,,,,,gtyzck,001,fr,0,2022-04-27_11h49.33.830,Continuous,2022.1.1,None,
4,0,4,0,9,0,9,0,,,,,,,,1.045335076155542,both,6650.0,-4.794795955142416,8.096531195405308e-05,0,45,[],0.009403566655237228,None,None,153.46134379997966,153.46134379997966,0.21552246663486585,1.2608575427904078,153.67771739998716,153.46134379997966,,,,,,,,,,,gtyzck,001,fr,0,2022-04-27_11h49.33.830,Continuous,2022.1.1,None,
4,0,4,0,10,0,10,0,,,,,,,,1.045335076155542,both,,,,1,45,[],0.009670966654084623,None,None,154.75007459998596,154.75007459998596,0.21399096664390527,1.2593260427994473,154.9709850999934,154.75007459998596,,,,,,,,,,,gtyzck,001,fr,0,2022-04-27_11h49.33.830,Continuous,2022.1.1,None,
5,0,5,0,0,0,0,0,,,,,,161.10217989998637,None,1.3473404385363748,both,776.0,7.623133012228059,9.490877538855024e-05,0,46,[],0.012757966644130647,None,None,162.1181439999782,None,0.2203230666636955,1.5676635052000703,162.33871839998756,None,,156.04597919998923,None,0.3333333333333333,,,,,,,gtyzck,001,fr,0,2022-04-27_11h49.33.830,Continuous,2022.1.1,None,
5,0,5,0,1,0,1,0,,,,,,,,1.3473404385363748,both,978.0,6.15928138593489,8.825219755473858e-05,0,47,[],0.009171666664769873,None,None,163.71568839999964,163.71568839999964,0.2207099666702561,1.5680504052066309,163.93166329999804,163.71568839999964,,,,,,,,,,,gtyzck,001,fr,0,2022-04-27_11h49.33.830,Continuous,2022.1.1,None,
5,0,5,0,2,0,2,0,,,,,,,,1.3473404385363748,both,1232.0,4.271977389467626,8.790802690352726e-05,0,48,[],0.006028266652720049,None,None,165.29883349998272,165.29883349998272,0.20961826664279215,1.556958705179167,165.51309999998193,165.29883349998272,,,,,,,,,,,gtyzck,001,fr,0,2022-04-27_11h49.33.830,Continuous,2022.1.1,None,
5,0,5,0,3,0,3,0,,,,,,,,1.3473404385363748,both,1552.0,4.2515647436858135,8.597096187769146e-05,0,49,[],0.009224166657077149,None,None,166.89578489999985,166.89578489999985,0.21644776666653343,1.5637882052029082,167.1137474999996,166.89578489999985,,,,,,,,,,,gtyzck,001,fr,0,2022-04-27_11h49.33.830,Continuous,2022.1.1,None,
5,0,5,0,4,0,4,0,,,,,,,,1.3473404385363748,both,1955.0,5.762448604604772,0.0001412972935906522,0,50,[],0.009095466666622087,None,None,168.48602909999317,168.48602909999317,0.22706686667515896,1.5744073052115337,168.70657710000523,168.48602909999317,,,,,,,,,,,gtyzck,001,fr,0,2022-04-27_11h49.33.830,Continuous,2022.1.1,None,
5,0,5,0,5,0,5,0,,,,,,,,1.3473404385363748,both,2463.0,4.024336302970592,0.00013521346689692544,0,51,[],0.0029514666530303657,None,None,170.0769386999891,170.0769386999891,0.20447946665808558,1.5518199051944603,170.29381439997815,170.0769386999891,,,,,,,,,,,gtyzck,001,fr,0,2022-04-27_11h49.33.830,Continuous,2022.1.1,None,
5,0,5,0,6,0,6,0,,,,,,,,1.3473404385363748,both,3103.0,-0.8039025572207555,5.886331932804811e-05,0,52,[],0.007341366668697447,None,None,171.6715150999953,171.6715150999953,0.20830496665439568,1.5556454051907704,171.8885667999857,171.6715150999953,,,,,,,,,,,gtyzck,001,fr,0,2022-04-27_11h49.33.830,Continuous,2022.1.1,None,
5,0,5,0,7,0,7,0,,,,,,,,1.3473404385363748,both,3909.0,-1.2659473312720486,7.117510977034072e-05,0,53,[],0.00579996666056104,None,None,173.25633790000575,173.25633790000575,0.2071644666721113,1.554504905208486,173.47255629999563,173.25633790000575,,,,,,,,,,,gtyzck,001,fr,0,2022-04-27_11h49.33.830,Continuous,2022.1.1,None,
5,0,5,0,8,0,8,0,,,,,,,,1.3473404385363748,both,4925.0,4.0,0.0002339074389818915,0,54,[],0.009081466647330672,None,None,174.86299799999688,174.86299799999688,0.22454096665023826,1.571881405186613,175.077201099979,174.86299799999688,,,,,,,,,,,gtyzck,001,fr,0,2022-04-27_11h49.33.830,Continuous,2022.1.1,None,
5,0,5,0,9,0,9,0,,,,,,,,1.3473404385363748,both,6205.0,-4.531338475488079,7.450468874155755e-05,0,55,[],0.004615866666426882,0.19631296666921116,"['space', 'space', 'space']",176.44438939998508,176.44438939998508,0.19631296666921116,1.543653405205586,176.66452619998017,176.44438939998508,"[-0.300423899985617, -0.09298169999965467, 0.11534960000426508]",,,,,,,,,,gtyzck,001,fr,0,2022-04-27_11h49.33.830,Continuous,2022.1.1,None,
5,0,5,0,10,0,10,0,,,,,,,,1.3473404385363748,both,7818.0,1.396334678833087,0.00020672077009047392,0,56,[],0.005053566681453958,None,['space'],178.0279287000012,178.0279287000012,0.2007602666853927,1.5481007052217675,178.24440749999485,178.0279287000012,[-1.2919607000076212],,,,,,,,,,gtyzck,001,fr,0,2022-04-27_11h49.33.830,Continuous,2022.1.1,None,
5,0,5,0,11,0,11,0,,,,,,,,1.3473404385363748,both,,,,1,56,[],0.008326366660185158,None,None,179.62377720000222,179.62377720000222,0.21771176665788516,1.56505220519426,179.84073629998602,179.62377720000222,,,,,,,,,,,gtyzck,001,fr,0,2022-04-27_11h49.33.830,Continuous,2022.1.1,None,
6,0,6,0,0,0,0,0,,,,,,183.20484739998938,None,1.493752516363265,frequency,158.0,0.9626258770704113,0.0004791976011078992,0,26,[],0.012516466667875648,None,None,184.25608140000259,None,0.2099367666814942,1.7036892830447592,184.46810519997962,None,,181.20902690000366,None,0.5833333333333334,,,,,,,gtyzck,001,fr,0,2022-04-27_11h49.33.830,Continuous,2022.1.1,None,
6,0,6,0,1,0,1,0,,,,,,,,2.135811473915967,frequency,236.0,1.7015826623862704,0.00023709168879103428,0,27,[],0.004087066656211391,None,None,185.988262400002,185.988262400002,0.20850656664697453,2.3443180405629414,186.20865289997892,185.988262400002,,,,,,,,,,,gtyzck,001,fr,0,2022-04-27_11h49.33.830,Continuous,2022.1.1,None,
6,0,6,0,2,0,2,0,,,,,,,,2.2782269420931134,frequency,354.0,1.0,9.929457867117957e-05,0,28,[],0.003286366641987115,None,None,188.37876379999216,188.37876379999216,0.21384966664481908,2.4920766087379325,188.59607509998023,188.37876379999216,,,,,,,,,,,gtyzck,001,fr,0,2022-04-27_11h49.33.830,Continuous,2022.1.1,None,
6,0,6,0,3,0,3,0,,,,,,,,1.93261684700967,frequency,,,,1,28,[],0.008865066658472642,None,None,190.89629439997952,190.89629439997952,0.15190946665825322,2.084526313667923,191.1038436999952,190.89629439997952,,,,,,,,,,,gtyzck,001,fr,0,2022-04-27_11h49.33.830,Continuous,2022.1.1,None,
6,0,6,0,4,0,4,0,,,,,,,,1.2956359517428906,frequency,794.0,6.007301052933286,7.716354260227555e-05,0,29,[],0.009863566636340693,None,None,193.07071649999125,193.07071649999125,0.21704386663623154,1.5126798183791221,193.28846959999646,193.07071649999125,,,,,,,,,,,gtyzck,001,fr,0,2022-04-27_11h49.33.830,Continuous,2022.1.1,None,
6,0,6,0,5,0,5,0,,,,,,,,1.7777249663678059,frequency,1190.0,3.1252776542644085,7.451845844439098e-05,0,30,[],0.0045353666646406054,None,None,194.6133123000036,194.6133123000036,0.21312186666182242,1.9908468330296283,194.83633900000132,194.6133123000036,,,,,,,,,,,gtyzck,001,fr,0,2022-04-27_11h49.33.830,Continuous,2022.1.1,None,
6,0,6,0,6,0,6,0,,,,,,,,1.0625344708470383,frequency,1783.0,4.272071356476722,0.00010631817396387939,0,31,[],0.007807966670952737,None,None,196.64181839997764,196.64181839997764,0.2159604666812811,1.2784949375283194,196.8557918999868,196.64181839997764,,,,,,,,,,,gtyzck,001,fr,0,2022-04-27_11h49.33.830,Continuous,2022.1.1,None,
6,0,6,0,7,0,7,0,,,,,,,,2.6239336016097736,frequency,2671.0,2.4946582383780718,0.00010031106587897997,0,32,[],0.008507566642947495,None,None,197.94198329999927,197.94198329999927,0.21702016663039103,2.8409537682401647,198.15832590000355,197.94198329999927,,,,,,,,,,,gtyzck,001,fr,0,2022-04-27_11h49.33.830,Continuous,2022.1.1,None,
6,0,6,0,8,0,8,0,,,,,,,,1.8638236374672472,frequency,4002.0,-6.301701871132575,4.070017821837464e-05,0,33,[],0.005501766660017893,None,None,200.80136349998065,200.80136349998065,0.20743256667628884,2.071256204143536,201.02239929998177,200.80136349998065,,,,,,,,,,,gtyzck,001,fr,0,2022-04-27_11h49.33.830,Continuous,2022.1.1,None,
7,0,7,0,0,0,0,0,,,,,"[0.3333333333333333, 0.16666666666666666, 0.16666666666666666, 0.16666666666666666, 0.5833333333333334, 0.5833333333333334, 0.16666666666666666, 0.16666666666666666, 0.16666666666666666, 0.5833333333333334, 0.16666666666666666, 0.5833333333333334, 0.16666666666666666, 0.16666666666666666, 0.5833333333333334]",208.21090989999357,None,1.8948036241439052,time,498.0,6.624533717372752,0.00015339720803327902,0,45,[],0.013037266646279022,None,None,209.2551683000056,None,0.22686616666032933,2.1216697908042343,209.47008729999652,None,,202.92064359999495,None,,,,,,,,gtyzck,001,fr,0,2022-04-27_11h49.33.830,Continuous,2022.1.1,None,
7,0,7,0,1,0,1,0,,,,,,,,1.8948036241439052,time,1583.0,4.991572159579882,9.826902955668359e-05,0,46,[],0.007909966661827639,None,None,211.3898399999889,211.3898399999889,0.21690326667157933,2.1117068908154843,211.6022959999973,211.3898399999889,,,,,,,,,,,gtyzck,001,fr,0,2022-04-27_11h49.33.830,Continuous,2022.1.1,None,
7,0,7,0,2,0,2,0,,,,,,,,1.8948036241439052,time,838.0,5.856129742464518,7.741633874499534e-05,0,47,[],0.007578466640552506,None,['space'],213.52489079997758,213.52489079997758,0.22263516663224436,2.1174387907761494,213.74540819998947,213.52489079997758,[-1.0932878000021446],,,,,,,,,,gtyzck,001,fr,0,2022-04-27_11h49.33.830,Continuous,2022.1.1,None,
7,0,7,0,3,0,3,0,,,,,,,,1.8948036241439052,time,264.0,5.072301355086175,0.0002737251513101114,0,48,[],0.008044966642046347,None,None,215.6642567999952,215.6642567999952,0.21859556663548574,2.1133991907793908,215.88601069999277,215.6642567999952,,,,,,,,,,,gtyzck,001,fr,0,2022-04-27_11h49.33.830,Continuous,2022.1.1,None,
7,0,7,0,4,0,4,0,,,,,,,,1.8948036241439052,time,1777.0,5.106567829647771,0.00011655174996090097,0,49,[],0.004328166658524424,None,None,217.80357609997736,217.80357609997736,0.2012116666592192,2.096015290803124,218.02578939998057,217.80357609997736,,,,,,,,,,,gtyzck,001,fr,0,2022-04-27_11h49.33.830,Continuous,2022.1.1,None,
7,0,7,0,5,0,5,0,,,,,,,,1.8948036241439052,time,2662.0,3.179096270833628,0.00010934170666170751,0,50,[],0.007843966654036194,None,['space'],219.94758869998623,219.94758869998623,0.21137356664985418,2.106177190793759,220.1656609000056,219.94758869998623,[-1.4030970999738201],,,,,,,,,,gtyzck,001,fr,0,2022-04-27_11h49.33.830,Continuous,2022.1.1,None,
7,0,7,0,6,0,6,0,,,,,,,,1.8948036241439052,time,444.0,5.261620399072987,0.00013617757032651962,0,51,[],0.008008566655917093,None,None,222.084704399982,222.084704399982,0.2151127666584216,2.1099163908023266,222.30676519998815,222.084704399982,,,,,,,,,,,gtyzck,001,fr,0,2022-04-27_11h49.33.830,Continuous,2022.1.1,None,
7,0,7,0,7,0,7,0,,,,,,,,1.8948036241439052,time,176.0,3.006268660480737,0.0004987732639157038,0,52,[],0.005050966661656275,None,['space'],224.22815069998614,224.22815069998614,0.218635566678131,2.113439190822036,224.44654539998737,224.22815069998614,[-1.460903800005326],,,,,,,,,,gtyzck,001,fr,0,2022-04-27_11h49.33.830,Continuous,2022.1.1,None,
7,0,7,0,8,0,8,0,,,,,,,,1.8948036241439052,time,559.0,5.880093645288358,0.0001224838934916004,0,53,[],0.0038411666464526206,None,None,226.36591319998843,226.36591319998843,0.2042963666608557,2.0990999908047607,226.58156299998518,226.36591319998843,,,,,,,,,,,gtyzck,001,fr,0,2022-04-27_11h49.33.830,Continuous,2022.1.1,None,
7,0,7,0,9,0,9,0,,,,,,,,1.8948036241439052,time,140.0,3.5545295940854906,0.0008871003284095266,0,54,[],0.00037776667159050703,None,['space'],228.5063225000049,228.5063225000049,0.19968176665133797,2.094485390795243,228.71846790000563,228.5063225000049,[-1.4973104000091553],,,,,,,,,,gtyzck,001,fr,0,2022-04-27_11h49.33.830,Continuous,2022.1.1,None,
7,0,7,0,10,0,10,0,,,,,,,,1.8948036241439052,time,157.0,3.1631266131982825,0.000630175655056479,0,55,[],0.007831066672224551,None,None,230.64493759998004,230.64493759998004,0.21570856668404303,2.110512190827948,230.86537039998802,230.64493759998004,,,,,,,,,,,gtyzck,001,fr,0,2022-04-27_11h49.33.830,Continuous,2022.1.1,None,
7,0,7,0,11,0,11,0,,,,,,,,1.8948036241439052,time,125.0,5.0,0.0012851978913844323,0,56,[],0.015074633323820308,None,None,232.79515170000377,232.79515170000377,0.21967563332873397,2.114479257472639,233.01725179998903,232.79515170000377,,,,,,,,,,,gtyzck,001,fr,0,2022-04-27_11h49.33.830,Continuous,2022.1.1,None,
7,0,7,0,12,0,12,0,,,,,,,,1.8948036241439052,time,396.0,6.552868969618744,0.00016499277349928687,0,57,[],0.005996566673275083,None,None,234.9373895000026,234.9373895000026,0.20732416666578501,2.10212779080969,235.1534013999917,234.9373895000026,,,,,,,,,,,gtyzck,001,fr,0,2022-04-27_11h49.33.830,Continuous,2022.1.1,None,
7,0,7,0,13,0,13,0,,,,,,,,1.8948036241439052,time,941.0,7.052457437391963,9.544172244876707e-05,0,58,[],0.0066454666666686535,None,None,237.07220500000403,237.07220500000403,0.20875976668321528,2.1035633908271203,237.2940544000012,237.07220500000403,,,,,,,,,,,gtyzck,001,fr,0,2022-04-27_11h49.33.830,Continuous,2022.1.1,None,
7,0,7,0,14,0,14,0,,,,,,,,1.8948036241439052,time,,,,1,58,[],0.0039638666494283825,None,None,239.20947939998587,239.20947939998587,0.20617366663645953,2.1009772907803645,239.42479279998224,239.20947939998587,,,,,,,,,,,gtyzck,001,fr,0,2022-04-27_11h49.33.830,Continuous,2022.1.1,None,
8,0,8,0,0,0,0,0,,,,,,244.09024960000534,None,1.4254168634708777,frequency,1954.0,5.424317304421306,0.0001358181328645702,0,34,[],0.012811666674679145,None,['space'],245.11848919998738,None,0.21545366669306532,1.640870530163943,245.33540179999545,None,[-2.4311450000095647],241.3567695999809,None,0.16666666666666666,,,,,,,gtyzck,001,fr,0,2022-04-27_11h49.33.830,Continuous,2022.1.1,None,
8,0,8,0,1,0,1,0,,,,,,,,2.493278675403453,frequency,2193.0,4.540741384679444,0.00013340097692098737,0,35,[],0.006043066648999229,None,None,246.7855026999896,246.7855026999896,0.2109757666476071,2.70425444205106,247.00305179998395,246.7855026999896,,,,,,,,,,,gtyzck,001,fr,0,2022-04-27_11h49.33.830,Continuous,2022.1.1,None,
8,0,8,0,2,0,2,0,,,,,,,,2.4156479937381823,frequency,2462.0,3.706112397582914,0.00013031535101513974,0,36,[],0.007235166645841673,None,None,249.5288345000008,249.5288345000008,0.21778926663682796,2.6334372603750102,249.74767799998517,249.5288345000008,,,,,,,,,,,gtyzck,001,fr,0,2022-04-27_11h49.33.830,Continuous,2022.1.1,None,
8,0,8,0,3,0,3,0,,,,,,,,1.2619310615987658,frequency,2764.0,2.6093856558436017,9.384032085314826e-05,0,37,[],0.007425366638926789,None,None,252.18777509999927,252.18777509999927,0.21268976663122885,1.4746208282299946,252.4066865000059,252.18777509999927,,,,,,,,,,,gtyzck,001,fr,0,2022-04-27_11h49.33.830,Continuous,2022.1.1,None,
8,0,8,0,4,0,4,0,,,,,,,,1.4567556031173081,frequency,3103.0,-0.6709147021990622,5.9771498130992334e-05,0,38,[],0.005325266654836014,None,None,253.69384100000025,253.69384100000025,0.21416656667133793,1.670922169788646,253.9062359999807,253.69384100000025,,,,,,,,,,,gtyzck,001,fr,0,2022-04-27_11h49.33.830,Continuous,2022.1.1,None,
8,0,8,0,5,0,5,0,,,,,,,,2.641343466537422,frequency,3483.0,-1.5297644234752932,6.277533500303052e-05,0,39,[],0.0033101666485890746,None,None,255.39375459999428,255.39375459999428,0.20237086663837545,2.8437143331757975,255.6109407999902,255.39375459999428,,,,,,,,,,,gtyzck,001,fr,0,2022-04-27_11h49.33.830,Continuous,2022.1.1,None,
8,0,8,0,6,0,6,0,,,,,,,,2.2936474892751226,frequency,3909.0,-0.8988930628720935,7.424733314209474e-05,0,40,[],0.0045575666590593755,None,None,258.280028499983,258.280028499983,0.20642866665730253,2.500076155932425,258.49965139999404,258.280028499983,,,,,,,,,,,gtyzck,001,fr,0,2022-04-27_11h49.33.830,Continuous,2022.1.1,None,
8,0,8,0,7,0,7,0,,,,,,,,1.0217157284945682,frequency,4388.0,2.979093982962077,0.00015590304222951978,0,41,[],0.0068499666813295335,None,None,260.8316195999796,260.8316195999796,0.22811566668679006,1.2498313951813582,261.05055829999037,260.8316195999796,,,,,,,,,,,gtyzck,001,fr,0,2022-04-27_11h49.33.830,Continuous,2022.1.1,None,
8,0,8,0,8,0,8,0,,,,,,,,2.9651105855258586,frequency,4925.0,3.0,0.00020847022442907278,0,42,[],0.0054373666644096375,None,['space'],262.0990695999935,262.0990695999935,0.20755966665456071,3.1726702521804193,262.32450550000067,262.0990695999935,[0.012581000017235056],,,,,,,,,,gtyzck,001,fr,0,2022-04-27_11h49.33.830,Continuous,2022.1.1,None,
8,0,8,0,9,0,9,0,,,,,,,,1.4879166267331139,frequency,5528.0,-8.003846044117633,5.303438687983058e-05,0,43,[],0.006686366687063128,None,None,265.3156858999864,265.3156858999864,0.2152428666886408,1.7031594934217547,265.52952989999903,265.3156858999864,,,,,,,,,,,gtyzck,001,fr,0,2022-04-27_11h49.33.830,Continuous,2022.1.1,None,
8,0,8,0,10,0,10,0,,,,,,,,2.049643143405495,frequency,6205.0,-1.1751332786459505,0.00010964627058549639,0,44,[],0.0005326666869223118,0.1954240666818805,None,267.0464097999793,267.0464097999793,0.1954240666818805,2.2450672100873756,267.2577822000021,267.0464097999793,,,,,,,,,,,gtyzck,001,fr,0,2022-04-27_11h49.33.830,Continuous,2022.1.1,None,
8,0,8,0,11,0,11,0,,,,,,,,1.2295540158121734,frequency,6965.0,1.0054129855387273,0.0001685937339042839,0,45,[],0.004721066652564332,None,None,269.3441354999959,269.3441354999959,0.20995486667379737,1.4395088824859708,269.55891059999703,269.3441354999959,,,,,,,,,,,gtyzck,001,fr,0,2022-04-27_11h49.33.830,Continuous,2022.1.1,None,
8,0,8,0,12,0,12,0,,,,,,,,1.7076878031272296,frequency,7818.0,2.2633820997053493,0.00022842124022315902,0,46,[],0.016439633298432454,None,None,270.8178429999971,270.8178429999971,0.21742203331086785,1.9251098364380974,271.038515799999,270.8178429999971,,,,,,,,,,,gtyzck,001,fr,0,2022-04-27_11h49.33.830,Continuous,2022.1.1,None,
8,0,8,0,13,0,13,0,,,,,,,,1.9423175562147807,frequency,,,,1,46,[],0.007308166677830741,None,None,272.7739357999817,272.7739357999817,0.2167903666559141,2.159107922870695,272.9919093999779,272.7739357999817,,,,,,,,,,,gtyzck,001,fr,0,2022-04-27_11h49.33.830,Continuous,2022.1.1,None,
9,0,9,0,0,0,0,0,,,,,"[0.16666666666666666, 0.3333333333333333, 0.5833333333333334, 0.3333333333333333, 0.16666666666666666, 0.3333333333333333, 0.5833333333333334, 0.5833333333333334, 0.16666666666666666, 0.3333333333333333, 0.5833333333333334, 0.16666666666666666, 0.3333333333333333, 0.16666666666666666, 0.5833333333333334]",280.67295059998287,None,1.0142894865728451,time,,,,1,58,[],0.012839866656577215,0.21090506666223519,None,281.72151439997833,None,0.21090506666223519,1.2251945532350803,281.9338679999928,None,,274.95701379998354,None,,,,,,,,gtyzck,001,fr,0,2022-04-27_11h49.33.830,Continuous,2022.1.1,None,
9,0,9,0,1,0,1,0,,,,,,,,1.0142894865728451,time,637.0,5.99945807400191,0.00010085581493328362,0,59,[],0.00263226663810201,0.19719506666297093,None,282.97378780000145,282.97378780000145,0.19719506666297093,1.211484553235816,283.1933394999942,282.97378780000145,,,,,,,,,,,gtyzck,001,fr,0,2022-04-27_11h49.33.830,Continuous,2022.1.1,None,
9,0,9,0,2,0,2,0,,,,,,,,1.0142894865728451,time,1203.0,0.2651222396092132,5.4171875152729846e-05,0,60,[],0.006268666649702936,None,None,284.23619679998956,284.23619679998956,0.21079516664030962,1.2250846532131547,284.43996369998786,284.23619679998956,,,,,,,,,,,gtyzck,001,fr,0,2022-04-27_11h49.33.830,Continuous,2022.1.1,None,
9,0,9,0,3,0,3,0,,,,,,,,1.0142894865728451,time,2549.0,-0.37233556642477517,7.937393132364533e-05,0,61,[],4.026666283607483e-05,None,None,285.49934109998867,285.49934109998867,0.20174856667290442,1.2160380532457495,285.71510469997884,285.49934109998867,,,,,,,,,,,gtyzck,001,fr,0,2022-04-27_11h49.33.830,Continuous,2022.1.1,None,
9,0,9,0,4,0,4,0,,,,,,,,1.0142894865728451,time,1350.0,2.6185425111533442,7.033187134143867e-05,0,62,[],0.0036170666571706533,0.2038484666554723,None,286.7598946999933,286.7598946999933,0.2038484666554723,1.2181379532283174,286.9796245000034,286.7598946999933,,,,,,,,,,,gtyzck,001,fr,0,2022-04-27_11h49.33.830,Continuous,2022.1.1,None,
9,0,9,0,5,0,5,0,,,,,,,,1.0142894865728451,time,4287.0,-1.0,9.24115649106846e-05,0,63,[],0.00666236667893827,None,None,288.0243824000063,288.0243824000063,0.21368886667187326,1.2279783532447184,288.24090459998115,288.0243824000063,,,,,,,,,,,gtyzck,001,fr,0,2022-04-27_11h49.33.830,Continuous,2022.1.1,None,
9,0,9,0,6,0,6,0,,,,,,,,1.0142894865728451,time,5401.0,-1.333824951138748,0.00011831987129656153,0,64,[],0.0016839666641317308,None,None,289.28217019999283,289.28217019999283,0.20037656667409465,1.2146660532469398,289.5009683999815,289.28217019999283,,,,,,,,,,,gtyzck,001,fr,0,2022-04-27_11h49.33.830,Continuous,2022.1.1,None,
9,0,9,0,7,0,7,0,,,,,,,,1.0142894865728451,time,3819.0,-2.8916031707922434,5.789376457942623e-05,0,65,[],0.0022674666543025523,None,None,290.5471492999932,290.5471492999932,0.19695986664737575,1.2112493532202209,290.76935960000264,290.5471492999932,,,,,,,,,,,gtyzck,001,fr,0,2022-04-27_11h49.33.830,Continuous,2022.1.1,None,
9,0,9,0,8,0,8,0,,,,,,,,1.0142894865728451,time,1701.0,2.621154405973317,8.29079450857255e-05,0,66,[],0.0066534666693769395,None,None,291.8121074999799,291.8121074999799,0.21096596668940037,1.2252554532622455,292.0260995999852,291.8121074999799,,,,,,,,,,,gtyzck,001,fr,0,2022-04-27_11h49.33.830,Continuous,2022.1.1,None,
9,0,9,0,9,0,9,0,,,,,,,,1.0142894865728451,time,955.0,7.949572559858772,0.00010682010886493414,0,67,[],0.0023798666952643543,None,None,293.0687445999938,293.0687445999938,0.203788066690322,1.2180775532631671,293.2830468000029,293.0687445999938,,,,,,,,,,,gtyzck,001,fr,0,2022-04-27_11h49.33.830,Continuous,2022.1.1,None,
9,0,9,0,10,0,10,0,,,,,,,,1.0142894865728451,time,506.0,4.099220786194838,0.00011303260073395161,0,68,[],0.006333566678222269,None,None,294.33219329998246,294.33219329998246,0.21198946665390395,1.226278953226749,294.5499915999826,294.33219329998246,,,,,,,,,,,gtyzck,001,fr,0,2022-04-27_11h49.33.830,Continuous,2022.1.1,None,
10,0,10,0,0,0,0,0,,,,,,300.03948330000276,None,1.9844043591289313,both,140.0,2.75515506962262,0.0008091033769728517,0,57,[],0.012731866649119183,None,None,301.0767247999902,None,0.20952476665843278,2.1939291257873643,301.28790850000223,None,,295.5873692999885,None,0.3333333333333333,,,,,,,gtyzck,001,fr,0,2022-04-27_11h49.33.830,Continuous,2022.1.1,None,
10,0,10,0,1,0,1,0,,,,,,,,1.9844043591289313,both,177.0,9.0,0.0009842010387860044,0,58,[],0.005637766647851095,None,None,303.30309929998475,303.30309929998475,0.21063806663732976,2.1950424257662613,303.51864500000374,303.30309929998475,,,,,,,,,,,gtyzck,001,fr,0,2022-04-27_11h49.33.830,Continuous,2022.1.1,None,
10,0,10,0,2,0,2,0,,,,,,,,1.9844043591289313,both,223.0,4.923210974745983,0.00038844935476196977,0,59,[],0.002638266625581309,None,None,305.5286589000025,305.5286589000025,0.1998637666401919,2.1842681257691234,305.7445963000064,305.5286589000025,,,,,,,,,,,gtyzck,001,fr,0,2022-04-27_11h49.33.830,Continuous,2022.1.1,None,
10,0,10,0,3,0,3,0,,,,,,,,1.9844043591289313,both,281.0,8.931500622624085,0.00037648917528671714,0,60,[],0.0036144666373729706,None,None,307.76360219999333,307.76360219999333,0.21180466664372943,2.196209025772661,307.98902989999624,307.76360219999333,,,,,,,,,,,gtyzck,001,fr,0,2022-04-27_11h49.33.830,Continuous,2022.1.1,None,
10,0,10,0,4,0,4,0,,,,,,,,1.9844043591289313,both,354.0,10.63946000049604,0.0003012302188821159,0,61,[],0.006509666709462181,None,None,309.998119099997,309.998119099997,0.21245866670506075,2.1968630258339923,310.21582749998197,309.998119099997,,,,,,,,,,,gtyzck,001,fr,0,2022-04-27_11h49.33.830,Continuous,2022.1.1,None,
10,0,10,0,5,0,5,0,,,,,,,,1.9844043591289313,both,446.0,8.99077293910483,0.00020891302144558917,0,62,[],0.0011473667109385133,None,['space'],312.2276883999875,312.2276883999875,0.201583666697843,2.1859880258267745,312.4406760999991,312.2276883999875,[0.1084852000058163],,,,,,,,,,gtyzck,001,fr,0,2022-04-27_11h49.33.830,Continuous,2022.1.1,None,
10,0,10,0,6,0,6,0,,,,,,,,1.9844043591289313,both,562.0,6.516193329834271,0.00013079949706309296,0,63,[],0.0020988666801713407,None,None,314.45896429999266,314.45896429999266,0.1998601667000912,2.1842645258290228,314.6743021000002,314.45896429999266,,,,,,,,,,,gtyzck,001,fr,0,2022-04-27_11h49.33.830,Continuous,2022.1.1,None,
10,0,10,0,7,0,7,0,,,,,,,,1.9844043591289313,both,,,,1,63,[],0.004268366668839008,None,None,316.6928713999805,316.6928713999805,0.21674946666462347,2.201153825793555,316.9135333999875,316.6928713999805,,,,,,,,,,,gtyzck,001,fr,0,2022-04-27_11h49.33.830,Continuous,2022.1.1,None,
11,0,11,0,0,0,0,0,,,,,,324.1986156999774,None,1.3523325130090555,both,140.0,12.046392940762518,0.002358120030737164,0,64,[],0.012025166681269184,None,None,325.2351074999897,None,0.2144178666640073,1.5667503796730629,325.44328320000204,None,,318.926621599996,None,0.3333333333333333,,,,,,,gtyzck,001,fr,0,2022-04-27_11h49.33.830,Continuous,2022.1.1,None,
11,0,11,0,1,0,1,0,,,,,,,,1.3523325130090555,both,177.0,13.0,0.0015598535263850947,0,65,[],0.006036666658474132,None,None,326.8298242999881,326.8298242999881,0.21343756665010005,1.5657700796591556,327.045105600002,326.8298242999881,,,,,,,,,,,gtyzck,001,fr,0,2022-04-27_11h49.33.830,Continuous,2022.1.1,None,
11,0,11,0,2,0,2,0,,,,,,,,1.3523325130090555,both,223.0,10.017056434692613,0.0006982752956928499,0,66,[],0.002283866662764922,None,None,328.4264111999946,328.4264111999946,0.20675506666884758,1.5590875796779031,328.64375239997753,328.4264111999946,,,,,,,,,,,gtyzck,001,fr,0,2022-04-27_11h49.33.830,Continuous,2022.1.1,None,
11,0,11,0,3,0,3,0,,,,,,,,1.3523325130090555,both,281.0,8.781467457684881,0.00037004184338580357,0,67,[],0.014542733319103718,None,None,330.03098419998423,330.03098419998423,0.2111444333277177,1.5634769463367733,330.2501023999939,330.03098419998423,,,,,,,,,,,gtyzck,001,fr,0,2022-04-27_11h49.33.830,Continuous,2022.1.1,None,
11,0,11,0,4,0,4,0,,,,,,,,1.3523325130090555,both,354.0,12.537382469173874,0.00037479575279968634,0,68,[],0.005819066660478711,None,None,331.63243749999674,331.63243749999674,0.21528656664304435,1.5676190796521,331.86031509999884,331.63243749999674,,,,,,,,,,,gtyzck,001,fr,0,2022-04-27_11h49.33.830,Continuous,2022.1.1,None,
11,0,11,0,5,0,5,0,,,,,,,,1.3523325130090555,both,446.0,12.281889059512372,0.0003051555803075641,0,69,[],0.005556666641496122,None,['space'],333.2350836999831,333.2350836999831,0.21480386666371487,1.5671363796727704,333.4567854999914,333.2350836999831,[-1.187314900016645],,,,,,,,,,gtyzck,001,fr,0,2022-04-27_11h49.33.830,Continuous,2022.1.1,None,
11,0,11,0,6,0,6,0,,,,,,,,1.3523325130090555,both,,,,1,69,[],0.014397433347767219,None,None,334.8377841000038,334.8377841000038,0.2147360333474353,1.5670685463564908,335.0592098000052,334.8377841000038,,,,,,,,,,,gtyzck,001,fr,0,2022-04-27_11h49.33.830,Continuous,2022.1.1,None,
11,0,11,0,7,0,7,0,,,,,,,,1.3523325130090555,both,708.0,8.312140507794291,0.00011541228459361114,0,70,[],0.0043756666709668934,None,None,336.4479224999959,336.4479224999959,0.2175078666768968,1.5698403796859524,336.6655410999956,336.4479224999959,,,,,,,,,,,gtyzck,001,fr,0,2022-04-27_11h49.33.830,Continuous,2022.1.1,None,
12,0,12,0,0,0,0,0,,,,,"[0.5833333333333334, 0.16666666666666666, 0.5833333333333334, 0.5833333333333334, 0.5833333333333334, 0.16666666666666666, 0.16666666666666666, 0.16666666666666666, 0.3333333333333333, 0.16666666666666666, 0.3333333333333333, 0.16666666666666666, 0.5833333333333334, 0.3333333333333333, 0.16666666666666666]",344.99558109999634,None,2.2245032146930437,time,523.0,7.937899840753572,0.00016923401550972917,0,69,[],0.012483266677008942,None,None,346.02880489997915,None,0.22567736665951088,2.4501805813525546,346.24816259997897,None,,338.0443199999863,None,,,,,,,,gtyzck,001,fr,0,2022-04-27_11h49.33.830,Continuous,2022.1.1,None,
12,0,12,0,1,0,1,0,,,,,,,,2.2245032146930437,time,,,,1,69,[],0.01570823331712745,None,None,348.50028290000046,348.50028290000046,0.21402893331833184,2.4385321480113755,348.71764590000384,348.50028290000046,,,,,,,,,,,gtyzck,001,fr,0,2022-04-27_11h49.33.830,Continuous,2022.1.1,None,
12,0,12,0,2,0,2,0,,,,,,,,2.2245032146930437,time,208.0,7.182188133607577,0.000571014876665561,0,70,[],0.006854566658148542,None,None,350.9743113000004,350.9743113000004,0.21312246666639112,2.437625681359435,351.1961617000052,350.9743113000004,,,,,,,,,,,gtyzck,001,fr,0,2022-04-27_11h49.33.830,Continuous,2022.1.1,None,
12,0,12,0,3,0,3,0,,,,,,,,2.2245032146930437,time,233.0,12.22316052086909,0.0008201585857801399,0,71,['time'],0.0009532666590530425,0.19682636664947495,None,353.44751209998503,353.44751209998503,0.19682636664947495,2.4213295813425186,353.6668642000004,353.44751209998503,,,,,"{'estimation': [[125.0, 5.656803996798913], [131.764097884139, 5.0], [133.97168281703654, 4.806845539202667], [143.5872943746293, 4.1298040244187595], [146.57437263995715, 4.0], [153.89305166811442, 3.6963971144441756], [164.93848884661162, 3.5696607855148055], [176.77669529663666, 3.7713946359238166], [182.16733459717517, 4.0], [189.46457081379947, 4.306083495973301], [200.7726167667057, 5.0], [203.0630990890585, 5.139407335373614], [214.559266795794, 6.0], [217.6376408240306, 6.225279328405497], [227.0987792051248, 7.0], [233.25824788420132, 7.489559550405547], [239.52214408436586, 8.0], [249.99999999999937, 8.838698906893072], [252.19078655768428, 9.0], [265.6522194183276, 10.0], [267.94336563407256, 10.168327913725333], [281.51485004096367, 11.0], [287.1745887492579, 11.350736396290126], [301.90257867828325, 12.0], [307.78610333622805, 12.264372656293247], [329.87697769322244, 12.80175497694125], [353.55339059327247, 12.891182637732594], [378.929141627598, 12.504909911430378], [394.4541356953831, 12.0], [406.12619817811606, 11.658967935934053], [420.9756428987493, 11.0], [435.2752816480601, 10.434290340278746], [443.7956144505736, 10.0], [465.18307808123086, 9.0], [466.5164957684015, 8.943363876085389], [485.71448849244746, 8.0], [499.9999999999975, 7.351329020316336], [508.0610521175213, 7.0], [531.3887674505196, 6.0], [535.8867312681438, 5.81732264619231], [560.1184802488585, 5.0], [574.3491774985143, 4.528908383279455], [598.8386184244614, 4.0], [615.5722066724546, 3.6401416583553647], [659.7539553864432, 3.279037914234684], [707.1067811865431, 3.499588427859919], [738.8341680577817, 4.0], [757.8582832551941, 4.288638538697214], [788.3820939592548, 5.0], [812.2523963562301, 5.531907077817688], [829.9361707509488, 6.0], [868.59009361371, 7.0], [870.5505632961181, 7.048667385141666], [908.3838044202571, 8.0], [933.0329915368008, 8.605892239122312], [952.513655279957, 9.0], [999.9999999999939, 9.973486085002465], [1001.9342411907952, 10.0], [1071.773462536285, 10.973921913812077], [1075.5269177812183, 11.0], [1148.698354997026, 11.512513244680584], [1231.1444133449063, 11.58158018554375], [1319.5079107728832, 11.262504784250478], [1359.6764662263963, 11.0], [1414.2135623730828, 10.671498301710413], [1505.5874482321406, 10.0], [1515.7165665103846, 9.930967975140398], [1624.5047927124563, 9.133190696017143], [1642.735832613572, 9.0], [1741.1011265922318, 8.316614584684274], [1787.9225657921959, 8.0], [1866.065983073597, 7.488850902458908], [1942.778280740755, 7.0], [1999.9999999999827, 6.646382306478705], [2108.450630020602, 6.0], [2143.5469250725646, 5.7985598462495975], [2294.374407139328, 5.0], [2297.396709994046, 4.984649765972961], [2462.2888266898062, 4.272490111679836], [2550.511239819548, 4.0], [2639.01582154576, 3.733962892153661], [2828.427124746159, 3.438163783615098], [3031.4331330207615, 3.39454117945155], [3249.0095854249043, 3.558756049229637], [3482.2022531844555, 3.830626291356527], [3651.3276703019524, 4.0], [3732.1319661471844, 4.080066193926639], [3999.9999999999554, 4.176697518578237], [4287.093850145118, 4.0332882521988775], [4311.953664776772, 4.0], [4594.793419988081, 3.6403305316280568], [4924.577653379601, 3.05905321944444], [4956.165770870882, 3.0], [5278.031643091506, 2.421270414605355], [5573.40735371431, 2.0], [5656.854249492303, 1.8840447255607693], [6062.866266041508, 1.6053547629798126], [6498.019170849792, 1.6869156327784247], [6799.169343189091, 2.0], [6964.404506368894, 2.166221774924745], [7464.2639322943505, 2.997888664501174], [7465.312855956631, 3.0], [7958.332827062365, 4.0], [7999.999999999872, 4.085039746900595]], 'plus_line': [[125.0, 1.995296658708504], [133.9716828170366, 1.3796616502316708], [140.3363092601324, 1.0], [143.58729437462938, 0.8059870041711223], [153.89305166811442, 0.4003269306634787], [164.93848884661162, 0.27234002653017997], [176.77669529663666, 0.4391770778454698], [189.46457081379947, 0.9287499453569054], [190.65771088629023, 1.0], [203.0630990890585, 1.6967566416700806], [207.2132142202546, 2.0], [217.6376408240306, 2.745772782313942], [220.8278820735657, 3.0], [233.25824788420132, 3.9975537785104294], [233.28984210497623, 4.0], [246.29272649860516, 5.0], [249.99999999999937, 5.285234637582949], [260.7101420697768, 6.0], [267.94336563407256, 6.490289168793022], [277.7776556663735, 7.0], [287.1745887492579, 7.491331381604881], [301.40904393332187, 8.0], [307.78610333622805, 8.22443946696189], [329.87697769322244, 8.645482168078338], [353.55339059327247, 8.752919569619904], [378.929141627598, 8.517554772849438], [403.2178215183069, 8.0], [406.12619817811606, 7.940723047196511], [435.2752816480601, 7.006396754095228], [435.41908547481796, 7.0], [459.3290551155593, 6.0], [466.5164957684015, 5.736253890986365], [482.1450972091218, 5.0], [499.9999999999975, 4.256350517304442], [505.7579031267895, 4.0], [528.5475691196903, 3.0], [535.8867312681438, 2.7044435799110844], [554.915692778723, 2.0], [574.3491774985143, 1.3160785144017004], [587.340361999937, 1.0], [615.5722066724546, 0.3060362832111695], [646.4603521190196, 0.0], [659.7539553864432, -0.14313318647086784], [692.0557244011402, 0.0], [707.1067811865431, 0.0577865143965961], [757.8582832551941, 0.8745966413293261], [762.9270312485102, 1.0], [804.2392477623465, 2.0], [812.2523963562301, 2.18537218165006], [843.140399721121, 3.0], [870.5505632961181, 3.736213196525052], [881.603478256588, 4.0], [922.282444491843, 5.0], [933.0329915368008, 5.258521099902027], [973.5024616600375, 6.0], [999.9999999999926, 6.495409377905645], [1043.1288957545078, 7.0], [1071.773462536285, 7.331000863731565], [1148.698354997026, 7.72905158014356], [1231.1444133449063, 7.750520890098326], [1319.5079107728832, 7.482818704468923], [1414.2135623730828, 7.031522639658168], [1419.225075972422, 7.0], [1515.7165665103846, 6.413653180880055], [1577.9190950031461, 6.0], [1624.5047927124563, 5.694933336695221], [1725.740378821002, 5.0], [1741.1011265922318, 4.894533136477165], [1866.065983073597, 4.038258332728947], [1871.8437605224615, 4.0], [1999.9999999999777, 3.1616196254744526], [2027.009145673972, 3.0], [2143.5469250725646, 2.3147824892591378], [2204.6938179823906, 2.0], [2297.3967099940432, 1.5296049442878292], [2424.5816362748924, 1.0], [2462.2888266898062, 0.8414636642763091], [2639.015821545763, 0.26549281755255005], [2767.568642144566, 0.0], [2828.427124746159, -0.13580865085292051], [3031.4331330207615, -0.3280345154816551], [3249.0095854249043, -0.2899541393700827], [3482.2022531844555, -0.0893543825590228], [3576.2691736707225, 0.0], [3732.1319661471844, 0.13103054644494827], [3999.9999999999504, 0.22870066999593852], [4287.093850145118, 0.10356561598662284], [4367.665982317354, 0.0], [4594.793419988081, -0.3003179266952151], [4924.577653379601, -0.8986521387046613], [4976.398681118017, -1.0], [5278.031643091506, -1.5967649197732219], [5538.679468420359, -2.0], [5656.854249492303, -2.1895782494081155], [6062.866266041508, -2.5202849019087967], [6498.019170849792, -2.451064195788909], [6913.146695193359, -2.0], [6964.404506368894, -1.949013473526998], [7464.2639322943505, -1.1462445202322264], [7547.664358618035, -1.0], [7999.999999999882, -0.21883108046061792]], 'minus_line': [[125.0, 9.37778288261417], [127.84547671802594, 9.0], [133.9716828170366, 8.257689068448958], [136.96147647654328, 8.0], [143.5872943746293, 7.482272547716725], [153.89305166811442, 7.0255628872817075], [156.65742994756934, 7.0], [164.93848884661162, 6.934526237590012], [167.9246690328651, 7.0], [176.77669529663666, 7.212808669241827], [189.46457081379947, 7.826392501658395], [192.02863077302436, 8.0], [203.0630990890585, 8.749151647815044], [206.1786551870359, 9.0], [217.63764082403046, 9.895354978865438], [218.8386616898487, 10.0], [230.4569069112959, 11.0], [233.25824788420132, 11.227863629745112], [241.8979039541725, 12.0], [249.99999999999923, 12.674683500530454], [253.84653630407908, 13.0], [265.8810081563658, 14.0], [267.94336563407256, 14.165930050087113], [279.06229259417574, 15.0], [287.1745887492579, 15.588235074948463], [294.60452135177496, 16.0], [307.78610333622805, 16.734747135799093], [316.44120721715734, 17.0], [329.87697769322244, 17.427732381578735], [353.55339059327247, 17.515266174026017], [376.0552313825566, 17.0], [378.9291416275976, 16.941774788555232], [400.94370401108677, 16.0], [406.12619817811606, 15.798113083439784], [420.46545884321273, 15.0], [435.2752816480601, 14.21373137398771], [438.8595062738752, 14.0], [455.9144059187665, 13.0], [466.5164957684015, 12.409732611374203], [474.1046248232118, 12.0], [492.28606784443565, 11.0], [499.9999999999975, 10.601923621285462], [513.5552235097605, 10.0], [535.2803021038781, 9.0], [535.8867312681438, 8.974219453495577], [565.6054452707274, 8.0], [574.3491774985143, 7.716084945549339], [609.5944080304611, 7.0], [615.5722066724546, 6.883448428212732], [659.7539553864432, 6.5910304163580244], [707.1067811865431, 6.836522308869801], [717.4618180586623, 7.0], [757.8582832551932, 7.634226067222222], [773.3505121879607, 8.0], [812.2523963562301, 8.87056923502645], [816.9495689186965, 9.0], [852.9552703870412, 10.0], [870.5505632961181, 10.445611377951138], [890.4459114120954, 11.0], [928.0850449337072, 12.0], [933.0329915368008, 12.126193035882261], [968.9465704833847, 13.0], [999.9999999999926, 13.714270448888595], [1016.8248642996904, 14.0], [1071.773462536285, 14.939438604835889], [1078.5022528602508, 15.0], [1148.6983549970246, 15.661103310905638], [1231.1444133449063, 15.782702959451324], [1319.5079107728832, 15.39592966007268], [1366.7127644517432, 15.0], [1414.2135623730828, 14.643465410652489], [1483.219596454413, 13.999999999999998], [1515.7165665103846, 13.724611398334204], [1599.0770262589706, 13.0], [1624.5047927124563, 12.796491053397482], [1730.4815577797278, 12.0], [1741.1011265922318, 11.925390058214077], [1866.065983073597, 11.10533961781815], [1882.1261420165838, 11.0], [1999.9999999999802, 10.276000507106108], [2043.4558820409784, 10.0], [2143.5469250725646, 9.40428467518186], [2212.773085951407, 9.0], [2297.396709994049, 8.53953705282205], [2413.122048175438, 8.0], [2462.2888266898062, 7.7878410357876104], [2639.015821545763, 7.293478642696426], [2828.427124746159, 7.104308799530828], [3031.4331330207615, 7.2326715135474835], [3249.0095854249043, 7.565047359652699], [3482.2022531844596, 7.948459630364777], [3523.650432655925, 8.0], [3732.1319661471844, 8.27740464071339], [3999.9999999999504, 8.401010456142506], [4287.093850145118, 8.256194918025653], [4472.0577588752085, 8.0], [4594.793419988081, 7.8480401204100145], [4924.577653379601, 7.267164019796494], [5066.026596612951, 7.0], [5278.031643091513, 6.632870901321871], [5656.854249492303, 6.099544440719511], [5792.4091996721745, 6.0], [6062.866266041508, 5.825360307301883], [6498.019170849792, 5.891986538675523], [6605.558341424696, 6.0], [6964.4045063688845, 6.368302391927699], [7321.3027635525805, 7.0], [7464.2639322943505, 7.252124519223879], [7770.042276928428, 8.0], [7999.999999999882, 8.552349320795335]]}",,,,,,gtyzck,001,fr,0,2022-04-27_11h49.33.830,Continuous,2022.1.1,None,
12,0,12,0,4,0,4,0,,,,,,,,2.2245032146930437,time,262.0,12.557200689237105,0.0006569711363296342,0,72,['time'],0.010749733308330178,None,['space'],355.9254932999902,355.9254932999902,0.2199963332968764,2.44449954798992,356.14567909998004,355.9254932999902,[-1.8138526999973692],,,,,,,,,,gtyzck,001,fr,0,2022-04-27_11h49.33.830,Continuous,2022.1.1,None,
12,0,12,0,5,0,5,0,,,,,,,,2.2245032146930437,time,370.0,12.479851836795754,0.0003548459036554046,0,73,['time'],0.004012666642665863,None,None,358.40398889998323,358.40398889998323,0.2141072666272521,2.438610481320296,358.6188777000061,358.40398889998323,,,,,,,,,,,gtyzck,001,fr,0,2022-04-27_11h49.33.830,Continuous,2022.1.1,None,
12,0,12,0,6,0,6,0,,,,,,,,2.2245032146930437,time,330.0,13.0,0.00042312997541048476,0,74,['time'],0.004694866685895249,None,None,360.8708241999848,360.8708241999848,0.21205576666397974,2.4365589813570234,361.08443699998315,360.8708241999848,,,,,,,,,,,gtyzck,001,fr,0,2022-04-27_11h49.33.830,Continuous,2022.1.1,None,
12,0,12,0,7,0,7,0,,,,,,,,2.2245032146930437,time,185.0,10.23479482327912,0.0010398896833786213,0,75,['time'],0.004653466661693528,None,None,363.3397156999854,363.3397156999854,0.21093476668465883,2.4354379813777025,363.55518749999464,363.3397156999854,,,,,,,,,,,gtyzck,001,fr,0,2022-04-27_11h49.33.830,Continuous,2022.1.1,None,
12,0,12,0,8,0,8,0,,,,,,,,2.2245032146930437,time,784.0,12.923453038122098,0.00017310128830252448,0,76,['time'],0.0038261666777543724,None,None,365.8061337999825,365.8061337999825,0.21648096668650396,2.4409841813795476,366.0270154000027,365.8061337999825,,,,,,,,,,,gtyzck,001,fr,0,2022-04-27_11h49.33.830,Continuous,2022.1.1,None,
12,0,12,0,9,0,9,0,,,,,,,,2.2245032146930437,time,988.0,12.468369444257622,0.0001836593338723371,0,77,['time'],0.004552566650090739,None,None,368.2786952999886,368.2786952999886,0.21213856665417552,2.436641781347219,368.4926601999905,368.2786952999886,,,,,,,,,,,gtyzck,001,fr,0,2022-04-27_11h49.33.830,Continuous,2022.1.1,None,
12,0,12,0,10,0,10,0,,,,,,,,2.2245032146930437,time,1109.0,7.937673314339554,0.00012123376222190705,0,78,['time'],0.004517366673098877,None,['space'],370.7450081999996,370.7450081999996,0.21476856668596156,2.4392717813790052,370.96650129999034,370.7450081999996,[-0.9056960000016261],,,,,,,,,,gtyzck,001,fr,0,2022-04-27_11h49.33.830,Continuous,2022.1.1,None,
13,0,13,0,0,0,0,0,,,,,,379.35675839998294,None,1.6618847729198616,both,134.0,7.134100580019885,0.0014609725663496324,0,71,"['time', 'both']",0.012707666668575257,None,None,380.3890892000054,None,0.23197166668251157,1.8938564396023732,380.61151560000144,None,,373.21891830000095,None,0.16666666666666666,,"{'estimation': [[125.0, 10.168819035418167], [127.80812040720056, 11.0], [131.3964761165963, 12.0], [133.9716828170366, 12.6506819124542], [135.41938648756525, 13.0], [139.5958655282558, 14.0], [143.5872943746293, 14.89728177430067], [144.2016399869842, 15.0], [150.15856702234078, 16.0], [153.8930516681145, 16.610447274762492], [158.27362626522026, 17.0], [164.93848884661162, 17.591579709327114], [176.77669529663666, 17.806778188472347], [189.46457081379947, 17.39689015885134], [196.27742606189568, 17.0], [203.0630990890585, 16.62168628624061], [213.92439567863667, 16.0], [217.6376408240306, 15.797336042458145], [233.25824788420132, 15.19095169861178], [245.22512973532434, 15.0], [249.99999999999937, 14.92884787919812], [267.94336563407256, 14.974209812958504], [270.95338396861206, 15.0], [287.1745887492579, 15.133576898625405], [307.78610333622805, 15.130231609034993], [314.3819669933089, 15.0], [329.87697769322244, 14.71723063736875], [347.4554900892311, 14.0], [353.55339059327247, 13.766387839910154], [366.72325199976314, 13.0], [378.929141627598, 12.32825101128053], [383.97557388834844, 12.0], [399.757665755277, 11.0], [406.12619817811606, 10.618268156130574], [416.7981143681325, 10.0], [434.7218745356656, 9.000000000000002], [435.2752816480601, 8.970360901778026], [459.3979181248176, 8.0], [466.5164957684015, 7.7237648727770125], [499.9999999999975, 7.134337361055447], [535.8867312681438, 7.290987925965065], [569.2027785186793, 8.0], [574.3491774985143, 8.107867770456672], [603.7678387392303, 9.0], [615.5722066724546, 9.346470786574283], [636.6752806908199, 10.0], [659.7539553864432, 10.68282741824314], [672.75430989904, 11.0], [707.1067811865431, 11.796512360569864], [722.6335077859362, 12.0], [757.8582832551941, 12.442670755713275], [812.2523963562301, 12.49463523369007], [867.1371142552686, 12.0], [870.5505632961181, 11.970162505967895], [933.0329915368008, 11.01563504621778], [933.9165752248725, 11.0], [991.0705476651052, 10.0], [999.9999999999926, 9.845938163767334], [1052.7219806028013, 9.0], [1071.773462536285, 8.70059616891997], [1130.0978696221446, 8.0], [1148.698354997026, 7.7839583528510925], [1231.1444133449063, 7.230440041701373], [1319.5079107728832, 7.0751007030648285], [1414.2135623730828, 7.274165191662247], [1515.7165665103828, 7.712185782720111], [1572.9779137040634, 8.0], [1624.5047927124563, 8.252955285762862], [1741.1011265922318, 8.753366637550533], [1826.7498821562388, 9.0], [1866.065983073597, 9.111569601966353], [1999.9999999999802, 9.26614779118346], [2143.5469250725646, 9.210293066733119], [2288.2897513019584, 9.0], [2297.396709994046, 8.987221160998976], [2462.2888266898062, 8.681200287348172], [2639.01582154576, 8.380998620068194], [2828.427124746159, 8.157976579951114], [3031.4331330207615, 8.035104146287456], [3133.148800647666, 8.0], [3249.0095854249043, 7.961390119437986], [3482.2022531844596, 7.807736702512163], [3732.1319661471844, 7.393572661722757], [3852.6783527778603, 7.0], [3999.999999999946, 6.535475940259035], [4106.686637720184, 6.0], [4287.093850145118, 5.123234775483], [4306.076537026273, 5.0], [4461.148987917052, 4.0], [4594.793419988081, 3.173672599766781], [4619.05017293554, 3.0], [4758.386697432942, 2.0], [4903.203604011854, 1.0], [4924.577653379601, 0.8598730997477946], [5050.261896509926, 0.0], [5199.218925617515, -1.0], [5278.031643091506, -1.4968364694800802], [5370.106833858509, -2.0], [5556.927367261902, -3.0], [5656.854249492303, -3.5032833895169397], [5810.020634983838, -4.0], [6062.866266041508, -4.777472885337472], [6408.291068076551, -5.0], [6498.0191708498005, -5.055373034961948], [6528.53257746515, -5.0], [6964.404506368894, -4.251754841570435], [7034.727062869459, -4.0], [7314.146168204333, -3.0], [7464.2639322943505, -2.481074200521225], [7573.3979902331685, -2.0], [7789.613816806864, -1.0], [7999.999999999882, -0.029466798697972856]], 'plus_line': [[125.0, 4.759690872842478], [125.74365482505607, 5.0], [128.7912140640427, 6.0], [131.7725505183835, 7.0], [133.9716828170366, 7.684452722707697], [135.2786903973327, 8.0], [139.31721818427093, 9.0], [143.3072339394937, 10.0], [143.5872943746293, 10.065435380346607], [149.52671145695473, 11.0], [153.8930516681145, 11.698756076183273], [157.70112850567847, 12.0], [164.93848884661162, 12.554869622573637], [176.77669529663666, 12.678216511822052], [189.46457081379947, 12.228459942519809], [193.42340928165822, 12.0], [203.0630990890585, 11.453141467040243], [211.34894490991837, 11.0], [217.6376408240306, 10.662924017607457], [233.25824788420132, 10.119238104859946], [244.58580903507885, 10.0], [249.99999999999923, 9.941933678061076], [256.483921175926, 10.0], [267.94336563407256, 10.090469073049384], [287.1745887492579, 10.355927835005959], [307.78610333622805, 10.464082847258272], [329.87697769322244, 10.158268629528902], [334.05721015591564, 10.0], [353.55339059327247, 9.285677984881033], [358.5841128905457, 9.0], [377.11372509644445, 8.0], [378.929141627598, 7.906231472527149], [392.8445268889443, 7.0], [406.12619817811606, 6.217960658395036], [409.79896029043647, 6.0], [426.9271515663547, 5.0], [435.2752816480601, 4.550692640884559], [448.23895871788187, 4.0], [466.5164957684015, 3.2602237825118348], [479.80355153880134, 3.0], [499.9999999999981, 2.596300265564598], [535.8867312681438, 2.6951503370468886], [549.9797343044761, 3.0], [574.3491774985143, 3.4932842923319707], [590.3475715307233, 4.0], [615.5722066724546, 4.778394775214557], [622.1995272848739, 5.0], [652.8566230526548, 6.0], [659.7539553864432, 6.214135450127089], [689.5773663226769, 7.0], [707.1067811865431, 7.438547279607392], [744.980625092075, 8.0], [757.8582832551941, 8.17530662821071], [812.2523963562301, 8.246678781702517], [837.4075038392604, 8.0], [870.5505632961192, 7.667831648865045], [909.6679311942968, 7.0], [933.0329915368008, 6.605298156160378], [964.0511507334465, 6.0], [999.9999999999926, 5.3184257353832844], [1018.254613292636, 5.0], [1071.773462536285, 4.092309796714483], [1079.1659926989894, 4.0], [1148.698354997026, 3.1496289337891374], [1172.385732337098, 3.0], [1231.1444133449063, 2.626831596535915], [1319.5079107728832, 2.545206191997723], [1414.2135623730828, 2.8119757316207226], [1452.9097888427434, 3.0], [1515.7165665103846, 3.275974635331952], [1624.5047927124563, 3.803087983113986], [1670.7589607346133, 4.0], [1741.1011265922318, 4.27450910806448], [1866.065983073597, 4.597767626080295], [1999.9999999999802, 4.723281207434157], [2143.5469250725646, 4.631697925825398], [2297.396709994046, 4.372850610705903], [2462.2888266898062, 4.038585647556951], [2482.7574640885496, 4.0], [2639.015821545763, 3.6951277951533523], [2828.427124746159, 3.4377488366194164], [3031.4331330207615, 3.2757331984679103], [3249.0095854249043, 3.1555584439128075], [3435.2780927571125, 2.9999999999999996], [3482.2022531844555, 2.9586542142409376], [3732.1319661471844, 2.503018883284394], [3886.601785115962, 2.0], [3999.9999999999504, 1.6380152094994234], [4126.287648472417, 1.0], [4287.093850145118, 0.24410050969614083], [4324.095258470602, 0.0], [4478.265692553894, -1.0], [4594.793419988081, -1.675119251230378], [4638.97403798714, -2.0], [4776.2420155355, -3.0], [4924.577653379601, -3.9375942850774734], [4933.539699040003, -4.0], [5074.193198155826, -5.0], [5232.863792349364, -6.0], [5278.031643091513, -6.262882539396928], [5410.451513368052, -7.0], [5607.400842428552, -8.0], [5656.854249492303, -8.234517956934525], [5901.669867753395, -9.0], [6062.866266041501, -9.474001285326267], [6498.019170849792, -9.684506145935053], [6851.42848523484, -9.0], [6964.404506368894, -8.7953474104799], [7191.699008444319, -8.0], [7463.857610271808, -7.0], [7464.2639322943505, -6.998579597985993], [7716.974762868214, -6.0], [7942.148202735086, -5.0], [7999.999999999882, -4.747444382904055]], 'minus_line': [[125.0, 15.743438782057291], [125.93628535927434, 16.0], [129.7232908348939, 17.0], [133.9716828170366, 17.952818384274103], [134.15891297785055, 18.0], [138.05171933461122, 19.0], [142.3794098221315, 20.0], [143.5872943746293, 20.26397086357611], [147.36950289494197, 21.0], [152.79703949107608, 22.0], [153.89305166811442, 22.196606721978025], [161.16945609530387, 23.0], [164.93848884661162, 23.41137515029805], [176.77669529663666, 23.76776523169471], [189.46457081379947, 23.39971011551608], [195.94272474713082, 23.0], [203.0630990890585, 22.58743710940199], [212.31985788416748, 22.0], [217.63764082403074, 21.6825312776622], [232.46884009025135, 21.0], [233.25824788420132, 20.966524568747705], [249.99999999999937, 20.607926364360104], [267.94336563407256, 20.534861534395795], [287.1745887492579, 20.557848916078633], [307.78610333622805, 20.399088794319987], [321.9269609358529, 20.0], [329.87697769322244, 19.80110712466753], [346.0787796865134, 19.0], [353.55339059327247, 18.655188660529227], [363.54402737825086, 18.0], [378.929141627598, 17.000730988014848], [378.93952978225667, 17.0], [393.5219286983975, 16.0], [406.12619817811606, 15.124554110881153], [408.16986900739704, 15.0], [424.76348990527094, 14.0], [435.2752816480601, 13.370728202728174], [444.21915733668635, 13.0], [466.5164957684015, 12.088493832931317], [471.7929435543562, 12.0], [499.9999999999975, 11.563872640163146], [535.8867312681438, 11.828353161746278], [542.9451024879185, 12.0], [574.3491774985143, 12.77021173052101], [581.375365345653, 13.0], [612.6318936411094, 14.0], [615.5722066724546, 14.092255489228691], [644.035106735915, 15.0], [659.7539553864432, 15.471955085199852], [681.9896126075691, 16.0], [707.1067811865431, 16.57429313920096], [742.405246665206, 17.0], [757.8582832551941, 17.18947106189306], [812.2523963562301, 17.23968994961305], [839.4083160282474, 17.0], [870.5505632961181, 16.74974426288142], [922.3320775672569, 16.0], [933.0329915368008, 15.850864616657667], [984.3670594919316, 15.0], [999.9999999999926, 14.745159818182046], [1047.7130165052988, 14.0], [1071.773462536285, 13.632354519870532], [1122.8209928436077, 13.0], [1148.6983549970273, 12.694996735979855], [1231.1444133449063, 12.065509697486656], [1253.3261450065322, 12.0], [1319.5079107728816, 11.830394234139815], [1414.2135623730828, 11.961873048977662], [1423.2091644371828, 12.0], [1515.7165665103846, 12.402312414086879], [1624.5047927124563, 12.962122223956067], [1632.467740120241, 12.999999999999998], [1741.1011265922318, 13.529844923414963], [1866.065983073597, 13.928914459452276], [1914.749167182394, 14.0], [1999.9999999999802, 14.133188616895337], [2143.5469250725646, 14.119700828220836], [2237.2710714779882, 14.0], [2297.396709994046, 13.931876069352919], [2462.2888266898062, 13.658677857582294], [2639.01582154576, 13.37342338895417], [2828.427124746159, 13.163304815361947], [3031.4331330207615, 13.072575837444488], [3249.0095854249043, 13.053040724723825], [3373.642781439851, 13.0], [3482.2022531844555, 12.959004667626697], [3732.1319661471844, 12.600021584273046], [3918.5422284944802, 12.0], [3999.9999999999554, 11.74997615192893], [4148.942812382141, 11.0], [4287.093850145118, 10.301746267270897], [4333.500969576655, 10.0], [4484.564351591954, 9.0], [4594.793419988081, 8.258742406788292], [4631.067890738804, 8.0], [4767.781842109652, 7.0], [4898.007453824022, 5.999999999999999], [4924.577653379601, 5.806928676418244], [5042.764749696001, 5.0], [5179.960424018983, 4.0], [5278.031643091506, 3.297459526702406], [5331.1700470742135, 3.0], [5506.669542788585, 2.0], [5656.854249492303, 1.1374076578298984], [5695.227770733716, 1.0], [5983.543093820973, 0.0], [6062.866266041508, -0.2624152384435742], [6498.019170849792, -0.6387681085444676], [6899.0677166237765, 0.0], [6964.404506368894, 0.10284221576536012], [7195.759758344421, 1.0], [7464.2639322943505, 1.9417512195379172], [7475.716428229334, 2.0], [7657.992608663371, 3.0], [7846.240472801578, 4.0], [7999.999999999872, 4.734709823944553]]}",,,,,gtyzck,001,fr,0,2022-04-27_11h49.33.830,Continuous,2022.1.1,None,
13,0,13,0,1,0,1,0,,,,,,,,1.6618847729198616,both,150.0,16.33389063097728,0.003279399737560227,0,72,"['time', 'both']",0.010360433312598616,None,None,382.3075927000027,382.3075927000027,0.21749773330520838,1.87938250622507,382.5315211999987,382.3075927000027,,,,,,,,,,,gtyzck,001,fr,0,2022-04-27_11h49.33.830,Continuous,2022.1.1,None,
13,0,13,0,2,0,2,0,,,,,,,,1.6618847729198616,both,168.0,8.079571933082653,0.0009683346650069033,0,73,"['time', 'both']",0.0031155666802078485,None,None,384.2265125999984,384.2265125999984,0.20951706665800884,1.8714018395778704,384.44572679998237,384.2265125999984,,,,,,,,,,,gtyzck,001,fr,0,2022-04-27_11h49.33.830,Continuous,2022.1.1,None,
13,0,13,0,3,0,3,0,,,,,,,,1.6618847729198616,both,189.0,19.0,0.00272280704680136,0,74,"['time', 'both']",0.016102133318781853,None,['space'],386.13167319999775,386.13167319999775,0.2165154333342798,1.8784002062541414,386.35217629998806,386.13167319999775,[0.028204100002767518],,,,,,,,,,gtyzck,001,fr,0,2022-04-27_11h49.33.830,Continuous,2022.1.1,None,
13,0,13,0,4,0,4,0,,,,,,,,1.6618847729198616,both,212.0,13.297929465244248,0.0011183807518285358,0,75,"['time', 'both']",0.014978533319663256,None,None,388.0512170000002,388.0512170000002,0.21553593332646415,1.8774207062463257,388.26956469999277,388.0512170000002,,,,,,,,,,,gtyzck,001,fr,0,2022-04-27_11h49.33.830,Continuous,2022.1.1,None,
13,0,13,0,5,0,5,0,,,,,,,,1.6618847729198616,both,,,,1,75,"['time', 'both']",0.0032611667120363563,None,None,389.9656992999953,389.9656992999953,0.20731406670529395,1.8691988396251555,390.1773506999889,389.9656992999953,,,,,,,,,,,gtyzck,001,fr,0,2022-04-27_11h49.33.830,Continuous,2022.1.1,None,
13,0,13,0,6,0,6,0,,,,,,,,1.6618847729198616,both,267.0,8.212995903053795,0.0003847794502084217,0,76,"['time', 'both']",0.0005447666335385293,None,None,391.87082889999147,391.87082889999147,0.20368026665528305,1.8655650395751446,392.09273069998017,391.87082889999147,,,,,,,,,,,gtyzck,001,fr,0,2022-04-27_11h49.33.830,Continuous,2022.1.1,None,
13,0,13,0,7,0,7,0,,,,,,,,1.6618847729198616,both,300.0,13.766224826344548,0.0005586801873064757,0,77,"['time', 'both']",0.01364013334386982,None,None,393.7923995000019,393.7923995000019,0.22262693333323114,1.8845117062530927,394.01284769998165,393.7923995000019,,,,,,,,,,,gtyzck,001,fr,0,2022-04-27_11h49.33.830,Continuous,2022.1.1,None,
13,0,13,0,8,0,8,0,,,,,,,,1.6618847729198616,both,337.0,13.335243904385655,0.00043134367676195203,0,78,"['time', 'both']",0.016457633348181844,None,None,395.7100339999888,395.7100339999888,0.21543543334701099,1.8773202062668726,395.9269553000049,395.7100339999888,,,,,,,,,,,gtyzck,001,fr,0,2022-04-27_11h49.33.830,Continuous,2022.1.1,None,
13,0,13,0,9,0,9,0,,,,,,,,1.6618847729198616,both,378.0,16.404044094506503,0.0005437776777884814,0,79,"['time', 'both']",0.003313966648420319,None,['space'],397.6250278999796,397.6250278999796,0.2083342666446697,1.8702190395645313,397.841505999997,397.6250278999796,[-0.8576959999918472],,,,,,,,,,gtyzck,001,fr,0,2022-04-27_11h49.33.830,Continuous,2022.1.1,None,
14,0,14,0,0,0,0,0,,,,,,404.1590879999858,None,1.6892194044283444,frequency,125.0,5.0,0.0012851978913844323,0,47,"['time', 'both']",0.012876366672571748,None,None,405.177666100004,None,0.23368296667467803,1.9229023711030224,405.402442599996,None,,399.52774619997945,None,0.3333333333333333,,,,,,,gtyzck,001,fr,0,2022-04-27_11h49.33.830,Continuous,2022.1.1,None,
14,0,14,0,1,0,1,0,,,,,,,,1.2002935503113301,frequency,,,,1,47,"['time', 'both']",0.002733766654273495,None,None,407.1199943999818,407.1199943999818,0.21022866666316986,1.4105222169745,407.33199750000495,407.1199943999818,,,,,,,,,,,gtyzck,001,fr,0,2022-04-27_11h49.33.830,Continuous,2022.1.1,None,
14,0,14,0,2,0,2,0,,,,,,,,2.0375845091522446,frequency,198.0,3.2116631702450014,0.00039473895187781203,0,48,"['time', 'both']",0.01603283331496641,None,None,408.56079299998237,408.56079299998237,0.21647633332759142,2.254060842479836,408.77418979999493,408.56079299998237,,,,,,,,,,,gtyzck,001,fr,0,2022-04-27_11h49.33.830,Continuous,2022.1.1,None,
14,0,14,0,3,0,3,0,,,,,,,,1.9126003254906063,frequency,249.0,4.8267025731486575,0.00029536291532940116,0,49,"['time', 'both']",0.009541633306071162,None,None,410.8550961999863,410.8550961999863,0.2110626333160326,2.123662958806639,411.07789200000116,410.8550961999863,,,,,,,,,,,gtyzck,001,fr,0,2022-04-27_11h49.33.830,Continuous,2022.1.1,None,
14,0,14,0,4,0,4,0,,,,,,,,2.1678600410249405,frequency,314.0,5.198210210125601,0.00018135140211930463,0,50,"['time', 'both']",0.01620203332277015,None,None,413.0279641999805,413.0279641999805,0.22742453331011347,2.395284574335054,413.24777509999694,413.0279641999805,,,,,,,,,,,gtyzck,001,fr,0,2022-04-27_11h49.33.830,Continuous,2022.1.1,None,
14,0,14,0,5,0,5,0,,,,,,,,2.0240500065810227,frequency,396.0,8.154038873841909,0.00019839166316063593,0,51,"['time', 'both']",0.015246433322317898,None,None,415.4497146999929,415.4497146999929,0.2147886333114002,2.238838639892423,415.6654593999847,415.4497146999929,,,,,,,,,,,gtyzck,001,fr,0,2022-04-27_11h49.33.830,Continuous,2022.1.1,None,
14,0,14,0,6,0,6,0,,,,,,,,1.5812470314697642,frequency,499.0,6.595979034683454,0.00015278455353838895,0,52,"['time', 'both']",0.014306333294371143,None,None,417.7228952999867,417.7228952999867,0.21127293328754604,1.7925199647573102,417.9395647000056,417.7228952999867,,,,,,,,,,,gtyzck,001,fr,0,2022-04-27_11h49.33.830,Continuous,2022.1.1,None,
14,0,14,0,7,0,7,0,,,,,,,,2.3214823536261333,frequency,629.0,5.717397439376827,9.912016587012583e-05,0,53,"['time', 'both']",0.010849333339137957,None,None,419.56420799999614,419.56420799999614,0.21690883333212696,2.5383911869582603,419.78553150000516,419.56420799999614,,,,,,,,,,,gtyzck,001,fr,0,2022-04-27_11h49.33.830,Continuous,2022.1.1,None,
14,0,14,0,8,0,8,0,,,,,,,,1.8666766991063861,frequency,792.0,8.490116566024847,0.00010293754541077418,0,54,"['time', 'both']",0.014858633308904245,None,['space'],422.1432228999911,422.1432228999911,0.213812133326428,2.080488832432814,422.360440199991,422.1432228999911,[0.12902419999591075],,,,,,,,,,gtyzck,001,fr,0,2022-04-27_11h49.33.830,Continuous,2022.1.1,None,
14,0,14,0,9,0,9,0,,,,,,,,1.5565049606746926,frequency,998.0,6.804938303994097,9.630662413167421e-05,0,55,"['time', 'both']",0.01510383331333287,None,None,424.261677100003,424.261677100003,0.21267213331884705,1.7691770939935396,424.47905049999827,424.261677100003,,,,,,,,,,,gtyzck,001,fr,0,2022-04-27_11h49.33.830,Continuous,2022.1.1,None,
14,0,14,0,10,0,10,0,,,,,,,,2.1485359385717735,frequency,1257.0,4.993162389763711,9.654755682351275e-05,0,56,"['time', 'both']",0.015966833307174966,None,None,426.07202930000494,426.07202930000494,0.24535523331724107,2.3938911718890146,426.3067334999796,426.07202930000494,,,,,,,,,,,gtyzck,001,fr,0,2022-04-27_11h49.33.830,Continuous,2022.1.1,None,
14,0,14,0,11,0,11,0,,,,,,,,1.9045543794158681,frequency,1584.0,4.98829242398392,9.838195744634251e-05,0,57,"['time', 'both']",0.015713233326096088,None,['space'],428.4924054000003,428.4924054000003,0.22185053332941607,2.126404912745284,428.71228429998155,428.4924054000003,[-0.9893163999950048],,,,,,,,,,gtyzck,001,fr,0,2022-04-27_11h49.33.830,Continuous,2022.1.1,None,
14,0,14,0,12,0,12,0,,,,,,,,1.5072805916841714,frequency,1996.0,5.30018428800804,0.0001373818836730659,0,58,"['time', 'both']",0.011883933329954743,None,None,430.65716289999546,430.65716289999546,0.21532993332948536,1.7226105250136567,430.88342579998425,430.65716289999546,,,,,,,,,,,gtyzck,001,fr,0,2022-04-27_11h49.33.830,Continuous,2022.1.1,None,
14,0,14,0,13,0,13,0,,,,,,,,1.352650653043262,frequency,2515.0,4.254985190488239,0.00013866935617515755,0,59,"['time', 'both']",0.01526833334355615,None,None,432.4172663000063,432.4172663000063,0.21365273333503865,1.5663033863783007,432.63333630000125,432.4172663000063,,,,,,,,,,,gtyzck,001,fr,0,2022-04-27_11h49.33.830,Continuous,2022.1.1,None,
15,0,15,0,0,0,0,0,,,,,"[0.3333333333333333, 0.16666666666666666, 0.5833333333333334, 0.5833333333333334, 0.16666666666666666, 0.16666666666666666, 0.5833333333333334, 0.3333333333333333, 0.5833333333333334, 0.5833333333333334, 0.5833333333333334, 0.3333333333333333, 0.3333333333333333, 0.5833333333333334, 0.3333333333333333]",440.80377769999905,None,2.8389294913467276,none,2609.0,0.43170378467137294,8.31536877241074e-05,0,36,"['time', 'both']",0.007302066689589992,None,None,441.8389392999816,None,0.20597786668804474,3.0449073580347723,442.054266799998,None,,434.02183149999473,None,,,,,,,,gtyzck,001,fr,0,2022-04-27_11h49.33.830,Continuous,2022.1.1,None,
15,0,15,0,1,0,1,0,,,,,,,,2.8661397831703983,none,7379.0,-0.01982781055272556,0.00016234402230622732,0,37,"['time', 'both']",0.0005135666579008102,None,None,444.92573089999496,444.92573089999496,0.20206966667319648,3.068209449843595,445.14404729998205,444.92573089999496,,,,,,,,,,,gtyzck,001,fr,0,2022-04-27_11h49.33.830,Continuous,2022.1.1,None,
15,0,15,0,2,0,2,0,,,,,,,,2.2823704743790882,none,,,,1,37,"['time', 'both']",0.001356766646495089,None,None,448.04441639999277,448.04441639999277,0.20598306664032862,2.488353541019417,448.2649187000061,448.04441639999277,,,,,,,,,,,gtyzck,001,fr,0,2022-04-27_11h49.33.830,Continuous,2022.1.1,None,
15,0,15,0,3,0,3,0,,,,,,,,2.480631203815453,none,922.0,6.514667208717508,8.856838713911178e-05,0,38,"['time', 'both']",0.00010496666072867811,None,None,450.58392549998825,450.58392549998825,0.21294726667110808,2.6935784704865613,450.8079102000047,450.58392549998825,,,,,,,,,,,gtyzck,001,fr,0,2022-04-27_11h49.33.830,Continuous,2022.1.1,None,
15,0,15,0,4,0,4,0,,,,,,,,2.980171652897999,none,615.0,0.7505485589644296,5.8333629311656794e-05,0,39,"['time', 'both']",0.016101933317258954,None,None,453.3206033000024,453.3206033000024,0.2161032333096955,3.1962748862076946,453.5371644999832,453.3206033000024,,,,,,,,,,,gtyzck,001,fr,0,2022-04-27_11h49.33.830,Continuous,2022.1.1,None,
15,0,15,0,5,0,5,0,,,,,,,,1.3086803857132014,none,1382.0,1.0224651061950483,5.763222540797133e-05,0,40,"['time', 'both']",0.015322533319704235,None,None,456.54851259998395,456.54851259998395,0.2146804333315231,1.5233608190447245,456.7594163999893,456.54851259998395,,,,,,,,,,,gtyzck,001,fr,0,2022-04-27_11h49.33.830,Continuous,2022.1.1,None,
15,0,15,0,6,0,6,0,,,,,,,,2.206501142686852,none,548.0,2.24050583347732,8.277728989916248e-05,0,41,"['time', 'both']",0.014372233330504969,None,None,458.111379799986,458.111379799986,0.2252805333409924,2.4317816760278443,458.3344502999971,458.111379799986,,,,,,,,,,,gtyzck,001,fr,0,2022-04-27_11h49.33.830,Continuous,2022.1.1,None,
15,0,15,0,7,0,7,0,,,,,,,,2.342258700790673,none,3287.0,-0.0963145226109301,7.063650531330579e-05,0,42,"['time', 'both']",0.00022656668443232775,None,None,460.57495489998837,460.57495489998837,0.2023514666943811,2.5446101674850543,460.79423889998,460.57495489998837,,,,,,,,,,,gtyzck,001,fr,0,2022-04-27_11h49.33.830,Continuous,2022.1.1,None,
15,0,15,0,8,0,8,0,,,,,,,,2.8933353711950867,none,1741.0,2.0433253405747536,7.985709363958753e-05,0,43,"['time', 'both']",0.015189233323326334,None,None,463.1691385000013,463.1691385000013,0.21938193330424838,3.112717304499335,463.3883750999812,463.1691385000013,,,,,,,,,,,gtyzck,001,fr,0,2022-04-27_11h49.33.830,Continuous,2022.1.1,None,
15,0,15,0,9,0,9,0,,,,,,,,2.658918908343016,none,4925.0,0.0,0.00014758561655417712,0,44,"['time', 'both']",0.015160433336859569,None,None,466.3213691999845,466.3213691999845,0.21086023334646598,2.869779141689482,466.5381778999872,466.3213691999845,,,,,,,,,,,gtyzck,001,fr,0,2022-04-27_11h49.33.830,Continuous,2022.1.1,None,
16,0,16,0,0,0,0,0,,,,,,473.4071151999815,None,2.1888425921319987,frequency,126.0,5.2122020164539276,0.0013007595699196148,0,60,"['time', 'both', 'frequency']",0.0064026666805148125,None,None,474.4381811999774,None,0.21938306669471785,2.4082256588267166,474.6436611999816,None,,469.2369722999865,None,0.16666666666666666,,,"{'estimation': [[125.0, 7.3834164987935], [133.9716828170366, 7.406393556196665], [143.5872943746293, 7.40894405284481], [153.89305166811442, 7.392031411469805], [164.93848884661162, 7.362318541041747], [176.77669529663666, 7.333296987263429], [189.46457081379947, 7.324799816490068], [203.0630990890585, 7.360250690367286], [217.6376408240306, 7.461502513362179], [233.25824788420147, 7.643293156410019], [249.99999999999923, 7.91296475601797], [254.33223428952098, 8.0], [267.94336563407256, 8.265592876315775], [287.1745887492579, 8.648254198208601], [305.8464694727079, 9.0], [307.78610333622805, 9.037286620098504], [329.87697769322244, 9.377068276240783], [353.55339059327247, 9.60891146438323], [378.9291416275976, 9.705510782939706], [406.12619817811606, 9.649988276843859], [435.2752816480601, 9.44908778413874], [466.5164957684015, 9.123414092045028], [476.08684635144414, 9.0], [499.9999999999975, 8.71510387403567], [535.8867312681438, 8.308396234643414], [567.0455175131883, 8.0], [574.3491774985143, 7.928673335978506], [615.5722066724546, 7.653785321961556], [659.7539553864432, 7.514880217321641], [707.1067811865431, 7.514534799902076], [757.8582832551941, 7.632886607997779], [812.2523963562301, 7.825573695904726], [862.3697686564441, 8.0], [870.5505632961181, 8.029129448081916], [933.0329915368008, 8.153810480816624], [999.9999999999926, 8.1257050684597], [1039.5910327790994, 8.0], [1071.773462536285, 7.901105119877432], [1148.698354997026, 7.499896545530326], [1222.099758244759, 7.000000000000001], [1231.1444133449063, 6.940014530019923], [1319.5079107728832, 6.329793518215544], [1370.7664861088792, 6.0], [1414.2135623730828, 5.740146262406361], [1515.7165665103846, 5.310519906408173], [1624.5047927124563, 5.0836697740227335], [1741.1011265922318, 5.10609228532921], [1866.065983073597, 5.356807294736518], [1999.9999999999777, 5.761738637393014], [2067.6571918529703, 6.0], [2143.5469250725646, 6.271299151566045], [2297.396709994046, 6.733355631214005], [2418.185874634562, 7.0], [2462.2888266898062, 7.104637795098387], [2639.01582154576, 7.294088073344484], [2828.427124746159, 7.269772886533643], [3031.4331330207615, 7.025565424866135], [3043.6895640743705, 7.0], [3249.0095854249043, 6.594642833839655], [3482.2022531844555, 6.0175288617680005], [3488.2525435620973, 6.0], [3732.1319661471844, 5.359610966873097], [3867.6487109476025, 5.0], [3999.9999999999504, 4.67850171354391], [4287.093850145118, 4.070527747404359], [4328.51745712024, 4.0], [4594.793419988081, 3.5843193390568078], [4924.577653379601, 3.293964422157724], [5278.031643091513, 3.2150212703393355], [5656.854249492303, 3.3561032953273795], [6062.866266041501, 3.6879966602588468], [6340.861739912471, 4.0], [6498.019170849792, 4.176687038857629], [6964.404506368894, 4.73431664883849], [7191.51926315219, 5.0], [7464.2639322943505, 5.317783849193156], [7999.999999999882, 5.84407889190524]], 'plus_line': [[125.0, 5.382350717242589], [133.9716828170366, 5.381292145860282], [143.5872943746293, 5.2825056364209075], [153.89305166811442, 5.1492280335062315], [164.93848884661162, 5.0397490501591], [175.66353576183965, 5.0], [176.77669529663666, 4.995262667727586], [177.83963214270685, 5.0], [189.46457081379947, 5.041375874409743], [203.0630990890585, 5.179755643566363], [217.6376408240306, 5.39898512512805], [233.25824788420132, 5.6851781106386845], [248.1242868437826, 6.0], [249.99999999999937, 6.033652514079765], [267.94336563407256, 6.352707454088227], [287.17458874925757, 6.696623972509566], [303.37336927535506, 7.0], [307.78610333622805, 7.07308351353717], [329.87697769322244, 7.387984593829817], [353.55339059327247, 7.656364985097831], [378.929141627598, 7.835898468021426], [406.12619817811606, 7.871152860216654], [435.2752816480601, 7.73493944711491], [466.5164957684015, 7.460802041485486], [499.9999999999975, 7.10264332076753], [508.64710217948044, 7.0], [535.8867312681438, 6.648128620369639], [574.3491774985143, 6.279263421990884], [615.5722066724546, 6.028663279510744], [626.9682969352568, 6.0], [659.7539553864432, 5.903053206077501], [707.1067811865431, 5.9582817403139385], [717.4658735407777, 5.999999999999999], [757.8582832551941, 6.12043508061667], [812.2523963562301, 6.309099148957284], [870.5505632961181, 6.468255654347034], [933.0329915368008, 6.53560880387461], [999.9999999999926, 6.459225891480598], [1071.773462536285, 6.2210210759576], [1112.9124352513802, 6.0], [1148.698354997026, 5.785609829687073], [1231.1444133449063, 5.2521045241393605], [1268.8653459084794, 5.0], [1319.5079107728832, 4.64706232968407], [1414.2135623730828, 4.142995696930258], [1452.2384131667436, 4.0], [1515.7165665103864, 3.7421283083451318], [1624.5047927124563, 3.580853572276476], [1741.1011265922318, 3.664147214124281], [1866.065983073597, 3.9907858021678835], [1868.5140739924977, 4.0], [1999.9999999999802, 4.373682026834281], [2143.5469250725646, 4.815696249535479], [2208.7852254744885, 5.0], [2297.396709994046, 5.214485430303345], [2462.2888266898062, 5.449384432124306], [2639.01582154576, 5.519542113837358], [2828.427124746159, 5.3963940916949955], [3031.4331330207615, 5.095461327325081], [3075.808413587108, 5.0], [3249.0095854249043, 4.601430617005633], [3482.2022531844555, 4.06011851225057], [3505.9435519515664, 4.0], [3732.1319661471844, 3.436225701738083], [3936.9579700546183, 3.0], [3999.9999999999504, 2.860140362427458], [4287.093850145118, 2.326397172921707], [4519.932784495458, 2.0], [4594.793419988081, 1.8828584995549806], [4924.577653379601, 1.5354270275295816], [5278.031643091506, 1.3795491548778966], [5656.854249492303, 1.4275409756161137], [6062.866266041508, 1.6966469863621199], [6332.832055202674, 2.0], [6498.019170849792, 2.1640155630896887], [6964.4045063688845, 2.6943175894101707], [7227.916359882462, 3.0], [7464.2639322943505, 3.2462793696258716], [7999.999999999882, 3.6752825500086344]], 'minus_line': [[125.0, 9.472820787865224], [133.9716828170366, 9.518851960632624], [143.5872943746293, 9.627405570364072], [153.89305166811442, 9.733262780901358], [164.93848884661162, 9.789130978753166], [176.77669529663666, 9.77841081503413], [189.46457081379947, 9.715562671711897], [203.0630990890584, 9.640931237640363], [217.6376408240306, 9.611711707380344], [233.25824788420147, 9.6848035541392], [249.99999999999937, 9.89057615540245], [255.65247285868352, 10.0], [267.94336563407256, 10.265023056442596], [287.1745887492579, 10.693629058868098], [302.6416189796928, 11.0], [307.78610333622805, 11.11640113107942], [329.87697769322244, 11.477795448538519], [353.55339059327247, 11.671677263762684], [378.929141627598, 11.694152899254538], [406.12619817811606, 11.549058320308752], [435.2752816480601, 11.246384936172015], [452.14565424193995, 11.0], [466.5164957684015, 10.833063941303145], [499.9999999999975, 10.42041052344523], [532.3097611474852, 10.0], [535.8867312681438, 9.959933664134253], [574.3491774985143, 9.61196943330867], [615.5722066724546, 9.327111732752357], [659.7539553864432, 9.134879920601891], [707.1067811865431, 9.083701681096404], [757.8582832551941, 9.19013994600876], [812.2523963562301, 9.40350496391595], [870.5505632961181, 9.63871570008576], [933.0329915368008, 9.815426846477287], [999.9999999999926, 9.854539309864515], [1071.773462536285, 9.696904203105033], [1148.698354997026, 9.310115046088569], [1188.950285371705, 9.0], [1231.1444133449063, 8.723129258483068], [1319.5079107728832, 8.038406386564045], [1324.3180662198508, 8.0], [1414.2135623730828, 7.419159094077032], [1487.9593561858137, 7.0], [1515.7165665103846, 6.869234881601833], [1624.5047927124563, 6.587700094183406], [1741.1011265922318, 6.548268020720797], [1866.065983073597, 6.751767028223701], [1945.2561551797212, 7.0], [1999.9999999999802, 7.203359120840252], [2143.5469250725646, 7.759130145647772], [2210.714577428013, 8.0], [2297.396709994046, 8.361767979432582], [2462.2888266898062, 8.827548128560595], [2567.291699791133, 9.0], [2639.0158215457564, 9.146091130103239], [2828.427124746159, 9.236167037350121], [3031.4331330207615, 9.053972822269003], [3057.339525698424, 9.0], [3249.0095854249043, 8.668200046359853], [3482.2022531844555, 8.050670321084798], [3497.5297669594747, 8.0], [3732.1319661471844, 7.336610780620679], [3838.2189626638383, 7.0], [3999.9999999999504, 6.557230858963645], [4213.293400003259, 6.0], [4287.093850145118, 5.832265613607469], [4594.7934199880865, 5.3319988394775395], [4924.577653379601, 5.04287027087375], [5278.031643091506, 5.055147376741974], [5656.854249492303, 5.322155382527551], [6062.866266041508, 5.731611614752645], [6289.063025426061, 6.0], [6498.019170849792, 6.2736414693652085], [6964.404506368894, 6.859352612920014], [7076.809594404002, 6.999999999999999], [7464.2639322943505, 7.514662717374331], [7882.490757642125, 8.0], [7999.999999999882, 8.151880979648025]]}",,,,gtyzck,001,fr,0,2022-04-27_11h49.33.830,Continuous,2022.1.1,None,
16,0,16,0,1,0,1,0,,,,,,,,1.0513674665953614,frequency,141.0,1.4848076253756297,0.0006884527097865942,0,61,"['time', 'both', 'frequency']",0.011314533301629126,None,None,476.87062299999525,476.87062299999525,0.2211440333048813,1.2725114999002427,477.0996845999907,476.87062299999525,,,,,,,,,,,gtyzck,001,fr,0,2022-04-27_11h49.33.830,Continuous,2022.1.1,None,
16,0,16,0,2,0,2,0,,,,,,,,1.6519355433172622,frequency,158.0,6.251785092253931,0.0008809932806253602,0,62,"['time', 'both', 'frequency']",0.013532433280488476,None,None,478.1784956000047,478.1784956000047,0.2151508333045058,1.867086376621768,478.40073819999816,478.1784956000047,,,,,,,,,,,gtyzck,001,fr,0,2022-04-27_11h49.33.830,Continuous,2022.1.1,None,
16,0,16,0,3,0,3,0,,,,,,,,2.3043137060322922,frequency,177.0,7.0,0.0007817786737526911,0,63,"['time', 'both', 'frequency']",0.013796133309369907,None,None,480.08988220000174,480.08988220000174,0.21218703332124278,2.516500739353535,480.3064861999883,480.08988220000174,,,,,,,,,,,gtyzck,001,fr,0,2022-04-27_11h49.33.830,Continuous,2022.1.1,None,
16,0,16,0,4,0,4,0,,,,,,,,2.4318269521412663,frequency,199.0,2.0029475999353776,0.0003388719152610822,0,64,"['time', 'both', 'frequency']",0.014373633312061429,None,None,482.64841150000575,482.64841150000575,0.22257093331427313,2.6543978854555395,482.87240819999715,482.64841150000575,,,,,,,,,,,gtyzck,001,fr,0,2022-04-27_11h49.33.830,Continuous,2022.1.1,None,
16,0,16,0,5,0,5,0,,,,,,,,2.7759974094814392,frequency,223.0,6.411823431850548,0.0004610680486167852,0,65,"['time', 'both', 'frequency']",0.013777233340078965,None,None,485.34079309998197,485.34079309998197,0.20970783333177678,2.985705242813216,485.55609689999255,485.34079309998197,,,,,,,,,,,gtyzck,001,fr,0,2022-04-27_11h49.33.830,Continuous,2022.1.1,None,
16,0,16,0,6,0,6,0,,,,,,,,2.177430476467059,frequency,250.0,6.428186230912817,0.00035105835695046757,0,66,"['time', 'both', 'frequency']",0.012411433301167563,None,None,488.3750824999879,488.3750824999879,0.22025563329225406,2.397686109759313,488.59561089999625,488.3750824999879,,,,,,,,,,,gtyzck,001,fr,0,2022-04-27_11h49.33.830,Continuous,2022.1.1,None,
16,0,16,0,7,0,7,0,,,,,,,,1.1070134795165552,frequency,281.0,7.476239380316489,0.00031841200384591346,0,67,"['time', 'both', 'frequency']",0.01087093332898803,0.20492953332723118,['space'],490.80293760000495,490.80293760000495,0.20492953332723118,1.3119430128437863,491.01852829998825,490.80293760000495,[-1.0919565000222065],,,,,,,,,,gtyzck,001,fr,0,2022-04-27_11h49.33.830,Continuous,2022.1.1,None,
16,0,16,0,8,0,8,0,,,,,,,,2.8953252309128406,frequency,315.0,8.610901191944826,0.0002657755734839501,0,68,"['time', 'both', 'frequency']",0.013185833318857476,None,None,492.1616665000038,492.1616665000038,0.2154258333321195,3.11075106424496,492.37955549999606,492.1616665000038,,,,,,,,,,,gtyzck,001,fr,0,2022-04-27_11h49.33.830,Continuous,2022.1.1,None,
16,0,16,0,9,0,9,0,,,,,,,,2.5907121386992165,frequency,,,,1,68,"['time', 'both', 'frequency']",0.014085833332501352,None,None,495.31214150000596,495.31214150000596,0.21240523335291073,2.803117372052127,495.5342286999803,495.31214150000596,,,,,,,,,,,gtyzck,001,fr,0,2022-04-27_11h49.33.830,Continuous,2022.1.1,None,
17,0,17,0,0,0,0,0,,,,,"[0.3333333333333333, 0.3333333333333333, 0.16666666666666666, 0.3333333333333333, 0.5833333333333334, 0.16666666666666666, 0.3333333333333333, 0.3333333333333333, 0.3333333333333333, 0.3333333333333333, 0.16666666666666666, 0.3333333333333333, 0.5833333333333334, 0.16666666666666666, 0.3333333333333333]",501.76081769997836,None,2.833397433476469,none,165.0,4.0,0.0006227226619257055,0,45,"['time', 'both', 'frequency']",0.012783766665961593,None,None,502.7861634999863,None,0.22766556666465476,3.061063000141124,503.0076338999788,None,,498.1537605999911,None,,,,,,,,gtyzck,001,fr,0,2022-04-27_11h49.33.830,Continuous,2022.1.1,None,
17,0,17,0,1,0,1,0,,,,,,,,1.101843293970977,none,233.0,3.4075064778433575,0.0002972453938669966,0,46,"['time', 'both', 'frequency']",0.009357433329569176,None,None,505.8712075999938,505.8712075999938,0.2098976333218161,1.3117409272927931,506.0956262999971,505.8712075999938,,,,,,,,,,,gtyzck,001,fr,0,2022-04-27_11h49.33.830,Continuous,2022.1.1,None,
17,0,17,0,2,0,2,0,,,,,,,,1.7526798432160677,none,,,,1,46,"['time', 'both', 'frequency']",0.01304163332679309,None,None,507.22971549999784,507.22971549999784,0.22156083333538845,1.9742406765514562,507.44616999998107,507.22971549999784,,,,,,,,,,,gtyzck,001,fr,0,2022-04-27_11h49.33.830,Continuous,2022.1.1,None,
17,0,17,0,3,0,3,0,,,,,,,,2.7923618728267545,none,441.0,5.813647360255718,0.00014541256555615503,0,47,"['time', 'both', 'frequency']",0.015293933305656537,None,None,509.23454789997777,509.23454789997777,0.2195834333251696,3.011945306151924,509.4511384999787,509.23454789997777,,,,,,,,,,,gtyzck,001,fr,0,2022-04-27_11h49.33.830,Continuous,2022.1.1,None,
17,0,17,0,4,0,4,0,,,,,,,,1.8647576436115574,none,495.0,4.902281520432554,0.00012607655465424926,0,48,"['time', 'both', 'frequency']",0.011780433298554271,None,['space'],512.2762743000058,512.2762743000058,0.21128383331233636,2.0760414769238937,512.495075999992,512.2762743000058,[-1.62103829998523],,,,,,,,,,gtyzck,001,fr,0,2022-04-27_11h49.33.830,Continuous,2022.1.1,None,
17,0,17,0,5,0,5,0,,,,,,,,2.323655405752735,none,624.0,4.512081529577655,8.75885291417132e-05,0,49,"['time', 'both', 'frequency']",0.016001233307179064,None,None,514.400893699989,514.400893699989,0.22132933331886306,2.544984739071598,514.6197672999988,514.400893699989,,,,,,,,,,,gtyzck,001,fr,0,2022-04-27_11h49.33.830,Continuous,2022.1.1,None,
17,0,17,0,6,0,6,0,,,,,,,,2.2775999584418227,none,208.0,1.828589136696328,0.0003082957041536015,0,50,"['time', 'both', 'frequency']",0.013918333337642252,None,None,516.9747512000031,516.9747512000031,0.21398053332814015,2.491580491769963,517.1985512999818,516.9747512000031,,,,,,,,,,,gtyzck,001,fr,0,2022-04-27_11h49.33.830,Continuous,2022.1.1,None,
17,0,17,0,7,0,7,0,,,,,,,,2.712874996984012,none,131.0,2.4025407303991386,0.0008825713010792339,0,51,"['time', 'both', 'frequency']",0.01380163332214579,None,None,519.5095781999989,519.5095781999989,0.20908173333737068,2.9219567303213827,519.7256943999964,519.5095781999989,,,,,,,,,,,gtyzck,001,fr,0,2022-04-27_11h49.33.830,Continuous,2022.1.1,None,
