sweeps.thisRepN,sweeps.thisTrialN,sweeps.thisN,sweeps.thisIndex,trials.thisRepN,trials.thisTrialN,trials.thisN,trials.thisIndex,instructions.started,instructions.stopped,blank_text.started,blank_text.stopped,Intervals,text.started,text.stopped,Delay,Prediction,Frequency,Volume,Psychopy_level,isCatchTrial,len(y),finished_audiograms,probe.started,probe.stopped,feedback.keys,feedback.started,feedback.stopped,ISI.started,ISI.stopped,text_2.started,text_2.stopped,feedback.rt,break_txt.started,break_txt.stopped,,Audiogram_both,Audiogram_time,Audiogram_frequency,Audiogram_none,end_txt.started,end_txt.stopped,participant,session,language (english or french),Resume previous experiment,date,expName,psychopyVersion,frameRate,
0,0,0,0,0,0,0,0,16.33452260005288,None,49.07963789999485,None,"[0.3333333333333333, 0.16666666666666666, 0.16666666666666666, 0.16666666666666666, 0.3333333333333333, 0.3333333333333333, 0.16666666666666666, 0.5833333333333334, 0.3333333333333333, 0.16666666666666666, 0.3333333333333333, 0.3333333333333333, 0.16666666666666666, 0.3333333333333333, 0.16666666666666666]",51.40842670004349,None,1.3643564379672408,time,891.0,21.986966803993642,0.000514813077029629,0,24,[],0.01873309991788119,None,None,52.428727000020444,None,0.221163299982436,1.5855197379496768,52.65092380007263,None,,,,,,,,,,,wquuex,001,fr,0,2022-05-06_17h12.00.958,Continuous,2022.1.1,35.720957881604356,
0,0,0,0,1,0,1,0,,,,,,,,1.3643564379672408,time,188.0,8.86494590398353,0.0008578490224845309,0,25,[],0.02311309997458011,None,['space'],54.00523080001585,54.00523080001585,0.2273562999907881,1.591712737958029,54.2278735000873,54.00523080001585,[-0.9258699999190867],,,,,,,,,,wquuex,001,fr,0,2022-05-06_17h12.00.958,Continuous,2022.1.1,35.720957881604356,
0,0,0,0,2,0,2,0,,,,,,,,1.3643564379672408,time,397.0,19.44291530351441,0.0007252900954465577,0,26,[],0.0232508999761194,None,None,55.587581400061026,55.587581400061026,0.23010320006869733,1.5944596380359382,55.79925839998759,55.587581400061026,,,,,,,,,,,wquuex,001,fr,0,2022-05-06_17h12.00.958,Continuous,2022.1.1,35.720957881604356,
0,0,0,0,3,0,3,0,,,,,,,,1.3643564379672408,time,707.0,20.98285181707235,0.0004973315044884991,0,27,[],0.023364100023172796,None,['space'],57.16586599999573,57.16586599999573,0.2299067999701947,1.5942632379374355,57.37997470004484,57.16586599999573,[-0.886169399949722],,,,,,,,,,wquuex,001,fr,0,2022-05-06_17h12.00.958,Continuous,2022.1.1,35.720957881604356,
0,0,0,0,4,0,4,0,,,,,,,,1.3643564379672408,time,167.0,20.914829978458087,0.004284592029094449,0,28,[],0.021423800149932504,None,['space'],58.73401900008321,58.73401900008321,0.21952100016642362,1.5838774381336644,58.95173990004696,58.73401900008321,[-1.095035700011067],,,,,,,,,,wquuex,001,fr,0,2022-05-06_17h12.00.958,Continuous,2022.1.1,35.720957881604356,
0,0,0,0,5,0,5,0,,,,,,,,1.3643564379672408,time,630.0,16.080651883905823,0.0003258386505994314,0,29,[],0.023001600056886673,None,['space'],60.31799160002265,60.31799160002265,0.2267993000568822,1.591155738024123,60.53138260007836,60.31799160002265,[-1.143417999963276],,,,,,,,,,wquuex,001,fr,0,2022-05-06_17h12.00.958,Continuous,2022.1.1,35.720957881604356,
0,0,0,0,6,0,6,0,,,,,,,,1.3643564379672408,time,1000.0,21.871152031739705,0.0005464212820395411,0,30,[],0.023272600024938583,None,['space'],61.89457180001773,61.89457180001773,0.22555600001942366,1.5899124379866645,62.108696500072256,61.89457180001773,[-1.1509506999282166],,,,,,,,,,wquuex,001,fr,0,2022-05-06_17h12.00.958,Continuous,2022.1.1,35.720957881604356,
0,0,0,0,7,0,7,0,,,,,,,,1.3643564379672408,time,281.0,16.26968730207344,0.0008763181928355734,0,31,[],0.02310150011908263,None,None,63.46531140001025,63.46531140001025,0.22388810012489557,1.5882445380921364,63.67963820009027,63.46531140001025,,,,,,,,,,,wquuex,001,fr,0,2022-05-06_17h12.00.958,Continuous,2022.1.1,35.720957881604356,
0,0,0,0,8,0,8,0,,,,,,,,1.3643564379672408,time,500.0,15.048617842696828,0.0004040181693466223,0,32,[],0.018962800037115812,None,['space'],65.0419116000412,65.0419116000412,0.21664550004061311,1.581001938007854,65.25829900009558,65.0419116000412,[-1.0032883000094444],,,,,,,,,,wquuex,001,fr,0,2022-05-06_17h12.00.958,Continuous,2022.1.1,35.720957881604356,
0,0,0,0,9,0,9,0,,,,,,,,1.3643564379672408,time,,,,1,32,[],0.023202500073239207,None,['space'],66.62572970008478,66.62572970008478,0.2264858001144603,1.590842238081701,66.84155280003324,66.62572970008478,[-0.84255599998869],,,,,,,,,,wquuex,001,fr,0,2022-05-06_17h12.00.958,Continuous,2022.1.1,35.720957881604356,
0,0,0,0,10,0,10,0,,,,,,,,1.3643564379672408,time,133.0,11.506021136409615,0.002450268716223433,0,33,[],0.024337899987585843,0.22349370003212243,None,68.2044840999879,68.2044840999879,0.22349370003212243,1.5878501379993633,68.41523849999066,68.2044840999879,,,,,,,,,,,wquuex,001,fr,0,2022-05-06_17h12.00.958,Continuous,2022.1.1,35.720957881604356,
0,0,0,0,11,0,11,0,,,,,,,,1.3643564379672408,time,354.0,22.0,0.001114103496812016,0,34,[],0.023192199878394604,None,['space'],69.77265520009678,69.77265520009678,0.22647819994017482,1.5908346379074156,69.98711780004669,69.77265520009678,[-1.012896400061436],,,,,,,,,,wquuex,001,fr,0,2022-05-06_17h12.00.958,Continuous,2022.1.1,35.720957881604356,
1,0,1,0,0,0,0,0,,,,,"[0.16666666666666666, 0.3333333333333333, 0.3333333333333333, 0.3333333333333333, 0.5833333333333334, 0.3333333333333333, 0.3333333333333333, 0.3333333333333333, 0.3333333333333333, 0.3333333333333333, 0.3333333333333333, 0.3333333333333333, 0.16666666666666666, 0.3333333333333333, 0.16666666666666666]",80.71627670002636,None,1.7404376743635332,none,177.0,14.083739174677362,0.0017671392690981268,0,24,[],0.019171700114384294,None,None,81.7366790000815,None,0.21929370006546378,1.959731374428997,81.9483963000821,None,,71.3537208000198,None,,,,,,,,wquuex,001,fr,0,2022-05-06_17h12.00.958,Continuous,2022.1.1,35.720957881604356,
1,0,1,0,1,0,1,0,,,,,,,,2.625577476357271,none,446.0,17.904769513120964,0.0005829956830046766,0,25,[],0.022591400076635182,None,['space'],83.69116470008157,83.69116470008157,0.22676050011068583,2.8523379764679566,83.89886630000547,83.69116470008157,[-1.4438919000094756],,,,,,,,,,wquuex,001,fr,0,2022-05-06_17h12.00.958,Continuous,2022.1.1,35.720957881604356,
1,0,1,0,2,0,2,0,,,,,,,,2.9020263133793893,none,140.0,10.015905756811351,0.0018665582525141647,0,26,[],0.022646799916401505,None,['space'],86.52493860002141,86.52493860002141,0.22927669994533062,3.13130301332472,86.74574540008325,86.52493860002141,[-2.421524800010957],,,,,,,,,,wquuex,001,fr,0,2022-05-06_17h12.00.958,Continuous,2022.1.1,35.720957881604356,
1,0,1,0,3,0,3,0,,,,,,,,2.715082511319064,none,354.0,22.0,0.001114103496812016,0,27,[],0.02269949996843934,None,['space'],89.64238480001222,89.64238480001222,0.227680700016208,2.942763211335272,89.85928400000557,89.64238480001222,[-2.6749496000120416],,,,,,,,,,wquuex,001,fr,0,2022-05-06_17h12.00.958,Continuous,2022.1.1,35.720957881604356,
1,0,1,0,4,0,4,0,,,,,,,,2.30872907544284,none,795.0,19.306738569140464,0.0003563466622653901,0,28,[],0.02281789993867278,None,['space'],92.5627916000085,92.5627916000085,0.22288549994118512,2.531614575384025,92.77371270000003,92.5627916000085,[-2.523370199953206],,,,,,,,,,wquuex,001,fr,0,2022-05-06_17h12.00.958,Continuous,2022.1.1,35.720957881604356,
1,0,1,0,5,0,5,0,,,,,,,,1.5889023986329271,none,281.0,21.960674010852873,0.001687373263502467,0,29,[],0.02265840012114495,None,['space'],95.07725450000726,95.07725450000726,0.23033530008979142,1.8192376987227186,95.29914340004325,95.07725450000726,[-2.0142589999595657],,,,,,,,,,wquuex,001,fr,0,2022-05-06_17h12.00.958,Continuous,2022.1.1,35.720957881604356,
1,0,1,0,6,0,6,0,,,,,,,,1.7121083797390977,none,562.0,21.787692448044783,0.0007588938441208093,0,30,[],0.016169700073078275,0.21019640006124973,['space'],96.87755710002966,96.87755710002966,0.21019640006124973,1.9223047798003474,97.09482250001747,96.87755710002966,[-1.3506503000389785],,,,,,,,,,wquuex,001,fr,0,2022-05-06_17h12.00.958,Continuous,2022.1.1,35.720957881604356,
1,0,1,0,7,0,7,0,,,,,,,,2.0444682203623334,none,708.0,19.852083840383397,0.00043576184858414274,0,31,[],0.022047099890187383,None,['space'],98.8026335000759,98.8026335000759,0.22226489998865873,2.266733120350992,99.01590890006628,98.8026335000759,[-1.4831097000278533],,,,,,,,,,wquuex,001,fr,0,2022-05-06_17h12.00.958,Continuous,2022.1.1,35.720957881604356,
1,0,1,0,8,0,8,0,,,,,,,,1.3330750242127438,none,1002.0,21.85166540484088,0.0005462320825148666,0,32,[],0.02243140002246946,None,['space'],101.06216410000343,101.06216410000343,0.22619419998954982,1.5592692242022936,101.27834489999805,101.06216410000343,[-1.8227031999267638],,,,,,,,,,wquuex,001,fr,0,2022-05-06_17h12.00.958,Continuous,2022.1.1,35.720957881604356,
1,0,1,0,9,0,9,0,,,,,,,,2.7040527376093966,none,,,,1,32,[],0.0225770000834018,None,None,102.6122497000033,102.6122497000033,0.2245612001279369,2.9286139377373335,102.81850370008033,102.6122497000033,,,,,,,,,,,wquuex,001,fr,0,2022-05-06_17h12.00.958,Continuous,2022.1.1,35.720957881604356,
1,0,1,0,10,0,10,0,,,,,,,,2.633216635961139,none,1125.0,22.893211071862517,0.0006876043313796135,0,33,[],0.023439000127837062,None,None,105.52010470000096,105.52010470000096,0.22946370008867234,2.862680336049811,105.74322100006975,105.52010470000096,,,,,,,,,,,wquuex,001,fr,0,2022-05-06_17h12.00.958,Continuous,2022.1.1,35.720957881604356,
2,0,2,0,0,0,0,0,,,,,,111.44721030001529,None,1.176194015430912,both,4002.0,19.82356052880261,0.0008238714075242537,0,24,[],0.024212799966335297,None,None,112.47777290001977,None,0.22974959993734956,1.4059436153682616,112.69018790009432,None,,108.36993839999195,None,0.5833333333333334,,,,,,,wquuex,001,fr,0,2022-05-06_17h12.00.958,Continuous,2022.1.1,35.720957881604356,
2,0,2,0,1,0,1,0,,,,,,,,1.176194015430912,both,2671.0,21.19226644757648,0.0008634342175864477,0,25,[],0.02183010010048747,None,None,113.86535020009615,113.86535020009615,0.22603970009367913,1.4022337155245912,114.08448120008688,113.86535020009615,,,,,,,,,,,wquuex,001,fr,0,2022-05-06_17h12.00.958,Continuous,2022.1.1,35.720957881604356,
2,0,2,0,2,0,2,0,,,,,,,,1.176194015430912,both,1783.0,24.439612278991866,0.0010838883666236202,0,26,[],0.022133999969810247,None,None,115.25402940006461,115.25402940006461,0.22354419995099306,1.3997382153819051,115.46752629999537,115.25402940006461,,,,,,,,,,,wquuex,001,fr,0,2022-05-06_17h12.00.958,Continuous,2022.1.1,35.720957881604356,
2,0,2,0,3,0,3,0,,,,,,,,1.176194015430912,both,1190.0,23.423310610967054,0.0007711973169344453,0,27,[],0.022080100025050342,None,['space'],116.64613480004482,116.64613480004482,0.22681489994283766,1.4030089153737497,116.86592550005298,116.64613480004482,[-0.9432883999543265],,,,,,,,,,wquuex,001,fr,0,2022-05-06_17h12.00.958,Continuous,2022.1.1,35.720957881604356,
2,0,2,0,4,0,4,0,,,,,,,,1.176194015430912,both,794.0,21.1085125177107,0.0004390083000649348,0,28,[],0.017244899994693696,None,['space'],118.03156440006569,118.03156440006569,0.21432600007392466,1.3905200155048367,118.25068290007766,118.03156440006569,[-0.9361540999962017],,,,,,,,,,wquuex,001,fr,0,2022-05-06_17h12.00.958,Continuous,2022.1.1,35.720957881604356,
2,0,2,0,5,0,5,0,,,,,,,,1.176194015430912,both,530.0,16.247121187697516,0.00043341393972760596,0,29,[],0.02199620008468628,None,['space'],119.42540559999179,119.42540559999179,0.22487030003685504,1.401064315467767,119.63730900001246,119.42540559999179,[-1.0505131999962032],,,,,,,,,,wquuex,001,fr,0,2022-05-06_17h12.00.958,Continuous,2022.1.1,35.720957881604356,
2,0,2,0,6,0,6,0,,,,,,,,1.176194015430912,both,354.0,22.0,0.001114103496812016,0,30,[],0.022029599989764392,None,['space'],120.81538720009848,120.81538720009848,0.2279319999506697,1.4041260153815818,121.02851080009714,120.81538720009848,[-0.8721358999609947],,,,,,,,,,wquuex,001,fr,0,2022-05-06_17h12.00.958,Continuous,2022.1.1,35.720957881604356,
2,0,2,0,7,0,7,0,,,,,,,,1.176194015430912,both,236.0,17.05670033895263,0.0013889039529464665,0,31,[],0.02072480006609112,None,['space'],122.20103050000034,122.20103050000034,0.22305829997640103,1.399252315407313,122.41691070003435,122.20103050000034,[-1.0267311999341473],,,,,,,,,,wquuex,001,fr,0,2022-05-06_17h12.00.958,Continuous,2022.1.1,35.720957881604356,
2,0,2,0,8,0,8,0,,,,,,,,1.176194015430912,both,158.0,11.937259714014436,0.0016952990830977539,0,32,[],0.02188620006199926,None,['space'],123.59614370006602,123.59614370006602,0.22554070001933724,1.4017347154502493,123.80747020000126,123.59614370006602,[-1.0773829000536352],,,,,,,,,,wquuex,001,fr,0,2022-05-06_17h12.00.958,Continuous,2022.1.1,35.720957881604356,
2,0,2,0,9,0,9,0,,,,,,,,1.176194015430912,both,,,,1,32,[],0.022058700094930828,None,['space'],124.98139460000675,124.98139460000675,0.22571190004236996,1.401905915473282,125.19734630000312,124.98139460000675,[-1.054330199956894],,,,,,,,,,wquuex,001,fr,0,2022-05-06_17h12.00.958,Continuous,2022.1.1,35.720957881604356,
3,0,3,0,0,0,0,0,,,,,,129.18023070006166,None,1.162642640153547,frequency,4002.0,19.65677140527949,0.0008082021003383164,0,24,[],0.01931900007184595,None,None,130.18526070006192,None,0.21945410000625998,1.382096740159807,130.40375260007568,None,,126.37253570009489,None,0.5833333333333334,,,,,,,wquuex,001,fr,0,2022-05-06_17h12.00.958,Continuous,2022.1.1,35.720957881604356,
3,0,3,0,1,0,1,0,,,,,,,,2.2029648757239815,frequency,,,,1,24,[],0.021545900031924248,None,['space'],131.56837019999512,131.56837019999512,0.22804850002285093,2.4310133757468324,131.78354680002667,131.56837019999512,[-0.36070049996487796],,,,,,,,,,wquuex,001,fr,0,2022-05-06_17h12.00.958,Continuous,2022.1.1,35.720957881604356,
3,0,3,0,2,0,2,0,,,,,,,,2.6308264031120614,frequency,1783.0,23.836153539348825,0.0010111407611671337,0,25,[],0.022913499968126416,None,None,133.98651060007978,133.98651060007978,0.22783450002316386,2.8586609031352253,134.20505059999414,133.98651060007978,,,,,,,,,,,wquuex,001,fr,0,2022-05-06_17h12.00.958,Continuous,2022.1.1,35.720957881604356,
3,0,3,0,3,0,3,0,,,,,,,,2.284921653039532,frequency,1190.0,23.348512201128305,0.0007645846758686925,0,26,[],0.02171579992864281,None,['space'],136.8267566000577,136.8267566000577,0.22477169998455793,2.50969335302409,137.04355639999267,136.8267566000577,[-2.4196875999914482],,,,,,,,,,wquuex,001,fr,0,2022-05-06_17h12.00.958,Continuous,2022.1.1,35.720957881604356,
3,0,3,0,4,0,4,0,,,,,,,,2.5223188596576915,frequency,794.0,21.08316359019145,0.00043772896458364193,0,27,[],0.02156930009368807,None,['space'],139.32980070007034,139.32980070007034,0.2244681001175195,2.746786959775211,139.54526899999473,139.32980070007034,[-2.091152900015004],,,,,,,,,,wquuex,001,fr,0,2022-05-06_17h12.00.958,Continuous,2022.1.1,35.720957881604356,
3,0,3,0,5,0,5,0,,,,,,,,2.913370794801714,frequency,530.0,20.814729766773326,0.0007333027340259765,0,28,[],0.021484100143425167,None,['space'],142.06972090003546,142.06972090003546,0.22939140012022108,3.142762194921935,142.29289680009242,142.06972090003546,[-2.286301500047557],,,,,,,,,,wquuex,001,fr,0,2022-05-06_17h12.00.958,Continuous,2022.1.1,35.720957881604356,
3,0,3,0,6,0,6,0,,,,,,,,1.727389699998471,frequency,354.0,22.0,0.001114103496812016,0,29,[],0.02169649989809841,None,['space'],145.20059930009302,145.20059930009302,0.22653029998764396,1.953919999986115,145.41642540006433,145.20059930009302,[-2.7141133000841364],,,,,,,,,,wquuex,001,fr,0,2022-05-06_17h12.00.958,Continuous,2022.1.1,35.720957881604356,
3,0,3,0,7,0,7,0,,,,,,,,1.3389029658045384,frequency,236.0,16.196394476770116,0.001257931292523655,0,30,[],0.02108930004760623,None,['space'],147.1431608001003,147.1431608001003,0.22333980002440512,1.5622427658289435,147.35253330005798,147.1431608001003,[-1.4882480000378564],,,,,,,,,,wquuex,001,fr,0,2022-05-06_17h12.00.958,Continuous,2022.1.1,35.720957881604356,
3,0,3,0,8,0,8,0,,,,,,,,2.286855074978499,frequency,158.0,11.57701501263401,0.0016264251901688123,0,31,[],0.021193599910475314,None,['space'],148.69463280006312,148.69463280006312,0.22496079991105944,2.5118158748895585,148.9047864000313,148.69463280006312,[-1.119525899994187],,,,,,,,,,wquuex,001,fr,0,2022-05-06_17h12.00.958,Continuous,2022.1.1,35.720957881604356,
4,0,4,0,0,0,0,0,,,,,,157.7416222000029,None,2.1881670792356633,both,8000.0,30.0,0.005740768107484416,0,33,[],0.02237959997728467,None,None,158.77722310007084,None,0.22432130004744977,2.412488379283113,158.99655390006956,None,,151.1925118000945,None,0.5833333333333334,,,,,,,wquuex,001,fr,0,2022-05-06_17h12.00.958,Continuous,2022.1.1,35.720957881604356,
4,0,4,0,1,0,1,0,,,,,,,,2.1881670792356633,both,5339.0,28.544100799500782,0.003750527648243123,0,34,[],0.020792000112123787,None,None,161.18302910006605,161.18302910006605,0.22501120006199926,2.4131782792976626,161.39882210001815,161.18302910006605,,,,,,,,,,,wquuex,001,fr,0,2022-05-06_17h12.00.958,Continuous,2022.1.1,35.720957881604356,
4,0,4,0,2,0,2,0,,,,,,,,2.1881670792356633,both,,,,1,34,[],0.01515840005595237,0.20962910004891455,['space'],163.58257520000916,163.58257520000916,0.20962910004891455,2.397796179284578,163.79922620009165,163.58257520000916,[-2.0081381000345573],,,,,,,,,,wquuex,001,fr,0,2022-05-06_17h12.00.958,Continuous,2022.1.1,35.720957881604356,
4,0,4,0,3,0,3,0,,,,,,,,2.1881670792356633,both,2378.0,24.03899766727748,0.0013244217096098614,0,35,[],0.01912330009508878,None,None,165.98175340006128,165.98175340006128,0.21827540011145175,2.406442479347115,166.19764120003674,165.98175340006128,,,,,,,,,,,wquuex,001,fr,0,2022-05-06_17h12.00.958,Continuous,2022.1.1,35.720957881604356,
4,0,4,0,4,0,4,0,,,,,,,,2.1881670792356633,both,1587.0,26.3453540354938,0.0011554491267165609,0,36,[],0.02095590007957071,None,['space'],168.38257480005268,168.38257480005268,0.2235037999926135,2.411670879228277,168.5981411000248,168.38257480005268,[-1.9437643999699503],,,,,,,,,,wquuex,001,fr,0,2022-05-06_17h12.00.958,Continuous,2022.1.1,35.720957881604356,
4,0,4,0,5,0,5,0,,,,,,,,2.1881670792356633,both,1059.0,24.878045268139783,0.0008157258910293166,0,37,[],0.020831699948757887,None,['space'],170.78331060009077,170.78331060009077,0.22495219996199012,2.4131192791976535,170.99101140000857,170.78331060009077,[-2.040531300008297],,,,,,,,,,wquuex,001,fr,0,2022-05-06_17h12.00.958,Continuous,2022.1.1,35.720957881604356,
4,0,4,0,6,0,6,0,,,,,,,,2.1881670792356633,both,707.0,22.117599371405543,0.0005667393256732672,0,38,[],0.02086559997405857,None,['space'],173.18113959999755,173.18113959999755,0.22484609996899962,2.413013179204663,173.39344520005397,173.18113959999755,[-1.9257214999524876],,,,,,,,,,wquuex,001,fr,0,2022-05-06_17h12.00.958,Continuous,2022.1.1,35.720957881604356,
4,0,4,0,7,0,7,0,,,,,,,,2.1881670792356633,both,472.0,22.6853986001205,0.0009927752076326353,0,39,[],0.020806900109164417,None,['space'],175.58449210005347,175.58449210005347,0.22155730007216334,2.4097243793078267,175.7992677000584,175.58449210005347,[-2.074314899975434],,,,,,,,,,wquuex,001,fr,0,2022-05-06_17h12.00.958,Continuous,2022.1.1,35.720957881604356,
4,0,4,0,8,0,8,0,,,,,,,,2.1881670792356633,both,315.0,21.1183850358127,0.0011217323792225692,0,40,[],0.020861900062300265,None,['space'],177.99213640007656,177.99213640007656,0.2240144000388682,2.4121814792745315,178.19908560009208,177.99213640007656,[-2.0488121000817046],,,,,,,,,,wquuex,001,fr,0,2022-05-06_17h12.00.958,Continuous,2022.1.1,35.720957881604356,
5,0,5,0,0,0,0,0,,,,,,183.24409080005717,None,2.0136851303903587,both,792.0,16.7788411477552,0.00026730681865153185,0,41,[],0.02422600006684661,None,None,184.2540390000213,None,0.22493480006232858,2.2386199304526873,184.46109680004884,None,,180.38873550004791,None,0.3333333333333333,,,,,,,wquuex,001,fr,0,2022-05-06_17h12.00.958,Continuous,2022.1.1,35.720957881604356,
5,0,5,0,1,0,1,0,,,,,,,,2.0136851303903587,both,629.0,15.0,0.0002885972232256881,0,42,[],0.02053240011446178,None,None,186.47462069999892,186.47462069999892,0.2251940000569448,2.2388791304473035,186.68708330008667,186.47462069999892,,,,,,,,,,,wquuex,001,fr,0,2022-05-06_17h12.00.958,Continuous,2022.1.1,35.720957881604356,
5,0,5,0,2,0,2,0,,,,,,,,2.0136851303903587,both,499.0,14.603962769477741,0.00038413036257502496,0,43,[],0.020908999955281615,None,['space'],188.6945987000363,188.6945987000363,0.2276514999102801,2.241336630300639,188.90421569999307,188.6945987000363,[-1.8076768000610173],,,,,,,,,,wquuex,001,fr,0,2022-05-06_17h12.00.958,Continuous,2022.1.1,35.720957881604356,
5,0,5,0,3,0,3,0,,,,,,,,2.0136851303903587,both,396.0,15.88434563385847,0.00048310191189236934,0,44,[],0.020486499881371856,None,['space'],190.917447200045,190.917447200045,0.22181879996787757,2.2355039303582362,191.13158170005772,190.917447200045,[-1.805336800054647],,,,,,,,,,wquuex,001,fr,0,2022-05-06_17h12.00.958,Continuous,2022.1.1,35.720957881604356,
5,0,5,0,4,0,4,0,,,,,,,,2.0136851303903587,both,314.0,15.193875094093736,0.0005731973341271803,0,45,[],0.014085200033150613,None,['space'],193.1491083999863,193.1491083999863,0.2123860000865534,2.226071130476912,193.3641285999911,193.1491083999863,[-1.8946188000263646],,,,,,,,,,wquuex,001,fr,0,2022-05-06_17h12.00.958,Continuous,2022.1.1,35.720957881604356,
5,0,5,0,5,0,5,0,,,,,,,,2.0136851303903587,both,,,,1,45,[],0.02073929994367063,None,['space'],195.37764040008187,195.37764040008187,0.22409429994877428,2.237779430339133,195.59346380003262,195.37764040008187,[-1.834141599945724],,,,,,,,,,wquuex,001,fr,0,2022-05-06_17h12.00.958,Continuous,2022.1.1,35.720957881604356,
5,0,5,0,6,0,6,0,,,,,,,,2.0136851303903587,both,198.0,10.042175773479588,0.0008666337813163768,0,46,[],0.01636760006658733,0.2105291000334546,['space'],197.60214299999643,197.60214299999643,0.2105291000334546,2.2242142304238133,197.81799580005463,197.60214299999643,[-0.5393877000315115],,,,,,,,,,wquuex,001,fr,0,2022-05-06_17h12.00.958,Continuous,2022.1.1,35.720957881604356,
5,0,5,0,7,0,7,0,,,,,,,,2.0136851303903587,both,157.0,14.886530520718875,0.0024301429260353154,0,47,[],0.0204475000500679,None,['space'],199.82182070007548,199.82182070007548,0.22150650003459305,2.2351916304249517,200.03710280009545,199.82182070007548,[-1.6224091000622138],,,,,,,,,,wquuex,001,fr,0,2022-05-06_17h12.00.958,Continuous,2022.1.1,35.720957881604356,
5,0,5,0,8,0,8,0,,,,,,,,2.0136851303903587,both,125.0,15.0,0.004064152580820497,0,48,[],0.02060480008367449,None,['space'],202.04362380004022,202.04362380004022,0.22116140008438379,2.2348465304747425,202.25926750001963,202.04362380004022,[-1.8291017999872565],,,,,,,,,,wquuex,001,fr,0,2022-05-06_17h12.00.958,Continuous,2022.1.1,35.720957881604356,
6,0,6,0,0,0,0,0,,,,,"[0.5833333333333334, 0.3333333333333333, 0.16666666666666666, 0.5833333333333334, 0.16666666666666666, 0.3333333333333333, 0.16666666666666666, 0.3333333333333333, 0.16666666666666666, 0.5833333333333334, 0.5833333333333334, 0.5833333333333334, 0.16666666666666666, 0.16666666666666666, 0.5833333333333334]",207.40808429999743,None,1.2612503505279433,time,1551.0,23.544937583148844,0.0007912680321183985,0,35,[],0.021582999965175986,None,None,208.4128389999969,None,0.22624400001950562,1.487494350547449,208.62647050002124,None,,204.27571930002887,None,,,,,,,,wquuex,001,fr,0,2022-05-06_17h12.00.958,Continuous,2022.1.1,35.720957881604356,
6,0,6,0,1,0,1,0,,,,,,,,1.2612503505279433,time,517.0,14.694696538034423,0.00037348840966135876,0,36,[],0.01990110008046031,None,['space'],209.89282400009688,209.89282400009688,0.22165220009628683,1.4829025506242302,210.1094480000902,209.89282400009688,[-0.750728499959223],,,,,,,,,,wquuex,001,fr,0,2022-05-06_17h12.00.958,Continuous,2022.1.1,35.720957881604356,
6,0,6,0,2,0,2,0,,,,,,,,1.2612503505279433,time,3689.0,19.8312933392375,0.0007697124343531458,0,37,[],0.02026570006273687,None,['space'],211.3720626999857,211.3720626999857,0.22452270006760955,1.4857730505955529,211.58673820004333,211.3720626999857,[-0.9485061999876052],,,,,,,,,,wquuex,001,fr,0,2022-05-06_17h12.00.958,Continuous,2022.1.1,35.720957881604356,
6,0,6,0,3,0,3,0,,,,,,,,1.2612503505279433,time,,,,1,37,[],0.016033700085245073,0.211393800098449,['space'],212.84909180004615,212.84909180004615,0.211393800098449,1.4726441506263923,213.06339900009334,212.84909180004615,[-1.0501895000925288],,,,,,,,,,wquuex,001,fr,0,2022-05-06_17h12.00.958,Continuous,2022.1.1,35.720957881604356,
6,0,6,0,4,0,4,0,,,,,,,,1.2612503505279433,time,2193.0,22.41049676986946,0.00104387087200085,0,38,[],0.02139290003105998,None,None,214.32321830000728,214.32321830000728,0.22672299994155765,1.487973350469501,214.530927099986,214.32321830000728,,,,,,,,,,,wquuex,001,fr,0,2022-05-06_17h12.00.958,Continuous,2022.1.1,35.720957881604356,
6,0,6,0,5,0,5,0,,,,,,,,1.2612503505279433,time,5527.0,26.464211105724615,0.0028059540799211646,0,39,[],0.020217499928548932,None,['space'],215.79259010008536,215.79259010008536,0.22433120000641793,1.4855815505343613,216.00732500001322,215.79259010008536,[-0.9535146999405697],,,,,,,,,,wquuex,001,fr,0,2022-05-06_17h12.00.958,Continuous,2022.1.1,35.720957881604356,
6,0,6,0,6,0,6,0,,,,,,,,1.2612503505279433,time,1741.0,23.98055118703612,0.0009981016936497032,0,40,[],0.015040700091049075,0.20934310008306056,None,217.27147720009089,217.27147720009089,0.20934310008306056,1.4705934506110039,217.4884919000324,217.27147720009089,,,,,,,,,,,wquuex,001,fr,0,2022-05-06_17h12.00.958,Continuous,2022.1.1,35.720957881604356,
6,0,6,0,7,0,7,0,,,,,,,,1.2612503505279433,time,732.0,18.467565857841926,0.00035391295805296965,0,41,[],0.019854500074870884,None,['space'],218.74444120004773,218.74444120004773,0.22590480011422187,1.4871551506421652,218.9596201000968,218.74444120004773,[-1.122308799996972],,,,,,,,,,wquuex,001,fr,0,2022-05-06_17h12.00.958,Continuous,2022.1.1,35.720957881604356,
6,0,6,0,8,0,8,0,,,,,,,,1.2612503505279433,time,2462.0,20.0,0.0008505306297983945,0,42,[],0.01613770006224513,None,['space'],220.22234310000204,220.22234310000204,0.21263090008869767,1.473881250616641,220.44219239999074,220.22234310000204,[-1.0630648999940604],,,,,,,,,,wquuex,001,fr,0,2022-05-06_17h12.00.958,Continuous,2022.1.1,35.720957881604356,
6,0,6,0,9,0,9,0,,,,,,,,1.2612503505279433,time,1231.0,20.25320684928937,0.0005530341562639487,0,43,[],0.01747880002949387,None,['space'],221.70688230008818,221.70688230008818,0.2197273001074791,1.4809776506354224,221.92272190004587,221.70688230008818,[-0.9476406999165192],,,,,,,,,,wquuex,001,fr,0,2022-05-06_17h12.00.958,Continuous,2022.1.1,35.720957881604356,
6,0,6,0,10,0,10,0,,,,,,,,1.2612503505279433,time,652.0,19.201536775619203,0.00044911173161388366,0,44,[],0.012619999935850501,None,None,223.18244510004297,223.18244510004297,0.21699179999995977,1.478242150527903,223.4414958000416,223.18244510004297,,,,,,,,,,,wquuex,001,fr,0,2022-05-06_17h12.00.958,Continuous,2022.1.1,35.720957881604356,
7,0,7,0,0,0,0,0,,,,,"[0.16666666666666666, 0.16666666666666666, 0.5833333333333334, 0.16666666666666666, 0.16666666666666666, 0.3333333333333333, 0.3333333333333333, 0.3333333333333333, 0.5833333333333334, 0.3333333333333333, 0.16666666666666666, 0.3333333333333333, 0.3333333333333333, 0.16666666666666666, 0.16666666666666666]",227.75966690003406,None,2.0321899586589125,time,352.0,17.891021098572338,0.0006982600572824429,0,45,[],0.024082800140604377,None,None,228.77157010009978,None,0.22867100010626018,2.2608609587651727,228.98647400003392,None,,224.65908170002513,None,,,,,,,,wquuex,001,fr,0,2022-05-06_17h12.00.958,Continuous,2022.1.1,35.720957881604356,
7,0,7,0,1,0,1,0,,,,,,,,2.0321899586589125,time,222.0,12.416399196064937,0.0009286191623186585,0,46,[],0.019504500087350607,None,['space'],231.01028140005656,231.01028140005656,0.22424480004701763,2.25643475870593,231.22163660009392,231.01028140005656,[-0.3313761999597773],,,,,,,,,,wquuex,001,fr,0,2022-05-06_17h12.00.958,Continuous,2022.1.1,35.720957881604356,
7,0,7,0,2,0,2,0,,,,,,,,2.0321899586589125,time,176.0,12.838206508268586,0.001547034710681672,0,47,[],0.01954689994454384,None,['space'],233.25136280001607,233.25136280001607,0.22391639999113977,2.2561063586500523,233.4631439000368,233.25136280001607,[-1.8202689999016002],,,,,,,,,,wquuex,001,fr,0,2022-05-06_17h12.00.958,Continuous,2022.1.1,35.720957881604356,
7,0,7,0,3,0,3,0,,,,,,,,2.0321899586589125,time,,,,1,47,[],0.015509200165979564,0.2102534001460299,['space'],235.48957380000502,235.48957380000502,0.2102534001460299,2.2424433588049424,235.70427820004988,235.48957380000502,[-1.882029699976556],,,,,,,,,,wquuex,001,fr,0,2022-05-06_17h12.00.958,Continuous,2022.1.1,35.720957881604356,
7,0,7,0,4,0,4,0,,,,,,,,2.0321899586589125,time,157.0,9.441468672674372,0.0012983109634761233,0,48,[],0.020749600022099912,None,['space'],237.7316558000166,237.7316558000166,0.2222144000697881,2.2544043587287006,237.94777440000325,237.7316558000166,[-0.4123346999986097],,,,,,,,,,wquuex,001,fr,0,2022-05-06_17h12.00.958,Continuous,2022.1.1,35.720957881604356,
7,0,7,0,5,0,5,0,,,,,,,,2.0321899586589125,time,314.0,18.7464940271332,0.0008628496127574062,0,49,[],0.012771700043231249,None,['space'],239.983275400009,239.983275400009,0.2080333000048995,2.240223258663812,240.19746480009053,239.983275400009,[-1.7203818999696523],,,,,,,,,,wquuex,001,fr,0,2022-05-06_17h12.00.958,Continuous,2022.1.1,35.720957881604356,
7,0,7,0,6,0,6,0,,,,,,,,2.0321899586589125,time,280.0,17.987736040967874,0.0010763861272568265,0,50,[],0.014137199963442981,None,['space'],242.23339579999447,242.23339579999447,0.20815029996447265,2.240340258623385,242.44947059999686,242.23339579999447,[-1.8747322999406606],,,,,,,,,,wquuex,001,fr,0,2022-05-06_17h12.00.958,Continuous,2022.1.1,35.720957881604356,
7,0,7,0,7,0,7,0,,,,,,,,2.0321899586589125,time,125.0,19.0,0.006441247758465671,0,51,[],0.015174900065176189,None,['space'],244.48329490004107,244.48329490004107,0.20912410004530102,2.2413140587042135,244.7010200000368,244.48329490004107,[-1.8678986999439076],,,,,,,,,,wquuex,001,fr,0,2022-05-06_17h12.00.958,Continuous,2022.1.1,35.720957881604356,
8,0,8,0,0,0,0,0,,,,,,249.72869630006608,None,2.7975276369521884,frequency,8000.0,30.0,0.005740768107484416,0,32,[],0.01934890018310398,0.21811020013410598,None,250.7343256000895,None,0.21811020013410598,3.0156378370862944,250.95352249999996,None,,246.7329313000664,None,0.3333333333333333,,,,,,,wquuex,001,fr,0,2022-05-06_17h12.00.958,Continuous,2022.1.1,35.720957881604356,
8,0,8,0,1,0,1,0,,,,,,,,2.374743727638614,frequency,6350.0,29.606798189092746,0.003975059082045845,0,33,[],0.012217200128361583,0.20615400013048202,None,253.74758160009515,253.74758160009515,0.20615400013048202,2.580897727769096,253.9602092000423,253.74758160009515,,,,,,,,,,,wquuex,001,fr,0,2022-05-06_17h12.00.958,Continuous,2022.1.1,35.720957881604356,
8,0,8,0,2,0,2,0,,,,,,,,2.6962144856594015,frequency,5040.0,24.17205098591885,0.002445446888493113,0,34,[],0.019152100081555545,None,['space'],256.33546570001636,256.33546570001636,0.22082770010456443,2.917042185763966,256.5529583999887,256.33546570001636,[-2.0242814000230283],,,,,,,,,,wquuex,001,fr,0,2022-05-06_17h12.00.958,Continuous,2022.1.1,35.720957881604356,
8,0,8,0,3,0,3,0,,,,,,,,2.9153858498265497,frequency,4000.0,21.648688249948545,0.0010148559839878231,0,35,[],0.01925629994366318,None,None,259.2456577999983,259.2456577999983,0.22424280003178865,3.1396286498583383,259.46590180008207,259.2456577999983,,,,,,,,,,,wquuex,001,fr,0,2022-05-06_17h12.00.958,Continuous,2022.1.1,35.720957881604356,
8,0,8,0,4,0,4,0,,,,,,,,2.559770909197383,frequency,3175.0,22.581008285566128,0.0009349170922522339,0,36,[],0.01925510005094111,None,['space'],262.3757871000562,262.3757871000562,0.2221618000185117,2.7819327092158948,262.5929092000006,262.3757871000562,[-2.7536313000600785],,,,,,,,,,wquuex,001,fr,0,2022-05-06_17h12.00.958,Continuous,2022.1.1,35.720957881604356,
8,0,8,0,5,0,5,0,,,,,,,,1.765683425228508,frequency,2520.0,26.796096693966536,0.0018511641271563401,0,37,[],0.01903120009228587,None,['space'],265.14603050006554,265.14603050006554,0.222013600054197,1.987697025282705,265.3617380000651,265.14603050006554,[-2.4511334999697283],,,,,,,,,,wquuex,001,fr,0,2022-05-06_17h12.00.958,Continuous,2022.1.1,35.720957881604356,
8,0,8,0,6,0,6,0,,,,,,,,2.8599395338936713,frequency,2000.0,27.492006693294236,0.0017724350881962764,0,38,[],0.014910300145857036,0.21094870008528233,['space'],267.12248610006645,267.12248610006645,0.21094870008528233,3.0708882339789536,267.34078490000684,267.12248610006645,[-1.5962193000596017],,,,,,,,,,wquuex,001,fr,0,2022-05-06_17h12.00.958,Continuous,2022.1.1,35.720957881604356,
8,0,8,0,7,0,7,0,,,,,,,,2.5220244893974257,frequency,,,,1,38,[],0.018996200058609247,None,['space'],270.201592400088,270.201592400088,0.2243294999934733,2.746353989390899,270.415797600057,270.201592400088,[-2.7711215000599623],,,,,,,,,,wquuex,001,fr,0,2022-05-06_17h12.00.958,Continuous,2022.1.1,35.720957881604356,
8,0,8,0,8,0,8,0,,,,,,,,1.1020141249359585,frequency,1260.0,29.016704631048036,0.0015322254930942886,0,39,[],0.02017650008201599,None,None,272.94194430008065,272.94194430008065,0.22342640010174364,1.3254405250377022,273.15120339998975,272.94194430008065,,,,,,,,,,,wquuex,001,fr,0,2022-05-06_17h12.00.958,Continuous,2022.1.1,35.720957881604356,
9,0,9,0,0,0,0,0,,,,,"[0.5833333333333334, 0.5833333333333334, 0.16666666666666666, 0.3333333333333333, 0.5833333333333334, 0.5833333333333334, 0.3333333333333333, 0.16666666666666666, 0.3333333333333333, 0.5833333333333334, 0.16666666666666666, 0.5833333333333334, 0.3333333333333333, 0.3333333333333333, 0.16666666666666666]",277.7884415000444,None,2.160211248683589,time,2000.0,24.15518920031389,0.0012070616842963624,0,52,[],0.02421110006980598,None,['space'],278.79316190001555,None,0.22610970004461706,2.386320948728206,279.01418330008164,None,[-1.2819933999562636],274.2567509000655,None,,,,,,,,wquuex,001,fr,0,2022-05-06_17h12.00.958,Continuous,2022.1.1,35.720957881604356,
9,0,9,0,1,0,1,0,,,,,,,,2.160211248683589,time,4490.0,30.490943823957423,0.003936931303875631,0,53,[],0.017271699965931475,None,['space'],281.16872509999666,281.16872509999666,0.2187011999776587,2.378912448661248,281.3849657000974,281.16872509999666,[-1.9293088999111205],,,,,,,,,,wquuex,001,fr,0,2022-05-06_17h12.00.958,Continuous,2022.1.1,35.720957881604356,
9,0,9,0,2,0,2,0,,,,,,,,2.160211248683589,time,944.0,30.584869398450174,0.0014362559794095164,0,54,[],0.018686900031752884,None,['space'],283.54800910002086,283.54800910002086,0.21900840010493994,2.379219648788529,283.7629278000677,283.54800910002086,[-2.0211777000222355],,,,,,,,,,wquuex,001,fr,0,2022-05-06_17h12.00.958,Continuous,2022.1.1,35.720957881604356,
9,0,9,0,3,0,3,0,,,,,,,,2.160211248683589,time,5657.0,29.466132330073115,0.0038218323045551257,0,55,[],0.013935200055129826,None,['space'],285.9265443000477,285.9265443000477,0.20871550007723272,2.368926748760822,286.141506300075,285.9265443000477,[-2.031495700008236],,,,,,,,,,wquuex,001,fr,0,2022-05-06_17h12.00.958,Continuous,2022.1.1,35.720957881604356,
9,0,9,0,4,0,4,0,,,,,,,,2.160211248683589,time,1587.0,27.68825901280438,0.0013486401274811156,0,56,[],0.01872150006238371,None,['space'],288.3089397000149,288.3089397000149,0.22237029997631907,2.3825815486599082,288.525816300069,288.3089397000149,[-1.1664063000353053],,,,,,,,,,wquuex,001,fr,0,2022-05-06_17h12.00.958,Continuous,2022.1.1,35.720957881604356,
9,0,9,0,5,0,5,0,,,,,,,,2.160211248683589,time,,,,1,56,[],0.01886229997035116,None,['space'],290.68856740009505,290.68856740009505,0.22246740001719445,2.3826786487007836,290.9033238000702,290.68856740009505,[-1.9614434000104666],,,,,,,,,,wquuex,001,fr,0,2022-05-06_17h12.00.958,Continuous,2022.1.1,35.720957881604356,
9,0,9,0,6,0,6,0,,,,,,,,2.160211248683589,time,2997.0,24.73414965606899,0.0009487500308419865,0,57,[],0.016398100065998733,None,None,293.06598370010033,293.06598370010033,0.21500130009371787,2.375212548777307,293.2858206999954,293.06598370010033,,,,,,,,,,,wquuex,001,fr,0,2022-05-06_17h12.00.958,Continuous,2022.1.1,35.720957881604356,
9,0,9,0,7,0,7,0,,,,,,,,2.160211248683589,time,8000.0,31.0,0.006441247758465671,0,58,[],0.018092600163072348,None,['space'],295.4507895000279,295.4507895000279,0.22131940012332052,2.3815306488069097,295.6708746000659,295.4507895000279,[-1.8757259999401867],,,,,,,,,,wquuex,001,fr,0,2022-05-06_17h12.00.958,Continuous,2022.1.1,35.720957881604356,
9,0,9,0,8,0,8,0,,,,,,,,2.160211248683589,time,1414.0,29.783064844784175,0.0015556361181135704,0,59,[],0.018671100144274533,None,None,297.8302803999977,297.8302803999977,0.22421090013813227,2.3844221488217214,298.0376236999873,297.8302803999977,,,,,,,,,,,wquuex,001,fr,0,2022-05-06_17h12.00.958,Continuous,2022.1.1,35.720957881604356,
10,0,10,0,0,0,0,0,,,,,"[0.5833333333333334, 0.3333333333333333, 0.5833333333333334, 0.5833333333333334, 0.3333333333333333, 0.16666666666666666, 0.16666666666666666, 0.16666666666666666, 0.16666666666666666, 0.3333333333333333, 0.5833333333333334, 0.5833333333333334, 0.5833333333333334, 0.5833333333333334, 0.3333333333333333]",309.66078020003624,None,1.695108897793222,time,,,,1,59,[],0.022617600043304265,None,['space'],310.68723260005936,None,0.22740620002150536,1.9225150978147274,310.899358100025,None,[-0.8241698000347242],300.20523429999594,None,,,,,,,,wquuex,001,fr,0,2022-05-06_17h12.00.958,Continuous,2022.1.1,35.720957881604356,
10,0,10,0,1,0,1,0,,,,,,,,1.695108897793222,time,933.0,19.066652592759034,0.0003785397190638838,0,60,[],0.01927099993918091,None,None,312.60040540003683,312.60040540003683,0.22431820002384484,1.9194270978170669,312.81812800001353,312.60040540003683,,,,,,,,,,,wquuex,001,fr,0,2022-05-06_17h12.00.958,Continuous,2022.1.1,35.720957881604356,
10,0,10,0,2,0,2,0,,,,,,,,1.695108897793222,time,3732.0,16.024883573087937,0.0005013777817843253,0,61,[],0.009851399925537407,0.20450919994618744,None,314.5142796,314.5142796,0.20450919994618744,1.8996180977394095,314.72448920004535,314.5142796,,,,,,,,,,,wquuex,001,fr,0,2022-05-06_17h12.00.958,Continuous,2022.1.1,35.720957881604356,
10,0,10,0,3,0,3,0,,,,,,,,1.695108897793222,time,5278.0,16.0,0.0008990791209114119,0,62,[],0.018299999996088445,None,None,316.4220642000437,316.4220642000437,0.22071760008111596,1.915826497874338,316.6376796000404,316.4220642000437,,,,,,,,,,,wquuex,001,fr,0,2022-05-06_17h12.00.958,Continuous,2022.1.1,35.720957881604356,
10,0,10,0,4,0,4,0,,,,,,,,1.695108897793222,time,2639.0,19.35635151881307,0.0007173951721624864,0,63,[],0.01244130008853972,0.2092397001106292,None,318.3326421000529,318.3326421000529,0.2092397001106292,1.9043485979038512,318.5520894000074,318.3326421000529,,,,,,,,,,,wquuex,001,fr,0,2022-05-06_17h12.00.958,Continuous,2022.1.1,35.720957881604356,
10,0,10,0,5,0,5,0,,,,,,,,1.695108897793222,time,4189.0,16.327458440036743,0.0006351789989174389,0,64,[],0.01825040008407086,None,None,320.2414251000155,320.2414251000155,0.22171810001600534,1.9168269978092274,320.4561529000057,320.2414251000155,,,,,,,,,,,wquuex,001,fr,0,2022-05-06_17h12.00.958,Continuous,2022.1.1,35.720957881604356,
10,0,10,0,6,0,6,0,,,,,,,,1.695108897793222,time,1761.0,21.581265161392498,0.0007680336026780006,0,65,[],0.011513499892316759,None,None,322.15400470001623,322.15400470001623,0.2083479999564588,1.9034568977496809,322.3708669000771,322.15400470001623,,,,,,,,,,,wquuex,001,fr,0,2022-05-06_17h12.00.958,Continuous,2022.1.1,35.720957881604356,
10,0,10,0,7,0,7,0,,,,,,,,1.695108897793222,time,1175.0,16.960341912997187,0.0003620305153792241,0,66,[],0.014022899908013642,0.20784739998634905,['space'],324.0687304000603,324.0687304000603,0.20784739998634905,1.902956297779571,324.2846549000824,324.0687304000603,[-1.501559800002724],,,,,,,,,,wquuex,001,fr,0,2022-05-06_17h12.00.958,Continuous,2022.1.1,35.720957881604356,
10,0,10,0,8,0,8,0,,,,,,,,1.695108897793222,time,6650.0,25.404401431798412,0.00261974405131464,0,67,[],0.018144299974665046,None,None,325.98187350004446,325.98187350004446,0.2227887000190094,1.9178975978122315,326.1951048000483,325.98187350004446,,,,,,,,,,,wquuex,001,fr,0,2022-05-06_17h12.00.958,Continuous,2022.1.1,35.720957881604356,
10,0,10,0,9,0,9,0,,,,,,,,1.695108897793222,time,4702.0,17.75491671582304,0.0010212097489069713,0,68,[],0.013939899974502623,0.2104597999714315,None,327.88710620009806,327.88710620009806,0.2104597999714315,1.9055686977646535,328.1010663000634,327.88710620009806,,,,,,,,,,,wquuex,001,fr,0,2022-05-06_17h12.00.958,Continuous,2022.1.1,35.720957881604356,
11,0,11,0,0,0,0,0,,,,,,331.7698653000407,None,1.9273979511306083,both,6964.0,30.192380092875005,0.004854026123181834,0,49,[],0.017726300051435828,0.21363360004033893,['space'],332.7890271000797,None,0.21363360004033893,2.141031551170947,332.9999488000758,None,[-1.5019774999236688],329.8033492000541,None,0.3333333333333333,,,,,,,wquuex,001,fr,0,2022-05-06_17h12.00.958,Continuous,2022.1.1,35.720957881604356,
11,0,11,0,1,0,1,0,,,,,,,,1.9273979511306083,both,5527.0,26.98774658173328,0.0029802818176334366,0,50,[],0.009668199927546084,None,None,334.9359885000158,334.9359885000158,0.20327019994147122,2.1306681510720793,335.1476042000577,334.9359885000158,,,,,,,,,,,wquuex,001,fr,0,2022-05-06_17h12.00.958,Continuous,2022.1.1,35.720957881604356,
11,0,11,0,2,0,2,0,,,,,,,,1.9273979511306083,both,4387.0,21.843752579413135,0.0013671537086694923,0,51,[],0.016066599870100617,None,None,337.077393900021,337.077393900021,0.2159758999478072,2.1433738510784153,337.293218200095,337.077393900021,,,,,,,,,,,wquuex,001,fr,0,2022-05-06_17h12.00.958,Continuous,2022.1.1,35.720957881604356,
11,0,11,0,3,0,3,0,,,,,,,,1.9273979511306083,both,3482.0,25.0,0.0013309919104738872,0,52,[],0.013519600150175393,0.20599200017750263,['space'],339.21871450007893,339.21871450007893,0.20599200017750263,2.1333899513081107,339.43483740009833,339.21871450007893,[-1.756209500017576],,,,,,,,,,wquuex,001,fr,0,2022-05-06_17h12.00.958,Continuous,2022.1.1,35.720957881604356,
11,0,11,0,4,0,4,0,,,,,,,,1.9273979511306083,both,2764.0,22.388876622912083,0.0009148797866003645,0,53,[],0.01770530012436211,None,['space'],341.36359910003375,341.36359910003375,0.22135000012349337,2.1487479512541015,341.57644470001105,341.36359910003375,[-1.725365399965085],,,,,,,,,,wquuex,001,fr,0,2022-05-06_17h12.00.958,Continuous,2022.1.1,35.720957881604356,
11,0,11,0,5,0,5,0,,,,,,,,1.9273979511306083,both,2194.0,23.103347986102797,0.0011308657385268445,0,54,[],0.0174235999584198,None,['space'],343.50164330005646,343.50164330005646,0.22273519996087998,2.150133151091488,343.7153061000863,343.50164330005646,[-1.7030587000772357],,,,,,,,,,wquuex,001,fr,0,2022-05-06_17h12.00.958,Continuous,2022.1.1,35.720957881604356,
11,0,11,0,6,0,6,0,,,,,,,,1.9273979511306083,both,1741.0,24.671964831569454,0.0010808003452817527,0,55,[],0.013456299901008606,0.20832599990535527,['space'],345.63887380005326,345.63887380005326,0.20832599990535527,2.1357239510359634,345.8569855000824,345.63887380005326,[-1.7754805999575183],,,,,,,,,,wquuex,001,fr,0,2022-05-06_17h12.00.958,Continuous,2022.1.1,35.720957881604356,
11,0,11,0,7,0,7,0,,,,,,,,1.9273979511306083,both,1382.0,24.787545233132466,0.000889036099766277,0,56,[],0.010576100088655949,None,['space'],347.7824699000921,347.7824699000921,0.20890190009959042,2.1362998512301985,347.9983736000722,347.7824699000921,[-1.8080069000134245],,,,,,,,,,wquuex,001,fr,0,2022-05-06_17h12.00.958,Continuous,2022.1.1,35.720957881604356,
11,0,11,0,8,0,8,0,,,,,,,,1.9273979511306083,both,1097.0,24.710655924558573,0.0008274946913139105,0,57,[],0.01272669993340969,None,['space'],349.93176240008324,349.93176240008324,0.20966910000424832,2.1370670511348564,350.15338630008046,349.93176240008324,[-1.7172878000419587],,,,,,,,,,wquuex,001,fr,0,2022-05-06_17h12.00.958,Continuous,2022.1.1,35.720957881604356,
11,0,11,0,9,0,9,0,,,,,,,,1.9273979511306083,both,871.0,24.10229443691987,0.0006476581534764739,0,58,[],0.013575100107118487,None,['space'],352.08035430009477,352.08035430009477,0.2080924001056701,2.135490351236278,352.2944658000488,352.08035430009477,[-1.8337744999444112],,,,,,,,,,wquuex,001,fr,0,2022-05-06_17h12.00.958,Continuous,2022.1.1,35.720957881604356,
11,0,11,0,10,0,10,0,,,,,,,,1.9273979511306083,both,691.0,24.550711196207537,0.0007736543916307581,0,59,[],0.01645610004197806,None,['space'],354.22905140009243,354.22905140009243,0.21704960009083152,2.1444475512214396,354.4400482000783,354.22905140009243,[-1.8222491999622434],,,,,,,,,,wquuex,001,fr,0,2022-05-06_17h12.00.958,Continuous,2022.1.1,35.720957881604356,
11,0,11,0,11,0,11,0,,,,,,,,1.9273979511306083,both,,,,1,59,[],0.01341310003772378,0.2089541000314057,['space'],356.3665503000375,356.3665503000375,0.2089541000314057,2.1363520511620138,356.58491179998964,356.3665503000375,[-1.799866299959831],,,,,,,,,,wquuex,001,fr,0,2022-05-06_17h12.00.958,Continuous,2022.1.1,35.720957881604356,
12,0,12,0,0,0,0,0,,,,,,361.36100150004495,None,2.3195165366906143,both,4002.0,15.574825489541695,0.0005051527004145036,0,60,[],0.024154799873940647,None,None,362.38101370004006,None,0.22782489995006472,2.547341436640679,362.5997279000003,None,,358.50652270007413,None,0.5833333333333334,,,,,,,wquuex,001,fr,0,2022-05-06_17h12.00.958,Continuous,2022.1.1,35.720957881604356,
12,0,12,0,1,0,1,0,,,,,,,,2.3195165366906143,both,2671.0,16.39151597107274,0.0004968116047910654,0,61,[],0.01670200005173683,None,None,364.9235295000253,364.9235295000253,0.220545900054276,2.5400624367448903,365.1395034000743,364.9235295000253,,,,,,,,,,,wquuex,001,fr,0,2022-05-06_17h12.00.958,Continuous,2022.1.1,35.720957881604356,
12,0,12,0,2,0,2,0,,,,,,,,2.3195165366906143,both,,,,1,61,[],0.014230000087991357,None,None,367.46033280005213,367.46033280005213,0.2133099000202492,2.5328264367108635,367.67668020003475,367.46033280005213,,,,,,,,,,,wquuex,001,fr,0,2022-05-06_17h12.00.958,Continuous,2022.1.1,35.720957881604356,
12,0,12,0,3,0,3,0,,,,,,,,2.3195165366906143,both,1190.0,19.184501266853434,0.00047339650004442395,0,62,[],0.014149900060147047,None,None,369.99984830000903,369.99984830000903,0.21043020009528846,2.5299467367859028,370.217160900007,369.99984830000903,,,,,,,,,,,wquuex,001,fr,0,2022-05-06_17h12.00.958,Continuous,2022.1.1,35.720957881604356,
12,0,12,0,4,0,4,0,,,,,,,,2.3195165366906143,both,794.0,11.491886327105185,0.00014509131663293634,0,63,[],0.016899800044484437,None,['space'],372.5413660000777,372.5413660000777,0.22102590010035783,2.540542436790972,372.75493250007275,372.5413660000777,[0.13717389991506934],,,,,,,,,,wquuex,001,fr,0,2022-05-06_17h12.00.958,Continuous,2022.1.1,35.720957881604356,
12,0,12,0,5,0,5,0,,,,,,,,2.3195165366906143,both,530.0,13.67165344025155,0.0003222029318265692,0,64,[],0.016679200110957026,None,None,375.08328520006035,375.08328520006035,0.22300360002554953,2.542520136716164,375.3048361000838,375.08328520006035,,,,,,,,,,,wquuex,001,fr,0,2022-05-06_17h12.00.958,Continuous,2022.1.1,35.720957881604356,
12,0,12,0,6,0,6,0,,,,,,,,2.3195165366906143,both,354.0,11.0,0.00031399702790770284,0,65,[],0.01703130011446774,None,['space'],377.62027680000756,377.62027680000756,0.21958430006634444,2.5391008367569587,377.83657090005,377.62027680000756,[-1.9975005999440327],,,,,,,,,,wquuex,001,fr,0,2022-05-06_17h12.00.958,Continuous,2022.1.1,35.720957881604356,
12,0,12,0,7,0,7,0,,,,,,,,2.3195165366906143,both,236.0,11.0,0.0006915716744058986,0,66,[],0.013328299974091351,None,['space'],380.15995610004757,380.15995610004757,0.20725560002028942,2.5267721367109037,380.3776677000569,380.15995610004757,[0.2147357000503689],,,,,,,,,,wquuex,001,fr,0,2022-05-06_17h12.00.958,Continuous,2022.1.1,35.720957881604356,
12,0,12,0,8,0,8,0,,,,,,,,2.3195165366906143,both,158.0,9.299822750125252,0.0012513375555114675,0,67,[],0.016744399908930063,None,None,382.702437800006,382.702437800006,0.22413250000681728,2.5436490366974316,382.9246553000994,382.702437800006,,,,,,,,,,,wquuex,001,fr,0,2022-05-06_17h12.00.958,Continuous,2022.1.1,35.720957881604356,
13,0,13,0,0,0,0,0,,,,,,389.2893073000014,None,2.34208909175186,both,708.0,12.150251209737199,0.00017953849200352882,0,68,['both'],0.024130000034347177,None,None,390.3204940999858,None,0.2283147000707686,2.5704037918226286,390.5279770999914,None,,385.24418610008433,None,0.16666666666666666,"{'estimation': [[125.0, 13.411375664518484], [128.21836351238443, 13.0], [133.9716828170366, 12.344181175603715], [137.2393860148489, 12.0], [143.5872943746293, 11.382017125225003], [148.3532176778302, 11.0], [153.89305166811442, 10.576733511522246], [164.53732872348112, 10.0], [164.93848884661162, 9.978489004364615], [176.77669529663666, 9.606263238480334], [189.46457081379947, 9.460406009668153], [203.0630990890585, 9.496723171309206], [217.6376408240306, 9.64833536836404], [233.25824788420132, 9.835159939288463], [249.99999999999937, 9.982402144246727], [255.5227278206583, 10.0], [267.94336563407256, 10.03942896737119], [287.1745887492579, 10.003079465491963], [287.94235745500123, 10.0], [307.78610333622805, 9.921140878153679], [329.87697769322244, 9.878210789011922], [353.55339059327247, 9.970284970187171], [355.89423266145025, 9.999999999999998], [378.929141627598, 10.27534916058926], [406.12619817811606, 10.823686770773188], [412.2327283182354, 11.0], [435.2752816480601, 11.609816866574295], [447.4002405440492, 12.0], [466.5164957684015, 12.562977072187241], [480.1816133642142, 13.0], [499.9999999999975, 13.586047971243925], [514.4844610636295, 14.0], [535.8867312681438, 14.580755564083171], [553.7500081943055, 15.0], [574.3491774985143, 15.472630117820405], [603.1851102762591, 16.0], [615.5722066724546, 16.226349160573097], [659.7539553864432, 16.84386657220414], [673.1221496161088, 17.0], [707.1067811865431, 17.384774064169562], [757.8582832551932, 17.88594566191164], [769.3091770016574, 18.0], [812.2523963562301, 18.406175505854964], [870.5505632961181, 18.951674027585188], [875.532070533916, 19.0], [933.0329915368008, 19.523560085800003], [988.6474682114514, 20.0], [999.9999999999926, 20.094158502947923], [1071.773462536285, 20.627172772975822], [1129.657015616085, 21.0], [1148.698354997026, 21.12001962716172], [1231.1444133449063, 21.558657987635485], [1319.5079107728832, 21.97073666687278], [1326.089402434269, 22.0], [1414.2135623730828, 22.373586418166823], [1515.7165665103846, 22.766932290693365], [1580.3463813175429, 23.0], [1624.5047927124563, 23.152400381775166], [1741.1011265922318, 23.47480983869052], [1866.065983073597, 23.68873414285428], [1999.9999999999802, 23.747022872169556], [2143.5469250725646, 23.621706739345285], [2297.396709994046, 23.32671983200374], [2425.5392035881828, 23.0], [2462.2888266898062, 22.908819331925287], [2639.01582154576, 22.483760268200825], [2828.427124746159, 22.16524442915764], [3031.4331330207615, 22.065827741629832], [3249.0095854249043, 22.273139412760152], [3482.2022531844555, 22.804842592920807], [3540.2501402509583, 23.0], [3732.1319661471844, 23.633343358122204], [3826.0239102188075, 24.0], [3999.9999999999504, 24.65895505745512], [4086.059099674034, 25.000000000000004], [4287.093850145118, 25.75964065556156], [4353.6083616474225, 26.0], [4594.793419988081, 26.816405813703557], [4656.105245303727, 27.0], [4924.577653379601, 27.741696277233533], [5038.692286088273, 28.0], [5278.031643091506, 28.500248679357043], [5591.219226806734, 29.0], [5656.854249492303, 29.100006354502856], [6062.866266041508, 29.580147942672], [6498.019170849792, 29.996686017379727], [6501.9217052970225, 30.0], [6964.404506368902, 30.372366561849056], [7464.2639322943505, 30.688117087961377], [7999.999999999882, 30.907655421902774]], 'plus_line': [[125.0, 10.870610490905998], [133.9716828170366, 10.002677785773646], [133.99921487124007, 10.0], [143.5872943746293, 9.125724654154682], [145.2003866372004, 9.0], [153.89305166811442, 8.335324482837668], [160.04123597531492, 8.0], [164.93848884661162, 7.720262546544012], [176.77669529663666, 7.333506454627047], [189.46457081379947, 7.185574766912746], [203.0630990890585, 7.229842954385087], [217.6376408240306, 7.390258216094832], [233.25824788420132, 7.567620632524534], [249.99999999999937, 7.668294464575023], [267.94336563407256, 7.643168624904036], [287.1745887492579, 7.515747427207025], [307.78610333622805, 7.3619419574906475], [329.87697769322244, 7.276473077150147], [353.55339059327247, 7.35521837943557], [378.929141627598, 7.687168774987879], [391.5302970909982, 8.0], [406.12619817811606, 8.31955629500521], [427.5462871779808, 9.0], [435.2752816480601, 9.223342671630096], [457.2847517161235, 10.0], [466.5164957684015, 10.30003800355865], [486.9453292947703, 11.0], [499.9999999999975, 11.419552722149344], [519.727202786419, 12.0], [535.8867312681438, 12.45282431330647], [559.632506175612, 13.0], [574.3491774985143, 13.324124230514666], [613.5368961434144, 14.0], [615.5722066724546, 14.03387033839866], [659.7539553864432, 14.581937138218088], [696.5612292608637, 15.0], [707.1067811865431, 15.109540459207048], [757.8582832551941, 15.593903753261575], [797.204355920893, 16.0], [812.2523963562301, 16.13953873681699], [870.5505632961181, 16.692671575918173], [900.5207371646641, 17.0], [933.0329915368008, 17.296109179076176], [999.9999999999914, 17.89507218028644], [1012.3704958524706, 18.0], [1071.773462536285, 18.43630519340554], [1148.698354997026, 18.93320263573718], [1160.6700976956552, 19.0], [1231.1444133449063, 19.33789435779937], [1319.5079107728832, 19.71494283958944], [1384.116673094079, 20.0], [1414.2135623730828, 20.117025698747934], [1515.7165665103846, 20.50798882595903], [1624.504792712458, 20.932564651744748], [1643.9507749740712, 21.0], [1741.1011265922318, 21.279833410335694], [1866.065983073597, 21.510054115813077], [1999.9999999999802, 21.585529002344146], [2143.5469250725646, 21.481218327812357], [2297.396709994046, 21.21686488780888], [2387.51097735535, 21.0], [2462.2888266898062, 20.80570634397863], [2639.01582154576, 20.352918127582903], [2820.4815962936395, 20.0], [2828.427124746162, 19.982297262798884], [3031.4331330207615, 19.771662514511636], [3249.0095854249043, 19.885674246321194], [3303.7687699749754, 20.0], [3482.2022531844555, 20.33456711292562], [3691.771609182652, 21.0], [3732.1319661471844, 21.123321561753265], [3961.542517325852, 22.0], [3999.9999999999504, 22.142346725671167], [4214.742412866039, 23.0], [4287.093850145118, 23.277971156274], [4479.5424503935, 24.0], [4594.793419988081, 24.410861668833565], [4778.249122896684, 25.0], [4924.577653379601, 25.4367340575833], [5150.271813689225, 26.0], [5278.031643091506, 26.28995253934385], [5656.854249492303, 26.953467354991304], [5690.526684646586, 27.0], [6062.866266041508, 27.438281272834097], [6498.019170849792, 27.864104318454373], [6650.251281666153, 28.0], [6964.404506368894, 28.238324752803017], [7464.2639322943505, 28.517793505662773], [7999.999999999882, 28.613347359051772]], 'minus_line': [[125.0, 15.981344627409971], [131.79039992932084, 15.0], [133.9716828170366, 14.714582109672062], [140.25018301549323, 14.0], [143.5872943746293, 13.64785189595365], [151.35734170054462, 13.0], [153.89305166811442, 12.803201134623741], [164.93848884661162, 12.219768780147035], [171.7088960368731, 12.0], [176.77669529663666, 11.856313978959138], [189.46457081379947, 11.725822712004677], [203.0630990890585, 11.755401945847844], [217.6376408240306, 11.891249617593537], [226.53716953862966, 12.0], [233.25824788420132, 12.092039498150118], [249.99999999999937, 12.295466919147884], [267.94336563407256, 12.431358221450466], [287.1745887492579, 12.482746757888204], [307.78610333622805, 12.473575697618013], [329.87697769322244, 12.471686481178455], [353.55339059327247, 12.566076428969836], [378.929141627598, 12.82608896932252], [388.6385963736166, 13.0], [406.12619817811606, 13.317123260892046], [435.2752816480601, 13.97544441116421], [436.1241469522207, 14.0], [466.5164957684015, 14.81634428588203], [472.7452305322013, 15.0], [499.9999999999975, 15.750208206118531], [509.00091605260576, 16.0], [535.8867312681438, 16.713818409379698], [547.7450997033231, 17.0], [574.3491774985143, 17.636346642332146], [593.0114777605643, 18.0], [615.5722066724546, 18.451134294556574], [652.6479617273427, 19.0], [659.7539553864432, 19.112168216547655], [707.1067811865431, 19.67850976916251], [740.2339943132158, 20.0], [757.8582832551941, 20.18189478662675], [812.2523963562301, 20.683160901621363], [847.9601724302984, 21.0], [870.5505632961181, 21.21017818029899], [933.0329915368008, 21.74894176033626], [964.1802042084809, 22.0], [999.9999999999926, 22.29888687605689], [1071.773462536285, 22.80589456775511], [1102.2996663156914, 23.0], [1148.698354997026, 23.310877471338326], [1231.1444133449063, 23.76543153270314], [1279.439817498392, 24.0], [1319.5079107728832, 24.2108049869409], [1414.2135623730828, 24.624699271135956], [1515.7165665103846, 24.993133594033857], [1517.7674493140125, 25.0], [1624.5047927124563, 25.37132195842319], [1741.1011265922318, 25.664527853459248], [1866.065983073597, 25.854676478128503], [1999.9999999999802, 25.89909043975761], [2143.5469250725646, 25.764065153557958], [2297.396709994046, 25.45646130825311], [2462.2888266898062, 25.00996252672115], [2466.168706559423, 25.0], [2639.015821545763, 24.625378392369953], [2828.427124746159, 24.374639314653994], [3031.4331330207615, 24.372416193590325], [3249.0095854249043, 24.676487965036443], [3372.69328117843, 25.0], [3482.2022531844555, 25.30625379746141], [3679.7689703801157, 26.0], [3732.1319661471844, 26.186405304000616], [3939.483144869224, 27.0], [3999.9999999999504, 27.22902646197634], [4203.443361323919, 28.0], [4287.093850145118, 28.298540730704598], [4504.389116677635, 29.0], [4594.7934199880865, 29.27499305166397], [4890.258672671889, 30.0], [4924.577653379601, 30.08162429246173], [5278.031643091506, 30.74169907909119], [5461.575189069062, 31.0], [5656.854249492303, 31.28052314318681], [6062.866266041508, 31.727839504618878], [6360.632697189321, 32.0], [6498.019170849792, 32.136784143320426], [6964.4045063688845, 32.526048209852355], [7464.2639322943505, 32.87560328325028], [7653.339626127644, 33.0], [7999.999999999882, 33.262839635958265]]}",,,,,,wquuex,001,fr,0,2022-05-06_17h12.00.958,Continuous,2022.1.1,35.720957881604356,
13,0,13,0,1,0,1,0,,,,,,,,2.34208909175186,both,631.0,12.30443284939889,0.0002105943218074751,0,69,['both'],0.00945549993775785,0.20412949996534735,None,392.87370370002463,392.87370370002463,0.20412949996534735,2.5462185917172073,393.0856621999992,392.87370370002463,,,,,,,,,,,wquuex,001,fr,0,2022-05-06_17h12.00.958,Continuous,2022.1.1,35.720957881604356,
13,0,13,0,2,0,2,0,,,,,,,,2.34208909175186,both,562.0,13.81425980332599,0.0003030465873768339,0,70,['both'],0.008667199988849461,0.20603410003241152,None,395.434453300084,395.434453300084,0.20603410003241152,2.5481231917842715,395.64501570002176,395.434453300084,,,,,,,,,,,wquuex,001,fr,0,2022-05-06_17h12.00.958,Continuous,2022.1.1,35.720957881604356,
13,0,13,0,3,0,3,0,,,,,,,,2.34208909175186,both,501.0,14.347975405355571,0.0003718942387536424,0,71,['both'],0.01306319993454963,None,"['space', 'space']",397.99263780005276,397.99263780005276,0.21221919998060912,2.554308291732469,398.2136526000686,397.99263780005276,"[-2.0974714000476524, -0.03418790001887828]",,,,,,,,,,wquuex,001,fr,0,2022-05-06_17h12.00.958,Continuous,2022.1.1,35.720957881604356,
13,0,13,0,4,0,4,0,,,,,,,,2.34208909175186,both,446.0,14.874006878911645,0.00041127016669424146,0,72,['both'],0.011069100117310882,None,['space'],400.55364190007094,400.55364190007094,0.2095019001280889,2.551590991879949,400.77193550008815,400.55364190007094,[-0.16257439996115863],,,,,,,,,,wquuex,001,fr,0,2022-05-06_17h12.00.958,Continuous,2022.1.1,35.720957881604356,
13,0,13,0,5,0,5,0,,,,,,,,2.34208909175186,both,397.0,10.394226482835613,0.000255904136356552,0,73,['both'],0.012415200006216764,None,None,403.11860570008866,403.11860570008866,0.2075852999696508,2.549674391721511,403.33472530008294,403.11860570008866,,,,,,,,,,,wquuex,001,fr,0,2022-05-06_17h12.00.958,Continuous,2022.1.1,35.720957881604356,
13,0,13,0,6,0,6,0,,,,,,,,2.34208909175186,both,354.0,10.0,0.000279850145693948,0,74,['both'],0.016116600134409964,None,['space'],405.6830395000288,405.6830395000288,0.2187575000571087,2.5608465918089687,405.8988345999969,405.6830395000288,[-0.652192100067623],,,,,,,,,,wquuex,001,fr,0,2022-05-06_17h12.00.958,Continuous,2022.1.1,35.720957881604356,
13,0,13,0,7,0,7,0,,,,,,,,2.34208909175186,both,315.0,15.297717518006884,0.0005739259744047122,0,75,['both'],0.012078400002792478,None,None,408.2385527000297,408.2385527000297,0.2073385000694543,2.5494275918213143,408.4564753000159,408.2385527000297,,,,,,,,,,,wquuex,001,fr,0,2022-05-06_17h12.00.958,Continuous,2022.1.1,35.720957881604356,
13,0,13,0,8,0,8,0,,,,,,,,2.34208909175186,both,281.0,14.610735448404574,0.0007239594397711611,0,76,['both'],0.015524700051173568,None,['space'],410.80534760002047,410.80534760002047,0.21792179998010397,2.560010891731964,411.01344410004094,410.80534760002047,[-2.094577700016089],,,,,,,,,,wquuex,001,fr,0,2022-05-06_17h12.00.958,Continuous,2022.1.1,35.720957881604356,
13,0,13,0,9,0,9,0,,,,,,,,2.34208909175186,both,250.0,11.642871819101803,0.000639902188218464,0,77,['both'],0.011418499983847141,None,['space'],413.3601592000341,413.3601592000341,0.205914199934341,2.548003291686201,413.5783027000725,413.3601592000341,[-2.201372900046408],,,,,,,,,,wquuex,001,fr,0,2022-05-06_17h12.00.958,Continuous,2022.1.1,35.720957881604356,
13,0,13,0,10,0,10,0,,,,,,,,2.34208909175186,both,223.0,10.0,0.0006969054416838677,0,78,['both'],0.015577999991364777,None,['space'],415.92654850007966,415.92654850007966,0.21836239995900542,2.5604514917108654,416.1295109000057,415.92654850007966,[-2.079432800062932],,,,,,,,,,wquuex,001,fr,0,2022-05-06_17h12.00.958,Continuous,2022.1.1,35.720957881604356,
13,0,13,0,11,0,11,0,,,,,,,,2.34208909175186,both,199.0,8.815185785851163,0.0007424162797222652,0,79,['both'],0.01291649998165667,None,['space'],418.48005420004483,418.48005420004483,0.22142119996715337,2.5635102917190133,418.6984453999903,418.48005420004483,[-2.1855226999614388],,,,,,,,,,wquuex,001,fr,0,2022-05-06_17h12.00.958,Continuous,2022.1.1,35.720957881604356,
13,0,13,0,12,0,12,0,,,,,,,,2.34208909175186,both,177.0,9.61812127011412,0.0010567928896588628,0,80,['both'],0.011992700048722327,None,['space'],421.03968390007503,421.03968390007503,0.21113690012134612,2.553225991873206,421.25853910006117,421.03968390007503,[-2.122002199990675],,,,,,,,,,wquuex,001,fr,0,2022-05-06_17h12.00.958,Continuous,2022.1.1,35.720957881604356,
13,0,13,0,13,0,13,0,,,,,,,,2.34208909175186,both,,,,1,80,['both'],0.015140900039114058,None,['space'],423.6022611000808,423.6022611000808,0.2181352999759838,2.5602243917278438,423.8172986001009,423.6022611000808,[-2.0436470999848098],,,,,,,,,,wquuex,001,fr,0,2022-05-06_17h12.00.958,Continuous,2022.1.1,35.720957881604356,
13,0,13,0,14,0,14,0,,,,,,,,2.34208909175186,both,141.0,9.424824439944386,0.0017174138242334442,0,81,['both'],0.011513000121340156,0.20596760010812432,None,426.15836520004086,426.15836520004086,0.20596760010812432,2.5480566918599843,426.37436060002074,426.15836520004086,,,,,,,,,,,wquuex,001,fr,0,2022-05-06_17h12.00.958,Continuous,2022.1.1,35.720957881604356,
14,0,14,0,0,0,0,0,,,,,,436.2152042000089,None,2.7952207788534933,frequency,1416.0,18.19961732776222,0.000409550904378068,0,40,['both'],0.024040100048296154,0.22195839998312294,None,437.22983580001164,None,0.22195839998312294,3.0171791788366162,437.4406617000932,None,,428.7247160000261,None,0.3333333333333333,,,,,,,wquuex,001,fr,0,2022-05-06_17h12.00.958,Continuous,2022.1.1,35.720957881604356,
14,0,14,0,1,0,1,0,,,,,,,,1.0666148583166362,frequency,,,,1,40,['both'],0.014758100151084363,None,None,440.23602190008387,440.23602190008387,0.21916540013626218,1.2857802584528983,440.4525209000567,440.23602190008387,,,,,,,,,,,wquuex,001,fr,0,2022-05-06_17h12.00.958,Continuous,2022.1.1,35.720957881604356,
14,0,14,0,2,0,2,0,,,,,,,,1.3685364535667839,frequency,892.0,16.617776272293412,0.00027764594404301154,0,41,['both'],0.012196300085633993,None,None,441.524527200032,441.524527200032,0.20697080006357282,1.5755072536303567,441.74256250006147,441.524527200032,,,,,,,,,,,wquuex,001,fr,0,2022-05-06_17h12.00.958,Continuous,2022.1.1,35.720957881604356,
14,0,14,0,3,0,3,0,,,,,,,,1.8398412752204476,frequency,708.0,16.18291500879396,0.00028562141281821706,0,42,['both'],0.008098000078462064,None,None,443.11838610004634,443.11838610004634,0.2063967001158744,2.046237975336322,443.33905060007237,443.11838610004634,,,,,,,,,,,wquuex,001,fr,0,2022-05-06_17h12.00.958,Continuous,2022.1.1,35.720957881604356,
14,0,14,0,4,0,4,0,,,,,,,,1.256135420495428,frequency,562.0,15.877141738361914,0.00038428505465210906,0,43,['both'],0.015015100128948689,None,['space'],445.186144300038,445.186144300038,0.2197131001157686,1.4758485206111966,445.39921559998766,445.186144300038,[-1.6275017999578267],,,,,,,,,,wquuex,001,fr,0,2022-05-06_17h12.00.958,Continuous,2022.1.1,35.720957881604356,
14,0,14,0,5,0,5,0,,,,,,,,2.45383636025466,frequency,446.0,15.793644567075194,0.00045720302123195634,0,44,['both'],0.010269600083120167,None,['space'],446.6641593000386,446.6641593000386,0.206030200002715,2.659866560257375,446.8812118000351,446.6641593000386,[-1.009365399950184],,,,,,,,,,wquuex,001,fr,0,2022-05-06_17h12.00.958,Continuous,2022.1.1,35.720957881604356,
14,0,14,0,6,0,6,0,,,,,,,,1.7226303808860093,frequency,354.0,16.0,0.000558374449541685,0,45,['both'],0.015194700099527836,None,None,449.3435728000477,449.3435728000477,0.2192604000447318,1.941890780930741,449.5506827000063,449.3435728000477,,,,,,,,,,,wquuex,001,fr,0,2022-05-06_17h12.00.958,Continuous,2022.1.1,35.720957881604356,
14,0,14,0,7,0,7,0,,,,,,,,2.635601354701656,frequency,281.0,15.66384400873552,0.0008172777268310975,0,46,['both'],0.01292679994367063,0.21056739997584373,['space'],451.2816399000585,451.2816399000585,0.21056739997584373,2.8461687546774996,451.4869488000404,451.2816399000585,[-1.5475188000127673],,,,,,,,,,wquuex,001,fr,0,2022-05-06_17h12.00.958,Continuous,2022.1.1,35.720957881604356,
14,0,14,0,8,0,8,0,,,,,,,,1.3874116624396886,frequency,223.0,13.14787234008601,0.0010013075081369827,0,47,['both'],0.015207299962639809,None,['space'],454.13300330005586,454.13300330005586,0.21846469992306083,1.6058763623627494,454.33811590005644,454.13300330005586,[-2.4943932000314817],,,,,,,,,,wquuex,001,fr,0,2022-05-06_17h12.00.958,Continuous,2022.1.1,35.720957881604356,
14,0,14,0,9,0,9,0,,,,,,,,1.4221550578753808,frequency,177.0,11.690306864745821,0.0013415262106777248,0,48,['both'],0.014870300074107945,None,['space'],455.73531430005096,455.73531430005096,0.21836160006932914,1.64051665794471,455.95198750006966,455.73531430005096,[-1.3121528000338003],,,,,,,,,,wquuex,001,fr,0,2022-05-06_17h12.00.958,Continuous,2022.1.1,35.720957881604356,
14,0,14,0,10,0,10,0,,,,,,,,1.0018979563125627,frequency,140.0,12.448826953314125,0.0024699468503980517,0,49,['both'],0.011394999921321869,None,['space'],457.3753165000817,457.3753165000817,0.2065617999760434,1.2084597562886061,457.5917061000364,457.3753165000817,[-1.257174800033681],,,,,,,,,,wquuex,001,fr,0,2022-05-06_17h12.00.958,Continuous,2022.1.1,35.720957881604356,
15,0,15,0,0,0,0,0,,,,,"[0.16666666666666666, 0.16666666666666666, 0.16666666666666666, 0.5833333333333334, 0.16666666666666666, 0.16666666666666666, 0.16666666666666666, 0.3333333333333333, 0.3333333333333333, 0.16666666666666666, 0.16666666666666666, 0.16666666666666666, 0.16666666666666666, 0.3333333333333333, 0.3333333333333333]",461.5826007000869,None,1.1964831192082057,none,8000.0,29.0,0.005116464961403773,0,34,['both'],0.024007600033655763,None,None,462.6018880000338,None,0.2357001000782475,1.4321832192864532,462.82049549999647,None,,458.5961396000348,None,,,,,,,,wquuex,001,fr,0,2022-05-06_17h12.00.958,Continuous,2022.1.1,35.720957881604356,
15,0,15,0,1,0,1,0,,,,,,,,2.9922587171543604,none,2119.0,28.072754770852118,0.0019618121180390493,0,35,['both'],0.012175600044429302,None,None,464.0116919000866,464.0116919000866,0.2090462000342086,3.201304917188569,464.2272787000984,464.0116919000866,,,,,,,,,,,wquuex,001,fr,0,2022-05-06_17h12.00.958,Continuous,2022.1.1,35.720957881604356,
15,0,15,0,2,0,2,0,,,,,,,,1.945550592513464,none,1888.0,24.88379893864249,0.0012239481429721323,0,36,['both'],0.014602800132706761,None,['space'],467.2287881000666,467.2287881000666,0.2178167001111433,2.1633672926246073,467.4393070000224,467.2287881000666,[-2.8538506000768393],,,,,,,,,,wquuex,001,fr,0,2022-05-06_17h12.00.958,Continuous,2022.1.1,35.720957881604356,
15,0,15,0,3,0,3,0,,,,,,,,2.057203787406281,none,2379.0,24.610370946462602,0.001414850858535131,0,37,['both'],0.0107164999935776,None,['space'],469.3920142001007,469.3920142001007,0.20739950006827712,2.264603287474558,469.60754280001856,469.3920142001007,[-1.8658000000286847],,,,,,,,,,wquuex,001,fr,0,2022-05-06_17h12.00.958,Continuous,2022.1.1,35.720957881604356,
15,0,15,0,4,0,4,0,,,,,,,,1.9897739243656218,none,6350.0,29.0,0.0037068386155683208,0,38,['both'],0.010432500042952597,None,['space'],471.67071090009995,471.67071090009995,0.20587009994778782,2.1956440243134097,471.89044740004465,471.67071090009995,[-1.9359642999479547],,,,,,,,,,wquuex,001,fr,0,2022-05-06_17h12.00.958,Continuous,2022.1.1,35.720957881604356,
15,0,15,0,5,0,5,0,,,,,,,,1.3228075388464686,none,4490.0,25.4858425837971,0.0022125993209846893,0,39,['both'],0.014655800070613623,None,['space'],473.8882818000857,473.8882818000857,0.2179808000801131,1.5407883389265817,474.1042028000811,473.8882818000857,[-1.754187700105831],,,,,,,,,,wquuex,001,fr,0,2022-05-06_17h12.00.958,Continuous,2022.1.1,35.720957881604356,
15,0,15,0,6,0,6,0,,,,,,,,2.924290120515429,none,5040.0,25.25135212727988,0.0027690021444907987,0,40,['both'],0.011193200130946934,0.20690660004038364,['space'],475.4277980000479,475.4277980000479,0.20690660004038364,3.1311967205558124,475.644480500021,475.4277980000479,[-1.2615859999787062],,,,,,,,,,wquuex,001,fr,0,2022-05-06_17h12.00.958,Continuous,2022.1.1,35.720957881604356,
15,0,15,0,7,0,7,0,,,,,,,,1.0904073844497761,none,,,,1,40,['both'],0.011096500093117356,0.2083244000095874,['space'],478.5676370000001,478.5676370000001,0.2083244000095874,1.2987317844593635,478.7824903000146,478.5676370000001,[-2.8175191999180242],,,,,,,,,,wquuex,001,fr,0,2022-05-06_17h12.00.958,Continuous,2022.1.1,35.720957881604356,
15,0,15,0,8,0,8,0,,,,,,,,2.6758549149450284,none,3564.0,25.739769618288697,0.00147719152796394,0,41,['both'],0.015847799950279295,None,None,479.8765371000627,479.8765371000627,0.2214115000097081,2.8972664149547365,480.09342210006434,479.8765371000627,,,,,,,,,,,wquuex,001,fr,0,2022-05-06_17h12.00.958,Continuous,2022.1.1,35.720957881604356,
16,0,16,0,0,0,0,0,,,,,,486.12493290007114,None,1.5534453082751534,frequency,5527.0,23.99101582282106,0.0021106722255610096,0,50,['both'],0.024219200131483376,None,None,487.14209550002124,None,0.23357320006471127,1.7870185083398646,487.3568022000836,None,,482.7697866000235,None,0.5833333333333334,,,,,,,wquuex,001,fr,0,2022-05-06_17h12.00.958,Continuous,2022.1.1,35.720957881604356,
16,0,16,0,1,0,1,0,,,,,,,,2.5354590405961686,frequency,3689.0,18.968642747042075,0.0006969409336705706,0,51,['both'],0.009456199943087995,0.20486329996492714,['space'],488.9079195000231,488.9079195000231,0.20486329996492714,2.7403223405610957,489.1246055000229,488.9079195000231,[0.12325359997339547],,,,,,,,,,wquuex,001,fr,0,2022-05-06_17h12.00.958,Continuous,2022.1.1,35.720957881604356,
16,0,16,0,2,0,2,0,,,,,,,,2.361108995100855,frequency,2462.0,19.0,0.0007580362217193046,0,52,['both'],0.010183299891650677,None,None,491.6589754000306,491.6589754000306,0.2073187999194488,2.5684277950203036,491.87831160007045,491.6589754000306,,,,,,,,,,,wquuex,001,fr,0,2022-05-06_17h12.00.958,Continuous,2022.1.1,35.720957881604356,
16,0,16,0,3,0,3,0,,,,,,,,2.4768764551544473,frequency,1643.0,21.792582135043954,0.0007214544813368775,0,53,['both'],0.009956400142982602,0.2097869000863284,None,494.2445243000984,494.2445243000984,0.2097869000863284,2.6866633552407757,494.4648847000208,494.2445243000984,,,,,,,,,,,wquuex,001,fr,0,2022-05-06_17h12.00.958,Continuous,2022.1.1,35.720957881604356,
16,0,16,0,4,0,4,0,,,,,,,,2.385513484465412,frequency,1097.0,21.187476316256575,0.0005515771111048115,0,54,['both'],0.013920100056566298,None,['space'],496.9440794000402,496.9440794000402,0.21804900001734495,2.6035624844827567,497.16213870001957,496.9440794000402,[-2.2813574000028893],,,,,,,,,,wquuex,001,fr,0,2022-05-06_17h12.00.958,Continuous,2022.1.1,35.720957881604356,
16,0,16,0,5,0,5,0,,,,,,,,1.1970528865684211,frequency,732.0,17.494691064733484,0.00031641183864456477,0,55,['both'],0.01094790012575686,None,['space'],499.54957320005633,499.54957320005633,0.20958970009814948,1.4066425866665706,499.7664094000356,499.54957320005633,[-0.6470070000505075],,,,,,,,,,wquuex,001,fr,0,2022-05-06_17h12.00.958,Continuous,2022.1.1,35.720957881604356,
16,0,16,0,6,0,6,0,,,,,,,,2.0337234398418813,frequency,489.0,15.748439660860619,0.00044136233261123466,0,56,['both'],0.01052659994456917,None,['space'],500.9726021999959,500.9726021999959,0.20865539996884763,2.242378839810729,501.1836046000244,500.9726021999959,[-0.8535991999087855],,,,,,,,,,wquuex,001,fr,0,2022-05-06_17h12.00.958,Continuous,2022.1.1,35.720957881604356,
16,0,16,0,7,0,7,0,,,,,,,,2.3163167883682356,frequency,326.0,17.281811034798793,0.0007003245500848773,0,57,['both'],0.010398499900475144,0.20340699993539602,['space'],503.22547730000224,503.22547730000224,0.20340699993539602,2.5197237883036316,503.4400932000717,503.22547730000224,[-1.890898699988611],,,,,,,,,,wquuex,001,fr,0,2022-05-06_17h12.00.958,Continuous,2022.1.1,35.720957881604356,
16,0,16,0,8,0,8,0,,,,,,,,1.1898942572871565,frequency,,,,1,57,['both'],0.010739700053818524,None,['space'],505.75995380000677,505.75995380000677,0.20468570000957698,1.3945799572967335,505.97757039999124,505.75995380000677,[-2.1696514999493957],,,,,,,,,,wquuex,001,fr,0,2022-05-06_17h12.00.958,Continuous,2022.1.1,35.720957881604356,
16,0,16,0,9,0,9,0,,,,,,,,2.7340406550136143,frequency,145.0,9.602437560590888,0.0016453193392420146,0,58,['both'],0.014353199978359044,None,None,507.17382080003154,507.17382080003154,0.21556909999344498,2.9496097550070592,507.3893082999857,507.17382080003154,,,,,,,,,,,wquuex,001,fr,0,2022-05-06_17h12.00.958,Continuous,2022.1.1,35.720957881604356,
17,0,17,0,0,0,0,0,,,,,,514.3912037000991,None,1.4802143825158602,frequency,249.0,14.857726469560607,0.0009373616056057071,0,59,['both'],0.024187699891626835,None,None,515.4021925000707,None,0.22363479994237423,1.7038491824582345,515.6140745000448,None,,510.12651010008994,None,0.16666666666666666,,,,,,,wquuex,001,fr,0,2022-05-06_17h12.00.958,Continuous,2022.1.1,35.720957881604356,
17,0,17,0,1,0,1,0,,,,,,,,2.1855551153798833,frequency,222.0,12.820137913855334,0.0009728022739437345,0,60,['both'],0.009604400023818016,None,['space'],517.0920257000253,517.0920257000253,0.20350609999150038,2.3890612153713837,517.3065563000273,517.0920257000253,[-1.2612597999395803],,,,,,,,,,wquuex,001,fr,0,2022-05-06_17h12.00.958,Continuous,2022.1.1,35.720957881604356,
17,0,17,0,2,0,2,0,,,,,,,,1.006956318852268,frequency,198.0,13.582704235282407,0.0013027528648424905,0,61,['both'],0.006939699989743531,0.19729690009262413,['space'],519.4988807000918,519.4988807000918,0.19729690009262413,1.2042532189448922,519.7073734999867,519.4988807000918,[-2.0211408000905067],,,,,,,,,,wquuex,001,fr,0,2022-05-06_17h12.00.958,Continuous,2022.1.1,35.720957881604356,
17,0,17,0,3,0,3,0,,,,,,,,1.8684420143885525,frequency,176.0,12.451561848218802,0.0014796800725740361,0,62,['both'],0.01345879992004484,None,['space'],520.7207113000331,520.7207113000331,0.21460740000475198,2.0830494143933045,520.9352126000449,520.7207113000331,[-0.8742913999594748],,,,,,,,,,wquuex,001,fr,0,2022-05-06_17h12.00.958,Continuous,2022.1.1,35.720957881604356,
17,0,17,0,4,0,4,0,,,,,,,,2.903616711965262,frequency,157.0,8.452939512220032,0.001158650001286125,0,63,['both'],0.010061100125312805,None,['space'],522.8105794000439,522.8105794000439,0.20497470011468977,3.1085914120799516,523.0277896000771,522.8105794000439,[-1.6840542000718415],,,,,,,,,,wquuex,001,fr,0,2022-05-06_17h12.00.958,Continuous,2022.1.1,35.720957881604356,
17,0,17,0,5,0,5,0,,,,,,,,2.188421384720976,frequency,140.0,11.354688231983017,0.002177612856513457,0,64,['both'],0.008532900013960898,None,['space'],525.9372694999911,525.9372694999911,0.20576869999058545,2.3941900847115614,526.1541708000004,525.9372694999911,[-2.539028099970892],,,,,,,,,,wquuex,001,fr,0,2022-05-06_17h12.00.958,Continuous,2022.1.1,35.720957881604356,
17,0,17,0,6,0,6,0,,,,,,,,2.8628850058265805,frequency,125.0,15.0,0.004064152580820497,0,65,['both'],0.01020420016720891,0.20571880019269884,['space'],528.3512519000797,528.3512519000797,0.20571880019269884,3.0686038060192793,528.567086199997,528.3512519000797,[-1.863794600008987],,,,,,,,,,wquuex,001,fr,0,2022-05-06_17h12.00.958,Continuous,2022.1.1,35.720957881604356,
17,0,17,0,7,0,7,0,,,,,,,,2.1391602770086147,frequency,,,,1,65,['both'],0.009744000155478716,None,['space'],531.4359094999963,531.4359094999963,0.20394990011118352,2.343110177119798,531.6546885001007,531.4359094999963,[-2.6606786999618635],,,,,,,,,,wquuex,001,fr,0,2022-05-06_17h12.00.958,Continuous,2022.1.1,35.720957881604356,
18,0,18,0,0,0,0,0,,,,,"[0.3333333333333333, 0.5833333333333334, 0.16666666666666666, 0.3333333333333333, 0.5833333333333334, 0.16666666666666666, 0.16666666666666666, 0.3333333333333333, 0.5833333333333334, 0.16666666666666666, 0.3333333333333333, 0.3333333333333333, 0.5833333333333334, 0.5833333333333334, 0.3333333333333333]",536.8854667000705,None,1.3669554335904535,none,333.0,14.612368375462289,0.0005052505177342504,0,42,['both'],0.018887699930928648,None,None,537.8884744000388,None,0.21981609996873885,1.5867715335591923,538.1053240000037,None,,533.8014163000043,None,,,,,,,,wquuex,001,fr,0,2022-05-06_17h12.00.958,Continuous,2022.1.1,35.720957881604356,
18,0,18,0,1,0,1,0,,,,,,,,1.0177997523213163,none,1187.0,14.07526648684741,0.00026224911522972544,0,43,['both'],0.00885860004927963,None,['space'],539.4792522999924,539.4792522999924,0.203152000089176,1.2209517524104923,539.6957320000511,539.4792522999924,[-0.4167522999923676],,,,,,,,,,wquuex,001,fr,0,2022-05-06_17h12.00.958,Continuous,2022.1.1,35.720957881604356,
18,0,18,0,2,0,2,0,,,,,,,,2.3966230044683465,none,,,,1,43,['both'],0.007734400103799999,None,None,540.7201776000438,540.7201776000438,0.20122370007447898,2.5978467045428255,540.9311603000388,540.7201776000438,,,,,,,,,,,wquuex,001,fr,0,2022-05-06_17h12.00.958,Continuous,2022.1.1,35.720957881604356,
18,0,18,0,3,0,3,0,,,,,,,,2.1493842471533586,none,125.0,13.0,0.003228271145173279,0,44,['both'],0.011094899964518845,None,None,543.3352957000025,543.3352957000025,0.20600180001929402,2.3553860471726527,543.5507298000157,543.3352957000025,,,,,,,,,,,wquuex,001,fr,0,2022-05-06_17h12.00.958,Continuous,2022.1.1,35.720957881604356,
18,0,18,0,4,0,4,0,,,,,,,,2.2603874463208133,none,157.0,10.136783788969534,0.0014065153632444962,0,45,['both'],0.00524520012550056,0.20032440009526908,['space'],545.7130108000711,545.7130108000711,0.20032440009526908,2.4607118464160824,545.9233446000144,545.7130108000711,[-1.8982719000196084],,,,,,,,,,wquuex,001,fr,0,2022-05-06_17h12.00.958,Continuous,2022.1.1,35.720957881604356,
18,0,18,0,5,0,5,0,,,,,,,,2.840235731402374,none,420.0,14.229911251225902,0.00038871300040152013,0,46,['both'],0.009735699975863099,0.20632610004395247,None,548.1913390000118,548.1913390000118,0.20632610004395247,3.0465618314463265,548.4049073000206,548.1913390000118,,,,,,,,,,,wquuex,001,fr,0,2022-05-06_17h12.00.958,Continuous,2022.1.1,35.720957881604356,
18,0,18,0,6,0,6,0,,,,,,,,1.1528320944224981,none,629.0,13.129697769302163,0.00023268963406550104,0,47,['both'],0.010846299934200943,None,['space'],551.2535261000739,551.2535261000739,0.21059249993413687,1.363424594356635,551.4746545000235,551.2535261000739,[-0.7352952999062836],,,,,,,,,,wquuex,001,fr,0,2022-05-06_17h12.00.958,Continuous,2022.1.1,35.720957881604356,
18,0,18,0,7,0,7,0,,,,,,,,2.2979832576581716,none,235.0,12.775697774312306,0.0008569701368594618,0,48,['both'],0.01276850001886487,None,None,552.6377822000068,552.6377822000068,0.21868669998366386,2.5166699576418354,552.858764500008,552.6377822000068,,,,,,,,,,,wquuex,001,fr,0,2022-05-06_17h12.00.958,Continuous,2022.1.1,35.720957881604356,
18,0,18,0,8,0,8,0,,,,,,,,2.6356358001585933,none,942.0,16.837296588571608,0.0002946262346533507,0,49,['both'],0.008875200059264898,0.20405660010874271,['space'],555.1598163000308,555.1598163000308,0.20405660010874271,2.839692400267336,555.3783704000525,555.1598163000308,[-2.145381400012411],,,,,,,,,,wquuex,001,fr,0,2022-05-06_17h12.00.958,Continuous,2022.1.1,35.720957881604356,
19,0,19,0,0,0,0,0,,,,,,561.3751510999864,None,1.3259825953019828,frequency,8000.0,34.0,0.00909850429304992,0,66,['both'],0.018993700155988336,0.21536490006837994,None,562.3803739000577,None,0.21536490006837994,1.5413474953703628,562.5941461999901,None,,558.0169056000886,None,0.3333333333333333,,,,,,,wquuex,001,fr,0,2022-05-06_17h12.00.958,Continuous,2022.1.1,35.720957881604356,
19,0,19,0,1,0,1,0,,,,,,,,1.3896885143466184,frequency,6350.0,30.0044726072402,0.004161283543351703,0,67,['both'],0.009156199870631099,None,['space'],563.9262395000551,563.9262395000551,0.2080747998552397,1.5977633142018581,564.1378264999948,563.9262395000551,[-0.6555725000798702],,,,,,,,,,wquuex,001,fr,0,2022-05-06_17h12.00.958,Continuous,2022.1.1,35.720957881604356,
19,0,19,0,2,0,2,0,,,,,,,,2.5370655348552837,frequency,5040.0,26.06077580559851,0.003039446308395243,0,68,['both'],0.026647299993783236,None,['space'],565.5464094000636,565.5464094000636,0.2333297999575734,2.770395334812857,565.7680649000686,565.5464094000636,[-1.0438892000820488],,,,,,,,,,wquuex,001,fr,0,2022-05-06_17h12.00.958,Continuous,2022.1.1,35.720957881604356,
19,0,19,0,3,0,3,0,,,,,,,,1.8276482254445638,frequency,4000.0,22.361362143807277,0.001101635979400917,0,69,['both'],0.009777200175449252,None,['space'],568.3052885000361,568.3052885000361,0.20872220012824982,2.0363704255728137,568.5208659000928,568.3052885000361,[-2.4276602000463754],,,,,,,,,,wquuex,001,fr,0,2022-05-06_17h12.00.958,Continuous,2022.1.1,35.720957881604356,
19,0,19,0,4,0,4,0,,,,,,,,1.6309975913406873,frequency,3175.0,33.00167634308377,0.0031031766772351204,0,70,['both'],0.009915300062857568,None,['space'],570.3574295000872,570.3574295000872,0.20965229999274015,1.8406498913334275,570.5774809999857,570.3574295000872,[-1.7276141999755055],,,,,,,,,,wquuex,001,fr,0,2022-05-06_17h12.00.958,Continuous,2022.1.1,35.720957881604356,
19,0,19,0,5,0,5,0,,,,,,,,1.542780102962818,frequency,2520.0,28.90032028533758,0.002358609835689041,0,71,['both'],0.008359399973414838,None,['space'],572.2127383000916,572.2127383000916,0.2086352000478655,1.7514153030106836,572.4340480000246,572.2127383000916,[-1.565927799907513],,,,,,,,,,wquuex,001,fr,0,2022-05-06_17h12.00.958,Continuous,2022.1.1,35.720957881604356,
19,0,19,0,6,0,6,0,,,,,,,,1.3112874009832498,frequency,2000.0,33.6654582837928,0.0036078038570369554,0,72,['both'],0.009289399953559041,None,['space'],573.9854730000952,573.9854730000952,0.21103599993512034,1.5223234009183702,574.19817410002,573.9854730000952,[-1.4675987999653444],,,,,,,,,,wquuex,001,fr,0,2022-05-06_17h12.00.958,Continuous,2022.1.1,35.720957881604356,
19,0,19,0,7,0,7,0,,,,,,,,1.4611872713305722,frequency,1587.0,25.841565970156225,0.0010903386959740624,0,73,['both'],0.009161300025880337,0.20250880008097738,['space'],575.5176552000921,575.5176552000921,0.20250880008097738,1.6636960714115496,575.7342760000611,575.5176552000921,[-1.2069767999928445],,,,,,,,,,wquuex,001,fr,0,2022-05-06_17h12.00.958,Continuous,2022.1.1,35.720957881604356,
19,0,19,0,8,0,8,0,,,,,,,,1.7779001245702901,frequency,,,,1,73,['both'],0.009043200057931244,0.2034354000352323,['space'],577.2021803000243,577.2021803000243,0.2034354000352323,1.9813355246055224,577.4183061000658,577.2021803000243,[-1.3394412000197917],,,,,,,,,,wquuex,001,fr,0,2022-05-06_17h12.00.958,Continuous,2022.1.1,35.720957881604356,
20,0,20,0,0,0,0,0,,,,,"[0.16666666666666666, 0.3333333333333333, 0.16666666666666666, 0.16666666666666666, 0.3333333333333333, 0.3333333333333333, 0.5833333333333334, 0.5833333333333334, 0.16666666666666666, 0.16666666666666666, 0.5833333333333334, 0.16666666666666666, 0.3333333333333333, 0.16666666666666666, 0.5833333333333334]",582.7834493000992,None,2.166052711543598,time,421.0,4.85727360417877,0.00013203932307453853,0,69,['both'],0.024241500068455935,None,None,583.8100097000133,None,0.25006700004450977,2.4161197115881077,584.0401739000808,None,,579.1988785000285,None,,,,,,,,wquuex,001,fr,0,2022-05-06_17h12.00.958,Continuous,2022.1.1,35.720957881604356,
20,0,20,0,1,0,1,0,,,,,,,,2.166052711543598,time,199.0,4.236390049111333,0.0004382356456067242,0,70,['both'],0.011935200076550245,None,['space'],586.2063761000754,586.2063761000754,0.21457840001676232,2.3806311115603602,586.4233018000377,586.2063761000754,[-1.6080674000550061],,,,,,,,,,wquuex,001,fr,0,2022-05-06_17h12.00.958,Continuous,2022.1.1,35.720957881604356,
20,0,20,0,2,0,2,0,,,,,,,,2.166052711543598,time,158.0,3.011098472789765,0.0006066500881893653,0,71,['both'],0.007864200044423342,None,None,588.594926699996,588.594926699996,0.20344970002770424,2.369502411571302,588.8087369001005,588.594926699996,,,,,,,,,,,wquuex,001,fr,0,2022-05-06_17h12.00.958,Continuous,2022.1.1,35.720957881604356,
20,0,20,0,3,0,3,0,,,,,,,,2.166052711543598,time,473.0,12.312084673224328,0.0003005250052450149,0,72,['both'],0.008578200009651482,None,None,590.9825553999981,590.9825553999981,0.20503690000623465,2.3710896115498326,591.200403099996,590.9825553999981,,,,,,,,,,,wquuex,001,fr,0,2022-05-06_17h12.00.958,Continuous,2022.1.1,35.720957881604356,
20,0,20,0,4,0,4,0,,,,,,,,2.166052711543598,time,709.0,8.428482792502543,0.00011673714949058234,0,73,['both'],0.008289100020192564,None,None,593.37453130004,593.37453130004,0.20506639999803156,2.3711191115416295,593.5913191,593.37453130004,,,,,,,,,,,wquuex,001,fr,0,2022-05-06_17h12.00.958,Continuous,2022.1.1,35.720957881604356,
20,0,20,0,5,0,5,0,,,,,,,,2.166052711543598,time,,,,1,73,['both'],0.012073000078089535,None,['space'],595.766519100056,595.766519100056,0.21289369999431074,2.3789464115379086,595.9788194000721,595.766519100056,[-0.11119750002399087],,,,,,,,,,wquuex,001,fr,0,2022-05-06_17h12.00.958,Continuous,2022.1.1,35.720957881604356,
20,0,20,0,6,0,6,0,,,,,,,,2.166052711543598,time,177.0,3.0,0.0004932689959622452,0,74,['both'],0.010308300028555095,None,None,598.1534193000989,598.1534193000989,0.2090893000131473,2.375142011556745,598.3736934000626,598.1534193000989,,,,,,,,,,,wquuex,001,fr,0,2022-05-06_17h12.00.958,Continuous,2022.1.1,35.720957881604356,
20,0,20,0,7,0,7,0,,,,,,,,2.166052711543598,time,334.0,10.579178610018893,0.0003166981472026713,0,75,['both'],0.008417000062763691,None,['space'],600.5433443000074,600.5433443000074,0.2027265999931842,2.368779311536782,600.7606981000863,600.5433443000074,[-1.8650493000168353],,,,,,,,,,wquuex,001,fr,0,2022-05-06_17h12.00.958,Continuous,2022.1.1,35.720957881604356,
21,0,21,0,0,0,0,0,,,,,"[0.5833333333333334, 0.16666666666666666, 0.3333333333333333, 0.5833333333333334, 0.16666666666666666, 0.3333333333333333, 0.5833333333333334, 0.5833333333333334, 0.5833333333333334, 0.5833333333333334, 0.3333333333333333, 0.5833333333333334, 0.16666666666666666, 0.16666666666666666, 0.3333333333333333]",608.564638699987,None,1.1099138430143005,time,,,,1,75,['both'],0.02243480016477406,None,['space'],609.6068542000139,None,0.2404777001356706,1.3503915431499711,609.8209400000051,None,[-1.2324941999977455],602.9352940000826,None,,,,,,,,wquuex,001,fr,0,2022-05-06_17h12.00.958,Continuous,2022.1.1,35.720957881604356,
21,0,21,0,1,0,1,0,,,,,,,,1.1099138430143005,time,793.0,16.617716216409296,0.00026208589787326045,0,76,['both'],0.010025600087828934,None,None,610.9338345000288,610.9338345000288,0.20868390006944537,1.3185977430837459,611.1540047000162,610.9338345000288,,,,,,,,,,,wquuex,001,fr,0,2022-05-06_17h12.00.958,Continuous,2022.1.1,35.720957881604356,
21,0,21,0,2,0,2,0,,,,,,,,1.1099138430143005,time,125.0,16.0,0.004560054196779551,0,77,['both'],0.009871999965980649,0.20718110003508627,None,612.2679422000656,612.2679422000656,0.20718110003508627,1.3170949430493868,612.4803303000517,612.2679422000656,,,,,,,,,,,wquuex,001,fr,0,2022-05-06_17h12.00.958,Continuous,2022.1.1,35.720957881604356,
21,0,21,0,3,0,3,0,,,,,,,,1.1099138430143005,time,187.0,12.762851159922139,0.0013595417371341512,0,78,['both'],0.008460600045509636,0.20463340007700026,['space'],613.5954379000468,613.5954379000468,0.20463340007700026,1.3145472430913008,613.8163440000499,613.5954379000468,[-0.9324333999538794],,,,,,,,,,wquuex,001,fr,0,2022-05-06_17h12.00.958,Continuous,2022.1.1,35.720957881604356,
21,0,21,0,4,0,4,0,,,,,,,,1.1099138430143005,time,529.0,15.117274829976527,0.000381438155110874,0,79,['both'],0.008219100069254637,0.20237710000947118,['space'],614.9265274000354,614.9265274000354,0.20237710000947118,1.3122909430237717,615.1413192000473,614.9265274000354,[-0.5674986999947578],,,,,,,,,,wquuex,001,fr,0,2022-05-06_17h12.00.958,Continuous,2022.1.1,35.720957881604356,
21,0,21,0,5,0,5,0,,,,,,,,1.1099138430143005,time,890.0,17.624873817824454,0.0003113460940018989,0,80,['both'],0.007361400057561696,None,None,616.2573511000955,616.2573511000955,0.20343910006340593,1.3133529430777064,616.4767147999955,616.2573511000955,,,,,,,,,,,wquuex,001,fr,0,2022-05-06_17h12.00.958,Continuous,2022.1.1,35.720957881604356,
21,0,21,0,6,0,6,0,,,,,,,,1.1099138430143005,time,999.0,18.280489091191104,0.00036117207930846533,0,81,['both'],0.008620500098913908,None,None,617.5964064000873,617.5964064000873,0.20711810002103448,1.317031943035335,617.8213140000589,617.5964064000873,,,,,,,,,,,wquuex,001,fr,0,2022-05-06_17h12.00.958,Continuous,2022.1.1,35.720957881604356,
21,0,21,0,7,0,7,0,,,,,,,,1.1099138430143005,time,420.0,16.0,0.0004765774653565212,0,82,['both'],0.005684999981895089,0.19844710000324994,None,618.9375743001001,618.9375743001001,0.19844710000324994,1.3083609430175505,619.1554822000908,618.9375743001001,,,,,,,,,,,wquuex,001,fr,0,2022-05-06_17h12.00.958,Continuous,2022.1.1,35.720957881604356,
