frequencies,training_trials.thisRepN,training_trials.thisTrialN,training_trials.thisN,training_trials.thisIndex,frequencies.thisRepN,frequencies.thisTrialN,frequencies.thisN,frequencies.thisIndex,trials.thisRepN,trials.thisTrialN,trials.thisN,trials.thisIndex,tFrequency,tLevel,tCorrect,Tprobe.started,Tprobe.stopped,tTriangle_cue.started,tTriangle_cue.stopped,Tfeedback.keys,Tfeedback.corr,Tfeedback.rt,Tfeedback.started,Tfeedback.stopped,reversals_nTrials.routineEndVal,track_dir.routineEndVal,step_up.routineEndVal,Correct,Frequency,Level,Psychopy_Level,Direction,Reversals,Track_dir,Step,probe.started,probe.stopped,cross_cue.started,cross_cue.stopped,circle_cue.started,circle_cue.stopped,triangle_cue.started,triangle_cue.stopped,feedback.keys,feedback.corr,feedback.rt,feedback.started,feedback.stopped,memo.started,memo.stopped,key_resp.keys,key_resp.rt,key_resp.started,key_resp.stopped,text.started,text.stopped,participant,session,skip_training,language (english or french),date,expName,psychopyVersion,frameRate,
5000,0,0,0,4,,,,,,,,,5000,30,left,73.89513856667715,None,None,None,left,1,0.9354813999962062,73.3916937999893,None,,,,,,,,,,,,,,,,,,,,,,,,,,,,,,,,,quvvsxs,001,0,fr,2022-05-17_12h22.21.993,3-AFC_adaptive_staircase_mess,2022.1.1,None,
850,0,1,1,2,,,,,,,,,850,30,left,77.7028266667078,77.92458890005946,None,None,left,1,0.9539667998906225,77.22992880013771,None,,,,,,,,,,,,,,,,,,,,,,,,,,,,,,,,,quvvsxs,001,0,fr,2022-05-17_12h22.21.993,3-AFC_adaptive_staircase_mess,2022.1.1,None,
1300,0,2,2,3,,,,,,,,,1300,30,right,None,None,84.57813966676282,None,left,0,2.388760899892077,82.15624619997106,None,,,,,,,,,,,,,,,,,,,,,,,,,,,,,,,,,quvvsxs,001,0,fr,2022-05-17_12h22.21.993,3-AFC_adaptive_staircase_mess,2022.1.1,None,
200,0,3,3,0,,,,,,,,,200,30,up,None,None,None,None,left,0,1.0785304999444634,85.93757960014045,None,,,,,,,,,,,,,,,,,,,,,,,,,,,,,,,,,quvvsxs,001,0,fr,2022-05-17_12h22.21.993,3-AFC_adaptive_staircase_mess,2022.1.1,None,
450,0,4,4,1,,,,,,,,,450,30,left,92.60036646674077,None,None,None,left,1,0.9337196000851691,92.11516600009054,None,,,,,,,,,,,,,,,,,,,,,,,,,,,,,,,,,quvvsxs,001,0,fr,2022-05-17_12h22.21.993,3-AFC_adaptive_staircase_mess,2022.1.1,None,
,,,,,0,0,0,0,0,0,0,0,,,,,,,,,,,,,[],[],10,right,1000,30,0.0013930605843148849,0,0,-1,10,114.1126907666369,None,112.08706700010225,112.40369269996881,113.0840360999573,113.40428639994934,114.09602409997024,114.4189597000368,right,1,2.2739858999848366,112.13466620002873,None,None,None,,,,,,,quvvsxs,001,0,fr,2022-05-17_12h22.21.993,3-AFC_adaptive_staircase_mess,2022.1.1,None,
,,,,,0,0,0,0,1,0,1,0,,,,,,,,,,,,,,,,right,1000,30,0.0013930605843148849,0,0,-1,10,117.97069686680722,118.1875285001006,115.92468459997326,116.24346849997528,116.92591570015065,117.24416660005227,117.92318919999525,118.24221810000017,right,1,2.2710319000761956,115.95343280001543,None,None,None,,,,,,,quvvsxs,001,0,fr,2022-05-17_12h22.21.993,3-AFC_adaptive_staircase_mess,2022.1.1,None,
,,,,,0,0,0,0,2,0,2,0,,,,,,,,,,,,,,,,right,1000,10,0.00013930605843148847,-1,0,-1,-10,121.7972330668165,None,119.77343700011261,120.09018800011836,120.77465660008602,121.0911705000326,121.78056640014984,122.10803410015069,right,1,2.293811900075525,119.80228410009295,None,None,None,,,,,,,quvvsxs,001,0,fr,2022-05-17_12h22.21.993,3-AFC_adaptive_staircase_mess,2022.1.1,None,
,,,,,0,0,0,0,3,0,3,0,,,,,,,,,,,,,,,,up,1000,10,0.00013930605843148847,-1,0,-1,-10,124.67209556681725,None,123.60320400004275,123.9186482001096,124.6151815999765,124.95002880017273,None,None,up,1,1.48294089990668,123.6612401001621,None,None,None,,,,,,,quvvsxs,001,0,fr,2022-05-17_12h22.21.993,3-AFC_adaptive_staircase_mess,2022.1.1,None,
,,,,,0,0,0,0,4,0,4,0,,,,,,,,,,,,,,,,right,1000,0,4.405244365040069e-05,-1,0,-1,-10,128.6949088667209,None,126.64626770000905,126.96298520010896,127.64778570015915,127.9651773001533,128.64907429995947,128.97638410003856,right,1,2.4171895999461412,126.70278130006045,None,None,None,,,,,,,quvvsxs,001,0,fr,2022-05-17_12h22.21.993,3-AFC_adaptive_staircase_mess,2022.1.1,None,
,,,,,0,0,0,0,5,0,5,0,,,,,,,,,,,,,,,,up,1000,0,4.405244365040069e-05,-1,0,-1,-10,131.6866084668475,131.9183857999742,130.63946480001323,130.9578266001772,131.6411055000499,131.97648039995693,None,None,up,1,1.6012989000882953,130.68665649998002,None,None,None,,,,,,,quvvsxs,001,0,fr,2022-05-17_12h22.21.993,3-AFC_adaptive_staircase_mess,2022.1.1,None,
,,,,,0,0,0,0,6,0,6,0,,,,,,,,,,,,,,,,left,1000,-10,1.3930605843148848e-05,-1,0,-1,-10,133.83441226679523,None,133.79217489995062,134.1114725000225,134.78878460009582,135.10784740000963,135.78905749996193,136.10930330003612,left,1,4.4738503999542445,133.84649160015397,None,136.34429250005633,None,,,,,,,quvvsxs,001,0,fr,2022-05-17_12h22.21.993,3-AFC_adaptive_staircase_mess,2022.1.1,None,
,,,,,0,0,0,0,7,0,7,0,,,,,,,,,,,,,,,,left,1000,-10,1.3930605843148848e-05,-1,0,-1,-10,139.87321676669333,None,139.82682320009917,140.15334570012055,140.83369070012122,141.14970510010608,141.8353422000073,142.15129740000702,right,0,2.989088100148365,139.88390809996054,None,142.38092530006543,None,,,,,,,quvvsxs,001,0,fr,2022-05-17_12h22.21.993,3-AFC_adaptive_staircase_mess,2022.1.1,None,
,,,,,0,0,0,0,8,0,8,0,,,,,,,,,,,,,,,,left,1000,-5,2.4772509540239506e-05,1,1,1,5,144.41018926684436,None,144.3646543000359,144.6913654000964,145.37930020014755,145.69176910002716,146.37763989996165,146.69816310005262,up,0,2.7550665999297053,144.42092379997484,None,146.92711749998853,None,,,,,,,quvvsxs,001,0,fr,2022-05-17_12h22.21.993,3-AFC_adaptive_staircase_mess,2022.1.1,None,
,,,,,0,0,0,0,9,0,9,0,,,,,,,,,,,,,,,,up,1000,0,4.405244365040069e-05,1,1,1,5,149.71662076661985,None,148.66392620000988,148.9838708001189,149.67053630016744,149.99797719996423,None,None,up,1,1.5753222999628633,148.72126450017095,None,None,None,,,,,,,quvvsxs,001,0,fr,2022-05-17_12h22.21.993,3-AFC_adaptive_staircase_mess,2022.1.1,None,
,,,,,0,0,0,0,10,0,10,0,,,,,,,,,,,,,,,,left,1000,0,4.405244365040069e-05,1,1,1,5,151.85045096680213,None,151.83378430013545,152.16110739996657,152.82201540004462,153.14041590015404,153.82400190015323,154.13946580002084,left,1,3.0576906998176128,151.86195020005107,None,154.36934960004874,None,,,,,,,quvvsxs,001,0,fr,2022-05-17_12h22.21.993,3-AFC_adaptive_staircase_mess,2022.1.1,None,
,,,,,0,0,0,0,11,0,11,0,,,,,,,,,,,,,,,,up,1000,-10,1.3930605843148848e-05,-1,2,-1,-5.0,157.45811306668136,None,156.44087549997494,156.74723930004984,157.44144640001468,157.76717100013047,158.42563210008666,158.73879580013454,up,1,5.675342199858278,156.46910310001113,None,158.96820580004714,None,,,,,,,quvvsxs,001,0,fr,2022-05-17_12h22.21.993,3-AFC_adaptive_staircase_mess,2022.1.1,None,
,,,,,0,0,0,0,12,0,12,0,,,,,,,,,,,,,,,,left,1000,-10,1.3930605843148848e-05,-1,2,-1,-5.0,163.70256476669263,None,163.65817399998195,163.9768567001447,164.65923960017972,164.97560390015133,165.6601899000816,165.97726249997504,left,1,3.015099700074643,163.71291150012985,None,166.20791939995252,None,,,,,,,quvvsxs,001,0,fr,2022-05-17_12h22.21.993,3-AFC_adaptive_staircase_mess,2022.1.1,None,
,,,,,0,0,0,0,13,0,13,0,,,,,,,,,,,,,,,,up,1000,-15.0,7.833755350540743e-06,-1,2,-1,-5.0,169.2758850667781,None,168.22906160005368,168.54028000007384,169.22989980014972,169.55196100007743,170.24070720002055,170.56523750000633,right,0,2.9889010000042617,168.28272669995204,None,170.79736630013213,None,,,,,,,quvvsxs,001,0,fr,2022-05-17_12h22.21.993,3-AFC_adaptive_staircase_mess,2022.1.1,None,
,,,,,0,0,0,0,14,0,14,0,,,,,,,,,,,,,,,,right,1000,-12.5,1.0446480654270193e-05,1,3,1,2.5,174.7992024666785,None,172.7833760001231,173.104161700001,173.77565410011448,174.10275830002502,174.78253580001183,175.11511430004612,right,1,3.4192309000063688,172.81291620014235,None,175.31583520001732,None,,,,,,,quvvsxs,001,0,fr,2022-05-17_12h22.21.993,3-AFC_adaptive_staircase_mess,2022.1.1,None,
,,,,,0,0,0,0,15,0,15,0,,,,,,,,,,,,,,,,left,1000,-12.5,1.0446480654270193e-05,1,3,1,2.5,177.78158776677836,None,177.7391560000833,178.07118250010535,178.74910890008323,179.07857150002383,179.7517498000525,180.0754635001067,up,0,3.23818919993937,177.7936281999573,None,180.3243826001417,None,,,,,,,quvvsxs,001,0,fr,2022-05-17_12h22.21.993,3-AFC_adaptive_staircase_mess,2022.1.1,None,
,,,,,0,0,0,0,16,0,16,0,,,,,,,,,,,,,,,,left,1000,-10.0,1.3930605843148848e-05,1,3,1,2.5,182.60345286672626,182.83461450017057,182.55678490013815,182.89360489998944,183.54635039996356,183.86796880001202,184.55658700014465,184.8801355001051,right,0,2.9105463000014424,182.61740210000426,None,185.11249070009217,None,,,,,,,quvvsxs,001,0,fr,2022-05-17_12h22.21.993,3-AFC_adaptive_staircase_mess,2022.1.1,None,
,,,,,0,0,0,0,17,0,17,0,,,,,,,,,,,,,,,,up,1000,-7.5,1.8576761454858622e-05,1,3,1,2.5,188.057240366765,None,187.00982780009508,187.325583799975,188.0115994999651,188.3340178001672,189.02442519995384,189.34287100005895,right,0,3.5917587000876665,187.06450650002807,None,189.57374930009246,None,,,,,,,quvvsxs,001,0,fr,2022-05-17_12h22.21.993,3-AFC_adaptive_staircase_mess,2022.1.1,None,
,,,,,0,0,0,0,18,0,18,0,,,,,,,,,,,,,,,,right,1000,-5.0,2.4772509540239506e-05,1,3,1,2.5,194.2011035667422,194.42426450015046,192.15010339999571,192.4677159001585,193.17763960012235,193.4977144000586,194.15553980018012,194.47890560002998,right,1,2.969416599953547,192.20606510015205,None,194.709657400148,None,,,,,,,quvvsxs,001,0,fr,2022-05-17_12h22.21.993,3-AFC_adaptive_staircase_mess,2022.1.1,None,
,,,,,0,0,0,0,19,0,19,0,,,,,,,,,,,,,,,,right,1000,-5.0,2.4772509540239506e-05,1,3,1,2.5,198.73853356676798,None,196.71654960000888,197.03801900008693,197.7262870001141,198.06643600016832,198.69338009995408,199.01576850004494,left,0,2.942940599983558,196.7447506999597,None,199.24767050007358,None,,,,,,,quvvsxs,001,0,fr,2022-05-17_12h22.21.993,3-AFC_adaptive_staircase_mess,2022.1.1,None,
,,,,,0,0,0,0,20,0,20,0,,,,,,,,,,,,,,,,right,1000,-2.5,3.303467240037979e-05,1,3,1,2.5,203.25352456682984,203.47764299996197,201.20364310010336,201.52203560015187,202.20318019995466,202.51856120000593,203.20751290000044,203.53342650015838,up,0,3.4479564998764545,201.2635534000583,None,203.7662377001252,None,,,,,,,quvvsxs,001,0,fr,2022-05-17_12h22.21.993,3-AFC_adaptive_staircase_mess,2022.1.1,None,
,,,,,0,0,0,0,21,0,21,0,,,,,,,,,,,,,,,,up,1000,0.0,4.405244365040069e-05,1,3,1,2.5,207.2471824666175,None,206.216486700112,206.53570580016822,207.2305157999508,207.5498856001068,208.20899610011838,208.52946890005842,left,0,2.937071100110188,206.2783458000049,None,208.7608497000765,None,,,,,,,quvvsxs,001,0,fr,2022-05-17_12h22.21.993,3-AFC_adaptive_staircase_mess,2022.1.1,None,
,,,,,0,0,0,0,22,0,22,0,,,,,,,,,,,,,,,,up,1000,2.5,5.874487774697646e-05,1,3,1,2.5,211.75718256674398,None,210.71724360017106,211.05268930015154,211.7405159000773,212.06893840013072,None,None,up,1,1.8132343001198024,210.77857029996812,None,None,None,,,,,,,quvvsxs,001,0,fr,2022-05-17_12h22.21.993,3-AFC_adaptive_staircase_mess,2022.1.1,None,
,,,,,0,0,0,0,23,0,23,0,,,,,,,,,,,,,,,,right,1000,2.5,5.874487774697646e-05,1,3,1,2.5,216.14222236682352,216.36529870005324,214.09857420017943,214.42092119995505,215.11179520003498,215.43189350003377,216.09614130016416,216.42663210001774,right,1,2.4672797000966966,214.15642270003445,None,216.6479505666687,None,,,,,,,quvvsxs,001,0,fr,2022-05-17_12h22.21.993,3-AFC_adaptive_staircase_mess,2022.1.1,None,
,,,,,0,0,0,0,24,0,24,0,,,,,,,,,,,,,,,,up,1000,-2.5,3.303467240037979e-05,-1,4,-1,-5.0,219.16095716675434,None,218.12931750016287,218.45581820001826,219.14429050008766,219.4747470000293,220.1415893000085,220.46224500006065,up,1,2.7844857000745833,218.19081920012832,None,220.6973311000038,None,,,,,,,quvvsxs,001,0,fr,2022-05-17_12h22.21.993,3-AFC_adaptive_staircase_mess,2022.1.1,None,
,,,,,0,0,0,0,25,0,25,0,,,,,,,,,,,,,,,,right,1000,-2.5,3.303467240037979e-05,-1,4,-1,-5.0,224.53137346665997,None,222.4801090999972,222.80380080011673,223.47648920002393,223.79677659994923,224.4854521001689,224.80955999996513,right,1,2.822262000059709,222.53724640002474,None,225.03932510013692,None,,,,,,,quvvsxs,001,0,fr,2022-05-17_12h22.21.993,3-AFC_adaptive_staircase_mess,2022.1.1,None,
,,,,,0,0,0,0,26,0,26,0,,,,,,,,,,,,,,,,right,1000,-7.5,1.8576761454858622e-05,-1,4,-1,-5.0,228.91658026684698,None,226.86502090003341,227.18548019998707,227.87441559997387,228.20517950016074,228.86810930003412,229.20943400007673,left,0,2.9629746999125928,226.92501530004665,None,229.4097661001142,None,,,,,,,quvvsxs,001,0,fr,2022-05-17_12h22.21.993,3-AFC_adaptive_staircase_mess,2022.1.1,None,
,,,,,0,0,0,0,27,0,27,0,,,,,,,,,,,,,,,,right,1000,-5.0,2.4772509540239506e-05,1,5,1,2.5,233.45620196668122,None,231.40553560014814,231.73726740013808,232.39710239996202,232.71619049995206,233.40951200015843,233.7450234000571,right,1,6.340993600198999,231.46698470017873,None,233.94750310014933,None,,,,,,,quvvsxs,001,0,fr,2022-05-17_12h22.21.993,3-AFC_adaptive_staircase_mess,2022.1.1,None,
,,,,,0,0,0,0,28,0,28,0,,,,,,,,,,,,,,,,up,1000,-5.0,2.4772509540239506e-05,1,5,1,2.5,240.3432444667599,None,239.29686839994974,239.61577569996007,240.2998963999562,240.6265688999556,241.29774320009165,241.61813449999318,right,0,3.077599900076166,239.3544292000588,None,241.84970890008844,None,,,,,,,quvvsxs,001,0,fr,2022-05-17_12h22.21.993,3-AFC_adaptive_staircase_mess,2022.1.1,None,
,,,,,0,0,0,0,29,0,29,0,,,,,,,,,,,,,,,,left,1000,-2.5,3.303467240037979e-05,1,5,1,2.5,243.9720616667221,None,243.92627550009638,244.25439090002328,244.95068350015208,245.27901159995236,245.94807590008713,246.2768447000999,up,0,2.2934593001846224,243.98602810013108,None,None,None,,,,,,,quvvsxs,001,0,fr,2022-05-17_12h22.21.993,3-AFC_adaptive_staircase_mess,2022.1.1,None,
,,,,,0,0,0,0,30,0,30,0,,,,,,,,,,,,,,,,left,1000,0.0,4.405244365040069e-05,1,5,1,2.5,247.84518476674955,None,247.8000545001123,248.12921590008773,248.80082230013795,249.1250808001496,249.8214654000476,250.14368130010553,up,0,2.9189196000806987,247.85718389996327,None,250.3714304000605,None,,,,,,,quvvsxs,001,0,fr,2022-05-17_12h22.21.993,3-AFC_adaptive_staircase_mess,2022.1.1,None,
,,,,,0,0,0,0,31,0,31,0,,,,,,,,,,,,,,,,up,1000,2.5,5.874487774697646e-05,1,5,1,2.5,253.3477193667243,None,252.303971900139,252.63510409998707,253.30246650008485,253.6318429999519,None,None,up,1,1.5565913999453187,252.3631202999968,None,None,None,,,,,,,quvvsxs,001,0,fr,2022-05-17_12h22.21.993,3-AFC_adaptive_staircase_mess,2022.1.1,None,
,,,,,0,0,0,0,32,0,32,0,,,,,,,,,,,,,,,,left,1000,2.5,5.874487774697646e-05,1,5,1,2.5,255.49246626679476,None,255.44583910005167,255.77959410008043,None,None,None,None,left,1,0.6006104000844061,255.50295069999993,None,None,None,,,,,,,quvvsxs,001,0,fr,2022-05-17_12h22.21.993,3-AFC_adaptive_staircase_mess,2022.1.1,None,
,,,,,0,0,0,0,33,0,33,0,,,,,,,,,,,,,,,,left,1000,-2.5,3.303467240037979e-05,-1,6,-1,-5.0,257.67255736684115,None,257.6248274000827,257.94932320015505,258.631354900077,258.94976220000535,259.6314326999709,259.95089540001936,left,1,3.502216199878603,257.6824740001466,None,260.1681288999971,None,,,,,,,quvvsxs,001,0,fr,2022-05-17_12h22.21.993,3-AFC_adaptive_staircase_mess,2022.1.1,None,
,,,,,1,0,1,0,0,0,0,0,,,,,,,,,,,,,[],[],10,up,1500,30,0.001527460556607757,0,0,-1,10,270.36820956675024,None,269.3361975001171,269.6575832001399,270.3515429000836,270.6816724999808,None,None,up,1,1.4283911001402885,269.39473549998365,None,None,None,space,6.592591000022367,262.263261300046,None,262.263261300046,None,quvvsxs,001,0,fr,2022-05-17_12h22.21.993,3-AFC_adaptive_staircase_mess,2022.1.1,None,
,,,,,1,0,1,0,1,0,1,0,,,,,,,,,,,,,,,,up,1500,30,0.001527460556607757,0,0,-1,10,273.3763375667079,None,272.3296205000952,272.6525997000281,273.33051940007135,273.6607506000437,None,None,up,1,1.4540045999456197,272.38621360016987,None,None,None,,,,,,,quvvsxs,001,0,fr,2022-05-17_12h22.21.993,3-AFC_adaptive_staircase_mess,2022.1.1,None,
,,,,,1,0,1,0,2,0,2,0,,,,,,,,,,,,,,,,right,1500,10,0.0001527460556607757,-1,0,-1,-10,277.40202996676476,None,275.3501479001716,275.6811162000522,276.3504884999711,276.6782966000028,277.35220169997774,277.6917216000147,right,1,2.576910300180316,275.41422770009376,None,277.90319590014406,None,,,,,,,quvvsxs,001,0,fr,2022-05-17_12h22.21.993,3-AFC_adaptive_staircase_mess,2022.1.1,None,
,,,,,1,0,1,0,3,0,3,0,,,,,,,,,,,,,,,,left,1500,10,0.0001527460556607757,-1,0,-1,-10,279.5374386667429,None,279.48899600002915,279.8299289001152,None,None,None,None,left,1,0.49535099999047816,279.5519996001385,None,None,None,,,,,,,quvvsxs,001,0,fr,2022-05-17_12h22.21.993,3-AFC_adaptive_staircase_mess,2022.1.1,None,
,,,,,1,0,1,0,4,0,4,0,,,,,,,,,,,,,,,,left,1500,0,4.830254394949071e-05,-1,0,-1,-10,281.6077865667796,281.8310712999664,281.56052940012887,281.89099740004167,None,None,None,None,left,1,0.539757400052622,281.61989810015075,None,None,None,,,,,,,quvvsxs,001,0,fr,2022-05-17_12h22.21.993,3-AFC_adaptive_staircase_mess,2022.1.1,None,
,,,,,1,0,1,0,5,0,5,0,,,,,,,,,,,,,,,,left,1500,0,4.830254394949071e-05,-1,0,-1,-10,283.72206176683926,None,283.67701059998944,284.00645070010796,None,None,None,None,left,1,0.4101911000907421,283.7337028000038,None,None,None,,,,,,,quvvsxs,001,0,fr,2022-05-17_12h22.21.993,3-AFC_adaptive_staircase_mess,2022.1.1,None,
,,,,,1,0,1,0,6,0,6,0,,,,,,,,,,,,,,,,up,1500,-10,1.527460556607758e-05,-1,0,-1,-10,None,None,285.64463210012764,285.96658330014907,None,None,None,None,left,0,0.5956938001327217,285.7000687001273,None,None,None,,,,,,,quvvsxs,001,0,fr,2022-05-17_12h22.21.993,3-AFC_adaptive_staircase_mess,2022.1.1,None,
,,,,,1,0,1,0,7,0,7,0,,,,,,,,,,,,,,,,right,1500,-5,2.716251657462168e-05,1,1,1,5,289.85096226662085,None,287.79675380000845,288.12120559997857,288.78979900013655,289.1115230000578,289.804005100159,290.1351447000634,left,0,3.000482600182295,287.855261299992,None,290.36761970003136,None,,,,,,,quvvsxs,001,0,fr,2022-05-17_12h22.21.993,3-AFC_adaptive_staircase_mess,2022.1.1,None,
,,,,,1,0,1,0,8,0,8,0,,,,,,,,,,,,,,,,right,1500,0,4.830254394949071e-05,1,1,1,5,294.3907764666403,None,292.357097200118,292.67430349998176,293.3749131001532,293.71004320005886,294.37410979997367,294.7041881000623,up,0,4.880338199902326,292.41548070008866,None,294.9073390001431,None,,,,,,,quvvsxs,001,0,fr,2022-05-17_12h22.21.993,3-AFC_adaptive_staircase_mess,2022.1.1,None,
,,,,,1,0,1,0,9,0,9,0,,,,,,,,,,,,,,,,up,1500,5,8.589541935787943e-05,1,1,1,5,299.84317906672754,None,298.8033911001403,299.12700109998696,299.8265124000609,300.1462138001807,None,None,up,1,1.3898914000019431,298.865779499989,None,None,None,,,,,,,quvvsxs,001,0,fr,2022-05-17_12h22.21.993,3-AFC_adaptive_staircase_mess,2022.1.1,None,
,,,,,1,0,1,0,10,0,10,0,,,,,,,,,,,,,,,,up,1500,5,8.589541935787943e-05,1,1,1,5,302.80317036674046,None,301.7438175000716,302.07653419999406,302.7551544001326,303.0750829000026,None,None,up,1,1.4700217000208795,301.8092748001218,None,None,None,,,,,,,quvvsxs,001,0,fr,2022-05-17_12h22.21.993,3-AFC_adaptive_staircase_mess,2022.1.1,None,
,,,,,1,0,1,0,11,0,11,0,,,,,,,,,,,,,,,,left,1500,-5,2.716251657462168e-05,-1,2,-1,-5.0,304.8515471667672,None,304.80624589999206,305.13860659999773,305.8251153000165,306.1426646001637,306.8292635001708,307.15440180012956,left,1,2.4964638999663293,304.8640566000249,None,307.36052860016935,None,,,,,,,quvvsxs,001,0,fr,2022-05-17_12h22.21.993,3-AFC_adaptive_staircase_mess,2022.1.1,None,
,,,,,1,0,1,0,12,0,12,0,,,,,,,,,,,,,,,,up,1500,-5,2.716251657462168e-05,-1,2,-1,-5.0,309.88250626676404,310.1126880000811,308.85170730017126,309.16404139995575,309.8658396000974,310.1942577001173,310.85686860000715,311.17673690011725,right,0,2.7558091001119465,308.9082578001544,None,311.4044268000871,None,,,,,,,quvvsxs,001,0,fr,2022-05-17_12h22.21.993,3-AFC_adaptive_staircase_mess,2022.1.1,None,
,,,,,1,0,1,0,13,0,13,0,,,,,,,,,,,,,,,,left,1500,-2.5,3.622179800374953e-05,1,3,1,2.5,313.2069053666821,None,313.16038390016183,313.49140780000016,314.15108280000277,314.4714101999998,315.1471565000247,315.46989189996384,right,0,2.5011062999255955,313.2185949999839,None,315.70955889998004,None,,,,,,,quvvsxs,001,0,fr,2022-05-17_12h22.21.993,3-AFC_adaptive_staircase_mess,2022.1.1,None,
,,,,,1,0,1,0,14,0,14,0,,,,,,,,,,,,,,,,left,1500,0.0,4.830254394949071e-05,1,3,1,2.5,317.2771188666268,None,317.2295638001524,317.5591941999737,318.24119259999134,318.57879710011184,319.2349811999593,319.55667780013755,up,0,2.3108359000179917,317.2883215001784,None,None,None,,,,,,,quvvsxs,001,0,fr,2022-05-17_12h22.21.993,3-AFC_adaptive_staircase_mess,2022.1.1,None,
,,,,,1,0,1,0,15,0,15,0,,,,,,,,,,,,,,,,right,1500,2.5,6.441247758465671e-05,1,3,1,2.5,323.1224741666267,323.34457470010966,321.1118262000382,321.431369200116,322.07502300012857,322.403909600107,323.10580749996006,323.4335092001129,right,1,2.42586120008491,321.1411494000349,None,None,None,,,,,,,quvvsxs,001,0,fr,2022-05-17_12h22.21.993,3-AFC_adaptive_staircase_mess,2022.1.1,None,
,,,,,1,0,1,0,16,0,16,0,,,,,,,,,,,,,,,,left,1500,2.5,6.441247758465671e-05,1,3,1,2.5,325.09975096682706,None,325.0830843001604,325.4070866999682,None,None,None,None,left,1,0.4822375997900963,325.1088887001388,None,None,None,,,,,,,quvvsxs,001,0,fr,2022-05-17_12h22.21.993,3-AFC_adaptive_staircase_mess,2022.1.1,None,
,,,,,1,0,1,0,17,0,17,0,,,,,,,,,,,,,,,,left,1500,-2.5,3.622179800374953e-05,-1,4,-1,-5.0,327.1384624667155,None,327.0799249999691,327.4121775000822,328.0848731000442,328.4151775999926,329.0955642000772,329.4166809001472,left,1,4.626692700199783,327.1489216000773,None,329.6487060999498,None,,,,,,,quvvsxs,001,0,fr,2022-05-17_12h22.21.993,3-AFC_adaptive_staircase_mess,2022.1.1,None,
,,,,,1,0,1,0,18,0,18,0,,,,,,,,,,,,,,,,left,1500,-2.5,3.622179800374953e-05,-1,4,-1,-5.0,333.36029376677857,None,333.31434929999523,333.63655670010485,334.32109950017184,334.6378176000435,335.31301399995573,335.66329549998045,right,0,3.2761068001855165,333.3716663001105,None,335.8917472001631,None,,,,,,,quvvsxs,001,0,fr,2022-05-17_12h22.21.993,3-AFC_adaptive_staircase_mess,2022.1.1,None,
,,,,,1,0,1,0,19,0,19,0,,,,,,,,,,,,,,,,up,1500,0.0,4.830254394949071e-05,1,5,1,2.5,339.195410066812,None,338.15121689997613,338.4613803999964,339.15024820016697,339.47648339997977,None,None,up,1,1.6713165999390185,338.20892890007235,None,None,None,,,,,,,quvvsxs,001,0,fr,2022-05-17_12h22.21.993,3-AFC_adaptive_staircase_mess,2022.1.1,None,
,,,,,1,0,1,0,20,0,20,0,,,,,,,,,,,,,,,,up,1500,0.0,4.830254394949071e-05,1,5,1,2.5,342.4203108666154,None,341.3916748999618,341.7146195000969,342.40364419994876,342.72475420008413,343.4035708999727,343.72141010011546,right,0,3.246918600052595,341.4487189000938,None,343.95028560003266,None,,,,,,,quvvsxs,001,0,fr,2022-05-17_12h22.21.993,3-AFC_adaptive_staircase_mess,2022.1.1,None,
,,,,,1,0,1,0,21,0,21,0,,,,,,,,,,,,,,,,left,1500,2.5,6.441247758465671e-05,1,5,1,2.5,346.2351296668096,None,346.1905279001221,346.5170793000143,347.20252050017007,347.51905889995396,348.20286540011875,348.51747189997695,left,1,2.5686995999421924,346.2468650001101,None,348.77009869995527,None,,,,,,,quvvsxs,001,0,fr,2022-05-17_12h22.21.993,3-AFC_adaptive_staircase_mess,2022.1.1,None,
,,,,,1,0,1,0,22,0,22,0,,,,,,,,,,,,,,,,up,1500,2.5,6.441247758465671e-05,1,5,1,2.5,351.36166606663414,None,350.3168089000974,350.63743460015394,351.30391350016,351.63831160007976,None,None,up,1,1.5569448000751436,350.37843340006657,None,None,None,,,,,,,quvvsxs,001,0,fr,2022-05-17_12h22.21.993,3-AFC_adaptive_staircase_mess,2022.1.1,None,
,,,,,1,0,1,0,23,0,23,0,,,,,,,,,,,,,,,,right,1500,-2.5,3.622179800374953e-05,-1,6,-1,-5.0,355.48227476684065,None,353.4389145001769,353.76507119997405,354.4406147999689,354.76661349995993,355.42926799994893,355.76036370010115,left,0,7.565202899975702,353.4986154001672,None,355.9826774999965,None,,,,,,,quvvsxs,001,0,fr,2022-05-17_12h22.21.993,3-AFC_adaptive_staircase_mess,2022.1.1,None,
,,,,,2,0,2,0,0,0,0,0,,,,,,,,,,,,,[],[],10,right,2000,30,0.0023657562948074026,0,0,-1,10,375.4813482666543,None,373.44149260013364,373.75406680000015,374.4706544999499,374.78399679996073,375.46468159998767,375.7823018000927,right,1,2.391043500043452,373.52926370012574,None,None,None,space,10.83437930000946,362.1409505000338,None,362.1409505000338,None,quvvsxs,001,0,fr,2022-05-17_12h22.21.993,3-AFC_adaptive_staircase_mess,2022.1.1,None,
,,,,,2,0,2,0,1,0,1,0,,,,,,,,,,,,,,,,left,2000,30,0.0023657562948074026,0,0,-1,10,377.4669470666597,None,377.45028039999306,377.77896889997646,None,None,None,None,left,1,0.5442339999135584,377.47890730015934,None,None,None,,,,,,,quvvsxs,001,0,fr,2022-05-17_12h22.21.993,3-AFC_adaptive_staircase_mess,2022.1.1,None,
,,,,,2,0,2,0,2,0,2,0,,,,,,,,,,,,,,,,right,2000,10,0.00023657562948074026,-1,0,-1,-10,381.57473916683034,None,379.5308620000724,379.8512868999969,380.55428429995663,380.8696970001329,381.52886650012806,381.85457270010374,right,1,2.4944850001484156,379.5923927000258,None,382.0862259999849,None,,,,,,,quvvsxs,001,0,fr,2022-05-17_12h22.21.993,3-AFC_adaptive_staircase_mess,2022.1.1,None,
,,,,,2,0,2,0,3,0,3,0,,,,,,,,,,,,,,,,left,2000,10,0.00023657562948074026,-1,0,-1,-10,383.6635912666718,None,383.6050383001566,383.92803180008195,None,None,None,None,left,1,0.4771721998695284,383.67402700008824,None,None,None,,,,,,,quvvsxs,001,0,fr,2022-05-17_12h22.21.993,3-AFC_adaptive_staircase_mess,2022.1.1,None,
,,,,,2,0,2,0,4,0,4,0,,,,,,,,,,,,,,,,up,2000,0,7.481178280472168e-05,-1,0,-1,-10,386.6711897666721,None,385.63253469998017,385.94716330012307,386.65452310000546,386.96558080008253,None,None,up,1,1.4311798000708222,385.6884051000234,None,None,None,,,,,,,quvvsxs,001,0,fr,2022-05-17_12h22.21.993,3-AFC_adaptive_staircase_mess,2022.1.1,None,
,,,,,2,0,2,0,5,0,5,0,,,,,,,,,,,,,,,,left,2000,0,7.481178280472168e-05,-1,0,-1,-10,388.6661200668352,388.8920257999562,388.64945340016857,388.97721979999915,None,None,None,None,left,1,0.7445782001595944,388.67851019999944,None,None,None,,,,,,,quvvsxs,001,0,fr,2022-05-17_12h22.21.993,3-AFC_adaptive_staircase_mess,2022.1.1,None,
,,,,,2,0,2,0,6,0,6,0,,,,,,,,,,,,,,,,left,2000,-10,2.3657562948074015e-05,-1,0,-1,-10,390.95013676683106,None,390.90497280005366,391.2302698001731,391.9152747001499,392.2347375000827,392.91783770010807,393.229436900001,left,1,7.918523199856281,390.9614359000698,None,393.4648146000691,None,,,,,,,quvvsxs,001,0,fr,2022-05-17_12h22.21.993,3-AFC_adaptive_staircase_mess,2022.1.1,None,
,,,,,2,0,2,0,7,0,7,0,,,,,,,,,,,,,,,,up,2000,-10,2.3657562948074015e-05,-1,0,-1,-10,401.4326658666289,None,400.3807704001665,400.70366770005785,401.39016230008565,401.7088206000626,402.3934591000434,402.70498979999684,right,0,2.9292033999226987,400.4382876001764,None,402.9605936000589,None,,,,,,,quvvsxs,001,0,fr,2022-05-17_12h22.21.993,3-AFC_adaptive_staircase_mess,2022.1.1,None,
,,,,,2,0,2,0,8,0,8,0,,,,,,,,,,,,,,,,left,2000,-5,4.206975708225974e-05,1,1,1,5,404.89585076674507,None,404.8791841000784,405.2064012000337,405.86302340007387,406.1802662999835,406.85565260006115,407.1978643001057,up,0,2.915766599820927,404.9080479000695,None,407.431204700144,None,,,,,,,quvvsxs,001,0,fr,2022-05-17_12h22.21.993,3-AFC_adaptive_staircase_mess,2022.1.1,None,
,,,,,2,0,2,0,9,0,9,0,,,,,,,,,,,,,,,,left,2000,0,7.481178280472168e-05,1,1,1,5,409.36715676664994,None,409.3504900999833,409.67950650001876,None,None,None,None,left,1,0.46073260018602014,409.37911260011606,None,None,None,,,,,,,quvvsxs,001,0,fr,2022-05-17_12h22.21.993,3-AFC_adaptive_staircase_mess,2022.1.1,None,
,,,,,2,0,2,0,10,0,10,0,,,,,,,,,,,,,,,,right,2000,0,7.481178280472168e-05,1,1,1,5,None,None,411.3178262000438,411.64238650002517,None,None,None,None,left,0,0.40968090016394854,411.3817624000367,None,None,None,,,,,,,quvvsxs,001,0,fr,2022-05-17_12h22.21.993,3-AFC_adaptive_staircase_mess,2022.1.1,None,
,,,,,2,0,2,0,11,0,11,0,,,,,,,,,,,,,,,,right,2000,5,0.0001330362529899405,1,1,1,5,415.35533066682206,None,413.304753200151,413.62303200014867,414.3178538000211,414.63440440013073,415.3191655999981,415.639731900068,right,1,2.653868399793282,413.3622400001623,None,415.8657994000241,None,,,,,,,quvvsxs,001,0,fr,2022-05-17_12h22.21.993,3-AFC_adaptive_staircase_mess,2022.1.1,None,
,,,,,2,0,2,0,12,0,12,0,,,,,,,,,,,,,,,,left,2000,5,0.0001330362529899405,1,1,1,5,417.5532082666798,417.7767617001664,417.53654160001315,417.85786049999297,None,None,None,None,left,1,0.49828169983811677,417.56560410000384,None,None,None,,,,,,,quvvsxs,001,0,fr,2022-05-17_12h22.21.993,3-AFC_adaptive_staircase_mess,2022.1.1,None,
,,,,,2,0,2,0,13,0,13,0,,,,,,,,,,,,,,,,left,2000,-5,4.206975708225974e-05,-1,2,-1,-5.0,419.61085306673,None,419.59418640006334,419.92505750013515,420.5788718999829,420.891548700165,421.57958719995804,421.8933463001158,right,0,4.481316399993375,419.62273780000396,None,422.12728600017726,None,,,,,,,quvvsxs,001,0,fr,2022-05-17_12h22.21.993,3-AFC_adaptive_staircase_mess,2022.1.1,None,
,,,,,2,0,2,0,14,0,14,0,,,,,,,,,,,,,,,,left,2000,-2.5,5.610092271509818e-05,1,3,1,2.5,425.6566824666845,None,425.61140800011344,425.93829419999383,426.63768370007165,426.96966679999605,427.616536000045,427.94418200012296,right,0,4.531302399933338,425.6678186999634,None,428.17157909995876,None,,,,,,,quvvsxs,001,0,fr,2022-05-17_12h22.21.993,3-AFC_adaptive_staircase_mess,2022.1.1,None,
,,,,,2,0,2,0,15,0,15,0,,,,,,,,,,,,,,,,right,2000,0.0,7.481178280472168e-05,1,3,1,2.5,433.74292616668777,433.9632564999629,431.7016521000769,432.01445060013793,432.6978118000552,433.0117530000862,433.6972016999498,434.0160678999964,up,0,2.927032799925655,431.7286791000515,None,434.24425820005126,None,,,,,,,quvvsxs,001,0,fr,2022-05-17_12h22.21.993,3-AFC_adaptive_staircase_mess,2022.1.1,None,
,,,,,2,0,2,0,16,0,16,0,,,,,,,,,,,,,,,,left,2000,2.5,9.976311574844399e-05,1,3,1,2.5,436.20213676669323,436.4288562000729,436.1854701000266,436.511607500026,437.1958300000988,437.51051970012486,438.1974608001765,438.513454800006,right,0,3.1625616000965238,436.2129324001726,None,438.7106244000606,None,,,,,,,quvvsxs,001,0,fr,2022-05-17_12h22.21.993,3-AFC_adaptive_staircase_mess,2022.1.1,None,
,,,,,2,0,2,0,17,0,17,0,,,,,,,,,,,,,,,,right,2000,5.0,0.0001330362529899405,1,3,1,2.5,442.9135751666656,443.13191900006495,440.8663182000164,441.18064519995824,441.86673050001264,442.18383530015126,442.86856180010363,443.18637100001797,right,1,2.347858900204301,440.92357189999893,None,None,None,,,,,,,quvvsxs,001,0,fr,2022-05-17_12h22.21.993,3-AFC_adaptive_staircase_mess,2022.1.1,None,
,,,,,2,0,2,0,18,0,18,0,,,,,,,,,,,,,,,,right,2000,5.0,0.0001330362529899405,1,3,1,2.5,446.82266436663144,447.04348240001127,444.7772546999622,445.0915242000483,445.7737700000871,446.0892601001542,446.7779386001639,447.1232968000695,right,1,2.5652222998905927,444.83405130007304,None,447.32538060005754,None,,,,,,,quvvsxs,001,0,fr,2022-05-17_12h22.21.993,3-AFC_adaptive_staircase_mess,2022.1.1,None,
,,,,,2,0,2,0,19,0,19,0,,,,,,,,,,,,,,,,up,2000,0.0,7.481178280472168e-05,-1,4,-1,-5.0,449.95046436676444,450.1726163001731,448.8975736000575,449.22148780012503,449.90781370014884,450.2265970001463,450.9100693000946,451.2258810000494,left,0,3.6223488999530673,448.9536169001367,None,451.45891309995204,None,,,,,,,quvvsxs,001,0,fr,2022-05-17_12h22.21.993,3-AFC_adaptive_staircase_mess,2022.1.1,None,
,,,,,2,0,2,0,20,0,20,0,,,,,,,,,,,,,,,,right,2000,2.5,9.976311574844399e-05,1,5,1,2.5,456.13248866663,None,454.10839250008576,454.4256969001144,455.08112580003217,455.39866059995256,456.1158219999634,456.43355299998075,right,1,2.4624265001621097,454.13739930000156,None,456.6213619667726,None,,,,,,,quvvsxs,001,0,fr,2022-05-17_12h22.21.993,3-AFC_adaptive_staircase_mess,2022.1.1,None,
,,,,,2,0,2,0,21,0,21,0,,,,,,,,,,,,,,,,up,2000,2.5,9.976311574844399e-05,1,5,1,2.5,None,None,458.11227719997987,458.429966900032,None,None,None,None,right,0,0.5125062998849899,458.16707970015705,None,None,None,,,,,,,quvvsxs,001,0,fr,2022-05-17_12h22.21.993,3-AFC_adaptive_staircase_mess,2022.1.1,None,
,,,,,2,0,2,0,22,0,22,0,,,,,,,,,,,,,,,,left,2000,5.0,0.0001330362529899405,1,5,1,2.5,460.23053756665126,460.4541358000133,460.1854832000099,460.5092754000798,None,None,None,None,left,1,0.5085558998398483,460.24249940016307,None,None,None,,,,,,,quvvsxs,001,0,fr,2022-05-17_12h22.21.993,3-AFC_adaptive_staircase_mess,2022.1.1,None,
,,,,,2,0,2,0,23,0,23,0,,,,,,,,,,,,,,,,up,2000,5.0,0.0001330362529899405,1,5,1,2.5,463.3160010667673,None,462.2673593000509,462.5861577000469,463.26875700009987,463.6085973000154,None,None,up,1,1.399777399841696,462.3271771001164,None,None,None,,,,,,,quvvsxs,001,0,fr,2022-05-17_12h22.21.993,3-AFC_adaptive_staircase_mess,2022.1.1,None,
,,,,,2,0,2,0,24,0,24,0,,,,,,,,,,,,,,,,right,2000,0.0,7.481178280472168e-05,-1,6,-1,-5.0,467.30502696667486,None,465.2520433999598,465.5712125999853,466.26050160010345,466.57524610008113,467.26115000015125,467.5802433001809,right,1,2.906165399821475,465.30925130005926,None,467.80921530001797,None,,,,,,,quvvsxs,001,0,fr,2022-05-17_12h22.21.993,3-AFC_adaptive_staircase_mess,2022.1.1,None,
,,,,,3,0,3,0,0,0,0,0,,,,,,,,,,,,,[],[],10,left,3000,30,0.001733684252262658,0,0,-1,10,484.34905346675464,None,484.3040666000452,484.6340728001669,None,None,None,None,left,1,0.3757732000667602,484.3600391000509,None,None,None,space,14.507343700155616,469.2917003000621,None,469.2917003000621,None,quvvsxs,001,0,fr,2022-05-17_12h22.21.993,3-AFC_adaptive_staircase_mess,2022.1.1,None,
,,,,,3,0,3,0,1,0,1,0,,,,,,,,,,,,,,,,left,3000,30,0.001733684252262658,0,0,-1,10,486.3003436667534,486.52562620001845,486.25411500013433,486.580954400124,None,None,None,None,left,1,0.30095140007324517,486.31475730007514,None,None,None,,,,,,,quvvsxs,001,0,fr,2022-05-17_12h22.21.993,3-AFC_adaptive_staircase_mess,2022.1.1,None,
,,,,,3,0,3,0,2,0,2,0,,,,,,,,,,,,,,,,right,3000,10,0.00017336842522626576,-1,0,-1,-10,490.17799136677445,None,488.1434004001785,488.46090029994957,489.1219652001746,489.4418738000095,490.1291769000236,490.4680042001419,right,1,2.3098265000153333,488.1699010999873,None,None,None,,,,,,,quvvsxs,001,0,fr,2022-05-17_12h22.21.993,3-AFC_adaptive_staircase_mess,2022.1.1,None,
,,,,,3,0,3,0,3,0,3,0,,,,,,,,,,,,,,,,up,3000,10,0.00017336842522626576,-1,0,-1,-10,493.0227461667421,None,491.99739759997465,492.3212325000204,493.00607950007543,493.33384380000643,None,None,up,1,1.488056599861011,492.05521130003035,None,None,None,,,,,,,quvvsxs,001,0,fr,2022-05-17_12h22.21.993,3-AFC_adaptive_staircase_mess,2022.1.1,None,
,,,,,3,0,3,0,4,0,4,0,,,,,,,,,,,,,,,,up,3000,0,5.482390980715923e-05,-1,0,-1,-10,496.0851384667369,None,495.0602716000285,495.3775092000142,496.06847180007026,496.40347989997827,None,None,up,1,1.4726019999943674,495.11861760006286,None,None,None,,,,,,,quvvsxs,001,0,fr,2022-05-17_12h22.21.993,3-AFC_adaptive_staircase_mess,2022.1.1,None,
,,,,,3,0,3,0,5,0,5,0,,,,,,,,,,,,,,,,up,3000,0,5.482390980715923e-05,-1,0,-1,-10,499.1421436668063,None,498.11690040002577,498.43689080001786,499.0958972000517,499.4162940001115,500.1069635001477,500.43031010008417,right,0,3.90274849999696,498.1445155001711,None,500.6641502000857,None,,,,,,,quvvsxs,001,0,fr,2022-05-17_12h22.21.993,3-AFC_adaptive_staircase_mess,2022.1.1,None,
,,,,,3,0,3,0,6,0,6,0,,,,,,,,,,,,,,,,left,3000,5,9.749222998790222e-05,1,1,1,5,503.57266356662535,None,503.525867999997,503.85388680011965,504.5452171000652,504.86829270003363,505.52598739997484,505.84369969996624,right,0,6.024636999936774,503.58322050003335,None,506.1021126001142,None,,,,,,,quvvsxs,001,0,fr,2022-05-17_12h22.21.993,3-AFC_adaptive_staircase_mess,2022.1.1,None,
,,,,,3,0,3,0,7,0,7,0,,,,,,,,,,,,,,,,up,3000,10,0.00017336842522626576,1,1,1,5,512.1683036666984,None,511.1077046999708,511.42739800014533,512.119910800131,512.4587710001506,None,None,up,1,1.7461120998486876,511.16506629996,None,None,None,,,,,,,quvvsxs,001,0,fr,2022-05-17_12h22.21.993,3-AFC_adaptive_staircase_mess,2022.1.1,None,
,,,,,3,0,3,0,8,0,8,0,,,,,,,,,,,,,,,,left,3000,10,0.00017336842522626576,1,1,1,5,514.4449448667622,None,514.400824500015,514.7321608001366,515.3993896001484,515.7252235000487,516.3919663000852,516.7125719001051,right,0,4.352096199989319,514.4568710001186,None,516.9703055000864,None,,,,,,,quvvsxs,001,0,fr,2022-05-17_12h22.21.993,3-AFC_adaptive_staircase_mess,2022.1.1,None,
,,,,,3,0,3,0,9,0,9,0,,,,,,,,,,,,,,,,left,3000,15,0.00030829750093074097,1,1,1,5,520.374335366829,None,520.3278566000517,520.6663673000876,None,None,None,None,right,0,0.5227382001467049,520.3882578001358,None,None,None,,,,,,,quvvsxs,001,0,fr,2022-05-17_12h22.21.993,3-AFC_adaptive_staircase_mess,2022.1.1,None,
,,,,,3,0,3,0,10,0,10,0,,,,,,,,,,,,,,,,left,3000,20,0.0005482390980715922,1,1,1,5,522.4460172667789,522.6756629000884,522.3995537001174,522.7329137001652,523.4290920000058,523.7529925999697,524.4246007001493,524.7447957999539,left,1,3.162288299994543,522.4614025000483,None,524.9727829999756,None,,,,,,,quvvsxs,001,0,fr,2022-05-17_12h22.21.993,3-AFC_adaptive_staircase_mess,2022.1.1,None,
,,,,,3,0,3,0,11,0,11,0,,,,,,,,,,,,,,,,up,3000,20,0.0005482390980715922,1,1,1,5,528.1841634666237,None,527.1236356000882,527.4458300999831,528.1362805000972,528.4718233000021,None,None,up,1,1.6738436999730766,527.1809964000713,None,None,None,,,,,,,quvvsxs,001,0,fr,2022-05-17_12h22.21.993,3-AFC_adaptive_staircase_mess,2022.1.1,None,
,,,,,3,0,3,0,12,0,12,0,,,,,,,,,,,,,,,,left,3000,10,0.00017336842522626576,-1,2,-1,-5.0,530.4192534667129,None,530.3727031999733,530.7075533999596,531.3721219000872,531.7026591000613,532.3713104999624,532.6996842999943,up,0,8.918611800065264,530.4326760000549,None,532.9314234000631,None,,,,,,,quvvsxs,001,0,fr,2022-05-17_12h22.21.993,3-AFC_adaptive_staircase_mess,2022.1.1,None,
,,,,,3,0,3,0,13,0,13,0,,,,,,,,,,,,,,,,right,3000,12.5,0.00023119051069963006,1,3,1,2.5,542.8722272667258,None,540.847236600006,541.1771945999935,541.8498880001716,542.1813493999653,542.8555606000591,543.1908035001252,right,1,2.5625694999471307,540.9084018000867,None,543.3911685999483,None,,,,,,,quvvsxs,001,0,fr,2022-05-17_12h22.21.993,3-AFC_adaptive_staircase_mess,2022.1.1,None,
,,,,,3,0,3,0,14,0,14,0,,,,,,,,,,,,,,,,right,3000,12.5,0.00023119051069963006,1,3,1,2.5,547.0406607667139,None,544.9876969000325,545.3122072999831,546.0056237000972,546.3266345001757,546.9955060000066,547.3277467000298,right,1,2.6004665999207646,545.0465135001577,None,547.5465369999874,None,,,,,,,quvvsxs,001,0,fr,2022-05-17_12h22.21.993,3-AFC_adaptive_staircase_mess,2022.1.1,None,
,,,,,3,0,3,0,15,0,15,0,,,,,,,,,,,,,,,,right,3000,7.5,0.00013000797815826355,-1,4,-1,-5.0,551.2062475667956,None,549.1613402001094,549.4921788000502,550.1586786000989,550.4873132000212,551.1576486001723,551.4962400000077,right,1,2.4382849999237806,549.2248283000663,None,551.6918970668378,None,,,,,,,quvvsxs,001,0,fr,2022-05-17_12h22.21.993,3-AFC_adaptive_staircase_mess,2022.1.1,None,
,,,,,3,0,3,0,16,0,16,0,,,,,,,,,,,,,,,,up,3000,7.5,0.00013000797815826355,-1,4,-1,-5.0,554.2102539668015,None,553.1626399001107,553.4914462000597,554.1616108000744,554.5001097000204,555.1680535001215,555.5005751999561,right,0,12.430072600021958,553.2253509000875,None,555.7163283999544,None,,,,,,,quvvsxs,001,0,fr,2022-05-17_12h22.21.993,3-AFC_adaptive_staircase_mess,2022.1.1,None,
,,,,,3,0,3,0,17,0,17,0,,,,,,,,,,,,,,,,left,3000,10.0,0.00017336842522626576,1,5,1,2.5,567.2149777666821,None,567.1669261001516,567.5105626001023,None,None,None,None,left,1,0.7669191998429596,567.2240440000314,None,None,None,,,,,,,quvvsxs,001,0,fr,2022-05-17_12h22.21.993,3-AFC_adaptive_staircase_mess,2022.1.1,None,
,,,,,3,0,3,0,18,0,18,0,,,,,,,,,,,,,,,,right,3000,10.0,0.00017336842522626576,1,5,1,2.5,571.5141371668471,571.7383894999512,569.4811216001399,569.8107769000344,570.498132500099,570.818850300042,571.4974705001805,571.8203496001661,right,1,2.4715531000401825,569.5433088000864,None,572.0328044668461,None,,,,,,,quvvsxs,001,0,fr,2022-05-17_12h22.21.993,3-AFC_adaptive_staircase_mess,2022.1.1,None,
,,,,,3,0,3,0,19,0,19,0,,,,,,,,,,,,,,,,right,3000,5.0,9.749222998790222e-05,-1,6,-1,-5.0,575.5473971667855,None,573.526966500096,573.8492932000663,574.5122022000141,574.8323918001261,575.5307305001188,575.8576649001334,right,1,2.3102321999613196,573.5851998999715,None,None,None,,,,,,,quvvsxs,001,0,fr,2022-05-17_12h22.21.993,3-AFC_adaptive_staircase_mess,2022.1.1,None,
,,,,,4,0,4,0,0,0,0,0,,,,,,,,,,,,,[],[],10,right,4000,30,0.0026544222211549416,0,0,-1,10,581.0056141666757,None,578.9652969001327,579.2860818000045,579.9777706000023,580.2923231001478,580.9551340001635,581.2918050000444,right,1,2.3348582999315113,579.024855799973,None,None,None,space,1.4773879998829216,576.9859355001245,None,576.9859355001245,None,quvvsxs,001,0,fr,2022-05-17_12h22.21.993,3-AFC_adaptive_staircase_mess,2022.1.1,None,
,,,,,4,0,4,0,1,0,1,0,,,,,,,,,,,,,,,,right,4000,30,0.0026544222211549416,0,0,-1,10,584.9278134667004,None,582.8978137001395,583.2203651999589,583.886713600019,584.2126397001557,584.9111468000337,585.2396525000222,right,1,2.3512870999984443,582.9517012999859,None,None,None,,,,,,,quvvsxs,001,0,fr,2022-05-17_12h22.21.993,3-AFC_adaptive_staircase_mess,2022.1.1,None,
,,,,,4,0,4,0,2,0,2,0,,,,,,,,,,,,,,,,up,4000,10,0.00026544222211549425,-1,0,-1,-10,587.8602120667385,None,586.8285030000843,587.1427255000453,587.8131780000404,588.1388986001257,None,None,up,1,1.427288900129497,586.8601826999802,None,None,None,,,,,,,quvvsxs,001,0,fr,2022-05-17_12h22.21.993,3-AFC_adaptive_staircase_mess,2022.1.1,None,
,,,,,4,0,4,0,3,0,3,0,,,,,,,,,,,,,,,,left,4000,10,0.00026544222211549425,-1,0,-1,-10,589.8633691666803,None,589.8166322000325,590.1457605001051,None,None,None,None,left,1,0.5484347001183778,589.8745445001405,None,None,None,,,,,,,quvvsxs,001,0,fr,2022-05-17_12h22.21.993,3-AFC_adaptive_staircase_mess,2022.1.1,None,
,,,,,4,0,4,0,4,0,4,0,,,,,,,,,,,,,,,,left,4000,0,8.394020090612804e-05,-1,0,-1,-10,591.9758173667981,None,591.9278796000872,592.2673983999994,None,None,None,None,left,1,0.5053201999980956,591.9900865000673,None,None,None,,,,,,,quvvsxs,001,0,fr,2022-05-17_12h22.21.993,3-AFC_adaptive_staircase_mess,2022.1.1,None,
,,,,,4,0,4,0,5,0,5,0,,,,,,,,,,,,,,,,left,4000,0,8.394020090612804e-05,-1,0,-1,-10,594.0361825668408,None,594.0195159001742,594.3450350000057,None,None,None,None,left,1,0.39080339996144176,594.0490393000655,None,None,None,,,,,,,quvvsxs,001,0,fr,2022-05-17_12h22.21.993,3-AFC_adaptive_staircase_mess,2022.1.1,None,
,,,,,4,0,4,0,6,0,6,0,,,,,,,,,,,,,,,,right,4000,-10,2.6544222211549425e-05,-1,0,-1,-10,None,None,595.951610499993,596.2836551000364,None,None,None,None,left,0,0.5231924999970943,596.0203893999569,None,None,None,,,,,,,quvvsxs,001,0,fr,2022-05-17_12h22.21.993,3-AFC_adaptive_staircase_mess,2022.1.1,None,
,,,,,4,0,4,0,7,0,7,0,,,,,,,,,,,,,,,,up,4000,-5,4.720304381429618e-05,1,1,1,5,599.0752682667846,None,598.0271603001747,598.3486093000975,599.0282854000106,599.3498966000043,600.0304386999924,600.348417900037,right,0,3.1218796998728067,598.0848869001493,None,600.5862186001614,None,,,,,,,quvvsxs,001,0,fr,2022-05-17_12h22.21.993,3-AFC_adaptive_staircase_mess,2022.1.1,None,
,,,,,4,0,4,0,8,0,8,0,,,,,,,,,,,,,,,,up,4000,0,8.394020090612804e-05,1,1,1,5,603.7625098666797,None,602.705695600016,603.0280647999607,603.7165720001794,604.0486368001439,None,None,up,1,1.4754512999206781,602.7644372000359,None,None,None,,,,,,,quvvsxs,001,0,fr,2022-05-17_12h22.21.993,3-AFC_adaptive_staircase_mess,2022.1.1,None,
,,,,,4,0,4,0,9,0,9,0,,,,,,,,,,,,,,,,up,4000,0,8.394020090612804e-05,1,1,1,5,606.8021801666512,None,605.7445068999659,606.0657796000596,606.754318300169,607.0867255001795,607.7423708001152,608.0656125000678,up,1,11.380985999945551,605.7935783001594,None,608.2964365000371,None,,,,,,,quvvsxs,001,0,fr,2022-05-17_12h22.21.993,3-AFC_adaptive_staircase_mess,2022.1.1,None,
,,,,,4,0,4,0,10,0,10,0,,,,,,,,,,,,,,,,up,4000,-10,2.6544222211549425e-05,-1,2,-1,-5.0,619.7463476667801,None,618.6903880001046,619.0044503000099,619.7038650000468,620.0306339000817,620.7131433000322,621.0237146001309,left,0,3.067613899940625,618.7396621999796,None,621.2538885001559,None,,,,,,,quvvsxs,001,0,fr,2022-05-17_12h22.21.993,3-AFC_adaptive_staircase_mess,2022.1.1,None,
,,,,,4,0,4,0,11,0,11,0,,,,,,,,,,,,,,,,up,4000,-7.5,3.53972892192069e-05,1,3,1,2.5,None,None,623.327900600154,None,None,None,None,None,left,0,-1.5219271997921169,623.3608872999903,None,None,None,,,,,,,quvvsxs,001,0,fr,2022-05-17_12h22.21.993,3-AFC_adaptive_staircase_mess,2022.1.1,None,
,,,,,4,0,4,0,12,0,12,0,,,,,,,,,,,,,,,,up,4000,-5.0,4.720304381429618e-05,1,3,1,2.5,625.9347992668083,None,624.8731723001692,625.2023942000233,625.8794760000892,626.2131350999698,626.8851232000161,627.2307233000174,up,1,2.857584400102496,624.9429899000097,None,627.4313205000944,None,,,,,,,quvvsxs,001,0,fr,2022-05-17_12h22.21.993,3-AFC_adaptive_staircase_mess,2022.1.1,None,
,,,,,4,0,4,0,13,0,13,0,,,,,,,,,,,,,,,,up,4000,-5.0,4.720304381429618e-05,1,3,1,2.5,630.3761313667676,None,629.3318009001669,629.6647840000223,630.3196151000448,630.6429660001304,631.3511930999812,631.6683086999692,up,1,2.8809449998661876,629.3985838000663,None,631.8753629000857,None,,,,,,,quvvsxs,001,0,fr,2022-05-17_12h22.21.993,3-AFC_adaptive_staircase_mess,2022.1.1,None,
,,,,,4,0,4,0,14,0,14,0,,,,,,,,,,,,,,,,right,4000,-10.0,2.6544222211549425e-05,-1,4,-1,-5.0,635.8370148668221,None,633.7861508999486,634.1136044999585,634.787966000149,635.1091632000171,635.7892241999507,636.1023913000245,right,1,3.0412851001601666,633.8542257000227,None,636.3224296001717,None,,,,,,,quvvsxs,001,0,fr,2022-05-17_12h22.21.993,3-AFC_adaptive_staircase_mess,2022.1.1,None,
,,,,,4,0,4,0,15,0,15,0,,,,,,,,,,,,,,,,left,4000,-10.0,2.6544222211549425e-05,-1,4,-1,-5.0,638.4210998668025,None,638.4044332001358,638.7281357001048,639.3929799001198,639.7129367000889,640.3940066001378,640.7108504001517,left,1,2.9019297999329865,638.4248079999816,None,640.9412767000031,None,,,,,,,quvvsxs,001,0,fr,2022-05-17_12h22.21.993,3-AFC_adaptive_staircase_mess,2022.1.1,None,
,,,,,4,0,4,0,16,0,16,0,,,,,,,,,,,,,,,,right,4000,-15.0,1.4926913094589802e-05,-1,4,-1,-5.0,644.8904135667874,None,642.8279275000095,643.1538066000212,643.8290727001149,644.1582826001104,644.8312888999935,645.1570753001142,up,0,3.2524196000304073,642.8980428001378,None,645.3859842000529,None,,,,,,,quvvsxs,001,0,fr,2022-05-17_12h22.21.993,3-AFC_adaptive_staircase_mess,2022.1.1,None,
,,,,,4,0,4,0,17,0,17,0,,,,,,,,,,,,,,,,right,4000,-12.5,1.9905358527674868e-05,1,5,1,2.5,649.7044472667078,None,647.6583712000865,647.9749974000733,648.659755700035,649.002324000001,649.6603405999485,649.9849539001007,right,1,2.8706620999146253,647.7143700001761,None,650.2187268000562,None,,,,,,,quvvsxs,001,0,fr,2022-05-17_12h22.21.993,3-AFC_adaptive_staircase_mess,2022.1.1,None,
,,,,,4,0,4,0,18,0,18,0,,,,,,,,,,,,,,,,left,4000,-12.5,1.9905358527674868e-05,1,5,1,2.5,652.1073976667287,None,652.0907310000621,652.4194275999907,653.0743523000274,653.390839900123,654.0729094999842,654.4022623000201,right,0,8.91184030007571,652.1197418000083,None,654.6270928999875,None,,,,,,,quvvsxs,001,0,fr,2022-05-17_12h22.21.993,3-AFC_adaptive_staircase_mess,2022.1.1,None,
,,,,,4,0,4,0,19,0,19,0,,,,,,,,,,,,,,,,left,4000,-10.0,2.6544222211549425e-05,1,5,1,2.5,662.548277866623,None,662.5316111999564,662.8634073000867,663.5268841001671,663.839886300033,664.5265644001774,664.8392986999825,right,0,7.215540799777955,662.5514581999741,None,665.067397300154,None,,,,,,,quvvsxs,001,0,fr,2022-05-17_12h22.21.993,3-AFC_adaptive_staircase_mess,2022.1.1,None,
,,,,,4,0,4,0,20,0,20,0,,,,,,,,,,,,,,,,right,4000,-7.5,3.53972892192069e-05,1,5,1,2.5,673.2997514666679,None,671.2763116001152,671.6269970000722,672.2559412999544,672.5728981001303,673.2544764000922,673.5835085001308,left,0,2.3015340000856668,671.3054065001197,None,None,None,,,,,,,quvvsxs,001,0,fr,2022-05-17_12h22.21.993,3-AFC_adaptive_staircase_mess,2022.1.1,None,
,,,,,4,0,4,0,21,0,21,0,,,,,,,,,,,,,,,,right,4000,-5.0,4.720304381429618e-05,1,5,1,2.5,677.1407963666754,677.3666030999739,675.0913031999953,675.4080483000726,676.0973816001788,676.4101792001165,677.0982806000393,677.4196772000287,right,1,4.323023699922487,675.1478659999557,None,677.646690600086,None,,,,,,,quvvsxs,001,0,fr,2022-05-17_12h22.21.993,3-AFC_adaptive_staircase_mess,2022.1.1,None,
,,,,,4,0,4,0,22,0,22,0,,,,,,,,,,,,,,,,up,4000,-5.0,4.720304381429618e-05,1,5,1,2.5,682.0343388666554,682.2567017001566,680.9870056000073,681.3107960000634,681.9890388001222,682.3196707000025,683.0003753001802,683.3170633001719,right,0,4.957110700197518,681.0346917000134,None,683.5467022000812,None,,,,,,,quvvsxs,001,0,fr,2022-05-17_12h22.21.993,3-AFC_adaptive_staircase_mess,2022.1.1,None,
,,,,,4,0,4,0,23,0,23,0,,,,,,,,,,,,,,,,right,4000,-2.5,6.294627058970837e-05,1,5,1,2.5,689.5956396668373,None,687.5328120000195,687.8548081000336,688.5573227000423,688.8762670001015,689.5511026000604,689.8636167000514,right,1,2.945963199948892,687.5893741999753,None,690.0937642001081,None,,,,,,,quvvsxs,001,0,fr,2022-05-17_12h22.21.993,3-AFC_adaptive_staircase_mess,2022.1.1,None,
,,,,,4,0,4,0,24,0,24,0,,,,,,,,,,,,,,,,right,4000,-2.5,6.294627058970837e-05,1,5,1,2.5,694.0912831668431,None,692.0621589000802,692.382104499964,693.0402857000008,693.3473329001572,694.0457782000303,694.3676685001701,right,1,4.9299997999332845,692.0935579000507,None,694.5973857000936,None,,,,,,,quvvsxs,001,0,fr,2022-05-17_12h22.21.993,3-AFC_adaptive_staircase_mess,2022.1.1,None,
,,,,,4,0,4,0,25,0,25,0,,,,,,,,,,,,,,,,up,4000,-7.5,3.53972892192069e-05,-1,6,-1,-5.0,699.5572278667862,None,698.5120113999583,698.8271431000903,699.5135409999639,699.8440918000415,700.5226247000974,700.8352898999583,right,0,3.29383229999803,698.5688800001517,None,701.092503500171,None,,,,,,,quvvsxs,001,0,fr,2022-05-17_12h22.21.993,3-AFC_adaptive_staircase_mess,2022.1.1,None,
,,,,,5,0,5,0,0,0,0,0,,,,,,,,,,,,,[],[],10,right,6000,30,0.003664122665694519,0,0,-1,10,709.0399813666629,None,707.022042100085,707.3379277000204,707.9945092000999,708.309734800132,708.9940029000863,709.3176313999575,right,1,2.4451880999840796,707.0506371001247,None,709.5330671666345,None,space,3.6101497001945972,702.9262302001007,None,702.9262302001007,None,quvvsxs,001,0,fr,2022-05-17_12h22.21.993,3-AFC_adaptive_staircase_mess,2022.1.1,None,
,,,,,5,0,5,0,1,0,1,0,,,,,,,,,,,,,,,,right,6000,30,0.003664122665694519,0,0,-1,10,713.0432699667911,713.2696118999738,710.9958484000526,711.3159598000348,712.0013030001428,712.3141996001359,712.9975960999727,713.32438799995,right,1,2.307704799808562,711.051805900177,None,None,None,,,,,,,quvvsxs,001,0,fr,2022-05-17_12h22.21.993,3-AFC_adaptive_staircase_mess,2022.1.1,None,
,,,,,5,0,5,0,2,0,2,0,,,,,,,,,,,,,,,,up,6000,10,0.00036641226656945183,-1,0,-1,-10,715.9139527667469,None,714.8960353999864,715.2147594999988,715.8972861000802,716.2199876001105,None,None,up,1,1.3721330999396741,714.9232050999999,None,None,None,,,,,,,quvvsxs,001,0,fr,2022-05-17_12h22.21.993,3-AFC_adaptive_staircase_mess,2022.1.1,None,
,,,,,5,0,5,0,3,0,3,0,,,,,,,,,,,,,,,,right,6000,10,0.00036641226656945183,-1,0,-1,-10,719.8410084667305,720.0649821001571,717.8273448001128,718.1449856001418,718.8274185999762,719.1456871000119,719.8243418000638,720.1567755001597,right,1,2.406959099927917,717.855775100179,None,None,None,,,,,,,quvvsxs,001,0,fr,2022-05-17_12h22.21.993,3-AFC_adaptive_staircase_mess,2022.1.1,None,
,,,,,5,0,5,0,4,0,4,0,,,,,,,,,,,,,,,,left,6000,0,0.00011586973249842387,-1,0,-1,-10,721.8080553666844,None,721.7630135000218,722.0987317999825,722.7859702999704,723.101456000004,723.7865764000453,724.1018593001645,right,0,9.324388800188899,721.8105411001015,None,724.330401299987,None,,,,,,,quvvsxs,001,0,fr,2022-05-17_12h22.21.993,3-AFC_adaptive_staircase_mess,2022.1.1,None,
,,,,,5,0,5,0,5,0,5,0,,,,,,,,,,,,,,,,up,6000,5,0.000206048759548665,1,1,1,5,733.6665275667949,None,732.6142231000122,732.9328797000926,733.6197579000145,733.947808300145,None,None,up,1,1.4574194001033902,732.6698776001576,None,None,None,,,,,,,quvvsxs,001,0,fr,2022-05-17_12h22.21.993,3-AFC_adaptive_staircase_mess,2022.1.1,None,
,,,,,5,0,5,0,6,0,6,0,,,,,,,,,,,,,,,,left,6000,5,0.000206048759548665,1,1,1,5,735.6902882666948,735.9177759999875,735.6430113001261,735.9769693000708,None,None,None,None,left,1,0.5409319000318646,735.7057247001212,None,None,None,,,,,,,quvvsxs,001,0,fr,2022-05-17_12h22.21.993,3-AFC_adaptive_staircase_mess,2022.1.1,None,
,,,,,5,0,5,0,7,0,7,0,,,,,,,,,,,,,,,,right,6000,-5,6.515833892261494e-05,-1,2,-1,-5.0,739.7932113668105,None,737.7537601999938,738.0591130000539,738.7764888999518,739.0965462001041,739.7765447001439,740.111414300045,right,1,2.6051658999640495,737.8103090000805,None,740.3130509001203,None,,,,,,,quvvsxs,001,0,fr,2022-05-17_12h22.21.993,3-AFC_adaptive_staircase_mess,2022.1.1,None,
,,,,,5,0,5,0,8,0,8,0,,,,,,,,,,,,,,,,up,6000,-5,6.515833892261494e-05,-1,2,-1,-5.0,742.9837537666938,None,741.9328225001227,742.2490016000811,742.935619099997,743.2598493001424,None,None,up,1,1.6010341001674533,741.9903241000138,None,None,None,,,,,,,quvvsxs,001,0,fr,2022-05-17_12h22.21.993,3-AFC_adaptive_staircase_mess,2022.1.1,None,
,,,,,5,0,5,0,9,0,9,0,,,,,,,,,,,,,,,,right,6000,-10.0,3.664122665694518e-05,-1,2,-1,-5.0,747.1362989666561,None,745.0877617001534,745.4059968001675,746.0883074000012,746.4071589000523,747.0902847000398,747.4238540001679,right,1,2.578347000060603,745.1485979000572,None,747.6526902001351,None,,,,,,,quvvsxs,001,0,fr,2022-05-17_12h22.21.993,3-AFC_adaptive_staircase_mess,2022.1.1,None,
,,,,,5,0,5,0,10,0,10,0,,,,,,,,,,,,,,,,left,6000,-10.0,3.664122665694518e-05,-1,2,-1,-5.0,749.2846162666722,749.5055935999844,749.2679496000055,749.5890838000923,750.2459170001093,750.5608922999818,751.2766841000412,751.589977200143,right,0,13.437923100078478,749.2977010000031,None,751.821265200153,None,,,,,,,quvvsxs,001,0,fr,2022-05-17_12h22.21.993,3-AFC_adaptive_staircase_mess,2022.1.1,None,
,,,,,5,0,5,0,11,0,11,0,,,,,,,,,,,,,,,,up,6000,-7.5,4.886186104779051e-05,1,3,1,2.5,765.2887915666836,None,764.2355470000766,764.5526638000738,765.2402927000076,765.5752089000307,766.2345551000908,766.5503932000138,left,0,6.554389799945056,764.291887300089,None,766.7794918001164,None,,,,,,,quvvsxs,001,0,fr,2022-05-17_12h22.21.993,3-AFC_adaptive_staircase_mess,2022.1.1,None,
,,,,,5,0,5,0,12,0,12,0,,,,,,,,,,,,,,,,up,6000,-5.0,6.515833892261494e-05,1,3,1,2.5,773.4171310666172,None,772.3615649000276,772.6818659000564,773.372921400005,773.7044089001138,774.3592236000113,774.6805956000462,up,1,3.7188041999470443,772.4159954001661,None,774.9115569000132,None,,,,,,,quvvsxs,001,0,fr,2022-05-17_12h22.21.993,3-AFC_adaptive_staircase_mess,2022.1.1,None,
,,,,,5,0,5,0,13,0,13,0,,,,,,,,,,,,,,,,left,6000,-5.0,6.515833892261494e-05,1,3,1,2.5,777.6773492666582,None,777.6324334000237,777.9585611000657,None,None,None,None,left,1,0.7827579998411238,777.6885494999588,None,None,None,,,,,,,quvvsxs,001,0,fr,2022-05-17_12h22.21.993,3-AFC_adaptive_staircase_mess,2022.1.1,None,
,,,,,5,0,5,0,14,0,14,0,,,,,,,,,,,,,,,,up,6000,-10.0,3.664122665694518e-05,-1,4,-1,-5.0,781.0354595666906,781.2655983001459,779.9844115001615,780.3038258999586,780.9879133000504,781.3247536001727,781.980128900148,782.2970877001062,left,0,2.8125841999426484,780.0427622999996,None,782.5277109001763,None,,,,,,,quvvsxs,001,0,fr,2022-05-17_12h22.21.993,3-AFC_adaptive_staircase_mess,2022.1.1,None,
,,,,,5,0,5,0,15,0,15,0,,,,,,,,,,,,,,,,right,6000,-7.5,4.886186104779051e-05,1,5,1,2.5,786.442016966703,None,784.379152599955,784.6976324999705,785.3896855001803,785.7126003000885,786.3969199999701,786.7305133000482,right,1,2.7226625999901444,784.4367152000777,None,786.9399558999576,None,,,,,,,quvvsxs,001,0,fr,2022-05-17_12h22.21.993,3-AFC_adaptive_staircase_mess,2022.1.1,None,
,,,,,5,0,5,0,16,0,16,0,,,,,,,,,,,,,,,,right,6000,-7.5,4.886186104779051e-05,1,5,1,2.5,790.6983767667009,None,788.6435645001475,788.961369600147,789.6466592999641,789.9651681999676,790.652025599964,790.9834269001149,right,1,2.699686400126666,788.6996744000353,None,791.2102875001729,None,,,,,,,quvvsxs,001,0,fr,2022-05-17_12h22.21.993,3-AFC_adaptive_staircase_mess,2022.1.1,None,
,,,,,5,0,5,0,17,0,17,0,,,,,,,,,,,,,,,,up,6000,-12.5,2.7477043692881217e-05,-1,6,-1,-5.0,793.9338905667576,None,792.8791598000098,793.2003977000713,793.888459000038,794.2117310001049,794.8988671000116,795.2187024999876,right,0,11.369349399814382,792.9353531999514,None,795.4480043000076,None,,,,,,,quvvsxs,001,0,fr,2022-05-17_12h22.21.993,3-AFC_adaptive_staircase_mess,2022.1.1,None,
,,,,,6,0,6,0,0,0,0,0,,,,,,,,,,,,,[],[],10,right,8000,30,0.005740768107484416,0,0,-1,10,814.8776767666607,None,812.8363579001743,813.1554738001432,813.8186405999586,814.1443909001537,814.8333785000723,815.1564736000728,right,1,2.3450213000178337,812.8934297000524,None,None,None,space,6.9421945998910815,805.3766101000365,None,805.3766101000365,None,quvvsxs,001,0,fr,2022-05-17_12h22.21.993,3-AFC_adaptive_staircase_mess,2022.1.1,None,
,,,,,6,0,6,0,1,0,1,0,,,,,,,,,,,,,,,,up,8000,30,0.005740768107484416,0,0,-1,10,817.7971270667078,818.0145013001747,816.7599141001701,817.0882851001807,817.7496819000226,818.0678139999509,None,None,up,1,1.5361091000959277,816.8227919000201,None,None,None,,,,,,,quvvsxs,001,0,fr,2022-05-17_12h22.21.993,3-AFC_adaptive_staircase_mess,2022.1.1,None,
,,,,,6,0,6,0,2,0,2,0,,,,,,,,,,,,,,,,right,8000,10,0.0005740768107484417,-1,0,-1,-10,821.9025453667311,822.1224575000815,819.8696049000137,820.19231329998,820.8647283001337,821.1936906001065,821.8858787000645,822.2027865999844,right,1,2.3758406001143157,819.927230700152,None,None,None,,,,,,,quvvsxs,001,0,fr,2022-05-17_12h22.21.993,3-AFC_adaptive_staircase_mess,2022.1.1,None,
,,,,,6,0,6,0,3,0,3,0,,,,,,,,,,,,,,,,left,8000,10,0.0005740768107484417,-1,0,-1,-10,823.8530299666493,None,823.8363632999826,824.1624426001217,None,None,None,None,left,1,0.8288047998212278,823.8657274001744,None,None,None,,,,,,,quvvsxs,001,0,fr,2022-05-17_12h22.21.993,3-AFC_adaptive_staircase_mess,2022.1.1,None,
,,,,,6,0,6,0,4,0,4,0,,,,,,,,,,,,,,,,right,8000,0,0.0001815390273850507,-1,0,-1,-10,828.2588605667154,None,826.2091034001205,826.5349274000619,827.2011391001288,827.5274704000913,828.2142612000462,828.5419755000621,up,0,5.083088499959558,826.2680373999756,None,828.7715241000988,None,,,,,,,quvvsxs,001,0,fr,2022-05-17_12h22.21.993,3-AFC_adaptive_staircase_mess,2022.1.1,None,
,,,,,6,0,6,0,5,0,5,0,,,,,,,,,,,,,,,,right,8000,5,0.00032282711451732784,1,1,1,5,834.9167060666407,None,832.8764095001388,833.2011613999493,833.8990254001692,834.2358920001425,834.900039399974,835.2198537001386,up,0,3.30834240000695,832.9383191999514,None,835.4208557000384,None,,,,,,,quvvsxs,001,0,fr,2022-05-17_12h22.21.993,3-AFC_adaptive_staircase_mess,2022.1.1,None,
,,,,,6,0,6,0,6,0,6,0,,,,,,,,,,,,,,,,left,8000,10,0.0005740768107484417,1,1,1,5,837.7997963666605,None,837.7538074001204,838.0815568000544,838.7522712999489,839.0747789000161,839.7439302001148,840.0707269001286,up,0,3.897794999880716,837.8135894001462,None,840.3043274001684,None,,,,,,,quvvsxs,001,0,fr,2022-05-17_12h22.21.993,3-AFC_adaptive_staircase_mess,2022.1.1,None,
,,,,,6,0,6,0,7,0,7,0,,,,,,,,,,,,,,,,left,8000,15,0.001020868972334765,1,1,1,5,843.2753589668466,None,843.2246877001598,843.5501076001674,844.219904600177,844.5494196000509,845.2198208000045,845.5495800001081,up,0,8.707459799945354,843.2913904001471,None,845.7850858999882,None,,,,,,,quvvsxs,001,0,fr,2022-05-17_12h22.21.993,3-AFC_adaptive_staircase_mess,2022.1.1,None,
,,,,,6,0,6,0,8,0,8,0,,,,,,,,,,,,,,,,up,8000,20,0.0018153902738505074,1,1,1,5,854.5477784667785,None,853.5086040000897,853.8345272999723,854.4998640001286,854.8330812000204,855.5014077001251,855.8314470001496,up,1,2.99377950001508,853.565817499999,None,856.0648640000727,None,,,,,,,quvvsxs,001,0,fr,2022-05-17_12h22.21.993,3-AFC_adaptive_staircase_mess,2022.1.1,None,
,,,,,6,0,6,0,9,0,9,0,,,,,,,,,,,,,,,,left,8000,20,0.0018153902738505074,1,1,1,5,858.0874589668276,None,858.0425952000078,858.3772534001619,None,None,None,None,left,1,0.5370455000083894,858.1015185001306,None,None,None,,,,,,,quvvsxs,001,0,fr,2022-05-17_12h22.21.993,3-AFC_adaptive_staircase_mess,2022.1.1,None,
,,,,,6,0,6,0,10,0,10,0,,,,,,,,,,,,,,,,left,8000,10,0.0005740768107484417,-1,2,-1,-5.0,860.188909766792,None,860.1388918999583,860.4734694000799,None,None,None,None,left,1,0.42107459995895624,860.2021858000662,None,None,None,,,,,,,quvvsxs,001,0,fr,2022-05-17_12h22.21.993,3-AFC_adaptive_staircase_mess,2022.1.1,None,
,,,,,6,0,6,0,11,0,11,0,,,,,,,,,,,,,,,,up,8000,10,0.0005740768107484417,-1,2,-1,-5.0,863.1737834667476,None,862.1335285999812,862.4652973001357,863.1272973001469,863.4533458000515,None,None,up,1,1.5706419001799077,862.1967349001206,None,None,None,,,,,,,quvvsxs,001,0,fr,2022-05-17_12h22.21.993,3-AFC_adaptive_staircase_mess,2022.1.1,None,
,,,,,6,0,6,0,12,0,12,0,,,,,,,,,,,,,,,,left,8000,5.0,0.00032282711451732784,-1,2,-1,-5.0,865.3033312666851,None,865.257599900011,865.5839627999812,None,None,None,None,left,1,0.5247322998475283,865.3144044999499,None,None,None,,,,,,,quvvsxs,001,0,fr,2022-05-17_12h22.21.993,3-AFC_adaptive_staircase_mess,2022.1.1,None,
,,,,,6,0,6,0,13,0,13,0,,,,,,,,,,,,,,,,up,8000,5.0,0.00032282711451732784,-1,2,-1,-5.0,868.3628988667081,None,867.3330973000266,867.6534755001776,868.3462322000414,868.6793905000668,None,None,up,1,1.4401011001318693,867.3904477001633,None,None,None,,,,,,,quvvsxs,001,0,fr,2022-05-17_12h22.21.993,3-AFC_adaptive_staircase_mess,2022.1.1,None,
,,,,,6,0,6,0,14,0,14,0,,,,,,,,,,,,,,,,up,8000,0.0,0.0001815390273850507,-1,2,-1,-5.0,871.3778766666694,None,870.3225271000993,870.6453187000006,871.3319831001572,871.6704526999965,872.3428589999676,872.6625071000308,right,0,7.9855132000520825,870.3818249001633,None,872.8719820000697,None,,,,,,,quvvsxs,001,0,fr,2022-05-17_12h22.21.993,3-AFC_adaptive_staircase_mess,2022.1.1,None,
,,,,,6,0,6,0,15,0,15,0,,,,,,,,,,,,,,,,left,8000,2.5,0.00024208618379204972,1,3,1,2.5,879.9098027668117,880.1317392000929,879.8931361001451,880.2260006000288,880.8972595001105,881.2227533000987,881.888007099973,882.2107826999854,left,1,3.252198599977419,879.9227665001526,None,882.4457193000708,None,,,,,,,quvvsxs,001,0,fr,2022-05-17_12h22.21.993,3-AFC_adaptive_staircase_mess,2022.1.1,None,
,,,,,6,0,6,0,16,0,16,0,,,,,,,,,,,,,,,,right,8000,2.5,0.00024208618379204972,1,3,1,2.5,None,None,884.6802324000746,885.0016535001341,885.6664265000727,885.9911581000779,None,None,up,0,1.3394438000395894,884.7388393001165,None,None,None,,,,,,,quvvsxs,001,0,fr,2022-05-17_12h22.21.993,3-AFC_adaptive_staircase_mess,2022.1.1,None,
,,,,,6,0,6,0,17,0,17,0,,,,,,,,,,,,,,,,left,8000,5.0,0.00032282711451732784,1,3,1,2.5,887.6442373667999,None,887.5977384001017,887.9314111999702,888.5970590000506,888.9127346000168,889.581036100164,889.9050201000646,left,1,9.428048599977046,887.6592713000719,None,890.1342468999792,None,,,,,,,quvvsxs,001,0,fr,2022-05-17_12h22.21.993,3-AFC_adaptive_staircase_mess,2022.1.1,None,
,,,,,6,0,6,0,18,0,18,0,,,,,,,,,,,,,,,,up,8000,5.0,0.00032282711451732784,1,3,1,2.5,899.6309534668146,None,898.5808864000719,898.8849115001503,899.5872319000773,899.9158855001442,None,None,up,1,1.443705900106579,898.6353862001561,None,None,None,,,,,,,quvvsxs,001,0,fr,2022-05-17_12h22.21.993,3-AFC_adaptive_staircase_mess,2022.1.1,None,
,,,,,6,0,6,0,19,0,19,0,,,,,,,,,,,,,,,,left,8000,0.0,0.0001815390273850507,-1,4,-1,-5.0,901.6208558667606,None,901.5762074999511,901.910443900153,None,None,None,None,left,1,0.5899557999800891,901.6329717000481,None,None,None,,,,,,,quvvsxs,001,0,fr,2022-05-17_12h22.21.993,3-AFC_adaptive_staircase_mess,2022.1.1,None,
,,,,,6,0,6,0,20,0,20,0,,,,,,,,,,,,,,,,right,8000,0.0,0.0001815390273850507,-1,4,-1,-5.0,905.7505406668099,None,903.7114369999617,904.0301123999525,904.7229806000832,905.0457191001624,905.703971200157,906.0424160000402,right,1,2.343809299869463,903.759122800082,None,None,None,,,,,,,quvvsxs,001,0,fr,2022-05-17_12h22.21.993,3-AFC_adaptive_staircase_mess,2022.1.1,None,
,,,,,6,0,6,0,21,0,21,0,,,,,,,,,,,,,,,,up,8000,-5.0,0.00010208689723347648,-1,4,-1,-5.0,908.6709922666817,None,907.6161350000184,907.9366015000269,908.6258988999762,908.9547329000197,None,None,up,1,1.5339164000470191,907.6728690001182,None,None,None,,,,,,,quvvsxs,001,0,fr,2022-05-17_12h22.21.993,3-AFC_adaptive_staircase_mess,2022.1.1,None,
,,,,,6,0,6,0,22,0,22,0,,,,,,,,,,,,,,,,up,8000,-5.0,0.00010208689723347648,-1,4,-1,-5.0,911.7501829667638,None,910.6993683001492,911.0247031999752,911.7131664000917,912.0391161001753,None,None,up,1,1.4931937998626381,910.7702983000781,None,None,None,,,,,,,quvvsxs,001,0,fr,2022-05-17_12h22.21.993,3-AFC_adaptive_staircase_mess,2022.1.1,None,
,,,,,6,0,6,0,23,0,23,0,,,,,,,,,,,,,,,,right,8000,-10.0,5.740768107484415e-05,-1,4,-1,-5.0,915.7856036667401,None,913.7531892000698,914.1018692001235,914.7575756001752,915.0655353001785,915.7689370000735,916.0960828999523,right,1,5.33883889997378,913.8115761000663,None,916.2996003001463,None,,,,,,,quvvsxs,001,0,fr,2022-05-17_12h22.21.993,3-AFC_adaptive_staircase_mess,2022.1.1,None,
,,,,,6,0,6,0,24,0,24,0,,,,,,,,,,,,,,,,right,8000,-10.0,5.740768107484415e-05,-1,4,-1,-5.0,922.691125366666,None,920.6523430000525,920.9673842000775,921.6802167999558,921.9935511001386,922.6539980000816,922.973976300098,right,1,5.084819199983031,920.7136514000595,None,923.2096321999561,None,,,,,,,quvvsxs,001,0,fr,2022-05-17_12h22.21.993,3-AFC_adaptive_staircase_mess,2022.1.1,None,
,,,,,6,0,6,0,25,0,25,0,,,,,,,,,,,,,,,,left,8000,-15.0,3.228271145173278e-05,-1,4,-1,-5.0,927.3599480668238,None,927.3142321000341,927.635084599955,928.2976218000986,928.6136302000377,929.2987870001234,929.6182771001477,left,1,9.138465400086716,927.3715801001526,None,929.8762199000921,None,,,,,,,quvvsxs,001,0,fr,2022-05-17_12h22.21.993,3-AFC_adaptive_staircase_mess,2022.1.1,None,
,,,,,6,0,6,0,26,0,26,0,,,,,,,,,,,,,,,,up,8000,-15.0,3.228271145173278e-05,-1,4,-1,-5.0,939.0553988668291,None,938.0413097001147,938.3597570999991,939.0387322001625,939.3717918000184,940.0326871001162,940.3486033000518,right,0,4.121056499890983,938.070090400055,None,940.5742801001761,None,,,,,,,quvvsxs,001,0,fr,2022-05-17_12h22.21.993,3-AFC_adaptive_staircase_mess,2022.1.1,None,
,,,,,6,0,6,0,27,0,27,0,,,,,,,,,,,,,,,,left,8000,-12.5,4.304968760923004e-05,1,5,1,2.5,943.7543777668072,943.97693730006,943.6958316999953,944.0307414999697,944.710835600039,945.0316483001225,945.6898662000895,946.0089809000492,up,0,3.745078800013289,943.7658003000543,None,946.2365654001478,None,,,,,,,quvvsxs,001,0,fr,2022-05-17_12h22.21.993,3-AFC_adaptive_staircase_mess,2022.1.1,None,
,,,,,6,0,6,0,28,0,28,0,,,,,,,,,,,,,,,,left,8000,-10.0,5.740768107484415e-05,1,5,1,2.5,949.035009366755,None,949.0183427000884,949.3538433001377,950.0162472999655,950.3323353000451,951.0027556000277,951.3365071001463,right,0,12.559816799825057,949.0474497000687,None,951.5631284001283,None,,,,,,,quvvsxs,001,0,fr,2022-05-17_12h22.21.993,3-AFC_adaptive_staircase_mess,2022.1.1,None,
,,,,,6,0,6,0,29,0,29,0,,,,,,,,,,,,,,,,up,8000,-7.5,7.655437308410152e-05,1,5,1,2.5,964.1695390667921,None,963.1514272999484,963.4696221000049,964.1323172000702,964.4661864000373,965.134402200114,965.454415500164,right,0,10.8634932001587,963.182671800023,None,965.6922699999996,None,,,,,,,quvvsxs,001,0,fr,2022-05-17_12h22.21.993,3-AFC_adaptive_staircase_mess,2022.1.1,None,
,,,,,6,0,6,0,30,0,30,0,,,,,,,,,,,,,,,,left,8000,-5.0,0.00010208689723347648,1,5,1,2.5,975.6130923666681,None,975.5964257000014,975.914548000088,976.5992738001514,976.91872159997,977.5721996000502,977.8907782000024,up,0,4.238065799931064,975.6254319001455,None,978.1281419000588,None,,,,,,,quvvsxs,001,0,fr,2022-05-17_12h22.21.993,3-AFC_adaptive_staircase_mess,2022.1.1,None,
,,,,,6,0,6,0,31,0,31,0,,,,,,,,,,,,,,,,left,8000,-2.5,0.00013613506540389563,1,5,1,2.5,981.4196399667455,None,981.4029733000789,981.7209890000522,982.3701747001614,982.6999817001633,983.384242300177,983.7066005000379,right,0,11.768141299951822,981.4316400999669,None,983.9391557001509,None,,,,,,,quvvsxs,001,0,fr,2022-05-17_12h22.21.993,3-AFC_adaptive_staircase_mess,2022.1.1,None,
,,,,,6,0,6,0,32,0,32,0,,,,,,,,,,,,,,,,right,8000,0.0,0.0001815390273850507,1,5,1,2.5,996.7467021668019,None,994.708085300168,995.0143001000397,995.7032880999614,996.0211187000386,996.7300355001353,997.051362000173,right,1,2.6498503000475466,994.764501000056,None,997.2802250999957,None,,,,,,,quvvsxs,001,0,fr,2022-05-17_12h22.21.993,3-AFC_adaptive_staircase_mess,2022.1.1,None,
,,,,,6,0,6,0,33,0,33,0,,,,,,,,,,,,,,,,right,8000,0.0,0.0001815390273850507,1,5,1,2.5,1000.9847531666203,1001.2176338001154,998.9195507001132,999.2486086999997,999.9213294000365,1000.2499516000971,1000.9365991000086,1001.2754415001255,right,1,2.681142100133002,998.98957840004,None,1001.4769968001638,None,,,,,,,quvvsxs,001,0,fr,2022-05-17_12h22.21.993,3-AFC_adaptive_staircase_mess,2022.1.1,None,
,,,,,6,0,6,0,34,0,34,0,,,,,,,,,,,,,,,,left,8000,-5.0,0.00010208689723347648,-1,6,-1,-5.0,1003.2148610668412,None,1003.1709925001487,1003.4929196999874,1004.1729764000047,1004.4944331001025,1005.1743085000198,1005.4935294999741,right,0,9.563615499995649,1003.2264650999568,None,1005.7211824001279,None,,,,,,,quvvsxs,001,0,fr,2022-05-17_12h22.21.993,3-AFC_adaptive_staircase_mess,2022.1.1,None,
,,,,,7,0,7,0,0,0,0,0,,,,,,,,,,,,,[],[],10,left,750,30,0.0012851978913844323,0,0,-1,10,1023.5529460667788,None,1023.5017457001377,1023.8417066000402,None,None,None,None,left,1,0.6234030998311937,1023.5669978000224,None,None,None,left,9.133590700104833,1013.8889822999481,None,1013.8889822999481,None,quvvsxs,001,0,fr,2022-05-17_12h22.21.993,3-AFC_adaptive_staircase_mess,2022.1.1,None,
,,,,,7,0,7,0,1,0,1,0,,,,,,,,,,,,,,,,left,750,30,0.0012851978913844323,0,0,-1,10,1025.7532766666884,1025.9816513000987,1025.7061249001417,1026.0413731001318,None,None,None,None,left,1,0.4636482000350952,1025.7672325000167,None,None,None,,,,,,,quvvsxs,001,0,fr,2022-05-17_12h22.21.993,3-AFC_adaptive_staircase_mess,2022.1.1,None,
,,,,,7,0,7,0,2,0,2,0,,,,,,,,,,,,,,,,left,750,10,0.00012851978913844324,-1,0,-1,-10,1027.7866575667324,1028.0107100000605,1027.7354211001657,1028.0753047000617,None,None,None,None,left,1,0.3063942000735551,1027.8044362999499,None,None,None,,,,,,,quvvsxs,001,0,fr,2022-05-17_12h22.21.993,3-AFC_adaptive_staircase_mess,2022.1.1,None,
,,,,,7,0,7,0,3,0,3,0,,,,,,,,,,,,,,,,left,750,10,0.00012851978913844324,-1,0,-1,-10,1029.6940271666429,None,1029.642986800056,1029.9688623000402,1030.642784500029,None,None,None,left,1,0.923973900033161,1029.7072606000584,None,None,None,,,,,,,quvvsxs,001,0,fr,2022-05-17_12h22.21.993,3-AFC_adaptive_staircase_mess,2022.1.1,None,
,,,,,7,0,7,0,4,0,4,0,,,,,,,,,,,,,,,,left,750,0,4.064152580820497e-05,-1,0,-1,-10,1032.2018207666154,None,1032.1519250001293,1032.4908197000623,1033.1488461000845,1033.470736599993,1034.1458163000643,1034.480159400031,left,1,13.540184200042859,1032.2183652000967,None,1034.716885900125,None,,,,,,,quvvsxs,001,0,fr,2022-05-17_12h22.21.993,3-AFC_adaptive_staircase_mess,2022.1.1,None,
,,,,,7,0,7,0,5,0,5,0,,,,,,,,,,,,,,,,left,750,0,4.064152580820497e-05,-1,0,-1,-10,1047.306131966707,None,1047.2564981000032,1047.599222799996,1048.2596979001537,1048.5936114999931,1049.2631010999903,1049.5919097000733,up,0,2.8988648001104593,1047.3238858999684,None,1049.811788200168,None,,,,,,,quvvsxs,001,0,fr,2022-05-17_12h22.21.993,3-AFC_adaptive_staircase_mess,2022.1.1,None,
,,,,,7,0,7,0,6,0,6,0,,,,,,,,,,,,,,,,left,750,5,7.22719885372964e-05,1,1,1,5,1051.782752466683,1052.009320900077,1051.7322240001522,1052.0689350001048,None,None,None,None,left,1,0.6741412000264972,1051.7964405000675,None,None,None,,,,,,,quvvsxs,001,0,fr,2022-05-17_12h22.21.993,3-AFC_adaptive_staircase_mess,2022.1.1,None,
,,,,,7,0,7,0,7,0,7,0,,,,,,,,,,,,,,,,right,750,5,7.22719885372964e-05,1,1,1,5,1056.0515204666337,None,1053.9999039999675,1054.3288299001288,1055.0009165999945,1055.3357675999869,1056.0005265001673,1056.3384525000583,right,1,7.362587400013581,1054.0679101001006,None,1056.5730739999563,None,,,,,,,quvvsxs,001,0,fr,2022-05-17_12h22.21.993,3-AFC_adaptive_staircase_mess,2022.1.1,None,
,,,,,7,0,7,0,8,0,8,0,,,,,,,,,,,,,,,,right,750,-5,2.285440948074376e-05,-1,2,-1,-5.0,1064.997142266777,None,1062.9419476999901,1063.2762888001744,1063.9449161000084,1064.2752329001669,1064.945229700068,1065.2802544999868,right,1,3.3022990999743342,1063.010280400049,None,1065.5143439001404,None,,,,,,,quvvsxs,001,0,fr,2022-05-17_12h22.21.993,3-AFC_adaptive_staircase_mess,2022.1.1,None,
,,,,,7,0,7,0,9,0,9,0,,,,,,,,,,,,,,,,left,750,-5,2.285440948074376e-05,-1,2,-1,-5.0,1067.8666890666975,None,1067.8149320001248,1068.146816200111,1068.8143824001309,1069.1455554000568,1069.8175985000562,1070.1493464000523,right,0,9.101322300033644,1067.8810876000207,None,1070.3859250999521,None,,,,,,,quvvsxs,001,0,fr,2022-05-17_12h22.21.993,3-AFC_adaptive_staircase_mess,2022.1.1,None,
,,,,,7,0,7,0,10,0,10,0,,,,,,,,,,,,,,,,right,750,-2.5,3.0476844862008466e-05,1,3,1,2.5,None,None,1078.492781399982,1078.826159000164,None,None,None,None,right,1,0.4642413998953998,1078.5580243000295,None,None,None,,,,,,,quvvsxs,001,0,fr,2022-05-17_12h22.21.993,3-AFC_adaptive_staircase_mess,2022.1.1,None,
,,,,,7,0,7,0,11,0,11,0,,,,,,,,,,,,,,,,left,750,-2.5,3.0476844862008466e-05,1,3,1,2.5,1080.5788294666602,None,1080.5271634999663,None,None,None,None,None,up,0,-0.8456327000167221,1080.596717900131,None,None,None,,,,,,,quvvsxs,001,0,fr,2022-05-17_12h22.21.993,3-AFC_adaptive_staircase_mess,2022.1.1,None,
,,,,,7,0,7,0,12,0,12,0,,,,,,,,,,,,,,,,left,750,0.0,4.064152580820497e-05,1,3,1,2.5,1082.1804981667703,1082.4087686000858,1082.1290119001642,1082.4713269001804,1083.1327422000468,1083.4661201999988,1084.1328364000656,1084.4667414999567,left,1,11.76830259989947,1082.1981294001453,None,1084.7019315999933,None,,,,,,,quvvsxs,001,0,fr,2022-05-17_12h22.21.993,3-AFC_adaptive_staircase_mess,2022.1.1,None,
,,,,,7,0,7,0,13,0,13,0,,,,,,,,,,,,,,,,right,750,0.0,4.064152580820497e-05,1,3,1,2.5,None,None,1095.4484045000281,1095.7702911000233,None,None,None,None,left,0,0.526979599846527,1095.5036476999521,None,None,None,,,,,,,quvvsxs,001,0,fr,2022-05-17_12h22.21.993,3-AFC_adaptive_staircase_mess,2022.1.1,None,
,,,,,7,0,7,0,14,0,14,0,,,,,,,,,,,,,,,,left,750,2.5,5.419634570106019e-05,1,3,1,2.5,1097.5592950666944,None,1097.5144615999889,1097.8420172999613,1098.5347456000745,1098.8550105001777,1099.511395700043,1099.8378725000657,right,0,2.9547739000990987,1097.5724671999924,None,1100.072616700083,None,,,,,,,quvvsxs,001,0,fr,2022-05-17_12h22.21.993,3-AFC_adaptive_staircase_mess,2022.1.1,None,
,,,,,7,0,7,0,15,0,15,0,,,,,,,,,,,,,,,,up,750,5.0,7.22719885372964e-05,1,3,1,2.5,1103.088830066674,1103.317723599961,1102.038380100159,1102.3587893000804,1103.041849100031,1103.3797536001075,None,None,up,1,1.6790048000402749,1102.0959207001142,None,None,None,,,,,,,quvvsxs,001,0,fr,2022-05-17_12h22.21.993,3-AFC_adaptive_staircase_mess,2022.1.1,None,
,,,,,7,0,7,0,16,0,16,0,,,,,,,,,,,,,,,,left,750,5.0,7.22719885372964e-05,1,3,1,2.5,1105.323280266781,None,1105.277260400122,1105.6137493001297,None,None,None,None,up,0,0.6002380999270827,1105.33403300005,None,None,None,,,,,,,quvvsxs,001,0,fr,2022-05-17_12h22.21.993,3-AFC_adaptive_staircase_mess,2022.1.1,None,
,,,,,7,0,7,0,17,0,17,0,,,,,,,,,,,,,,,,left,750,7.5,9.637624565954684e-05,1,3,1,2.5,1107.4905302667214,None,1107.4435374999885,None,None,None,None,None,left,1,-1.3225319001358002,1107.5046890999656,None,None,None,,,,,,,quvvsxs,001,0,fr,2022-05-17_12h22.21.993,3-AFC_adaptive_staircase_mess,2022.1.1,None,
,,,,,7,0,7,0,18,0,18,0,,,,,,,,,,,,,,,,left,750,7.5,9.637624565954684e-05,1,3,1,2.5,1109.0653065667177,None,1109.0200508001726,1109.353393400088,1110.0155114999507,1110.338034400018,1111.0319744001608,1111.3502474999987,up,0,13.192431699950248,1109.0782769999932,None,1111.5829003001563,None,,,,,,,quvvsxs,001,0,fr,2022-05-17_12h22.21.993,3-AFC_adaptive_staircase_mess,2022.1.1,None,
,,,,,7,0,7,0,19,0,19,0,,,,,,,,,,,,,,,,right,750,10.0,0.00012851978913844324,1,3,1,2.5,1125.8293294667421,None,1123.7787193001714,1124.1138899000362,1124.7949232000392,1125.1153079001233,1125.7801948001143,1126.122301600175,right,1,2.3944119999650866,1123.8446704000235,None,None,None,,,,,,,quvvsxs,001,0,fr,2022-05-17_12h22.21.993,3-AFC_adaptive_staircase_mess,2022.1.1,None,
,,,,,7,0,7,0,20,0,20,0,,,,,,,,,,,,,,,,right,750,10.0,0.00012851978913844324,1,3,1,2.5,1129.8257089667643,None,1127.7651454999577,1128.1124001999851,1128.769987200154,1129.1080322000198,1129.7801078001503,1130.1064929000568,right,1,2.3882473001722246,1127.8266996999737,None,None,None,,,,,,,quvvsxs,001,0,fr,2022-05-17_12h22.21.993,3-AFC_adaptive_staircase_mess,2022.1.1,None,
,,,,,7,0,7,0,21,0,21,0,,,,,,,,,,,,,,,,right,750,5.0,7.22719885372964e-05,-1,4,-1,-5.0,1133.7638521667725,None,1131.7143884000834,1132.0452032999601,1132.716931700008,1133.0438248000573,1133.7123388000764,1134.0525217000395,right,1,2.5218931001145393,1131.7811249999795,None,1134.2966420000885,None,,,,,,,quvvsxs,001,0,fr,2022-05-17_12h22.21.993,3-AFC_adaptive_staircase_mess,2022.1.1,None,
,,,,,7,0,7,0,22,0,22,0,,,,,,,,,,,,,,,,up,750,5.0,7.22719885372964e-05,-1,4,-1,-5.0,1136.8956628668277,None,1135.8467387000564,1136.1774888001382,1136.8464727001265,1137.1855385000817,None,None,up,1,1.509827199857682,1135.9127434000839,None,None,None,,,,,,,quvvsxs,001,0,fr,2022-05-17_12h22.21.993,3-AFC_adaptive_staircase_mess,2022.1.1,None,
,,,,,7,0,7,0,23,0,23,0,,,,,,,,,,,,,,,,right,750,0.0,4.064152580820497e-05,-1,4,-1,-5.0,1140.9877627667195,None,1138.9564847000875,1139.2821482000872,1139.9474582001567,1140.2734783999622,1140.9400560001377,1141.2779582999647,left,0,2.6952202001120895,1138.9836564001162,None,1141.5218136000913,None,,,,,,,quvvsxs,001,0,fr,2022-05-17_12h22.21.993,3-AFC_adaptive_staircase_mess,2022.1.1,None,
,,,,,7,0,7,0,24,0,24,0,,,,,,,,,,,,,,,,right,750,2.5,5.419634570106019e-05,1,5,1,2.5,None,None,1143.2154673000332,1143.5372142000124,1144.217518800171,1144.5490778000094,None,None,up,0,1.8876360999420285,1143.2471166001633,None,None,None,,,,,,,quvvsxs,001,0,fr,2022-05-17_12h22.21.993,3-AFC_adaptive_staircase_mess,2022.1.1,None,
,,,,,7,0,7,0,25,0,25,0,,,,,,,,,,,,,,,,left,750,5.0,7.22719885372964e-05,1,5,1,2.5,1146.675326666624,None,1146.6295797999483,1146.957969200099,1147.625768700149,1147.9539130001795,1148.6326361000538,1148.9632592999842,right,0,2.381137300049886,1146.6889276001602,None,None,None,,,,,,,quvvsxs,001,0,fr,2022-05-17_12h22.21.993,3-AFC_adaptive_staircase_mess,2022.1.1,None,
,,,,,7,0,7,0,26,0,26,0,,,,,,,,,,,,,,,,left,750,7.5,9.637624565954684e-05,1,5,1,2.5,1150.6363341666913,None,1150.587961600162,1150.9307975000702,1151.5885964001063,1151.9125707000494,1152.5881803000811,1152.9080982001033,up,0,7.428159900009632,1150.6505873999558,None,1153.1509265000932,None,,,,,,,quvvsxs,001,0,fr,2022-05-17_12h22.21.993,3-AFC_adaptive_staircase_mess,2022.1.1,None,
,,,,,7,0,7,0,27,0,27,0,,,,,,,,,,,,,,,,right,750,10.0,0.00012851978913844324,1,5,1,2.5,1161.6300778666666,None,1159.5869699001778,1159.9053698000498,1160.5941121000797,1160.914511000039,1161.5867193001322,1161.913106400054,right,1,2.4980752000119537,1159.6447718001436,None,1162.1532479999587,None,,,,,,,quvvsxs,001,0,fr,2022-05-17_12h22.21.993,3-AFC_adaptive_staircase_mess,2022.1.1,None,
,,,,,7,0,7,0,28,0,28,0,,,,,,,,,,,,,,,,up,750,10.0,0.00012851978913844324,1,5,1,2.5,1164.6663242667603,None,1163.651044000173,1163.9720008000731,1164.6496576000936,1164.9785700000357,1165.6419792999513,None,up,1,1.9840480999555439,1163.6786828001495,None,None,None,,,,,,,quvvsxs,001,0,fr,2022-05-17_12h22.21.993,3-AFC_adaptive_staircase_mess,2022.1.1,None,
,,,,,7,0,7,0,29,0,29,0,,,,,,,,,,,,,,,,left,750,5.0,7.22719885372964e-05,-1,6,-1,-5.0,1167.2073573666314,None,1167.160902600037,1167.4877721001394,None,None,None,None,left,1,0.6446976000443101,1167.2198753999546,None,None,None,,,,,,,quvvsxs,001,0,fr,2022-05-17_12h22.21.993,3-AFC_adaptive_staircase_mess,2022.1.1,None,
,,,,,8,0,8,0,0,0,0,0,,,,,,,,,,,,,[],[],10,left,500,30,0.002259279721874612,0,0,-1,10,1171.1887596666968,None,1171.1437182000373,1171.478586500045,None,None,None,None,left,1,0.5222690999507904,1171.2046781000681,None,None,None,space,1.7151784000452608,1168.9394515999593,None,1168.9394515999593,None,quvvsxs,001,0,fr,2022-05-17_12h22.21.993,3-AFC_adaptive_staircase_mess,2022.1.1,None,
,,,,,8,0,8,0,1,0,1,0,,,,,,,,,,,,,,,,up,500,30,0.002259279721874612,0,0,-1,10,1174.256565766704,1174.4698268000502,1173.2249398999847,1173.5481793000363,1174.2398991000373,1174.5541171999648,None,None,up,1,1.243057400221005,1173.2828530999832,None,None,None,,,,,,,quvvsxs,001,0,fr,2022-05-17_12h22.21.993,3-AFC_adaptive_staircase_mess,2022.1.1,None,
,,,,,8,0,8,0,2,0,2,0,,,,,,,,,,,,,,,,right,500,10,0.0002259279721874612,-1,0,-1,-10,1178.1067188666823,None,1176.0490809001494,1176.3712774000596,1177.079918100033,1177.3949377001263,1178.0594336001668,1178.388585000066,right,1,2.295204799855128,1176.0948228000198,None,None,None,,,,,,,quvvsxs,001,0,fr,2022-05-17_12h22.21.993,3-AFC_adaptive_staircase_mess,2022.1.1,None,
,,,,,8,0,8,0,3,0,3,0,,,,,,,,,,,,,,,,right,500,10,0.0002259279721874612,-1,0,-1,-10,1181.9756807666893,None,1179.9265140001662,1180.2538089000154,1180.916727000149,1181.2359128999524,1181.9306761999615,1182.2600918000098,left,0,6.636102800024673,1179.9866732000373,None,1182.4650681000203,None,,,,,,,quvvsxs,001,0,fr,2022-05-17_12h22.21.993,3-AFC_adaptive_staircase_mess,2022.1.1,None,
,,,,,8,0,8,0,4,0,4,0,,,,,,,,,,,,,,,,right,500,15,0.0004017630610928086,1,1,1,5,1190.1758954667641,None,1188.1212498999666,1188.4422246001195,1189.130805300083,1189.4539185999893,1190.1307230000384,1190.4666333999485,right,1,2.517338400008157,1188.1780988001265,None,1190.6918742000125,None,,,,,,,quvvsxs,001,0,fr,2022-05-17_12h22.21.993,3-AFC_adaptive_staircase_mess,2022.1.1,None,
,,,,,8,0,8,0,5,0,5,0,,,,,,,,,,,,,,,,right,500,15,0.0004017630610928086,1,1,1,5,1194.2373893666702,None,1192.20603640005,1192.5293654000852,1193.2257447000593,1193.5542751001194,1194.2207227000035,1194.5435226000845,right,1,2.570965699851513,1192.2671966000926,None,1194.7451112000272,None,,,,,,,quvvsxs,001,0,fr,2022-05-17_12h22.21.993,3-AFC_adaptive_staircase_mess,2022.1.1,None,
,,,,,8,0,8,0,6,0,6,0,,,,,,,,,,,,,,,,up,500,5,0.00012704863527746526,-1,2,-1,-5.0,1197.3817099666378,None,1196.3298961000983,1196.6517815999687,1197.3378527001478,1197.6659479001537,1198.353889200138,1198.6738824001513,left,0,14.723294100025669,1196.3871661999729,None,1198.874975200044,None,,,,,,,quvvsxs,001,0,fr,2022-05-17_12h22.21.993,3-AFC_adaptive_staircase_mess,2022.1.1,None,
,,,,,8,0,8,0,7,0,7,0,,,,,,,,,,,,,,,,up,500,7.5,0.00016942207806960129,1,3,1,2.5,1213.651788466672,None,1212.6006108999718,1212.9463738000486,1213.6141637000255,1213.9271274001803,1214.6123095001094,1214.9350348999724,left,0,13.49158320017159,1212.6758026001044,None,1215.159817900043,None,,,,,,,quvvsxs,001,0,fr,2022-05-17_12h22.21.993,3-AFC_adaptive_staircase_mess,2022.1.1,None,
,,,,,8,0,8,0,8,0,8,0,,,,,,,,,,,,,,,,up,500,10.0,0.0002259279721874612,1,3,1,2.5,1228.730363466839,1228.948446800001,1227.6796928001568,1227.996271100128,1228.68244780018,1229.001963000046,1229.6861591001507,1230.0023274000268,left,0,11.021671700058505,1227.7372871001717,None,1230.230274700094,None,,,,,,,quvvsxs,001,0,fr,2022-05-17_12h22.21.993,3-AFC_adaptive_staircase_mess,2022.1.1,None,
,,,,,8,0,8,0,9,0,9,0,,,,,,,,,,,,,,,,left,500,12.5,0.0003012797930371789,1,3,1,2.5,1240.296153066742,1240.5208048000932,1240.2511464001145,1240.5789881001692,1241.2689732001163,1241.5795118999667,1242.2679910999723,1242.5879278001375,left,1,22.18769080005586,1240.306814600015,None,1242.8129155000206,None,,,,,,,quvvsxs,001,0,fr,2022-05-17_12h22.21.993,3-AFC_adaptive_staircase_mess,2022.1.1,None,
,,,,,8,0,8,0,10,0,10,0,,,,,,,,,,,,,,,,left,500,12.5,0.0003012797930371789,1,3,1,2.5,1264.0187562667454,None,1263.975263300119,1264.3004756001756,1264.9839066001587,None,None,None,up,0,0.9915907001122832,1264.0309586999938,None,None,None,,,,,,,quvvsxs,001,0,fr,2022-05-17_12h22.21.993,3-AFC_adaptive_staircase_mess,2022.1.1,None,
,,,,,8,0,8,0,11,0,11,0,,,,,,,,,,,,,,,,up,500,15.0,0.0004017630610928086,1,3,1,2.5,1267.5776444667174,None,1266.5577148001175,1266.8735079001635,1267.5609778000508,1267.8794120999519,None,None,right,0,1.3878263998776674,1266.5863966001198,None,None,None,,,,,,,quvvsxs,001,0,fr,2022-05-17_12h22.21.993,3-AFC_adaptive_staircase_mess,2022.1.1,None,
,,,,,8,0,8,0,12,0,12,0,,,,,,,,,,,,,,,,up,500,17.5,0.0005357596526188033,1,3,1,2.5,1270.5324782666905,None,1269.48670330015,1269.7903422000818,1270.4902747001033,1270.812743500108,None,None,up,1,1.3987917001359165,1269.5434797001071,None,None,None,,,,,,,quvvsxs,001,0,fr,2022-05-17_12h22.21.993,3-AFC_adaptive_staircase_mess,2022.1.1,None,
,,,,,8,0,8,0,13,0,13,0,,,,,,,,,,,,,,,,up,500,17.5,0.0005357596526188033,1,3,1,2.5,1273.50244256674,None,1272.4657424001489,1272.777052700054,1273.4601241999771,1273.7817608001642,None,None,up,1,1.4576175000984222,1272.4933052000124,None,None,None,,,,,,,quvvsxs,001,0,fr,2022-05-17_12h22.21.993,3-AFC_adaptive_staircase_mess,2022.1.1,None,
,,,,,8,0,8,0,14,0,14,0,,,,,,,,,,,,,,,,up,500,12.5,0.0003012797930371789,-1,4,-1,-5.0,1276.4867685668326,None,1275.4691302999854,1275.7867948000785,1276.470101900166,1276.7888152999803,None,None,up,1,1.4856324000284076,1275.4967410999816,None,None,None,,,,,,,quvvsxs,001,0,fr,2022-05-17_12h22.21.993,3-AFC_adaptive_staircase_mess,2022.1.1,None,
,,,,,8,0,8,0,15,0,15,0,,,,,,,,,,,,,,,,right,500,12.5,0.0003012797930371789,-1,4,-1,-5.0,1280.519595066846,None,1278.4796405001543,1278.7987580001354,1279.4800029001199,1279.7990419999696,1280.475096900016,1280.8016705999617,right,1,2.378154000034556,1278.5405639000237,None,None,None,,,,,,,quvvsxs,001,0,fr,2022-05-17_12h22.21.993,3-AFC_adaptive_staircase_mess,2022.1.1,None,
,,,,,8,0,8,0,16,0,16,0,,,,,,,,,,,,,,,,left,500,7.5,0.00016942207806960129,-1,4,-1,-5.0,1282.4698626667416,None,1282.453196000075,1282.787635100074,None,None,None,None,left,1,0.4911759998649359,1282.4832631000318,None,None,None,,,,,,,quvvsxs,001,0,fr,2022-05-17_12h22.21.993,3-AFC_adaptive_staircase_mess,2022.1.1,None,
,,,,,8,0,8,0,17,0,17,0,,,,,,,,,,,,,,,,right,500,7.5,0.00016942207806960129,-1,4,-1,-5.0,1286.5228798667124,None,1284.4843095000833,1284.7978513999842,1285.479849900119,1285.8022861999925,1286.474979300052,1286.7950318001676,right,1,2.375074200099334,1284.5119455000386,None,None,None,,,,,,,quvvsxs,001,0,fr,2022-05-17_12h22.21.993,3-AFC_adaptive_staircase_mess,2022.1.1,None,
,,,,,8,0,8,0,18,0,18,0,,,,,,,,,,,,,,,,left,500,2.5,9.527303589816237e-05,-1,4,-1,-5.0,1288.4323805666684,None,1288.4157139000017,1288.728606000077,1289.410944600124,1289.7259558001533,1290.4123356000055,1290.7236383000854,left,1,6.369906299980357,1288.4446791999508,None,1290.9795452000108,None,,,,,,,quvvsxs,001,0,fr,2022-05-17_12h22.21.993,3-AFC_adaptive_staircase_mess,2022.1.1,None,
,,,,,8,0,8,0,19,0,19,0,,,,,,,,,,,,,,,,left,500,2.5,9.527303589816237e-05,-1,4,-1,-5.0,1296.3524330666444,1296.5797539001796,1296.3087210999802,1296.6390658000018,1297.319815200055,1297.6351775000803,1298.3163948999718,1298.6335585999768,right,0,2.9054769000504166,1296.3645244000945,None,1298.8914322000928,None,,,,,,,quvvsxs,001,0,fr,2022-05-17_12h22.21.993,3-AFC_adaptive_staircase_mess,2022.1.1,None,
,,,,,8,0,8,0,20,0,20,0,,,,,,,,,,,,,,,,left,500,5.0,0.00012704863527746526,1,5,1,2.5,1300.8062976666881,None,1300.7615665001795,1301.0833630000707,1301.7582868000027,1302.0732715001795,1302.7590938999783,None,up,0,2.1963357001077384,1300.8184195000213,None,None,None,,,,,,,quvvsxs,001,0,fr,2022-05-17_12h22.21.993,3-AFC_adaptive_staircase_mess,2022.1.1,None,
,,,,,8,0,8,0,21,0,21,0,,,,,,,,,,,,,,,,left,500,7.5,0.00016942207806960129,1,5,1,2.5,1304.5831156667011,None,1304.5252992000896,1304.833785300143,None,None,None,None,left,1,0.44316070014610887,1304.5951776001602,None,None,None,,,,,,,quvvsxs,001,0,fr,2022-05-17_12h22.21.993,3-AFC_adaptive_staircase_mess,2022.1.1,None,
,,,,,8,0,8,0,22,0,22,0,,,,,,,,,,,,,,,,left,500,7.5,0.00016942207806960129,1,5,1,2.5,1306.6020473666179,1306.8296521999873,1306.5557055000681,1306.8829202000052,None,None,None,None,left,1,0.409618399804458,1306.6131313000806,None,None,None,,,,,,,quvvsxs,001,0,fr,2022-05-17_12h22.21.993,3-AFC_adaptive_staircase_mess,2022.1.1,None,
,,,,,8,0,8,0,23,0,23,0,,,,,,,,,,,,,,,,right,500,2.5,9.527303589816237e-05,-1,6,-1,-5.0,1310.5699495666815,None,1308.5254632001743,1308.8442731001414,1309.5310366000049,1309.8434010001365,1310.5242475999985,1310.8507380001247,right,1,2.4237770999316126,1308.5822879001498,None,None,None,,,,,,,quvvsxs,001,0,fr,2022-05-17_12h22.21.993,3-AFC_adaptive_staircase_mess,2022.1.1,None,
,,,,,9,0,9,0,0,0,0,0,,,,,,,,,,,,,[],[],10,up,250,30,0.005296268625886445,0,0,-1,10,1317.7361513667895,None,1316.719126699958,1317.0390558000654,1317.7194847001228,1318.054721900029,None,None,up,1,1.5295273000374436,1316.749035099987,None,None,None,space,4.153194400016218,1312.076905600028,None,1312.076905600028,None,quvvsxs,001,0,fr,2022-05-17_12h22.21.993,3-AFC_adaptive_staircase_mess,2022.1.1,None,
,,,,,9,0,9,0,1,0,1,0,,,,,,,,,,,,,,,,left,250,30,0.005296268625886445,0,0,-1,10,1319.8263777667346,None,1319.809711100068,1320.130728200078,None,None,None,None,left,1,0.4163420000113547,1319.8386500000488,None,None,None,,,,,,,quvvsxs,001,0,fr,2022-05-17_12h22.21.993,3-AFC_adaptive_staircase_mess,2022.1.1,None,
,,,,,9,0,9,0,2,0,2,0,,,,,,,,,,,,,,,,up,250,10,0.0005296268625886444,-1,0,-1,-10,1322.8132412667076,1323.0382102001458,1321.7720683000516,1322.0875653000548,1322.7690640999936,1323.0969108999707,None,None,up,1,1.4267989001236856,1321.8277763000224,None,None,None,,,,,,,quvvsxs,001,0,fr,2022-05-17_12h22.21.993,3-AFC_adaptive_staircase_mess,2022.1.1,None,
,,,,,9,0,9,0,3,0,3,0,,,,,,,,,,,,,,,,right,250,10,0.0005296268625886444,-1,0,-1,-10,1326.8196204666203,None,1324.765161700081,1325.0830932001118,1325.7663414999843,1326.0851392999757,1326.7743453001603,1327.099787299987,right,1,2.5623439999762923,1324.8123017000034,None,1327.3237277001608,None,,,,,,,quvvsxs,001,0,fr,2022-05-17_12h22.21.993,3-AFC_adaptive_staircase_mess,2022.1.1,None,
,,,,,9,0,9,0,4,0,4,0,,,,,,,,,,,,,,,,up,250,0,0.0001674827195789138,-1,0,-1,-10,1329.9208436667143,1330.1424883001018,1328.8818855001591,1329.1972376001067,1329.9041770000476,1330.233902500011,1330.8928797000553,1331.208254000172,left,0,3.3724461002275348,1328.938155000098,None,1331.4354132001754,None,,,,,,,quvvsxs,001,0,fr,2022-05-17_12h22.21.993,3-AFC_adaptive_staircase_mess,2022.1.1,None,
,,,,,9,0,9,0,5,0,5,0,,,,,,,,,,,,,,,,up,250,5,0.0002978310717645052,1,1,1,5,1334.880791766631,1335.104391100118,1333.8207197999582,1334.1487992000766,1334.8227619000245,1335.159014099976,1335.8393233001698,1336.1606414001435,right,0,16.012641299981624,1333.8898165000137,None,1336.3863588001113,None,,,,,,,quvvsxs,001,0,fr,2022-05-17_12h22.21.993,3-AFC_adaptive_staircase_mess,2022.1.1,None,
,,,,,9,0,9,0,6,0,6,0,,,,,,,,,,,,,,,,left,250,10,0.0005296268625886444,1,1,1,5,1351.4465538666739,None,1351.40345350001,1351.7271619001403,1352.412492700154,1352.728587700054,1353.4020183000248,1353.7256247999612,left,1,2.556056800065562,1351.4582875000779,None,1353.9574919999577,None,,,,,,,quvvsxs,001,0,fr,2022-05-17_12h22.21.993,3-AFC_adaptive_staircase_mess,2022.1.1,None,
,,,,,9,0,9,0,7,0,7,0,,,,,,,,,,,,,,,,up,250,10,0.0005296268625886444,1,1,1,5,1356.5428793668436,None,1355.4973059000913,1355.8141719000414,1356.4954355000518,1356.8333487999626,None,None,up,1,1.498596099903807,1355.5552544000093,None,None,None,,,,,,,quvvsxs,001,0,fr,2022-05-17_12h22.21.993,3-AFC_adaptive_staircase_mess,2022.1.1,None,
,,,,,9,0,9,0,8,0,8,0,,,,,,,,,,,,,,,,right,250,0,0.0001674827195789138,-1,2,-1,-5.0,1360.5969872666212,1360.8201608001254,1358.5657172000501,1358.8943980999757,1359.552117299987,1359.866193199996,1360.5528400000185,1360.874551099958,right,1,2.8406839000526816,1358.5970040999819,None,1361.1025730001274,None,,,,,,,quvvsxs,001,0,fr,2022-05-17_12h22.21.993,3-AFC_adaptive_staircase_mess,2022.1.1,None,
,,,,,9,0,9,0,9,0,9,0,,,,,,,,,,,,,,,,up,250,0,0.0001674827195789138,-1,2,-1,-5.0,1363.9899207666206,1364.21062300005,1362.9430593999568,1363.2629321999848,1363.9454502000008,1364.271285600029,1364.9606336001307,1365.2775193999987,up,1,2.847386799985543,1362.9994763000868,None,1365.5060303001665,None,,,,,,,quvvsxs,001,0,fr,2022-05-17_12h22.21.993,3-AFC_adaptive_staircase_mess,2022.1.1,None,
,,,,,9,0,9,0,10,0,10,0,,,,,,,,,,,,,,,,left,250,-5.0,9.418245447449e-05,-1,2,-1,-5.0,1367.398984666743,1367.6271289000288,1367.3528849000577,1367.680195900146,1368.3644608999602,1368.6803160000127,1369.3666832000017,1369.6815665999893,right,0,2.6770254999864846,1367.4099912999664,None,1369.9115174000617,None,,,,,,,quvvsxs,001,0,fr,2022-05-17_12h22.21.993,3-AFC_adaptive_staircase_mess,2022.1.1,None,
,,,,,9,0,9,0,11,0,11,0,,,,,,,,,,,,,,,,up,250,-2.5,0.00012559432157547898,1,3,1,2.5,1372.639964166625,None,1371.593319500098,1371.9090293999761,1372.5939549000468,1372.9208668000065,1373.6114628999494,1373.9326914001722,right,0,2.772956999950111,1371.6495610000566,None,1374.1622204000596,None,,,,,,,quvvsxs,001,0,fr,2022-05-17_12h22.21.993,3-AFC_adaptive_staircase_mess,2022.1.1,None,
,,,,,9,0,9,0,12,0,12,0,,,,,,,,,,,,,,,,up,250,0.0,0.0001674827195789138,1,3,1,2.5,1376.98008136667,None,1375.9285864999983,1376.2479630999733,1376.936376000056,1377.2577168000862,1377.9406695000362,1378.2565487001557,right,0,3.0761426999233663,1375.986283400096,None,1378.4853332000785,None,,,,,,,quvvsxs,001,0,fr,2022-05-17_12h22.21.993,3-AFC_adaptive_staircase_mess,2022.1.1,None,
,,,,,9,0,9,0,13,0,13,0,,,,,,,,,,,,,,,,left,250,2.5,0.0002233417960754815,1,3,1,2.5,1380.633084466743,None,1380.5850270001683,1380.923306700075,1381.5791413001716,1381.8992030001245,1382.583651300054,1382.900563400006,left,1,2.7121913000009954,1380.6459655000363,None,1383.1291994999629,None,,,,,,,quvvsxs,001,0,fr,2022-05-17_12h22.21.993,3-AFC_adaptive_staircase_mess,2022.1.1,None,
,,,,,9,0,9,0,14,0,14,0,,,,,,,,,,,,,,,,right,250,2.5,0.0002233417960754815,1,3,1,2.5,1386.8877079666747,None,1384.855058599962,1385.1745281000622,1385.8678771001287,1386.1894162001554,1386.8428899000864,1387.1676660000812,up,0,2.734102200018242,1384.9117863001302,None,1387.4052343999501,None,,,,,,,quvvsxs,001,0,fr,2022-05-17_12h22.21.993,3-AFC_adaptive_staircase_mess,2022.1.1,None,
,,,,,9,0,9,0,15,0,15,0,,,,,,,,,,,,,,,,left,250,5.0,0.0002978310717645052,1,3,1,2.5,1389.1911962666238,None,1389.1745295999572,1389.4997024000622,1390.158280499978,1390.4789207000285,1391.1622174000368,1391.4907345999964,left,1,5.314329500077292,1389.203592200065,None,1391.7194249001332,None,,,,,,,quvvsxs,001,0,fr,2022-05-17_12h22.21.993,3-AFC_adaptive_staircase_mess,2022.1.1,None,
,,,,,9,0,9,0,16,0,16,0,,,,,,,,,,,,,,,,right,250,5.0,0.0002978310717645052,1,3,1,2.5,1398.0879101667708,None,1396.048322699964,1396.375712200068,1397.0342031000182,1397.3573106001131,1398.0423230000306,1398.3753376000095,up,0,3.2096168999560177,1396.0777654000558,None,1398.5754234001506,None,,,,,,,quvvsxs,001,0,fr,2022-05-17_12h22.21.993,3-AFC_adaptive_staircase_mess,2022.1.1,None,
,,,,,9,0,9,0,17,0,17,0,,,,,,,,,,,,,,,,left,250,7.5,0.0003971641173621407,1,3,1,2.5,1400.8495400667346,None,1400.8037716001272,1401.1455572999548,1401.8126272000372,1402.1342494001146,1402.7970480001532,1403.115479500033,left,1,3.600661400007084,1400.8614523001015,None,1403.3492720001377,None,,,,,,,quvvsxs,001,0,fr,2022-05-17_12h22.21.993,3-AFC_adaptive_staircase_mess,2022.1.1,None,
,,,,,9,0,9,0,18,0,18,0,,,,,,,,,,,,,,,,left,250,7.5,0.0003971641173621407,1,3,1,2.5,1406.0035635666611,None,1405.958423800068,1406.2882403000258,None,None,None,None,left,1,0.7027613001409918,1406.015247900039,None,None,None,,,,,,,quvvsxs,001,0,fr,2022-05-17_12h22.21.993,3-AFC_adaptive_staircase_mess,2022.1.1,None,
,,,,,9,0,9,0,19,0,19,0,,,,,,,,,,,,,,,,left,250,2.5,0.0002233417960754815,-1,4,-1,-5.0,1408.2702809668301,None,1408.2257356999908,1408.553731000051,1409.2423706001136,1409.5660689000506,1410.222138900077,1410.5462852001656,up,0,2.9396822000853717,1408.2819521999918,None,1410.7746934001334,None,,,,,,,quvvsxs,001,0,fr,2022-05-17_12h22.21.993,3-AFC_adaptive_staircase_mess,2022.1.1,None,
,,,,,9,0,9,0,20,0,20,0,,,,,,,,,,,,,,,,right,250,5.0,0.0002978310717645052,1,5,1,2.5,1414.766933966723,1414.992679500021,1412.7185432000551,1413.0399993001483,1413.72499040002,1414.0558754999656,1414.7178601999767,1415.056699299952,left,0,5.400726099964231,1412.7814030000009,None,1415.261968899984,None,,,,,,,quvvsxs,001,0,fr,2022-05-17_12h22.21.993,3-AFC_adaptive_staircase_mess,2022.1.1,None,
,,,,,9,0,9,0,21,0,21,0,,,,,,,,,,,,,,,,left,250,7.5,0.0003971641173621407,1,5,1,2.5,1419.7419843667342,None,1419.6936474000104,1420.0263221000787,1420.6996429001447,1421.0257439000998,1421.6872948000673,1422.0041851999704,left,1,14.409677400020882,1419.7565940001514,None,1422.242625700077,None,,,,,,,quvvsxs,001,0,fr,2022-05-17_12h22.21.993,3-AFC_adaptive_staircase_mess,2022.1.1,None,
,,,,,9,0,9,0,22,0,22,0,,,,,,,,,,,,,,,,right,250,7.5,0.0003971641173621407,1,5,1,2.5,1437.7263476667615,None,1435.6669572000392,1435.9989170001354,1436.6734396000393,1437.0028741999995,1437.6783825000748,1438.0117753001396,right,1,2.85867159999907,1435.7237044000067,None,1438.244838300161,None,,,,,,,quvvsxs,001,0,fr,2022-05-17_12h22.21.993,3-AFC_adaptive_staircase_mess,2022.1.1,None,
,,,,,9,0,9,0,23,0,23,0,,,,,,,,,,,,,,,,left,250,2.5,0.0002233417960754815,-1,6,-1,-5.0,1440.1349908668237,None,1440.0908212000504,1440.4194614000153,1441.1120866001584,1441.4426544001326,1442.1143525000662,1442.4418250001036,up,0,2.6881704998668283,1440.1497365001123,None,1442.6409012000076,None,,,,,,,quvvsxs,001,0,fr,2022-05-17_12h22.21.993,3-AFC_adaptive_staircase_mess,2022.1.1,None,
,,,,,10,0,10,0,0,0,0,0,,,,,,,,,,,,,[],[],10,left,125,30,0.02285440948074376,0,0,1,10,1448.716291866793,None,1448.6996252001263,1449.0320119999815,1449.681638600072,1450.0110282001551,1450.6882567000575,1451.0139169001486,right,0,2.8796685999259353,1448.72689489997,None,1451.248441700125,None,space,4.274530899943784,1443.9310498000123,None,1443.9310498000123,None,quvvsxs,001,0,fr,2022-05-17_12h22.21.993,3-AFC_adaptive_staircase_mess,2022.1.1,None,
,,,,,10,0,10,0,1,0,1,0,,,,,,,,,,,,,,,,up,125,40,0.07227198853729641,1,0,1,10,1454.1578053667365,None,1453.1439543999732,1453.493292500032,1454.1411387000699,1454.4763356000185,None,None,up,1,1.538490700069815,1453.1799775001127,None,None,None,,,,,,,quvvsxs,001,0,fr,2022-05-17_12h22.21.993,3-AFC_adaptive_staircase_mess,2022.1.1,None,
,,,,,10,0,10,0,2,0,2,0,,,,,,,,,,,,,,,,up,125,40,0.07227198853729641,1,0,1,10,1457.27837736678,None,1456.2332511001732,1456.560446199961,1457.2276215001475,1457.5653212000616,None,None,up,1,1.2906136999372393,1456.2914511000272,None,None,None,,,,,,,quvvsxs,001,0,fr,2022-05-17_12h22.21.993,3-AFC_adaptive_staircase_mess,2022.1.1,None,
,,,,,10,0,10,0,3,0,3,0,,,,,,,,,,,,,,,,right,125,20,0.00722719885372964,-1,1,-1,-10,1461.1406151666927,1461.3601190000772,1459.0859736001585,1459.412580100121,1460.1061267000623,1460.4264118999708,1461.0923403999768,1461.4150553999934,right,1,2.4146873999852687,1459.144188700011,None,None,None,,,,,,,quvvsxs,001,0,fr,2022-05-17_12h22.21.993,3-AFC_adaptive_staircase_mess,2022.1.1,None,
,,,,,10,0,10,0,4,0,4,0,,,,,,,,,,,,,,,,left,125,20,0.00722719885372964,-1,1,-1,-10,1463.1261438667464,1463.3472429001704,1463.0781070000958,1463.4109889999963,None,None,None,None,left,1,0.46274310001172125,1463.135653299978,None,None,None,,,,,,,quvvsxs,001,0,fr,2022-05-17_12h22.21.993,3-AFC_adaptive_staircase_mess,2022.1.1,None,
,,,,,10,0,10,0,5,0,5,0,,,,,,,,,,,,,,,,left,125,10,0.002285440948074376,-1,1,-1,-10,1465.1426294667801,None,1465.1001397999935,1465.4340089000762,None,None,None,None,left,1,0.4649922999087721,1465.1568938000128,None,None,None,,,,,,,quvvsxs,001,0,fr,2022-05-17_12h22.21.993,3-AFC_adaptive_staircase_mess,2022.1.1,None,
,,,,,10,0,10,0,6,0,6,0,,,,,,,,,,,,,,,,right,125,10,0.002285440948074376,-1,1,-1,-10,1469.1662076668038,None,1467.147168100113,1467.472067200113,1468.1381143000908,1468.4600866001565,1469.149541000137,1469.4794981000014,right,1,2.41282600001432,1467.1775273999665,None,None,None,,,,,,,quvvsxs,001,0,fr,2022-05-17_12h22.21.993,3-AFC_adaptive_staircase_mess,2022.1.1,None,
