tTrials.thisRepN,tTrials.thisTrialN,tTrials.thisN,tTrials.thisIndex,blocks.thisRepN,blocks.thisTrialN,blocks.thisN,blocks.thisIndex,trials.thisRepN,trials.thisTrialN,trials.thisN,trials.thisIndex,tStart_text.started,tStart_text.stopped,Prediction,practice_Frequency,practice_Level,practice_Psychopy_Level,practice_isCatchTrial,Practice_trial_detection,practice_Cue_Delays,practice_Cue_Frequencies,practice_Interval,practice_Cue_Intensities,tCue_visual_cue.started,tCue_visual_cue.stopped,tProbe_visual_cue.started,tProbe_visual_cue.stopped,tFeedback.keys,tFeedback.corr,tFeedback.rt,tFeedback.started,tFeedback.stopped,tToo_late.keys,tToo_late.corr,tToo_early.keys,tToo_early.corr,tToo_early.rt,more_instructions.started,more_instructions.stopped,readyy.keys,readyy.rt,readyy.started,readyy.stopped,txt_rhythm.started,txt_rhythm.stopped,sound_1.started,sound_1.stopped,sound_2.started,sound_2.stopped,sound_3.started,sound_3.stopped,sound_4.started,sound_4.stopped,cross.started,cross.stopped,sound_5.started,sound_5.stopped,circle.started,circle.stopped,rhythm_ready.keys,rhythm_ready.rt,rhythm_ready.started,rhythm_ready.stopped,rhytm_ready_txt.started,rhytm_ready_txt.stopped,txt_freq.started,txt_freq.stopped,sound_6.started,sound_6.stopped,sound_7.started,sound_7.stopped,sound_8.started,sound_8.stopped,sound_9.started,sound_9.stopped,cross_2.started,cross_2.stopped,sound_10.started,sound_10.stopped,circle_2.started,circle_2.stopped,freq_ready.keys,freq_ready.rt,freq_ready.started,freq_ready.stopped,freq_ready_txt.started,freq_ready_txt.stopped,txt_freq_2.started,txt_freq_2.stopped,sound_11.started,sound_11.stopped,sound_12.started,sound_12.stopped,sound_13.started,sound_13.stopped,sound_14.started,sound_14.stopped,cross_3.started,cross_3.stopped,sound_15.started,sound_15.stopped,circle_3.started,circle_3.stopped,freq_ready_2.keys,freq_ready_2.rt,freq_ready_2.started,freq_ready_2.stopped,freq_ready_txt_2.started,freq_ready_txt_2.stopped,txt_freq_3.started,txt_freq_3.stopped,sound_16.started,sound_16.stopped,sound_17.started,sound_17.stopped,sound_18.started,sound_18.stopped,sound_19.started,sound_19.stopped,cross_4.started,cross_4.stopped,sound_20.started,sound_20.stopped,circle_4.started,circle_4.stopped,freq_ready_txt_3.started,freq_ready_txt_3.stopped,tStart_text_2.started,tStart_text_2.stopped,this_trial_is.started,this_trial_is.stopped,Frequency,Level,Psychopy_Level,Real trial detection,Cue Delays,Cue Frequencies,Interval,Cue Intensities,Catch trial,cue_visual_cue.started,cue_visual_cue.stopped,probe_visual_cue.started,probe_visual_cue.stopped,feedback.keys,feedback.corr,feedback.started,feedback.stopped,answer_too_late.keys,answer_too_late.corr,answer_too_early.keys,answer_too_early.corr,answer_too_early.rt,feedback.rt,Catch trial answer,answer_too_late.rt,Audiogram_none,Audiogram_time,Audiogram_frequency,Audiogram_both,participant,session,Language (english or french),Skip training? (1 for yes),Resume previous experiment,date,expName,psychopyVersion,frameRate,
0,0,0,0,,,,,,,,,21.081006100052036,None,both,1000,30,0.0013930605843148849,False,1,"[0.5133320600359317, 0.5133320600359317, 0.5133320600359317, 0.5133320600359317]","[1587.4010519682001, 1414.2135623730956, 1259.9210498948735, 1122.4620483093731]",Tone,"[30, 30, 30, 30]",72.39834379998501,74.87058170000091,74.87058170000091,76.10500250000041,['space'],1,[0.827902700053528],74.87058170000091,76.61923359998036,None,1,['space'],0,[0.5944857000140473],,,,,,,,,,,,,,,,,,,,,,,,,,,,,,,,,,,,,,,,,,,,,,,,,,,,,,,,,,,,,,,,,,,,,,,,,,,,,,,,,,,,,,,,,,,,,,,,,,,,,,,,,,,,,,,,,,,,,,,,,,,,nefynm,001,english,0,0,2022-05-06_09h50.37.702,Cluster,2022.1.1,None,
1,0,1,0,,,,,,,,,,,frequency,2500,30,0.002716251657462167,False,1,"[0.483095505573489, 0.7740353717392967, 0.7521070423607914, 0.4999072620477427]","[3968.502629920499, 3535.533905932738, 3149.802624737183, 2806.1551207734324]",Tone,"[30, 30, 30, 30]",81.77726000000257,84.70453390001785,84.70453390001785,85.93205850000959,"['space', 'space']",1,"[0.8161894999211654, 1.4085238999687135]",84.70453390001785,86.425270000007,None,1,None,1,,,,,,,,,,,,,,,,,,,,,,,,,,,,,,,,,,,,,,,,,,,,,,,,,,,,,,,,,,,,,,,,,,,,,,,,,,,,,,,,,,,,,,,,,,,,,,,,,,,,,,,,,,,,,,,,,,,,,,,,,,,,,nefynm,001,english,0,0,2022-05-06_09h50.37.702,Cluster,2022.1.1,None,
2,0,2,0,,,,,,,,,,,frequency,6000,30,0.003664122665694519,True,0,"[0.42946697194260625, 0.6188313857650776, 0.6104417969495233, 0.7051900054072364]","[2381.1015779523, 3000.000000000001, 3779.76314968462, 4762.203155904599]",Major_3rd,"[30, 30, 30, 30]",89.38818580005318,91.97860370005947,91.97860370005947,93.21081439999398,['space'],0,[0.7743116000201553],91.97860370005947,93.90810810006224,None,1,['space'],0,[-0.3949304000707343],,,,,,,,,,,,,,,,,,,,,,,,,,,,,,,,,,,,,,,,,,,,,,,,,,,,,,,,,,,,,,,,,,,,,,,,,,,,,,,,,,,,,,,,,,,,,,,,,,,,,,,,,,,,,,,,,,,,,,,,,,,,nefynm,001,english,0,0,2022-05-06_09h50.37.702,Cluster,2022.1.1,None,
3,0,3,0,,,,,,,,,,,none,440,30,0.0023562289915021436,False,1,"[0.555312941570352, 0.5646348751105711, 0.7500833606009867, 0.469439399355089]","[5795.1878072394275, 4063.0131696851518, 448.0802241028551, 1108.9855001171695]",None,"[30, 30, 30, 30]",96.96556359995157,99.75296660000458,99.75296660000458,100.98854199994821,['space'],1,[0.8246337999589741],99.75296660000458,101.44827479997184,None,1,None,1,,,,,,,,,,,,,,,,,,,,,,,,,,,,,,,,,,,,,,,,,,,,,,,,,,,,,,,,,,,,,,,,,,,,,,,,,,,,,,,,,,,,,,,,,,,,,,,,,,,,,,,,,,,,,,,,,,,,,,,,,,,,,nefynm,001,english,0,0,2022-05-06_09h50.37.702,Cluster,2022.1.1,None,
4,0,4,0,,,,,,,,,,,both,250,30,0.005296268625886445,True,1,"[0.7386927854530055, 0.7386927854530055, 0.7386927854530055, 0.7386927854530055]","[396.85026299205003, 353.5533905932739, 314.98026247371837, 280.6155120773433]",Tone,"[30, 30, 30, 30]",104.65300439996645,107.80707600002643,107.80707600002643,109.04357109998818,None,1,,107.80707600002643,109.76126099994872,None,1,None,1,,,,,,,,,,,,,,,,,,,,,,,,,,,,,,,,,,,,,,,,,,,,,,,,,,,,,,,,,,,,,,,,,,,,,,,,,,,,,,,,,,,,,,,,,,,,,,,,,,,,,,,,,,,,,,,,,,,,,,,,,,,,,nefynm,001,english,0,0,2022-05-06_09h50.37.702,Cluster,2022.1.1,None,
,,,,,,,,,,,,,,,,,,,,,,,,,,,,,,,,,,,,,,112.10220279998612,None,space,16.074248200049624,112.10220279998612,None,,,,,,,,,,,,,,,,,,,,,,,,,,,,,,,,,,,,,,,,,,,,,,,,,,,,,,,,,,,,,,,,,,,,,,,,,,,,,,,,,,,,,,,,,,,,,,,,,,,,,,,,,,,,,,,,,,,,,,nefynm,001,english,0,0,2022-05-06_09h50.37.702,Cluster,2022.1.1,None,
,,,,,,,,,,,,,,,,,,,,,,,,,,,,,,,,,,,,,,,,,,,,128.2317761000013,129.2491196000483,129.6990238666224,None,130.20134176669333,None,130.70112746669136,None,131.20152766671188,None,129.6247286000289,131.4260651000077,131.70250346669152,None,131.4260651000077,132.24297340004705,space,1.0207361000357196,132.42019620002247,None,,,,,,,,,,,,,,,,,,,,,,,,,,,,,,,,,,,,,,,,,,,,,,,,,,,,,,,,,,,,,,,,,,,,,,,,,,,,,,,,,,,,,,,,,,,,,,,,,,nefynm,001,english,0,0,2022-05-06_09h50.37.702,Cluster,2022.1.1,None,
,,,,,,,,,,,,,,,,,,,,,,,,,,,,,,,,,,,,,,,,,,,,,,,,,,,,,,,,,,,,,,,,132.42019620002247,None,133.48470989998896,134.5168490000069,134.9678413667173,None,135.2676355667102,None,135.9522693666552,None,136.36069766671088,None,134.86436340003274,136.66917660005856,136.96263066662166,None,136.66917660005856,137.50680229999125,space,0.9490002000238746,137.67605570005253,None,,,,,,,,,,,,,,,,,,,,,,,,,,,,,,,,,,,,,,,,,,,,,,,,,,,,,,,,,,,,,,,,,,,,,,,,,,,,nefynm,001,english,0,0,2022-05-06_09h50.37.702,Cluster,2022.1.1,None,
,,,,,,,,,,,,,,,,,,,,,,,,,,,,,,,,,,,,,,,,,,,,,,,,,,,,,,,,,,,,,,,,,,,,,,,,,,,,,,,,,,,,,,137.67605570005253,None,138.66785089997575,139.6698637000518,140.1327289667136,None,140.64498906670295,None,141.14942636661388,None,141.65227996668935,None,140.05672120000236,141.87561540002935,142.15571376664255,None,141.87561540002935,142.69131410005502,space,1.417658600024879,142.87214660004247,None,,,,,,,,,,,,,,,,,,,,,,,,,,,,,,,,,,,,,,,,,,,,,,,,,,,,,,nefynm,001,english,0,0,2022-05-06_09h50.37.702,Cluster,2022.1.1,None,
,,,,0,0,0,0,0,0,0,0,,,none,,,,,,,,,,,,,,,,,,,,,,,,,,,,,,,,,,,,,,,,,,,,,,,,,,,,,,,,,,,,,,,,,,,,,,,,,,,,,,,,,,,,,,,,,,,,,,142.87214660004247,None,144.34980019996874,145.3696110000601,145.81719626667135,None,146.1126325666594,None,146.82364816667203,None,147.23152776662417,None,145.74185210000724,147.54356939997524,147.81917596672818,None,147.54356939997524,148.36312919994816,148.54051019996405,None,149.5652460999554,None,157.31059650005773,None,2886.340039847686,3.8789194726919067,9.672661414824065e-05,0,"[0.7950576642226705, 0.7517272883520841, 0.759105948096832, 0.7545560507873109]","[688.5768311007097, 1159.2200218500657, 191.670967814368, 1332.242134786479]",None,"[9.0, 5.0, 10.543619371000801, 0.0]",False,158.32478649995755,161.65162839996628,161.65162839996628,162.87520530004986,None,0,4.0849805667530745,5.097063466673717,None,1,['space'],0,[0.6699874000623822],,,,,,,,nefynm,001,english,0,0,2022-05-06_09h50.37.702,Cluster,2022.1.1,None,
,,,,0,0,0,0,1,0,1,0,,,none,,,,,,,,,,,,,,,,,,,,,,,,,,,,,,,,,,,,,,,,,,,,,,,,,,,,,,,,,,,,,,,,,,,,,,,,,,,,,,,,,,,,,,,,,,,,,,,,,,,,,,,,,,,,,,,,,,,,163.45532089995686,None,353.5533905932738,-1.0,7.897582242723967e-05,1,"[0.6798817725357794, 0.5890509923925806, 0.5826046485696643, 0.6838930494117785]","[219.11868349853341, 564.146330137555, 5072.352603144437, 618.4907055765337]",None,"[10.432425410968461, 3.0, -3.1701608221140987, 5.458044982307854]",False,164.9489615999628,167.81639259995427,167.81639259995427,169.04189860005863,['space'],1,3.540963133214973,4.573728033225052,None,1,None,1,,[0.2524097999557853],,,,,,,nefynm,001,english,0,0,2022-05-06_09h50.37.702,Cluster,2022.1.1,None,
,,,,0,0,0,0,2,0,2,0,,,both,,,,,,,,,,,,,,,,,,,,,,,,,,,,,,,,,,,,,,,,,,,,,,,,,,,,,,,,,,,,,,,,,,,,,,,,,,,,,,,,,,,,,,,,,,,,,,,,,,,,,,,,,,,,,,,,,,,,169.57325869996566,None,3295.50128192991,1.0,8.030662822213928e-05,1,"[0.45880713442077736, 0.45880713442077736, 0.45880713442077736, 0.45880713442077736]","[5231.282201698089, 4660.5426077232, 4152.071435059032, 3699.075119121211]",Tone,"[-3.5611283207333813, -2.3823907161649984, 0.0, 3.2278384853111417]",False,170.58449080004357,172.97722230001818,172.97722230001818,174.21602799999528,['space'],1,2.872508666710928,3.9039928667480126,None,1,None,1,,[0.14445180003531277],,,,,,,nefynm,001,english,0,0,2022-05-06_09h50.37.702,Cluster,2022.1.1,None,
,,,,0,0,0,0,3,0,3,0,,,none,,,,,,,,,,,,,,,,,,,,,,,,,,,,,,,,,,,,,,,,,,,,,,,,,,,,,,,,,,,,,,,,,,,,,,,,,,,,,,,,,,,,,,,,,,,,,,,,,,,,,,,,,,,,,,,,,,,,174.52330520004034,None,,,,,"[0.6135289912177535, 0.6795471415137908, 0.4678297003125757, 0.5347437124971625]","[430.7152391447958, 388.11519435517795, 130.56197918764605, 7306.85474659616]",None,"[2.0, 3.0, 9.701383027368967, -7.0]",True,175.53659390006214,178.3343289999757,178.3343289999757,179.56508249999024,['space'],0,3.334992066840641,4.358258866821416,None,1,None,1,,[0.012718199985101819],0,,,,,,nefynm,001,english,0,0,2022-05-06_09h50.37.702,Cluster,2022.1.1,None,
,,,,0,0,0,0,4,0,4,0,,,none,,,,,,,,,,,,,,,,,,,,,,,,,,,,,,,,,,,,,,,,,,,,,,,,,,,,,,,,,,,,,,,,,,,,,,,,,,,,,,,,,,,,,,,,,,,,,,,,,,,,,,,,,,,,,,,,,,,,179.92693199997302,None,392.23112760957133,-3.0,5.5624179660762383e-05,1,"[0.6289096586834855, 0.5746358748042287, 0.5163826829989115, 0.6555122869874292]","[856.8338046344655, 254.88836798672284, 6582.373012129049, 760.3293633121376]",None,"[13.68805040169973, 9.542511536681426, -5.1394793270469705, 12.0]",False,180.94551750004757,183.69233290001284,183.69233290001284,184.9272999999812,['space'],1,3.393975766724907,4.415529966820031,None,1,None,1,,[0.04438269999809563],,,,,,,nefynm,001,english,0,0,2022-05-06_09h50.37.702,Cluster,2022.1.1,None,
,,,,0,0,0,0,5,0,5,0,,,frequency,,,,,,,,,,,,,,,,,,,,,,,,,,,,,,,,,,,,,,,,,,,,,,,,,,,,,,,,,,,,,,,,,,,,,,,,,,,,,,,,,,,,,,,,,,,,,,,,,,,,,,,,,,,,,,,,,,,,185.40401169995312,None,2389.6085499526343,2.0,0.00010505523823541659,1,"[0.505773758340822, 0.7850699892721673, 0.5373719119277443, 0.7090536678440489]","[948.3167814967542, 1194.8042749763174, 1505.3590565470445, 1896.633562993508]",Major_3rd,"[13.0, 4.0, -2.5412642016218587, 1.0]",False,186.41738810006063,189.28254279994871,189.28254279994871,190.4934233999811,['space'],1,3.580581666668877,4.6075565667124465,None,1,None,1,,[0.7068159999325871],,,,,,,nefynm,001,english,0,0,2022-05-06_09h50.37.702,Cluster,2022.1.1,None,
,,,,0,0,0,0,6,0,6,0,,,none,,,,,,,,,,,,,,,,,,,,,,,,,,,,,,,,,,,,,,,,,,,,,,,,,,,,,,,,,,,,,,,,,,,,,,,,,,,,,,,,,,,,,,,,,,,,,,,,,,,,,,,,,,,,,,,,,,,,191.0593407000415,None,176.7766952966369,0.0,0.0003500209769801159,1,"[0.5929100625531396, 0.7358898859011992, 0.7178437586201323, 0.6068927475007054]","[227.47855641931062, 2269.4561996868206, 438.26067363300183, 706.2629318852943]",None,"[10.096333932716702, 6.990211164607461, 1.8810953384182945, 9.95723379361977]",False,192.08391230006237,195.15253810002469,195.15253810002469,196.37298210000154,['space'],1,3.6778290667571127,4.71103016671259,None,1,None,1,,[0.6094640000956133],,,,,,,nefynm,001,english,0,0,2022-05-06_09h50.37.702,Cluster,2022.1.1,None,
,,,,0,0,0,0,7,0,7,0,,,both,,,,,,,,,,,,,,,,,,,,,,,,,,,,,,,,,,,,,,,,,,,,,,,,,,,,,,,,,,,,,,,,,,,,,,,,,,,,,,,,,,,,,,,,,,,,,,,,,,,,,,,,,,,,,,,,,,,,196.84887970006093,None,176.7766952966369,-1.0,0.0003119565241000184,1,"[0.7095472919868588, 0.7095472919868588, 0.7095472919868588, 0.7095472919868588]","[445.44935907016975, 353.55339059327383, 280.6155120773433, 222.72467953508485]",Major_3rd,"[1.8810953384182945, 4.607193576852355, 8.0, 10.432425410968461]",False,197.8570214000065,201.01065620000008,201.01065620000008,202.24855150002986,['space'],1,3.845489466795698,4.875933866831474,None,1,None,1,,[0.684736599912867],,,,,,,nefynm,001,english,0,0,2022-05-06_09h50.37.702,Cluster,2022.1.1,None,
,,,,0,0,0,0,8,0,8,0,,,frequency,,,,,,,,,,,,,,,,,,,,,,,,,,,,,,,,,,,,,,,,,,,,,,,,,,,,,,,,,,,,,,,,,,,,,,,,,,,,,,,,,,,,,,,,,,,,,,,,,,,,,,,,,,,,,,,,,,,,202.78011920000426,None,,,,,"[0.693582134388739, 0.5636722188557924, 0.6337514193997741, 0.7213481135582697]","[564.227591167389, 845.3861928151821, 1266.6481153888221, 1897.8278351995837]",Perfect_5th,"[3.0, 13.68805040169973, 2.0, 1.0]",True,203.77031599998008,206.6735743000172,206.6735743000172,207.89426780003123,None,1,3.654233766719699,4.679762866697274,None,1,None,1,,,0,,,,,,nefynm,001,english,0,0,2022-05-06_09h50.37.702,Cluster,2022.1.1,None,
,,,,0,0,0,0,9,0,9,0,,,time,,,,,,,,,,,,,,,,,,,,,,,,,,,,,,,,,,,,,,,,,,,,,,,,,,,,,,,,,,,,,,,,,,,,,,,,,,,,,,,,,,,,,,,,,,,,,,,,,,,,,,,,,,,,,,,,,,,,208.4799846999813,None,191.6045448573918,4.5436193710008,0.0004994586069358162,1,"[0.5937750506239796, 0.5937750506239796, 0.5937750506239796, 0.5937750506239796]","[322.7506057986979, 161.23504235724158, 191.68662225314395, 4452.437042948975]",None,"[6.0, 10.245471099602025, 10.543619371000801, -2.0]",False,209.47397070005536,212.269745000056,212.269745000056,213.4924759999849,['space'],1,3.4189705667085946,4.458232866716571,None,1,None,1,,[0.22805360006168485],,,,,,,nefynm,001,english,0,0,2022-05-06_09h50.37.702,Cluster,2022.1.1,None,
,,,,0,0,0,0,10,0,10,0,,,none,,,,,,,,,,,,,,,,,,,,,,,,,,,,,,,,,,,,,,,,,,,,,,,,,,,,,,,,,,,,,,,,,,,,,,,,,,,,,,,,,,,,,,,,,,,,,,,,,,,,,,,,,,,,,,,,,,,,213.96802330005448,None,475.1295583190313,-4.487824520861921,4.3374626591147907e-05,1,"[0.6655417484746173, 0.6521804762485817, 0.4759644251317681, 0.445095158059891]","[791.5917847686133, 3382.758237351954, 546.8223079298358, 5220.565525609043]",None,"[13.0, 6.0, 3.0, -3.5611283207333813]",False,214.97967070003506,217.79995699995197,217.79995699995197,219.03164489998017,"['space', 'space']",1,3.2679477666970342,4.283944366732612,None,1,None,1,,"[0.16871989995706826, 0.3444231000030413]",,,,,,,nefynm,001,english,0,0,2022-05-06_09h50.37.702,Cluster,2022.1.1,None,
,,,,0,0,0,0,11,0,11,0,,,time,,,,,,,,,,,,,,,,,,,,,,,,,,,,,,,,,,,,,,,,,,,,,,,,,,,,,,,,,,,,,,,,,,,,,,,,,,,,,,,,,,,,,,,,,,,,,,,,,,,,,,,,,,,,,,,,,,,,219.31212749995757,None,353.5533905932738,-1.0,7.897582242723967e-05,0,"[0.4857494682527302, 0.4857494682527302, 0.4857494682527302, 0.4857494682527302]","[723.8101853809986, 6268.830585359399, 2334.4315277698042, 6521.393300618877]",None,"[11.0, -5.0, 7.0, -5.1394793270469705]",False,220.34271630004514,222.82387369999196,222.82387369999196,224.03756640001666,None,0,2.9486451667035,3.977105066762306,None,1,None,1,,,,,,,,,nefynm,001,english,0,0,2022-05-06_09h50.37.702,Cluster,2022.1.1,None,
,,,,0,0,0,0,12,0,12,0,,,frequency,,,,,,,,,,,,,,,,,,,,,,,,,,,,,,,,,,,,,,,,,,,,,,,,,,,,,,,,,,,,,,,,,,,,,,,,,,,,,,,,,,,,,,,,,,,,,,,,,,,,,,,,,,,,,,,,,,,,224.36962150002364,None,176.7766952966369,-1.0,0.0003119565241000184,0,"[0.6632302575320345, 0.6192649171672489, 0.5213244373122379, 0.4404446567801715]","[445.44935907016975, 353.55339059327383, 280.6155120773433, 222.72467953508485]",Major_3rd,"[1.8810953384182945, 4.607193576852355, 8.0, 10.432425410968461]",False,225.44070549996104,228.27766270004213,228.27766270004213,229.50902530003805,None,0,3.2550785333150998,4.291506733396091,None,1,None,1,,,,,,,,,nefynm,001,english,0,0,2022-05-06_09h50.37.702,Cluster,2022.1.1,None,
,,,,0,0,0,0,13,0,13,0,,,both,,,,,,,,,,,,,,,,,,,,,,,,,,,,,,,,,,,,,,,,,,,,,,,,,,,,,,,,,,,,,,,,,,,,,,,,,,,,,,,,,,,,,,,,,,,,,,,,,,,,,,,,,,,,,,,,,,,,229.78159759996925,None,,,,,"[0.748813545266396, 0.748813545266396, 0.748813545266396, 0.748813545266396]","[5948.504122881956, 4721.3308511499945, 3747.322779902708, 2974.252061440978]",Major_3rd,"[-4.306355949430751, -2.3823907161649984, 3.0, 9.206231582890727]",True,230.80185170006007,234.0722200999735,234.0722200999735,235.31649200001266,None,1,4.032327766763046,5.048370666685514,None,1,None,1,,,0,,,,,,nefynm,001,english,0,0,2022-05-06_09h50.37.702,Cluster,2022.1.1,None,
,,,,0,0,0,0,14,0,14,0,,,frequency,,,,,,,,,,,,,,,,,,,,,,,,,,,,,,,,,,,,,,,,,,,,,,,,,,,,,,,,,,,,,,,,,,,,,,,,,,,,,,,,,,,,,,,,,,,,,,,,,,,,,,,,,,,,,,,,,,,,235.89307120000012,None,549.8471690580236,-3.0,4.5073861059707734e-05,0,"[0.798339810999513, 0.6816567357706258, 0.5912892350932688, 0.7350777262999059]","[872.8279745844433, 777.6013237143092, 692.764022521309, 617.1825796379793]",Tone,"[13.68805040169973, 12.0, 9.0, 5.458044982307854]",False,236.88256030005869,239.9855908000609,239.9855908000609,241.2001310000196,None,0,3.8329232666874304,4.853008366771974,None,1,['space'],0,[0.49455740000121295],,,,,,,,nefynm,001,english,0,0,2022-05-06_09h50.37.702,Cluster,2022.1.1,None,
,,,,0,0,0,0,15,0,15,0,,,frequency,,,,,,,,,,,,,,,,,,,,,,,,,,,,,,,,,,,,,,,,,,,,,,,,,,,,,,,,,,,,,,,,,,,,,,,,,,,,,,,,,,,,,,,,,,,,,,,,,,,,,,,,,,,,,,,,,,,,241.7730109000113,None,353.5533905932738,0.0,8.861233020703779e-05,1,"[0.48160892959785184, 0.6503999539637642, 0.5892703495753223, 0.48581493182919827]","[140.30775603867167, 176.77669529663694, 222.72467953508487, 280.6155120773433]",Major_3rd,"[9.883499719674859, 10.41839078124893, 10.432425410968461, 8.0]",False,243.32856759999413,246.09214530000463,246.09214530000463,247.30605340003967,['space'],1,3.216922833235003,4.255622433265671,None,1,None,1,,[0.5462098000571132],,,,,,,nefynm,001,english,0,0,2022-05-06_09h50.37.702,Cluster,2022.1.1,None,
,,,,0,0,0,0,16,0,16,0,,,frequency,,,,,,,,,,,,,,,,,,,,,,,,,,,,,,,,,,,,,,,,,,,,,,,,,,,,,,,,,,,,,,,,,,,,,,,,,,,,,,,,,,,,,,,,,,,,,,,,,,,,,,,,,,,,,,,,,,,,247.63449920003768,None,605.2073519450856,-1.0,4.904759963013282e-05,1,"[0.5259584593261583, 0.73588027444181, 0.5574182559508202, 0.5732717003524979]","[240.17669678412943, 302.60367597254293, 381.25674113337425, 480.3533935682587]",Major_3rd,"[10.0, 7.0, 3.5416604876652187, 1.5121754791380786]",False,248.6434378999984,251.48175340006128,251.48175340006128,252.69916219997685,['space'],1,3.4170223667751998,4.438606266747229,None,1,None,1,,[0.5172337000258267],,,,,,,nefynm,001,english,0,0,2022-05-06_09h50.37.702,Cluster,2022.1.1,None,
,,,,0,0,0,0,17,0,17,0,,,frequency,,,,,,,,,,,,,,,,,,,,,,,,,,,,,,,,,,,,,,,,,,,,,,,,,,,,,,,,,,,,,,,,,,,,,,,,,,,,,,,,,,,,,,,,,,,,,,,,,,,,,,,,,,,,,,,,,,,,253.12057020002976,None,,,,,"[0.6979989589963376, 0.5457995771018793, 0.4171712630825639, 0.539237343190574]","[3672.202551647082, 4121.90799792869, 4626.685294297824, 5193.2786523203895]",Tone,"[4.0, 0.0, -2.3823907161649984, -3.5611283207333813]",True,254.11851169995498,256.8067616999615,256.8067616999615,258.0202798000537,['space'],0,3.225743666640483,4.255786766647361,None,1,None,1,,[0.01720429991837591],0,,,,,,nefynm,001,english,0,0,2022-05-06_09h50.37.702,Cluster,2022.1.1,None,
,,,,0,0,0,0,18,0,18,0,,,frequency,,,,,,,,,,,,,,,,,,,,,,,,,,,,,,,,,,,,,,,,,,,,,,,,,,,,,,,,,,,,,,,,,,,,,,,,,,,,,,,,,,,,,,,,,,,,,,,,,,,,,,,,,,,,,,,,,,,,258.4079786000075,None,1319.5079107728945,-7.0,2.3577555098377164e-05,0,"[0.4152475168115814, 0.7220772998801192, 0.5564476583728392, 0.5712837258433052]","[523.6470614103137, 659.7539553864475, 831.2378961427881, 1047.294122820627]",Major_3rd,"[2.0, 7.672047411979337, 13.29151386160071, 10.0]",False,259.44650299998466,262.1741247000173,262.1741247000173,263.394184499979,None,0,3.3029634333215654,4.336247233324684,None,1,None,1,,,,,,,,,nefynm,001,english,0,0,2022-05-06_09h50.37.702,Cluster,2022.1.1,None,
,,,,0,0,0,0,19,0,19,0,,,none,,,,,,,,,,,,,,,,,,,,,,,,,,,,,,,,,,,,,,,,,,,,,,,,,,,,,,,,,,,,,,,,,,,,,,,,,,,,,,,,,,,,,,,,,,,,,,,,,,,,,,,,,,,,,,,,,,,,263.8224690000061,None,1414.213562373095,-8.0,2.007747620013617e-05,0,"[0.7787870898310376, 0.5714078629197077, 0.6617193473257261, 0.5274689602119729]","[1555.491938887656, 1405.2312859601857, 148.80120895223118, 6151.443353928001]",None,"[-2.5412642016218587, -1.7074087051123037, 10.0, -4.306355949430751]",False,264.85661580006126,267.8849116000347,267.8849116000347,269.10673350002617,None,0,3.5574335333658382,4.574751733336598,None,1,None,1,,,,,,,,,nefynm,001,english,0,0,2022-05-06_09h50.37.702,Cluster,2022.1.1,None,
,,,,1,0,1,0,0,0,0,0,,,frequency,,,,,,,,,,,,,,,,,,,,,,,,,,,,,,,,,,,,,,,,,,,,,,,,,,,,,,,,,,,,,,,,,,,,,,,,,,,,,,,,,,,,,,,,,,,,,,,,,,,,,,,,,,,,,,,,,,,,307.78303709998727,None,7500.437132280617,-14.0,3.320038416628402e-05,0,"[0.6621764677017572, 0.5638689693655276, 0.7377268702997423, 0.721311377002873]","[2976.5504485009, 3750.2185661403096, 4724.979313186745, 5953.100897001799]",Major_3rd,"[9.206231582890727, 3.0, -3.0, -4.306355949430751]",False,308.7474692000542,311.75560779997613,311.75560779997613,312.9970394000411,None,0,3.7169368667528033,4.74409366666805,None,1,None,1,,,,,,,,,nefynm,001,english,0,0,2022-05-06_09h50.37.702,Cluster,2022.1.1,None,
,,,,1,0,1,0,1,0,1,0,,,frequency,,,,,,,,,,,,,,,,,,,,,,,,,,,,,,,,,,,,,,,,,,,,,,,,,,,,,,,,,,,,,,,,,,,,,,,,,,,,,,,,,,,,,,,,,,,,,,,,,,,,,,,,,,,,,,,,,,,,313.53684640000574,None,125.0,1.0,0.0008109050486794653,1,"[0.6403218368138682, 0.7957231703836011, 0.5924839300945938, 0.6314374112297991]","[629.9605249474366, 420.4482076268573, 280.6155120773433, 187.2883846095852]",Perfect_5th,"[6.0, 2.0, 8.0, 10.543619371000801]",False,315.2992989999475,318.34464869997464,318.34464869997464,319.58484090003185,['space'],1,3.684425266692415,4.710975166643038,None,1,None,1,,[0.2686259000329301],,,,,,,nefynm,001,english,0,0,2022-05-06_09h50.37.702,Cluster,2022.1.1,None,
,,,,1,0,1,0,2,0,2,0,,,none,,,,,,,,,,,,,,,,,,,,,,,,,,,,,,,,,,,,,,,,,,,,,,,,,,,,,,,,,,,,,,,,,,,,,,,,,,,,,,,,,,,,,,,,,,,,,,,,,,,,,,,,,,,,,,,,,,,,320.0608661000151,None,2513.239087743114,3.0,0.00012016838626898615,1,"[0.41182725611179377, 0.4678408079789821, 0.7700720583024293, 0.795808238185299]","[3395.5684883430026, 159.97058268401966, 129.42835973331654, 125.07196139002963]",None,"[6.0, 10.245471099602025, 9.490574947021436, 9.490574947021436]",False,321.0484772999771,323.7243733999785,323.7243733999785,324.9510505000362,['space'],1,3.483972266782075,4.515502266702242,None,1,None,1,,[0.2849396999226883],,,,,,,nefynm,001,english,0,0,2022-05-06_09h50.37.702,Cluster,2022.1.1,None,
,,,,1,0,1,0,3,0,3,0,,,both,,,,,,,,,,,,,,,,,,,,,,,,,,,,,,,,,,,,,,,,,,,,,,,,,,,,,,,,,,,,,,,,,,,,,,,,,,,,,,,,,,,,,,,,,,,,,,,,,,,,,,,,,,,,,,,,,,,,325.6085518000182,None,,,,,"[0.5830220679734175, 0.5830220679734175, 0.5830220679734175, 0.5830220679734175]","[415.9046346625596, 466.8371681246981, 524.0070039601958, 588.1779749936192]",Tone,"[2.5993568148196537, 1.5121754791380786, 2.0, 4.0]",True,326.625199800008,329.39520539995283,329.39520539995283,330.61492870002985,None,1,3.369305166648701,4.400243266718462,None,1,None,1,,,0,,,,,,nefynm,001,english,0,0,2022-05-06_09h50.37.702,Cluster,2022.1.1,None,
,,,,1,0,1,0,4,0,4,0,,,time,,,,,,,,,,,,,,,,,,,,,,,,,,,,,,,,,,,,,,,,,,,,,,,,,,,,,,,,,,,,,,,,,,,,,,,,,,,,,,,,,,,,,,,,,,,,,,,,,,,,,,,,,,,,,,,,,,,,331.0646654999582,None,602.740198495391,-1.0,4.939062148822942e-05,1,"[0.7236058169223929, 0.7236058169223929, 0.7236058169223929, 0.7236058169223929]","[664.7263817585886, 3304.900776113754, 727.643844832088, 1554.2068282106477]",None,"[8.0, 7.0, 11.0, -2.5412642016218587]",False,332.08732160006184,335.29180979996454,335.29180979996454,336.51665360003244,['space'],1,3.9254736666334793,4.942367766634561,None,1,None,1,,[0.38842549989931285],,,,,,,nefynm,001,english,0,0,2022-05-06_09h50.37.702,Cluster,2022.1.1,None,
,,,,1,0,1,0,5,0,5,0,,,time,,,,,,,,,,,,,,,,,,,,,,,,,,,,,,,,,,,,,,,,,,,,,,,,,,,,,,,,,,,,,,,,,,,,,,,,,,,,,,,,,,,,,,,,,,,,,,,,,,,,,,,,,,,,,,,,,,,,337.07956630003173,None,164.93848884661182,-4.0,0.0002480517054570919,1,"[0.729961136342492, 0.729961136342492, 0.729961136342492, 0.729961136342492]","[1050.970441627106, 2002.3855604990229, 1269.1091899877215, 159.80592905941708]",None,"[9.0, 2.620414932981827, 2.0, 10.245471099602025]",False,338.69121019996237,341.9082094000187,341.9082094000187,343.13111119996756,['space'],1,3.9294146000174806,4.961585300043225,None,1,None,1,,[0.509256099932827],,,,,,,nefynm,001,english,0,0,2022-05-06_09h50.37.702,Cluster,2022.1.1,None,
,,,,1,0,1,0,6,0,6,0,,,none,,,,,,,,,,,,,,,,,,,,,,,,,,,,,,,,,,,,,,,,,,,,,,,,,,,,,,,,,,,,,,,,,,,,,,,,,,,,,,,,,,,,,,,,,,,,,,,,,,,,,,,,,,,,,,,,,,,,343.700919099967,None,125.0,-3.0,0.0005116464961403772,0,"[0.4802375773864269, 0.5285015904957826, 0.7437746458313405, 0.7864509837825056]","[3766.5461446649456, 1777.21175554013, 319.67618487027096, 1040.4453927973386]",None,"[3.0, -1.0, 6.0, 10.0]",False,344.7233969999943,347.5231272999663,347.5231272999663,348.7328124999767,None,0,3.5579491667449474,4.589033266645856,None,1,None,1,,,,,,,,,nefynm,001,english,0,0,2022-05-06_09h50.37.702,Cluster,2022.1.1,None,
,,,,1,0,1,0,7,0,7,0,,,none,,,,,,,,,,,,,,,,,,,,,,,,,,,,,,,,,,,,,,,,,,,,,,,,,,,,,,,,,,,,,,,,,,,,,,,,,,,,,,,,,,,,,,,,,,,,,,,,,,,,,,,,,,,,,,,,,,,,349.36517090001144,None,444.0037595234091,-4.1189046615817055,4.624642920317952e-05,1,"[0.6362550007669026, 0.5902437459864636, 0.4277926078570991, 0.40306016244476023]","[3758.0288689855915, 480.6805569052902, 506.4201716225823, 4960.062627801343]",None,"[3.0, 1.5121754791380786, 1.6183389177672183, -3.1701608221140987]",False,350.36899019998964,353.0637522999896,353.0637522999896,354.2993794999784,['space'],1,3.0953264667186886,4.125433766748756,None,1,None,1,,[0.5992337999632582],,,,,,,nefynm,001,english,0,0,2022-05-06_09h50.37.702,Cluster,2022.1.1,None,
,,,,1,0,1,0,8,0,8,0,,,none,,,,,,,,,,,,,,,,,,,,,,,,,,,,,,,,,,,,,,,,,,,,,,,,,,,,,,,,,,,,,,,,,,,,,,,,,,,,,,,,,,,,,,,,,,,,,,,,,,,,,,,,,,,,,,,,,,,,354.5455119999824,None,4594.793419988137,-6.0,6.258097977097286e-05,1,"[0.6264894806233927, 0.5821918069726472, 0.5881848459253105, 0.7224079945822556]","[291.73851505684036, 472.7263497810089, 2333.911767620229, 617.759486421097]",None,"[7.863398994928131, 1.5121754791380786, 7.0, 5.458044982307854]",False,356.2640741999494,359.1049459000351,359.1049459000351,360.3247579999734,['space'],1,3.548369966680184,4.575319566647522,None,1,None,1,,[0.30972210003528744],,,,,,,nefynm,001,english,0,0,2022-05-06_09h50.37.702,Cluster,2022.1.1,None,
,,,,1,0,1,0,9,0,9,0,,,frequency,,,,,,,,,,,,,,,,,,,,,,,,,,,,,,,,,,,,,,,,,,,,,,,,,,,,,,,,,,,,,,,,,,,,,,,,,,,,,,,,,,,,,,,,,,,,,,,,,,,,,,,,,,,,,,,,,,,,360.88715409999713,None,,,,,"[0.5490553406059667, 0.505945663115271, 0.7953844373425393, 0.5619236493037144]","[179.60970878567295, 226.29405286455747, 285.11264067007914, 359.2194175713458]",Major_3rd,"[10.41839078124893, 10.096333932716702, 8.0, 4.607193576852355]",True,361.87652429996524,364.76246120000724,364.76246120000724,365.99260580004193,['space'],0,3.450465066707693,4.484337766771205,None,1,None,1,,[0.48481539997737855],0,,,,,,nefynm,001,english,0,0,2022-05-06_09h50.37.702,Cluster,2022.1.1,None,
,,,,1,0,1,0,10,0,10,0,,,both,,,,,,,,,,,,,,,,,,,,,,,,,,,,,,,,,,,,,,,,,,,,,,,,,,,,,,,,,,,,,,,,,,,,,,,,,,,,,,,,,,,,,,,,,,,,,,,,,,,,,,,,,,,,,,,,,,,,366.39460750005674,None,230.57867742597438,4.096333932716702,0.00032938043316931785,1,"[0.5224855390032936, 0.5224855390032936, 0.5224855390032936, 0.5224855390032936]","[145.25546467295243, 163.04374640493197, 183.0104175537139, 205.42224814929534]",Tone,"[9.883499719674859, 10.245471099602025, 10.41839078124893, 10.567047562418644]",False,367.3888956999872,369.9798278999515,369.9798278999515,371.1897375000408,['space'],1,3.127668766770512,4.15091476670932,None,1,None,1,,[0.39814569998998195],,,,,,,nefynm,001,english,0,0,2022-05-06_09h50.37.702,Cluster,2022.1.1,None,
,,,,1,0,1,0,11,0,11,0,,,none,,,,,,,,,,,,,,,,,,,,,,,,,,,,,,,,,,,,,,,,,,,,,,,,,,,,,,,,,,,,,,,,,,,,,,,,,,,,,,,,,,,,,,,,,,,,,,,,,,,,,,,,,,,,,,,,,,,,371.5776455999585,None,4784.3299543741705,-9.0,4.893114143458337e-05,1,"[0.4366522444175372, 0.42593000083902843, 0.7673729915714592, 0.47810028605987026]","[234.07779888298506, 268.85292308378536, 221.05406809809855, 555.7231635459575]",None,"[10.096333932716702, 8.785576129843362, 10.432425410968461, 3.0]",False,372.58652829995845,375.23729950003326,375.23729950003326,376.47712609998416,['space'],1,3.125963866827078,4.1533139668172225,None,1,None,1,,[0.4497046999167651],,,,,,,nefynm,001,english,0,0,2022-05-06_09h50.37.702,Cluster,2022.1.1,None,
,,,,1,0,1,0,12,0,12,0,,,both,,,,,,,,,,,,,,,,,,,,,,,,,,,,,,,,,,,,,,,,,,,,,,,,,,,,,,,,,,,,,,,,,,,,,,,,,,,,,,,,,,,,,,,,,,,,,,,,,,,,,,,,,,,,,,,,,,,,376.7851079000393,None,1414.213562373095,-8.0,2.007747620013617e-05,0,"[0.7688474232758157, 0.7688474232758157, 0.7688474232758157, 0.7688474232758157]","[3563.594872561358, 2828.4271247461907, 2244.9240966187463, 1781.7974362806788]",Major_3rd,"[5.0, 9.878919472691907, 6.0, -1.0]",False,377.87451890006196,381.2086546999635,381.2086546999635,382.4402396000223,None,0,4.1086799333570525,5.127532233367674,None,1,None,1,,,,,,,,,nefynm,001,english,0,0,2022-05-06_09h50.37.702,Cluster,2022.1.1,None,
,,,,1,0,1,0,13,0,13,0,,,frequency,,,,,,,,,,,,,,,,,,,,,,,,,,,,,,,,,,,,,,,,,,,,,,,,,,,,,,,,,,,,,,,,,,,,,,,,,,,,,,,,,,,,,,,,,,,,,,,,,,,,,,,,,,,,,,,,,,,,383.05680350004695,None,,,,,"[0.6591499547043623, 0.4349484491895229, 0.40199387799777847, 0.41295014568770166]","[1357.3560795407775, 1710.1614968162053, 2154.668468558461, 2714.7121590815545]",Major_3rd,"[-1.0, -1.2910851296111083, 5.0, 9.67595133734369]",True,384.07193410000764,386.58154060004745,386.58154060004745,387.81083189998753,None,1,2.9353491666261107,3.968669066671282,None,1,None,1,,,0,,,,,,nefynm,001,english,0,0,2022-05-06_09h50.37.702,Cluster,2022.1.1,None,
,,,,1,0,1,0,14,0,14,0,,,frequency,,,,,,,,,,,,,,,,,,,,,,,,,,,,,,,,,,,,,,,,,,,,,,,,,,,,,,,,,,,,,,,,,,,,,,,,,,,,,,,,,,,,,,,,,,,,,,,,,,,,,,,,,,,,,,,,,,,,388.07482069998514,None,3486.143143737776,-0.38289971238194065,7.168895179226003e-05,1,"[0.5713439462234798, 0.6276113569523979, 0.5159178502559986, 0.40706641230909946]","[2196.1325648709562, 2465.0754571239704, 2766.953646840536, 3105.800458009717]",Tone,"[6.0, 8.659301605231226, 9.878919472691907, 9.0]",False,389.069554900052,391.8214236999629,391.8214236999629,393.0508863000432,['space'],1,3.151695266715251,4.186425466672517,None,1,None,1,,[0.4674929999746382],,,,,,,nefynm,001,english,0,0,2022-05-06_09h50.37.702,Cluster,2022.1.1,None,
,,,,1,0,1,0,15,0,15,0,,,frequency,,,,,,,,,,,,,,,,,,,,,,,,,,,,,,,,,,,,,,,,,,,,,,,,,,,,,,,,,,,,,,,,,,,,,,,,,,,,,,,,,,,,,,,,,,,,,,,,,,,,,,,,,,,,,,,,,,,,393.3001207000343,None,267.9433656340732,-2.0,0.00011793657968902869,1,"[0.7867368405336067, 0.786383467984269, 0.5167067338984617, 0.4804778472412632]","[425.3335804754277, 378.9291416275994, 337.5874865420474, 300.75625902052906]",Tone,"[2.0, 3.5416604876652187, 5.0, 7.0]",False,395.1357216000324,398.2545921000419,398.2545921000419,399.49870390002616,['space'],1,3.58267493348103,4.6133859334513545,None,1,None,1,,[0.5060858000069857],,,,,,,nefynm,001,english,0,0,2022-05-06_09h50.37.702,Cluster,2022.1.1,None,
,,,,1,0,1,0,16,0,16,0,,,time,,,,,,,,,,,,,,,,,,,,,,,,,,,,,,,,,,,,,,,,,,,,,,,,,,,,,,,,,,,,,,,,,,,,,,,,,,,,,,,,,,,,,,,,,,,,,,,,,,,,,,,,,,,,,,,,,,,,399.7965659999754,None,350.301191282437,-1.3928064231476451,7.620302542043277e-05,1,"[0.421140786837499, 0.421140786837499, 0.421140786837499, 0.421140786837499]","[1039.3510751121669, 1067.6078673977845, 689.2779275232072, 4415.044023583866]",None,"[10.0, 8.709070939796105, 9.0, -2.0]",False,400.78210369998123,403.0842873000074,403.0842873000074,404.3000162000535,['space'],1,2.7172564667416736,3.7337704667588696,None,1,None,1,,[0.40519409999251366],,,,,,,nefynm,001,english,0,0,2022-05-06_09h50.37.702,Cluster,2022.1.1,None,
,,,,1,0,1,0,17,0,17,0,,,both,,,,,,,,,,,,,,,,,,,,,,,,,,,,,,,,,,,,,,,,,,,,,,,,,,,,,,,,,,,,,,,,,,,,,,,,,,,,,,,,,,,,,,,,,,,,,,,,,,,,,,,,,,,,,,,,,,,,404.5602711000247,None,,,,,"[0.7806765319133213, 0.7806765319133213, 0.7806765319133213, 0.7806765319133213]","[161.39396337564924, 241.8177174909112, 362.31719743079833, 542.862420984691]",Perfect_5th,"[10.245471099602025, 10.0, 4.0, 2.3060730557172535]",True,405.5698483999586,408.93814590002876,408.93814590002876,410.18127539998386,None,1,4.1597236667294055,5.185778766754083,None,1,['space'],0,[0.6147200000705197],,0,,,,,,nefynm,001,english,0,0,2022-05-06_09h50.37.702,Cluster,2022.1.1,None,
,,,,1,0,1,0,18,0,18,0,,,time,,,,,,,,,,,,,,,,,,,,,,,,,,,,,,,,,,,,,,,,,,,,,,,,,,,,,,,,,,,,,,,,,,,,,,,,,,,,,,,,,,,,,,,,,,,,,,,,,,,,,,,,,,,,,,,,,,,,410.79850849998184,None,1319.5079107728945,-7.0,2.3577555098377164e-05,1,"[0.5968842280739296, 0.5968842280739296, 0.5968842280739296, 0.5968842280739296]","[742.6593134773482, 6211.307781466029, 436.0327796507109, 4199.363667553816]",None,"[11.0, -4.306355949430751, 1.8810953384182945, 0.0]",False,411.8207151000388,414.6289477000246,414.6289477000246,415.86369090003427,['space'],1,3.414812866714783,4.441657366696745,None,1,None,1,,[0.14606410008855164],,,,,,,nefynm,001,english,0,0,2022-05-06_09h50.37.702,Cluster,2022.1.1,None,
,,,,1,0,1,0,19,0,19,0,,,time,,,,,,,,,,,,,,,,,,,,,,,,,,,,,,,,,,,,,,,,,,,,,,,,,,,,,,,,,,,,,,,,,,,,,,,,,,,,,,,,,,,,,,,,,,,,,,,,,,,,,,,,,,,,,,,,,,,,416.3086293999804,None,1096.537234763642,2.0,6.0542124055483047e-05,1,"[0.6971977070597657, 0.6971977070597657, 0.6971977070597657, 0.6971977070597657]","[1449.3542632355056, 476.8052617744863, 369.97937999120325, 4720.4115688198135]",None,"[-2.0, 1.5121754791380786, 4.0, -2.3823907161649984]",False,417.3214430999942,420.44560420000926,420.44560420000926,421.6860609999858,['space'],1,3.828568566706963,4.857135566766374,None,1,None,1,,[0.3227614000206813],,,,,,,nefynm,001,english,0,0,2022-05-06_09h50.37.702,Cluster,2022.1.1,None,
,,,,2,0,2,0,0,0,0,0,,,none,,,,,,,,,,,,,,,,,,,,,,,,,,,,,,,,,,,,,,,,,,,,,,,,,,,,,,,,,,,,,,,,,,,,,,,,,,,,,,,,,,,,,,,,,,,,,,,,,,,,,,,,,,,,,,,,,,,,449.0773259999696,None,707.1067811865476,1.0,4.982092697845807e-05,1,"[0.7350176646511363, 0.791867715573157, 0.6553253328769333, 0.7687314124121737]","[5866.279754769134, 1145.372352009101, 3933.503617722677, 1198.2012445382031]",None,"[-4.0, 5.699398071375852, 1.0, 4.0]",False,450.0772201999789,453.28609169996344,453.28609169996344,454.52037789998576,['space'],1,3.955010766745545,4.97631866671145,None,1,None,1,,[0.3537925999844447],,,,,,,nefynm,001,english,0,0,2022-05-06_09h50.37.702,Cluster,2022.1.1,None,
,,,,2,0,2,0,1,0,1,0,,,both,,,,,,,,,,,,,,,,,,,,,,,,,,,,,,,,,,,,,,,,,,,,,,,,,,,,,,,,,,,,,,,,,,,,,,,,,,,,,,,,,,,,,,,,,,,,,,,,,,,,,,,,,,,,,,,,,,,,455.1107264000457,None,,,,,"[0.634186759027061, 0.634186759027061, 0.634186759027061, 0.634186759027061]","[4519.139618805955, 3586.8434924418707, 2846.879566573758, 2259.5698094029776]",Major_3rd,"[-2.0, 5.0, 9.878919472691907, 6.0]",True,456.11947609996423,459.05903550004587,459.05903550004587,460.2817882000236,None,1,3.552208366803825,4.569109366741031,None,1,None,1,,,0,,,,,,nefynm,001,english,0,0,2022-05-06_09h50.37.702,Cluster,2022.1.1,None,
,,,,2,0,2,0,2,0,2,0,,,time,,,,,,,,,,,,,,,,,,,,,,,,,,,,,,,,,,,,,,,,,,,,,,,,,,,,,,,,,,,,,,,,,,,,,,,,,,,,,,,,,,,,,,,,,,,,,,,,,,,,,,,,,,,,,,,,,,,,460.72785499994643,None,217.63764082403114,-6.0,0.00011571748233929631,0,"[0.41014500210948457, 0.41014500210948457, 0.41014500210948457, 0.41014500210948457]","[1348.5398442657065, 1437.2689183511477, 861.2435015032286, 311.3840458246619]",None,"[0.0, -2.0, 13.68805040169973, 6.8241492997937545]",False,461.73706069996115,463.9851539999945,463.9851539999945,465.22487779997755,None,0,2.6588651333004236,3.687642233329825,None,1,None,1,,,,,,,,,nefynm,001,english,0,0,2022-05-06_09h50.37.702,Cluster,2022.1.1,None,
,,,,2,0,2,0,3,0,3,0,,,frequency,,,,,,,,,,,,,,,,,,,,,,,,,,,,,,,,,,,,,,,,,,,,,,,,,,,,,,,,,,,,,,,,,,,,,,,,,,,,,,,,,,,,,,,,,,,,,,,,,,,,,,,,,,,,,,,,,,,,465.4683804999804,None,2526.228614699849,3.0,0.0001190281740668706,1,"[0.6462570564049774, 0.6569535825321711, 0.5388045245342923, 0.7427609781013531]","[6365.697217014211, 5052.457229399699, 4010.137960486708, 3182.848608507105]",Major_3rd,"[-5.0, -3.1701608221140987, 0.9066411805858392, 8.0]",False,466.4686318000313,469.3460838999599,469.3460838999599,470.57203729997855,['space'],1,3.6115413666702807,4.625167366699316,None,1,['space'],0,[-3.4092445999849588],[0.3046384999761358],,,,,,,nefynm,001,english,0,0,2022-05-06_09h50.37.702,Cluster,2022.1.1,None,
,,,,2,0,2,0,4,0,4,0,,,time,,,,,,,,,,,,,,,,,,,,,,,,,,,,,,,,,,,,,,,,,,,,,,,,,,,,,,,,,,,,,,,,,,,,,,,,,,,,,,,,,,,,,,,,,,,,,,,,,,,,,,,,,,,,,,,,,,,,471.13299579999875,None,6470.966671741102,-11.13947932704697,3.7494868875056936e-05,1,"[0.5344444770857241, 0.5344444770857241, 0.5344444770857241, 0.5344444770857241]","[3181.3133884572303, 691.857893213216, 2328.1760839605363, 126.64982964806731]",None,"[8.0, 9.0, 7.0, 9.490574947021436]",False,472.15058689995203,474.78162579995114,474.78162579995114,476.0166850000387,['space'],1,3.158941866713576,4.188781666685827,None,1,None,1,,[0.003994600032456219],,,,,,,nefynm,001,english,0,0,2022-05-06_09h50.37.702,Cluster,2022.1.1,None,
,,,,2,0,2,0,5,0,5,0,,,frequency,,,,,,,,,,,,,,,,,,,,,,,,,,,,,,,,,,,,,,,,,,,,,,,,,,,,,,,,,,,,,,,,,,,,,,,,,,,,,,,,,,,,,,,,,,,,,,,,,,,,,,,,,,,,,,,,,,,,476.3817524999613,None,,,,,"[0.7387032645941131, 0.7817196884715936, 0.5551489533103775, 0.5514547369732206]","[287.60462079998933, 256.22658800194887, 228.2719388044091, 203.36717766825805]",Tone,"[7.863398994928131, 9.542511536681426, 10.096333932716702, 10.567047562418644]",True,477.4004645999521,480.4928066000575,480.4928066000575,481.7036421999801,None,1,3.6602560667088255,4.683518666657619,None,1,None,1,,,0,,,,,,nefynm,001,english,0,0,2022-05-06_09h50.37.702,Cluster,2022.1.1,None,
,,,,2,0,2,0,6,0,6,0,,,both,,,,,,,,,,,,,,,,,,,,,,,,,,,,,,,,,,,,,,,,,,,,,,,,,,,,,,,,,,,,,,,,,,,,,,,,,,,,,,,,,,,,,,,,,,,,,,,,,,,,,,,,,,,,,,,,,,,,482.120384800015,None,6376.0830071612545,-11.0,3.729121824097483e-05,0,"[0.408819378998676, 0.408819378998676, 0.408819378998676, 0.408819378998676]","[4016.6805982997334, 4508.571531772037, 5060.700436502168, 5680.444177836362]",Tone,"[0.9066411805858392, -2.0, -3.1701608221140987, -3.8431547423451313]",False,483.11447509995196,485.36949419998564,485.36949419998564,486.6005966999801,None,0,2.669609966687858,3.692365466733463,None,1,None,1,,,,,,,,,nefynm,001,english,0,0,2022-05-06_09h50.37.702,Cluster,2022.1.1,None,
,,,,2,0,2,0,7,0,7,0,,,both,,,,,,,,,,,,,,,,,,,,,,,,,,,,,,,,,,,,,,,,,,,,,,,,,,,,,,,,,,,,,,,,,,,,,,,,,,,,,,,,,,,,,,,,,,,,,,,,,,,,,,,,,,,,,,,,,,,,486.8519956000382,None,353.5533905932738,0.0,8.861233020703779e-05,0,"[0.7795186854487344, 0.7795186854487344, 0.7795186854487344, 0.7795186854487344]","[222.72467953508485, 250.00000000000003, 280.6155120773433, 314.9802624737183]",Tone,"[10.432425410968461, 9.542511536681426, 8.0, 6.8241492997937545]",False,488.5034642999526,491.8699003000511,491.8699003000511,493.10540879995096,None,0,4.135057200095616,5.158187700086273,None,1,None,1,,,,,,,,,nefynm,001,english,0,0,2022-05-06_09h50.37.702,Cluster,2022.1.1,None,
,,,,2,0,2,0,8,0,8,0,,,time,,,,,,,,,,,,,,,,,,,,,,,,,,,,,,,,,,,,,,,,,,,,,,,,,,,,,,,,,,,,,,,,,,,,,,,,,,,,,,,,,,,,,,,,,,,,,,,,,,,,,,,,,,,,,,,,,,,,493.70089860004373,None,125.0,-5.0,0.00040641525808204974,1,"[0.62732930501724, 0.62732930501724, 0.62732930501724, 0.62732930501724]","[2628.4745084103, 225.3639901083764, 694.7942263691941, 3002.7465490067816]",None,"[9.67595133734369, 10.432425410968461, 9.0, 9.206231582890727]",False,494.73145880002994,497.6528554999968,497.6528554999968,498.87416939996183,['space'],1,3.528652933309786,4.563752533285879,None,1,None,1,,[0.46044060005806386],,,,,,,nefynm,001,english,0,0,2022-05-06_09h50.37.702,Cluster,2022.1.1,None,
,,,,2,0,2,0,9,0,9,0,,,none,,,,,,,,,,,,,,,,,,,,,,,,,,,,,,,,,,,,,,,,,,,,,,,,,,,,,,,,,,,,,,,,,,,,,,,,,,,,,,,,,,,,,,,,,,,,,,,,,,,,,,,,,,,,,,,,,,,,499.3348120000446,None,,,,,"[0.7311560185995543, 0.4861037756014559, 0.4191006531754702, 0.4967525402018665]","[302.47270129670045, 995.5467247824171, 419.45116354061753, 254.15360451584183]",None,"[7.0, 11.26840669618649, 2.0, 9.542511536681426]",True,500.3516641999595,503.01406660000794,503.01406660000794,504.2363491000142,None,1,3.1647263667546213,4.211293366737664,None,1,None,1,,,0,,,,,,nefynm,001,english,0,0,2022-05-06_09h50.37.702,Cluster,2022.1.1,None,
,,,,2,0,2,0,10,0,10,0,,,frequency,,,,,,,,,,,,,,,,,,,,,,,,,,,,,,,,,,,,,,,,,,,,,,,,,,,,,,,,,,,,,,,,,,,,,,,,,,,,,,,,,,,,,,,,,,,,,,,,,,,,,,,,,,,,,,,,,,,,504.5969983000541,None,378.9291416275994,-6.0,4.110966093181886e-05,1,"[0.47756483850784087, 0.45899898872268474, 0.6147779953818794, 0.6586840414904662]","[601.5125180410581, 535.8867312681464, 477.4208019552081, 425.3335804754277]",Tone,"[5.0, 2.3060730557172535, 1.5121754791380786, 2.0]",False,505.6245246999897,508.18940949998796,508.18940949998796,509.4191124000354,['space'],1,3.2225826332578436,4.262993733165786,None,1,None,1,,[0.5430873000295833],,,,,,,nefynm,001,english,0,0,2022-05-06_09h50.37.702,Cluster,2022.1.1,None,
,,,,2,0,2,0,11,0,11,0,,,both,,,,,,,,,,,,,,,,,,,,,,,,,,,,,,,,,,,,,,,,,,,,,,,,,,,,,,,,,,,,,,,,,,,,,,,,,,,,,,,,,,,,,,,,,,,,,,,,,,,,,,,,,,,,,,,,,,,,509.9364525000565,None,352.1209701396209,-1.3928064231476451,7.58005883184367e-05,1,"[0.5556751278773293, 0.5556751278773293, 0.5556751278773293, 0.5556751278773293]","[221.8223111941562, 248.98712578371175, 279.4785992098486, 313.70412092772096]",Tone,"[10.432425410968461, 9.542511536681426, 8.0, 6.8241492997937545]",False,510.93595059996005,513.6284258000087,513.6284258000087,514.8686405000044,['space'],1,3.2636524667032063,4.295466966810636,None,1,None,1,,[0.49001369997859],,,,,,,nefynm,001,english,0,0,2022-05-06_09h50.37.702,Cluster,2022.1.1,None,
,,,,2,0,2,0,12,0,12,0,,,time,,,,,,,,,,,,,,,,,,,,,,,,,,,,,,,,,,,,,,,,,,,,,,,,,,,,,,,,,,,,,,,,,,,,,,,,,,,,,,,,,,,,,,,,,,,,,,,,,,,,,,,,,,,,,,,,,,,,515.2834873000393,None,650.2568589012684,1.0,5.5414551483851385e-05,0,"[0.6283621727326485, 0.6283621727326485, 0.6283621727326485, 0.6283621727326485]","[7295.613439881303, 2777.253792459557, 387.61839081567564, 279.30640739971597]",None,"[-7.0, 9.878919472691907, 3.0, 8.0]",False,516.2848462000256,519.1935364999808,519.1935364999808,520.423249799991,None,0,3.5514222666388378,4.583043566672131,None,1,None,1,,,,,,,,,nefynm,001,english,0,0,2022-05-06_09h50.37.702,Cluster,2022.1.1,None,
,,,,2,0,2,0,13,0,13,0,,,time,,,,,,,,,,,,,,,,,,,,,,,,,,,,,,,,,,,,,,,,,,,,,,,,,,,,,,,,,,,,,,,,,,,,,,,,,,,,,,,,,,,,,,,,,,,,,,,,,,,,,,,,,,,,,,,,,,,,520.9138022999978,None,,,,,"[0.44857949703852934, 0.44857949703852934, 0.44857949703852934, 0.44857949703852934]","[2098.18321429618, 245.25059264661533, 833.0568813501151, 1943.4735897285086]",None,"[4.0, 9.542511536681426, 13.29151386160071, 2.0]",True,521.9297432999592,524.3041672999971,524.3041672999971,525.5408955999883,['space'],0,2.835552166798152,3.8743681667838246,None,1,['space'],0,[-3.375908499932848],[0.4681385000003502],0,,,,,,nefynm,001,english,0,0,2022-05-06_09h50.37.702,Cluster,2022.1.1,None,
,,,,2,0,2,0,14,0,14,0,,,frequency,,,,,,,,,,,,,,,,,,,,,,,,,,,,,,,,,,,,,,,,,,,,,,,,,,,,,,,,,,,,,,,,,,,,,,,,,,,,,,,,,,,,,,,,,,,,,,,,,,,,,,,,,,,,,,,,,,,,525.8414430000121,None,950.2174966967849,7.0,9.54535464513225e-05,1,"[0.7746412082236431, 0.49307984695985385, 0.5512354004152293, 0.5431704933493029]","[598.5995130333456, 671.9052355164023, 754.1881269275326, 846.5475497616877]",Tone,"[5.0, 8.0, 11.950290616201528, 13.68805040169973]",False,526.8571430000011,529.7082657000283,529.7082657000283,530.9263987999875,['space'],1,3.3928813667735085,4.427863566786982,None,1,None,1,,[0.4238682999275625],,,,,,,nefynm,001,english,0,0,2022-05-06_09h50.37.702,Cluster,2022.1.1,None,
,,,,2,0,2,0,15,0,15,0,,,frequency,,,,,,,,,,,,,,,,,,,,,,,,,,,,,,,,,,,,,,,,,,,,,,,,,,,,,,,,,,,,,,,,,,,,,,,,,,,,,,,,,,,,,,,,,,,,,,,,,,,,,,,,,,,,,,,,,,,,531.3260995000601,None,1624.5047927124701,-8.0,2.3033289856376017e-05,1,"[0.5677295502633872, 0.6820918672756361, 0.5146871132016758, 0.4250298425019259]","[644.6851542197894, 812.2523963562353, 1023.3738919967745, 1289.3703084395786]",Major_3rd,"[7.0, 13.29151386160071, 10.0, 1.0]",False,533.3701798999682,536.1653547000606,536.1653547000606,537.3906991999829,['space'],1,3.2122866000281647,4.253080600057729,None,1,None,1,,[0.19894170004408807],,,,,,,nefynm,001,english,0,0,2022-05-06_09h50.37.702,Cluster,2022.1.1,None,
,,,,2,0,2,0,16,0,16,0,,,none,,,,,,,,,,,,,,,,,,,,,,,,,,,,,,,,,,,,,,,,,,,,,,,,,,,,,,,,,,,,,,,,,,,,,,,,,,,,,,,,,,,,,,,,,,,,,,,,,,,,,,,,,,,,,,,,,,,,537.664592999965,None,5670.112177068829,-9.843154742345131,4.12259081008306e-05,0,"[0.7678505842711134, 0.4682232204922379, 0.47644891914018, 0.6570480703278989]","[891.2882655307068, 170.3990282338121, 1816.742078333507, 743.4918583814415]",None,"[13.68805040169973, 10.245471099602025, 0.0, 11.0]",False,538.6602967999643,541.3869208999677,541.3869208999677,542.617780599976,None,0,3.3931106666568667,4.429790966678411,None,1,None,1,,,,,,,,,nefynm,001,english,0,0,2022-05-06_09h50.37.702,Cluster,2022.1.1,None,
,,,,2,0,2,0,17,0,17,0,,,both,,,,,,,,,,,,,,,,,,,,,,,,,,,,,,,,,,,,,,,,,,,,,,,,,,,,,,,,,,,,,,,,,,,,,,,,,,,,,,,,,,,,,,,,,,,,,,,,,,,,,,,,,,,,,,,,,,,,543.1406692999881,None,,,,,"[0.665363204502688, 0.665363204502688, 0.665363204502688, 0.665363204502688]","[2099.635911102274, 2645.3754815129555, 3332.9642540339582, 4199.271822204547]",Major_3rd,"[4.0, 9.67595133734369, 7.0, 0.0]",True,544.1558518999955,547.1719351999927,547.1719351999927,548.3891996999737,None,1,3.7072982667014003,4.729465066688135,None,1,None,1,,,0,,,,,,nefynm,001,english,0,0,2022-05-06_09h50.37.702,Cluster,2022.1.1,None,
,,,,2,0,2,0,18,0,18,0,,,both,,,,,,,,,,,,,,,,,,,,,,,,,,,,,,,,,,,,,,,,,,,,,,,,,,,,,,,,,,,,,,,,,,,,,,,,,,,,,,,,,,,,,,,,,,,,,,,,,,,,,,,,,,,,,,,,,,,,548.9204308000626,None,574.3491774985172,0.0,5.984619860562044e-05,1,"[0.6864595772742907, 0.6864595772742907, 0.6864595772742907, 0.6864595772742907]","[1447.2692374403773, 1148.6983549970344, 911.7224885582164, 723.6346187201887]",Major_3rd,"[-2.0, 5.699398071375852, 13.000626279128747, 11.0]",False,549.9331817999482,553.032281700056,553.032281700056,554.2726151000243,['space'],1,3.756085866712965,4.781052966718562,None,1,None,1,,[0.2008184000151232],,,,,,,nefynm,001,english,0,0,2022-05-06_09h50.37.702,Cluster,2022.1.1,None,
,,,,2,0,2,0,19,0,19,0,,,time,,,,,,,,,,,,,,,,,,,,,,,,,,,,,,,,,,,,,,,,,,,,,,,,,,,,,,,,,,,,,,,,,,,,,,,,,,,,,,,,,,,,,,,,,,,,,,,,,,,,,,,,,,,,,,,,,,,,554.7642010999843,None,4924.577653379667,-13.0,3.303379824708078e-05,1,"[0.5379104878198729, 0.5379104878198729, 0.5379104878198729, 0.5379104878198729]","[138.42424367136212, 282.49237568025694, 181.2637139383883, 1471.8975223263892]",None,"[9.701383027368967, 8.0, 10.41839078124893, -2.0]",False,555.804501799983,558.4329274999909,558.4329274999909,559.6712435999652,['space'],1,3.167230333434418,4.19891443348024,None,1,None,1,,[0.003817399963736534],,,,,,,nefynm,001,english,0,0,2022-05-06_09h50.37.702,Cluster,2022.1.1,None,
,,,,3,0,3,0,0,0,0,0,,,frequency,,,,,,,,,,,,,,,,,,,,,,,,,,,,,,,,,,,,,,,,,,,,,,,,,,,,,,,,,,,,,,,,,,,,,,,,,,,,,,,,,,,,,,,,,,,,,,,,,,,,,,,,,,,,,,,,,,,,565.7111033999827,None,4571.840936632223,-8.382390716164998,4.6967230244966254e-05,1,"[0.544305480115679, 0.6981230598109127, 0.7214995005359963, 0.6355343102045228]","[1814.3362780603177, 2285.920468316112, 2880.079316417016, 3628.672556120635]",Major_3rd,"[0.0, 6.990211164607461, 9.878919472691907, 4.0]",False,566.7052102000453,569.7087308999617,569.7087308999617,570.9226823999779,['space'],1,3.6434088667156175,4.6632976667024195,None,1,None,1,,[0.2277640999527648],,,,,,,nefynm,001,english,0,0,2022-05-06_09h50.37.702,Cluster,2022.1.1,None,
,,,,3,0,3,0,1,0,1,0,,,frequency,,,,,,,,,,,,,,,,,,,,,,,,,,,,,,,,,,,,,,,,,,,,,,,,,,,,,,,,,,,,,,,,,,,,,,,,,,,,,,,,,,,,,,,,,,,,,,,,,,,,,,,,,,,,,,,,,,,,571.4108283000533,None,,,,,"[0.4103237774266527, 0.42879422598421846, 0.45795756763645024, 0.4647954247411019]","[296.57224094769174, 264.2158292963064, 235.3895436324661, 209.7082426858035]",Tone,"[7.0, 9.0, 10.0, 10.567047562418644]",True,572.4386982000433,574.7550882999785,574.7550882999785,575.984847499989,None,1,2.777986566768959,3.8119325666921213,None,1,None,1,,,0,,,,,,nefynm,001,english,0,0,2022-05-06_09h50.37.702,Cluster,2022.1.1,None,
,,,,3,0,3,0,2,0,2,0,,,none,,,,,,,,,,,,,,,,,,,,,,,,,,,,,,,,,,,,,,,,,,,,,,,,,,,,,,,,,,,,,,,,,,,,,,,,,,,,,,,,,,,,,,,,,,,,,,,,,,,,,,,,,,,,,,,,,,,,576.2857042000396,None,287.17458874925893,-6.0,6.420189766487367e-05,1,"[0.7661549750772151, 0.6107507111520902, 0.546798158436724, 0.7315946201373844]","[168.61489924737808, 6985.690056930281, 4407.716659674153, 3171.57305369265]",None,"[10.245471099602025, -6.3705667153290815, -2.0, 8.0]",False,577.3066139000002,580.2595773000503,580.2595773000503,581.496211700025,['space'],1,3.6849356333259493,4.710389633313753,None,1,None,1,,[0.4653646000660956],,,,,,,nefynm,001,english,0,0,2022-05-06_09h50.37.702,Cluster,2022.1.1,None,
,,,,3,0,3,0,3,0,3,0,,,time,,,,,,,,,,,,,,,,,,,,,,,,,,,,,,,,,,,,,,,,,,,,,,,,,,,,,,,,,,,,,,,,,,,,,,,,,,,,,,,,,,,,,,,,,,,,,,,,,,,,,,,,,,,,,,,,,,,,582.0569134999532,None,915.1705356579644,7.000626279128747,9.323027977851038e-05,1,"[0.6365097649843678, 0.6365097649843678, 0.6365097649843678, 0.6365097649843678]","[1324.7609671804491, 1419.0818885741817, 655.3026043579753, 589.383657015873]",None,"[0.0, -1.7074087051123037, 7.672047411979337, 4.0]",False,583.0481916000135,585.9730499000289,585.9730499000289,587.1901100999676,['space'],1,3.562323866644874,4.580528266727924,None,1,None,1,,[0.3196971999714151],,,,,,,nefynm,001,english,0,0,2022-05-06_09h50.37.702,Cluster,2022.1.1,None,
,,,,3,0,3,0,4,0,4,0,,,both,,,,,,,,,,,,,,,,,,,,,,,,,,,,,,,,,,,,,,,,,,,,,,,,,,,,,,,,,,,,,,,,,,,,,,,,,,,,,,,,,,,,,,,,,,,,,,,,,,,,,,,,,,,,,,,,,,,,587.6767920999555,None,2060.510116691257,-2.0,6.049057900783936e-05,1,"[0.766096061568576, 0.766096061568576, 0.766096061568576, 0.766096061568576]","[3270.8559268268186, 2914.001352431744, 2596.080069540656, 2312.8444061434534]",Tone,"[7.715417315930713, 9.878919472691907, 9.67595133734369, 7.0]",False,588.6933268000139,592.0319770999486,592.0319770999486,593.2589552999707,['space'],1,4.08543356670998,5.116702966624871,None,1,None,1,,[0.5169254000065848],,,,,,,nefynm,001,english,0,0,2022-05-06_09h50.37.702,Cluster,2022.1.1,None,
,,,,3,0,3,0,5,0,5,0,,,both,,,,,,,,,,,,,,,,,,,,,,,,,,,,,,,,,,,,,,,,,,,,,,,,,,,,,,,,,,,,,,,,,,,,,,,,,,,,,,,,,,,,,,,,,,,,,,,,,,,,,,,,,,,,,,,,,,,,593.8550198000157,None,,,,,"[0.42772378982970105, 0.42772378982970105, 0.42772378982970105, 0.42772378982970105]","[152.343796588231, 171.00012996565223, 191.941156142415, 215.44666327848432]",Tone,"[10.062230116357714, 10.41839078124893, 10.543619371000801, 10.432425410968461]",True,594.8565832000459,597.1538253000472,597.1538253000472,598.3714429000393,None,1,2.741049366770312,3.7546103667700663,None,1,None,1,,,0,,,,,,nefynm,001,english,0,0,2022-05-06_09h50.37.702,Cluster,2022.1.1,None,
,,,,3,0,3,0,6,0,6,0,,,frequency,,,,,,,,,,,,,,,,,,,,,,,,,,,,,,,,,,,,,,,,,,,,,,,,,,,,,,,,,,,,,,,,,,,,,,,,,,,,,,,,,,,,,,,,,,,,,,,,,,,,,,,,,,,,,,,,,,,,598.6543237000005,None,189.4645708137998,2.0,0.0003824766710234111,0,"[0.7628708846009917, 0.4610529932612915, 0.4021615572378768, 0.664422427716924]","[477.4208019552084, 378.9291416275996, 300.7562590205292, 238.7104009776042]",Major_3rd,"[1.5121754791380786, 3.5416604876652187, 7.0, 10.0]",False,599.6793834000127,602.3465445999755,602.3465445999755,603.5613656999776,None,0,3.3066035667434335,4.337274766759947,None,1,None,1,,,,,,,,,nefynm,001,english,0,0,2022-05-06_09h50.37.702,Cluster,2022.1.1,None,
,,,,3,0,3,0,7,0,7,0,,,time,,,,,,,,,,,,,,,,,,,,,,,,,,,,,,,,,,,,,,,,,,,,,,,,,,,,,,,,,,,,,,,,,,,,,,,,,,,,,,,,,,,,,,,,,,,,,,,,,,,,,,,,,,,,,,,,,,,,604.0695389000466,None,267.9433656340732,0.0,0.00014847335715060603,1,"[0.7763854735802975, 0.7763854735802975, 0.7763854735802975, 0.7763854735802975]","[305.32323153460584, 1077.3000509484534, 671.7696050677681, 5314.8540697957105]",None,"[7.0, 8.709070939796105, 8.0, -3.5611283207333813]",False,605.0985597999534,608.4457675999729,608.4457675999729,609.6678122000303,['space'],1,4.109791966737248,5.141916966764256,None,1,None,1,,[0.07489130005706102],,,,,,,nefynm,001,english,0,0,2022-05-06_09h50.37.702,Cluster,2022.1.1,None,
,,,,3,0,3,0,8,0,8,0,,,frequency,,,,,,,,,,,,,,,,,,,,,,,,,,,,,,,,,,,,,,,,,,,,,,,,,,,,,,,,,,,,,,,,,,,,,,,,,,,,,,,,,,,,,,,,,,,,,,,,,,,,,,,,,,,,,,,,,,,,610.287881199969,None,282.685572040996,2.0,0.00016725495292814498,1,"[0.6718768872759404, 0.6926431526659791, 0.6639396492523189, 0.6593852518771777]","[448.73537443410936, 399.7777698675732, 356.16150271602453, 317.3038262206432]",Tone,"[1.8810953384182945, 3.0, 4.607193576852355, 6.0]",False,611.3000989999855,614.3442641999573,614.3442641999573,615.5807252000086,['space'],1,3.704776866710745,4.717001566663384,None,1,None,1,,[0.24214680003933609],,,,,,,nefynm,001,english,0,0,2022-05-06_09h50.37.702,Cluster,2022.1.1,None,
,,,,3,0,3,0,9,0,9,0,,,both,,,,,,,,,,,,,,,,,,,,,,,,,,,,,,,,,,,,,,,,,,,,,,,,,,,,,,,,,,,,,,,,,,,,,,,,,,,,,,,,,,,,,,,,,,,,,,,,,,,,,,,,,,,,,,,,,,,,616.0677965000505,None,125.0,-3.0,0.0005116464961403772,1,"[0.49348355228542884, 0.49348355228542884, 0.49348355228542884, 0.49348355228542884]","[629.9605249474366, 420.4482076268573, 280.6155120773433, 187.2883846095852]",Perfect_5th,"[6.0, 2.0, 8.0, 10.543619371000801]",False,617.0991134999786,619.5818612000439,619.5818612000439,620.811337799998,['space'],1,2.995062033412978,4.023834433406591,None,1,None,1,,[0.47750010003801435],,,,,,,nefynm,001,english,0,0,2022-05-06_09h50.37.702,Cluster,2022.1.1,None,
,,,,3,0,3,0,10,0,10,0,,,time,,,,,,,,,,,,,,,,,,,,,,,,,,,,,,,,,,,,,,,,,,,,,,,,,,,,,,,,,,,,,,,,,,,,,,,,,,,,,,,,,,,,,,,,,,,,,,,,,,,,,,,,,,,,,,,,,,,,621.1671274000546,None,441.94461569663537,-4.1189046615817055,4.631191313390515e-05,0,"[0.7711609002153397, 0.7711609002153397, 0.7711609002153397, 0.7711609002153397]","[7350.761922869356, 5601.872885152987, 1607.1965270294243, 320.45561838123007]",None,"[-7.8538551942580295, -3.8431547423451313, -2.3652269246217106, 6.0]",False,622.1880551000359,625.5202778000385,625.5202778000385,626.7359150999691,None,0,4.108397766714916,5.13272346672602,None,1,['space'],0,[0.5443141999421641],,,,,,,,nefynm,001,english,0,0,2022-05-06_09h50.37.702,Cluster,2022.1.1,None,
,,,,3,0,3,0,11,0,11,0,,,time,,,,,,,,,,,,,,,,,,,,,,,,,,,,,,,,,,,,,,,,,,,,,,,,,,,,,,,,,,,,,,,,,,,,,,,,,,,,,,,,,,,,,,,,,,,,,,,,,,,,,,,,,,,,,,,,,,,,627.3692424000474,None,8000.0,-8.0,7.22719885372964e-05,0,"[0.7685946615151941, 0.7685946615151941, 0.7685946615151941, 0.7685946615151941]","[201.68635846217572, 7603.1885545335645, 501.76504110749795, 2234.8545172986264]",None,"[10.567047562418644, -8.0, 1.6183389177672183, 6.0]",False,629.4413320999593,632.7581793999998,632.7581793999998,633.98027369997,None,0,4.09240066667553,5.116545966709964,None,1,['space'],0,[0.6819813000038266],,,,,,,,nefynm,001,english,0,0,2022-05-06_09h50.37.702,Cluster,2022.1.1,None,
,,,,3,0,3,0,12,0,12,0,,,none,,,,,,,,,,,,,,,,,,,,,,,,,,,,,,,,,,,,,,,,,,,,,,,,,,,,,,,,,,,,,,,,,,,,,,,,,,,,,,,,,,,,,,,,,,,,,,,,,,,,,,,,,,,,,,,,,,,,634.5986504000612,None,,,,,"[0.5308992772094026, 0.40742942478989574, 0.5872580489042563, 0.4393951845224117]","[5517.30257288314, 756.3735914691615, 1404.5710626513667, 6877.6354777706365]",None,"[-3.8431547423451313, 11.950290616201528, -1.7074087051123037, -6.0]",True,635.5969230999472,638.137663200032,638.137663200032,639.3826436999952,['space'],0,2.9852889666799456,4.002368766698055,None,1,None,1,,[0.5396573999896646],0,,,,,,nefynm,001,english,0,0,2022-05-06_09h50.37.702,Cluster,2022.1.1,None,
,,,,3,0,3,0,13,0,13,0,,,time,,,,,,,,,,,,,,,,,,,,,,,,,,,,,,,,,,,,,,,,,,,,,,,,,,,,,,,,,,,,,,,,,,,,,,,,,,,,,,,,,,,,,,,,,,,,,,,,,,,,,,,,,,,,,,,,,,,,639.6493048999691,None,257.27485474944757,3.0,0.00022568913715882675,0,"[0.4426023062437716, 0.4426023062437716, 0.4426023062437716, 0.4426023062437716]","[428.23429601335334, 5347.757027258689, 214.7928101070841, 409.32948812984307]",None,"[2.0, -3.5611283207333813, 10.432425410968461, 2.5993568148196537]",False,640.6552771000424,643.0102722999873,643.0102722999873,644.2205396000063,None,0,2.792928766575642,3.8009685666766018,None,1,None,1,,,,,,,,,nefynm,001,english,0,0,2022-05-06_09h50.37.702,Cluster,2022.1.1,None,
,,,,3,0,3,0,14,0,14,0,,,both,,,,,,,,,,,,,,,,,,,,,,,,,,,,,,,,,,,,,,,,,,,,,,,,,,,,,,,,,,,,,,,,,,,,,,,,,,,,,,,,,,,,,,,,,,,,,,,,,,,,,,,,,,,,,,,,,,,,644.4999994999962,None,942.049519258688,7.0,9.49338295863338e-05,1,"[0.5621610893510449, 0.5621610893510449, 0.5621610893510449, 0.5621610893510449]","[186.92629973467223, 280.07299774683116, 419.635354566144, 628.742621454109]",Perfect_5th,"[10.543619371000801, 8.0, 2.0, 6.0]",False,645.5144042000175,648.2445143000223,648.2445143000223,649.4697093999712,['space'],1,3.2878352666739374,4.303620266611688,None,1,['space'],0,[-3.7482652000617236],[0.2856493000872433],,,,,,,nefynm,001,english,0,0,2022-05-06_09h50.37.702,Cluster,2022.1.1,None,
,,,,3,0,3,0,15,0,15,0,,,none,,,,,,,,,,,,,,,,,,,,,,,,,,,,,,,,,,,,,,,,,,,,,,,,,,,,,,,,,,,,,,,,,,,,,,,,,,,,,,,,,,,,,,,,,,,,,,,,,,,,,,,,,,,,,,,,,,,,649.8604759000009,None,1090.9195178282002,2.0,6.024631064751911e-05,1,"[0.5921474888561112, 0.6552947950755985, 0.7498154266138561, 0.40672722067638145]","[3848.0242780910053, 1263.2595026090105, 4123.194042615789, 153.5912110144367]",None,"[2.0, 2.0, 0.0, 10.062230116357714]",False,650.8701377999969,653.9170506000519,653.9170506000519,655.1472662000451,['space'],1,3.431700966670178,4.464598666760139,None,1,None,1,,[0.4185965000651777],,,,,,,nefynm,001,english,0,0,2022-05-06_09h50.37.702,Cluster,2022.1.1,None,
,,,,3,0,3,0,16,0,16,0,,,time,,,,,,,,,,,,,,,,,,,,,,,,,,,,,,,,,,,,,,,,,,,,,,,,,,,,,,,,,,,,,,,,,,,,,,,,,,,,,,,,,,,,,,,,,,,,,,,,,,,,,,,,,,,,,,,,,,,,655.381367300055,None,,,,,"[0.4522922545132617, 0.4522922545132617, 0.4522922545132617, 0.4522922545132617]","[176.78144093328763, 702.1968757475465, 4064.3016510101406, 399.7662148450007]",None,"[10.41839078124893, 9.95723379361977, 0.9066411805858392, 3.0]",True,656.3899281000486,658.7525621999521,658.7525621999521,659.977049899986,None,1,2.8444774666568264,3.8780332666356117,None,1,None,1,,,0,,,,,,nefynm,001,english,0,0,2022-05-06_09h50.37.702,Cluster,2022.1.1,None,
,,,,3,0,3,0,17,0,17,0,,,none,,,,,,,,,,,,,,,,,,,,,,,,,,,,,,,,,,,,,,,,,,,,,,,,,,,,,,,,,,,,,,,,,,,,,,,,,,,,,,,,,,,,,,,,,,,,,,,,,,,,,,,,,,,,,,,,,,,,660.3079650000436,None,176.7766952966369,-4.0,0.00022084830614773677,1,"[0.44791002249005435, 0.509901405806592, 0.7706901953751732, 0.5914604073517644]","[738.6700256208866, 126.51641365593075, 1083.1475378264222, 1316.683389892145]",None,"[11.0, 9.490574947021436, 8.0, 0.10081202206185047]",False,661.3896015000064,664.1530514999758,664.1530514999758,665.373738400056,['space'],1,3.354688600054942,4.387026699958369,None,1,None,1,,[0.21540600003208965],,,,,,,nefynm,001,english,0,0,2022-05-06_09h50.37.702,Cluster,2022.1.1,None,
,,,,3,0,3,0,18,0,18,0,,,none,,,,,,,,,,,,,,,,,,,,,,,,,,,,,,,,,,,,,,,,,,,,,,,,,,,,,,,,,,,,,,,,,,,,,,,,,,,,,,,,,,,,,,,,,,,,,,,,,,,,,,,,,,,,,,,,,,,,665.8176585000474,None,716.7187459548018,4.0,6.903802477622267e-05,1,"[0.77419112902929, 0.5653267383009454, 0.5491877595138742, 0.4125403300851978]","[1999.9474358732004, 1953.391185299601, 238.2193904805903, 2729.2069687197945]",None,"[2.620414932981827, 2.0, 10.0, 9.67595133734369]",False,666.8259897000389,669.7536953999661,669.7536953999661,670.9898877999512,['space'],1,3.345277366694063,4.3667227666592225,None,1,None,1,,[0.39044320001266897],,,,,,,nefynm,001,english,0,0,2022-05-06_09h50.37.702,Cluster,2022.1.1,None,
,,,,3,0,3,0,19,0,19,0,,,none,,,,,,,,,,,,,,,,,,,,,,,,,,,,,,,,,,,,,,,,,,,,,,,,,,,,,,,,,,,,,,,,,,,,,,,,,,,,,,,,,,,,,,,,,,,,,,,,,,,,,,,,,,,,,,,,,,,,671.2362262000097,None,1741.101126592249,-8.0,2.5129199307695022e-05,1,"[0.5148672301090551, 0.4941414310254184, 0.5689593525508782, 0.7222838428396907]","[7260.113160824353, 128.42431767067413, 151.70482675338866, 7971.000252720595]",None,"[-7.0, 9.490574947021436, 10.0, -9.323229806476323]",False,673.1431058000308,675.7456669999519,675.7456669999519,676.9800335000036,['space'],1,3.3133766000391915,4.346831200062297,None,1,None,1,,[0.10522960009984672],,,,,,,nefynm,001,english,0,0,2022-05-06_09h50.37.702,Cluster,2022.1.1,None,
,,,,4,0,4,0,0,0,0,0,,,time,,,,,,,,,,,,,,,,,,,,,,,,,,,,,,,,,,,,,,,,,,,,,,,,,,,,,,,,,,,,,,,,,,,,,,,,,,,,,,,,,,,,,,,,,,,,,,,,,,,,,,,,,,,,,,,,,,,,704.8167420000536,None,1624.5047927124701,-13.0,1.2952570741327918e-05,0,"[0.7906401134945436, 0.7906401134945436, 0.7906401134945436, 0.7906401134945436]","[2859.839824140309, 766.1923972119567, 1203.2207189565393, 390.1412793665223]",None,"[9.878919472691907, 12.0, 4.0, 3.0]",False,705.7915927000577,709.1751383000519,709.1751383000519,710.4008268000325,None,0,4.18875246681273,5.2246004667831585,None,1,None,1,,,,,,,,,nefynm,001,english,0,0,2022-05-06_09h50.37.702,Cluster,2022.1.1,None,
,,,,4,0,4,0,1,0,1,0,,,time,,,,,,,,,,,,,,,,,,,,,,,,,,,,,,,,,,,,,,,,,,,,,,,,,,,,,,,,,,,,,,,,,,,,,,,,,,,,,,,,,,,,,,,,,,,,,,,,,,,,,,,,,,,,,,,,,,,,711.0680681000231,None,678.1197861783149,3.0,6.631142773078029e-05,1,"[0.6746784153250311, 0.6746784153250311, 0.6746784153250311, 0.6746784153250311]","[294.96327476237656, 562.9393102519375, 520.9984850070183, 298.4810880496633]",None,"[7.863398994928131, 3.0, 2.0, 7.0]",False,712.0883800999727,715.138407099992,715.138407099992,716.363311400055,['space'],1,3.726631566765718,4.7420144667848945,None,1,None,1,,[0.3777045999886468],,,,,,,nefynm,001,english,0,0,2022-05-06_09h50.37.702,Cluster,2022.1.1,None,
,,,,4,0,4,0,2,0,2,0,,,time,,,,,,,,,,,,,,,,,,,,,,,,,,,,,,,,,,,,,,,,,,,,,,,,,,,,,,,,,,,,,,,,,,,,,,,,,,,,,,,,,,,,,,,,,,,,,,,,,,,,,,,,,,,,,,,,,,,,716.8772389000515,None,176.7766952966369,-6.0,0.0001754260451641794,1,"[0.7682080363868088, 0.7682080363868088, 0.7682080363868088, 0.7682080363868088]","[4645.376092985111, 473.84050317271596, 438.1726980579552, 684.11698478202]",None,"[-2.3823907161649984, 1.5121754791380786, 1.8810953384182945, 9.0]",False,718.8471856999677,722.1697878000559,722.1697878000559,723.3998423999874,['space'],1,4.114517166628502,5.135927566676401,None,1,None,1,,[0.14064640004653484],,,,,,,nefynm,001,english,0,0,2022-05-06_09h50.37.702,Cluster,2022.1.1,None,
,,,,4,0,4,0,3,0,3,0,,,time,,,,,,,,,,,,,,,,,,,,,,,,,,,,,,,,,,,,,,,,,,,,,,,,,,,,,,,,,,,,,,,,,,,,,,,,,,,,,,,,,,,,,,,,,,,,,,,,,,,,,,,,,,,,,,,,,,,,724.021706199972,None,,,,,"[0.7285613916658646, 0.7285613916658646, 0.7285613916658646, 0.7285613916658646]","[1046.572269057454, 449.0126784575488, 287.94059680249524, 188.78911103568007]",None,"[10.0, 1.8810953384182945, 7.863398994928131, 10.543619371000801]",True,725.0331331000198,728.2362434000243,728.2362434000243,729.4705625999486,['space'],0,3.9409725667210296,4.961515666684136,None,1,None,1,,[0.37266340001951903],0,,,,,,nefynm,001,english,0,0,2022-05-06_09h50.37.702,Cluster,2022.1.1,None,
,,,,4,0,4,0,4,0,4,0,,,both,,,,,,,,,,,,,,,,,,,,,,,,,,,,,,,,,,,,,,,,,,,,,,,,,,,,,,,,,,,,,,,,,,,,,,,,,,,,,,,,,,,,,,,,,,,,,,,,,,,,,,,,,,,,,,,,,,,,730.0332633999642,None,189.4645708137998,-7.0,0.00013570784394859175,0,"[0.5876606143672833, 0.5876606143672833, 0.5876606143672833, 0.5876606143672833]","[954.8416039104168, 637.2803136596312, 425.333580475428, 283.8761072677194]",Perfect_5th,"[12.0, 7.0, 2.0, 8.0]",False,731.0647987000411,733.8546033999883,733.8546033999883,735.0830184000079,None,0,3.3787154332967475,4.396862433291972,None,1,None,1,,,,,,,,,nefynm,001,english,0,0,2022-05-06_09h50.37.702,Cluster,2022.1.1,None,
,,,,4,0,4,0,5,0,5,0,,,time,,,,,,,,,,,,,,,,,,,,,,,,,,,,,,,,,,,,,,,,,,,,,,,,,,,,,,,,,,,,,,,,,,,,,,,,,,,,,,,,,,,,,,,,,,,,,,,,,,,,,,,,,,,,,,,,,,,,735.5055930999806,None,901.6746810150997,7.688050401699729,9.997909056440542e-05,1,"[0.49650274774499153, 0.49650274774499153, 0.49650274774499153, 0.49650274774499153]","[562.4691264095854, 420.83706159864573, 217.3866037832509, 216.60400041993012]",None,"[3.0, 2.0, 10.432425410968461, 10.432425410968461]",False,736.5016646999866,739.0134971999796,739.0134971999796,740.2398151999805,['space'],1,3.0122353666229174,4.028988766716793,None,1,None,1,,[0.43676750001031905],,,,,,,nefynm,001,english,0,0,2022-05-06_09h50.37.702,Cluster,2022.1.1,None,
,,,,4,0,4,0,6,0,6,0,,,time,,,,,,,,,,,,,,,,,,,,,,,,,,,,,,,,,,,,,,,,,,,,,,,,,,,,,,,,,,,,,,,,,,,,,,,,,,,,,,,,,,,,,,,,,,,,,,,,,,,,,,,,,,,,,,,,,,,,740.5770333999535,None,5278.031643091578,-18.0,1.7938839979700792e-05,0,"[0.5113168100341221, 0.5113168100341221, 0.5113168100341221, 0.5113168100341221]","[779.1843659590481, 771.9959145416184, 4712.683512925048, 2041.8313278469284]",None,"[12.0, 12.0, -2.3823907161649984, 3.0]",False,742.6722482000478,745.2369054000592,745.2369054000592,746.4608623000095,None,0,3.065612999955192,4.083838299964555,None,1,None,1,,,,,,,,,nefynm,001,english,0,0,2022-05-06_09h50.37.702,Cluster,2022.1.1,None,
,,,,4,0,4,0,7,0,7,0,,,frequency,,,,,,,,,,,,,,,,,,,,,,,,,,,,,,,,,,,,,,,,,,,,,,,,,,,,,,,,,,,,,,,,,,,,,,,,,,,,,,,,,,,,,,,,,,,,,,,,,,,,,,,,,,,,,,,,,,,,746.7970983999548,None,,,,,"[0.7541692774906112, 0.6113606121218504, 0.6522307681570387, 0.6473261572165292]","[1938.5724196233696, 2175.9739689265048, 2442.4481982291204, 2741.555407473796]",Tone,"[2.0, 5.0, 8.659301605231226, 9.878919472691907]",True,747.8081177000422,750.85644220002,750.85644220002,752.0869338000193,['space'],0,3.6973533666459844,4.715441566659138,None,1,None,1,,[0.2714488999918103],0,,,,,,nefynm,001,english,0,0,2022-05-06_09h50.37.702,Cluster,2022.1.1,None,
,,,,4,0,4,0,8,0,8,0,,,time,,,,,,,,,,,,,,,,,,,,,,,,,,,,,,,,,,,,,,,,,,,,,,,,,,,,,,,,,,,,,,,,,,,,,,,,,,,,,,,,,,,,,,,,,,,,,,,,,,,,,,,,,,,,,,,,,,,,752.56315609999,None,886.3317630638832,7.688050401699729,9.892236366362203e-05,1,"[0.43738448284598075, 0.43738448284598075, 0.43738448284598075, 0.43738448284598075]","[998.8099562325837, 991.5183103149454, 1834.4923995314705, 7461.958389352383]",None,"[11.26840669618649, 11.26840669618649, 0.0, -7.8538551942580295]",False,753.586273199995,755.9235725000035,755.9235725000035,757.1511546999682,['space'],1,2.778079766780138,3.7964425667887554,None,1,None,1,,[0.38730399997439235],,,,,,,nefynm,001,english,0,0,2022-05-06_09h50.37.702,Cluster,2022.1.1,None,
,,,,4,0,4,0,9,0,9,0,,,time,,,,,,,,,,,,,,,,,,,,,,,,,,,,,,,,,,,,,,,,,,,,,,,,,,,,,,,,,,,,,,,,,,,,,,,,,,,,,,,,,,,,,,,,,,,,,,,,,,,,,,,,,,,,,,,,,,,,757.4286566999508,None,125.0,-9.0,0.0002564306919956826,0,"[0.5696908133139265, 0.5696908133139265, 0.5696908133139265, 0.5696908133139265]","[213.0299251783633, 1667.996138559958, 1398.461845029382, 1990.3634563942146]",None,"[10.432425410968461, -2.0, -1.7074087051123037, 2.620414932981827]",False,759.5304065999808,762.2789804999484,762.2789804999484,763.5073930999497,None,0,3.3034768999787048,4.321451699943282,None,1,None,1,,,,,,,,,nefynm,001,english,0,0,2022-05-06_09h50.37.702,Cluster,2022.1.1,None,
,,,,4,0,4,0,10,0,10,0,,,both,,,,,,,,,,,,,,,,,,,,,,,,,,,,,,,,,,,,,,,,,,,,,,,,,,,,,,,,,,,,,,,,,,,,,,,,,,,,,,,,,,,,,,,,,,,,,,,,,,,,,,,,,,,,,,,,,,,,763.8987932000309,None,822.0014095953952,7.291513861600708,9.027484341187125e-05,0,"[0.6531954048100563, 0.6531954048100563, 0.6531954048100563, 0.6531954048100563]","[2071.313757984992, 1644.0028191907907, 1304.8459023110734, 1035.656878992496]",Major_3rd,"[4.0, -2.0, 0.10081202206185047, 10.0]",False,764.9110420000507,767.9005402000621,767.9005402000621,769.1374863999663,None,0,3.6409886666806415,4.665615366655402,None,1,['space'],0,[0.5329740999732167],,,,,,,,nefynm,001,english,0,0,2022-05-06_09h50.37.702,Cluster,2022.1.1,None,
,,,,4,0,4,0,11,0,11,0,,,time,,,,,,,,,,,,,,,,,,,,,,,,,,,,,,,,,,,,,,,,,,,,,,,,,,,,,,,,,,,,,,,,,,,,,,,,,,,,,,,,,,,,,,,,,,,,,,,,,,,,,,,,,,,,,,,,,,,,769.6250910999952,None,554.855143553628,-3.0,4.4520781330685915e-05,0,"[0.7445711859348402, 0.7445711859348402, 0.7445711859348402, 0.7445711859348402]","[524.107343015404, 152.76319800223828, 619.239447708299, 212.42716605365564]",None,"[2.0, 10.062230116357714, 5.458044982307854, 10.432425410968461]",False,770.6336043999763,773.9075233000331,773.9075233000331,775.121396600036,None,0,4.021565866773017,5.049196966807358,None,1,['space'],0,[0.5881834999890998],,,,,,,,nefynm,001,english,0,0,2022-05-06_09h50.37.702,Cluster,2022.1.1,None,
,,,,4,0,4,0,12,0,12,0,,,both,,,,,,,,,,,,,,,,,,,,,,,,,,,,,,,,,,,,,,,,,,,,,,,,,,,,,,,,,,,,,,,,,,,,,,,,,,,,,,,,,,,,,,,,,,,,,,,,,,,,,,,,,,,,,,,,,,,,775.7300853000488,None,4594.793419988137,-8.0,4.970983918879286e-05,0,"[0.6742143539890673, 0.6742143539890673, 0.6742143539890673, 0.6742143539890673]","[7293.779908465733, 6498.019170849882, 5789.07694976151, 5157.481233758314]",Tone,"[-7.0, -5.1394793270469705, -4.0, -3.5611283207333813]",False,776.7540269000456,779.8021398000419,779.8021398000419,781.0327846000437,None,0,3.7151969666592777,4.735876866732724,None,1,None,1,,,,,,,,,nefynm,001,english,0,0,2022-05-06_09h50.37.702,Cluster,2022.1.1,None,
,,,,4,0,4,0,13,0,13,0,,,both,,,,,,,,,,,,,,,,,,,,,,,,,,,,,,,,,,,,,,,,,,,,,,,,,,,,,,,,,,,,,,,,,,,,,,,,,,,,,,,,,,,,,,,,,,,,,,,,,,,,,,,,,,,,,,,,,,,,781.5377475999994,None,569.3630339883001,-2.3938880389558004,4.6020407959979475e-05,0,"[0.6601986073808077, 0.6601986073808077, 0.6601986073808077, 0.6601986073808077]","[1434.7049431077392, 1138.7260679766005, 903.8074791048334, 717.3524715538695]",Major_3rd,"[-2.0, 6.0, 13.000626279128747, 10.0]",False,782.5580645999871,785.5632833000273,785.5632833000273,786.7974606000353,None,0,3.6771448666695505,4.70651916670613,None,1,['space'],0,[-3.7381004000781104],,,,,,,,nefynm,001,english,0,0,2022-05-06_09h50.37.702,Cluster,2022.1.1,None,
,,,,4,0,4,0,14,0,14,0,,,time,,,,,,,,,,,,,,,,,,,,,,,,,,,,,,,,,,,,,,,,,,,,,,,,,,,,,,,,,,,,,,,,,,,,,,,,,,,,,,,,,,,,,,,,,,,,,,,,,,,,,,,,,,,,,,,,,,,,787.3190026000375,None,2143.5469250725882,-3.0,5.521540081768751e-05,1,"[0.46391966377319466, 0.46391966377319466, 0.46391966377319466, 0.46391966377319466]","[781.9285151848808, 4254.950997456433, 3425.4215098011387, 1913.080953051163]",None,"[13.0, -1.0, 6.0, 1.0]",False,788.3481414000271,790.7788594999583,790.7788594999583,792.0027448000619,['space'],1,2.8883037333143875,3.9222554332809523,None,1,['space'],0,[-3.483299499959685],[0.013145600096322596],,,,,,,nefynm,001,english,0,0,2022-05-06_09h50.37.702,Cluster,2022.1.1,None,
,,,,4,0,4,0,15,0,15,0,,,frequency,,,,,,,,,,,,,,,,,,,,,,,,,,,,,,,,,,,,,,,,,,,,,,,,,,,,,,,,,,,,,,,,,,,,,,,,,,,,,,,,,,,,,,,,,,,,,,,,,,,,,,,,,,,,,,,,,,,,792.310125399963,None,353.5533905932738,-11.0,2.4974347895508498e-05,0,"[0.7770830124648282, 0.4872812674962037, 0.44620568195597726, 0.6251231023835168]","[140.30775603867167, 176.77669529663694, 222.72467953508487, 280.6155120773433]",Major_3rd,"[9.883499719674859, 10.41839078124893, 10.432425410968461, 8.0]",False,793.4115990999853,796.1440506000072,796.1440506000072,797.3664075999986,None,0,3.3481999334180728,4.3816697334405035,None,1,['space'],0,[0.49619149998761714],,,,,,,,nefynm,001,english,0,0,2022-05-06_09h50.37.702,Cluster,2022.1.1,None,
,,,,4,0,4,0,16,0,16,0,,,both,,,,,,,,,,,,,,,,,,,,,,,,,,,,,,,,,,,,,,,,,,,,,,,,,,,,,,,,,,,,,,,,,,,,,,,,,,,,,,,,,,,,,,,,,,,,,,,,,,,,,,,,,,,,,,,,,,,,797.8497925000265,None,267.9433656340732,-1.0,0.0001323270188483443,1,"[0.7423727258245647, 0.7423727258245647, 0.7423727258245647, 0.7423727258245647]","[425.3335804754277, 378.9291416275994, 337.5874865420474, 300.75625902052906]",Tone,"[2.0, 3.5416604876652187, 5.0, 7.0]",False,798.8761657000287,802.1338486999739,802.1338486999739,803.3732925000368,['space'],1,3.991201466647908,5.016193666611798,None,1,None,1,,[0.4973325999453664],,,,,,,nefynm,001,english,0,0,2022-05-06_09h50.37.702,Cluster,2022.1.1,None,
,,,,4,0,4,0,17,0,17,0,,,frequency,,,,,,,,,,,,,,,,,,,,,,,,,,,,,,,,,,,,,,,,,,,,,,,,,,,,,,,,,,,,,,,,,,,,,,,,,,,,,,,,,,,,,,,,,,,,,,,,,,,,,,,,,,,,,,,,,,,,803.944256799994,None,2826.5925874429863,3.8789194726919067,0.00010252968288014014,1,"[0.5719421990925257, 0.48714678981809245, 0.5542228522195622, 0.6459892045495945]","[1780.6417501981164, 1998.7027862325647, 2243.4680233962554, 2518.2077128579413]",Tone,"[-1.0, 2.620414932981827, 6.0, 9.0]",False,804.9589651999995,807.6007662999909,807.6007662999909,808.8369549999479,['space'],1,3.276165066752583,4.291350366664119,None,1,None,1,,[0.406814300105907],,,,,,,nefynm,001,english,0,0,2022-05-06_09h50.37.702,Cluster,2022.1.1,None,
,,,,4,0,4,0,18,0,18,0,,,time,,,,,,,,,,,,,,,,,,,,,,,,,,,,,,,,,,,,,,,,,,,,,,,,,,,,,,,,,,,,,,,,,,,,,,,,,,,,,,,,,,,,,,,,,,,,,,,,,,,,,,,,,,,,,,,,,,,,809.2985286000185,None,,,,,"[0.6931255295969743, 0.6931255295969743, 0.6931255295969743, 0.6931255295969743]","[7977.369204235236, 4503.449079184063, 2271.050348417891, 6318.342284521031]",None,"[-9.323229806476323, -2.0, 6.990211164607461, -5.0]",True,810.3145075000357,813.425305700046,813.425305700046,814.6500283000059,None,1,3.8153796666301787,4.839812066638842,None,1,['space'],0,[0.3673891000216827],,0,,,,,,nefynm,001,english,0,0,2022-05-06_09h50.37.702,Cluster,2022.1.1,None,
,,,,4,0,4,0,19,0,19,0,,,frequency,,,,,,,,,,,,,,,,,,,,,,,,,,,,,,,,,,,,,,,,,,,,,,,,,,,,,,,,,,,,,,,,,,,,,,,,,,,,,,,,,,,,,,,,,,,,,,,,,,,,,,,,,,,,,,,,,,,,815.1951878999826,None,125.0,-3.0,0.0005116464961403772,1,"[0.4381574195338862, 0.7509571845763751, 0.4960891351392806, 0.5059611937161159]","[314.9802624737183, 250.00000000000003, 198.42513149602496, 157.49013123685916]",Major_3rd,"[6.8241492997937545, 9.542511536681426, 10.567047562418644, 10.062230116357714]",False,816.2208265999798,818.9278306999477,818.9278306999477,820.1647750999546,['space'],1,3.199098866782151,4.223916166694835,None,1,None,1,,[0.2952423000242561],,,,,,,nefynm,001,english,0,0,2022-05-06_09h50.37.702,Cluster,2022.1.1,None,
,,,,5,0,5,0,0,0,0,0,,,time,,,,,,,,,,,,,,,,,,,,,,,,,,,,,,,,,,,,,,,,,,,,,,,,,,,,,,,,,,,,,,,,,,,,,,,,,,,,,,,,,,,,,,,,,,,,,,,,,,,,,,,,,,,,,,,,,,,,824.2756286000367,None,620.0746956500765,-0.541955017692146,4.952448739103884e-05,0,"[0.5655062788727203, 0.5655062788727203, 0.5655062788727203, 0.5655062788727203]","[163.3878864659732, 184.9068668250494, 181.9522404684579, 2458.40113074688]",None,"[10.245471099602025, 10.543619371000801, 10.41839078124893, 8.659301605231226]",False,825.2789401999908,828.002842899994,828.002842899994,829.2227959999582,None,0,3.2909773666178808,4.327298466698267,None,1,None,1,,,,,,,,,nefynm,001,english,0,0,2022-05-06_09h50.37.702,Cluster,2022.1.1,None,
,,,,5,0,5,0,1,0,1,0,,,frequency,,,,,,,,,,,,,,,,,,,,,,,,,,,,,,,,,,,,,,,,,,,,,,,,,,,,,,,,,,,,,,,,,,,,,,,,,,,,,,,,,,,,,,,,,,,,,,,,,,,,,,,,,,,,,,,,,,,,829.6558523999993,None,403.74985561281,-3.4006431851803463,5.162374430709777e-05,1,"[0.6276229322029464, 0.6856401449588421, 0.5831013352779544, 0.46251961155754784]","[1017.38588395719, 807.49971122562, 640.9129455317832, 508.692941978595]",Major_3rd,"[11.0, 13.29151386160071, 7.0, 1.6183389177672183]",False,830.6721318999771,833.6036279000109,833.6036279000109,834.837503900053,['space'],1,3.376879366696812,4.40659666666761,None,1,None,1,,[0.5749221999431029],,,,,,,nefynm,001,english,0,0,2022-05-06_09h50.37.702,Cluster,2022.1.1,None,
,,,,5,0,5,0,2,0,2,0,,,frequency,,,,,,,,,,,,,,,,,,,,,,,,,,,,,,,,,,,,,,,,,,,,,,,,,,,,,,,,,,,,,,,,,,,,,,,,,,,,,,,,,,,,,,,,,,,,,,,,,,,,,,,,,,,,,,,,,,,,835.1328577999957,None,,,,,"[0.723647420384629, 0.7420411625219515, 0.7523892437636354, 0.4047755172028329]","[233.26195399235627, 207.812775802701, 185.14013557581202, 164.94110946081955]",Tone,"[10.096333932716702, 10.567047562418644, 10.543619371000801, 10.245471099602025]",True,836.1332018000539,839.3760593000334,839.3760593000334,840.6182038000552,['space'],0,3.645858066738583,4.660475566750392,None,1,None,1,,[0.38081969995982945],0,,,,,,nefynm,001,english,0,0,2022-05-06_09h50.37.702,Cluster,2022.1.1,None,
,,,,5,0,5,0,3,0,3,0,,,both,,,,,,,,,,,,,,,,,,,,,,,,,,,,,,,,,,,,,,,,,,,,,,,,,,,,,,,,,,,,,,,,,,,,,,,,,,,,,,,,,,,,,,,,,,,,,,,,,,,,,,,,,,,,,,,,,,,,840.8395718999673,None,310.1465871073657,0.8241492997937548,0.0001140905062428337,1,"[0.6121045192338781, 0.6121045192338781, 0.6121045192338781, 0.6121045192338781]","[1563.0408545984956, 1043.204613207031, 696.2555468813902, 464.6948263321162]",Perfect_5th,"[-2.5412642016218587, 10.0, 9.0, 1.5121754791380786]",False,841.8405564000132,844.7020672999788,844.7020672999788,845.9243846000172,['space'],1,3.4829089667182416,4.525784566765651,None,1,None,1,,[0.997080700006336],,,,,,,nefynm,001,english,0,0,2022-05-06_09h50.37.702,Cluster,2022.1.1,None,
,,,,5,0,5,0,4,0,4,0,,,both,,,,,,,,,,,,,,,,,,,,,,,,,,,,,,,,,,,,,,,,,,,,,,,,,,,,,,,,,,,,,,,,,,,,,,,,,,,,,,,,,,,,,,,,,,,,,,,,,,,,,,,,,,,,,,,,,,,,846.4131342000328,None,2639.015821545789,1.0,8.668328211348657e-05,1,"[0.4272065782557091, 0.4272065782557091, 0.4272065782557091, 0.4272065782557091]","[523.6470614103135, 784.584097896751, 1175.547906283609, 1761.3317471922974]",Perfect_5th,"[2.0, 13.0, 5.0, -1.0]",False,848.3781004999764,850.6866983999498,850.6866983999498,851.9099313999759,['space'],1,2.7128994666272774,3.735047366586514,None,1,None,1,,[0.4823605000274256],,,,,,,nefynm,001,english,0,0,2022-05-06_09h50.37.702,Cluster,2022.1.1,None,
,,,,5,0,5,0,5,0,5,0,,,none,,,,,,,,,,,,,,,,,,,,,,,,,,,,,,,,,,,,,,,,,,,,,,,,,,,,,,,,,,,,,,,,,,,,,,,,,,,,,,,,,,,,,,,,,,,,,,,,,,,,,,,,,,,,,,,,,,,,852.1638910999754,None,147.1841441828386,4.0,0.0008324152748791693,1,"[0.533392166121666, 0.6557510941017961, 0.514100657584209, 0.6177188489847587]","[231.26414674663593, 446.01057671489883, 2528.282990330187, 363.4581103760132]",None,"[10.096333932716702, 1.8810953384182945, 9.0, 4.0]",False,853.1910206000321,855.9353815000504,855.9353815000504,857.164952000021,['space'],1,3.338095766841434,4.351479266770184,None,1,None,1,,[0.3192447000183165],,,,,,,nefynm,001,english,0,0,2022-05-06_09h50.37.702,Cluster,2022.1.1,None,
,,,,5,0,5,0,6,0,6,0,,,time,,,,,,,,,,,,,,,,,,,,,,,,,,,,,,,,,,,,,,,,,,,,,,,,,,,,,,,,,,,,,,,,,,,,,,,,,,,,,,,,,,,,,,,,,,,,,,,,,,,,,,,,,,,,,,,,,,,,857.5986621000338,None,3031.4331330207992,1.0,6.485109083489232e-05,1,"[0.6882665641923826, 0.6882665641923826, 0.6882665641923826, 0.6882665641923826]","[4159.622728289521, 155.6476057727055, 543.6753051427705, 2251.4328291053484]",None,"[0.0, 10.062230116357714, 2.3060730557172535, 6.0]",False,858.6355664000148,861.7449326999485,861.7449326999485,862.9707200999837,['space'],1,3.76437856676057,4.79218306671828,None,1,None,1,,[0.37181030004285276],,,,,,,nefynm,001,english,0,0,2022-05-06_09h50.37.702,Cluster,2022.1.1,None,
,,,,5,0,5,0,7,0,7,0,,,frequency,,,,,,,,,,,,,,,,,,,,,,,,,,,,,,,,,,,,,,,,,,,,,,,,,,,,,,,,,,,,,,,,,,,,,,,,,,,,,,,,,,,,,,,,,,,,,,,,,,,,,,,,,,,,,,,,,,,,863.4922926999861,None,757.8582832551998,1.0,4.5199635245948114e-05,1,"[0.6914682802734329, 0.415790818729852, 0.5337784886234308, 0.6319692699479941]","[1909.6832078208354, 1515.7165665103998, 1203.025036082118, 954.8416039104176]",Major_3rd,"[1.0, -2.5412642016218587, 4.0, 12.0]",False,864.5214123000624,867.1783978999592,867.1783978999592,868.4017913000425,['space'],1,3.2959402332780883,4.324668433284387,None,1,None,1,,[0.5195595000404865],,,,,,,nefynm,001,english,0,0,2022-05-06_09h50.37.702,Cluster,2022.1.1,None,
,,,,5,0,5,0,8,0,8,0,,,frequency,,,,,,,,,,,,,,,,,,,,,,,,,,,,,,,,,,,,,,,,,,,,,,,,,,,,,,,,,,,,,,,,,,,,,,,,,,,,,,,,,,,,,,,,,,,,,,,,,,,,,,,,,,,,,,,,,,,,868.8941982999677,None,,,,,"[0.40457443676082216, 0.5066913013564771, 0.6391009102214947, 0.5652261704840119]","[1384.7989301331309, 1744.7373219466313, 2198.231278457769, 2769.5978602662613]",Major_3rd,"[-1.0, -1.2910851296111083, 6.0, 9.878919472691907]",True,869.9155664000427,872.4841229000594,872.4841229000594,873.7129939000588,['space'],0,3.1437558667967096,4.1804184667998925,None,1,None,1,,[0.41330480005126446],0,,,,,,nefynm,001,english,0,0,2022-05-06_09h50.37.702,Cluster,2022.1.1,None,
,,,,5,0,5,0,9,0,9,0,,,time,,,,,,,,,,,,,,,,,,,,,,,,,,,,,,,,,,,,,,,,,,,,,,,,,,,,,,,,,,,,,,,,,,,,,,,,,,,,,,,,,,,,,,,,,,,,,,,,,,,,,,,,,,,,,,,,,,,,874.1419181999518,None,208.43138260710504,4.567047562418643,0.0004211321027257078,1,"[0.539914884141584, 0.539914884141584, 0.539914884141584, 0.539914884141584]","[3553.963349106658, 2685.8541940107584, 174.27635732583192, 5677.379162468631]",None,"[5.0, 9.67595133734369, 10.41839078124893, -3.8431547423451313]",False,875.1447151000611,877.7901482000016,877.7901482000016,879.031791400048,['space'],1,3.1946576667251065,4.212625166750513,None,1,None,1,,[0.6852552000200376],,,,,,,nefynm,001,english,0,0,2022-05-06_09h50.37.702,Cluster,2022.1.1,None,
,,,,5,0,5,0,10,0,10,0,,,time,,,,,,,,,,,,,,,,,,,,,,,,,,,,,,,,,,,,,,,,,,,,,,,,,,,,,,,,,,,,,,,,,,,,,,,,,,,,,,,,,,,,,,,,,,,,,,,,,,,,,,,,,,,,,,,,,,,,879.4103354000254,None,1000.0,-2.0,3.4992099800113655e-05,1,"[0.45681404090441513, 0.45681404090441513, 0.45681404090441513, 0.45681404090441513]","[169.67648107462296, 559.7028590372989, 2279.100992790387, 1707.6819251262905]",None,"[10.245471099602025, 3.0, 6.990211164607461, -1.2910851296111083]",False,881.9296749000205,884.3163639999693,884.3163639999693,885.5331623000093,['space'],1,2.8379240666981786,3.8669324667425826,None,1,None,1,,[0.41080129996407777],,,,,,,nefynm,001,english,0,0,2022-05-06_09h50.37.702,Cluster,2022.1.1,None,
,,,,5,0,5,0,11,0,11,0,,,both,,,,,,,,,,,,,,,,,,,,,,,,,,,,,,,,,,,,,,,,,,,,,,,,,,,,,,,,,,,,,,,,,,,,,,,,,,,,,,,,,,,,,,,,,,,,,,,,,,,,,,,,,,,,,,,,,,,,885.8520493999822,None,131.34504909766514,3.701383027368968,0.001020220487825115,0,"[0.7743021502541134, 0.7743021502541134, 0.7743021502541134, 0.7743021502541134]","[661.9375686304958, 441.79032379019907, 294.8596656909208, 196.79521657574688]",Perfect_5th,"[7.672047411979337, 1.8810953384182945, 7.863398994928131, 10.567047562418644]",False,886.8514781000558,890.1891557000345,890.1891557000345,891.4052115000086,None,0,4.116874566767365,5.1413955667521805,None,1,None,1,,,,,,,,,nefynm,001,english,0,0,2022-05-06_09h50.37.702,Cluster,2022.1.1,None,
,,,,5,0,5,0,12,0,12,0,,,both,,,,,,,,,,,,,,,,,,,,,,,,,,,,,,,,,,,,,,,,,,,,,,,,,,,,,,,,,,,,,,,,,,,,,,,,,,,,,,,,,,,,,,,,,,,,,,,,,,,,,,,,,,,,,,,,,,,,892.040453499998,None,125.0,0.0,0.000722719885372964,0,"[0.5416235507290823, 0.5416235507290823, 0.5416235507290823, 0.5416235507290823]","[198.42513149602502, 176.77669529663694, 157.49013123685918, 140.30775603867164]",Tone,"[10.567047562418644, 10.41839078124893, 10.062230116357714, 9.883499719674859]",False,897.2633327000076,899.9201705000596,899.9201705000596,901.1451606999617,None,0,3.188333166646771,4.2261270666494966,None,1,"['space', 'space']",0,"[-3.551820300053805, 0.46436989994253963]",,,,,,,,nefynm,001,english,0,0,2022-05-06_09h50.37.702,Cluster,2022.1.1,None,
,,,,5,0,5,0,13,0,13,0,,,time,,,,,,,,,,,,,,,,,,,,,,,,,,,,,,,,,,,,,,,,,,,,,,,,,,,,,,,,,,,,,,,,,,,,,,,,,,,,,,,,,,,,,,,,,,,,,,,,,,,,,,,,,,,,,,,,,,,,901.5398079999723,None,634.9235426348444,0.0,5.073289087478971e-05,1,"[0.4255778678070792, 0.4255778678070792, 0.4255778678070792, 0.4255778678070792]","[186.1180658035378, 893.67483226437, 1003.7643940660536, 820.0983616019653]",None,"[10.543619371000801, 13.68805040169973, 11.26840669618649, 13.29151386160071]",False,902.5664205000503,904.8760286000324,904.8760286000324,906.0967333000153,['space'],1,2.725957866641693,3.7397646666504443,None,1,None,1,,[0.4352486999705434],,,,,,,nefynm,001,english,0,0,2022-05-06_09h50.37.702,Cluster,2022.1.1,None,
,,,,5,0,5,0,14,0,14,0,,,frequency,,,,,,,,,,,,,,,,,,,,,,,,,,,,,,,,,,,,,,,,,,,,,,,,,,,,,,,,,,,,,,,,,,,,,,,,,,,,,,,,,,,,,,,,,,,,,,,,,,,,,,,,,,,,,,,,,,,,906.3558894000016,None,2809.404604605315,3.8789194726919067,0.00010419909373793043,1,"[0.68482952492814, 0.4515189223236579, 0.42365705600488934, 0.59457694144846]","[1114.9129561886955, 1404.702302302658, 1769.81399950691, 2229.8259123773905]",Major_3rd,"[7.0, -1.7074087051123037, -1.0, 6.0]",False,907.3739867999684,909.964496599976,909.964496599976,911.1998921999475,['space'],1,3.185171866673045,4.223409066675231,None,1,None,1,,[0.4334592999657616],,,,,,,nefynm,001,english,0,0,2022-05-06_09h50.37.702,Cluster,2022.1.1,None,
,,,,5,0,5,0,15,0,15,0,,,time,,,,,,,,,,,,,,,,,,,,,,,,,,,,,,,,,,,,,,,,,,,,,,,,,,,,,,,,,,,,,,,,,,,,,,,,,,,,,,,,,,,,,,,,,,,,,,,,,,,,,,,,,,,,,,,,,,,,911.6466727999505,None,,,,,"[0.5220907510326814, 0.5220907510326814, 0.5220907510326814, 0.5220907510326814]","[192.96524353555915, 2052.396662905475, 149.5548211151295, 4649.311698192213]",None,"[10.543619371000801, 3.0, 10.0, -2.3823907161649984]",True,912.6547308999579,915.2510927000549,915.2510927000549,916.4708762000082,['space'],0,3.1229145667748526,4.144274366670288,None,1,None,1,,[0.5919800999108702],0,,,,,,nefynm,001,english,0,0,2022-05-06_09h50.37.702,Cluster,2022.1.1,None,
,,,,5,0,5,0,16,0,16,0,,,none,,,,,,,,,,,,,,,,,,,,,,,,,,,,,,,,,,,,,,,,,,,,,,,,,,,,,,,,,,,,,,,,,,,,,,,,,,,,,,,,,,,,,,,,,,,,,,,,,,,,,,,,,,,,,,,,,,,,916.8457930999575,None,353.5533905932738,-10.0,2.802167922291793e-05,0,"[0.46829128774820283, 0.465925713160912, 0.7015869176394358, 0.5848498582372892]","[1415.8977872960952, 4898.394526225767, 7652.2996490653595, 775.8396486117774]",None,"[-1.7074087051123037, -3.1701608221140987, -8.0, 12.0]",False,917.9158795999829,920.5908694999525,920.5908694999525,921.8096390999854,None,0,3.2536836334038526,4.269017833401449,None,1,None,1,,,,,,,,,nefynm,001,english,0,0,2022-05-06_09h50.37.702,Cluster,2022.1.1,None,
,,,,5,0,5,0,17,0,17,0,,,time,,,,,,,,,,,,,,,,,,,,,,,,,,,,,,,,,,,,,,,,,,,,,,,,,,,,,,,,,,,,,,,,,,,,,,,,,,,,,,,,,,,,,,,,,,,,,,,,,,,,,,,,,,,,,,,,,,,,922.2382726999931,None,933.0329915368076,-3.0,2.9839290159157653e-05,0,"[0.5435805189019597, 0.5435805189019597, 0.5435805189019597, 0.5435805189019597]","[6251.547842787343, 511.8544927326504, 140.51792459496951, 3926.6712453145515]",None,"[-5.0, 2.0, 9.883499719674859, 2.0]",False,923.2617252999917,925.9305256999796,925.9305256999796,927.1518945000134,None,0,3.1937299667624757,4.229992266744375,None,1,None,1,,,,,,,,,nefynm,001,english,0,0,2022-05-06_09h50.37.702,Cluster,2022.1.1,None,
,,,,5,0,5,0,18,0,18,0,,,none,,,,,,,,,,,,,,,,,,,,,,,,,,,,,,,,,,,,,,,,,,,,,,,,,,,,,,,,,,,,,,,,,,,,,,,,,,,,,,,,,,,,,,,,,,,,,,,,,,,,,,,,,,,,,,,,,,,,927.5429053000407,None,749.099634173781,5.950290616201528,8.078438694103796e-05,1,"[0.7894479639324263, 0.4990667805883766, 0.6261506851302183, 0.6513457639874103]","[146.58193038532985, 620.7074793943469, 7978.147195219931, 2656.1340985308043]",None,"[9.883499719674859, 5.458044982307854, -9.323229806476323, 9.67595133734369]",False,928.5417813999811,931.4772013999755,931.4772013999755,932.6947879999643,['space'],1,3.5859784667845815,4.620677666738629,None,1,None,1,,[0.3208081000484526],,,,,,,nefynm,001,english,0,0,2022-05-06_09h50.37.702,Cluster,2022.1.1,None,
,,,,5,0,5,0,19,0,19,0,,,none,,,,,,,,,,,,,,,,,,,,,,,,,,,,,,,,,,,,,,,,,,,,,,,,,,,,,,,,,,,,,,,,,,,,,,,,,,,,,,,,,,,,,,,,,,,,,,,,,,,,,,,,,,,,,,,,,,,,933.2141876999522,None,,,,,"[0.6134588987629137, 0.6034112774603393, 0.6129478954685816, 0.7879011291388394]","[438.67421437390504, 5589.433447871185, 218.01063370553427, 241.9834458818419]",None,"[1.8810953384182945, -3.8431547423451313, 10.432425410968461, 10.0]",True,934.215079799993,937.0572325000539,937.0572325000539,938.2619246999966,None,1,3.6489059667801484,4.680585366790183,None,1,None,1,,,0,,,,,,nefynm,001,english,0,0,2022-05-06_09h50.37.702,Cluster,2022.1.1,None,
,,,,6,0,6,0,0,0,0,0,,,frequency,,,,,,,,,,,,,,,,,,,,,,,,,,,,,,,,,,,,,,,,,,,,,,,,,,,,,,,,,,,,,,,,,,,,,,,,,,,,,,,,,,,,,,,,,,,,,,,,,,,,,,,,,,,,,,,,,,,,941.3856017000508,None,5656.85424949238,-14.0,2.5643846742814755e-05,0,"[0.5715656680588455, 0.5615160749707702, 0.6254624665303428, 0.5408335060159017]","[2244.9240966187467, 2828.427124746191, 3563.594872561358, 4489.8481932374925]",Major_3rd,"[6.0, 9.878919472691907, 5.0, -2.0]",False,942.414341900032,945.2086232999573,945.2086232999573,946.4256787999766,None,0,3.325705733266659,4.359251533285715,None,1,None,1,,,,,,,,,nefynm,001,english,0,0,2022-05-06_09h50.37.702,Cluster,2022.1.1,None,
,,,,6,0,6,0,1,0,1,0,,,both,,,,,,,,,,,,,,,,,,,,,,,,,,,,,,,,,,,,,,,,,,,,,,,,,,,,,,,,,,,,,,,,,,,,,,,,,,,,,,,,,,,,,,,,,,,,,,,,,,,,,,,,,,,,,,,,,,,,946.8164902999997,None,263.24801398310217,3.0,0.00021675057352088124,1,"[0.5888573671520083, 0.5888573671520083, 0.5888573671520083, 0.5888573671520083]","[1326.6868566413214, 885.4572451242013, 590.9718099776946, 394.4263623246136]",Perfect_5th,"[0.0, 13.68805040169973, 4.0, 3.0]",False,947.8282397000585,950.629919399973,950.629919399973,951.8397238999605,['space'],1,3.373118066811003,4.39343216677662,None,1,None,1,,[0.2564274000469595],,,,,,,nefynm,001,english,0,0,2022-05-06_09h50.37.702,Cluster,2022.1.1,None,
,,,,6,0,6,0,2,0,2,0,,,time,,,,,,,,,,,,,,,,,,,,,,,,,,,,,,,,,,,,,,,,,,,,,,,,,,,,,,,,,,,,,,,,,,,,,,,,,,,,,,,,,,,,,,,,,,,,,,,,,,,,,,,,,,,,,,,,,,,,952.2706517999759,None,832.7762778554328,7.291513861600708,9.098383313909959e-05,1,"[0.7624360022764555, 0.7624360022764555, 0.7624360022764555, 0.7624360022764555]","[3150.639869434089, 4521.829042172351, 1533.5721847905018, 394.16887971793625]",None,"[8.0, -2.0, -2.5412642016218587, 3.0]",False,953.2820091999602,956.5832373000449,956.5832373000449,957.7974614000414,['space'],1,4.067619666690007,5.09503186668735,None,1,None,1,,[0.3794554000487551],,,,,,,nefynm,001,english,0,0,2022-05-06_09h50.37.702,Cluster,2022.1.1,None,
,,,,6,0,6,0,3,0,3,0,,,both,,,,,,,,,,,,,,,,,,,,,,,,,,,,,,,,,,,,,,,,,,,,,,,,,,,,,,,,,,,,,,,,,,,,,,,,,,,,,,,,,,,,,,,,,,,,,,,,,,,,,,,,,,,,,,,,,,,,958.4284512000158,None,8000.0,-6.0,9.098504293049921e-05,0,"[0.46937072017145587, 0.46937072017145587, 0.46937072017145587, 0.46937072017145587]","[1587.4010519681997, 2378.4142300054423, 3563.5948725613575, 5339.359416680138]",Perfect_5th,"[-2.3652269246217106, 8.0, 5.0, -3.5611283207333813]",False,959.4553381999722,961.8837135999929,961.8837135999929,963.1141292999964,None,0,2.8858451667474583,3.9079473668243736,None,1,None,1,,,,,,,,,nefynm,001,english,0,0,2022-05-06_09h50.37.702,Cluster,2022.1.1,None,
,,,,6,0,6,0,4,0,4,0,,,none,,,,,,,,,,,,,,,,,,,,,,,,,,,,,,,,,,,,,,,,,,,,,,,,,,,,,,,,,,,,,,,,,,,,,,,,,,,,,,,,,,,,,,,,,,,,,,,,,,,,,,,,,,,,,,,,,,,,963.4199918999802,None,,,,,"[0.5489670707527667, 0.7805939622403848, 0.5240422482851018, 0.4677433775809274]","[1760.1399129245647, 5411.9884004912565, 357.06486689596, 288.0398876519563]",None,"[-1.0, -3.5611283207333813, 4.607193576852355, 7.863398994928131]",True,964.4364426999819,967.3223804000299,967.3223804000299,968.5535095999949,None,1,3.356439366703853,4.377653866657056,None,1,['space'],0,[-3.8333615000592545],,0,,,,,,nefynm,001,english,0,0,2022-05-06_09h50.37.702,Cluster,2022.1.1,None,
,,,,6,0,6,0,5,0,5,0,,,time,,,,,,,,,,,,,,,,,,,,,,,,,,,,,,,,,,,,,,,,,,,,,,,,,,,,,,,,,,,,,,,,,,,,,,,,,,,,,,,,,,,,,,,,,,,,,,,,,,,,,,,,,,,,,,,,,,,,968.8607381000184,None,164.93848884661182,-9.0,0.00013948972476246718,1,"[0.4201962021968919, 0.4201962021968919, 0.4201962021968919, 0.4201962021968919]","[152.66435263686395, 7079.88326649788, 6784.181825331586, 178.00508969940148]",None,"[10.062230116357714, -7.0, -6.0, 10.41839078124893]",False,969.889031699975,972.1676570000127,972.1676570000127,973.3887553999666,['space'],1,2.703332166769542,3.71376506681554,None,1,None,1,,[0.40129850001540035],,,,,,,nefynm,001,english,0,0,2022-05-06_09h50.37.702,Cluster,2022.1.1,None,
,,,,6,0,6,0,6,0,6,0,,,frequency,,,,,,,,,,,,,,,,,,,,,,,,,,,,,,,,,,,,,,,,,,,,,,,,,,,,,,,,,,,,,,,,,,,,,,,,,,,,,,,,,,,,,,,,,,,,,,,,,,,,,,,,,,,,,,,,,,,,973.6679737999802,None,1573.2486141598122,-8.36522692462171,2.0799846054913637e-05,1,"[0.4636692501687256, 0.7302942410483889, 0.5916109480409053, 0.7343432518556089]","[312.17206314059973, 467.7296114067548, 700.802586835521, 1050.0174753491463]",Perfect_5th,"[6.8241492997937545, 1.5121754791380786, 9.95723379361977, 9.0]",False,974.6561292000115,977.4664653999498,977.4664653999498,978.7011122000404,['space'],1,3.5496319667436182,4.569640666828491,None,1,None,1,,[0.019633500021882355],,,,,,,nefynm,001,english,0,0,2022-05-06_09h50.37.702,Cluster,2022.1.1,None,
,,,,6,0,6,0,7,0,7,0,,,none,,,,,,,,,,,,,,,,,,,,,,,,,,,,,,,,,,,,,,,,,,,,,,,,,,,,,,,,,,,,,,,,,,,,,,,,,,,,,,,,,,,,,,,,,,,,,,,,,,,,,,,,,,,,,,,,,,,,979.2742262999527,None,125.0,-1.0,0.000644124775846567,0,"[0.4260724187596387, 0.5091748670661255, 0.42318462992168104, 0.7918469866581317]","[4900.824829824531, 7868.8686170180345, 1897.2228112541534, 2007.742682571223]",None,"[-3.1701608221140987, -9.0, 1.0, 2.620414932981827]",False,980.2917856000131,982.6780214000028,982.6780214000028,983.892117899959,None,0,3.1759662667755038,4.1997753666946664,None,1,['space'],0,[0.6500528999604285],,,,,,,,nefynm,001,english,0,0,2022-05-06_09h50.37.702,Cluster,2022.1.1,None,
,,,,6,0,6,0,8,0,8,0,,,both,,,,,,,,,,,,,,,,,,,,,,,,,,,,,,,,,,,,,,,,,,,,,,,,,,,,,,,,,,,,,,,,,,,,,,,,,,,,,,,,,,,,,,,,,,,,,,,,,,,,,,,,,,,,,,,,,,,,984.5568742000032,None,5492.831485688192,-9.843154742345131,4.33309042799811e-05,1,"[0.4611939975939291, 0.4611939975939291, 0.4611939975939291, 0.4611939975939291]","[3460.2670061719414, 3884.018391445099, 4359.663239332742, 4893.556529560506]",Tone,"[5.61710028761806, 2.0, -1.0232937886385072, -3.1701608221140987]",False,985.5815040000016,987.9865884999745,987.9865884999745,989.216336100013,['space'],1,2.883979066624306,3.910086666699499,None,1,None,1,,[0.3351359999505803],,,,,,,nefynm,001,english,0,0,2022-05-06_09h50.37.702,Cluster,2022.1.1,None,
,,,,6,0,6,0,9,0,9,0,,,frequency,,,,,,,,,,,,,,,,,,,,,,,,,,,,,,,,,,,,,,,,,,,,,,,,,,,,,,,,,,,,,,,,,,,,,,,,,,,,,,,,,,,,,,,,,,,,,,,,,,,,,,,,,,,,,,,,,,,,989.5447353000054,None,8000.0,-6.0,9.098504293049921e-05,1,"[0.6527899982381826, 0.6378650625196031, 0.7595224175466262, 0.7758659677848463]","[1587.4010519681997, 2378.4142300054423, 3563.5948725613575, 5339.359416680138]",Perfect_5th,"[-2.3652269246217106, 8.0, 5.0, -3.5611283207333813]",False,990.5662649000296,993.6457572999643,993.6457572999643,994.8790825000033,['space'],1,3.83481166663114,4.854770166683011,None,1,None,1,,[0.4659239000175148],,,,,,,nefynm,001,english,0,0,2022-05-06_09h50.37.702,Cluster,2022.1.1,None,
,,,,6,0,6,0,10,0,10,0,,,frequency,,,,,,,,,,,,,,,,,,,,,,,,,,,,,,,,,,,,,,,,,,,,,,,,,,,,,,,,,,,,,,,,,,,,,,,,,,,,,,,,,,,,,,,,,,,,,,,,,,,,,,,,,,,,,,,,,,,,995.4731134000467,None,2472.966925183817,2.659301605231226,0.00011584961904858475,0,"[0.713880826718949, 0.48301722537445413, 0.5145002045562586, 0.7865226381767224]","[1557.8715423664453, 1748.6516824475223, 1962.7951492596771, 2203.163063649719]",Tone,"[-2.5412642016218587, -1.2910851296111083, 2.0, 6.0]",False,996.484061300056,999.2079758000327,999.2079758000327,1000.4426045999862,None,0,3.520132066681981,4.544089866685681,None,1,None,1,,,,,,,,,nefynm,001,english,0,0,2022-05-06_09h50.37.702,Cluster,2022.1.1,None,
,,,,6,0,6,0,11,0,11,0,,,time,,,,,,,,,,,,,,,,,,,,,,,,,,,,,,,,,,,,,,,,,,,,,,,,,,,,,,,,,,,,,,,,,,,,,,,,,,,,,,,,,,,,,,,,,,,,,,,,,,,,,,,,,,,,,,,,,,,,1001.0808122999733,None,241.81176218999659,4.0,0.0002908675764452696,0,"[0.4539053764697055, 0.4539053764697055, 0.4539053764697055, 0.4539053764697055]","[323.3091578295583, 1327.40854015474, 2916.884796755955, 274.52870306544213]",None,"[6.0, 0.0, 9.878919472691907, 8.785576129843362]",False,1002.0966980999801,1004.4839489000151,1004.4839489000151,1005.7012351000449,None,0,2.8311321667861193,3.8495691667776555,['space'],0,None,1,,,,[-0.0358861000277102],,,,,nefynm,001,english,0,0,2022-05-06_09h50.37.702,Cluster,2022.1.1,None,
,,,,6,0,6,0,12,0,12,0,,,time,,,,,,,,,,,,,,,,,,,,,,,,,,,,,,,,,,,,,,,,,,,,,,,,,,,,,,,,,,,,,,,,,,,,,,,,,,,,,,,,,,,,,,,,,,,,,,,,,,,,,,,,,,,,,,,,,,,,1005.9925551000051,None,435.2752816480623,0.0,7.47519207806232e-05,0,"[0.7713754632257657, 0.7713754632257657, 0.7713754632257657, 0.7713754632257657]","[2968.4674467814534, 329.5861068222996, 1854.6533068498427, 649.0590880080218]",None,"[9.206231582890727, 5.72092724128576, 0.4637274025716689, 7.0]",False,1008.3332886999706,1011.6824505999684,1011.6824505999684,1012.9220667999471,None,0,4.110839999862947,5.13839699991513,None,1,None,1,,,,,,,,,nefynm,001,english,0,0,2022-05-06_09h50.37.702,Cluster,2022.1.1,None,
,,,,6,0,6,0,13,0,13,0,,,none,,,,,,,,,,,,,,,,,,,,,,,,,,,,,,,,,,,,,,,,,,,,,,,,,,,,,,,,,,,,,,,,,,,,,,,,,,,,,,,,,,,,,,,,,,,,,,,,,,,,,,,,,,,,,,,,,,,,1013.5151580000529,None,,,,,"[0.6534111215232565, 0.630559682897679, 0.6763191005011981, 0.7789349665986827]","[332.1183096093494, 1185.884336358737, 1673.8789452558278, 3998.4185253547766]",None,"[5.72092724128576, 4.0, -2.0, 0.9066411805858392]",True,1014.5420506000519,1017.5330024999566,1017.5330024999566,1018.7669777000556,None,1,3.7595763666322455,4.795368466642685,None,1,['space'],0,[0.532073000096716],,0,,,,,,nefynm,001,english,0,0,2022-05-06_09h50.37.702,Cluster,2022.1.1,None,
,,,,6,0,6,0,14,0,14,0,,,time,,,,,,,,,,,,,,,,,,,,,,,,,,,,,,,,,,,,,,,,,,,,,,,,,,,,,,,,,,,,,,,,,,,,,,,,,,,,,,,,,,,,,,,,,,,,,,,,,,,,,,,,,,,,,,,,,,,,1019.387860900024,None,1192.3603563079964,-2.0,4.138316981636536e-05,1,"[0.7095932979856354, 0.7095932979856354, 0.7095932979856354, 0.7095932979856354]","[5261.746632053829, 3600.7957046256965, 2416.6866460270544, 439.60263392896815]",None,"[-3.5611283207333813, 4.0, 8.0, 1.8810953384182945]",False,1020.3869199999608,1023.5371660999954,1023.5371660999954,1024.76983809995,['space'],1,3.883673866628669,4.9217252667294815,None,1,None,1,,[0.018243799917399883],,,,,,,nefynm,001,english,0,0,2022-05-06_09h50.37.702,Cluster,2022.1.1,None,
,,,,6,0,6,0,15,0,15,0,,,time,,,,,,,,,,,,,,,,,,,,,,,,,,,,,,,,,,,,,,,,,,,,,,,,,,,,,,,,,,,,,,,,,,,,,,,,,,,,,,,,,,,,,,,,,,,,,,,,,,,,,,,,,,,,,,,,,,,,1025.3735236000502,None,4000.0,-7.0,3.749471046662279e-05,0,"[0.6597064558024732, 0.6597064558024732, 0.6597064558024732, 0.6597064558024732]","[492.70211952794523, 4505.879314038382, 1376.002140487245, 451.5042473853369]",None,"[1.6183389177672183, -2.0, -1.0, 1.5121754791380786]",False,1027.8060339000076,1030.8127207000507,1030.8127207000507,1032.0485563999973,None,0,3.665720966644585,4.6972035666694865,None,1,None,1,,,,,,,,,nefynm,001,english,0,0,2022-05-06_09h50.37.702,Cluster,2022.1.1,None,
,,,,6,0,6,0,16,0,16,0,,,both,,,,,,,,,,,,,,,,,,,,,,,,,,,,,,,,,,,,,,,,,,,,,,,,,,,,,,,,,,,,,,,,,,,,,,,,,,,,,,,,,,,,,,,,,,,,,,,,,,,,,,,,,,,,,,,,,,,,1032.5703954000492,None,435.2752816480623,-1.0,6.662271952302988e-05,1,"[0.42455146871817206, 0.42455146871817206, 0.42455146871817206, 0.42455146871817206]","[274.2062449236566, 307.7861033362292, 345.4782199919442, 387.78619045843385]",Tone,"[8.785576129843362, 6.8241492997937545, 5.0, 3.0]",False,1033.5855484999483,1035.8838367999997,1035.8838367999997,1037.1200079000555,['space'],1,2.73956963326782,3.7646970332134515,None,1,['space'],0,[-1.7877557999454439],[0.06098389998078346],,,,,,,nefynm,001,english,0,0,2022-05-06_09h50.37.702,Cluster,2022.1.1,None,
