tTrials.thisRepN,tTrials.thisTrialN,tTrials.thisN,tTrials.thisIndex,blocks.thisRepN,blocks.thisTrialN,blocks.thisN,blocks.thisIndex,trials.thisRepN,trials.thisTrialN,trials.thisN,trials.thisIndex,tStart_text.started,tStart_text.stopped,Prediction,practice_Frequency,practice_Level,practice_Psychopy_Level,practice_isCatchTrial,Practice_trial_detection,practice_Cue_Delays,practice_Cue_Frequencies,practice_Interval,practice_Cue_Intensities,tCue_visual_cue.started,tCue_visual_cue.stopped,tProbe_visual_cue.started,tProbe_visual_cue.stopped,tFeedback.keys,tFeedback.corr,tFeedback.rt,tFeedback.started,tFeedback.stopped,tToo_late.keys,tToo_late.corr,tToo_early.keys,tToo_early.corr,tToo_early.rt,more_instructions.started,more_instructions.stopped,readyy.keys,readyy.rt,readyy.started,readyy.stopped,txt_rhythm.started,txt_rhythm.stopped,sound_1.started,sound_1.stopped,sound_2.started,sound_2.stopped,sound_3.started,sound_3.stopped,sound_4.started,sound_4.stopped,cross.started,cross.stopped,sound_5.started,sound_5.stopped,circle.started,circle.stopped,rhythm_ready.keys,rhythm_ready.rt,rhythm_ready.started,rhythm_ready.stopped,rhytm_ready_txt.started,rhytm_ready_txt.stopped,txt_freq.started,txt_freq.stopped,sound_6.started,sound_6.stopped,sound_7.started,sound_7.stopped,sound_8.started,sound_8.stopped,sound_9.started,sound_9.stopped,cross_2.started,cross_2.stopped,sound_10.started,sound_10.stopped,circle_2.started,circle_2.stopped,freq_ready.keys,freq_ready.rt,freq_ready.started,freq_ready.stopped,freq_ready_txt.started,freq_ready_txt.stopped,txt_freq_2.started,txt_freq_2.stopped,sound_11.started,sound_11.stopped,sound_12.started,sound_12.stopped,sound_13.started,sound_13.stopped,sound_14.started,sound_14.stopped,cross_3.started,cross_3.stopped,sound_15.started,sound_15.stopped,circle_3.started,circle_3.stopped,freq_ready_2.keys,freq_ready_2.rt,freq_ready_2.started,freq_ready_2.stopped,freq_ready_txt_2.started,freq_ready_txt_2.stopped,txt_freq_3.started,txt_freq_3.stopped,sound_16.started,sound_16.stopped,sound_17.started,sound_17.stopped,sound_18.started,sound_18.stopped,sound_19.started,sound_19.stopped,cross_4.started,cross_4.stopped,sound_20.started,sound_20.stopped,circle_4.started,circle_4.stopped,freq_ready_txt_3.started,freq_ready_txt_3.stopped,tStart_text_2.started,tStart_text_2.stopped,this_trial_is.started,this_trial_is.stopped,Frequency,Level,Psychopy_Level,Real trial detection,Cue Delays,Cue Frequencies,Interval,Cue Intensities,Catch trial,cue_visual_cue.started,cue_visual_cue.stopped,probe_visual_cue.started,probe_visual_cue.stopped,feedback.keys,feedback.corr,feedback.started,feedback.stopped,answer_too_late.keys,answer_too_late.corr,answer_too_early.keys,answer_too_early.corr,feedback.rt,Catch trial answer,answer_too_early.rt,answer_too_late.rt,Audiogram_both,Audiogram_frequency,Audiogram_time,Audiogram_none,participant,session,Language (english or french),Skip training? (1 for yes),Resume previous experiment,date,expName,psychopyVersion,frameRate,
0,0,0,0,,,,,,,,,23.09725850005634,None,time,1000,30,0.0013930605843148849,False,1,"[0.42980746876594983, 0.42980746876594983, 0.42980746876594983, 0.42980746876594983]","[915.049533877502, 661.0802564264017, 2294.5643561538627, 427.446968001355]",None,"[30, 30, 30, 30]",53.14125089999288,55.37090150010772,55.37090150010772,56.57365799997933,['space'],1,[1.1970001999288797],55.37090150010772,57.019412599969655,None,1,['space'],0,[1.2668480998836458],,,,,,,,,,,,,,,,,,,,,,,,,,,,,,,,,,,,,,,,,,,,,,,,,,,,,,,,,,,,,,,,,,,,,,,,,,,,,,,,,,,,,,,,,,,,,,,,,,,,,,,,,,,,,,,,,,,,,,,,,,,,erfnpg,001,fr,0,0,2022-05-10_14h57.34.806,Cluster,2022.1.1,None,
1,0,1,0,,,,,,,,,,,frequency,2500,30,0.002716251657462167,False,1,"[0.7018960311472179, 0.6788382856090064, 0.7948363324057378, 0.5197290099035488]","[6299.605249474367, 5000.000000000001, 3968.502629920499, 3149.802624737183]",Major_3rd,"[30, 30, 30, 30]",64.96124370000325,68.05333220004104,68.05333220004104,69.29918850003742,['space'],1,[0.883386499946937],68.05333220004104,69.79701570002362,None,1,None,1,,,,,,,,,,,,,,,,,,,,,,,,,,,,,,,,,,,,,,,,,,,,,,,,,,,,,,,,,,,,,,,,,,,,,,,,,,,,,,,,,,,,,,,,,,,,,,,,,,,,,,,,,,,,,,,,,,,,,,,,,,,,,erfnpg,001,fr,0,0,2022-05-10_14h57.34.806,Cluster,2022.1.1,None,
2,0,2,0,,,,,,,,,,,frequency,6000,30,0.003664122665694519,True,1,"[0.744395383329067, 0.6575109696896195, 0.404840492243441, 0.7690323587247001]","[1190.5507889761495, 1783.8106725040816, 2672.696154421018, 4004.5195625101032]",Perfect_5th,"[30, 30, 30, 30]",73.21584940003231,75.95940040005371,75.95940040005371,77.19690280011855,None,1,,75.95940040005371,77.9512332000304,None,1,None,1,,,,,,,,,,,,,,,,,,,,,,,,,,,,,,,,,,,,,,,,,,,,,,,,,,,,,,,,,,,,,,,,,,,,,,,,,,,,,,,,,,,,,,,,,,,,,,,,,,,,,,,,,,,,,,,,,,,,,,,,,,,,,erfnpg,001,fr,0,0,2022-05-10_14h57.34.806,Cluster,2022.1.1,None,
3,0,3,0,,,,,,,,,,,both,440,30,0.0023562289915021436,False,1,"[0.48482209105664786, 0.48482209105664786, 0.48482209105664786, 0.48482209105664786]","[698.456462866008, 622.253967444162, 554.3652619537443, 493.8833012561241]",Tone,"[30, 30, 30, 30]",83.40037170005962,85.77450100006536,85.77450100006536,86.99483560002409,['space'],1,[1.0652904999442399],85.77450100006536,87.48923199996352,None,1,None,1,,,,,,,,,,,,,,,,,,,,,,,,,,,,,,,,,,,,,,,,,,,,,,,,,,,,,,,,,,,,,,,,,,,,,,,,,,,,,,,,,,,,,,,,,,,,,,,,,,,,,,,,,,,,,,,,,,,,,,,,,,,,,erfnpg,001,fr,0,0,2022-05-10_14h57.34.806,Cluster,2022.1.1,None,
4,0,4,0,,,,,,,,,,,none,250,30,0.005296268625886445,True,0,"[0.7274694551914115, 0.6315264187865179, 0.7156494566865058, 0.4798512824360571]","[154.61294016862226, 179.06721655623411, 313.2757838544585, 4507.326932183978]",None,"[30, 30, 30, 30]",101.81100650015287,104.80869460012764,104.80869460012764,106.01678740000352,['space'],0,[0.5426570000126958],104.80869460012764,106.50968519994058,None,1,None,1,,,,,,,,,,,,,,,,,,,,,,,,,,,,,,,,,,,,,,,,,,,,,,,,,,,,,,,,,,,,,,,,,,,,,,,,,,,,,,,,,,,,,,,,,,,,,,,,,,,,,,,,,,,,,,,,,,,,,,,,,,,,,erfnpg,001,fr,0,0,2022-05-10_14h57.34.806,Cluster,2022.1.1,None,
,,,,,,,,,,,,,,,,,,,,,,,,,,,,,,,,,,,,,,113.20193770015612,None,space,31.830020299879834,113.20193770015612,None,,,,,,,,,,,,,,,,,,,,,,,,,,,,,,,,,,,,,,,,,,,,,,,,,,,,,,,,,,,,,,,,,,,,,,,,,,,,,,,,,,,,,,,,,,,,,,,,,,,,,,,,,,,,,,,,,,,,,,erfnpg,001,fr,0,0,2022-05-10_14h57.34.806,Cluster,2022.1.1,None,
,,,,,,,,,,,,,,,,,,,,,,,,,,,,,,,,,,,,,,,,,,,,145.07382249995135,146.1002968000248,146.55193416664068,None,147.05919806665432,None,147.55964716669794,None,148.06036666670505,None,146.47778349998407,148.28424150007777,148.56200256670516,None,148.28424150007777,149.10176500002854,space,1.9481353999581188,149.2758627999574,None,,,,,,,,,,,,,,,,,,,,,,,,,,,,,,,,,,,,,,,,,,,,,,,,,,,,,,,,,,,,,,,,,,,,,,,,,,,,,,,,,,,,,,,,,,,,,,,,,,erfnpg,001,fr,0,0,2022-05-10_14h57.34.806,Cluster,2022.1.1,None,
,,,,,,,,,,,,,,,,,,,,,,,,,,,,,,,,,,,,,,,,,,,,,,,,,,,,,,,,,,,,,,,,149.2758627999574,None,151.29369520000182,152.3151349001564,152.7707317667703,None,153.07267036667716,None,153.75625656667788,None,154.168208066669,154.38479909999296,152.66564469994046,154.47258700011298,154.77727066661853,None,154.47258700011298,155.2940350000281,space,1.8010148000903428,155.47033770009875,None,,,,,,,,,,,,,,,,,,,,,,,,,,,,,,,,,,,,,,,,,,,,,,,,,,,,,,,,,,,,,,,,,,,,,,,,,,,,erfnpg,001,fr,0,0,2022-05-10_14h57.34.806,Cluster,2022.1.1,None,
,,,,,,,,,,,,,,,,,,,,,,,,,,,,,,,,,,,,,,,,,,,,,,,,,,,,,,,,,,,,,,,,,,,,,,,,,,,,,,,,,,,,,,155.47033770009875,None,157.3318163000513,158.37181090004742,158.79462766676832,None,159.29415756679762,159.51496020006016,159.81527726661105,160.04136430006474,160.2950737667891,None,158.72109870007262,160.5177989001386,160.7974941668256,None,160.5177989001386,161.34458329994231,space,1.209664999973029,161.51873810007237,None,,,,,,,,,,,,,,,,,,,,,,,,,,,,,,,,,,,,,,,,,,,,,,,,,,,,,,erfnpg,001,fr,0,0,2022-05-10_14h57.34.806,Cluster,2022.1.1,None,
,,,,0,0,0,0,0,0,0,0,,,none,,,,,,,,,,,,,,,,,,,,,,,,,,,,,,,,,,,,,,,,,,,,,,,,,,,,,,,,,,,,,,,,,,,,,,,,,,,,,,,,,,,,,,,,,,,,,,161.51873810007237,None,162.76829369994812,163.7962911000941,164.24862976681132,None,164.52385006664943,None,165.23767466663074,165.45613730000332,165.64943356678512,None,164.14000899996608,165.9409491000697,166.2237385668016,None,165.9409491000697,166.76929150009528,166.94394859997556,None,167.97607480012812,None,198.7759706999641,None,346.321658785051,1.1866726115627373,0.00010373684422501853,0,"[0.7638346531817533, 0.46655071485507277, 0.5230519114254184, 0.4515674067054198]","[4241.116145720248, 1345.8549363317427, 2500.577041995356, 5432.236748859264]",None,"[1.2789042272521218, 7.0, 8.865510346829453, 0.40123166226580054]",False,199.73820629995316,202.50540930009447,202.50540930009447,203.7336669000797,None,0,3.230126866372302,4.264152966439724,None,1,None,1,,,,,,,,,erfnpg,001,fr,0,0,2022-05-10_14h57.34.806,Cluster,2022.1.1,None,
,,,,0,0,0,0,1,0,1,0,,,time,,,,,,,,,,,,,,,,,,,,,,,,,,,,,,,,,,,,,,,,,,,,,,,,,,,,,,,,,,,,,,,,,,,,,,,,,,,,,,,,,,,,,,,,,,,,,,,,,,,,,,,,,,,,,,,,,,,,204.0369005999528,None,4460.051483975999,-5.0,6.50035286016783e-05,0,"[0.5664677335080069, 0.5664677335080069, 0.5664677335080069, 0.5664677335080069]","[3439.6205900530294, 2051.8684233956506, 184.1901261855613, 156.23558064757205]",None,"[4.0, 9.296753518001285, 7.979952219004358, 7.136463664855924]",False,205.03444820013829,207.7450379000511,207.7450379000511,208.9639606999699,None,0,3.285792666953057,4.321519166929647,None,1,None,1,,,,,,,,,erfnpg,001,fr,0,0,2022-05-10_14h57.34.806,Cluster,2022.1.1,None,
,,,,0,0,0,0,2,0,2,0,,,none,,,,,,,,,,,,,,,,,,,,,,,,,,,,,,,,,,,,,,,,,,,,,,,,,,,,,,,,,,,,,,,,,,,,,,,,,,,,,,,,,,,,,,,,,,,,,,,,,,,,,,,,,,,,,,,,,,,,209.3883837000467,None,189.4645708137998,2.0,0.0003824766710234111,1,"[0.6275417549365737, 0.5952539763121014, 0.7505080340069252, 0.7488141373876993]","[271.50112822609407, 565.4070884889585, 354.4285927259361, 2901.2556850837386]",None,"[8.332992182463364, 6.216208046997928, 7.186672611562737, 7.0]",False,210.4060200001113,213.41423130012117,213.41423130012117,214.63260350003839,['space'],1,3.725671966560185,4.74509836640209,None,1,None,1,[0.4402131999377161],,,,,,,,erfnpg,001,fr,0,0,2022-05-10_14h57.34.806,Cluster,2022.1.1,None,
,,,,0,0,0,0,3,0,3,0,,,frequency,,,,,,,,,,,,,,,,,,,,,,,,,,,,,,,,,,,,,,,,,,,,,,,,,,,,,,,,,,,,,,,,,,,,,,,,,,,,,,,,,,,,,,,,,,,,,,,,,,,,,,,,,,,,,,,,,,,,215.1932117000688,None,,,,,"[0.6530748573521981, 0.6380869695844265, 0.4292769689147324, 0.48044013450400735]","[692.837756410827, 777.6840872069672, 872.9208734639375, 979.8205516403383]",Tone,"[5.058528304845914, 4.615494661919124, 4.1456602449515545, 4.527703095438838]",True,216.20970809995197,218.96151189994998,218.96151189994998,220.18956360011362,['space'],0,3.2451986665837467,4.280067866668105,None,1,None,1,[0.6813519999850541],0,,,,,,,erfnpg,001,fr,0,0,2022-05-10_14h57.34.806,Cluster,2022.1.1,None,
,,,,0,0,0,0,4,0,4,0,,,none,,,,,,,,,,,,,,,,,,,,,,,,,,,,,,,,,,,,,,,,,,,,,,,,,,,,,,,,,,,,,,,,,,,,,,,,,,,,,,,,,,,,,,,,,,,,,,,,,,,,,,,,,,,,,,,,,,,,220.52683640015312,None,208.1166868236824,2.2387509643365275,0.0003229073092262757,1,"[0.6723529070468314, 0.6571893467485136, 0.6226133127365526, 0.6456544863965423]","[288.77387818974455, 1047.1130279303677, 1812.7593965924066, 1461.3602550848354]",None,"[8.101610357160641, 5.0, 9.0, 7.534493828869186]",False,221.53107090014964,224.52447910001501,224.52447910001501,225.73899390012957,['space'],1,3.631547566736117,4.6651727666612715,None,1,None,1,[0.36677049985155463],,,,,,,,erfnpg,001,fr,0,0,2022-05-10_14h57.34.806,Cluster,2022.1.1,None,
,,,,0,0,0,0,5,0,5,0,,,frequency,,,,,,,,,,,,,,,,,,,,,,,,,,,,,,,,,,,,,,,,,,,,,,,,,,,,,,,,,,,,,,,,,,,,,,,,,,,,,,,,,,,,,,,,,,,,,,,,,,,,,,,,,,,,,,,,,,,,226.24170180014335,None,143.7599471343327,0.9195125427319033,0.0006177585727036093,1,"[0.6618015362512157, 0.441998612361761, 0.7957642399493531, 0.6747756188747368]","[362.2523670526399, 287.51989426866544, 228.2046913119325, 181.12618352631992]",Major_3rd,"[7.186672611562737, 8.101610357160641, 8.497991955627874, 7.683030925175551]",False,227.24828399997205,230.1647104001604,230.1647104001604,231.3993331999518,['space'],1,3.5916138666216284,4.604670666623861,None,1,None,1,[0.30371949984692037],,,,,,,,erfnpg,001,fr,0,0,2022-05-10_14h57.34.806,Cluster,2022.1.1,None,
,,,,0,0,0,0,6,0,6,0,,,both,,,,,,,,,,,,,,,,,,,,,,,,,,,,,,,,,,,,,,,,,,,,,,,,,,,,,,,,,,,,,,,,,,,,,,,,,,,,,,,,,,,,,,,,,,,,,,,,,,,,,,,,,,,,,,,,,,,,231.8860945000779,None,953.3644206280683,-1.7753056649857237,3.4828667338398957e-05,0,"[0.5914984603100801, 0.5914984603100801, 0.5914984603100801, 0.5914984603100801]","[189.17146052675608, 283.43693805033644, 424.6755701290766, 636.2944121010349]",Perfect_5th,"[7.979952219004358, 8.101610357160641, 6.6178635361651335, 5.911524192183128]",False,232.89368790015578,235.68669240013696,235.68669240013696,236.9256840001326,None,0,3.381499166600406,4.419568766606972,None,1,None,1,,,,,,,,,erfnpg,001,fr,0,0,2022-05-10_14h57.34.806,Cluster,2022.1.1,None,
,,,,0,0,0,0,7,0,7,0,,,time,,,,,,,,,,,,,,,,,,,,,,,,,,,,,,,,,,,,,,,,,,,,,,,,,,,,,,,,,,,,,,,,,,,,,,,,,,,,,,,,,,,,,,,,,,,,,,,,,,,,,,,,,,,,,,,,,,,,237.35191270010546,None,,,,,"[0.7407623388388446, 0.7407623388388446, 0.7407623388388446, 0.7407623388388446]","[1713.4587088049163, 1367.4719291641106, 3955.477864888236, 231.0008076953512]",None,"[8.805384390886722, 7.0, 2.0, 8.497991955627874]",True,238.33722280012444,241.5815336999949,241.5815336999949,242.80242169997655,None,1,4.006602966692299,5.0274084666743875,None,1,None,1,,0,,,,,,,erfnpg,001,fr,0,0,2022-05-10_14h57.34.806,Cluster,2022.1.1,None,
,,,,0,0,0,0,8,0,8,0,,,time,,,,,,,,,,,,,,,,,,,,,,,,,,,,,,,,,,,,,,,,,,,,,,,,,,,,,,,,,,,,,,,,,,,,,,,,,,,,,,,,,,,,,,,,,,,,,,,,,,,,,,,,,,,,,,,,,,,,243.39466390013695,None,203.0630990890589,2.0,0.00032661690408859664,1,"[0.5808779088887462, 0.5808779088887462, 0.5808779088887462, 0.5808779088887462]","[1097.757241219692, 596.5514947031146, 1633.4361371671425, 3954.1645484688843]",None,"[5.027844375041463, 6.0, 8.456914536802293, 2.0]",False,244.4203405000735,247.20149160013534,247.20149160013534,248.42102350015193,['space'],1,3.3668589333537966,4.398639433318749,None,1,None,1,[0.23758189985528588],,,,,,,,erfnpg,001,fr,0,0,2022-05-10_14h57.34.806,Cluster,2022.1.1,None,
,,,,0,0,0,0,9,0,9,0,,,both,,,,,,,,,,,,,,,,,,,,,,,,,,,,,,,,,,,,,,,,,,,,,,,,,,,,,,,,,,,,,,,,,,,,,,,,,,,,,,,,,,,,,,,,,,,,,,,,,,,,,,,,,,,,,,,,,,,,248.859567000065,None,2297.3967099940687,0.0,8.14042568960799e-05,0,"[0.6628945376697895, 0.6628945376697895, 0.6628945376697895, 0.6628945376697895]","[5789.076949761509, 4594.793419988137, 3646.8899542328654, 2894.5384748807546]",Major_3rd,"[0.23089339059954916, 0.8445011065612587, 3.0, 7.0]",False,249.88365560001694,252.9163903000299,252.9163903000299,254.12882650014944,None,0,3.670312600210309,4.6934484001249075,None,1,None,1,,,,,,,,,erfnpg,001,fr,0,0,2022-05-10_14h57.34.806,Cluster,2022.1.1,None,
,,,,0,0,0,0,10,0,10,0,,,time,,,,,,,,,,,,,,,,,,,,,,,,,,,,,,,,,,,,,,,,,,,,,,,,,,,,,,,,,,,,,,,,,,,,,,,,,,,,,,,,,,,,,,,,,,,,,,,,,,,,,,,,,,,,,,,,,,,,254.61156140011735,None,4692.752193136912,-5.155498893438741,7.269414789328556e-05,1,"[0.4294267247530401, 0.4294267247530401, 0.4294267247530401, 0.4294267247530401]","[3107.9084440179427, 484.91660702383825, 2471.069746688358, 2327.577735176674]",None,"[6.0, 6.496714046214889, 8.865510346829453, 9.237281137673754]",False,255.61042100004852,257.91515400004573,257.91515400004573,259.13739440008067,['space'],1,2.738464966416359,3.769944766536355,None,1,None,1,[0.4287116997875273],,,,,,,,erfnpg,001,fr,0,0,2022-05-10_14h57.34.806,Cluster,2022.1.1,None,
,,,,0,0,0,0,11,0,11,0,,,time,,,,,,,,,,,,,,,,,,,,,,,,,,,,,,,,,,,,,,,,,,,,,,,,,,,,,,,,,,,,,,,,,,,,,,,,,,,,,,,,,,,,,,,,,,,,,,,,,,,,,,,,,,,,,,,,,,,,259.4175617999863,None,,,,,"[0.4805434168798885, 0.4805434168798885, 0.4805434168798885, 0.4805434168798885]","[211.84542949648386, 154.38822148735724, 2770.2049571578405, 2001.7071856093423]",None,"[8.417660824179716, 7.136463664855924, 7.3564450191786595, 9.296753518001285]",True,260.42534680012614,262.8878796000499,262.8878796000499,264.1042647000868,None,1,2.956669266568497,3.9832419664599,None,1,None,1,,0,,,,,,,erfnpg,001,fr,0,0,2022-05-10_14h57.34.806,Cluster,2022.1.1,None,
,,,,0,0,0,0,12,0,12,0,,,both,,,,,,,,,,,,,,,,,,,,,,,,,,,,,,,,,,,,,,,,,,,,,,,,,,,,,,,,,,,,,,,,,,,,,,,,,,,,,,,,,,,,,,,,,,,,,,,,,,,,,,,,,,,,,,,,,,,,264.4471690999344,None,1777.4349272017282,2.805384390886723,8.945226480232207e-05,1,"[0.6934358715856963, 0.6934358715856963, 0.6934358715856963, 0.6934358715856963]","[352.68775915563043, 528.4345654706597, 791.7572491109435, 1186.2954895113403]",Perfect_5th,"[7.186672611562737, 6.40013392183546, 4.291706120163045, 6.0]",False,265.44597909995355,268.5478962000925,268.5478962000925,269.77294029993936,['space'],1,3.7894460665993392,4.825754766585305,None,1,None,1,[0.2764091999270022],,,,,,,,erfnpg,001,fr,0,0,2022-05-10_14h57.34.806,Cluster,2022.1.1,None,
,,,,0,0,0,0,13,0,13,0,,,frequency,,,,,,,,,,,,,,,,,,,,,,,,,,,,,,,,,,,,,,,,,,,,,,,,,,,,,,,,,,,,,,,,,,,,,,,,,,,,,,,,,,,,,,,,,,,,,,,,,,,,,,,,,,,,,,,,,,,,270.3132013999857,None,2462.2888266898335,0.0,8.505946547995337e-05,1,"[0.5339456144995478, 0.48455604533586155, 0.6704921513718689, 0.5180853877010145]","[3908.639873736986, 3482.202253184498, 3102.289523667471, 2763.8257599355534]",Tone,"[2.0, 3.8732573415116693, 6.0, 7.3564450191786595]",False,271.3272862001322,274.05317330011167,274.05317330011167,275.284801900154,['space'],1,3.2483055335469544,4.279768933542073,None,1,None,1,[0.5055710999295115],,,,,,,,erfnpg,001,fr,0,0,2022-05-10_14h57.34.806,Cluster,2022.1.1,None,
,,,,0,0,0,0,14,0,14,0,,,time,,,,,,,,,,,,,,,,,,,,,,,,,,,,,,,,,,,,,,,,,,,,,,,,,,,,,,,,,,,,,,,,,,,,,,,,,,,,,,,,,,,,,,,,,,,,,,,,,,,,,,,,,,,,,,,,,,,,275.641564700054,None,2297.3967099940687,0.0,8.14042568960799e-05,0,"[0.55575782106895, 0.55575782106895, 0.55575782106895, 0.55575782106895]","[543.0987606423114, 4231.030700154115, 574.2663125014838, 665.8782599009473]",None,"[6.40013392183546, 1.2789042272521218, 6.216208046997928, 5.511143131943443]",False,276.73940349998884,279.45034949993715,279.45034949993715,280.68030080012977,None,0,3.2389756334014237,4.2819117333274335,None,1,None,1,,,,,,,,,erfnpg,001,fr,0,0,2022-05-10_14h57.34.806,Cluster,2022.1.1,None,
,,,,0,0,0,0,15,0,15,0,,,frequency,,,,,,,,,,,,,,,,,,,,,,,,,,,,,,,,,,,,,,,,,,,,,,,,,,,,,,,,,,,,,,,,,,,,,,,,,,,,,,,,,,,,,,,,,,,,,,,,,,,,,,,,,,,,,,,,,,,,281.06620310014114,None,,,,,"[0.5895863507224354, 0.7702431697112576, 0.7545027634484998, 0.6352416785771201]","[717.6359407105988, 569.5880236070965, 452.0823139311963, 358.8179703552994]",Major_3rd,"[5.0, 6.216208046997928, 6.552496604039485, 7.186672611562737]",True,282.06803590012714,285.20491209998727,285.20491209998727,286.43935630004853,['space'],0,3.7710374663583934,4.78999236645177,None,1,None,1,[0.3938702999148518],0,,,,,,,erfnpg,001,fr,0,0,2022-05-10_14h57.34.806,Cluster,2022.1.1,None,
,,,,0,0,0,0,16,0,16,0,,,none,,,,,,,,,,,,,,,,,,,,,,,,,,,,,,,,,,,,,,,,,,,,,,,,,,,,,,,,,,,,,,,,,,,,,,,,,,,,,,,,,,,,,,,,,,,,,,,,,,,,,,,,,,,,,,,,,,,,286.8904618001543,None,2462.2888266898335,0.0,8.505946547995337e-05,0,"[0.4159498161267825, 0.571530510505274, 0.5540535172653408, 0.5196523708895894]","[3903.303366305124, 603.2027075113951, 147.81129045991665, 195.20295722212708]",None,"[2.0, 6.0, 7.0, 8.0]",False,287.89408789994195,290.45938890008256,290.45938890008256,291.6937379001174,None,0,3.0889317663386464,4.104959566378966,None,1,None,1,,,,,,,,,erfnpg,001,fr,0,0,2022-05-10_14h57.34.806,Cluster,2022.1.1,None,
,,,,0,0,0,0,17,0,17,0,,,frequency,,,,,,,,,,,,,,,,,,,,,,,,,,,,,,,,,,,,,,,,,,,,,,,,,,,,,,,,,,,,,,,,,,,,,,,,,,,,,,,,,,,,,,,,,,,,,,,,,,,,,,,,,,,,,,,,,,,,292.0518199999351,None,2669.290933955726,2.0,9.489171644708244e-05,1,"[0.47625776926230484, 0.7608436223771974, 0.4431494769804382, 0.4781436738468818]","[529.6544045713122, 793.5849426681019, 1189.0339357023927, 1781.537960509428]",Perfect_5th,"[6.40013392183546, 4.291706120163045, 6.0, 8.805384390886722]",False,293.04020079993643,295.73375470004976,295.73375470004976,296.97248969995417,['space'],1,3.181185166584328,4.199670866597444,None,1,None,1,[0.6208611000329256],,,,,,,,erfnpg,001,fr,0,0,2022-05-10_14h57.34.806,Cluster,2022.1.1,None,
,,,,0,0,0,0,18,0,18,0,,,frequency,,,,,,,,,,,,,,,,,,,,,,,,,,,,,,,,,,,,,,,,,,,,,,,,,,,,,,,,,,,,,,,,,,,,,,,,,,,,,,,,,,,,,,,,,,,,,,,,,,,,,,,,,,,,,,,,,,,,297.2789900000207,None,574.3491774985172,0.0,5.984619860562044e-05,1,"[0.7857246293362519, 0.7669277151907533, 0.6194341490892363, 0.6786661061338111]","[911.7224885582166, 812.2523963562353, 723.6346187201888, 644.6851542197893]",Tone,"[4.224694335014276, 4.291706120163045, 5.0, 5.511143131943443]",False,298.94996200012974,302.1375200001057,302.1375200001057,303.35856980015524,['space'],1,3.862147899577394,4.89831249974668,None,1,None,1,[0.1600339999422431],,,,,,,,erfnpg,001,fr,0,0,2022-05-10_14h57.34.806,Cluster,2022.1.1,None,
,,,,0,0,0,0,19,0,19,0,,,time,,,,,,,,,,,,,,,,,,,,,,,,,,,,,,,,,,,,,,,,,,,,,,,,,,,,,,,,,,,,,,,,,,,,,,,,,,,,,,,,,,,,,,,,,,,,,,,,,,,,,,,,,,,,,,,,,,,,303.9009442999959,None,,,,,"[0.7105343988025987, 0.7105343988025987, 0.7105343988025987, 0.7105343988025987]","[1064.8880523647865, 165.98118230106445, 743.7117727235669, 133.05228249309837]",None,"[5.0, 7.395300579819079, 4.615494661919124, 6.7607281090035265]",True,304.89919100003317,308.0620556999929,308.0620556999929,309.2944042000454,None,1,3.8602505666203797,4.892561166547239,None,1,None,1,,0,,,,,,,erfnpg,001,fr,0,0,2022-05-10_14h57.34.806,Cluster,2022.1.1,None,
,,,,1,0,1,0,0,0,0,0,,,frequency,,,,,,,,,,,,,,,,,,,,,,,,,,,,,,,,,,,,,,,,,,,,,,,,,,,,,,,,,,,,,,,,,,,,,,,,,,,,,,,,,,,,,,,,,,,,,,,,,,,,,,,,,,,,,,,,,,,,385.6968698001001,None,1024.4304281912534,-1.4722969045611616,3.804644894915054e-05,0,"[0.44984128358384634, 0.503106778758781, 0.5808616633943513, 0.4149190569592571]","[645.3507303154892, 724.3817026278738, 813.0909696895143, 912.6637552995466]",Tone,"[5.511143131943443, 5.0, 4.291706120163045, 4.224694335014276]",False,386.68436540011317,389.2523453999311,389.2523453999311,390.4848285000771,None,0,2.981666066683829,4.003423766698688,None,1,None,1,,,,,,,,,erfnpg,001,fr,0,0,2022-05-10_14h57.34.806,Cluster,2022.1.1,None,
,,,,1,0,1,0,1,0,1,0,,,frequency,,,,,,,,,,,,,,,,,,,,,,,,,,,,,,,,,,,,,,,,,,,,,,,,,,,,,,,,,,,,,,,,,,,,,,,,,,,,,,,,,,,,,,,,,,,,,,,,,,,,,,,,,,,,,,,,,,,,390.72692460007966,None,217.63764082403114,0.0,0.0002308867316946748,1,"[0.45575782613517757, 0.7284281278421287, 0.5013398331019712, 0.5192403693806786]","[137.1031224618283, 153.8930516681146, 172.7391099959721, 193.89309522921693]",Tone,"[6.7607281090035265, 7.136463664855924, 7.683030925175551, 8.0]",False,392.40394799993373,395.1109982000198,395.1109982000198,396.32704779994674,['space'],1,3.2227659670170397,4.258530067047104,None,1,None,1,[0.41438969993032515],,,,,,,,erfnpg,001,fr,0,0,2022-05-10_14h57.34.806,Cluster,2022.1.1,None,
,,,,1,0,1,0,2,0,2,0,,,none,,,,,,,,,,,,,,,,,,,,,,,,,,,,,,,,,,,,,,,,,,,,,,,,,,,,,,,,,,,,,,,,,,,,,,,,,,,,,,,,,,,,,,,,,,,,,,,,,,,,,,,,,,,,,,,,,,,,396.7143041000236,None,962.3030378287381,-1.7753056649857237,3.5035756483951096e-05,0,"[0.6148247748921588, 0.5634612745136044, 0.6777166862794615, 0.7067384881774901]","[3360.8959819156094, 1052.0479166337152, 3530.8003371151035, 1392.5992039716061]",None,"[4.0, 5.0, 3.8732573415116693, 7.534493828869186]",False,397.7277496000752,400.62188869994134,400.62188869994134,401.83388930000365,None,0,3.6039438664447516,4.62751456652768,None,1,None,1,,,,,,,,,erfnpg,001,fr,0,0,2022-05-10_14h57.34.806,Cluster,2022.1.1,None,
,,,,1,0,1,0,3,0,3,0,,,none,,,,,,,,,,,,,,,,,,,,,,,,,,,,,,,,,,,,,,,,,,,,,,,,,,,,,,,,,,,,,,,,,,,,,,,,,,,,,,,,,,,,,,,,,,,,,,,,,,,,,,,,,,,,,,,,,,,,402.3959101000801,None,4594.793419988137,0.0,0.00012486547057085194,1,"[0.5753342798035938, 0.4767607426588695, 0.5799541077100288, 0.6966186224004705]","[1215.6272491865295, 155.8306056183919, 4869.1599492878495, 1069.8007251349077]",None,"[6.314833170568972, 7.136463664855924, 0.5793284398548444, 5.027844375041463]",False,404.5408350001089,407.2106672001537,407.2106672001537,408.4218898001127,['space'],1,3.3536790998186916,4.375360699836165,None,1,None,1,[0.3065708999056369],,,,,,,,erfnpg,001,fr,0,0,2022-05-10_14h57.34.806,Cluster,2022.1.1,None,
,,,,1,0,1,0,4,0,4,0,,,frequency,,,,,,,,,,,,,,,,,,,,,,,,,,,,,,,,,,,,,,,,,,,,,,,,,,,,,,,,,,,,,,,,,,,,,,,,,,,,,,,,,,,,,,,,,,,,,,,,,,,,,,,,,,,,,,,,,,,,408.9532331000082,None,4517.67681816857,-5.0,6.723318967308178e-05,1,"[0.5775276536209464, 0.6932976715421294, 0.4316351921845173, 0.5933120159588976]","[1792.841233403285, 2258.838409084286, 2845.9580599163382, 3585.6824668065688]",Major_3rd,"[9.0, 9.237281137673754, 7.3564450191786595, 3.0]",False,409.9472589001525,412.6801138999872,412.6801138999872,413.91709060012363,['space'],1,3.3282960664946586,4.351165766362101,None,1,None,1,[0.3323729997500777],,,,,,,,erfnpg,001,fr,0,0,2022-05-10_14h57.34.806,Cluster,2022.1.1,None,
,,,,1,0,1,0,5,0,5,0,,,none,,,,,,,,,,,,,,,,,,,,,,,,,,,,,,,,,,,,,,,,,,,,,,,,,,,,,,,,,,,,,,,,,,,,,,,,,,,,,,,,,,,,,,,,,,,,,,,,,,,,,,,,,,,,,,,,,,,,414.3373708999716,None,432.1474765113941,0.617863536165133,8.043463029269432e-05,1,"[0.7826203940242787, 0.5809450367109735, 0.44506570270074586, 0.40159795219289035]","[3672.4218819624984, 1835.7258368429568, 5439.420107219123, 394.28224573154927]",None,"[3.0, 9.0, 0.40123166226580054, 6.7336691393324175]",False,415.33502610004507,418.1917616999708,418.1917616999708,419.42323209997267,['space'],1,3.2531133664306253,4.288169066421688,None,1,None,1,[0.3816229999065399],,,,,,,,erfnpg,001,fr,0,0,2022-05-10_14h57.34.806,Cluster,2022.1.1,None,
,,,,1,0,1,0,6,0,6,0,,,both,,,,,,,,,,,,,,,,,,,,,,,,,,,,,,,,,,,,,,,,,,,,,,,,,,,,,,,,,,,,,,,,,,,,,,,,,,,,,,,,,,,,,,,,,,,,,,,,,,,,,,,,,,,,,,,,,,,,419.6751520000398,None,574.3491774985172,2.0,7.534190022389622e-05,1,"[0.7420779256274623, 0.7420779256274623, 0.7420779256274623, 0.7420779256274623]","[1447.2692374403773, 1148.6983549970344, 911.7224885582164, 723.6346187201887]",Major_3rd,"[7.534493828869186, 5.643900624143384, 4.224694335014276, 5.0]",False,420.69840830005705,423.9594253001269,423.9594253001269,425.180945500033,['space'],1,3.992320933379233,5.009634133428335,None,1,None,1,[0.3274210998788476],,,,,,,,erfnpg,001,fr,0,0,2022-05-10_14h57.34.806,Cluster,2022.1.1,None,
,,,,1,0,1,0,7,0,7,0,,,frequency,,,,,,,,,,,,,,,,,,,,,,,,,,,,,,,,,,,,,,,,,,,,,,,,,,,,,,,,,,,,,,,,,,,,,,,,,,,,,,,,,,,,,,,,,,,,,,,,,,,,,,,,,,,,,,,,,,,,425.73779290006496,None,,,,,"[0.7789603107523724, 0.7689152506771135, 0.4116222966939244, 0.6901983063959006]","[5289.92904052591, 4712.791001257888, 4198.619461883978, 3740.544696551517]",Tone,"[0.40123166226580054, 0.8445011065612587, 1.2789042272521218, 2.7967227669802486]",True,426.75505520007573,429.72911760001443,429.72911760001443,430.9626285000704,None,1,3.6816372664179653,4.705441866535693,None,1,None,1,,0,,,,,,,erfnpg,001,fr,0,0,2022-05-10_14h57.34.806,Cluster,2022.1.1,None,
,,,,1,0,1,0,8,0,8,0,,,both,,,,,,,,,,,,,,,,,,,,,,,,,,,,,,,,,,,,,,,,,,,,,,,,,,,,,,,,,,,,,,,,,,,,,,,,,,,,,,,,,,,,,,,,,,,,,,,,,,,,,,,,,,,,,,,,,,,,431.49672519997694,None,370.22712280480357,1.0,9.456784380904807e-05,1,"[0.45709496975018155, 0.45709496975018155, 0.45709496975018155, 0.45709496975018155]","[146.9247310518763, 185.11356140240184, 233.22847263189317, 293.8494621037525]",Major_3rd,"[7.0, 7.979952219004358, 8.497991955627874, 8.0]",False,432.513830000069,434.9024475000333,434.9024475000333,436.1359819001518,['space'],1,2.860416366485879,3.889462266350165,None,1,None,1,[0.5378835001029074],,,,,,,,erfnpg,001,fr,0,0,2022-05-10_14h57.34.806,Cluster,2022.1.1,None,
,,,,1,0,1,0,9,0,9,0,,,both,,,,,,,,,,,,,,,,,,,,,,,,,,,,,,,,,,,,,,,,,,,,,,,,,,,,,,,,,,,,,,,,,,,,,,,,,,,,,,,,,,,,,,,,,,,,,,,,,,,,,,,,,,,,,,,,,,,,436.4466834999621,None,217.63764082403114,0.0,0.0002308867316946748,1,"[0.49855953880149756, 0.49855953880149756, 0.49855953880149756, 0.49855953880149756]","[137.1031224618283, 153.8930516681146, 172.7391099959721, 193.89309522921693]",Tone,"[6.7607281090035265, 7.136463664855924, 7.683030925175551, 8.0]",False,438.17682219995186,440.68431339995004,440.68431339995004,441.9109720000997,['space'],1,3.010452633490786,4.029035733547062,None,1,None,1,[0.8816024998668581],,,,,,,,erfnpg,001,fr,0,0,2022-05-10_14h57.34.806,Cluster,2022.1.1,None,
,,,,1,0,1,0,10,0,10,0,,,time,,,,,,,,,,,,,,,,,,,,,,,,,,,,,,,,,,,,,,,,,,,,,,,,,,,,,,,,,,,,,,,,,,,,,,,,,,,,,,,,,,,,,,,,,,,,,,,,,,,,,,,,,,,,,,,,,,,,442.24966410011984,None,164.05290590390865,1.3953005798190787,0.0004654313701050638,1,"[0.4312695288235081, 0.4312695288235081, 0.4312695288235081, 0.4312695288235081]","[1681.7110604569907, 188.79146681766116, 555.3197023400718, 329.12640863732855]",None,"[8.456914536802293, 7.979952219004358, 6.216208046997928, 7.488071809041017]",False,443.2623286000453,445.5950983001385,445.5950983001385,446.83153980015777,['space'],1,2.749339466681704,3.7778936666436493,None,1,None,1,[0.3944404998328537],,,,,,,,erfnpg,001,fr,0,0,2022-05-10_14h57.34.806,Cluster,2022.1.1,None,
,,,,1,0,1,0,11,0,11,0,,,time,,,,,,,,,,,,,,,,,,,,,,,,,,,,,,,,,,,,,,,,,,,,,,,,,,,,,,,,,,,,,,,,,,,,,,,,,,,,,,,,,,,,,,,,,,,,,,,,,,,,,,,,,,,,,,,,,,,,447.0786486000288,None,574.3491774985172,0.0,5.984619860562044e-05,1,"[0.5910489149852652, 0.5910489149852652, 0.5910489149852652, 0.5910489149852652]","[179.57649858566785, 683.0117089727192, 2181.778424924225, 130.66473880127413]",None,"[7.683030925175551, 5.511143131943443, 9.360476064572406, 6.7607281090035265]",False,448.6796891000122,451.46896379999816,451.46896379999816,452.70743499998935,['space'],1,3.38654790003784,4.405411000130698,None,1,None,1,[0.4042132997419685],,,,,,,,erfnpg,001,fr,0,0,2022-05-10_14h57.34.806,Cluster,2022.1.1,None,
,,,,1,0,1,0,12,0,12,0,,,frequency,,,,,,,,,,,,,,,,,,,,,,,,,,,,,,,,,,,,,,,,,,,,,,,,,,,,,,,,,,,,,,,,,,,,,,,,,,,,,,,,,,,,,,,,,,,,,,,,,,,,,,,,,,,,,,,,,,,,453.1274564000778,None,,,,,"[0.790810089542563, 0.7268553740059068, 0.582112078593129, 0.4209054733630167]","[3733.3366238737963, 3326.0248125955472, 2963.151242044335, 2639.867643193252]",Tone,"[2.7967227669802486, 5.0, 6.268524139814443, 8.243990824798374]",True,454.1390827000141,457.2567464001477,457.2567464001477,458.4700093001593,['space'],0,3.563133966876194,4.594868966843933,None,1,None,1,[0.272985499817878],0,,,,,,,erfnpg,001,fr,0,0,2022-05-10_14h57.34.806,Cluster,2022.1.1,None,
,,,,1,0,1,0,13,0,13,0,,,both,,,,,,,,,,,,,,,,,,,,,,,,,,,,,,,,,,,,,,,,,,,,,,,,,,,,,,,,,,,,,,,,,,,,,,,,,,,,,,,,,,,,,,,,,,,,,,,,,,,,,,,,,,,,,,,,,,,,458.77382849995047,None,719.3043154547518,-1.0,3.862085605500791e-05,0,"[0.5270660771877673, 0.5270660771877673, 0.5270660771877673, 0.5270660771877673]","[1141.8244270381388, 1017.2499183896051, 906.266648321664, 807.3917952831121]",Tone,"[5.643900624143384, 4.527703095438838, 4.224694335014276, 4.291706120163045]",False,459.7748541000765,462.3682582001202,462.3682582001202,463.5971431999933,None,0,3.137532466556877,4.171933366451412,None,1,None,1,,,,,,,,,erfnpg,001,fr,0,0,2022-05-10_14h57.34.806,Cluster,2022.1.1,None,
,,,,1,0,1,0,14,0,14,0,,,both,,,,,,,,,,,,,,,,,,,,,,,,,,,,,,,,,,,,,,,,,,,,,,,,,,,,,,,,,,,,,,,,,,,,,,,,,,,,,,,,,,,,,,,,,,,,,,,,,,,,,,,,,,,,,,,,,,,,463.9874003001023,None,4924.577653379667,0.0,0.00014755655663396236,1,"[0.6358882621714428, 0.6358882621714428, 0.6358882621714428, 0.6358882621714428]","[3102.28952366747, 3482.2022531844973, 3908.639873736985, 4387.299918778505]",Tone,"[6.0, 3.8732573415116693, 2.0, 1.0]",False,465.77193829999305,468.69816399994306,468.69816399994306,469.93243400007486,['space'],1,3.573331266641617,4.58463756670244,None,1,None,1,[0.21741129993461072],,,,,,,,erfnpg,001,fr,0,0,2022-05-10_14h57.34.806,Cluster,2022.1.1,None,
,,,,1,0,1,0,15,0,15,0,,,frequency,,,,,,,,,,,,,,,,,,,,,,,,,,,,,,,,,,,,,,,,,,,,,,,,,,,,,,,,,,,,,,,,,,,,,,,,,,,,,,,,,,,,,,,,,,,,,,,,,,,,,,,,,,,,,,,,,,,,470.4122685000766,None,1624.5047927124701,-1.0,5.15651128922407e-05,0,"[0.5119067495645773, 0.5759561151870582, 0.6546062804653245, 0.7765548123017095]","[644.6851542197894, 812.2523963562353, 1023.3738919967745, 1289.3703084395786]",Major_3rd,"[5.511143131943443, 4.291706120163045, 4.527703095438838, 6.952235303532964]",False,471.4384131000843,474.19885620009154,474.19885620009154,475.414274699986,None,0,3.523126066662371,4.554186466615647,None,1,['space'],0,,,[0.5448785000480711],,,,,,erfnpg,001,fr,0,0,2022-05-10_14h57.34.806,Cluster,2022.1.1,None,
,,,,1,0,1,0,16,0,16,0,,,both,,,,,,,,,,,,,,,,,,,,,,,,,,,,,,,,,,,,,,,,,,,,,,,,,,,,,,,,,,,,,,,,,,,,,,,,,,,,,,,,,,,,,,,,,,,,,,,,,,,,,,,,,,,,,,,,,,,,476.0409590001218,None,,,,,"[0.6545290912133963, 0.6545290912133963, 0.6545290912133963, 0.6545290912133963]","[516.9848359415444, 580.2958578958311, 651.3600772791995, 731.1269665297617]",Tone,"[6.496714046214889, 6.216208046997928, 5.511143131943443, 5.0]",True,477.0615137000568,480.0586147001013,480.0586147001013,481.2949890999589,None,1,3.657745766453445,4.682181566487998,None,1,None,1,,0,,,,,,,erfnpg,001,fr,0,0,2022-05-10_14h57.34.806,Cluster,2022.1.1,None,
,,,,1,0,1,0,17,0,17,0,,,both,,,,,,,,,,,,,,,,,,,,,,,,,,,,,,,,,,,,,,,,,,,,,,,,,,,,,,,,,,,,,,,,,,,,,,,,,,,,,,,,,,,,,,,,,,,,,,,,,,,,,,,,,,,,,,,,,,,,481.7737382000778,None,207.17913989178564,2.2387509643365275,0.00032528418854478125,1,"[0.7490598837847383, 0.7490598837847383, 0.7490598837847383, 0.7490598837847383]","[130.51467972438766, 146.49777473787796, 164.43819230504363, 184.57563015500986]",Tone,"[6.7607281090035265, 7.0, 7.395300579819079, 7.979952219004358]",False,482.7959545000922,486.08177220006473,486.08177220006473,487.30306830001064,['space'],1,4.030935566639528,5.059891466517001,None,1,None,1,[0.2845177997369319],,,,,,,,erfnpg,001,fr,0,0,2022-05-10_14h57.34.806,Cluster,2022.1.1,None,
,,,,1,0,1,0,18,0,18,0,,,frequency,,,,,,,,,,,,,,,,,,,,,,,,,,,,,,,,,,,,,,,,,,,,,,,,,,,,,,,,,,,,,,,,,,,,,,,,,,,,,,,,,,,,,,,,,,,,,,,,,,,,,,,,,,,,,,,,,,,,487.9046968999319,None,7227.534482038325,-6.749294479563709,7.269966376343409e-05,1,"[0.7752190804149428, 0.5327645818179254, 0.5790024455217927, 0.4941160338038655]","[4553.061416380562, 5110.638643508901, 5736.497919962037, 6439.001205363045]",Tone,"[0.8445011065612587, 0.40123166226580054, 0.23089339059954916, -0.2486732484955798]",False,488.90490419999696,491.80400050012395,491.80400050012395,493.03065249999054,['space'],1,3.417773066787049,4.456823066808283,None,1,None,1,[0.695270799798891],,,,,,,,erfnpg,001,fr,0,0,2022-05-10_14h57.34.806,Cluster,2022.1.1,None,
,,,,1,0,1,0,19,0,19,0,,,none,,,,,,,,,,,,,,,,,,,,,,,,,,,,,,,,,,,,,,,,,,,,,,,,,,,,,,,,,,,,,,,,,,,,,,,,,,,,,,,,,,,,,,,,,,,,,,,,,,,,,,,,,,,,,,,,,,,,493.4044519001618,None,1515.7165665103996,0.0,4.963027899072243e-05,0,"[0.6511796338849116, 0.6900096001093015, 0.7301534593251425, 0.6524752116369876]","[142.53424982048827, 2712.2847145655537, 374.541320545746, 911.4469291584867]",None,"[6.919512542731903, 8.0, 7.0, 4.224694335014276]",False,494.4332051000092,497.5319654000923,497.5319654000923,498.75515029998496,None,0,3.744864866603166,4.780417366651818,None,1,None,1,,,,,,,,,erfnpg,001,fr,0,0,2022-05-10_14h57.34.806,Cluster,2022.1.1,None,
,,,,2,0,2,0,0,0,0,0,,,time,,,,,,,,,,,,,,,,,,,,,,,,,,,,,,,,,,,,,,,,,,,,,,,,,,,,,,,,,,,,,,,,,,,,,,,,,,,,,,,,,,,,,,,,,,,,,,,,,,,,,,,,,,,,,,,,,,,,562.2441593001131,None,,,,,"[0.7221960499413491, 0.7221960499413491, 0.7221960499413491, 0.7221960499413491]","[290.6805770606163, 1123.3773516455562, 1185.2669055304784, 139.6878092415064]",None,"[8.0, 5.643900624143384, 6.0, 6.919512542731903]",True,563.2086004000157,566.4027569999453,566.4027569999453,567.6400979999453,None,1,3.932904666522518,4.956255866447464,None,1,None,1,,0,,,,,,,erfnpg,001,fr,0,0,2022-05-10_14h57.34.806,Cluster,2022.1.1,None,
,,,,2,0,2,0,1,0,1,0,,,frequency,,,,,,,,,,,,,,,,,,,,,,,,,,,,,,,,,,,,,,,,,,,,,,,,,,,,,,,,,,,,,,,,,,,,,,,,,,,,,,,,,,,,,,,,,,,,,,,,,,,,,,,,,,,,,,,,,,,,568.2027533999644,None,435.2752816480623,1.0,8.387303461037769e-05,1,"[0.5141812863451697, 0.6909595430150819, 0.7706299897844742, 0.5416239501692426]","[1096.8249796946266, 870.5505632961247, 690.9564399838885, 548.4124898473133]",Major_3rd,"[5.027844375041463, 4.1456602449515545, 5.058528304845914, 6.40013392183546]",False,569.243921100162,572.2340886001475,572.2340886001475,573.4538751000073,['space'],1,3.5207315664738417,4.5621862665284425,None,1,None,1,[0.5074430999811739],,,,,,,,erfnpg,001,fr,0,0,2022-05-10_14h57.34.806,Cluster,2022.1.1,None,
,,,,2,0,2,0,2,0,2,0,,,frequency,,,,,,,,,,,,,,,,,,,,,,,,,,,,,,,,,,,,,,,,,,,,,,,,,,,,,,,,,,,,,,,,,,,,,,,,,,,,,,,,,,,,,,,,,,,,,,,,,,,,,,,,,,,,,,,,,,,,573.8563064001501,None,4464.132017734445,-5.0,6.516141414627837e-05,1,"[0.7798347766677401, 0.44345301522091574, 0.539870006864083, 0.6650217973462822]","[7086.367861076579, 6313.236043704022, 5624.453898653301, 5010.81876854966]",Tone,"[-0.5204586067179751, -0.2486732484955798, 0.23089339059954916, 0.5793284398548444]",False,574.8648193001281,577.6562082001474,577.6562082001474,578.8845222999807,['space'],1,3.4533105664886534,4.492065966362134,None,1,None,1,[0.5542876997496933],,,,,,,,erfnpg,001,fr,0,0,2022-05-10_14h57.34.806,Cluster,2022.1.1,None,
,,,,2,0,2,0,3,0,3,0,,,none,,,,,,,,,,,,,,,,,,,,,,,,,,,,,,,,,,,,,,,,,,,,,,,,,,,,,,,,,,,,,,,,,,,,,,,,,,,,,,,,,,,,,,,,,,,,,,,,,,,,,,,,,,,,,,,,,,,,579.4031241999473,None,2301.0989464405848,3.237281137673755,0.00011829020669604084,0,"[0.5139462038204407, 0.7824722576479224, 0.4696015264193376, 0.5367558554148812]","[5155.352396778525, 781.9178866017219, 4043.9859388646196, 4512.285116898406]",None,"[0.40123166226580054, 4.615494661919124, 1.9207490549914885, 1.0]",False,580.4171466000844,583.2016666000709,583.2016666000709,584.4231257999782,None,0,3.324809866491705,4.366010066354647,None,1,None,1,,,,,,,,,erfnpg,001,fr,0,0,2022-05-10_14h57.34.806,Cluster,2022.1.1,None,
,,,,2,0,2,0,4,0,4,0,,,none,,,,,,,,,,,,,,,,,,,,,,,,,,,,,,,,,,,,,,,,,,,,,,,,,,,,,,,,,,,,,,,,,,,,,,,,,,,,,,,,,,,,,,,,,,,,,,,,,,,,,,,,,,,,,,,,,,,,584.816680500051,None,,,,,"[0.4771205699229055, 0.6128825729548242, 0.5153007166122142, 0.5892874912746157]","[176.26446415360323, 4666.262193047438, 811.6127595251783, 622.191776485551]",None,"[7.683030925175551, 0.8445011065612587, 4.291706120163045, 5.911524192183128]",True,585.8357494000811,588.4814671999775,588.4814671999775,589.7036115000956,None,1,3.2228680667467415,4.251778466627002,None,1,None,1,,0,,,,,,,erfnpg,001,fr,0,0,2022-05-10_14h57.34.806,Cluster,2022.1.1,None,
,,,,2,0,2,0,5,0,5,0,,,both,,,,,,,,,,,,,,,,,,,,,,,,,,,,,,,,,,,,,,,,,,,,,,,,,,,,,,,,,,,,,,,,,,,,,,,,,,,,,,,,,,,,,,,,,,,,,,,,,,,,,,,,,,,,,,,,,,,,590.1261227000505,None,3249.0095854249403,1.0,7.939092648083988e-05,0,"[0.4686283716563024, 0.4686283716563024, 0.4686283716563024, 0.4686283716563024]","[2046.7477839935482, 2297.3967099940683, 2578.7406168791567, 2894.5384748807546]",Tone,"[9.296753518001285, 9.237281137673754, 8.243990824798374, 7.0]",False,591.1552699999884,593.5911006999668,593.5911006999668,594.8126058001071,None,0,2.9006105666048825,3.9366765667218715,['space'],0,None,1,,,,[-0.02095470018684864],,,,,erfnpg,001,fr,0,0,2022-05-10_14h57.34.806,Cluster,2022.1.1,None,
,,,,2,0,2,0,6,0,6,0,,,both,,,,,,,,,,,,,,,,,,,,,,,,,,,,,,,,,,,,,,,,,,,,,,,,,,,,,,,,,,,,,,,,,,,,,,,,,,,,,,,,,,,,,,,,,,,,,,,,,,,,,,,,,,,,,,,,,,,,595.144091400085,None,2138.2757617103266,3.3604760645724063,0.00011466553491713751,1,"[0.583128936157903, 0.583128936157903, 0.583128936157903, 0.583128936157903]","[3394.3011935370755, 3023.9785823044044, 2694.0586426588343, 2400.133391339658]",Tone,"[4.0, 6.268524139814443, 8.0, 9.0]",False,596.1440177999903,598.9191221001092,598.9191221001092,600.1505877000745,['space'],1,3.376779166283086,4.413047166308388,None,1,None,1,[0.4084897998254746],,,,,,,,erfnpg,001,fr,0,0,2022-05-10_14h57.34.806,Cluster,2022.1.1,None,
,,,,2,0,2,0,7,0,7,0,,,none,,,,,,,,,,,,,,,,,,,,,,,,,,,,,,,,,,,,,,,,,,,,,,,,,,,,,,,,,,,,,,,,,,,,,,,,,,,,,,,,,,,,,,,,,,,,,,,,,,,,,,,,,,,,,,,,,,,,600.6002783000004,None,615.5722066724584,-2.0,4.2429353029554974e-05,0,"[0.568923028601223, 0.571076954954403, 0.7680177396134116, 0.4781103516263341]","[1441.2683029978275, 987.990749563601, 1660.4402284678179, 616.9665011180676]",None,"[7.534493828869186, 4.527703095438838, 8.456914536802293, 5.911524192183128]",False,601.6346267000772,604.5708956001326,604.5708956001326,605.8047365001403,None,0,3.3941591666080058,4.415587866678834,None,1,None,1,,,,,,,,,erfnpg,001,fr,0,0,2022-05-10_14h57.34.806,Cluster,2022.1.1,None,
,,,,2,0,2,0,8,0,8,0,,,time,,,,,,,,,,,,,,,,,,,,,,,,,,,,,,,,,,,,,,,,,,,,,,,,,,,,,,,,,,,,,,,,,,,,,,,,,,,,,,,,,,,,,,,,,,,,,,,,,,,,,,,,,,,,,,,,,,,,606.1102048000321,None,,,,,"[0.718808026364792, 0.718808026364792, 0.718808026364792, 0.718808026364792]","[394.9329351656024, 314.6794344656486, 995.735358379856, 156.62157370992506]",None,"[6.7336691393324175, 7.801313489013854, 4.527703095438838, 7.136463664855924]",True,607.096745399991,610.2777758000884,610.2777758000884,611.5298433999997,None,1,3.89207926671952,4.9299351666122675,None,1,None,1,,0,,,,,,,erfnpg,001,fr,0,0,2022-05-10_14h57.34.806,Cluster,2022.1.1,None,
,,,,2,0,2,0,9,0,9,0,,,both,,,,,,,,,,,,,,,,,,,,,,,,,,,,,,,,,,,,,,,,,,,,,,,,,,,,,,,,,,,,,,,,,,,,,,,,,,,,,,,,,,,,,,,,,,,,,,,,,,,,,,,,,,,,,,,,,,,,612.063720199978,None,1414.213562373095,-3.0,3.570336253224866e-05,0,"[0.4991885116595425, 0.4991885116595425, 0.4991885116595425, 0.4991885116595425]","[280.6155120773433, 420.4482076268573, 629.9605249474366, 943.8743126816935]",Perfect_5th,"[8.101610357160641, 6.7336691393324175, 5.911524192183128, 4.224694335014276]",False,613.097091600066,615.615833299933,615.615833299933,616.8454055001494,None,0,3.006382866529748,4.030856366734952,None,1,None,1,,,,,,,,,erfnpg,001,fr,0,0,2022-05-10_14h57.34.806,Cluster,2022.1.1,None,
,,,,2,0,2,0,10,0,10,0,,,time,,,,,,,,,,,,,,,,,,,,,,,,,,,,,,,,,,,,,,,,,,,,,,,,,,,,,,,,,,,,,,,,,,,,,,,,,,,,,,,,,,,,,,,,,,,,,,,,,,,,,,,,,,,,,,,,,,,,617.1790140001103,None,2215.6672761749455,3.3604760645724063,0.00011719151208426351,1,"[0.4129943761557129, 0.4129943761557129, 0.4129943761557129, 0.4129943761557129]","[2782.8458559843502, 3534.5125660045514, 980.4183724952105, 4477.901167478778]",None,"[7.3564450191786595, 3.8732573415116693, 4.527703095438838, 1.0]",False,618.1902638999745,620.4351815001573,620.4351815001573,621.6528078999836,['space'],1,2.6702640664298087,3.6998197664506733,None,1,None,1,[0.827382399700582],,,,,,,,erfnpg,001,fr,0,0,2022-05-10_14h57.34.806,Cluster,2022.1.1,None,
,,,,2,0,2,0,11,0,11,0,,,time,,,,,,,,,,,,,,,,,,,,,,,,,,,,,,,,,,,,,,,,,,,,,,,,,,,,,,,,,,,,,,,,,,,,,,,,,,,,,,,,,,,,,,,,,,,,,,,,,,,,,,,,,,,,,,,,,,,,621.9313728001434,None,1414.213562373095,-2.0,4.005983164181629e-05,0,"[0.5111780686636465, 0.5111780686636465, 0.5111780686636465, 0.5111780686636465]","[235.67519796203894, 168.78255435847458, 3438.8134513666555, 855.3090879576189]",None,"[8.497991955627874, 7.395300579819079, 4.0, 4.1456602449515545]",False,623.5742973000742,626.146083000116,626.146083000116,627.355709000025,None,0,3.0657925999257714,4.091590799856931,None,1,None,1,,,,,,,,,erfnpg,001,fr,0,0,2022-05-10_14h57.34.806,Cluster,2022.1.1,None,
,,,,2,0,2,0,12,0,12,0,,,frequency,,,,,,,,,,,,,,,,,,,,,,,,,,,,,,,,,,,,,,,,,,,,,,,,,,,,,,,,,,,,,,,,,,,,,,,,,,,,,,,,,,,,,,,,,,,,,,,,,,,,,,,,,,,,,,,,,,,,627.7142984000966,None,659.7539553864473,-5.0,2.730473327450918e-05,0,"[0.66253535332722, 0.5518049653974841, 0.6315086492637411, 0.7961273803057289]","[415.6189480713939, 466.51649576840373, 523.6470614103134, 587.7739531418044]",Tone,"[6.7336691393324175, 6.552496604039485, 6.40013392183546, 6.216208046997928]",False,628.8043416000437,631.6775930000003,631.6775930000003,632.9174347999506,None,0,3.6608837333042175,4.683869633125141,None,1,None,1,,,,,,,,,erfnpg,001,fr,0,0,2022-05-10_14h57.34.806,Cluster,2022.1.1,None,
,,,,2,0,2,0,13,0,13,0,,,both,,,,,,,,,,,,,,,,,,,,,,,,,,,,,,,,,,,,,,,,,,,,,,,,,,,,,,,,,,,,,,,,,,,,,,,,,,,,,,,,,,,,,,,,,,,,,,,,,,,,,,,,,,,,,,,,,,,,633.540768600069,None,3584.2320178853856,-3.0,5.425821575796134e-05,0,"[0.6604117981557296, 0.6604117981557296, 0.6604117981557296, 0.6604117981557296]","[5689.613675689364, 5068.869530385398, 4515.849367040975, 4023.1644124116674]",Tone,"[0.23089339059954916, 0.5793284398548444, 1.0, 1.9207490549914885]",False,634.5372117999941,637.5524848999921,637.5524848999921,638.7785102999769,None,0,3.68437726655975,4.703997966600582,None,1,None,1,,,,,,,,,erfnpg,001,fr,0,0,2022-05-10_14h57.34.806,Cluster,2022.1.1,None,
,,,,2,0,2,0,14,0,14,0,,,both,,,,,,,,,,,,,,,,,,,,,,,,,,,,,,,,,,,,,,,,,,,,,,,,,,,,,,,,,,,,,,,,,,,,,,,,,,,,,,,,,,,,,,,,,,,,,,,,,,,,,,,,,,,,,,,,,,,,639.2777639001142,None,8000.0,-4.0,0.00011454338263838867,1,"[0.53273660970622, 0.53273660970622, 0.53273660970622, 0.53273660970622]","[3174.8021039364003, 4000.0000000000014, 5039.684199579494, 6349.604207872799]",Major_3rd,"[5.070064131485763, 1.9207490549914885, 0.5793284398548444, -0.2486732484955798]",False,641.1401821000036,643.7543001000304,643.7543001000304,644.982772000134,['space'],1,3.1467753667384386,4.19562146672979,None,1,None,1,[0.3284376997034997],,,,,,,,erfnpg,001,fr,0,0,2022-05-10_14h57.34.806,Cluster,2022.1.1,None,
,,,,2,0,2,0,15,0,15,0,,,frequency,,,,,,,,,,,,,,,,,,,,,,,,,,,,,,,,,,,,,,,,,,,,,,,,,,,,,,,,,,,,,,,,,,,,,,,,,,,,,,,,,,,,,,,,,,,,,,,,,,,,,,,,,,,,,,,,,,,,645.3734649999533,None,,,,,"[0.5525003036799534, 0.6810062758040827, 0.6838727018559771, 0.42574765261914965]","[3688.083121282621, 4139.733334650116, 4646.693558265961, 5215.737169277179]",Tone,"[3.0, 1.9207490549914885, 0.8445011065612587, 0.40123166226580054]",True,646.3891054999549,649.3264576999936,649.3264576999936,650.5627514000516,None,1,3.384275966556743,4.4190862665418535,None,1,None,1,,0,,,,,,,erfnpg,001,fr,0,0,2022-05-10_14h57.34.806,Cluster,2022.1.1,None,
,,,,2,0,2,0,16,0,16,0,,,time,,,,,,,,,,,,,,,,,,,,,,,,,,,,,,,,,,,,,,,,,,,,,,,,,,,,,,,,,,,,,,,,,,,,,,,,,,,,,,,,,,,,,,,,,,,,,,,,,,,,,,,,,,,,,,,,,,,,650.8448620999698,None,1272.4383744536322,0.31483317056897286,5.5943604030508556e-05,1,"[0.42194789286461265, 0.42194789286461265, 0.42194789286461265, 0.42194789286461265]","[368.22534064480044, 1638.374401092884, 3050.2654698317774, 1623.7465138587806]",None,"[7.0, 8.456914536802293, 6.268524139814443, 8.456914536802293]",False,651.8619844000787,654.1389099000953,654.1389099000953,655.3808319999371,['space'],1,2.719780266750604,3.7403623666614294,None,1,None,1,[0.5293171000666916],,,,,,,,erfnpg,001,fr,0,0,2022-05-10_14h57.34.806,Cluster,2022.1.1,None,
,,,,2,0,2,0,17,0,17,0,,,both,,,,,,,,,,,,,,,,,,,,,,,,,,,,,,,,,,,,,,,,,,,,,,,,,,,,,,,,,,,,,,,,,,,,,,,,,,,,,,,,,,,,,,,,,,,,,,,,,,,,,,,,,,,,,,,,,,,,655.6592564999592,None,246.80442347167948,2.468962899417771,0.0002308642116692277,1,"[0.6204988140507863, 0.6204988140507863, 0.6204988140507863, 0.6204988140507863]","[391.77760144934905, 349.0341629273218, 310.95408833913734, 277.0285987018353]",Tone,"[6.923446411116335, 7.186672611562737, 7.801313489013854, 8.332992182463364]",False,656.6694150001276,659.5613486999646,659.5613486999646,660.7992757000029,['space'],1,3.5110877663828433,4.545598866418004,None,1,None,1,[0.7074996000155807],,,,,,,,erfnpg,001,fr,0,0,2022-05-10_14h57.34.806,Cluster,2022.1.1,None,
,,,,2,0,2,0,18,0,18,0,,,frequency,,,,,,,,,,,,,,,,,,,,,,,,,,,,,,,,,,,,,,,,,,,,,,,,,,,,,,,,,,,,,,,,,,,,,,,,,,,,,,,,,,,,,,,,,,,,,,,,,,,,,,,,,,,,,,,,,,,,661.2582292000297,None,318.3300607243125,1.8013134890138534,0.00012028510882667138,1,"[0.4826916462760914, 0.6733988929677094, 0.6453461822128104, 0.5331560432626603]","[1604.282977283498, 1070.7304277222865, 714.6268239981177, 476.95618276582115]",Perfect_5th,"[8.456914536802293, 5.027844375041463, 5.0, 6.552496604039485]",False,662.2738181001041,665.1102261000779,665.1102261000779,666.329133399995,['space'],1,3.3545049666427076,4.3782947664149106,None,1,None,1,[0.3002246997784823],,,,,,,,erfnpg,001,fr,0,0,2022-05-10_14h57.34.806,Cluster,2022.1.1,None,
,,,,2,0,2,0,19,0,19,0,,,frequency,,,,,,,,,,,,,,,,,,,,,,,,,,,,,,,,,,,,,,,,,,,,,,,,,,,,,,,,,,,,,,,,,,,,,,,,,,,,,,,,,,,,,,,,,,,,,,,,,,,,,,,,,,,,,,,,,,,,666.6953191000503,None,,,,,"[0.7928555330950553, 0.48546855643525333, 0.5165755338506801, 0.6113336420591313]","[1232.3506586579974, 1552.6645356950226, 1956.2347319474084, 2464.7013173159944]",Major_3rd,"[6.314833170568972, 8.032865359491113, 9.296753518001285, 8.865510346829453]",True,667.7042141000275,670.5336289000697,670.5336289000697,671.7510373000987,None,1,3.4341557663865387,4.449993766378611,None,1,None,1,,0,,,,,,,erfnpg,001,fr,0,0,2022-05-10_14h57.34.806,Cluster,2022.1.1,None,
,,,,3,0,3,0,0,0,0,0,,,both,,,,,,,,,,,,,,,,,,,,,,,,,,,,,,,,,,,,,,,,,,,,,,,,,,,,,,,,,,,,,,,,,,,,,,,,,,,,,,,,,,,,,,,,,,,,,,,,,,,,,,,,,,,,,,,,,,,,762.1656405001413,None,189.4645708137998,-4.0,0.00019169242467719167,0,"[0.6599413409323364, 0.6599413409323364, 0.6599413409323364, 0.6599413409323364]","[300.7562590205293, 267.9433656340734, 238.71040097760422, 212.666790237714]",Tone,"[8.0, 8.332992182463364, 8.497991955627874, 8.417660824179716]",False,763.1604021999519,766.180903499946,766.180903499946,767.4152879000176,None,0,3.665143566671759,4.68343066656962,None,1,None,1,,,,,,,,,erfnpg,001,fr,0,0,2022-05-10_14h57.34.806,Cluster,2022.1.1,None,
,,,,3,0,3,0,1,0,1,0,,,time,,,,,,,,,,,,,,,,,,,,,,,,,,,,,,,,,,,,,,,,,,,,,,,,,,,,,,,,,,,,,,,,,,,,,,,,,,,,,,,,,,,,,,,,,,,,,,,,,,,,,,,,,,,,,,,,,,,,767.8954843000975,None,250.0,0.0,0.0001674827195789138,1,"[0.6052517166349992, 0.6052517166349992, 0.6052517166349992, 0.6052517166349992]","[5580.790516006199, 131.11614037996287, 247.87397123165118, 1615.7627025741067]",None,"[0.23089339059954916, 6.7607281090035265, 8.468962899417772, 8.456914536802293]",False,768.9275261999574,771.7714923000894,771.7714923000894,772.9923553999979,['space'],1,3.4373916334006935,4.47598193353042,None,1,None,1,[0.3607778998557478],,,,,,,,erfnpg,001,fr,0,0,2022-05-10_14h57.34.806,Cluster,2022.1.1,None,
,,,,3,0,3,0,2,0,2,0,,,none,,,,,,,,,,,,,,,,,,,,,,,,,,,,,,,,,,,,,,,,,,,,,,,,,,,,,,,,,,,,,,,,,,,,,,,,,,,,,,,,,,,,,,,,,,,,,,,,,,,,,,,,,,,,,,,,,,,,773.4433606001548,None,125.37897280911011,0.6513169308613973,0.0007753604696349547,1,"[0.5425913218735766, 0.4262172945540289, 0.6184724436759275, 0.5453444170333674]","[2073.131683564957, 1571.3207514900769, 246.2222702868905, 333.60147368030226]",None,"[9.360476064572406, 8.456914536802293, 8.468962899417772, 7.488071809041017]",False,774.4552422000561,777.072336900048,777.072336900048,778.3097300999798,['space'],1,3.156038066605106,4.1841644665692,None,1,None,1,[0.47541739977896214],,,,,,,,erfnpg,001,fr,0,0,2022-05-10_14h57.34.806,Cluster,2022.1.1,None,
,,,,3,0,3,0,3,0,3,0,,,none,,,,,,,,,,,,,,,,,,,,,,,,,,,,,,,,,,,,,,,,,,,,,,,,,,,,,,,,,,,,,,,,,,,,,,,,,,,,,,,,,,,,,,,,,,,,,,,,,,,,,,,,,,,,,,,,,,,,778.6813000999391,None,,,,,"[0.7559716944821693, 0.4655880965539879, 0.7441621189567726, 0.6512514768554785]","[1786.1662254244297, 133.73184683405054, 1243.3988402599375, 6325.7240540109615]",None,"[9.0, 6.7607281090035265, 6.314833170568972, -0.2486732484955798]",True,779.6990525000729,782.6890654999297,782.6890654999297,783.9178859000094,['space'],0,3.6512346665840596,4.6944772666320205,None,1,None,1,[0.2267972999252379],0,,,,,,,erfnpg,001,fr,0,0,2022-05-10_14h57.34.806,Cluster,2022.1.1,None,
,,,,3,0,3,0,4,0,4,0,,,both,,,,,,,,,,,,,,,,,,,,,,,,,,,,,,,,,,,,,,,,,,,,,,,,,,,,,,,,,,,,,,,,,,,,,,,,,,,,,,,,,,,,,,,,,,,,,,,,,,,,,,,,,,,,,,,,,,,,784.432826400036,None,1073.6501811084972,-0.9721556249585369,4.2142226429875694e-05,1,"[0.7425477837981943, 0.7425477837981943, 0.7425477837981943, 0.7425477837981943]","[213.03917836718458, 319.1981085995463, 478.2567850403517, 716.5755255902487]",Perfect_5th,"[8.417660824179716, 7.488071809041017, 6.552496604039485, 5.0]",False,785.4364338000305,788.6884473999962,788.6884473999962,789.9239004999399,['space'],1,4.007326266495511,5.020109266508371,None,1,None,1,[0.48356779967434704],,,,,,,,erfnpg,001,fr,0,0,2022-05-10_14h57.34.806,Cluster,2022.1.1,None,
,,,,3,0,3,0,5,0,5,0,,,none,,,,,,,,,,,,,,,,,,,,,,,,,,,,,,,,,,,,,,,,,,,,,,,,,,,,,,,,,,,,,,,,,,,,,,,,,,,,,,,,,,,,,,,,,,,,,,,,,,,,,,,,,,,,,,,,,,,,790.5051567000337,None,3482.202253184498,0.0,7.485072584861476e-05,0,"[0.7435233537382433, 0.7861935674581195, 0.5874477807374027, 0.5854813837018938]","[150.6873769238318, 6027.236235165645, 183.1950578112847, 734.2825400693123]",None,"[7.136463664855924, 0.015661922096660064, 7.979952219004358, 5.0]",False,791.5411072999705,794.6976324999705,794.6976324999705,795.9284588000737,None,0,3.712843766435981,4.729738466441631,None,1,None,1,,,,,,,,,erfnpg,001,fr,0,0,2022-05-10_14h57.34.806,Cluster,2022.1.1,None,
,,,,3,0,3,0,6,0,6,0,,,none,,,,,,,,,,,,,,,,,,,,,,,,,,,,,,,,,,,,,,,,,,,,,,,,,,,,,,,,,,,,,,,,,,,,,,,,,,,,,,,,,,,,,,,,,,,,,,,,,,,,,,,,,,,,,,,,,,,,796.3210603001062,None,4117.756594069773,-4.0792509450085115,5.7547447662244544e-05,1,"[0.6189671536353016, 0.47832220579562096, 0.6529796086519734, 0.5524646333927383]","[184.60431302950866, 7875.427452030663, 2645.2034169564668, 7736.019669127136]",None,"[7.979952219004358, -0.869648872614917, 8.243990824798374, -0.869648872614917]",False,797.3527714000084,800.1255274999421,800.1255274999421,801.3585930000991,['space'],1,3.3456029663793743,4.364274566527456,None,1,None,1,[0.44352259999141097],,,,,,,,erfnpg,001,fr,0,0,2022-05-10_14h57.34.806,Cluster,2022.1.1,None,
,,,,3,0,3,0,7,0,7,0,,,both,,,,,,,,,,,,,,,,,,,,,,,,,,,,,,,,,,,,,,,,,,,,,,,,,,,,,,,,,,,,,,,,,,,,,,,,,,,,,,,,,,,,,,,,,,,,,,,,,,,,,,,,,,,,,,,,,,,,801.7640118999407,None,6062.8662660415985,-5.0,6.682440389904723e-05,1,"[0.5569108541077691, 0.5569108541077691, 0.5569108541077691, 0.5569108541077691]","[2406.0500721642366, 3031.4331330208, 3819.3664156416708, 4812.100144328472]",Major_3rd,"[9.0, 6.268524139814443, 2.7967227669802486, 0.5793284398548444]",False,802.8023735000752,805.5062224001158,805.5062224001158,806.7412100001238,['space'],1,3.239211166743189,4.266730866627768,None,1,None,1,[0.27192789991386235],,,,,,,,erfnpg,001,fr,0,0,2022-05-10_14h57.34.806,Cluster,2022.1.1,None,
,,,,3,0,3,0,8,0,8,0,,,both,,,,,,,,,,,,,,,,,,,,,,,,,,,,,,,,,,,,,,,,,,,,,,,,,,,,,,,,,,,,,,,,,,,,,,,,,,,,,,,,,,,,,,,,,,,,,,,,,,,,,,,,,,,,,,,,,,,,807.121179100126,None,1800.7176734424113,3.0,9.296413430268616e-05,1,"[0.5904673774653688, 0.5904673774653688, 0.5904673774653688, 0.5904673774653688]","[2858.4611291202123, 2546.599355787184, 2268.762101687816, 2021.2372481590576]",Tone,"[7.3564450191786595, 8.865510346829453, 9.237281137673754, 9.296753518001285]",False,808.1263572999742,810.945910600014,810.945910600014,812.1615713001229,['space'],1,3.3971236667130142,4.421490466687828,None,1,None,1,[0.29060329985804856],,,,,,,,erfnpg,001,fr,0,0,2022-05-10_14h57.34.806,Cluster,2022.1.1,None,
,,,,3,0,3,0,9,0,9,0,,,time,,,,,,,,,,,,,,,,,,,,,,,,,,,,,,,,,,,,,,,,,,,,,,,,,,,,,,,,,,,,,,,,,,,,,,,,,,,,,,,,,,,,,,,,,,,,,,,,,,,,,,,,,,,,,,,,,,,,812.5966646000743,None,,,,,"[0.634609184838426, 0.634609184838426, 0.634609184838426, 0.634609184838426]","[3293.005224598388, 902.251191118224, 536.7451526115144, 475.95471386450464]",None,"[5.0, 4.224694335014276, 6.40013392183546, 6.552496604039485]",True,813.615272999974,816.552428400144,816.552428400144,817.7896477000322,None,1,3.580649566836655,4.606568966759369,None,1,None,1,,0,,,,,,,erfnpg,001,fr,0,0,2022-05-10_14h57.34.806,Cluster,2022.1.1,None,
,,,,3,0,3,0,10,0,10,0,,,time,,,,,,,,,,,,,,,,,,,,,,,,,,,,,,,,,,,,,,,,,,,,,,,,,,,,,,,,,,,,,,,,,,,,,,,,,,,,,,,,,,,,,,,,,,,,,,,,,,,,,,,,,,,,,,,,,,,,818.2656219999772,None,5940.684664511553,-5.98433807790334,5.9275479310081673e-05,1,"[0.6593324520753381, 0.6593324520753381, 0.6593324520753381, 0.6593324520753381]","[1564.8940557428164, 140.97552726982443, 3724.6194349420643, 4755.482953397955]",None,"[8.032865359491113, 6.919512542731903, 2.7967227669802486, 0.8445011065612587]",False,819.2707154001109,822.271350499941,822.271350499941,823.4916836000048,['space'],1,3.658439966617152,4.700713766505942,None,1,None,1,[0.26205119979567826],,,,,,,,erfnpg,001,fr,0,0,2022-05-10_14h57.34.806,Cluster,2022.1.1,None,
,,,,3,0,3,0,11,0,11,0,,,time,,,,,,,,,,,,,,,,,,,,,,,,,,,,,,,,,,,,,,,,,,,,,,,,,,,,,,,,,,,,,,,,,,,,,,,,,,,,,,,,,,,,,,,,,,,,,,,,,,,,,,,,,,,,,,,,,,,,824.018917700043,None,435.2752816480623,1.0,8.387303461037769e-05,1,"[0.6058622418356484, 0.6058622418356484, 0.6058622418356484, 0.6058622418356484]","[171.48751977330886, 265.1609313305829, 1566.8674142257164, 619.3899127711849]",None,"[7.683030925175551, 8.332992182463364, 8.032865359491113, 5.911524192183128]",False,825.8085757000372,828.6539902000222,828.6539902000222,829.8718453000765,['space'],1,3.443235566606745,4.475176166510209,None,1,None,1,[0.3612884997855872],,,,,,,,erfnpg,001,fr,0,0,2022-05-10_14h57.34.806,Cluster,2022.1.1,None,
,,,,3,0,3,0,12,0,12,0,,,frequency,,,,,,,,,,,,,,,,,,,,,,,,,,,,,,,,,,,,,,,,,,,,,,,,,,,,,,,,,,,,,,,,,,,,,,,,,,,,,,,,,,,,,,,,,,,,,,,,,,,,,,,,,,,,,,,,,,,,830.3359938999638,None,203.0630990890589,-4.0,0.00016369622261606785,0,"[0.6117023955837575, 0.7036023501830158, 0.5384613273401728, 0.5450568166213403]","[127.92173649959686, 143.58729437462938, 161.1712885549474, 180.90865468004728]",Tone,"[6.651316930861397, 6.919512542731903, 7.395300579819079, 7.683030925175551]",False,831.3468168999534,834.2142618000507,834.2142618000507,835.4360644000117,None,0,3.418912166496739,4.43540406646207,None,1,None,1,,,,,,,,,erfnpg,001,fr,0,0,2022-05-10_14h57.34.806,Cluster,2022.1.1,None,
,,,,3,0,3,0,13,0,13,0,,,both,,,,,,,,,,,,,,,,,,,,,,,,,,,,,,,,,,,,,,,,,,,,,,,,,,,,,,,,,,,,,,,,,,,,,,,,,,,,,,,,,,,,,,,,,,,,,,,,,,,,,,,,,,,,,,,,,,,,835.8342693001032,None,466.5164957684038,0.0,7.315559622348784e-05,1,"[0.4147890516183673, 0.4147890516183673, 0.4147890516183673, 0.4147890516183673]","[293.88697657090216, 329.8769776932236, 370.2743880716411, 415.61894807139396]",Tone,"[8.0, 7.488071809041017, 7.0, 6.7336691393324175]",False,836.8576341001317,839.1322387000546,839.1322387000546,840.3729789999779,['space'],1,2.665446366649121,3.706444166600704,None,1,None,1,[0.3889760000165552],,,,,,,,erfnpg,001,fr,0,0,2022-05-10_14h57.34.806,Cluster,2022.1.1,None,
,,,,3,0,3,0,14,0,14,0,,,time,,,,,,,,,,,,,,,,,,,,,,,,,,,,,,,,,,,,,,,,,,,,,,,,,,,,,,,,,,,,,,,,,,,,,,,,,,,,,,,,,,,,,,,,,,,,,,,,,,,,,,,,,,,,,,,,,,,,840.6232752001379,None,,,,,"[0.6930291739814027, 0.6930291739814027, 0.6930291739814027, 0.6930291739814027]","[308.48038530475804, 460.8818776801716, 3704.4455348650094, 1142.9035041139255]",None,"[7.801313489013854, 6.552496604039485, 3.0, 5.643900624143384]",True,841.6287285999861,844.7470980000217,844.7470980000217,845.9804680999368,None,1,3.7939467665273696,4.807169366627932,None,1,None,1,,0,,,,,,,erfnpg,001,fr,0,0,2022-05-10_14h57.34.806,Cluster,2022.1.1,None,
,,,,3,0,3,0,15,0,15,0,,,time,,,,,,,,,,,,,,,,,,,,,,,,,,,,,,,,,,,,,,,,,,,,,,,,,,,,,,,,,,,,,,,,,,,,,,,,,,,,,,,,,,,,,,,,,,,,,,,,,,,,,,,,,,,,,,,,,,,,846.4735209001228,None,3212.317910493455,-0.9299358685142374,6.29945060705678e-05,1,"[0.4272031189857799, 0.4272031189857799, 0.4272031189857799, 0.4272031189857799]","[493.48310180207125, 601.805278266794, 3351.356219523463, 245.88050822274397]",None,"[6.496714046214889, 6.0, 5.0, 8.468962899417772]",False,847.4826245000586,849.7935711001046,849.7935711001046,851.0211678000633,['space'],1,2.7401381665840745,3.7817602665163577,None,1,None,1,[0.937037899857387],,,,,,,,erfnpg,001,fr,0,0,2022-05-10_14h57.34.806,Cluster,2022.1.1,None,
,,,,3,0,3,0,16,0,16,0,,,none,,,,,,,,,,,,,,,,,,,,,,,,,,,,,,,,,,,,,,,,,,,,,,,,,,,,,,,,,,,,,,,,,,,,,,,,,,,,,,,,,,,,,,,,,,,,,,,,,,,,,,,,,,,,,,,,,,,,851.3144268000033,None,267.9433656340732,1.0,0.00016658984669514637,1,"[0.7720270669534854, 0.7507532260711696, 0.628796571473911, 0.4421546502818212]","[3513.456659749683, 231.93818586972145, 152.60483621251893, 2793.9911196298576]",None,"[3.8732573415116693, 8.497991955627874, 7.136463664855924, 7.3564450191786595]",False,852.4261875001248,855.6254402000923,855.6254402000923,856.847236200003,['space'],1,3.631148499902338,4.656639799941331,None,1,None,1,[0.3497637996915728],,,,,,,,erfnpg,001,fr,0,0,2022-05-10_14h57.34.806,Cluster,2022.1.1,None,
,,,,3,0,3,0,17,0,17,0,,,both,,,,,,,,,,,,,,,,,,,,,,,,,,,,,,,,,,,,,,,,,,,,,,,,,,,,,,,,,,,,,,,,,,,,,,,,,,,,,,,,,,,,,,,,,,,,,,,,,,,,,,,,,,,,,,,,,,,,857.1233759999741,None,1466.9992027130816,2.0,6.184073968989862e-05,0,"[0.400057170647482, 0.400057170647482, 0.400057170647482, 0.400057170647482]","[291.0895097029069, 436.1414723924289, 653.4738546049921, 979.1045009085433]",Perfect_5th,"[8.0, 6.6178635361651335, 5.511143131943443, 4.527703095438838]",False,858.1202924000099,860.3378179001156,860.3378179001156,861.5530878000427,None,0,2.6424163666088134,3.6660975667182356,None,1,None,1,,,,,,,,,erfnpg,001,fr,0,0,2022-05-10_14h57.34.806,Cluster,2022.1.1,None,
,,,,3,0,3,0,18,0,18,0,,,time,,,,,,,,,,,,,,,,,,,,,,,,,,,,,,,,,,,,,,,,,,,,,,,,,,,,,,,,,,,,,,,,,,,,,,,,,,,,,,,,,,,,,,,,,,,,,,,,,,,,,,,,,,,,,,,,,,,,861.840870999964,None,,,,,"[0.5916534264776339, 0.5916534264776339, 0.5916534264776339, 0.5916534264776339]","[2624.5733377650904, 4262.672613049594, 645.0568774167361, 5543.277559441287]",None,"[8.243990824798374, 1.2789042272521218, 5.511143131943443, 0.23089339059954916]",True,862.8547436001245,865.6628825000953,865.6628825000953,866.8800904001109,None,1,3.4076267667114735,4.439140466740355,None,1,None,1,,0,,,,,,,erfnpg,001,fr,0,0,2022-05-10_14h57.34.806,Cluster,2022.1.1,None,
,,,,3,0,3,0,19,0,19,0,,,frequency,,,,,,,,,,,,,,,,,,,,,,,,,,,,,,,,,,,,,,,,,,,,,,,,,,,,,,,,,,,,,,,,,,,,,,,,,,,,,,,,,,,,,,,,,,,,,,,,,,,,,,,,,,,,,,,,,,,,867.3343994000461,None,194.7044921924889,2.0,0.00035845174618364805,1,"[0.6062221882104866, 0.6534802154896522, 0.5034187310133605, 0.7462008461343477]","[490.6245764448176, 389.4089843849779, 309.074115729291, 245.31228822240877]",Major_3rd,"[6.496714046214889, 6.923446411116335, 7.801313489013854, 8.468962899417772]",False,868.3319880999625,871.1134877000004,871.1134877000004,872.3404024001211,['space'],1,3.538603366818279,4.572023666696623,None,1,None,1,[0.37836319976486266],,,,,,,,erfnpg,001,fr,0,0,2022-05-10_14h57.34.806,Cluster,2022.1.1,None,
,,,,4,0,4,0,0,0,0,0,,,frequency,,,,,,,,,,,,,,,,,,,,,,,,,,,,,,,,,,,,,,,,,,,,,,,,,,,,,,,,,,,,,,,,,,,,,,,,,,,,,,,,,,,,,,,,,,,,,,,,,,,,,,,,,,,,,,,,,,,,878.0932984000538,None,2828.42712474619,-4.0,4.131885137928784e-05,0,"[0.7767658888265938, 0.6064165471026366, 0.7731589413088633, 0.5953506430223798]","[7127.189745122716, 5656.854249492381, 4489.8481932374925, 3563.5948725613575]",Major_3rd,"[-0.5204586067179751, 0.23089339059954916, 1.0, 3.8732573415116693]",False,879.1051521000918,882.2880333999638,882.2880333999638,883.503967900062,None,0,3.7792118336074054,4.792559833498672,None,1,None,1,,,,,,,,,erfnpg,001,fr,0,0,2022-05-10_14h57.34.806,Cluster,2022.1.1,None,
,,,,4,0,4,0,1,0,1,0,,,time,,,,,,,,,,,,,,,,,,,,,,,,,,,,,,,,,,,,,,,,,,,,,,,,,,,,,,,,,,,,,,,,,,,,,,,,,,,,,,,,,,,,,,,,,,,,,,,,,,,,,,,,,,,,,,,,,,,,883.9515901000705,None,757.8582832551998,-5.0,2.26534801498785e-05,0,"[0.6316283604350597, 0.6316283604350597, 0.6316283604350597, 0.6316283604350597]","[370.02778565460403, 2338.302237065985, 770.9277882889988, 129.70520211873043]",None,"[7.0, 9.237281137673754, 4.615494661919124, 6.7607281090035265]",False,884.9867114000954,887.9093067001086,887.9093067001086,889.1279084000271,None,0,3.5391216333955526,4.581327733350918,None,1,None,1,,,,,,,,,erfnpg,001,fr,0,0,2022-05-10_14h57.34.806,Cluster,2022.1.1,None,
,,,,4,0,4,0,2,0,2,0,,,time,,,,,,,,,,,,,,,,,,,,,,,,,,,,,,,,,,,,,,,,,,,,,,,,,,,,,,,,,,,,,,,,,,,,,,,,,,,,,,,,,,,,,,,,,,,,,,,,,,,,,,,,,,,,,,,,,,,,889.6075794000644,None,1175.5978327295568,0.0,5.139719595223564e-05,1,"[0.4475922781108312, 0.4475922781108312, 0.4475922781108312, 0.4475922781108312]","[893.3751789999602, 167.9266045686613, 628.680864642212, 1158.3038422563986]",None,"[4.1456602449515545, 7.395300579819079, 5.911524192183128, 5.643900624143384]",False,890.630821299972,892.9753732001409,892.9753732001409,894.2141954000108,['space'],1,2.836147266672924,3.8501513667870313,None,1,None,1,[0.41428699996322393],,,,,,,,erfnpg,001,fr,0,0,2022-05-10_14h57.34.806,Cluster,2022.1.1,None,
,,,,4,0,4,0,3,0,3,0,,,time,,,,,,,,,,,,,,,,,,,,,,,,,,,,,,,,,,,,,,,,,,,,,,,,,,,,,,,,,,,,,,,,,,,,,,,,,,,,,,,,,,,,,,,,,,,,,,,,,,,,,,,,,,,,,,,,,,,,894.5236283999402,None,,,,,"[0.42939564175121486, 0.42939564175121486, 0.42939564175121486, 0.42939564175121486]","[6939.609834659156, 922.3363720503984, 883.2196721333124, 4710.027763783466]",None,"[-0.5204586067179751, 4.224694335014276, 4.1456602449515545, 0.8445011065612587]",True,895.5475292999763,897.8842631001025,897.8842631001025,899.1045639000367,None,1,2.7579486665781587,3.7959431665949523,None,1,None,1,,0,,,,,,,erfnpg,001,fr,0,0,2022-05-10_14h57.34.806,Cluster,2022.1.1,None,
,,,,4,0,4,0,4,0,4,0,,,both,,,,,,,,,,,,,,,,,,,,,,,,,,,,,,,,,,,,,,,,,,,,,,,,,,,,,,,,,,,,,,,,,,,,,,,,,,,,,,,,,,,,,,,,,,,,,,,,,,,,,,,,,,,,,,,,,,,,899.3843791000545,None,3482.202253184498,3.0,0.0001057294605034332,1,"[0.5831330664250214, 0.5831330664250214, 0.5831330664250214, 0.5831330664250214]","[5527.651519871108, 4924.577653379668, 4387.299918778506, 3908.639873736986]",Tone,"[0.23089339059954916, 0.5793284398548444, 1.0, 2.0]",False,900.419271199964,903.1903349999338,903.1903349999338,904.4212444999721,['space'],1,3.353799166623503,4.398060566512868,None,1,None,1,[0.49108850001357496],,,,"{'estimation': [[125.0, 1.0160423952629107], [125.22558467286512, 1.0], [133.9716828170366, 0.4488330002297116], [140.49121006108155, 0.0], [143.5872943746293, -0.20510878188862894], [153.89305166811442, -0.8574474535983241], [156.47294619934388, -1.0], [164.93848884661162, -1.4522013134164211], [176.77669529663666, -1.8964493309655803], [181.83213796954166, -2.0], [189.46457081379936, -2.150802763157527], [203.0630990890585, -2.166974337113844], [213.96116032356448, -2.0], [217.6376408240306, -1.9455461256819278], [233.25824788420132, -1.542561063974325], [249.99999999999937, -1.0207673153559265], [250.68861013007384, -1.0], [267.94336563407256, -0.4920000058420106], [287.1745887492579, -0.06166474995560505], [292.2562419410665, 0.0], [307.78610333622805, 0.17755256166548783], [329.87697769322244, 0.16737199636610178], [345.0477344291822, 0.0], [353.55339059327247, -0.08881449498280011], [378.929141627598, -0.5186358296598284], [405.3450330053796, -1.0], [406.12619817811606, -1.0141365175264903], [435.2752816480601, -1.4559791987097808], [466.5164957684015, -1.716714480399232], [499.9999999999975, -1.7431476663612757], [535.8867312681438, -1.5353472024423602], [574.3491774985143, -1.1548295376648863], [588.1583467460277, -1.0], [615.5722066724546, -0.7094598920738537], [659.7539553864432, -0.3393395273293838], [707.1067811865431, -0.13084072619626066], [757.8582832551941, -0.13122561565158675], [812.2523963562301, -0.31482489969922606], [870.5505632961181, -0.5927283262554841], [933.0329915368008, -0.8551052772524655], [999.9999999999926, -0.9930597142961987], [1071.773462536285, -0.9276965417052008], [1148.698354997026, -0.6613005921516525], [1231.1444133449063, -0.25538367411994445], [1279.3493539163603, 0.0], [1319.5079107728816, 0.2121388100372834], [1414.2135623730828, 0.6148289447477335], [1515.7165665103846, 0.8975821587849728], [1591.183466912845, 1.0], [1624.5047927124563, 1.0422953757127704], [1741.1011265922318, 1.0797737397307139], [1866.065983073597, 1.091397864667905], [1999.9999999999802, 1.1669427377377906], [2143.5469250725646, 1.3707996121756172], [2297.396709994049, 1.7232740813044474], [2393.2206455733453, 2.0], [2462.2888266898062, 2.2026262624252193], [2639.015821545763, 2.7013927136282265], [2773.2168926749473, 3.0], [2828.427124746159, 3.1255773737268266], [3031.4331330207615, 3.3468212949879916], [3249.0095854249043, 3.269224971214683], [3390.2386416612417, 3.0], [3482.2022531844555, 2.832448197881311], [3732.1319661471844, 2.0430596855599674], [3742.1665146314476, 2.0], [3983.4699865383936, 1.0], [3999.9999999999504, 0.9344695857294512], [4197.501493500012, 0.0], [4287.093850145118, -0.40051664959512917], [4410.760648223717, -1.0], [4594.793419988081, -1.851068126880703], [4627.594660935555, -2.0], [4851.386784322827, -3.0], [4924.577653379601, -3.2998951319418754], [5107.48651048334, -4.0], [5278.031643091506, -4.61045759078243], [5409.561500063666, -5.0], [5656.854249492303, -5.693819090313866], [5810.485519165049, -6.0], [6062.866266041508, -6.48194356748329], [6498.019170849792, -6.927933809635649], [6774.137143453394, -7.0], [6964.404506368894, -7.049609584650158], [7096.3017493672405, -7.0], [7464.2639322943505, -6.8664726906904825], [7999.999999999892, -6.448373036231759]], 'plus_line': [[125.0, -1.327050067932456], [133.9716828170366, -1.7600763834576503], [137.6052933409505, -2.0], [143.5872943746293, -2.411183635914737], [152.5289342109588, -3.0], [153.89305166811442, -3.0971160901035195], [164.93848884661162, -3.735446779657174], [172.10298424048804, -4.0], [176.77669529663666, -4.191571220471087], [189.46457081379947, -4.431095861189647], [203.0630990890585, -4.437336722606175], [217.63764082403046, -4.250078741871417], [228.73690504161854, -4.0], [233.25824788420132, -3.911904269434252], [249.99999999999937, -3.520705738302644], [267.94336563407256, -3.057615287114184], [270.4632119633466, -3.0], [287.1745887492579, -2.6752889860142814], [307.78610333622805, -2.415669002253225], [329.87697769322244, -2.3523574466211246], [353.55339059327247, -2.5246411969212446], [378.929141627598, -2.884500027405939], [385.37373597889564, -3.0], [406.12619817811606, -3.3992042223359826], [435.2752816480601, -3.8545033028149196], [450.73631779765935, -4.0], [466.5164957684015, -4.170938774467636], [499.9999999999975, -4.230216789999961], [535.2329952248972, -4.0], [535.8867312681438, -3.9964915748152756], [574.3491774985143, -3.6109740660231537], [615.5722066724546, -3.1147269264809827], [626.0736438549176, -3.0], [659.7539553864432, -2.6986714172539576], [707.1067811865431, -2.4434490923536067], [757.8582832551941, -2.375979419293558], [812.2523963562301, -2.4726350209761856], [870.5505632961181, -2.648327360052134], [933.0329915368008, -2.814160000862498], [999.9999999999926, -2.907297641831196], [1071.773462536285, -2.8854237798635447], [1148.698354997026, -2.724407022339488], [1231.1444133449063, -2.4220756832485995], [1318.6904399428495, -2.0], [1319.5079107728832, -1.9964600728418145], [1414.2135623730828, -1.6256493223491724], [1515.7165665103828, -1.3120070266682724], [1624.5047927124563, -1.1011456140902334], [1741.101126592234, -1.001740801748931], [1746.0808682048923, -1.0], [1866.065983073597, -0.9683378697381966], [1999.9999999999802, -0.9075499227489076], [2143.5469250725646, -0.7543143947275585], [2297.396709994046, -0.47208485773839914], [2462.2888266898035, -0.04972087992735969], [2480.4619312129007, 0.0], [2639.01582154576, 0.3690790611639675], [2828.427124746159, 0.7357336462548734], [3031.4331330207615, 0.9339514801765427], [3249.0095854249043, 0.8253259449492569], [3482.2022531844555, 0.37604375142811397], [3599.471328085228, 0.0], [3732.1319661471844, -0.4287413662189674], [3867.5893650627568, -1.0], [3999.9999999999504, -1.5334321147662526], [4097.522579595958, -2.0], [4287.093850145118, -2.839119151395171], [4320.495957287104, -3.0], [4531.057578409842, -4.0], [4594.793419988081, -4.269238109924148], [4756.878659073867, -5.0], [4924.577653379601, -5.666603876035564], [5012.652673557482, -6.0], [5278.031643091506, -6.923863662170296], [5304.204944162603, -7.0], [5656.854249492303, -7.978737579883745], [5667.705146750864, -8.0], [6062.866266041508, -8.771967368254181], [6287.8898990773705, -9.0], [6498.019170849792, -9.234744718290617], [6964.404506368894, -9.38081768397522], [7464.2639322943505, -9.250675466458308], [7873.363669893078, -9.0], [7999.999999999882, -8.931747887250093]], 'minus_line': [[125.0, 3.4242173211986997], [129.8502044621781, 3.0], [133.9716828170366, 2.6941925445304933], [143.31196217291378, 2.0], [143.5872943746293, 1.9814996058655534], [153.89305166811442, 1.3617821908261092], [160.28278984048563, 1.0], [164.93848884661162, 0.7667587132848246], [176.77669529663666, 0.3053851446313003], [188.89998267202625, 0.0], [189.46457081379947, -0.011912947112002203], [203.0630990890585, -0.051393428138046905], [206.18745226818987, 0.0], [217.6376408240306, 0.21139659323046966], [233.25824788420132, 0.7056287446353248], [241.20925866768786, 1.0], [249.99999999999937, 1.3563737987871114], [267.94336563407256, 1.9708529775084433], [269.12108376426596, 2.0], [287.1745887492579, 2.475026348550288], [307.78610333622805, 2.6859023857050386], [329.87697769322284, 2.602538003138606], [353.55339059327247, 2.250468785887377], [364.7325808916078, 2.0], [378.929141627598, 1.7333253762668865], [406.12619817811606, 1.2020041549588094], [418.5183438575694, 1.0], [435.2752816480601, 0.7655401915882173], [466.5164957684015, 0.5437869746241417], [499.99999999999693, 0.5539187384138407], [535.8867312681438, 0.7835990186181584], [557.3125891240385, 1.0], [574.3491774985143, 1.1905876313800556], [615.5722066724546, 1.6457995852356737], [659.6916444103489, 2.0], [659.7539553864432, 2.000570643701143], [707.1067811865431, 2.212999729720451], [757.8582832551941, 2.1585305282389147], [785.1941489582177, 2.0], [812.2523963562301, 1.8759593848695284], [870.5505632961181, 1.4981304561883058], [933.0329915368008, 1.1107669882627023], [966.9520245492382, 1.0], [999.9999999999914, 0.9169816489831326], [1067.1770609027824, 1.0], [1071.773462536285, 1.007024567773125], [1148.698354997026, 1.3979060950675], [1231.1444133449063, 1.8914248555522994], [1249.7655358957231, 2.0], [1319.5079107728832, 2.441510389588432], [1414.2135623730846, 2.8376364638111906], [1488.5052087133924, 3.0], [1515.7165665103846, 3.0669412980524386], [1624.5047927124563, 3.133704163385368], [1741.1011265922318, 3.0890122942462552], [1866.065983073597, 3.0536219630991086], [1999.9999999999802, 3.148400562253501], [2143.5469250725646, 3.429528942702158], [2297.396709994046, 3.8738874414646047], [2333.435072004499, 4.0], [2462.2888266898062, 4.501852523164805], [2606.164942224334, 5.0], [2639.01582154576, 5.129408253034247], [2828.427124746159, 5.676182625903229], [3031.4331330207615, 5.962205613132767], [3249.0095854249043, 5.936226255827334], [3482.2022531844596, 5.54236329695553], [3644.406177492675, 5.0], [3732.1319661471844, 4.72952656960693], [3900.510274465313, 4.0], [3999.9999999999504, 3.5823777167666897], [4119.017160376091, 3.0], [4287.093850145118, 2.159876066294113], [4319.13933946604, 2.0], [4516.16432858842, 1.0], [4594.793419988081, 0.6155251972203455], [4727.924463158836, 0.0], [4924.577653379601, -0.9515235650509214], [4936.673597889394, -1.0], [5188.296986049693, -2.0], [5278.031643091513, -2.341761559261562], [5492.343427505848, -3.0], [5656.854249492303, -3.483849310744978], [5903.094469787681, -4.0], [6062.866266041516, -4.306746129220869], [6498.019170849792, -4.75732984354055], [6964.404506368902, -4.86173205758967], [7464.2639322943505, -4.60729513535096], [7999.999999999882, -4.07347558233544]]}",,,,erfnpg,001,fr,0,0,2022-05-10_14h57.34.806,Cluster,2022.1.1,None,
,,,,4,0,4,0,5,0,5,0,,,frequency,,,,,,,,,,,,,,,,,,,,,,,,,,,,,,,,,,,,,,,,,,,,,,,,,,,,,,,,,,,,,,,,,,,,,,,,,,,,,,,,,,,,,,,,,,,,,,,,,,,,,,,,,,,,,,,,,,,,904.8745977999642,None,270.18438906461137,2.332992182463365,0.00019111617179687885,1,"[0.6759791100803607, 0.5927113864693397, 0.4074435091128291, 0.4877797643163345]","[1361.6439965419602, 908.7883368877865, 606.5434455413605, 404.8191821971099]",Perfect_5th,"[7.0, 4.224694335014276, 6.0, 6.7336691393324175]",False,905.8936368001159,908.6030834999401,908.6030834999401,909.8144837000873,['space'],1,3.183015266666189,4.211247266735882,None,1,None,1,[0.6104688998311758],,,,,,,,erfnpg,001,fr,0,0,2022-05-10_14h57.34.806,Cluster,2022.1.1,None,
,,,,4,0,4,0,6,0,6,0,,,time,,,,,,,,,,,,,,,,,,,,,,,,,,,,,,,,,,,,,,,,,,,,,,,,,,,,,,,,,,,,,,,,,,,,,,,,,,,,,,,,,,,,,,,,,,,,,,,,,,,,,,,,,,,,,,,,,,,,910.1493339000735,None,189.4645708137998,-4.0,0.00019169242467719167,0,"[0.6910389937586057, 0.6910389937586057, 0.6910389937586057, 0.6910389937586057]","[315.27289397759444, 2336.526190154237, 336.6873353621952, 2435.293992742612]",None,"[7.801313489013854, 9.237281137673754, 7.488071809041017, 8.865510346829453]",False,911.1720144001301,914.2617947000545,914.2617947000545,915.4652021999937,None,0,3.7738775664474815,4.8170742662623525,None,1,None,1,,,,,,,,,erfnpg,001,fr,0,0,2022-05-10_14h57.34.806,Cluster,2022.1.1,None,
,,,,4,0,4,0,7,0,7,0,,,time,,,,,,,,,,,,,,,,,,,,,,,,,,,,,,,,,,,,,,,,,,,,,,,,,,,,,,,,,,,,,,,,,,,,,,,,,,,,,,,,,,,,,,,,,,,,,,,,,,,,,,,,,,,,,,,,,,,,916.0387850000989,None,,,,,"[0.4059475428433465, 0.4059475428433465, 0.4059475428433465, 0.4059475428433465]","[220.70919424660488, 3188.8240862915527, 938.1737475051822, 6175.24210750797]",None,"[8.417660824179716, 5.070064131485763, 4.224694335014276, 0.0]",True,917.0627749999985,919.3129441000056,919.3129441000056,920.5481861000881,None,1,2.668543166713789,3.691505966708064,None,1,None,1,,0,,,,,,,erfnpg,001,fr,0,0,2022-05-10_14h57.34.806,Cluster,2022.1.1,None,
,,,,4,0,4,0,8,0,8,0,,,frequency,,,,,,,,,,,,,,,,,,,,,,,,,,,,,,,,,,,,,,,,,,,,,,,,,,,,,,,,,,,,,,,,,,,,,,,,,,,,,,,,,,,,,,,,,,,,,,,,,,,,,,,,,,,,,,,,,,,,920.7957995999604,None,1624.5047927124701,1.0,6.491663098207682e-05,1,"[0.5028532114349293, 0.6811879678142688, 0.6228813539448832, 0.6275043255788406]","[4093.4955679870973, 3249.0095854249403, 2578.7406168791567, 2046.7477839935486]",Major_3rd,"[1.9207490549914885, 5.070064131485763, 8.243990824798374, 9.296753518001285]",False,921.8289743999485,924.6658836000133,924.6658836000133,925.8745252999943,['space'],1,3.4433565665967762,4.478776566451415,None,1,None,1,[0.5115494998171926],,,,,,,,erfnpg,001,fr,0,0,2022-05-10_14h57.34.806,Cluster,2022.1.1,None,
,,,,4,0,4,0,9,0,9,0,,,none,,,,,,,,,,,,,,,,,,,,,,,,,,,,,,,,,,,,,,,,,,,,,,,,,,,,,,,,,,,,,,,,,,,,,,,,,,,,,,,,,,,,,,,,,,,,,,,,,,,,,,,,,,,,,,,,,,,,926.3696866000537,None,2300.5024470356016,3.237281137673755,0.00011827101177439737,1,"[0.4216623242572634, 0.6045580721907293, 0.7356138409988222, 0.6781804737831694]","[2210.442959235926, 5362.787763401009, 440.30442088207474, 1697.256430322543]",None,"[9.360476064572406, 0.40123166226580054, 6.6178635361651335, 8.805384390886722]",False,927.3564530999865,930.143329200102,930.143329200102,931.3663048001472,['space'],1,3.472102166386321,4.49055626639165,None,1,None,1,[0.33212370006367564],,,,,,,,erfnpg,001,fr,0,0,2022-05-10_14h57.34.806,Cluster,2022.1.1,None,
,,,,4,0,4,0,10,0,10,0,,,time,,,,,,,,,,,,,,,,,,,,,,,,,,,,,,,,,,,,,,,,,,,,,,,,,,,,,,,,,,,,,,,,,,,,,,,,,,,,,,,,,,,,,,,,,,,,,,,,,,,,,,,,,,,,,,,,,,,,931.9054342999589,None,2906.0785782476623,1.0,6.806216736239349e-05,1,"[0.48396033355790297, 0.48396033355790297, 0.48396033355790297, 0.48396033355790297]","[540.3467110313876, 1889.5870445939365, 5285.130737068028, 1572.5129710035621]",None,"[6.40013392183546, 9.097993263509933, 0.40123166226580054, 8.456914536802293]",False,932.9218178000301,935.4112337999977,935.4112337999977,936.6284779999405,['space'],1,2.9644845665898174,3.997781566577032,None,1,None,1,[0.23261919990181923],,,,,,,,erfnpg,001,fr,0,0,2022-05-10_14h57.34.806,Cluster,2022.1.1,None,
,,,,4,0,4,0,11,0,11,0,,,time,,,,,,,,,,,,,,,,,,,,,,,,,,,,,,,,,,,,,,,,,,,,,,,,,,,,,,,,,,,,,,,,,,,,,,,,,,,,,,,,,,,,,,,,,,,,,,,,,,,,,,,,,,,,,,,,,,,,936.9650975000113,None,8000.0,-5.0,0.00010208689723347648,1,"[0.5036496423558394, 0.5036496423558394, 0.5036496423558394, 0.5036496423558394]","[200.77866260307883, 1519.6109345047346, 711.1693904114471, 2976.6707529795835]",None,"[8.238750964336528, 8.032865359491113, 5.0, 6.268524139814443]",False,939.1487602000125,941.6902108001523,941.6902108001523,942.912038099952,['space'],1,3.023526933277026,4.047114233253524,None,1,None,1,[0.5757418998982757],,,,,,,,erfnpg,001,fr,0,0,2022-05-10_14h57.34.806,Cluster,2022.1.1,None,
,,,,4,0,4,0,12,0,12,0,,,none,,,,,,,,,,,,,,,,,,,,,,,,,,,,,,,,,,,,,,,,,,,,,,,,,,,,,,,,,,,,,,,,,,,,,,,,,,,,,,,,,,,,,,,,,,,,,,,,,,,,,,,,,,,,,,,,,,,,943.2539570999797,None,189.4645708137998,-4.0,0.00019169242467719167,0,"[0.5885334846209828, 0.619829048297631, 0.6083153489517132, 0.70618435916977]","[888.507401802691, 1780.3732419576977, 573.6034784103058, 264.34702089897985]",None,"[4.1456602449515545, 8.805384390886722, 6.216208046997928, 8.332992182463364]",False,944.2633834001608,947.1088479999453,947.1088479999453,948.3448274000548,None,0,3.5399386333301663,4.576573733473197,None,1,None,1,,,,,,,,,erfnpg,001,fr,0,0,2022-05-10_14h57.34.806,Cluster,2022.1.1,None,
,,,,4,0,4,0,13,0,13,0,,,time,,,,,,,,,,,,,,,,,,,,,,,,,,,,,,,,,,,,,,,,,,,,,,,,,,,,,,,,,,,,,,,,,,,,,,,,,,,,,,,,,,,,,,,,,,,,,,,,,,,,,,,,,,,,,,,,,,,,948.8800711999647,None,3302.1530030714935,-1.0,6.389388914727998e-05,0,"[0.48003722320392406, 0.48003722320392406, 0.48003722320392406, 0.48003722320392406]","[3940.054424650585, 891.7149739556816, 3081.2420649543274, 2639.420672308694]",None,"[2.0, 4.1456602449515545, 6.0, 8.243990824798374]",False,949.8738907999359,952.3427089001052,952.3427089001052,953.5795138000976,None,0,2.9413735666312277,3.9707962665706873,None,1,None,1,,,,,,,,,erfnpg,001,fr,0,0,2022-05-10_14h57.34.806,Cluster,2022.1.1,None,
,,,,4,0,4,0,14,0,14,0,,,frequency,,,,,,,,,,,,,,,,,,,,,,,,,,,,,,,,,,,,,,,,,,,,,,,,,,,,,,,,,,,,,,,,,,,,,,,,,,,,,,,,,,,,,,,,,,,,,,,,,,,,,,,,,,,,,,,,,,,,953.8894495000131,None,7769.587007410766,-6.869648872614917,7.91496512682633e-05,0,"[0.44541326646648194, 0.4782042804618437, 0.544494578411465, 0.41503384314465414]","[4894.533109813268, 5493.927659959047, 6166.725294461152, 6921.915105382086]",Tone,"[0.5793284398548444, 0.23089339059954916, 0.0, -0.5204586067179751]",False,954.9016960000154,957.4093700000085,957.4093700000085,958.6434108000249,None,0,2.9202343665529042,3.952234166674316,None,1,None,1,,,,,,,,,erfnpg,001,fr,0,0,2022-05-10_14h57.34.806,Cluster,2022.1.1,None,
,,,,4,0,4,0,15,0,15,0,,,time,,,,,,,,,,,,,,,,,,,,,,,,,,,,,,,,,,,,,,,,,,,,,,,,,,,,,,,,,,,,,,,,,,,,,,,,,,,,,,,,,,,,,,,,,,,,,,,,,,,,,,,,,,,,,,,,,,,,958.9013771000318,None,329.87697769322364,1.0,0.00010632127908437066,1,"[0.5027042819268573, 0.5027042819268573, 0.5027042819268573, 0.5027042819268573]","[2664.7414488158993, 214.7060856778088, 459.91848001387035, 951.4324496483231]",None,"[8.0, 8.417660824179716, 6.552496604039485, 4.224694335014276]",False,959.9899379000999,962.5304972999729,962.5304972999729,963.7634404001292,['space'],1,3.028001333354041,4.0581149333156645,None,1,None,1,[0.4153464997652918],,,,,,,,erfnpg,001,fr,0,0,2022-05-10_14h57.34.806,Cluster,2022.1.1,None,
,,,,4,0,4,0,16,0,16,0,,,none,,,,,,,,,,,,,,,,,,,,,,,,,,,,,,,,,,,,,,,,,,,,,,,,,,,,,,,,,,,,,,,,,,,,,,,,,,,,,,,,,,,,,,,,,,,,,,,,,,,,,,,,,,,,,,,,,,,,964.114065800095,None,396.07191670929177,0.7336691393324172,8.441126716685249e-05,1,"[0.7673584700575835, 0.7652079329127264, 0.7936374718729445, 0.739923676488692]","[3244.679570786801, 6492.341581137999, 150.22778016141734, 1634.1364789203783]",None,"[5.070064131485763, -0.2486732484955798, 7.0, 8.456914536802293]",False,965.1169235999696,968.4648502999917,968.4648502999917,969.6767669001129,['space'],1,4.081845366628841,5.099589466582984,None,1,None,1,[0.3779702999163419],,,,,,,,erfnpg,001,fr,0,0,2022-05-10_14h57.34.806,Cluster,2022.1.1,None,
,,,,4,0,4,0,17,0,17,0,,,none,,,,,,,,,,,,,,,,,,,,,,,,,,,,,,,,,,,,,,,,,,,,,,,,,,,,,,,,,,,,,,,,,,,,,,,,,,,,,,,,,,,,,,,,,,,,,,,,,,,,,,,,,,,,,,,,,,,,970.2759358999319,None,6062.8662660415985,-5.0,6.682440389904723e-05,1,"[0.7827397195476511, 0.6598330901431457, 0.7791948462681516, 0.6581397042470194]","[317.08993537705953, 347.4661317198171, 361.7080451144642, 768.583214217471]",None,"[7.801313489013854, 7.186672611562737, 7.186672611562737, 4.615494661919124]",False,972.1704943999648,975.4175460999832,975.4175460999832,976.6354231999721,['space'],1,3.9087446997873485,4.93485359987244,None,1,None,1,[0.35870189988054335],,,,,,,,erfnpg,001,fr,0,0,2022-05-10_14h57.34.806,Cluster,2022.1.1,None,
,,,,4,0,4,0,18,0,18,0,,,frequency,,,,,,,,,,,,,,,,,,,,,,,,,,,,,,,,,,,,,,,,,,,,,,,,,,,,,,,,,,,,,,,,,,,,,,,,,,,,,,,,,,,,,,,,,,,,,,,,,,,,,,,,,,,,,,,,,,,,977.1489095001016,None,707.1067811865476,-2.0,3.527051522850936e-05,0,"[0.5894944953525028, 0.6341979237826956, 0.6944566264285545, 0.465090462544897]","[280.61551207734334, 353.5533905932739, 445.44935907016975, 561.2310241546866]",Major_3rd,"[8.101610357160641, 7.186672611562737, 6.6178635361651335, 6.216208046997928]",False,978.1730669999961,981.1319284001365,981.1319284001365,982.3683852001559,None,0,3.386743266368285,4.419805266428739,None,1,None,1,,,,,,,,,erfnpg,001,fr,0,0,2022-05-10_14h57.34.806,Cluster,2022.1.1,None,
,,,,4,0,4,0,19,0,19,0,,,none,,,,,,,,,,,,,,,,,,,,,,,,,,,,,,,,,,,,,,,,,,,,,,,,,,,,,,,,,,,,,,,,,,,,,,,,,,,,,,,,,,,,,,,,,,,,,,,,,,,,,,,,,,,,,,,,,,,,982.6443146001548,None,1307.9441635577411,0.9522353035329638,5.9219707983818066e-05,0,"[0.6723276301486838, 0.5277921331216204, 0.6039760447185226, 0.7467732353691812]","[139.51015467748283, 149.52374599328664, 597.8605824452565, 333.14823810546204]",None,"[6.919512542731903, 7.0, 6.0, 7.488071809041017]",False,983.6668933001347,986.5039946001489,986.5039946001489,987.741314999992,None,0,3.580907166702673,4.595318566542119,None,1,None,1,,,,,,,,,erfnpg,001,fr,0,0,2022-05-10_14h57.34.806,Cluster,2022.1.1,None,
,,,,5,0,5,0,0,0,0,0,,,time,,,,,,,,,,,,,,,,,,,,,,,,,,,,,,,,,,,,,,,,,,,,,,,,,,,,,,,,,,,,,,,,,,,,,,,,,,,,,,,,,,,,,,,,,,,,,,,,,,,,,,,,,,,,,,,,,,,,1048.2566794999875,None,1989.3386902866525,3.296753518001286,0.00010864358715224129,1,"[0.41022684709417345, 0.41022684709417345, 0.41022684709417345, 0.41022684709417345]","[6106.52586083004, 380.66992090001935, 1138.480890125096, 2245.4930336401353]",None,"[0.0, 6.923446411116335, 5.643900624143384, 9.237281137673754]",False,1049.2204644000158,1051.4652196001261,1051.4652196001261,1052.7000245000236,['space'],1,2.659275066573173,3.6856954665854573,None,1,None,1,[0.3029390999581665],,,,,,,,erfnpg,001,fr,0,0,2022-05-10_14h57.34.806,Cluster,2022.1.1,None,
,,,,5,0,5,0,1,0,1,0,,,frequency,,,,,,,,,,,,,,,,,,,,,,,,,,,,,,,,,,,,,,,,,,,,,,,,,,,,,,,,,,,,,,,,,,,,,,,,,,,,,,,,,,,,,,,,,,,,,,,,,,,,,,,,,,,,,,,,,,,,1052.9589432999492,None,1009.1101415703215,-1.4722969045611616,3.750555758477589e-05,1,"[0.4264196259870081, 0.47524182740598603, 0.5410378050348155, 0.7181042089552996]","[2542.7982180536874, 2018.2202831406432, 1601.8625002805072, 1271.3991090268437]",Major_3rd,"[8.865510346829453, 9.296753518001285, 8.456914536802293, 6.314833170568972]",False,1053.9723342000507,1056.4398042999674,1056.4398042999674,1057.6562952999957,['space'],1,3.2036553665529937,4.231436266563833,None,1,None,1,[0.38258239976130426],,,,,,,,erfnpg,001,fr,0,0,2022-05-10_14h57.34.806,Cluster,2022.1.1,None,
,,,,5,0,5,0,2,0,2,0,,,frequency,,,,,,,,,,,,,,,,,,,,,,,,,,,,,,,,,,,,,,,,,,,,,,,,,,,,,,,,,,,,,,,,,,,,,,,,,,,,,,,,,,,,,,,,,,,,,,,,,,,,,,,,,,,,,,,,,,,,1058.2502039000392,None,435.2752816480623,-1.0,6.662271952302988e-05,1,"[0.667225619205604, 0.6197338596968419, 0.5082582128882264, 0.4769747776886708]","[690.9564399838885, 615.5722066724585, 548.4124898473133, 488.57998421712324]",Tone,"[5.058528304845914, 5.911524192183128, 6.40013392183546, 6.496714046214889]",False,1060.5575524999294,1063.3919571000151,1063.3919571000151,1064.6038810999598,['space'],1,3.305718566523865,4.334915266605094,None,1,None,1,[0.3313755998387933],,,,,,,,erfnpg,001,fr,0,0,2022-05-10_14h57.34.806,Cluster,2022.1.1,None,
,,,,5,0,5,0,3,0,3,0,,,frequency,,,,,,,,,,,,,,,,,,,,,,,,,,,,,,,,,,,,,,,,,,,,,,,,,,,,,,,,,,,,,,,,,,,,,,,,,,,,,,,,,,,,,,,,,,,,,,,,,,,,,,,,,,,,,,,,,,,,1064.9438617001288,None,,,,,"[0.5090405512144098, 0.6074591753056128, 0.5506488751458128, 0.7334133915152524]","[767.8892166922583, 967.4797880978617, 1218.9481503723273, 1535.7784333845161]",Major_3rd,"[4.615494661919124, 4.527703095438838, 6.314833170568972, 8.032865359491113]",True,1065.9697078999598,1068.6741558001377,1068.6741558001377,1069.9044351000339,None,1,3.432612866628915,4.470350466668606,None,1,None,1,,0,,,,,,,erfnpg,001,fr,0,0,2022-05-10_14h57.34.806,Cluster,2022.1.1,None,
,,,,5,0,5,0,4,0,4,0,,,time,,,,,,,,,,,,,,,,,,,,,,,,,,,,,,,,,,,,,,,,,,,,,,,,,,,,,,,,,,,,,,,,,,,,,,,,,,,,,,,,,,,,,,,,,,,,,,,,,,,,,,,,,,,,,,,,,,,,1070.4865906999912,None,125.0,2.0,0.000909850429304992,1,"[0.5796832320193291, 0.5796832320193291, 0.5796832320193291, 0.5796832320193291]","[5536.698237418228, 2876.846682570995, 7317.685291328724, 277.6939148626994]",None,"[0.23089339059954916, 7.0, -0.7492944795637086, 8.101610357160641]",False,1071.5013311000075,1074.2733308000024,1074.2733308000024,1075.5062514999881,['space'],1,3.3330161336343735,4.357304533477873,None,1,None,1,[0.4635788998566568],,,,,,,,erfnpg,001,fr,0,0,2022-05-10_14h57.34.806,Cluster,2022.1.1,None,
,,,,5,0,5,0,5,0,5,0,,,frequency,,,,,,,,,,,,,,,,,,,,,,,,,,,,,,,,,,,,,,,,,,,,,,,,,,,,,,,,,,,,,,,,,,,,,,,,,,,,,,,,,,,,,,,,,,,,,,,,,,,,,,,,,,,,,,,,,,,,1075.9035845000762,None,136.6520459715425,0.7607281090035263,0.0006756405910175548,1,"[0.6229524470083545, 0.5135512031701586, 0.5666304032537764, 0.7354130145906563]","[688.6831569229932, 459.6408623782236, 306.7734708537684, 204.74672754883974]",Perfect_5th,"[5.058528304845914, 6.552496604039485, 7.801313489013854, 8.238750964336528]",False,1076.899964600103,1079.6494704999495,1079.6494704999495,1080.8803230000194,['space'],1,3.468766166595742,4.508432366652414,None,1,None,1,[0.3905687998048961],,,,,,,,erfnpg,001,fr,0,0,2022-05-10_14h57.34.806,Cluster,2022.1.1,None,
,,,,5,0,5,0,6,0,6,0,,,none,,,,,,,,,,,,,,,,,,,,,,,,,,,,,,,,,,,,,,,,,,,,,,,,,,,,,,,,,,,,,,,,,,,,,,,,,,,,,,,,,,,,,,,,,,,,,,,,,,,,,,,,,,,,,,,,,,,,1081.4554796000011,None,,,,,"[0.7729179563539863, 0.6020559856304761, 0.7307640589795064, 0.5066972597645815]","[221.35332153949219, 372.66993790074287, 697.204745483207, 3694.229787614092]",None,"[8.417660824179716, 7.0, 5.058528304845914, 3.0]",True,1082.4659548001364,1085.6011207001284,1085.6011207001284,1086.822828900069,None,1,3.657929866341874,4.687813066411763,None,1,None,1,,0,,,,,,,erfnpg,001,fr,0,0,2022-05-10_14h57.34.806,Cluster,2022.1.1,None,
,,,,5,0,5,0,7,0,7,0,,,none,,,,,,,,,,,,,,,,,,,,,,,,,,,,,,,,,,,,,,,,,,,,,,,,,,,,,,,,,,,,,,,,,,,,,,,,,,,,,,,,,,,,,,,,,,,,,,,,,,,,,,,,,,,,,,,,,,,,1087.1998930999544,None,,,,,"[0.591299022766606, 0.5677875054685186, 0.47367109350901276, 0.49936976050350174]","[150.1759979293674, 185.83902161091953, 5982.942768243388, 6089.789029074023]",None,"[7.0, 7.979952219004358, 0.015661922096660064, 0.0]",True,1088.211930300109,1090.8613754999824,1090.8613754999824,1092.081742499955,None,1,3.1794727663509548,4.197855266509578,None,1,None,1,,0,,,,,,,erfnpg,001,fr,0,0,2022-05-10_14h57.34.806,Cluster,2022.1.1,None,
,,,,5,0,5,0,8,0,8,0,,,time,,,,,,,,,,,,,,,,,,,,,,,,,,,,,,,,,,,,,,,,,,,,,,,,,,,,,,,,,,,,,,,,,,,,,,,,,,,,,,,,,,,,,,,,,,,,,,,,,,,,,,,,,,,,,,,,,,,,1092.4538052999415,None,1601.3199557644632,2.4569145368022927,7.538268342640614e-05,1,"[0.5644469456235541, 0.5644469456235541, 0.5644469456235541, 0.5644469456235541]","[3874.4913924324965, 187.57847285887897, 283.79246954714296, 648.0108318762443]",None,"[2.0, 7.979952219004358, 8.101610357160641, 5.511143131943443]",False,1093.4580987000372,1096.1815049001016,1096.1815049001016,1097.397738300031,['space'],1,3.2947433665394783,4.329460066510364,None,1,None,1,[0.5187249998562038],,,,,,,,erfnpg,001,fr,0,0,2022-05-10_14h57.34.806,Cluster,2022.1.1,None,
