frequencies,training_trials.thisRepN,training_trials.thisTrialN,training_trials.thisN,training_trials.thisIndex,frequencies.thisRepN,frequencies.thisTrialN,frequencies.thisN,frequencies.thisIndex,trials.thisRepN,trials.thisTrialN,trials.thisN,trials.thisIndex,tFrequency,tLevel,tCorrect,Tprobe.started,Tprobe.stopped,tTriangle_cue.started,tTriangle_cue.stopped,Tfeedback.keys,Tfeedback.corr,Tfeedback.rt,Tfeedback.started,Tfeedback.stopped,reversals_nTrials.routineEndVal,track_dir.routineEndVal,step_up.routineEndVal,Correct,Frequency,Level,Psychopy_Level,Direction,Reversals,Track_dir,Step,probe.started,probe.stopped,cross_cue.started,cross_cue.stopped,circle_cue.started,circle_cue.stopped,triangle_cue.started,triangle_cue.stopped,feedback.keys,feedback.corr,feedback.rt,feedback.started,feedback.stopped,memo.started,memo.stopped,participant,session,skip_training,language (english or french),date,expName,psychopyVersion,frameRate,
5000,0,0,0,4,,,,,,,,,5000,30,right,None,None,None,None,left,0,1.1583012999035418,67.89432520000264,None,,,,,,,,,,,,,,,,,,,,,,,,,,,tyrfqt,001,0,fr,2022-04-22_11h04.55.897,3-AFC_adaptive_staircase_mess,2022.1.1,None,
200,0,1,1,0,,,,,,,,,200,30,up,None,None,None,None,right,0,1.3801393997855484,79.28896709997207,None,,,,,,,,,,,,,,,,,,,,,,,,,,,tyrfqt,001,0,fr,2022-04-22_11h04.55.897,3-AFC_adaptive_staircase_mess,2022.1.1,None,
1300,0,2,2,3,,,,,,,,,1300,30,right,None,None,99.22754646680939,None,right,1,2.3924325997941196,96.8056254000403,None,,,,,,,,,,,,,,,,,,,,,,,,,,,tyrfqt,001,0,fr,2022-04-22_11h04.55.897,3-AFC_adaptive_staircase_mess,2022.1.1,None,
450,0,3,3,1,,,,,,,,,450,30,left,103.84836396674315,None,105.81745770014822,106.15183580014855,left,1,7.814411699771881,103.38325050007552,None,,,,,,,,,,,,,,,,,,,,,,,,,,,tyrfqt,001,0,fr,2022-04-22_11h04.55.897,3-AFC_adaptive_staircase_mess,2022.1.1,None,
850,0,4,4,2,,,,,,,,,850,30,right,115.24355296680393,None,115.22688630013727,115.56222430011258,right,1,4.040965799707919,112.78949530003592,None,,,,,,,,,,,,,,,,,,,,,,,,,,,tyrfqt,001,0,fr,2022-04-22_11h04.55.897,3-AFC_adaptive_staircase_mess,2022.1.1,None,
,,,,,0,0,0,0,0,0,0,0,,,,,,,,,,,,,[],[],5,left,1000,50,0.013930605843148852,0,0,-1,5,145.77297686675254,None,145.72184510016814,146.0656284999568,146.72677369997837,147.0602164999582,147.72648850013502,148.05812980001792,left,1,2.7828577999025583,145.79048900003545,None,148.2843357999809,None,tyrfqt,001,0,fr,2022-04-22_11h04.55.897,3-AFC_adaptive_staircase_mess,2022.1.1,None,
,,,,,0,0,0,0,1,0,1,0,,,,,,,,,,,,,,,,left,1000,40,0.004405244365040069,-1,0,-1,-10,150.14902566682238,150.37480060011148,150.0976325001102,150.43875210010447,151.10316499997862,151.438339299988,152.1033038001042,152.43794000009075,left,1,2.7406207998283207,150.16891300003044,None,152.66904000006616,None,tyrfqt,001,0,fr,2022-04-22_11h04.55.897,3-AFC_adaptive_staircase_mess,2022.1.1,None,
,,,,,0,0,0,0,2,0,2,0,,,,,,,,,,,,,,,,up,1000,30,0.0013930605843148849,-1,0,-1,-10,155.4813499667837,155.70913980016485,154.4343529001344,154.7667819999624,155.43096920009702,155.77144429995678,156.4355024001561,156.7694155999925,up,1,2.9540843998547643,154.46795419999398,None,156.99738840013742,None,tyrfqt,001,0,fr,2022-04-22_11h04.55.897,3-AFC_adaptive_staircase_mess,2022.1.1,None,
,,,,,0,0,0,0,3,0,3,0,,,,,,,,,,,,,,,,left,1000,20,0.0004405244365040069,-1,0,-1,-10,158.97657886665937,None,158.93103620014153,159.27752749994397,159.93975570006296,160.27490249997936,160.93540860014036,161.27041009999812,left,1,2.7181235998868942,158.990738700144,None,161.49128780001774,None,tyrfqt,001,0,fr,2022-04-22_11h04.55.897,3-AFC_adaptive_staircase_mess,2022.1.1,None,
,,,,,0,0,0,0,4,0,4,0,,,,,,,,,,,,,,,,right,1000,10,0.00013930605843148847,-1,0,-1,-10,165.2626092667381,None,163.20620659994893,163.53828810015693,164.19903450016864,164.51497010001913,165.21269339998253,165.54060590011068,right,1,2.5970179000869393,163.27231910009868,None,165.7579240000341,None,tyrfqt,001,0,fr,2022-04-22_11h04.55.897,3-AFC_adaptive_staircase_mess,2022.1.1,None,
,,,,,0,0,0,0,5,0,5,0,,,,,,,,,,,,,,,,up,1000,0,4.405244365040069e-05,-1,0,-1,-10,168.41371096676838,None,167.3909126999788,167.72145300009288,168.36696150014177,168.68039859994315,169.38111950014718,169.71519799996167,up,1,2.832901099929586,167.42012750008143,None,169.92650900012814,None,tyrfqt,001,0,fr,2022-04-22_11h04.55.897,3-AFC_adaptive_staircase_mess,2022.1.1,None,
,,,,,0,0,0,0,6,0,6,0,,,,,,,,,,,,,,,,left,1000,-10,1.3930605843148848e-05,-1,0,-1,-10,171.8370166668358,None,171.7907908000052,172.12311380007304,172.79730590013787,173.13693140004762,173.7935663999524,174.13476300006732,left,1,2.847092399839312,171.85312790004537,None,174.3557097001467,None,tyrfqt,001,0,fr,2022-04-22_11h04.55.897,3-AFC_adaptive_staircase_mess,2022.1.1,None,
,,,,,0,0,0,0,7,0,7,0,,,,,,,,,,,,,,,,right,1000,-20,4.405244365040069e-06,-1,0,-1,-10,178.27007626678486,None,176.23082210007124,176.54755720007233,177.21722350013442,177.55263080005534,178.22002130001783,178.56270639994182,up,0,2.8404914001002908,176.26048170006834,None,178.7775984001346,None,tyrfqt,001,0,fr,2022-04-22_11h04.55.897,3-AFC_adaptive_staircase_mess,2022.1.1,None,
,,,,,0,0,0,0,8,0,8,0,,,,,,,,,,,,,,,,up,1000,-15,7.833755350540743e-06,1,1,1,5,181.67334906669956,None,180.61533050006256,180.9496700000018,181.62335860007443,181.96583090000786,182.63059580000117,182.95868810010143,left,0,3.0173418999183923,180.6750352999661,None,183.18622880009934,None,tyrfqt,001,0,fr,2022-04-22_11h04.55.897,3-AFC_adaptive_staircase_mess,2022.1.1,None,
,,,,,0,0,0,0,9,0,9,0,,,,,,,,,,,,,,,,right,1000,-10,1.3930605843148848e-05,1,1,1,5,187.21556386683758,None,185.20239740004763,185.53923019999638,186.19494640012272,186.53736079996452,187.1988972001709,187.53841560008004,right,1,4.361824699910358,185.23515209998004,None,187.74998180009425,None,tyrfqt,001,0,fr,2022-04-22_11h04.55.897,3-AFC_adaptive_staircase_mess,2022.1.1,None,
,,,,,0,0,0,0,10,0,10,0,,,,,,,,,,,,,,,,right,1000,-20,4.405244365040069e-06,-1,2,-1,-10,193.1576911667983,None,191.10114550008439,191.43260079994798,192.10161270014942,192.4437466999516,193.11033749999478,193.4358918000944,right,1,3.3776422997470945,191.16274100006558,None,193.65323990001343,None,tyrfqt,001,0,fr,2022-04-22_11h04.55.897,3-AFC_adaptive_staircase_mess,2022.1.1,None,
,,,,,0,0,0,0,11,0,11,0,,,,,,,,,,,,,,,,left,1000,-30,1.3930605843148862e-06,-1,2,-1,-10,196.07639326673623,None,196.05972660006955,196.38648790004663,197.05884469999,197.38988719996996,198.048297500005,198.38115290016867,up,0,4.3082489997614175,196.08948189998046,None,198.59215939999558,None,tyrfqt,001,0,fr,2022-04-22_11h04.55.897,3-AFC_adaptive_staircase_mess,2022.1.1,None,
,,,,,0,0,0,0,12,0,12,0,,,,,,,,,,,,,,,,left,1000,-25,2.4772509540239526e-06,1,3,1,2.5,201.9558747667509,None,201.93920810008422,202.27866810001433,202.93498610006645,203.27024240000173,203.9259016001597,204.2611188001465,up,0,3.419439399847761,201.96938859997317,None,204.47472990001552,None,tyrfqt,001,0,fr,2022-04-22_11h04.55.897,3-AFC_adaptive_staircase_mess,2022.1.1,None,
,,,,,0,0,0,0,13,0,13,0,,,,,,,,,,,,,,,,up,1000,-22.5,3.303467240037979e-06,1,3,1,2.5,207.94957826665294,None,206.91657420014963,207.24330560001545,207.90251980000176,208.24232259998098,208.90286420006305,209.23232219996862,right,0,3.0202330998145044,206.94491940014996,None,209.47834550007246,None,tyrfqt,001,0,fr,2022-04-22_11h04.55.897,3-AFC_adaptive_staircase_mess,2022.1.1,None,
,,,,,0,0,0,0,14,0,14,0,,,,,,,,,,,,,,,,right,1000,-20.0,4.405244365040069e-06,1,3,1,2.5,213.52441166673478,None,211.4911343001295,211.82918210001662,212.48895839997567,212.823761299951,213.4769806000404,213.82225279998966,right,1,3.3703833997715265,211.5228145001456,None,214.03613150003366,None,tyrfqt,001,0,fr,2022-04-22_11h04.55.897,3-AFC_adaptive_staircase_mess,2022.1.1,None,
,,,,,0,0,0,0,15,0,15,0,,,,,,,,,,,,,,,,right,1000,-25.0,2.4772509540239526e-06,-1,4,-1,-5.0,218.45330386661615,None,216.40125140012242,216.73148289998062,217.41878050006926,217.7551822999958,218.40670970012434,None,up,0,2.1435211999341846,216.46084730001166,None,None,None,tyrfqt,001,0,fr,2022-04-22_11h04.55.897,3-AFC_adaptive_staircase_mess,2022.1.1,None,
,,,,,0,0,0,0,16,0,16,0,,,,,,,,,,,,,,,,right,1000,-22.5,3.303467240037979e-06,1,5,1,2.5,222.1993119668371,None,220.1783847999759,220.5121449001599,221.14719650009647,221.4920080001466,222.15225150017068,222.49915300006978,up,0,3.0390378998126835,220.20603040000424,None,222.71140490006655,None,tyrfqt,001,0,fr,2022-04-22_11h04.55.897,3-AFC_adaptive_staircase_mess,2022.1.1,None,
,,,,,0,0,0,0,17,0,17,0,,,,,,,,,,,,,,,,up,1000,-20.0,4.405244365040069e-06,1,5,1,2.5,225.8029312666661,None,224.76426680013537,225.1008681000676,225.7538477999624,226.09721840010025,226.75453580007888,227.08356030005962,up,1,3.21999410004355,224.79379070014693,None,227.32294149999507,None,tyrfqt,001,0,fr,2022-04-22_11h04.55.897,3-AFC_adaptive_staircase_mess,2022.1.1,None,
,,,,,0,0,0,0,18,0,18,0,,,,,,,,,,,,,,,,up,1000,-25.0,2.4772509540239526e-06,-1,6,-1,-5.0,230.56581416662473,None,229.5322324000299,229.86847530002706,230.51920740003698,230.85485550016165,231.53360050008632,231.86917780013755,left,0,2.7198749999515712,229.56570519995876,None,232.0703746001236,None,tyrfqt,001,0,fr,2022-04-22_11h04.55.897,3-AFC_adaptive_staircase_mess,2022.1.1,None,
,,,,,0,0,0,0,19,0,19,0,,,,,,,,,,,,,,,,right,1000,-22.5,3.303467240037979e-06,1,7,1,2.5,235.84163996676605,None,233.82323890016414,234.13908970006742,234.7917135001626,235.13904960011132,235.82497330009937,236.1413555999752,left,0,2.7540678000077605,233.85117950011045,None,236.37638689996675,None,tyrfqt,001,0,fr,2022-04-22_11h04.55.897,3-AFC_adaptive_staircase_mess,2022.1.1,None,
,,,,,0,0,0,0,20,0,20,0,,,,,,,,,,,,,,,,left,1000,-20.0,4.405244365040069e-06,1,7,1,2.5,238.145785866833,None,238.12911920016631,238.44359030015767,239.11020440002903,239.44440510007553,240.1182540000882,240.44431110005826,left,1,2.8777982997708023,238.15952210011892,None,240.66342100012116,None,tyrfqt,001,0,fr,2022-04-22_11h04.55.897,3-AFC_adaptive_staircase_mess,2022.1.1,None,
,,,,,0,0,0,0,21,0,21,0,,,,,,,,,,,,,,,,up,1000,-25.0,2.4772509540239526e-06,-1,8,-1,-5.0,243.59344946669106,None,242.57078570011072,242.91372609999962,243.53433179995045,243.85422220011242,244.54777189996094,244.8843768001534,right,0,3.0293600000441074,242.60032210010104,None,245.08573119994253,None,tyrfqt,001,0,fr,2022-04-22_11h04.55.897,3-AFC_adaptive_staircase_mess,2022.1.1,None,
,,,,,1,0,1,0,0,0,0,0,,,,,,,,,,,,,[],[],5,up,1500,50,0.01527460556607757,0,0,-1,5,248.18385546660673,None,247.15736160008237,247.4857354001142,248.16718879994005,248.48868610011414,249.177376100095,249.5062395001296,up,1,2.8767200999427587,247.2156989001669,None,249.7168519999832,None,tyrfqt,001,0,fr,2022-04-22_11h04.55.897,3-AFC_adaptive_staircase_mess,2022.1.1,None,
,,,,,1,0,1,0,1,0,1,0,,,,,,,,,,,,,,,,left,1500,40,0.004830254394949068,-1,0,-1,-10,251.64632256661233,None,251.62965589994565,251.95814829994924,252.64798839995638,252.99220470013097,253.62433920009062,253.9601942000445,left,1,2.883914099773392,251.65828550001606,None,254.193536600098,None,tyrfqt,001,0,fr,2022-04-22_11h04.55.897,3-AFC_adaptive_staircase_mess,2022.1.1,None,
,,,,,1,0,1,0,2,0,2,0,,,,,,,,,,,,,,,,left,1500,30,0.001527460556607757,-1,0,-1,-10,256.10995686665797,None,256.06053310004063,256.4025418001693,257.0863340999931,257.4300404000096,258.04860890004784,258.39866479998454,left,1,2.8778321999125183,256.12636470003054,None,258.6322198000271,None,tyrfqt,001,0,fr,2022-04-22_11h04.55.897,3-AFC_adaptive_staircase_mess,2022.1.1,None,
,,,,,1,0,1,0,3,0,3,0,,,,,,,,,,,,,,,,left,1500,20,0.00048302543949490677,-1,0,-1,-10,260.55649996671514,None,260.5398333000485,260.8675923999399,261.52444900013506,261.8684213999659,262.5338518000208,262.8701041000895,left,1,2.8518322999589145,260.56871270015836,None,263.10377859999426,None,tyrfqt,001,0,fr,2022-04-22_11h04.55.897,3-AFC_adaptive_staircase_mess,2022.1.1,None,
,,,,,1,0,1,0,4,0,4,0,,,,,,,,,,,,,,,,up,1500,10,0.0001527460556607757,-1,0,-1,-10,265.9875683666362,266.221233200049,264.94494810001925,265.27169640013017,265.93769209994934,266.2512556000147,266.9466550000943,267.2726221999619,up,1,2.9602883998304605,264.9729355000891,None,267.50459529994987,None,tyrfqt,001,0,fr,2022-04-22_11h04.55.897,3-AFC_adaptive_staircase_mess,2022.1.1,None,
,,,,,1,0,1,0,5,0,5,0,,,,,,,,,,,,,,,,left,1500,0,4.830254394949071e-05,-1,0,-1,-10,269.46842826676243,None,269.4517616000958,269.78619490005076,270.4406210000161,270.7769921000581,271.4416169000324,271.779585900018,left,1,2.896716999821365,269.48389090015553,None,271.98117080004886,None,tyrfqt,001,0,fr,2022-04-22_11h04.55.897,3-AFC_adaptive_staircase_mess,2022.1.1,None,
,,,,,1,0,1,0,6,0,6,0,,,,,,,,,,,,,,,,right,1500,-10,1.527460556607758e-05,-1,0,-1,-10,275.92262196663455,None,273.8951155000832,274.2148228001315,274.88012450002134,275.2158433999866,275.8780569001101,276.2182259000838,left,0,2.904161399928853,273.92492759996094,None,276.4289255000185,None,tyrfqt,001,0,fr,2022-04-22_11h04.55.897,3-AFC_adaptive_staircase_mess,2022.1.1,None,
,,,,,1,0,1,0,7,0,7,0,,,,,,,,,,,,,,,,up,1500,-5,2.716251657462168e-05,1,1,1,5,279.4015463668077,279.62743470002897,278.3491094999481,278.68638040008955,279.35549989994615,279.6910546000581,280.3567047000397,280.68652889993973,right,0,2.721434799954295,278.41238690004684,None,280.92187750013545,None,tyrfqt,001,0,fr,2022-04-22_11h04.55.897,3-AFC_adaptive_staircase_mess,2022.1.1,None,
,,,,,1,0,1,0,8,0,8,0,,,,,,,,,,,,,,,,up,1500,0,4.830254394949071e-05,1,1,1,5,283.6890825667108,None,282.6459735999815,282.991221500095,283.6414814000018,283.95810050005093,284.67165339994244,285.0026428999845,left,0,3.6772727998904884,282.70414760010317,None,285.21065150015056,None,tyrfqt,001,0,fr,2022-04-22_11h04.55.897,3-AFC_adaptive_staircase_mess,2022.1.1,None,
,,,,,1,0,1,0,9,0,9,0,,,,,,,,,,,,,,,,up,1500,5,8.589541935787943e-05,1,1,1,5,288.9233754666677,None,287.8967869000044,288.22858360013925,288.90670880000107,289.24375290004537,289.89303459995426,290.2309107000474,up,1,2.99561439990066,287.962306200061,None,290.46551740006544,None,tyrfqt,001,0,fr,2022-04-22_11h04.55.897,3-AFC_adaptive_staircase_mess,2022.1.1,None,
,,,,,1,0,1,0,10,0,10,0,,,,,,,,,,,,,,,,right,1500,-5,2.716251657462168e-05,-1,2,-1,-10,294.5187813668201,294.75083480007015,292.46822730009444,292.8010198001284,293.47464830009267,293.80108150001615,294.46882930002175,294.8112880999688,right,1,2.9226478999480605,292.53093400015496,None,295.0208618999459,None,tyrfqt,001,0,fr,2022-04-22_11h04.55.897,3-AFC_adaptive_staircase_mess,2022.1.1,None,
,,,,,1,0,1,0,11,0,11,0,,,,,,,,,,,,,,,,left,1500,-15,8.589541935787946e-06,-1,2,-1,-10,297.00254926673756,None,296.9560829999391,297.2721436000429,297.981601000065,298.3064445001073,298.964418400079,299.3068295000121,left,1,2.7417948998045176,297.0156757000368,None,299.5407432001084,None,tyrfqt,001,0,fr,2022-04-22_11h04.55.897,3-AFC_adaptive_staircase_mess,2022.1.1,None,
,,,,,1,0,1,0,12,0,12,0,,,,,,,,,,,,,,,,right,1500,-25,2.7162516574621683e-06,-1,2,-1,-10,303.31395406678007,None,301.272602400044,301.60775399999693,302.274412299972,302.61223329999484,303.2689427000005,303.6109682000242,up,0,3.033816299866885,301.33144149999134,None,303.8462257999927,None,tyrfqt,001,0,fr,2022-04-22_11h04.55.897,3-AFC_adaptive_staircase_mess,2022.1.1,None,
,,,,,1,0,1,0,13,0,13,0,,,,,,,,,,,,,,,,right,1500,-20,4.8302543949490704e-06,1,3,1,2.5,307.90764976671585,None,305.87706320011057,306.21409050002694,306.8807868999429,307.21592490002513,307.8909831000492,308.2194026000798,left,0,3.038889199960977,305.93387950002216,None,308.42454190016724,None,tyrfqt,001,0,fr,2022-04-22_11h04.55.897,3-AFC_adaptive_staircase_mess,2022.1.1,None,
,,,,,1,0,1,0,14,0,14,0,,,,,,,,,,,,,,,,right,1500,-17.5,6.441247758465675e-06,1,3,1,2.5,312.50543176668384,312.7350076001603,310.48209189996123,310.81868270016275,311.49382279999554,311.8212983000558,312.4887651000172,312.8260435999837,right,1,2.910525099840015,310.542375799967,None,313.05500230006874,None,tyrfqt,001,0,fr,2022-04-22_11h04.55.897,3-AFC_adaptive_staircase_mess,2022.1.1,None,
,,,,,1,0,1,0,15,0,15,0,,,,,,,,,,,,,,,,left,1500,-22.5,3.622179800374953e-06,-1,4,-1,-5.0,314.9954317666745,None,314.9504754000809,315.28988720010966,315.96561049995944,316.291618200019,316.9584178000223,317.2921693001408,left,1,2.9416189999319613,315.007492700126,None,317.5269999001175,None,tyrfqt,001,0,fr,2022-04-22_11h04.55.897,3-AFC_adaptive_staircase_mess,2022.1.1,None,
,,,,,1,0,1,0,16,0,16,0,,,,,,,,,,,,,,,,up,1500,-27.5,2.0369013890205653e-06,-1,4,-1,-5.0,320.50954346667663,None,319.4655312001705,319.7944555999711,320.45948640001006,320.80231310008094,321.4580664001405,321.7855685001705,left,0,3.0313036998268217,319.49405229999684,None,322.0252152001485,None,tyrfqt,001,0,fr,2022-04-22_11h04.55.897,3-AFC_adaptive_staircase_mess,2022.1.1,None,
,,,,,1,0,1,0,17,0,17,0,,,,,,,,,,,,,,,,right,1500,-25.0,2.7162516574621683e-06,1,5,1,2.5,326.0654966666518,None,324.0264542000368,324.3659955000039,325.03306560008787,325.36885750014335,326.0208002999425,326.3685137000866,right,1,3.0330956999678165,324.08372809994034,None,326.58707759995013,None,tyrfqt,001,0,fr,2022-04-22_11h04.55.897,3-AFC_adaptive_staircase_mess,2022.1.1,None,
,,,,,1,0,1,0,18,0,18,0,,,,,,,,,,,,,,,,right,1500,-30.0,1.5274605566077578e-06,-1,6,-1,-5.0,330.6915841666671,None,328.63915090006776,328.971913699992,329.637478900142,329.97328609996475,330.64533990016207,330.9774472999852,left,0,2.4968924997374415,328.7008470001165,None,331.2165074001532,None,tyrfqt,001,0,fr,2022-04-22_11h04.55.897,3-AFC_adaptive_staircase_mess,2022.1.1,None,
,,,,,1,0,1,0,19,0,19,0,,,,,,,,,,,,,,,,right,1500,-27.5,2.0369013890205653e-06,1,7,1,2.5,334.75565086660595,None,332.7086758001242,333.04149780003354,333.70714860013686,334.04345120000653,334.7078207000159,335.0497328999918,left,0,2.34470669971779,332.7417472000234,None,None,None,tyrfqt,001,0,fr,2022-04-22_11h04.55.897,3-AFC_adaptive_staircase_mess,2022.1.1,None,
,,,,,1,0,1,0,20,0,20,0,,,,,,,,,,,,,,,,right,1500,-25.0,2.7162516574621683e-06,1,7,1,2.5,338.63374886667975,None,336.60999180004,336.94664750015363,337.61232440010644,337.948016700102,338.6170822000131,338.947456800146,up,0,2.9109161999076605,336.67045910004526,None,339.1635555999819,None,tyrfqt,001,0,fr,2022-04-22_11h04.55.897,3-AFC_adaptive_staircase_mess,2022.1.1,None,
,,,,,1,0,1,0,21,0,21,0,,,,,,,,,,,,,,,,left,1500,-22.5,3.622179800374953e-06,1,7,1,2.5,341.1333259668356,341.3630322001409,341.0830459999852,341.42400470003486,342.0933126001619,342.4194718999788,343.08801780012436,343.4201740999706,left,1,2.991811699932441,341.14995480002835,None,343.6213215000462,None,tyrfqt,001,0,fr,2022-04-22_11h04.55.897,3-AFC_adaptive_staircase_mess,2022.1.1,None,
,,,,,1,0,1,0,22,0,22,0,,,,,,,,,,,,,,,,right,1500,-27.5,2.0369013890205653e-06,-1,8,-1,-5.0,347.682117066641,None,345.66256000008434,345.9884486000519,346.65729900007136,346.9916952000931,347.66545039997436,347.9921317000408,left,0,2.660133699886501,345.7204313999973,None,348.21601049997844,None,tyrfqt,001,0,fr,2022-04-22_11h04.55.897,3-AFC_adaptive_staircase_mess,2022.1.1,None,
,,,,,2,0,2,0,0,0,0,0,,,,,,,,,,,,,[],[],5,left,2000,50,0.02365756294807403,0,0,-1,5,349.94593966665366,None,349.9008947000839,350.22757690004073,350.8925109000411,351.22776730009355,351.9070101999678,352.22917170007713,left,1,2.82130269985646,349.95928489998914,None,352.46121550002135,None,tyrfqt,001,0,fr,2022-04-22_11h04.55.897,3-AFC_adaptive_staircase_mess,2022.1.1,None,
,,,,,2,0,2,0,1,0,1,0,,,,,,,,,,,,,,,,left,2000,40,0.007481178280472167,-1,0,-1,-10,354.38034736673967,None,354.3302756000776,354.6720794001594,355.33253460004926,355.66642710007727,356.32934239995666,356.66820770013146,left,1,2.782379499869421,354.39790310012177,None,356.90057629998773,None,tyrfqt,001,0,fr,2022-04-22_11h04.55.897,3-AFC_adaptive_staircase_mess,2022.1.1,None,
,,,,,2,0,2,0,2,0,2,0,,,,,,,,,,,,,,,,up,2000,30,0.0023657562948074026,-1,0,-1,-10,359.7143906667518,None,358.70176120009273,359.03549510007724,359.69772400008515,360.0104040999431,360.694140000036,361.0381684000604,up,1,2.990208499832079,358.7347049000673,None,361.2385637999978,None,tyrfqt,001,0,fr,2022-04-22_11h04.55.897,3-AFC_adaptive_staircase_mess,2022.1.1,None,
,,,,,2,0,2,0,3,0,3,0,,,,,,,,,,,,,,,,right,2000,20,0.0007481178280472167,-1,0,-1,-10,365.255808566759,None,363.24157129996456,363.57462009997107,364.22624310012907,364.542075100122,365.23914190009236,365.5756932999939,right,1,2.993264300050214,363.27565550012514,None,365.77523649996147,None,tyrfqt,001,0,fr,2022-04-22_11h04.55.897,3-AFC_adaptive_staircase_mess,2022.1.1,None,
,,,,,2,0,2,0,4,0,4,0,,,,,,,,,,,,,,,,up,2000,10,0.00023657562948074026,-1,0,-1,-10,368.8314625668029,369.057246300159,367.80754790012725,368.14232450001873,368.81479590013623,369.1468383001629,369.8110893999692,370.1292602000758,up,1,2.7663738999981433,367.8386161001399,None,370.3384710000828,None,tyrfqt,001,0,fr,2022-04-22_11h04.55.897,3-AFC_adaptive_staircase_mess,2022.1.1,None,
,,,,,2,0,2,0,5,0,5,0,,,,,,,,,,,,,,,,left,2000,0,7.481178280472168e-05,-1,0,-1,-10,372.14675376663604,None,372.10053499997593,372.4172497000545,373.1179588001687,373.45143250003457,374.1147899001371,374.45358259999193,left,1,2.7330029997974634,372.1607674001716,None,374.6860496001318,None,tyrfqt,001,0,fr,2022-04-22_11h04.55.897,3-AFC_adaptive_staircase_mess,2022.1.1,None,
,,,,,2,0,2,0,6,0,6,0,,,,,,,,,,,,,,,,up,2000,-10,2.3657562948074015e-05,-1,0,-1,-10,377.46820976661206,None,376.4194988999516,376.75566350016743,377.4184529001359,377.7618124000728,378.41952750016935,378.76172720012255,left,0,2.9664709998760372,376.48624730017036,None,378.98983970005065,None,tyrfqt,001,0,fr,2022-04-22_11h04.55.897,3-AFC_adaptive_staircase_mess,2022.1.1,None,
,,,,,2,0,2,0,7,0,7,0,,,,,,,,,,,,,,,,up,2000,-5,4.206975708225974e-05,1,1,1,5,381.981106966796,None,380.9555967000779,381.2921889000572,381.96444030012935,382.2950794000644,382.95378250000067,383.2927201001439,up,1,2.8623243998736143,381.0226680999622,None,383.5146141999867,None,tyrfqt,001,0,fr,2022-04-22_11h04.55.897,3-AFC_adaptive_staircase_mess,2022.1.1,None,
,,,,,2,0,2,0,8,0,8,0,,,,,,,,,,,,,,,,right,2000,-15,1.3303625298994042e-05,-1,2,-1,-10,387.44180736673684,None,385.3929050001316,385.7292730000336,386.3946426999755,386.7284013000317,387.3947390001267,387.7088820999488,right,1,2.67116989986971,385.45336470007896,None,387.9332628999837,None,tyrfqt,001,0,fr,2022-04-22_11h04.55.897,3-AFC_adaptive_staircase_mess,2022.1.1,None,
,,,,,2,0,2,0,9,0,9,0,,,,,,,,,,,,,,,,right,2000,-25,4.206975708225973e-06,-1,2,-1,-10,391.68407636677534,None,389.6313036000356,389.9679560000077,390.63635540008545,390.9702064001467,391.6339855999686,391.9756034000311,up,0,2.7940699998289347,389.6991294999607,None,392.2039719000459,None,tyrfqt,001,0,fr,2022-04-22_11h04.55.897,3-AFC_adaptive_staircase_mess,2022.1.1,None,
,,,,,2,0,2,0,10,0,10,0,,,,,,,,,,,,,,,,right,2000,-20,7.481178280472164e-06,1,3,1,2.5,396.05904836679497,396.2844952000305,394.0028061999474,394.3361887000501,395.0055613000877,395.3405057999771,396.0083649000153,396.34637080016546,left,0,2.647201299900189,394.0693384001497,None,396.57507060002536,None,tyrfqt,001,0,fr,2022-04-22_11h04.55.897,3-AFC_adaptive_staircase_mess,2022.1.1,None,
,,,,,2,0,2,0,11,0,11,0,,,,,,,,,,,,,,,,right,2000,-17.5,9.976311574844395e-06,1,3,1,2.5,400.2904814666292,None,398.25642070011236,398.5795901999809,399.2413505001459,399.5768977999687,400.24084250000305,400.58366500004195,left,0,3.0873814998194575,398.2859640000388,None,400.8105593000073,None,tyrfqt,001,0,fr,2022-04-22_11h04.55.897,3-AFC_adaptive_staircase_mess,2022.1.1,None,
,,,,,2,0,2,0,12,0,12,0,,,,,,,,,,,,,,,,right,2000,-15.0,1.3303625298994042e-05,1,3,1,2.5,404.9042463666449,None,402.87788469996303,403.2120775000658,403.8790220001247,404.21210060012527,404.88757969997823,405.2174585000612,left,0,2.9730653997976333,402.94374680006877,None,405.45152830006555,None,tyrfqt,001,0,fr,2022-04-22_11h04.55.897,3-AFC_adaptive_staircase_mess,2022.1.1,None,
,,,,,2,0,2,0,13,0,13,0,,,,,,,,,,,,,,,,left,2000,-12.5,1.7740669461678767e-05,1,3,1,2.5,407.44857836660617,None,407.4319116999395,407.75446860003285,408.41660979995504,408.7492963001132,409.4169696001336,409.75583959999494,up,0,2.903599499957636,407.46196119999513,None,409.987765799975,None,tyrfqt,001,0,fr,2022-04-22_11h04.55.897,3-AFC_adaptive_staircase_mess,2022.1.1,None,
,,,,,2,0,2,0,14,0,14,0,,,,,,,,,,,,,,,,left,2000,-10.0,2.3657562948074015e-05,1,3,1,2.5,411.9281105667508,None,411.8780702999793,412.1943185001146,412.8886526999995,413.22571250004694,413.9022814000491,414.2286621001549,right,0,2.6989304998423904,411.9387199000921,None,414.4610925000161,None,tyrfqt,001,0,fr,2022-04-22_11h04.55.897,3-AFC_adaptive_staircase_mess,2022.1.1,None,
,,,,,2,0,2,0,15,0,15,0,,,,,,,,,,,,,,,,left,2000,-7.5,3.154786722400965e-05,1,3,1,2.5,416.2105149666934,416.43731880001724,416.16164540010504,416.4984448000323,417.16109840013087,417.497080600122,418.160772100091,418.4935018001124,left,1,2.458007700042799,416.2273047999479,None,418.70878660003655,None,tyrfqt,001,0,fr,2022-04-22_11h04.55.897,3-AFC_adaptive_staircase_mess,2022.1.1,None,
,,,,,2,0,2,0,16,0,16,0,,,,,,,,,,,,,,,,up,2000,-12.5,1.7740669461678767e-05,-1,4,-1,-5.0,421.22124446678595,None,420.195360600017,420.5273971001152,421.2045778001193,421.53487490001135,422.2012625001371,422.53273890004493,up,1,2.3916608998551965,420.26161750010215,None,None,None,tyrfqt,001,0,fr,2022-04-22_11h04.55.897,3-AFC_adaptive_staircase_mess,2022.1.1,None,
,,,,,2,0,2,0,17,0,17,0,,,,,,,,,,,,,,,,up,2000,-17.5,9.976311574844395e-06,-1,4,-1,-5.0,425.21761556674414,None,424.17441300000064,424.50584500003606,425.16758779995143,425.5099832001142,426.17613460007124,426.5030388000887,left,0,2.352900699712336,424.20435380004346,None,None,None,tyrfqt,001,0,fr,2022-04-22_11h04.55.897,3-AFC_adaptive_staircase_mess,2022.1.1,None,
,,,,,2,0,2,0,18,0,18,0,,,,,,,,,,,,,,,,left,2000,-15.0,1.3303625298994042e-05,1,5,1,2.5,428.1032819667055,None,428.08661530003883,428.40744370012544,None,None,None,None,left,1,0.35962069989182055,428.1181906000711,None,None,None,tyrfqt,001,0,fr,2022-04-22_11h04.55.897,3-AFC_adaptive_staircase_mess,2022.1.1,None,
,,,,,2,0,2,0,19,0,19,0,,,,,,,,,,,,,,,,right,2000,-20.0,7.481178280472164e-06,-1,6,-1,-5.0,432.0488730667314,None,430.0076276999898,430.34140760009177,431.01480080001056,431.34615029999986,432.0037190001458,432.3484027001541,up,0,2.962749799946323,430.07420730008744,None,432.5485756001435,None,tyrfqt,001,0,fr,2022-04-22_11h04.55.897,3-AFC_adaptive_staircase_mess,2022.1.1,None,
,,,,,2,0,2,0,20,0,20,0,,,,,,,,,,,,,,,,left,2000,-17.5,9.976311574844395e-06,1,7,1,2.5,434.5958161666679,434.82266389997676,434.54644210007973,434.884054900147,435.5481599001214,435.88153280015104,436.54370760009624,436.86512930016033,left,1,2.9525847998447716,434.6128299999982,None,437.1157218001317,None,tyrfqt,001,0,fr,2022-04-22_11h04.55.897,3-AFC_adaptive_staircase_mess,2022.1.1,None,
,,,,,2,0,2,0,21,0,21,0,,,,,,,,,,,,,,,,right,2000,-22.5,5.610092271509815e-06,-1,8,-1,-5.0,441.11447376670935,None,439.08942740014754,439.42042450001463,440.07380799995735,440.3890579000581,441.0978071000427,441.4264078999404,right,1,2.845220699906349,439.1205615999643,None,441.6259737999644,None,tyrfqt,001,0,fr,2022-04-22_11h04.55.897,3-AFC_adaptive_staircase_mess,2022.1.1,None,
,,,,,3,0,3,0,0,0,0,0,,,,,,,,,,,,,[],[],5,right,3000,50,0.017336842522626576,0,0,-1,5,445.5367269667952,445.76514260005206,443.47729880013503,443.7932484000921,444.4822287000716,444.82651789998636,445.4864950000774,445.8274322000798,right,1,2.508871999802068,443.53666740003973,None,446.0607843999751,None,tyrfqt,001,0,fr,2022-04-22_11h04.55.897,3-AFC_adaptive_staircase_mess,2022.1.1,None,
,,,,,3,0,3,0,1,0,1,0,,,,,,,,,,,,,,,,left,3000,40,0.005482390980715924,-1,0,-1,-10,447.6068972666437,None,447.55718980007805,447.8984446001705,None,None,None,None,left,1,0.6940415997523814,447.62330370000564,None,None,None,tyrfqt,001,0,fr,2022-04-22_11h04.55.897,3-AFC_adaptive_staircase_mess,2022.1.1,None,
,,,,,3,0,3,0,2,0,2,0,,,,,,,,,,,,,,,,left,3000,30,0.001733684252262658,-1,0,-1,-10,449.86743016663627,None,449.82213980006054,450.16818680008873,None,None,None,None,left,1,0.4481181998271495,449.8847886000294,None,None,None,tyrfqt,001,0,fr,2022-04-22_11h04.55.897,3-AFC_adaptive_staircase_mess,2022.1.1,None,
,,,,,3,0,3,0,3,0,3,0,,,,,,,,,,,,,,,,left,3000,20,0.0005482390980715922,-1,0,-1,-10,451.8488284666712,None,451.83216180000454,452.16709830006585,None,None,None,None,left,1,0.4685441998299211,451.86415620008484,None,None,None,tyrfqt,001,0,fr,2022-04-22_11h04.55.897,3-AFC_adaptive_staircase_mess,2022.1.1,None,
,,,,,3,0,3,0,4,0,4,0,,,,,,,,,,,,,,,,up,3000,10,0.00017336842522626576,-1,0,-1,-10,454.8826850667285,455.110125400126,453.86393710016273,454.19869810016826,454.8660184000619,455.20161310001276,None,None,up,1,1.3932339998427778,453.93161670002155,None,None,None,tyrfqt,001,0,fr,2022-04-22_11h04.55.897,3-AFC_adaptive_staircase_mess,2022.1.1,None,
,,,,,3,0,3,0,5,0,5,0,,,,,,,,,,,,,,,,right,3000,0,5.482390980715923e-05,-1,0,-1,-10,458.8597609666797,459.08119749999605,456.82677750010043,457.16907389997505,457.83477149996907,458.17003100016154,458.84309430001304,459.1731426999904,right,1,2.392057899851352,456.88586380006745,None,None,None,tyrfqt,001,0,fr,2022-04-22_11h04.55.897,3-AFC_adaptive_staircase_mess,2022.1.1,None,
,,,,,3,0,3,0,6,0,6,0,,,,,,,,,,,,,,,,left,3000,-10,1.7336842522626584e-05,-1,0,-1,-10,460.83472846664176,None,460.8180617999751,461.13658330007456,461.80544780008495,462.1404850000981,462.80714530008845,463.139659400098,left,1,2.8138532999437302,460.847024000017,None,463.3495336000342,None,tyrfqt,001,0,fr,2022-04-22_11h04.55.897,3-AFC_adaptive_staircase_mess,2022.1.1,None,
,,,,,3,0,3,0,7,0,7,0,,,,,,,,,,,,,,,,right,3000,-20,5.482390980715926e-06,-1,0,-1,-10,467.1960436667471,None,465.1667822001036,465.48516870010644,466.1653055001516,466.51080040005036,467.1793770000804,467.51612080005,right,1,2.5822779999580234,465.22324680001475,None,467.73603769997135,None,tyrfqt,001,0,fr,2022-04-22_11h04.55.897,3-AFC_adaptive_staircase_mess,2022.1.1,None,
,,,,,3,0,3,0,8,0,8,0,,,,,,,,,,,,,,,,right,3000,-30,1.7336842522626584e-06,-1,0,-1,-10,471.3438869666463,None,469.3133471000474,469.6513907001354,470.3168772000354,470.64826250006445,471.3272202999797,471.6684282000642,right,1,2.6489941999316216,469.379374000011,None,471.88132190005854,None,tyrfqt,001,0,fr,2022-04-22_11h04.55.897,3-AFC_adaptive_staircase_mess,2022.1.1,None,
,,,,,3,0,3,0,9,0,9,0,,,,,,,,,,,,,,,,right,3000,-40,5.482390980715925e-07,-1,0,-1,-10,475.6026603666289,475.83084770012647,473.54299660003744,473.8604236000683,474.5424177001696,474.87750330008566,475.5560584999621,475.89295680006035,up,0,2.367219799896702,473.5978025000077,None,None,None,tyrfqt,001,0,fr,2022-04-22_11h04.55.897,3-AFC_adaptive_staircase_mess,2022.1.1,None,
,,,,,3,0,3,0,10,0,10,0,,,,,,,,,,,,,,,,right,3000,-35,9.749222998790227e-07,1,1,1,5,479.5124837668302,None,477.48598390002735,477.81917170016095,478.4946390001569,478.81633080006577,479.49581710016355,479.830020399997,right,1,2.4969042998272926,477.5472921000328,None,480.04438850004226,None,tyrfqt,001,0,fr,2022-04-22_11h04.55.897,3-AFC_adaptive_staircase_mess,2022.1.1,None,
,,,,,3,0,3,0,11,0,11,0,,,,,,,,,,,,,,,,right,3000,-45,3.0829750093074115e-07,-1,2,-1,-10,483.58671656676256,None,481.5571561001707,481.8970066001639,482.5422604000196,482.88276299997233,483.5414899000898,483.88640350010246,left,0,2.279694999800995,481.621410000138,None,None,None,tyrfqt,001,0,fr,2022-04-22_11h04.55.897,3-AFC_adaptive_staircase_mess,2022.1.1,None,
,,,,,3,0,3,0,12,0,12,0,,,,,,,,,,,,,,,,right,3000,-40,5.482390980715925e-07,1,3,1,2.5,487.46015106683285,None,485.4304345001001,485.76033700001426,486.43925740011036,486.76265239994973,487.4134082000237,487.7428554999642,right,1,2.406889099860564,485.49405999993905,None,None,None,tyrfqt,001,0,fr,2022-04-22_11h04.55.897,3-AFC_adaptive_staircase_mess,2022.1.1,None,
,,,,,3,0,3,0,13,0,13,0,,,,,,,,,,,,,,,,up,3000,-45.0,3.0829750093074115e-07,-1,4,-1,-5.0,490.4229491667977,None,489.4014069000259,489.72714350000024,490.40628250013106,490.73276100005023,491.4073406001553,491.7299226000905,left,0,2.660158999962732,489.4646422001533,None,491.95264090015553,None,tyrfqt,001,0,fr,2022-04-22_11h04.55.897,3-AFC_adaptive_staircase_mess,2022.1.1,None,
,,,,,3,0,3,0,14,0,14,0,,,,,,,,,,,,,,,,right,3000,-42.5,4.111213249735356e-07,1,5,1,2.5,495.69488126674355,None,493.6683478001505,493.9814923000522,494.65489580016583,494.9769699999597,495.6782146000769,496.0012887001503,left,0,2.3157479998189956,493.728870900115,None,None,None,tyrfqt,001,0,fr,2022-04-22_11h04.55.897,3-AFC_adaptive_staircase_mess,2022.1.1,None,
,,,,,3,0,3,0,15,0,15,0,,,,,,,,,,,,,,,,up,3000,-40.0,5.482390980715925e-07,1,5,1,2.5,498.59047206683704,None,497.55913730012253,497.8880859001074,498.53875029995106,498.86263300012797,499.5595164000988,499.8850289999973,right,0,2.3743847000878304,497.59123659995385,None,None,None,tyrfqt,001,0,fr,2022-04-22_11h04.55.897,3-AFC_adaptive_staircase_mess,2022.1.1,None,
,,,,,3,0,3,0,16,0,16,0,,,,,,,,,,,,,,,,left,3000,-37.5,7.310885872283591e-07,1,5,1,2.5,501.51781546679945,None,501.5011488001328,501.8238967000507,502.4949056999758,502.8241894999519,503.4981403001584,503.8293382001575,left,1,2.6709833999630064,501.53345909994096,None,504.0598439001478,None,tyrfqt,001,0,fr,2022-04-22_11h04.55.897,3-AFC_adaptive_staircase_mess,2022.1.1,None,
,,,,,3,0,3,0,17,0,17,0,,,,,,,,,,,,,,,,up,3000,-42.5,4.111213249735356e-07,-1,6,-1,-5.0,506.774502566612,None,505.72978950012475,506.0622106001247,506.7244902001694,507.0616289000027,507.72319560009055,508.0450619000476,left,0,2.64812899986282,505.812353100162,None,508.2985549001023,None,tyrfqt,001,0,fr,2022-04-22_11h04.55.897,3-AFC_adaptive_staircase_mess,2022.1.1,None,
,,,,,3,0,3,0,18,0,18,0,,,,,,,,,,,,,,,,right,3000,-40.0,5.482390980715925e-07,1,7,1,2.5,512.0063449666525,None,509.96985849994235,510.2933885001112,510.9655540001113,511.29798349994235,511.9896782999858,512.310567199951,left,0,2.8901898998301476,510.0340400999412,None,512.536684300052,None,tyrfqt,001,0,fr,2022-04-22_11h04.55.897,3-AFC_adaptive_staircase_mess,2022.1.1,None,
,,,,,3,0,3,0,19,0,19,0,,,,,,,,,,,,,,,,left,3000,-37.5,7.310885872283591e-07,1,7,1,2.5,514.4605707666526,514.6879422999918,514.443904099986,514.7800888000056,515.441044599982,515.7554275000002,516.423816600116,516.7384024001658,left,1,2.685326899867505,514.4794235001318,None,516.9731564000249,None,tyrfqt,001,0,fr,2022-04-22_11h04.55.897,3-AFC_adaptive_staircase_mess,2022.1.1,None,
,,,,,3,0,3,0,20,0,20,0,,,,,,,,,,,,,,,,right,3000,-42.5,4.111213249735356e-07,-1,8,-1,-5.0,520.7115729668333,520.9400037000887,518.6650160001591,519.0096652000211,519.6636845001485,519.9966941999737,520.6601064000279,521.0063825000543,right,1,2.9138051997870207,518.7323462001514,None,521.2280246000737,None,tyrfqt,001,0,fr,2022-04-22_11h04.55.897,3-AFC_adaptive_staircase_mess,2022.1.1,None,
,,,,,4,0,4,0,0,0,0,0,,,,,,,,,,,,,[],[],5,right,4000,50,0.02654422221154942,0,0,-1,5,525.2183930667272,None,523.1958371000364,523.5162665001117,524.1642396999523,524.498494700063,525.165980800055,525.4808581999969,right,1,2.541566099971533,523.2310290001333,None,525.7155578001402,None,tyrfqt,001,0,fr,2022-04-22_11h04.55.897,3-AFC_adaptive_staircase_mess,2022.1.1,None,
,,,,,4,0,4,0,1,0,1,0,,,,,,,,,,,,,,,,up,4000,40,0.008394020090612802,-1,0,-1,-10,528.3322909668243,None,527.3104745999444,527.6495769999456,528.3156243001577,528.6544191001449,None,None,up,1,1.4203278997447342,527.3440871001221,None,None,None,tyrfqt,001,0,fr,2022-04-22_11h04.55.897,3-AFC_adaptive_staircase_mess,2022.1.1,None,
,,,,,4,0,4,0,2,0,2,0,,,,,,,,,,,,,,,,up,4000,30,0.0026544222211549416,-1,0,-1,-10,531.3272151668245,None,530.2900378000923,530.618504300015,531.3105485001579,531.659923300147,None,None,up,1,1.303388999775052,530.3563403999433,None,None,None,tyrfqt,001,0,fr,2022-04-22_11h04.55.897,3-AFC_adaptive_staircase_mess,2022.1.1,None,
,,,,,4,0,4,0,3,0,3,0,,,,,,,,,,,,,,,,right,4000,20,0.0008394020090612801,-1,0,-1,-10,535.226086766754,None,533.1647219001316,533.5011315001175,534.1938632000238,534.5221298001707,535.1772207000758,535.4927844000049,right,1,2.398724199971184,533.2309320000932,None,None,None,tyrfqt,001,0,fr,2022-04-22_11h04.55.897,3-AFC_adaptive_staircase_mess,2022.1.1,None,
,,,,,4,0,4,0,4,0,4,0,,,,,,,,,,,,,,,,up,4000,10,0.00026544222211549425,-1,0,-1,-10,538.2018318668163,538.4315516999923,537.1489250999875,537.4773020001594,538.1515926001593,538.4938594000414,None,None,up,1,1.3572181998752058,537.2154467001092,None,None,None,tyrfqt,001,0,fr,2022-04-22_11h04.55.897,3-AFC_adaptive_staircase_mess,2022.1.1,None,
,,,,,4,0,4,0,5,0,5,0,,,,,,,,,,,,,,,,up,4000,0,8.394020090612804e-05,-1,0,-1,-10,541.1386879666863,541.367317300057,540.0861392000224,540.4296558001079,541.0867407000624,541.429022599943,None,None,up,1,1.4098313997965306,540.1544948001392,None,None,None,tyrfqt,001,0,fr,2022-04-22_11h04.55.897,3-AFC_adaptive_staircase_mess,2022.1.1,None,
,,,,,4,0,4,0,6,0,6,0,,,,,,,,,,,,,,,,up,4000,-10,2.6544222211549425e-05,-1,0,-1,-10,544.1405174667636,544.3698045001365,543.088694400154,543.4211643000599,544.0896761000622,544.42815469997,545.0892283001449,545.4182553000282,left,0,2.603709999937564,543.152542399941,None,545.6581181001384,None,tyrfqt,001,0,fr,2022-04-22_11h04.55.897,3-AFC_adaptive_staircase_mess,2022.1.1,None,
,,,,,4,0,4,0,7,0,7,0,,,,,,,,,,,,,,,,right,4000,-5,4.720304381429618e-05,1,1,1,5,549.3068676668374,549.5390308999922,547.2577440999448,547.5931816000957,548.258873200044,548.5876512001269,549.2433162999805,549.5704795001075,right,1,3.05652859993279,547.3252997000236,None,549.8241660001222,None,tyrfqt,001,0,fr,2022-04-22_11h04.55.897,3-AFC_adaptive_staircase_mess,2022.1.1,None,
,,,,,4,0,4,0,8,0,8,0,,,,,,,,,,,,,,,,right,4000,-15,1.4926913094589802e-05,-1,2,-1,-10,553.9439154666072,None,551.895354000153,552.2229234001134,552.8982804999687,553.2273487001657,553.8962541001383,554.2303494999651,left,0,2.401503599714488,551.9630201000255,None,None,None,tyrfqt,001,0,fr,2022-04-22_11h04.55.897,3-AFC_adaptive_staircase_mess,2022.1.1,None,
,,,,,4,0,4,0,9,0,9,0,,,,,,,,,,,,,,,,right,4000,-10,2.6544222211549425e-05,1,3,1,2.5,557.950001966736,None,555.8985638001468,556.23471660004,556.9003872000612,557.2350570999552,557.8982460999396,558.2120928999502,right,1,2.3990714999381453,555.9656599001028,None,None,None,tyrfqt,001,0,fr,2022-04-22_11h04.55.897,3-AFC_adaptive_staircase_mess,2022.1.1,None,
,,,,,4,0,4,0,10,0,10,0,,,,,,,,,,,,,,,,left,4000,-15.0,1.4926913094589802e-05,-1,4,-1,-5.0,559.9210256667031,None,559.8681688001379,560.1822711999994,560.8730669000652,561.2042672999669,561.8719118000008,562.2021916001104,right,0,2.37715239985846,559.9397988000419,None,None,None,tyrfqt,001,0,fr,2022-04-22_11h04.55.897,3-AFC_adaptive_staircase_mess,2022.1.1,None,
,,,,,4,0,4,0,11,0,11,0,,,,,,,,,,,,,,,,right,4000,-12.5,1.9905358527674868e-05,1,5,1,2.5,None,None,563.8404105000664,564.1731980999466,564.8414132001344,565.1751218000427,None,None,left,0,1.4484371000435203,563.908101500012,None,None,None,tyrfqt,001,0,fr,2022-04-22_11h04.55.897,3-AFC_adaptive_staircase_mess,2022.1.1,None,
,,,,,4,0,4,0,12,0,12,0,,,,,,,,,,,,,,,,left,4000,-10.0,2.6544222211549425e-05,1,5,1,2.5,566.9285845666348,567.1554442001507,566.8756963999476,567.2193597001024,567.8791918000206,568.2127537999768,568.8766658001114,569.2140373999719,right,0,2.3926806999370456,566.9479960000608,None,None,None,tyrfqt,001,0,fr,2022-04-22_11h04.55.897,3-AFC_adaptive_staircase_mess,2022.1.1,None,
,,,,,4,0,4,0,13,0,13,0,,,,,,,,,,,,,,,,up,4000,-7.5,3.53972892192069e-05,1,5,1,2.5,571.9027078666879,None,570.8473378999624,571.1808482999913,571.849236200098,572.180250500096,572.84995110007,573.1863347999752,left,0,2.825593799818307,570.9142769000027,None,573.4199952001218,None,tyrfqt,001,0,fr,2022-04-22_11h04.55.897,3-AFC_adaptive_staircase_mess,2022.1.1,None,
,,,,,4,0,4,0,14,0,14,0,,,,,,,,,,,,,,,,right,4000,-5.0,4.720304381429618e-05,1,5,1,2.5,577.3046351667183,577.534273599973,575.252433200134,575.5854708999395,576.2546071000397,576.5904946001247,577.257381600095,577.5973414999899,right,1,2.5017804000526667,575.3183337999508,None,577.8194661000744,None,tyrfqt,001,0,fr,2022-04-22_11h04.55.897,3-AFC_adaptive_staircase_mess,2022.1.1,None,
,,,,,4,0,4,0,15,0,15,0,,,,,,,,,,,,,,,,up,4000,-10.0,2.6544222211549425e-05,-1,6,-1,-5.0,580.4209254666387,None,579.3706190001685,579.7061821001116,580.3679098000284,580.6917513001245,581.3685966001358,581.705489099957,up,1,2.443108999868855,579.4413147999439,None,581.9147660667697,None,tyrfqt,001,0,fr,2022-04-22_11h04.55.897,3-AFC_adaptive_staircase_mess,2022.1.1,None,
,,,,,4,0,4,0,16,0,16,0,,,,,,,,,,,,,,,,right,4000,-15.0,1.4926913094589802e-05,-1,6,-1,-5.0,585.4503317666861,None,583.3960468999576,583.7256674000528,584.3959156000055,584.7266669000965,585.3978122000117,585.7384150000289,left,0,2.825763199944049,583.458641699981,None,585.9682742001023,None,tyrfqt,001,0,fr,2022-04-22_11h04.55.897,3-AFC_adaptive_staircase_mess,2022.1.1,None,
,,,,,4,0,4,0,17,0,17,0,,,,,,,,,,,,,,,,right,4000,-12.5,1.9905358527674868e-05,1,7,1,2.5,589.8516449668134,None,587.7996370999608,588.1361376999412,588.7969599000644,589.1307949000038,589.7992963001598,590.1031760000624,right,1,2.433363299816847,587.8673563001212,None,None,None,tyrfqt,001,0,fr,2022-04-22_11h04.55.897,3-AFC_adaptive_staircase_mess,2022.1.1,None,
,,,,,4,0,4,0,18,0,18,0,,,,,,,,,,,,,,,,right,4000,-17.5,1.11936056928417e-05,-1,8,-1,-5.0,593.855670666617,None,591.8041195000987,592.1331851000432,592.8052885001525,593.1362030000892,593.8033758001402,594.1487563999835,right,1,2.7679440998472273,591.8699869001284,None,594.371597800171,None,tyrfqt,001,0,fr,2022-04-22_11h04.55.897,3-AFC_adaptive_staircase_mess,2022.1.1,None,
,,,,,5,0,5,0,0,0,0,0,,,,,,,,,,,,,[],[],5,up,6000,50,0.03664122665694519,0,0,-1,5,597.1877436666439,None,596.1371396000031,596.4557113000192,597.1400484000333,597.479055600008,None,None,up,1,1.6077680999878794,596.1963077001274,None,None,None,tyrfqt,001,0,fr,2022-04-22_11h04.55.897,3-AFC_adaptive_staircase_mess,2022.1.1,None,
,,,,,5,0,5,0,1,0,1,0,,,,,,,,,,,,,,,,up,6000,40,0.01158697324984239,-1,0,-1,-10,600.3641939666743,None,599.3145614999812,599.6459602999967,600.3104497999884,600.6456928001717,None,None,up,1,1.5596605997998267,599.3486799001694,None,None,None,tyrfqt,001,0,fr,2022-04-22_11h04.55.897,3-AFC_adaptive_staircase_mess,2022.1.1,None,
,,,,,5,0,5,0,2,0,2,0,,,,,,,,,,,,,,,,right,6000,30,0.003664122665694519,-1,0,-1,-10,604.4640325667026,604.6886128999759,602.4215321999509,602.7425094000064,603.412913300097,603.7480023000389,604.4168899999931,604.751370199956,right,1,2.327719299821183,602.4847385999747,None,None,None,tyrfqt,001,0,fr,2022-04-22_11h04.55.897,3-AFC_adaptive_staircase_mess,2022.1.1,None,
,,,,,5,0,5,0,3,0,3,0,,,,,,,,,,,,,,,,right,6000,20,0.0011586973249842392,-1,0,-1,-10,608.3745890667817,None,606.3185517000966,606.6532209999859,607.3168596001342,607.65105890017,608.3205186999403,608.6527491000015,right,1,2.5427612997591496,606.3812997001223,None,608.856557500083,None,tyrfqt,001,0,fr,2022-04-22_11h04.55.897,3-AFC_adaptive_staircase_mess,2022.1.1,None,
,,,,,5,0,5,0,4,0,4,0,,,,,,,,,,,,,,,,right,6000,10,0.00036641226656945183,-1,0,-1,-10,612.507072666722,612.7334559001029,610.458528400166,610.7903775000013,611.4476970999967,611.7900241999887,612.4566884001251,612.7951049001422,right,1,2.5623614997603,610.4898876000661,None,613.0244628000073,None,tyrfqt,001,0,fr,2022-04-22_11h04.55.897,3-AFC_adaptive_staircase_mess,2022.1.1,None,
,,,,,5,0,5,0,5,0,5,0,,,,,,,,,,,,,,,,right,6000,0,0.00011586973249842387,-1,0,-1,-10,616.6108219666096,616.8405421001371,614.5575453001074,614.8917633001693,615.562225200003,615.8984141000547,616.5590864000842,616.9017205999698,right,1,2.586339599918574,614.6256109001115,None,617.1285874999594,None,tyrfqt,001,0,fr,2022-04-22_11h04.55.897,3-AFC_adaptive_staircase_mess,2022.1.1,None,
,,,,,5,0,5,0,6,0,6,0,,,,,,,,,,,,,,,,up,6000,-10,3.664122665694518e-05,-1,0,-1,-10,619.7856128668102,None,618.7302560999524,619.0608234000392,619.7351214999799,620.0688968000468,620.73306280002,621.064331700094,right,0,2.9416604000143707,618.7997075000312,None,621.2936458999757,None,tyrfqt,001,0,fr,2022-04-22_11h04.55.897,3-AFC_adaptive_staircase_mess,2022.1.1,None,
,,,,,5,0,5,0,7,0,7,0,,,,,,,,,,,,,,,,up,6000,-5,6.515833892261494e-05,1,1,1,5,624.2898024668141,None,623.2562309000641,623.5753314001486,624.2731358001474,624.6149267000146,625.2721544001251,625.6019224999472,left,0,2.4494353998452425,623.3230827001389,None,625.8169623667529,None,tyrfqt,001,0,fr,2022-04-22_11h04.55.897,3-AFC_adaptive_staircase_mess,2022.1.1,None,
,,,,,5,0,5,0,8,0,8,0,,,,,,,,,,,,,,,,right,6000,0,0.00011586973249842387,1,1,1,5,629.3314505667115,None,627.3109538999852,627.6342609999701,628.2941859001294,628.6063038001303,629.3147839000449,629.6365545999724,right,1,2.463652699952945,627.3418461000547,None,629.8333959666236,None,tyrfqt,001,0,fr,2022-04-22_11h04.55.897,3-AFC_adaptive_staircase_mess,2022.1.1,None,
,,,,,5,0,5,0,9,0,9,0,,,,,,,,,,,,,,,,right,6000,-10,3.664122665694518e-05,-1,2,-1,-10,633.3451252666457,None,631.3178994001355,631.639169299975,632.3153989999555,632.6415254999883,633.2976133001503,633.6187724000774,right,1,2.792381400009617,631.3484023001511,None,633.8508997999597,None,tyrfqt,001,0,fr,2022-04-22_11h04.55.897,3-AFC_adaptive_staircase_mess,2022.1.1,None,
,,,,,5,0,5,0,10,0,10,0,,,,,,,,,,,,,,,,up,6000,-20,1.1586973249842387e-05,-1,2,-1,-10,636.6955255666437,None,635.6499203001149,635.9880514000542,636.6453533000313,636.9883661000058,637.6465128001291,637.9802181001287,left,0,3.001430899836123,635.7148892001715,None,638.2211643999908,None,tyrfqt,001,0,fr,2022-04-22_11h04.55.897,3-AFC_adaptive_staircase_mess,2022.1.1,None,
,,,,,5,0,5,0,11,0,11,0,,,,,,,,,,,,,,,,left,6000,-15,2.0604875954866497e-05,1,3,1,2.5,640.265545466744,None,640.2153831999749,640.5577680999413,641.2189792001154,641.5513548001181,642.2195603,642.5562072000466,right,0,2.9620466998312622,640.2830245001242,None,642.7866132000927,None,tyrfqt,001,0,fr,2022-04-22_11h04.55.897,3-AFC_adaptive_staircase_mess,2022.1.1,None,
,,,,,5,0,5,0,12,0,12,0,,,,,,,,,,,,,,,,left,6000,-12.5,2.7477043692881217e-05,1,3,1,2.5,644.8050810667376,None,644.754880100023,645.0687649000902,645.7567759000231,646.0913188999984,None,None,left,1,1.8311428998131305,644.8220115001313,None,None,None,tyrfqt,001,0,fr,2022-04-22_11h04.55.897,3-AFC_adaptive_staircase_mess,2022.1.1,None,
,,,,,5,0,5,0,13,0,13,0,,,,,,,,,,,,,,,,left,6000,-17.5,1.5451477162567947e-05,-1,4,-1,-5.0,648.2091313666353,None,648.1590951001272,648.4922305000946,649.1599314000923,649.4930670999456,650.1612589000724,650.4963939001318,left,1,2.651255999924615,648.2263070000336,None,650.734667000128,None,tyrfqt,001,0,fr,2022-04-22_11h04.55.897,3-AFC_adaptive_staircase_mess,2022.1.1,None,
,,,,,5,0,5,0,14,0,14,0,,,,,,,,,,,,,,,,right,6000,-22.5,8.689004143746873e-06,-1,4,-1,-5.0,654.4478613667345,None,652.4125369000249,652.7272195999976,653.4145931999665,653.7483614999801,654.3990713001695,654.7279684001114,left,0,2.8508582999929786,652.4419730999507,None,654.9650193001144,None,tyrfqt,001,0,fr,2022-04-22_11h04.55.897,3-AFC_adaptive_staircase_mess,2022.1.1,None,
,,,,,5,0,5,0,15,0,15,0,,,,,,,,,,,,,,,,left,6000,-20.0,1.1586973249842387e-05,1,5,1,2.5,656.856029866791,None,656.8097739000805,657.1410099000204,None,None,None,None,left,1,0.3932041998486966,656.8678159001283,None,None,None,tyrfqt,001,0,fr,2022-04-22_11h04.55.897,3-AFC_adaptive_staircase_mess,2022.1.1,None,
,,,,,5,0,5,0,16,0,16,0,,,,,,,,,,,,,,,,left,6000,-25.0,6.5158338922614935e-06,-1,6,-1,-5.0,658.8463317666358,659.0805304001551,658.799168900121,659.1407488000114,659.799783000024,660.1308719001245,660.8026827001013,661.1390953001101,left,1,3.4910276997834444,658.8572746999562,None,661.3700981000438,None,tyrfqt,001,0,fr,2022-04-22_11h04.55.897,3-AFC_adaptive_staircase_mess,2022.1.1,None,
,,,,,5,0,5,0,17,0,17,0,,,,,,,,,,,,,,,,up,6000,-30.0,3.6641226656945185e-06,-1,6,-1,-5.0,664.9061125666524,None,663.8707473999821,664.2010310001206,664.8604016001336,665.1767745001707,665.87352750008,666.206364300102,left,0,2.323317299829796,663.9292785001453,None,None,None,tyrfqt,001,0,fr,2022-04-22_11h04.55.897,3-AFC_adaptive_staircase_mess,2022.1.1,None,
,,,,,5,0,5,0,18,0,18,0,,,,,,,,,,,,,,,,up,6000,-27.5,4.886186104779051e-06,1,7,1,2.5,668.8248780666074,None,667.7744845999405,668.1045192000456,668.7763666999526,669.1107604000717,669.7872310001403,670.1158543000929,left,0,2.7184780999086797,667.8376877000555,None,670.3228939000983,None,tyrfqt,001,0,fr,2022-04-22_11h04.55.897,3-AFC_adaptive_staircase_mess,2022.1.1,None,
,,,,,5,0,5,0,19,0,19,0,,,,,,,,,,,,,,,,left,6000,-25.0,6.5158338922614935e-06,1,7,1,2.5,672.1364779666221,672.3594194999896,672.0891541000456,672.4218836000655,673.0868170000613,673.4223933999892,674.0868396000005,674.4249538001604,up,0,2.486226099776104,672.150195900118,None,674.6274359000381,None,tyrfqt,001,0,fr,2022-04-22_11h04.55.897,3-AFC_adaptive_staircase_mess,2022.1.1,None,
,,,,,5,0,5,0,20,0,20,0,,,,,,,,,,,,,,,,up,6000,-22.5,8.689004143746873e-06,1,7,1,2.5,677.2085382666594,None,676.1622574999928,676.4913794000167,677.1579051001463,677.485806300072,678.1553385001607,678.4924006999936,left,0,2.983891600044444,676.2283238000236,None,678.7254536000546,None,tyrfqt,001,0,fr,2022-04-22_11h04.55.897,3-AFC_adaptive_staircase_mess,2022.1.1,None,
,,,,,5,0,5,0,21,0,21,0,,,,,,,,,,,,,,,,left,6000,-20.0,1.1586973249842387e-05,1,7,1,2.5,680.7719569667863,None,680.7218882001471,681.0642183001619,681.7228082001675,682.0603161000181,682.715295500122,683.0614889001008,up,0,2.951147199841216,680.7899152999744,None,683.2943265000358,None,tyrfqt,001,0,fr,2022-04-22_11h04.55.897,3-AFC_adaptive_staircase_mess,2022.1.1,None,
,,,,,5,0,5,0,22,0,22,0,,,,,,,,,,,,,,,,left,6000,-17.5,1.5451477162567947e-05,1,7,1,2.5,685.2973727668325,None,685.2513423999771,685.5973301001359,686.2619576000143,686.5981213001069,687.2659766001161,687.6004413000774,right,0,2.814940399955958,685.3106410000473,None,687.8319753999822,None,tyrfqt,001,0,fr,2022-04-22_11h04.55.897,3-AFC_adaptive_staircase_mess,2022.1.1,None,
,,,,,5,0,5,0,23,0,23,0,,,,,,,,,,,,,,,,left,6000,-15.0,2.0604875954866497e-05,1,7,1,2.5,689.6596643666892,None,689.6429977000225,689.972008400131,690.6313221999444,690.9700641001109,691.6324408000801,691.9664439000189,left,1,2.771957099903375,689.6725759999827,None,692.1893562001642,None,tyrfqt,001,0,fr,2022-04-22_11h04.55.897,3-AFC_adaptive_staircase_mess,2022.1.1,None,
,,,,,5,0,5,0,24,0,24,0,,,,,,,,,,,,,,,,up,6000,-20.0,1.1586973249842387e-05,-1,8,-1,-5.0,694.9989092667277,None,693.9723684999626,694.3066551000811,694.982242600061,695.3078906000592,695.9609308000654,696.3081128001213,left,0,3.0616540999617428,694.0396833999548,None,696.509560600156,None,tyrfqt,001,0,fr,2022-04-22_11h04.55.897,3-AFC_adaptive_staircase_mess,2022.1.1,None,
,,,,,6,0,6,0,0,0,0,0,,,,,,,,,,,,,[],[],5,right,8000,50,0.05740768107484415,0,0,-1,5,700.6615445668033,None,698.6102307001129,698.9440049999394,699.614356599981,699.9465523001272,700.6114546000026,700.9506683000363,right,1,2.5043835998512805,698.6767374000046,None,701.180596700171,None,tyrfqt,001,0,fr,2022-04-22_11h04.55.897,3-AFC_adaptive_staircase_mess,2022.1.1,None,
,,,,,6,0,6,0,1,0,1,0,,,,,,,,,,,,,,,,up,8000,40,0.018153902738505076,-1,0,-1,-10,703.7365563666137,None,702.7132499001455,703.0470847000834,703.7198896999471,704.0509021000471,None,None,up,1,1.3297790000215173,702.7787288001273,None,None,None,tyrfqt,001,0,fr,2022-04-22_11h04.55.897,3-AFC_adaptive_staircase_mess,2022.1.1,None,
,,,,,6,0,6,0,2,0,2,0,,,,,,,,,,,,,,,,right,8000,30,0.005740768107484416,-1,0,-1,-10,707.6718686668357,None,705.6142134999391,705.9494312000461,706.6206171000376,706.9548613999505,707.6191402000841,707.9594713000115,right,1,2.5395682000089437,705.6818550999742,None,708.1886502001435,None,tyrfqt,001,0,fr,2022-04-22_11h04.55.897,3-AFC_adaptive_staircase_mess,2022.1.1,None,
,,,,,6,0,6,0,3,0,3,0,,,,,,,,,,,,,,,,right,8000,20,0.0018153902738505074,-1,0,-1,-10,711.7717122666693,None,709.7205303001683,710.0560943000019,710.7543822999578,711.0908209001645,711.7229365000967,712.0619524000213,right,1,2.4680941998958588,709.7853896999732,None,712.2763944666988,None,tyrfqt,001,0,fr,2022-04-22_11h04.55.897,3-AFC_adaptive_staircase_mess,2022.1.1,None,
,,,,,6,0,6,0,4,0,4,0,,,,,,,,,,,,,,,,up,8000,10,0.0005740768107484417,-1,0,-1,-10,714.8085923668152,None,713.7733626000118,714.0941025000066,714.7574072999414,715.0995923001319,None,None,up,1,1.713796499883756,713.8018366999459,None,None,None,tyrfqt,001,0,fr,2022-04-22_11h04.55.897,3-AFC_adaptive_staircase_mess,2022.1.1,None,
,,,,,6,0,6,0,5,0,5,0,,,,,,,,,,,,,,,,right,8000,0,0.0001815390273850507,-1,0,-1,-10,719.1015675666897,None,717.0573009001091,717.39763030014,718.0590872999746,718.3935046000406,719.0528802999761,719.4001967001241,right,1,2.4901243997737765,717.1236342000775,None,719.6008316001389,None,tyrfqt,001,0,fr,2022-04-22_11h04.55.897,3-AFC_adaptive_staircase_mess,2022.1.1,None,
,,,,,6,0,6,0,6,0,6,0,,,,,,,,,,,,,,,,left,8000,-10,5.740768107484415e-05,-1,0,-1,-10,721.1828016667316,721.4095203999896,721.1327281999402,721.4719283999875,722.1348813001532,722.472651500022,723.1314881001599,723.4661556000356,left,1,2.8140060999430716,721.1993348000105,None,723.6964827999473,None,tyrfqt,001,0,fr,2022-04-22_11h04.55.897,3-AFC_adaptive_staircase_mess,2022.1.1,None,
,,,,,6,0,6,0,7,0,7,0,,,,,,,,,,,,,,,,right,8000,-20,1.815390273850507e-05,-1,0,-1,-10,727.5559628666999,None,725.5380047999788,725.8711139000952,726.5308268000372,726.8775959000923,727.5392962000333,None,up,0,2.234294000081718,725.6029837999959,None,None,None,tyrfqt,001,0,fr,2022-04-22_11h04.55.897,3-AFC_adaptive_staircase_mess,2022.1.1,None,
,,,,,6,0,6,0,8,0,8,0,,,,,,,,,,,,,,,,up,8000,-15,3.228271145173278e-05,1,1,1,5,730.35882446665,None,729.3384994999506,729.6738392000552,730.3421577999834,730.6763192000799,731.3471882001031,731.6781409000978,left,0,2.7353260999079794,729.4053507000208,None,731.878297700081,None,tyrfqt,001,0,fr,2022-04-22_11h04.55.897,3-AFC_adaptive_staircase_mess,2022.1.1,None,
,,,,,6,0,6,0,9,0,9,0,,,,,,,,,,,,,,,,up,8000,-10,5.740768107484415e-05,1,1,1,5,734.693408566822,None,733.6431392000522,733.9765884999651,734.6433421999682,734.9854642001446,None,None,up,1,1.822858699830249,733.7099375999533,None,None,None,tyrfqt,001,0,fr,2022-04-22_11h04.55.897,3-AFC_adaptive_staircase_mess,2022.1.1,None,
,,,,,6,0,6,0,10,0,10,0,,,,,,,,,,,,,,,,right,8000,-20,1.815390273850507e-05,-1,2,-1,-10,739.0999769666853,None,737.053625300061,737.3854666000698,738.0562223000452,738.3876072000712,739.0498478000518,739.396702399943,up,0,2.5606255000457168,737.0834770000074,None,739.590426400071,None,tyrfqt,001,0,fr,2022-04-22_11h04.55.897,3-AFC_adaptive_staircase_mess,2022.1.1,None,
,,,,,6,0,6,0,11,0,11,0,,,,,,,,,,,,,,,,left,8000,-15,3.228271145173278e-05,1,3,1,2.5,741.2000335667437,None,741.1500647000503,741.4918273000512,742.1652707001194,742.4892568001524,743.1599967000075,743.4940317000728,left,1,2.779910899931565,741.2175460001454,None,743.7268155999482,None,tyrfqt,001,0,fr,2022-04-22_11h04.55.897,3-AFC_adaptive_staircase_mess,2022.1.1,None,
,,,,,6,0,6,0,12,0,12,0,,,,,,,,,,,,,,,,left,8000,-20.0,1.815390273850507e-05,-1,4,-1,-5.0,745.5690697667344,None,745.5190963000059,745.8628440001048,746.5284903000575,746.8583271000534,747.5251409001648,747.8596069000196,left,1,3.4670039997436106,745.585771500133,None,748.09197830013,None,tyrfqt,001,0,fr,2022-04-22_11h04.55.897,3-AFC_adaptive_staircase_mess,2022.1.1,None,
,,,,,6,0,6,0,13,0,13,0,,,,,,,,,,,,,,,,right,8000,-25.0,1.0208689723347649e-05,-1,4,-1,-5.0,752.5877374667364,None,750.5672023000661,750.9009893999901,751.5606819000095,751.8960235000122,752.5710708000697,752.9054332000669,up,0,3.220361900050193,750.6006875000894,None,753.1364609999582,None,tyrfqt,001,0,fr,2022-04-22_11h04.55.897,3-AFC_adaptive_staircase_mess,2022.1.1,None,
,,,,,6,0,6,0,14,0,14,0,,,,,,,,,,,,,,,,up,8000,-22.5,1.3613506540389564e-05,1,5,1,2.5,756.3530617666586,None,755.3461100000422,755.6770413001068,756.3363950999919,756.6666443999857,757.3366616000421,757.6685322001576,left,0,2.7132635000161827,755.3788243001327,None,757.9000699999742,None,tyrfqt,001,0,fr,2022-04-22_11h04.55.897,3-AFC_adaptive_staircase_mess,2022.1.1,None,
,,,,,6,0,6,0,15,0,15,0,,,,,,,,,,,,,,,,right,8000,-20.0,1.815390273850507e-05,1,5,1,2.5,761.6569405666708,None,759.6261903000996,759.9674820001237,760.6095937001519,760.9349100000691,761.6084406999871,761.9459804999642,right,1,2.7405870999209583,759.6567612001672,None,762.1751864999533,None,tyrfqt,001,0,fr,2022-04-22_11h04.55.897,3-AFC_adaptive_staircase_mess,2022.1.1,None,
,,,,,6,0,6,0,16,0,16,0,,,,,,,,,,,,,,,,up,8000,-25.0,1.0208689723347649e-05,-1,6,-1,-5.0,764.9520484668358,None,763.9358642001171,764.2689338000491,764.9353818001691,765.2526597001124,765.9417960999999,766.273508900078,left,0,2.701811800012365,763.966844300041,None,766.4680773001164,None,tyrfqt,001,0,fr,2022-04-22_11h04.55.897,3-AFC_adaptive_staircase_mess,2022.1.1,None,
,,,,,6,0,6,0,17,0,17,0,,,,,,,,,,,,,,,,left,8000,-22.5,1.3613506540389564e-05,1,7,1,2.5,768.223956266713,None,768.1769085000269,768.5153061000165,769.1875030000228,769.5040589999408,770.1669034000952,770.498071399983,left,1,2.9737675997894257,768.2385083001573,None,770.7441162001342,None,tyrfqt,001,0,fr,2022-04-22_11h04.55.897,3-AFC_adaptive_staircase_mess,2022.1.1,None,
,,,,,6,0,6,0,18,0,18,0,,,,,,,,,,,,,,,,right,8000,-27.5,7.655437308410152e-06,-1,8,-1,-5.0,774.7731087667091,None,772.7466784000862,773.0880233000498,773.7232520000543,774.0618722001091,774.7252342000138,775.0660423999652,right,1,2.738767799688503,772.7777410999406,None,775.27954769996,None,tyrfqt,001,0,fr,2022-04-22_11h04.55.897,3-AFC_adaptive_staircase_mess,2022.1.1,None,
,,,,,7,0,7,0,0,0,0,0,,,,,,,,,,,,,[],[],5,up,750,50,0.012851978913844325,0,0,-1,5,778.0731512667301,None,777.0482706001494,777.381257600151,778.0564846000634,778.3986172000878,None,None,up,1,1.5567100998014212,777.0797286001034,None,None,None,tyrfqt,001,0,fr,2022-04-22_11h04.55.897,3-AFC_adaptive_staircase_mess,2022.1.1,None,
,,,,,7,0,7,0,1,0,1,0,,,,,,,,,,,,,,,,right,750,40,0.004064152580820497,-1,0,-1,-10,782.2037524667724,None,780.1626093001105,780.496667200001,781.1940729001071,781.5282062999904,782.1870858001057,782.5296068999451,right,1,2.2994544999673963,780.225400700001,None,None,None,tyrfqt,001,0,fr,2022-04-22_11h04.55.897,3-AFC_adaptive_staircase_mess,2022.1.1,None,
,,,,,7,0,7,0,2,0,2,0,,,,,,,,,,,,,,,,up,750,30,0.0012851978913844323,-1,0,-1,-10,785.0783944666075,None,784.0324459001422,784.3696302999742,785.0316248999443,785.3682034001686,None,None,up,1,1.517108699772507,784.0957470000722,None,None,None,tyrfqt,001,0,fr,2022-04-22_11h04.55.897,3-AFC_adaptive_staircase_mess,2022.1.1,None,
,,,,,7,0,7,0,3,0,3,0,,,,,,,,,,,,,,,,left,750,20,0.00040641525808204974,-1,0,-1,-10,787.1729603666502,None,787.1236247001216,787.4375448001083,None,None,None,None,left,1,0.49223889992572367,787.1846408999991,None,None,None,tyrfqt,001,0,fr,2022-04-22_11h04.55.897,3-AFC_adaptive_staircase_mess,2022.1.1,None,
,,,,,7,0,7,0,4,0,4,0,,,,,,,,,,,,,,,,left,750,10,0.00012851978913844324,-1,0,-1,-10,789.2178957667822,None,789.2012291001156,789.5382556000259,790.2068741000257,790.5377372000366,791.1972469999455,791.5334249001462,left,1,2.750420999713242,789.230820100056,None,791.74157069996,None,tyrfqt,001,0,fr,2022-04-22_11h04.55.897,3-AFC_adaptive_staircase_mess,2022.1.1,None,
,,,,,7,0,7,0,5,0,5,0,,,,,,,,,,,,,,,,right,750,0,4.064152580820497e-05,-1,0,-1,-10,795.5388161666381,None,793.4850860999431,793.8159694999922,794.5002356001642,794.8312832000665,795.4924983000383,795.8134715999477,up,0,3.0295280998107046,793.5431095999666,None,796.0537521000952,None,tyrfqt,001,0,fr,2022-04-22_11h04.55.897,3-AFC_adaptive_staircase_mess,2022.1.1,None,
,,,,,7,0,7,0,6,0,6,0,,,,,,,,,,,,,,,,up,750,5,7.22719885372964e-05,1,1,1,5,799.1136744667931,None,798.102150300052,798.4376606000587,799.0970078001264,799.4314059000462,None,None,up,1,1.7205034997314215,798.131843399955,None,None,None,tyrfqt,001,0,fr,2022-04-22_11h04.55.897,3-AFC_adaptive_staircase_mess,2022.1.1,None,
,,,,,7,0,7,0,7,0,7,0,,,,,,,,,,,,,,,,left,750,-5,2.285440948074376e-05,-1,2,-1,-10,801.4109033668103,None,801.3942367001437,801.7279340000823,802.3918040001299,802.7224091000389,803.3873862000182,803.7193008000031,left,1,2.9730563999619335,801.4241957000922,None,803.9308897000737,None,tyrfqt,001,0,fr,2022-04-22_11h04.55.897,3-AFC_adaptive_staircase_mess,2022.1.1,None,
,,,,,7,0,7,0,8,0,8,0,,,,,,,,,,,,,,,,up,750,-15,7.22719885372964e-06,-1,2,-1,-10,806.9407640668253,None,805.9310235001612,806.2700076999608,806.9240974001586,807.2643475001678,807.9204601000529,808.2535797001328,left,0,2.917210399871692,805.9598698001355,None,808.4647821001709,None,tyrfqt,001,0,fr,2022-04-22_11h04.55.897,3-AFC_adaptive_staircase_mess,2022.1.1,None,
,,,,,7,0,7,0,9,0,9,0,,,,,,,,,,,,,,,,right,750,-10,1.2851978913844322e-05,1,3,1,2.5,812.4328484666223,None,810.4082639999688,810.7468252000399,811.3936465000734,811.7153837000951,812.4161817999557,812.7333931999747,left,0,2.93280589976348,810.4397334000096,None,812.9463107001502,None,tyrfqt,001,0,fr,2022-04-22_11h04.55.897,3-AFC_adaptive_staircase_mess,2022.1.1,None,
,,,,,7,0,7,0,10,0,10,0,,,,,,,,,,,,,,,,right,750,-7.5,1.7138389327322525e-05,1,3,1,2.5,816.9318342668159,None,814.9126957000699,815.228490000125,815.8877022000961,816.2244223000016,816.9151676001493,817.2395489001647,right,1,2.893353199819103,814.9440218999516,None,817.4570390000008,None,tyrfqt,001,0,fr,2022-04-22_11h04.55.897,3-AFC_adaptive_staircase_mess,2022.1.1,None,
,,,,,7,0,7,0,11,0,11,0,,,,,,,,,,,,,,,,left,750,-12.5,9.637624565954684e-06,-1,4,-1,-5.0,819.3830032668232,None,819.3663366001565,819.6895346001256,820.3810590000357,820.7234018000308,821.3592725000344,821.693478600122,up,0,2.9522497998550534,819.3964136000723,None,821.9263725001365,None,tyrfqt,001,0,fr,2022-04-22_11h04.55.897,3-AFC_adaptive_staircase_mess,2022.1.1,None,
,,,,,7,0,7,0,12,0,12,0,,,,,,,,,,,,,,,,left,750,-10.0,1.2851978913844322e-05,1,5,1,2.5,823.9105202668036,None,823.8603905001655,824.2047211001627,824.8618088001385,825.1964849000797,825.8646335001104,826.1949726000894,left,1,2.91921029984951,823.9272223999724,None,826.4065825000871,None,tyrfqt,001,0,fr,2022-04-22_11h04.55.897,3-AFC_adaptive_staircase_mess,2022.1.1,None,
,,,,,7,0,7,0,13,0,13,0,,,,,,,,,,,,,,,,left,750,-15.0,7.22719885372964e-06,-1,6,-1,-5.0,828.4184778666279,None,828.3656413001008,828.700986900134,829.3591688000597,829.7006969000213,830.36730240006,830.7030412000604,left,1,3.113788199843839,828.4189621000551,None,830.9373202000279,None,tyrfqt,001,0,fr,2022-04-22_11h04.55.897,3-AFC_adaptive_staircase_mess,2022.1.1,None,
,,,,,7,0,7,0,14,0,14,0,,,,,,,,,,,,,,,,right,750,-20.0,4.0641525808204974e-06,-1,6,-1,-5.0,835.0879639667148,None,833.0690248000901,833.4053209000267,834.0691122000571,834.3902543000877,835.0712973000482,835.4131285999902,left,0,2.9241044998634607,833.1363707999699,None,835.6245287000202,None,tyrfqt,001,0,fr,2022-04-22_11h04.55.897,3-AFC_adaptive_staircase_mess,2022.1.1,None,
,,,,,7,0,7,0,15,0,15,0,,,,,,,,,,,,,,,,up,750,-17.5,5.419634570106019e-06,1,7,1,2.5,838.5913886668316,None,837.5656372001395,837.9090530001558,838.5747220001649,838.9164527000394,839.5756417000666,839.912233900046,up,1,3.811231799889356,837.6261452999897,None,840.1199650000781,None,tyrfqt,001,0,fr,2022-04-22_11h04.55.897,3-AFC_adaptive_staircase_mess,2022.1.1,None,
,,,,,7,0,7,0,16,0,16,0,,,,,,,,,,,,,,,,right,750,-22.5,3.0476844862008467e-06,-1,8,-1,-5.0,844.9966657667576,None,842.9576197001152,843.282810300123,843.9469888000749,844.2841384001076,844.9470343000721,845.2619427000172,left,0,3.0090799999888986,842.987982599996,None,845.5081929001026,None,tyrfqt,001,0,fr,2022-04-22_11h04.55.897,3-AFC_adaptive_staircase_mess,2022.1.1,None,
,,,,,8,0,8,0,0,0,0,0,,,,,,,,,,,,,[],[],5,up,500,50,0.02259279721874612,0,0,-1,5,848.5681868666472,None,847.5087419999763,847.8532893999945,848.522370000137,848.863931800006,None,None,up,1,1.6154917997773737,847.5651189000346,None,None,None,tyrfqt,001,0,fr,2022-04-22_11h04.55.897,3-AFC_adaptive_staircase_mess,2022.1.1,None,
,,,,,8,0,8,0,1,0,1,0,,,,,,,,,,,,,,,,right,500,40,0.007144469792555516,-1,0,-1,-10,852.7427161667185,852.9729581000283,850.6983203000855,851.0268614001106,851.6920489999466,852.0233616000041,852.697324299952,853.0342618001159,right,1,2.340554499765858,850.7286680999678,None,None,None,tyrfqt,001,0,fr,2022-04-22_11h04.55.897,3-AFC_adaptive_staircase_mess,2022.1.1,None,
,,,,,8,0,8,0,2,0,2,0,,,,,,,,,,,,,,,,right,500,30,0.002259279721874612,-1,0,-1,-10,856.6292247668064,None,854.5833493000828,854.9272263001185,855.6006905999966,855.928548200056,856.5834266000893,856.9309728001244,right,1,2.3134783999994397,854.643846699968,None,None,None,tyrfqt,001,0,fr,2022-04-22_11h04.55.897,3-AFC_adaptive_staircase_mess,2022.1.1,None,
,,,,,8,0,8,0,3,0,3,0,,,,,,,,,,,,,,,,up,500,20,0.0007144469792555515,-1,0,-1,-10,859.4830929667844,859.7128548000474,858.4633377001155,858.7985660000704,859.4664263001177,859.8030722001567,None,None,up,1,1.4506894999649376,858.5300708001014,None,None,None,tyrfqt,001,0,fr,2022-04-22_11h04.55.897,3-AFC_adaptive_staircase_mess,2022.1.1,None,
,,,,,8,0,8,0,4,0,4,0,,,,,,,,,,,,,,,,left,500,10,0.0002259279721874612,-1,0,-1,-10,861.5346632667972,None,861.4854625000153,861.8012580999639,None,None,None,None,left,1,0.4654144998639822,861.546570800012,None,None,None,tyrfqt,001,0,fr,2022-04-22_11h04.55.897,3-AFC_adaptive_staircase_mess,2022.1.1,None,
,,,,,8,0,8,0,5,0,5,0,,,,,,,,,,,,,,,,left,500,0,7.144469792555515e-05,-1,0,-1,-10,863.5704635666373,None,863.5250661999453,863.8695241000969,864.5272687000688,864.8699175000656,865.5423314000946,865.871691999957,left,1,3.08103089989163,863.5873551999684,None,866.106581900036,None,tyrfqt,001,0,fr,2022-04-22_11h04.55.897,3-AFC_adaptive_staircase_mess,2022.1.1,None,
,,,,,8,0,8,0,6,0,6,0,,,,,,,,,,,,,,,,left,500,-10,2.259279721874613e-05,-1,0,-1,-10,868.2101746667797,None,868.1636749000754,868.5089790001512,869.1719148000702,869.5124854999594,870.1774442000315,870.5138463000767,left,1,2.9924197997897863,868.2202141000889,None,870.7438880000263,None,tyrfqt,001,0,fr,2022-04-22_11h04.55.897,3-AFC_adaptive_staircase_mess,2022.1.1,None,
,,,,,8,0,8,0,7,0,7,0,,,,,,,,,,,,,,,,left,500,-20,7.1444697925555186e-06,-1,0,-1,-10,872.7593102667636,None,872.713361900067,873.0498075999785,873.699951000046,874.0471808000002,874.714477499947,875.0494691999629,left,1,2.9476941998582333,872.7765476000495,None,875.2537652000319,None,tyrfqt,001,0,fr,2022-04-22_11h04.55.897,3-AFC_adaptive_staircase_mess,2022.1.1,None,
,,,,,8,0,8,0,8,0,8,0,,,,,,,,,,,,,,,,right,500,-30,2.259279721874611e-06,-1,0,-1,-10,879.2787370666085,None,877.2408881001174,877.5840674999636,878.249134800164,878.5822402001359,879.2620703999419,879.5856439000927,left,0,2.715309799881652,877.2973377001472,None,879.8209963000845,None,tyrfqt,001,0,fr,2022-04-22_11h04.55.897,3-AFC_adaptive_staircase_mess,2022.1.1,None,
,,,,,8,0,8,0,9,0,9,0,,,,,,,,,,,,,,,,right,500,-25,4.017630610928088e-06,1,1,1,5,883.5386994667972,883.7710625999607,881.5167570000049,881.8608387999702,882.521299000131,882.8569529999513,883.5220328001305,883.8611278000753,left,0,2.8809565000701696,881.5476991001051,None,884.0533342999406,None,tyrfqt,001,0,fr,2022-04-22_11h04.55.897,3-AFC_adaptive_staircase_mess,2022.1.1,None,
,,,,,8,0,8,0,10,0,10,0,,,,,,,,,,,,,,,,left,500,-20,7.1444697925555186e-06,1,1,1,5,886.0079441667224,None,885.958000499988,886.2708104001358,886.9672455999535,887.293556000106,887.9642139000352,888.2942896001041,left,1,2.868523399811238,886.0249926999677,None,888.5240792999975,None,tyrfqt,001,0,fr,2022-04-22_11h04.55.897,3-AFC_adaptive_staircase_mess,2022.1.1,None,
,,,,,8,0,8,0,11,0,11,0,,,,,,,,,,,,,,,,right,500,-30,2.259279721874611e-06,-1,2,-1,-10,892.4347417667198,None,890.4101915000938,890.7383722001687,891.4032993000001,891.7321373000741,892.3897404000163,892.7339080001693,left,0,2.6299293998163193,890.4382160999812,None,892.9664199999534,None,tyrfqt,001,0,fr,2022-04-22_11h04.55.897,3-AFC_adaptive_staircase_mess,2022.1.1,None,
,,,,,8,0,8,0,12,0,12,0,,,,,,,,,,,,,,,,right,500,-25,4.017630610928088e-06,1,3,1,2.5,896.6077545667688,None,894.5648727000225,894.9021505001001,895.5580742000602,895.9043751000427,896.5609993999824,896.9020110000856,left,0,2.955325099872425,894.6243704000954,None,897.1124811000191,None,tyrfqt,001,0,fr,2022-04-22_11h04.55.897,3-AFC_adaptive_staircase_mess,2022.1.1,None,
,,,,,8,0,8,0,13,0,13,0,,,,,,,,,,,,,,,,right,500,-22.5,5.357596526188035e-06,1,3,1,2.5,901.1366017666335,None,899.1047400999814,899.4400752000511,900.1074594999664,900.4415055001155,901.0887766999658,901.4092586999759,left,0,2.6496162998955697,899.1721423999406,None,901.6773175999988,None,tyrfqt,001,0,fr,2022-04-22_11h04.55.897,3-AFC_adaptive_staircase_mess,2022.1.1,None,
,,,,,8,0,8,0,14,0,14,0,,,,,,,,,,,,,,,,up,500,-20.0,7.1444697925555186e-06,1,3,1,2.5,904.3858278666778,None,903.3724126999732,903.7120270000305,904.3691612000111,904.6834186001215,905.3449361999519,905.6806503999978,right,0,2.4195987000130117,903.4007900999859,None,None,None,tyrfqt,001,0,fr,2022-04-22_11h04.55.897,3-AFC_adaptive_staircase_mess,2022.1.1,None,
,,,,,8,0,8,0,15,0,15,0,,,,,,,,,,,,,,,,right,500,-17.5,9.52730358981624e-06,1,3,1,2.5,909.3981764666426,None,907.3494990000036,907.6819275999442,908.3534160000272,908.6823374000378,909.3483929000795,909.6848430000246,right,1,2.583535899873823,907.4122951000463,None,909.8967830999754,None,tyrfqt,001,0,fr,2022-04-22_11h04.55.897,3-AFC_adaptive_staircase_mess,2022.1.1,None,
,,,,,8,0,8,0,16,0,16,0,,,,,,,,,,,,,,,,left,500,-22.5,5.357596526188035e-06,-1,4,-1,-5.0,911.5716612667932,None,911.5205810000189,911.8627539000008,912.523908500094,912.855111300014,913.5256231999956,913.8538081001025,left,1,3.4149689998012036,911.5893489001319,None,914.0934584001079,None,tyrfqt,001,0,fr,2022-04-22_11h04.55.897,3-AFC_adaptive_staircase_mess,2022.1.1,None,
,,,,,8,0,8,0,17,0,17,0,,,,,,,,,,,,,,,,up,500,-27.5,3.0127979303717874e-06,-1,4,-1,-5.0,917.5591035667496,None,916.5229945001192,916.8584921001457,917.5129510001279,917.8604117999785,918.53137099999,918.8612659999635,left,0,2.4618434999138117,916.5909565000329,None,919.0770482668343,None,tyrfqt,001,0,fr,2022-04-22_11h04.55.897,3-AFC_adaptive_staircase_mess,2022.1.1,None,
,,,,,8,0,8,0,18,0,18,0,,,,,,,,,,,,,,,,up,500,-25.0,4.017630610928088e-06,1,5,1,2.5,921.6178919666602,921.844346600119,920.5788215999492,920.8970506000333,921.5666366999503,921.904905000003,922.5629048000555,922.8988704001531,right,0,2.3765991998370737,920.6121420001145,None,None,None,tyrfqt,001,0,fr,2022-04-22_11h04.55.897,3-AFC_adaptive_staircase_mess,2022.1.1,None,
,,,,,8,0,8,0,19,0,19,0,,,,,,,,,,,,,,,,right,500,-22.5,5.357596526188035e-06,1,5,1,2.5,926.551589666695,None,924.4985436000861,924.8345586999785,925.4869059999473,925.8026544000022,926.5008890000172,926.8431955000851,left,0,2.2962625997606665,924.5648568000179,None,None,None,tyrfqt,001,0,fr,2022-04-22_11h04.55.897,3-AFC_adaptive_staircase_mess,2022.1.1,None,
,,,,,8,0,8,0,20,0,20,0,,,,,,,,,,,,,,,,up,500,-20.0,7.1444697925555186e-06,1,5,1,2.5,929.4129769667672,None,928.3698659001384,928.7049360000528,929.3675776999444,929.7044218000956,930.3727891000453,930.708587900037,left,0,2.3134705999400467,928.4364529000595,None,None,None,tyrfqt,001,0,fr,2022-04-22_11h04.55.897,3-AFC_adaptive_staircase_mess,2022.1.1,None,
,,,,,8,0,8,0,21,0,21,0,,,,,,,,,,,,,,,,right,500,-17.5,9.52730358981624e-06,1,5,1,2.5,934.3285518666419,934.5560437999666,932.2743310001679,932.6122099000495,933.2779183001257,933.6095332000405,934.2782873001415,934.618249699939,right,1,2.7110148000065237,932.3416579000186,None,934.8353320001625,None,tyrfqt,001,0,fr,2022-04-22_11h04.55.897,3-AFC_adaptive_staircase_mess,2022.1.1,None,
,,,,,8,0,8,0,22,0,22,0,,,,,,,,,,,,,,,,up,500,-22.5,5.357596526188035e-06,-1,6,-1,-5.0,937.5971327666814,None,936.5433146001305,936.8800135001075,937.5471449999604,937.888865099987,938.5474344999529,938.8820517000277,left,0,2.8771287999115884,936.6081573001575,None,939.1166889001615,None,tyrfqt,001,0,fr,2022-04-22_11h04.55.897,3-AFC_adaptive_staircase_mess,2022.1.1,None,
,,,,,8,0,8,0,23,0,23,0,,,,,,,,,,,,,,,,right,500,-20.0,7.1444697925555186e-06,1,7,1,2.5,943.0705640668205,None,941.0160322000738,941.3518320999574,942.0173039000947,942.3508043000475,943.0188083001412,943.3603555001318,right,1,2.368543199962005,941.0841991000343,None,None,None,tyrfqt,001,0,fr,2022-04-22_11h04.55.897,3-AFC_adaptive_staircase_mess,2022.1.1,None,
,,,,,8,0,8,0,24,0,24,0,,,,,,,,,,,,,,,,up,500,-25.0,4.017630610928088e-06,-1,8,-1,-5.0,946.0397237667969,None,944.9869701000862,945.3235023999587,945.9893998000771,946.3273839999456,946.9900392000563,947.327780000167,left,0,2.713221099926159,945.0588235000614,None,947.5588752999902,None,tyrfqt,001,0,fr,2022-04-22_11h04.55.897,3-AFC_adaptive_staircase_mess,2022.1.1,None,
,,,,,9,0,9,0,0,0,0,0,,,,,,,,,,,,,[],[],5,up,250,50,0.05296268625886444,0,0,-1,5,950.3206313667508,None,949.2923394001555,949.6300451001152,950.3039647000842,950.6278359000571,951.2956415000372,None,up,1,1.9979490998666734,949.3587813000195,None,None,None,tyrfqt,001,0,fr,2022-04-22_11h04.55.897,3-AFC_adaptive_staircase_mess,2022.1.1,None,
,,,,,9,0,9,0,1,0,1,0,,,,,,,,,,,,,,,,left,250,40,0.016748271957891383,-1,0,-1,-10,952.9135005667961,None,952.8632436001208,953.2025560000911,953.8619566000998,None,None,None,left,1,0.9553807999473065,952.9300133001525,None,None,None,tyrfqt,001,0,fr,2022-04-22_11h04.55.897,3-AFC_adaptive_staircase_mess,2022.1.1,None,
,,,,,9,0,9,0,2,0,2,0,,,,,,,,,,,,,,,,left,250,30,0.005296268625886445,-1,0,-1,-10,955.4347370668004,None,955.386999099981,955.7349880000111,None,None,None,None,left,1,0.40256160008721054,955.4508830001578,None,None,None,tyrfqt,001,0,fr,2022-04-22_11h04.55.897,3-AFC_adaptive_staircase_mess,2022.1.1,None,
,,,,,9,0,9,0,3,0,3,0,,,,,,,,,,,,,,,,left,250,20,0.0016748271957891384,-1,0,-1,-10,957.3941026668219,None,957.3774360001553,957.704432199942,None,None,None,None,left,1,0.4113753999117762,957.4086665001232,None,None,None,tyrfqt,001,0,fr,2022-04-22_11h04.55.897,3-AFC_adaptive_staircase_mess,2022.1.1,None,
,,,,,9,0,9,0,4,0,4,0,,,,,,,,,,,,,,,,left,250,10,0.0005296268625886444,-1,0,-1,-10,959.3831364666732,None,959.3338919000234,959.6780843001325,None,None,None,None,left,1,0.37120379973202944,959.401714200154,None,None,None,tyrfqt,001,0,fr,2022-04-22_11h04.55.897,3-AFC_adaptive_staircase_mess,2022.1.1,None,
,,,,,9,0,9,0,5,0,5,0,,,,,,,,,,,,,,,,right,250,0,0.0001674827195789138,-1,0,-1,-10,963.3379580667863,None,961.2952193999663,961.6411814000458,962.3069544001482,962.638733100146,963.2911467000376,963.6086601000279,right,1,2.800538699841127,961.3563386001624,None,963.8748002001084,None,tyrfqt,001,0,fr,2022-04-22_11h04.55.897,3-AFC_adaptive_staircase_mess,2022.1.1,None,
,,,,,9,0,9,0,6,0,6,0,,,,,,,,,,,,,,,,left,250,-10,5.296268625886443e-05,-1,0,-1,-10,965.7231029666184,965.9542024000548,965.6726721001323,966.0157784000039,966.6769350001123,967.014601000119,967.679048600141,968.0140992000233,left,1,2.961746199754998,965.740253200056,None,968.2225179001689,None,tyrfqt,001,0,fr,2022-04-22_11h04.55.897,3-AFC_adaptive_staircase_mess,2022.1.1,None,
,,,,,9,0,9,0,7,0,7,0,,,,,,,,,,,,,,,,up,250,-20,1.674827195789138e-05,-1,0,-1,-10,971.2672986668224,None,970.2135709000286,970.5503446999937,971.2158797001466,971.5283933000173,972.200886900071,972.5173144999426,left,0,3.043235399760306,970.2812628000975,None,972.7865399001166,None,tyrfqt,001,0,fr,2022-04-22_11h04.55.897,3-AFC_adaptive_staircase_mess,2022.1.1,None,
,,,,,9,0,9,0,8,0,8,0,,,,,,,,,,,,,,,,up,250,-15,2.9783107176450517e-05,1,1,1,5,975.8779082666772,None,974.8428720000666,975.1895075000357,975.8612416000105,976.19026329997,976.8555446001701,977.1905287001282,up,1,2.6795936999842525,974.9007302999962,None,977.4229409000836,None,tyrfqt,001,0,fr,2022-04-22_11h04.55.897,3-AFC_adaptive_staircase_mess,2022.1.1,None,
,,,,,9,0,9,0,9,0,9,0,,,,,,,,,,,,,,,,right,250,-25,9.418245447449e-06,-1,2,-1,-10,981.1399509667574,None,979.0895593999885,979.4248359000776,980.0890830000862,980.4257211999502,981.0895979001652,981.4301348000299,up,0,2.488617799943313,979.1560077001341,None,981.6591773999389,None,tyrfqt,001,0,fr,2022-04-22_11h04.55.897,3-AFC_adaptive_staircase_mess,2022.1.1,None,
,,,,,9,0,9,0,10,0,10,0,,,,,,,,,,,,,,,,right,250,-20,1.674827195789138e-05,1,3,1,2.5,985.2135130668214,985.4394940000493,983.1576652000658,983.4947999999858,984.1603620001115,984.496407700004,985.1639066000935,985.5019287001342,up,0,2.419267599703744,983.2248511000071,None,None,None,tyrfqt,001,0,fr,2022-04-22_11h04.55.897,3-AFC_adaptive_staircase_mess,2022.1.1,None,
,,,,,9,0,9,0,11,0,11,0,,,,,,,,,,,,,,,,up,250,-17.5,2.2334179607548154e-05,1,3,1,2.5,988.2171466667826,None,987.1620392999612,987.4988502999768,988.1669372001197,988.5053908999544,989.1657021001447,989.5088927000761,left,0,2.9105806997977197,987.2298825001344,None,989.7351069001015,None,tyrfqt,001,0,fr,2022-04-22_11h04.55.897,3-AFC_adaptive_staircase_mess,2022.1.1,None,
,,,,,9,0,9,0,12,0,12,0,,,,,,,,,,,,,,,,right,250,-15.0,2.9783107176450517e-05,1,3,1,2.5,993.6902542666687,993.9168660000432,991.6362261001486,991.9729460000526,992.6368835000321,992.9749982000794,993.6384562000167,993.9788399999961,right,1,2.340960099827498,991.7041205000132,None,None,None,tyrfqt,001,0,fr,2022-04-22_11h04.55.897,3-AFC_adaptive_staircase_mess,2022.1.1,None,
,,,,,9,0,9,0,13,0,13,0,,,,,,,,,,,,,,,,left,250,-20.0,1.674827195789138e-05,-1,4,-1,-5.0,995.6219322668078,None,995.5723256000783,995.9154912000522,996.5739688000176,996.9104985999875,997.5753776000347,997.9127432999667,right,0,2.4852933997754008,995.6384676999878,None,998.1459645000286,None,tyrfqt,001,0,fr,2022-04-22_11h04.55.897,3-AFC_adaptive_staircase_mess,2022.1.1,None,
,,,,,9,0,9,0,14,0,14,0,,,,,,,,,,,,,,,,right,250,-17.5,2.2334179607548154e-05,1,5,1,2.5,None,None,999.6413529999554,999.9771565999836,1000.6470296001062,1000.9842350999825,None,None,left,0,1.6810810000170022,999.7092011000495,None,None,None,tyrfqt,001,0,fr,2022-04-22_11h04.55.897,3-AFC_adaptive_staircase_mess,2022.1.1,None,
,,,,,9,0,9,0,15,0,15,0,,,,,,,,,,,,,,,,up,250,-15.0,2.9783107176450517e-05,1,5,1,2.5,1003.9620059666379,None,1002.9099699000362,1003.2476995000616,1003.9107987000607,1004.2538604000583,1004.9125828000251,1005.2509067000356,left,0,2.6674093999899924,1002.9764743000269,None,1005.4864497999661,None,tyrfqt,001,0,fr,2022-04-22_11h04.55.897,3-AFC_adaptive_staircase_mess,2022.1.1,None,
,,,,,9,0,9,0,16,0,16,0,,,,,,,,,,,,,,,,up,250,-12.5,3.971641173621407e-05,1,5,1,2.5,1008.2029192667144,1008.4285361999646,1007.1496119000949,1007.490755100036,1008.1518038001377,1008.4897851999849,1009.1552586001344,None,left,0,2.1719433998223394,1007.2162254999857,None,None,None,tyrfqt,001,0,fr,2022-04-22_11h04.55.897,3-AFC_adaptive_staircase_mess,2022.1.1,None,
,,,,,9,0,9,0,17,0,17,0,,,,,,,,,,,,,,,,right,250,-10.0,5.296268625886443e-05,1,5,1,2.5,1012.9432645666568,None,1010.8905820001382,1011.2248533000238,1011.8909043001477,1012.2260054999497,1012.8929676001426,1013.2272604000755,up,0,2.4627326996997,1010.9583303001709,None,1013.4380440668358,None,tyrfqt,001,0,fr,2022-04-22_11h04.55.897,3-AFC_adaptive_staircase_mess,2022.1.1,None,
,,,,,9,0,9,0,18,0,18,0,,,,,,,,,,,,,,,,left,250,-7.5,7.06268772311377e-05,1,5,1,2.5,1014.9751968666135,None,1014.9257539999671,1015.2643757001497,1015.9517713000532,1016.2941707000136,1016.9290096000768,1017.2646667000372,up,0,2.9560029997956008,1014.9920346001163,None,1017.4687238000333,None,tyrfqt,001,0,fr,2022-04-22_11h04.55.897,3-AFC_adaptive_staircase_mess,2022.1.1,None,
,,,,,9,0,9,0,19,0,19,0,,,,,,,,,,,,,,,,left,250,-5.0,9.418245447449e-05,1,5,1,2.5,1019.5150441667686,None,1019.4650502000004,1019.8039528999943,1020.4532409000676,1020.8021205000114,1021.4654151001014,1021.8041079000104,left,1,2.413773800013587,1019.5341801999602,None,None,None,tyrfqt,001,0,fr,2022-04-22_11h04.55.897,3-AFC_adaptive_staircase_mess,2022.1.1,None,
,,,,,9,0,9,0,20,0,20,0,,,,,,,,,,,,,,,,right,250,-10.0,5.296268625886443e-05,-1,6,-1,-5.0,None,None,1023.4697561999783,1023.8076069999952,1024.4730922000017,1024.8067368001211,None,None,left,0,1.4209199999459088,1023.5362605000846,None,None,None,tyrfqt,001,0,fr,2022-04-22_11h04.55.897,3-AFC_adaptive_staircase_mess,2022.1.1,None,
,,,,,9,0,9,0,21,0,21,0,,,,,,,,,,,,,,,,left,250,-7.5,7.06268772311377e-05,1,7,1,2.5,1026.5093173667012,None,1026.4638906000182,1026.810720300069,1027.4877095001284,1027.812069500098,1028.4736959000584,1028.805124500068,left,1,2.8482245998457074,1026.525270699989,None,1029.041608700063,None,tyrfqt,001,0,fr,2022-04-22_11h04.55.897,3-AFC_adaptive_staircase_mess,2022.1.1,None,
,,,,,9,0,9,0,22,0,22,0,,,,,,,,,,,,,,,,up,250,-12.5,3.971641173621407e-05,-1,8,-1,-5.0,1031.923200366615,None,1030.8890736999456,1031.207340599969,1031.8730586001184,1032.2146740001626,1032.8885191001464,1033.212958100019,right,0,2.3710555997677147,1030.9219937999733,None,None,None,tyrfqt,001,0,fr,2022-04-22_11h04.55.897,3-AFC_adaptive_staircase_mess,2022.1.1,None,
,,,,,10,0,10,0,0,0,0,0,,,,,,,,,,,,,[],[],5,left,125,50,0.2285440948074376,0,0,-1,5,1034.8649557666542,None,1034.8184923999943,1035.1557990999427,None,None,None,None,left,1,0.4277244000695646,1034.8808716000058,None,None,None,tyrfqt,001,0,fr,2022-04-22_11h04.55.897,3-AFC_adaptive_staircase_mess,2022.1.1,None,
,,,,,10,0,10,0,1,0,1,0,,,,,,,,,,,,,,,,right,125,40,0.07227198853729641,-1,0,-1,-10,1038.8332997668224,None,1036.8257572001312,1037.1571867000312,1037.813696200028,1038.1508911999408,1038.8166331001557,None,right,1,2.2631111999507993,1036.8541550999507,None,None,None,tyrfqt,001,0,fr,2022-04-22_11h04.55.897,3-AFC_adaptive_staircase_mess,2022.1.1,None,
,,,,,10,0,10,0,2,0,2,0,,,,,,,,,,,,,,,,left,125,30,0.02285440948074376,-1,0,-1,-10,1040.6648384666225,None,1040.6151716001332,1040.9580332001206,None,None,None,None,left,1,0.41890829987823963,1040.6812545000575,None,None,None,tyrfqt,001,0,fr,2022-04-22_11h04.55.897,3-AFC_adaptive_staircase_mess,2022.1.1,None,
,,,,,10,0,10,0,3,0,3,0,,,,,,,,,,,,,,,,right,125,20,0.00722719885372964,-1,0,-1,-10,1044.669600466794,None,1042.6311033000238,1042.9579096001107,1043.6183410000522,1043.9543453000952,1044.6198678000364,1044.9612897001207,right,1,2.39116709982045,1042.661299600033,None,None,None,tyrfqt,001,0,fr,2022-04-22_11h04.55.897,3-AFC_adaptive_staircase_mess,2022.1.1,None,
,,,,,10,0,10,0,4,0,4,0,,,,,,,,,,,,,,,,left,125,10,0.002285440948074376,-1,0,-1,-10,1046.5850594668339,None,1046.5683928001672,1046.8914841001388,None,None,None,None,left,1,0.4071468999609351,1046.5973064000718,None,None,None,tyrfqt,001,0,fr,2022-04-22_11h04.55.897,3-AFC_adaptive_staircase_mess,2022.1.1,None,
,,,,,10,0,10,0,5,0,5,0,,,,,,,,,,,,,,,,left,125,0,0.000722719885372964,-1,0,-1,-10,1048.577971766765,None,1048.527974500088,1048.8587323999964,None,None,None,None,left,1,0.6047079998534173,1048.5922459999565,None,None,None,tyrfqt,001,0,fr,2022-04-22_11h04.55.897,3-AFC_adaptive_staircase_mess,2022.1.1,None,
,,,,,10,0,10,0,6,0,6,0,,,,,,,,,,,,,,,,left,125,-10,0.0002285440948074376,-1,0,-1,-10,1050.7316068667608,None,1050.6839044000953,1051.0288935001008,1051.6995672001503,1052.0327380001545,1052.6927066000644,1053.0307804001495,left,1,2.5970576000399888,1050.7450306999963,None,1053.2643333000597,None,tyrfqt,001,0,fr,2022-04-22_11h04.55.897,3-AFC_adaptive_staircase_mess,2022.1.1,None,
,,,,,10,0,10,0,7,0,7,0,,,,,,,,,,,,,,,,up,125,-20,7.22719885372964e-05,-1,0,-1,-10,1055.9128605668122,None,1054.8662384999916,1055.2064360000659,1055.8624720000662,1056.2057285001501,1056.8650376000442,1057.2016627001576,left,0,2.82830119994469,1054.9284642001148,None,1057.4326439001597,None,tyrfqt,001,0,fr,2022-04-22_11h04.55.897,3-AFC_adaptive_staircase_mess,2022.1.1,None,
,,,,,10,0,10,0,8,0,8,0,,,,,,,,,,,,,,,,up,125,-15,0.00012851978913844324,1,1,1,5,1060.331233566689,1060.5544390000869,1059.28272560006,1059.6006208001636,1060.2793458001688,1060.6139724999666,1061.2775228000246,1061.6014658000786,right,0,2.766524799866602,1059.341095900163,None,1061.8456964001525,None,tyrfqt,001,0,fr,2022-04-22_11h04.55.897,3-AFC_adaptive_staircase_mess,2022.1.1,None,
,,,,,10,0,10,0,9,0,9,0,,,,,,,,,,,,,,,,left,125,-10,0.0002285440948074376,1,1,1,5,1063.6534184667437,None,1063.636751800077,1063.9778081001714,1064.638136100024,1064.9783699000254,1065.6130562000908,1065.9416378999595,right,0,2.5829002999234945,1063.67001849995,None,1066.18259280012,None,tyrfqt,001,0,fr,2022-04-22_11h04.55.897,3-AFC_adaptive_staircase_mess,2022.1.1,None,
,,,,,10,0,10,0,10,0,10,0,,,,,,,,,,,,,,,,up,125,-5,0.00040641525808204974,1,1,1,5,1068.7638494666355,None,1067.7520074001513,1068.076239499962,1068.7471827999689,1069.083948200103,1069.7321948001627,1070.0713395001367,right,0,2.3902864998672158,1067.7818108000793,None,None,None,tyrfqt,001,0,fr,2022-04-22_11h04.55.897,3-AFC_adaptive_staircase_mess,2022.1.1,None,
,,,,,10,0,10,0,11,0,11,0,,,,,,,,,,,,,,,,up,125,0,0.000722719885372964,1,1,1,5,1072.7293456667724,None,1071.7172739000525,1072.050763900159,1072.7126790001057,1073.0242960001342,1073.7114000001457,1074.0477440000977,left,0,2.663975999923423,1071.7482092999853,None,1074.2714480001014,None,tyrfqt,001,0,fr,2022-04-22_11h04.55.897,3-AFC_adaptive_staircase_mess,2022.1.1,None,
,,,,,10,0,10,0,12,0,12,0,,,,,,,,,,,,,,,,right,125,5,0.0012851978913844323,1,1,1,5,1077.9705203667438,None,1075.9153218001593,1076.2539697000757,1076.919946399983,1077.2593948000576,1077.9192200000398,1078.2607800001279,up,0,2.358387699816376,1075.9744508001022,None,None,None,tyrfqt,001,0,fr,2022-04-22_11h04.55.897,3-AFC_adaptive_staircase_mess,2022.1.1,None,
,,,,,10,0,10,0,13,0,13,0,,,,,,,,,,,,,,,,left,125,10,0.002285440948074376,1,1,1,5,1079.904824266738,None,1079.8572156999726,1080.2013402001467,1080.8560844000895,1081.1731934000272,1081.852030100068,1082.1659222999588,left,1,2.7187014997471124,1079.919093000004,None,1082.413159100106,None,tyrfqt,001,0,fr,2022-04-22_11h04.55.897,3-AFC_adaptive_staircase_mess,2022.1.1,None,
,,,,,10,0,10,0,14,0,14,0,,,,,,,,,,,,,,,,right,125,0,0.000722719885372964,-1,2,-1,-10,1086.1517937668289,None,1084.1297604001593,1084.4755949999671,1085.14100900013,1085.441434000153,1086.1351271001622,1086.4470323999412,left,0,2.827417799970135,1084.192434699973,None,1086.7003095999826,None,tyrfqt,001,0,fr,2022-04-22_11h04.55.897,3-AFC_adaptive_staircase_mess,2022.1.1,None,
,,,,,10,0,10,0,15,0,15,0,,,,,,,,,,,,,,,,left,125,5,0.0012851978913844323,1,3,1,2.5,1088.577157666736,None,1088.529917600099,1088.8718522000127,1089.547530299984,1089.8724871999584,1090.5305310999975,1090.8455177000724,left,1,2.796148299938068,1088.5915417999495,None,1091.0925337001681,None,tyrfqt,001,0,fr,2022-04-22_11h04.55.897,3-AFC_adaptive_staircase_mess,2022.1.1,None,
,,,,,10,0,10,0,16,0,16,0,,,,,,,,,,,,,,,,left,125,0.0,0.000722719885372964,-1,4,-1,-5.0,1092.967934566612,None,1092.919028500095,1093.2316344999708,1093.9352735001594,None,None,None,left,1,1.2223633998073637,1092.9818127001636,None,None,None,tyrfqt,001,0,fr,2022-04-22_11h04.55.897,3-AFC_adaptive_staircase_mess,2022.1.1,None,
,,,,,10,0,10,0,17,0,17,0,,,,,,,,,,,,,,,,up,125,-5.0,0.00040641525808204974,-1,4,-1,-5.0,1096.7642321666392,None,1095.725167500088,1096.0560248000547,1096.7475654999726,1097.0852817001287,1097.749430200085,1098.0904343000147,left,0,2.8361857999116182,1095.7849524000194,None,1098.3005179001484,None,tyrfqt,001,0,fr,2022-04-22_11h04.55.897,3-AFC_adaptive_staircase_mess,2022.1.1,None,
,,,,,10,0,10,0,18,0,18,0,,,,,,,,,,,,,,,,right,125,-2.5,0.000541963457010602,1,5,1,2.5,1102.2005005668072,None,1100.1641228999943,1100.5004441000056,1101.160604200093,1101.4919777000323,1102.1517330000643,1102.489413500065,left,0,2.6015427000820637,1100.1950636999682,None,1102.7342821001075,None,tyrfqt,001,0,fr,2022-04-22_11h04.55.897,3-AFC_adaptive_staircase_mess,2022.1.1,None,
,,,,,10,0,10,0,19,0,19,0,,,,,,,,,,,,,,,,left,125,0.0,0.000722719885372964,1,5,1,2.5,1104.337451466654,None,1104.3207847999875,1104.6582146999426,1105.3121565999463,1105.6301023000851,1106.2936142000835,1106.6368440000806,right,0,2.397009899839759,1104.3511797999963,None,None,None,tyrfqt,001,0,fr,2022-04-22_11h04.55.897,3-AFC_adaptive_staircase_mess,2022.1.1,None,
,,,,,10,0,10,0,20,0,20,0,,,,,,,,,,,,,,,,right,125,2.5,0.0009637624565954683,1,5,1,2.5,1110.2863733666638,None,1108.2442451999523,1108.5734184000175,1109.2735369999427,1109.6134318001568,1110.2697066999972,1110.6099111000076,left,0,2.8539054999127984,1108.3117397001479,None,1110.7958092000335,None,tyrfqt,001,0,fr,2022-04-22_11h04.55.897,3-AFC_adaptive_staircase_mess,2022.1.1,None,
,,,,,10,0,10,0,21,0,21,0,,,,,,,,,,,,,,,,left,125,5.0,0.0012851978913844323,1,5,1,2.5,1112.717795666835,None,1112.6724364000838,1113.0143303000368,1113.6831368000712,1114.0028699000832,1114.6838968000375,1115.0202458000276,left,1,2.285385299939662,1112.7347305000294,None,None,None,tyrfqt,001,0,fr,2022-04-22_11h04.55.897,3-AFC_adaptive_staircase_mess,2022.1.1,None,
,,,,,10,0,10,0,22,0,22,0,,,,,,,,,,,,,,,,left,125,0.0,0.000722719885372964,-1,6,-1,-5.0,1116.5544989666125,None,1116.504649600014,1116.8053458000068,1117.5267388999928,1117.8406788001303,1118.522178000072,1118.840312300017,left,1,2.342590499902144,1116.5658406000584,None,None,None,tyrfqt,001,0,fr,2022-04-22_11h04.55.897,3-AFC_adaptive_staircase_mess,2022.1.1,None,
,,,,,10,0,10,0,23,0,23,0,,,,,,,,,,,,,,,,right,125,-5.0,0.00040641525808204974,-1,6,-1,-5.0,1122.4749044667153,None,1120.4230212999973,1120.7423634000588,1121.4254318999592,1121.758510200074,1122.424410100095,1122.759177400032,right,1,2.5468540999572724,1120.490637500072,None,1122.994902000064,None,tyrfqt,001,0,fr,2022-04-22_11h04.55.897,3-AFC_adaptive_staircase_mess,2022.1.1,None,
,,,,,10,0,10,0,24,0,24,0,,,,,,,,,,,,,,,,up,125,-10.0,0.0002285440948074376,-1,6,-1,-5.0,1125.614483966787,1125.8386361999437,1124.563064499991,1124.8752667000517,1125.564259900013,1125.902969200164,1126.5634753999766,1126.8779293999542,right,0,2.8703364997636527,1124.6294170001056,None,1127.1319365999661,None,tyrfqt,001,0,fr,2022-04-22_11h04.55.897,3-AFC_adaptive_staircase_mess,2022.1.1,None,
,,,,,10,0,10,0,25,0,25,0,,,,,,,,,,,,,,,,up,125,-7.5,0.0003047684486200847,1,7,1,2.5,1130.0692973668376,None,1129.0224528999534,1129.369107000064,1130.052630700171,1130.4027267000638,1131.0355835000519,1131.368897800101,left,0,2.528538999846205,1129.0845600999892,None,1131.6041664001532,None,tyrfqt,001,0,fr,2022-04-22_11h04.55.897,3-AFC_adaptive_staircase_mess,2022.1.1,None,
,,,,,10,0,10,0,26,0,26,0,,,,,,,,,,,,,,,,up,125,-5.0,0.00040641525808204974,1,7,1,2.5,1134.1891455667248,None,1133.1353035001084,1133.4725802999455,1134.1389948001597,1134.482544500148,1135.139478099998,1135.4720453000627,right,0,2.3314859997481108,1133.2019931999967,None,None,None,tyrfqt,001,0,fr,2022-04-22_11h04.55.897,3-AFC_adaptive_staircase_mess,2022.1.1,None,
,,,,,10,0,10,0,27,0,27,0,,,,,,,,,,,,,,,,up,125,-2.5,0.000541963457010602,1,7,1,2.5,1138.0782960667896,None,1137.0395976,1137.3758946999442,1138.0445691000205,1138.376276300056,1139.0448261001147,1139.3779203000013,right,0,2.4569782000035048,1137.1071057999507,None,1139.590315700043,None,tyrfqt,001,0,fr,2022-04-22_11h04.55.897,3-AFC_adaptive_staircase_mess,2022.1.1,None,
,,,,,10,0,10,0,28,0,28,0,,,,,,,,,,,,,,,,left,125,0.0,0.000722719885372964,1,7,1,2.5,1141.1297048666204,1141.3585586999543,1141.0780313999858,1141.421174700139,1142.0718329001684,1142.4170286001172,1143.0830821001437,1143.41420450015,left,1,2.689294399926439,1141.1470382001717,None,1143.6500230999663,None,tyrfqt,001,0,fr,2022-04-22_11h04.55.897,3-AFC_adaptive_staircase_mess,2022.1.1,None,
,,,,,10,0,10,0,29,0,29,0,,,,,,,,,,,,,,,,right,125,-5.0,0.00040641525808204974,-1,8,-1,-5.0,1147.3870387667014,None,1145.3492374999914,1145.6825566999614,1146.3522644999903,1146.686079400126,1147.3412349000573,1147.6869729999453,left,0,2.883443199796602,1145.417505200021,None,1147.8923482999671,None,tyrfqt,001,0,fr,2022-04-22_11h04.55.897,3-AFC_adaptive_staircase_mess,2022.1.1,None,
