tTrials.thisRepN,tTrials.thisTrialN,tTrials.thisN,tTrials.thisIndex,blocks.thisRepN,blocks.thisTrialN,blocks.thisN,blocks.thisIndex,trials.thisRepN,trials.thisTrialN,trials.thisN,trials.thisIndex,tStart_text.started,tStart_text.stopped,Prediction,practice_Frequency,practice_Level,practice_Psychopy_Level,practice_isCatchTrial,Practice_trial_detection,practice_Cue_Delays,practice_Cue_Frequencies,practice_Interval,practice_Cue_Intensities,tCue_visual_cue.started,tCue_visual_cue.stopped,tProbe_visual_cue.started,tProbe_visual_cue.stopped,tFeedback.keys,tFeedback.corr,tFeedback.rt,tFeedback.started,tFeedback.stopped,tToo_late.keys,tToo_late.corr,tToo_early.keys,tToo_early.corr,tToo_early.rt,more_instructions.started,more_instructions.stopped,readyy.keys,readyy.rt,readyy.started,readyy.stopped,txt_rhythm.started,txt_rhythm.stopped,sound_1.started,sound_1.stopped,sound_2.started,sound_2.stopped,sound_3.started,sound_3.stopped,sound_4.started,sound_4.stopped,cross.started,cross.stopped,sound_5.started,sound_5.stopped,circle.started,circle.stopped,rhythm_ready.keys,rhythm_ready.rt,rhythm_ready.started,rhythm_ready.stopped,rhytm_ready_txt.started,rhytm_ready_txt.stopped,txt_freq.started,txt_freq.stopped,sound_6.started,sound_6.stopped,sound_7.started,sound_7.stopped,sound_8.started,sound_8.stopped,sound_9.started,sound_9.stopped,cross_2.started,cross_2.stopped,sound_10.started,sound_10.stopped,circle_2.started,circle_2.stopped,freq_ready.keys,freq_ready.rt,freq_ready.started,freq_ready.stopped,freq_ready_txt.started,freq_ready_txt.stopped,txt_freq_2.started,txt_freq_2.stopped,sound_11.started,sound_11.stopped,sound_12.started,sound_12.stopped,sound_13.started,sound_13.stopped,sound_14.started,sound_14.stopped,cross_3.started,cross_3.stopped,sound_15.started,sound_15.stopped,circle_3.started,circle_3.stopped,freq_ready_2.keys,freq_ready_2.rt,freq_ready_2.started,freq_ready_2.stopped,freq_ready_txt_2.started,freq_ready_txt_2.stopped,txt_freq_3.started,txt_freq_3.stopped,sound_16.started,sound_16.stopped,sound_17.started,sound_17.stopped,sound_18.started,sound_18.stopped,sound_19.started,sound_19.stopped,cross_4.started,cross_4.stopped,sound_20.started,sound_20.stopped,circle_4.started,circle_4.stopped,freq_ready_txt_3.started,freq_ready_txt_3.stopped,tStart_text_2.started,tStart_text_2.stopped,this_trial_is.started,this_trial_is.stopped,Frequency,Level,Psychopy_Level,Real trial detection,Cue Delays,Cue Frequencies,Interval,Cue Intensities,Catch trial,cue_visual_cue.started,cue_visual_cue.stopped,probe_visual_cue.started,probe_visual_cue.stopped,feedback.keys,feedback.corr,feedback.started,feedback.stopped,answer_too_late.keys,answer_too_late.corr,answer_too_early.keys,answer_too_early.corr,feedback.rt,Catch trial answer,answer_too_early.rt,Audiogram_frequency,Audiogram_both,Audiogram_time,Audiogram_none,participant,session,Language (english or french),Skip training? (1 for yes),Resume previous experiment,date,expName,psychopyVersion,frameRate,
0,0,0,0,,,,,,,,,16.3774904999882,None,time,1000,30,0.0013930605843148849,False,1,"[0.5547277021241026, 0.5547277021241026, 0.5547277021241026, 0.5547277021241026]","[2440.300625546325, 584.6216127932289, 3462.245230310287, 2461.6361741005644]",None,"[30, 30, 30, 30]",40.403169699944556,42.99386249994859,42.99386249994859,44.21935809997376,['space'],1,[0.5149947999743745],42.99386249994859,44.758693799958564,None,1,['space'],0,[0.82416329998523],,,,,,,,,,,,,,,,,,,,,,,,,,,,,,,,,,,,,,,,,,,,,,,,,,,,,,,,,,,,,,,,,,,,,,,,,,,,,,,,,,,,,,,,,,,,,,,,,,,,,,,,,,,,,,,,,,,,,,,,,,,moiern,001,fr,0,0,2022-07-08_14h07.09.994,Cluster,2022.1.1,34.626194650552165,
1,0,1,0,,,,,,,,,,,frequency,2500,30,0.002716251657462167,False,1,"[0.441136158321733, 0.6281984218557075, 0.5207653574057497, 0.5000574801291121]","[3968.502629920499, 3535.533905932738, 3149.802624737183, 2806.1551207734324]",Tone,"[30, 30, 30, 30]",49.95918869995512,52.462358199991286,52.462358199991286,53.67380059999414,['space'],1,[0.6134636999340728],52.462358199991286,54.176399199990556,None,1,None,1,,,,,,,,,,,,,,,,,,,,,,,,,,,,,,,,,,,,,,,,,,,,,,,,,,,,,,,,,,,,,,,,,,,,,,,,,,,,,,,,,,,,,,,,,,,,,,,,,,,,,,,,,,,,,,,,,,,,,,,,,,,,moiern,001,fr,0,0,2022-07-08_14h07.09.994,Cluster,2022.1.1,34.626194650552165,
2,0,2,0,,,,,,,,,,,time,6000,30,0.003664122665694519,True,1,"[0.6968713292869175, 0.6968713292869175, 0.6968713292869175, 0.6968713292869175]","[945.1711973007141, 1562.652017028731, 779.8574370156143, 3578.6622814425905]",None,"[30, 30, 30, 30]",57.44299199990928,60.460152499959804,60.460152499959804,61.6719829000067,None,1,,60.460152499959804,62.38044529990293,None,1,None,1,,,,,,,,,,,,,,,,,,,,,,,,,,,,,,,,,,,,,,,,,,,,,,,,,,,,,,,,,,,,,,,,,,,,,,,,,,,,,,,,,,,,,,,,,,,,,,,,,,,,,,,,,,,,,,,,,,,,,,,,,,,,moiern,001,fr,0,0,2022-07-08_14h07.09.994,Cluster,2022.1.1,34.626194650552165,
3,0,3,0,,,,,,,,,,,both,440,30,0.0023562289915021436,False,1,"[0.7837687155926788, 0.7837687155926788, 0.7837687155926788, 0.7837687155926788]","[698.456462866008, 622.253967444162, 554.3652619537443, 493.8833012561241]",Tone,"[30, 30, 30, 30]",65.36666689999402,68.63995260000229,68.63995260000229,69.86733519996051,['space'],1,[1.1469185000751168],68.63995260000229,70.65452559990808,None,1,None,1,,,,,,,,,,,,,,,,,,,,,,,,,,,,,,,,,,,,,,,,,,,,,,,,,,,,,,,,,,,,,,,,,,,,,,,,,,,,,,,,,,,,,,,,,,,,,,,,,,,,,,,,,,,,,,,,,,,,,,,,,,,,moiern,001,fr,0,0,2022-07-08_14h07.09.994,Cluster,2022.1.1,34.626194650552165,
4,0,4,0,,,,,,,,,,,both,250,30,0.005296268625886445,True,1,"[0.7738959454261085, 0.7738959454261085, 0.7738959454261085, 0.7738959454261085]","[629.9605249474366, 500.00000000000006, 396.8502629920499, 314.9802624737183]",Major_3rd,"[30, 30, 30, 30]",73.64022379997186,76.88589099992532,76.88589099992532,78.12043129990343,None,1,,76.88589099992532,78.87455579999369,None,1,['space'],0,[0.2027788000414148],,,,,,,,,,,,,,,,,,,,,,,,,,,,,,,,,,,,,,,,,,,,,,,,,,,,,,,,,,,,,,,,,,,,,,,,,,,,,,,,,,,,,,,,,,,,,,,,,,,,,,,,,,,,,,,,,,,,,,,,,,,moiern,001,fr,0,0,2022-07-08_14h07.09.994,Cluster,2022.1.1,34.626194650552165,
,,,,,,,,,,,,,,,,,,,,,,,,,,,,,,,,,,,,,,81.08102689997759,None,space,19.010571900056675,81.08102689997759,None,,,,,,,,,,,,,,,,,,,,,,,,,,,,,,,,,,,,,,,,,,,,,,,,,,,,,,,,,,,,,,,,,,,,,,,,,,,,,,,,,,,,,,,,,,,,,,,,,,,,,,,,,,,,,,,,,,,,,moiern,001,fr,0,0,2022-07-08_14h07.09.994,Cluster,2022.1.1,34.626194650552165,
,,,,,,,,,,,,,,,,,,,,,,,,,,,,,,,,,,,,,,,,,,,,100.15340379998088,101.17599459993653,101.61685083991615,101.83488049998414,102.10581823996036,102.32690629991703,102.6274820399587,102.85403769998811,103.10940493991366,103.32697689998895,101.52926719991956,103.32697689998895,103.6288993399241,None,103.32697689998895,104.13412979990244,space,1.1202073999447748,104.31516569992527,None,,,,,,,,,,,,,,,,,,,,,,,,,,,,,,,,,,,,,,,,,,,,,,,,,,,,,,,,,,,,,,,,,,,,,,,,,,,,,,,,,,,,,,,,,,,,,,,,,moiern,001,fr,0,0,2022-07-08_14h07.09.994,Cluster,2022.1.1,34.626194650552165,
,,,,,,,,,,,,,,,,,,,,,,,,,,,,,,,,,,,,,,,,,,,,,,,,,,,,,,,,,,,,,,,,104.31516569992527,None,105.49206179997418,106.51750139996875,106.96090213999851,None,107.25216734000715,None,107.94357283994323,108.16757319995668,108.3460434399196,108.57094809995033,106.87398699996993,108.65529289992992,108.95663443998201,None,108.65529289992992,109.48724539997056,space,1.834462400060147,109.67271269997582,None,,,,,,,,,,,,,,,,,,,,,,,,,,,,,,,,,,,,,,,,,,,,,,,,,,,,,,,,,,,,,,,,,,,,,,,,,,,moiern,001,fr,0,0,2022-07-08_14h07.09.994,Cluster,2022.1.1,34.626194650552165,
,,,,,,,,,,,,,,,,,,,,,,,,,,,,,,,,,,,,,,,,,,,,,,,,,,,,,,,,,,,,,,,,,,,,,,,,,,,,,,,,,,,,,,109.67271269997582,None,111.56863080000039,112.5935082999058,113.03360183989862,None,113.53381563989679,None,114.02069503999083,114.23305949999485,114.52082843995886,114.73400920000859,112.94356189994141,114.73400920000859,115.04013463993324,None,114.73400920000859,115.53785630001221,space,1.5057338000042364,115.73810359998606,None,,,,,,,,,,,,,,,,,,,,,,,,,,,,,,,,,,,,,,,,,,,,,,,,,,,,,moiern,001,fr,0,0,2022-07-08_14h07.09.994,Cluster,2022.1.1,34.626194650552165,
,,,,0,0,0,0,0,0,0,0,,,both,,,,,,,,,,,,,,,,,,,,,,,,,,,,,,,,,,,,,,,,,,,,,,,,,,,,,,,,,,,,,,,,,,,,,,,,,,,,,,,,,,,,,,,,,,,,,,115.73810359998606,None,117.29838689998724,118.32760660001077,118.73947573999176,None,119.04414403996198,None,119.74546363995178,119.963857499999,120.16755133994157,None,118.6522588999942,120.46135499991942,120.75743523995625,120.97769719990902,120.46135499991942,121.27650919998996,121.4563971000025,None,122.47511699993629,None,152.43657289992552,None,6108.699419939105,0.017769004954904744,0.00012124023437857898,0,"[0.7797676973860905, 0.7797676973860905, 0.7797676973860905, 0.7797676973860905]","[1212.1194856711081, 1816.1272034011447, 2721.1162413641914, 4077.067721440044]",Perfect_5th,"[6.683787031380474, 4.0, 3.474299885712254, 3.5351726824326306]",False,153.399551599985,156.75098139990587,156.75098139990587,157.96863549994305,None,0,4.139214419876225,5.159573819837533,None,1,None,1,,,,,,,,moiern,001,fr,0,0,2022-07-08_14h07.09.994,Cluster,2022.1.1,34.626194650552165,
,,,,0,0,0,0,1,0,1,0,,,time,,,,,,,,,,,,,,,,,,,,,,,,,,,,,,,,,,,,,,,,,,,,,,,,,,,,,,,,,,,,,,,,,,,,,,,,,,,,,,,,,,,,,,,,,,,,,,,,,,,,,,,,,,,,,,,,,,,,158.5982912000036,None,276.8069815244904,-3.686946303919342,9.097608495967346e-05,0,"[0.5765041500939234, 0.5765041500939234, 0.5765041500939234, 0.5765041500939234]","[5661.89277024565, 170.6726815551712, 1386.163343730698, 3233.681646337203]",None,"[4.930889606701771, -1.1722083607040013, 6.530561368431182, 4.276055605350804]",False,159.5906206999207,162.3568769999547,162.3568769999547,163.57551180000883,None,0,3.32128471985925,4.342581019853242,None,1,None,1,,,,,,,,moiern,001,fr,0,0,2022-07-08_14h07.09.994,Cluster,2022.1.1,34.626194650552165,
,,,,0,0,0,0,2,0,2,0,,,both,,,,,,,,,,,,,,,,,,,,,,,,,,,,,,,,,,,,,,,,,,,,,,,,,,,,,,,,,,,,,,,,,,,,,,,,,,,,,,,,,,,,,,,,,,,,,,,,,,,,,,,,,,,,,,,,,,,,163.96526769991033,None,353.5533905932738,0.0,8.861233020703779e-05,1,"[0.5219255828678461, 0.5219255828678461, 0.5219255828678461, 0.5219255828678461]","[890.8987181403395, 707.1067811865477, 561.2310241546866, 445.4493590701697]",Major_3rd,"[4.000957316205357, 2.840435712491632, 3.0299226339438463, 4.279008570326855]",False,164.99256739998236,167.57158109999727,167.57158109999727,168.77954299992416,['space'],1,3.11510631989222,4.132942019961774,None,1,None,1,[0.73680549999699],,,,,,,moiern,001,fr,0,0,2022-07-08_14h07.09.994,Cluster,2022.1.1,34.626194650552165,
,,,,0,0,0,0,3,0,3,0,,,none,,,,,,,,,,,,,,,,,,,,,,,,,,,,,,,,,,,,,,,,,,,,,,,,,,,,,,,,,,,,,,,,,,,,,,,,,,,,,,,,,,,,,,,,,,,,,,,,,,,,,,,,,,,,,,,,,,,,169.1730653999839,None,175.49319354802327,-7.071975801245284,0.0001571291790687493,0,"[0.46523802666152425, 0.6975253830135559, 0.4125855758281083, 0.4276705874412554]","[163.62854368973817, 760.4360007626018, 3809.4945973841595, 2508.362705684364]",None,"[-1.1722083607040013, 3.092109227946553, 3.878558029931074, 3.106486730434091]",False,170.1768052999396,172.77587059990037,172.77587059990037,173.9859046000056,None,0,3.03934271982871,4.045638319919817,None,1,None,1,,,,,,,,moiern,001,fr,0,0,2022-07-08_14h07.09.994,Cluster,2022.1.1,34.626194650552165,
,,,,0,0,0,0,4,0,4,0,,,both,,,,,,,,,,,,,,,,,,,,,,,,,,,,,,,,,,,,,,,,,,,,,,,,,,,,,,,,,,,,,,,,,,,,,,,,,,,,,,,,,,,,,,,,,,,,,,,,,,,,,,,,,,,,,,,,,,,,174.26391079998575,None,748.945255080488,-2.907890772053447,2.9144910469687257e-05,0,"[0.6600185981702691, 0.6600185981702691, 0.6600185981702691, 0.6600185981702691]","[3774.4475683791684, 2519.141520873845, 1681.3252501784607, 1122.1499758803066]",Perfect_5th,"[3.878558029931074, 3.106486730434091, 5.0, 6.372236586911086]",False,175.25098359992262,178.254854699946,178.254854699946,179.45812679990195,None,0,3.658315219799988,4.682420719880611,None,1,None,1,,,,,,,,moiern,001,fr,0,0,2022-07-08_14h07.09.994,Cluster,2022.1.1,34.626194650552165,
,,,,0,0,0,0,5,0,5,0,,,both,,,,,,,,,,,,,,,,,,,,,,,,,,,,,,,,,,,,,,,,,,,,,,,,,,,,,,,,,,,,,,,,,,,,,,,,,,,,,,,,,,,,,,,,,,,,,,,,,,,,,,,,,,,,,,,,,,,,179.97392279992346,None,,,,,"[0.48620202705301957, 0.48620202705301957, 0.48620202705301957, 0.48620202705301957]","[178.02002992849148, 199.82072743363042, 224.29118300982174, 251.75834069893696]",Tone,"[-1.0719758012452836, -0.40430455611886007, 0.16444291805212163, 1.5706783981663497]",True,180.9840618999442,183.46484929998405,183.46484929998405,184.6999777999008,None,1,2.9820140198571607,3.9939860198646784,None,1,None,1,,0,,,,,,moiern,001,fr,0,0,2022-07-08_14h07.09.994,Cluster,2022.1.1,34.626194650552165,
,,,,0,0,0,0,6,0,6,0,,,frequency,,,,,,,,,,,,,,,,,,,,,,,,,,,,,,,,,,,,,,,,,,,,,,,,,,,,,,,,,,,,,,,,,,,,,,,,,,,,,,,,,,,,,,,,,,,,,,,,,,,,,,,,,,,,,,,,,,,,185.00956439995207,None,491.5712828386712,-2.3292087096796603,5.4969236669267e-05,0,"[0.4643413313409363, 0.6840282670146984, 0.6532004558158162, 0.46478266915063404]","[195.08019287386608, 245.7856414193357, 309.6705033861342, 390.16038574773205]",Major_3rd,"[-0.813030767644773, 1.5706783981663497, 3.5745719369322506, 4.456966316652261]",False,186.00908200000413,188.8354937999975,188.8354937999975,190.0466529999394,None,0,3.295321019832045,4.3137668198905885,None,1,None,1,,,,,,,,moiern,001,fr,0,0,2022-07-08_14h07.09.994,Cluster,2022.1.1,34.626194650552165,
,,,,0,0,0,0,7,0,7,0,,,none,,,,,,,,,,,,,,,,,,,,,,,,,,,,,,,,,,,,,,,,,,,,,,,,,,,,,,,,,,,,,,,,,,,,,,,,,,,,,,,,,,,,,,,,,,,,,,,,,,,,,,,,,,,,,,,,,,,,190.35310409998056,None,406.12619817811805,1.0,8.55441952378509e-05,0,"[0.4304979293086042, 0.5819590370517272, 0.7839955824345604, 0.7112641507162543]","[259.712576852534, 569.3062977102414, 2984.1613729770042, 1344.4482302797644]",None,"[2.0, 3.0299226339438463, 4.168932372875219, 6.747195786821025]",False,191.3786117999116,194.2070751999272,194.2070751999272,195.44178260001354,None,0,3.517202719929628,4.527581419912167,None,1,None,1,,,,,,,,moiern,001,fr,0,0,2022-07-08_14h07.09.994,Cluster,2022.1.1,34.626194650552165,
,,,,0,0,0,0,8,0,8,0,,,both,,,,,,,,,,,,,,,,,,,,,,,,,,,,,,,,,,,,,,,,,,,,,,,,,,,,,,,,,,,,,,,,,,,,,,,,,,,,,,,,,,,,,,,,,,,,,,,,,,,,,,,,,,,,,,,,,,,,195.95237770001404,None,203.0630990890589,-2.0,0.00020608133446608294,1,"[0.4353598868429879, 0.4353598868429879, 0.4353598868429879, 0.4353598868429879]","[127.92173649959686, 143.58729437462938, 161.1712885549474, 180.90865468004728]",Tone,"[-0.4750503134073103, -0.9892591392778911, -1.1722083607040013, -1.0]",False,196.97716259991284,199.3116776999086,199.3116776999086,200.51505559997167,['space'],1,2.754132519941777,3.7818471199134365,None,1,None,1,[0.5476747999200597],,,,,,,moiern,001,fr,0,0,2022-07-08_14h07.09.994,Cluster,2022.1.1,34.626194650552165,
,,,,0,0,0,0,9,0,9,0,,,both,,,,,,,,,,,,,,,,,,,,,,,,,,,,,,,,,,,,,,,,,,,,,,,,,,,,,,,,,,,,,,,,,,,,,,,,,,,,,,,,,,,,,,,,,,,,,,,,,,,,,,,,,,,,,,,,,,,,200.8044896000065,None,,,,,"[0.40302894446644744, 0.40302894446644744, 0.40302894446644744, 0.40302894446644744]","[3623.3624977284903, 4067.0868909676874, 4565.15068228779, 5124.208385681684]",Tone,"[4.0, 3.5351726824326306, 3.2084435504672473, 4.0]",True,201.81676269997843,204.05266719998326,204.05266719998326,205.2854551000055,None,1,2.6359441198874265,3.6682975199073553,None,1,None,1,,0,,,,,,moiern,001,fr,0,0,2022-07-08_14h07.09.994,Cluster,2022.1.1,34.626194650552165,
,,,,0,0,0,0,10,0,10,0,,,frequency,,,,,,,,,,,,,,,,,,,,,,,,,,,,,,,,,,,,,,,,,,,,,,,,,,,,,,,,,,,,,,,,,,,,,,,,,,,,,,,,,,,,,,,,,,,,,,,,,,,,,,,,,,,,,,,,,,,,205.52499209996313,None,2462.2888266898335,0.0,8.505946547995337e-05,1,"[0.452694624454628, 0.4531261785268089, 0.5391467599121025, 0.6194191910834841]","[1551.144761833735, 1741.1011265922486, 1954.3199368684925, 2193.6499593892527]",Tone,"[6.0, 4.560991461741839, 3.2454748692368316, 2.9203225638743593]",False,206.55380429991055,209.02256750001106,209.02256750001106,210.25743110000622,['space'],1,3.09208511991892,4.110275819897652,None,1,None,1,[0.40102939994540066],,,,,,,moiern,001,fr,0,0,2022-07-08_14h07.09.994,Cluster,2022.1.1,34.626194650552165,
,,,,0,0,0,0,11,0,11,0,,,both,,,,,,,,,,,,,,,,,,,,,,,,,,,,,,,,,,,,,,,,,,,,,,,,,,,,,,,,,,,,,,,,,,,,,,,,,,,,,,,,,,,,,,,,,,,,,,,,,,,,,,,,,,,,,,,,,,,,210.7119112999644,None,402.58224500747616,-1.5631242693138176,6.3835846574137e-05,1,"[0.647037804851365, 0.647037804851365, 0.647037804851365, 0.647037804851365]","[159.7648698071468, 201.2911225037381, 253.61092239942724, 319.52973961429353]",Major_3rd,"[-1.1722083607040013, -0.40430455611886007, 1.5706783981663497, 4.0]",False,211.71635459992103,214.67847799998708,214.67847799998708,215.89639269991312,['space'],1,3.6142042198916897,4.642675619921647,None,1,None,1,[0.4998780000023544],,,,,,,moiern,001,fr,0,0,2022-07-08_14h07.09.994,Cluster,2022.1.1,34.626194650552165,
,,,,0,0,0,0,12,0,12,0,,,frequency,,,,,,,,,,,,,,,,,,,,,,,,,,,,,,,,,,,,,,,,,,,,,,,,,,,,,,,,,,,,,,,,,,,,,,,,,,,,,,,,,,,,,,,,,,,,,,,,,,,,,,,,,,,,,,,,,,,,216.3972959999228,None,414.20964268313816,-1.5631242693138176,6.333957476681664e-05,1,"[0.4496855267112978, 0.5734864327716438, 0.6184457625953766, 0.4287671337498992]","[260.9357239429598, 292.89044717410377, 328.75841126529275, 369.0188397077757]",Tone,"[2.0, 3.0, 4.0, 4.456966316652261]",False,217.39133010001387,220.06597549992148,220.06597549992148,221.270460599917,['space'],1,3.112543619936332,4.141408419935033,None,1,None,1,[0.6532396000111476],,,,,,,moiern,001,fr,0,0,2022-07-08_14h07.09.994,Cluster,2022.1.1,34.626194650552165,
,,,,0,0,0,0,13,0,13,0,,,none,,,,,,,,,,,,,,,,,,,,,,,,,,,,,,,,,,,,,,,,,,,,,,,,,,,,,,,,,,,,,,,,,,,,,,,,,,,,,,,,,,,,,,,,,,,,,,,,,,,,,,,,,,,,,,,,,,,,221.56857469992246,None,153.77836415197424,-7.136210621316466,0.00020514065308388494,0,"[0.5007228508908476, 0.5915440689626378, 0.6722367452132497, 0.7273400037198539]","[7383.599806538644, 5215.914166018527, 2324.853141700889, 339.23965179569734]",None,"[8.970936056589014, 4.0, 2.8857393249623646, 4.0233960137397595]",False,222.561431500013,225.34058349998668,225.34058349998668,226.57271330000367,None,0,3.523614619858563,4.546556619927287,None,1,None,1,,,,,,,,moiern,001,fr,0,0,2022-07-08_14h07.09.994,Cluster,2022.1.1,34.626194650552165,
,,,,0,0,0,0,14,0,14,0,,,frequency,,,,,,,,,,,,,,,,,,,,,,,,,,,,,,,,,,,,,,,,,,,,,,,,,,,,,,,,,,,,,,,,,,,,,,,,,,,,,,,,,,,,,,,,,,,,,,,,,,,,,,,,,,,,,,,,,,,,227.1555473000044,None,,,,,"[0.7394920690115401, 0.4789589237839478, 0.46329078412523717, 0.4445441447661367]","[2094.7463552410873, 1866.2068427134325, 1662.6012839581267, 1481.2093526567774]",Tone,"[3.0, 3.814699611797265, 5.0, 6.040397601811277]",True,228.16375429998152,230.87096209998708,230.87096209998708,232.08119980001356,None,1,3.151792819960974,4.162928820005618,None,1,None,1,,0,,,,,,moiern,001,fr,0,0,2022-07-08_14h07.09.994,Cluster,2022.1.1,34.626194650552165,
,,,,0,0,0,0,15,0,15,0,,,frequency,,,,,,,,,,,,,,,,,,,,,,,,,,,,,,,,,,,,,,,,,,,,,,,,,,,,,,,,,,,,,,,,,,,,,,,,,,,,,,,,,,,,,,,,,,,,,,,,,,,,,,,,,,,,,,,,,,,,232.3562588999048,None,4000.0,0.0,8.394020090612804e-05,1,"[0.7309782739677065, 0.49996304603904473, 0.5460589666082446, 0.7926789702625047]","[1587.4010519682001, 2000.0000000000007, 2519.842099789747, 3174.8021039363994]",Major_3rd,"[5.350645207416182, 3.2454748692368316, 3.106486730434091, 4.276055605350804]",False,233.44906639994588,236.2554528999608,236.2554528999608,237.48392639996018,['space'],1,3.6048033399274573,4.617728739860468,None,1,None,1,[0.39106679998803884],,,,,,,moiern,001,fr,0,0,2022-07-08_14h07.09.994,Cluster,2022.1.1,34.626194650552165,
,,,,0,0,0,0,16,0,16,0,,,frequency,,,,,,,,,,,,,,,,,,,,,,,,,,,,,,,,,,,,,,,,,,,,,,,,,,,,,,,,,,,,,,,,,,,,,,,,,,,,,,,,,,,,,,,,,,,,,,,,,,,,,,,,,,,,,,,,,,,,238.09713579993695,None,3700.183613903028,-2.121441970068926,6.162781345104042e-05,1,"[0.6559422610468715, 0.6971616132277377, 0.5170070627093557, 0.6358367785436582]","[5873.67536118516, 5232.849850052354, 4661.939223632508, 4153.315678382371]",Tone,"[6.0, 4.0, 3.2084435504672473, 3.2678250711198187]",False,239.09255059994757,241.99016259994823,241.99016259994823,243.22541590000037,['space'],1,3.5334559198236093,4.562297519762069,None,1,None,1,[0.40960030001588166],,,,,,,moiern,001,fr,0,0,2022-07-08_14h07.09.994,Cluster,2022.1.1,34.626194650552165,
,,,,0,0,0,0,17,0,17,0,,,none,,,,,,,,,,,,,,,,,,,,,,,,,,,,,,,,,,,,,,,,,,,,,,,,,,,,,,,,,,,,,,,,,,,,,,,,,,,,,,,,,,,,,,,,,,,,,,,,,,,,,,,,,,,,,,,,,,,,243.6972427999135,None,2297.3967099940687,0.0,8.14042568960799e-05,1,"[0.47181572241574116, 0.6396520345591873, 0.5187827337390809, 0.7936515955513649]","[7010.450892758076, 293.82567762578583, 1529.819138011059, 6675.758478940157]",None,"[8.183632258325732, 3.0, 6.0, 7.153997528836262]",False,244.7245531999506,247.36494239990134,247.36494239990134,248.57890799990855,['space'],1,3.426217519911006,4.452683119801804,None,1,None,1,[0.45636800001375377],,,,,,,moiern,001,fr,0,0,2022-07-08_14h07.09.994,Cluster,2022.1.1,34.626194650552165,
,,,,0,0,0,0,18,0,18,0,,,time,,,,,,,,,,,,,,,,,,,,,,,,,,,,,,,,,,,,,,,,,,,,,,,,,,,,,,,,,,,,,,,,,,,,,,,,,,,,,,,,,,,,,,,,,,,,,,,,,,,,,,,,,,,,,,,,,,,,249.22289189998992,None,406.12619817811805,1.0,8.55441952378509e-05,1,"[0.7662638659759224, 0.7662638659759224, 0.7662638659759224, 0.7662638659759224]","[3391.160755220404, 2252.370802998018, 582.8156195466662, 302.91557592432935]",None,"[4.165649081379183, 2.8857393249623646, 3.0, 3.5745719369322506]",False,250.24131519999355,253.58377829997335,253.58377829997335,254.8026181999594,['space'],1,4.084337419946678,5.1150066199479625,None,1,None,1,[0.5127442999510095],,,,,,,moiern,001,fr,0,0,2022-07-08_14h07.09.994,Cluster,2022.1.1,34.626194650552165,
,,,,0,0,0,0,19,0,19,0,,,frequency,,,,,,,,,,,,,,,,,,,,,,,,,,,,,,,,,,,,,,,,,,,,,,,,,,,,,,,,,,,,,,,,,,,,,,,,,,,,,,,,,,,,,,,,,,,,,,,,,,,,,,,,,,,,,,,,,,,,255.41352920001373,None,1515.7165665103996,-3.0,3.5135546789290564e-05,0,"[0.46915621973843874, 0.6483857476293, 0.759061046650165, 0.4590433351195794]","[601.5125180410591, 757.8582832552, 954.8416039104177, 1203.025036082118]",Major_3rd,"[2.8230616391586922, 3.092109227946553, 5.0, 6.683787031380474]",False,256.43394699995406,259.33910749992356,259.33910749992356,260.5652013999643,None,0,3.382654359797016,4.411783159826882,None,1,None,1,,,,,,,,moiern,001,fr,0,0,2022-07-08_14h07.09.994,Cluster,2022.1.1,34.626194650552165,
,,,,1,0,1,0,0,0,0,0,,,time,,,,,,,,,,,,,,,,,,,,,,,,,,,,,,,,,,,,,,,,,,,,,,,,,,,,,,,,,,,,,,,,,,,,,,,,,,,,,,,,,,,,,,,,,,,,,,,,,,,,,,,,,,,,,,,,,,,,264.64944740000647,None,299.54004026359394,-2.4254280630677494,8.698107349832284e-05,0,"[0.4272201315486347, 0.4272201315486347, 0.4272201315486347, 0.4272201315486347]","[311.7038194330174, 434.6822214461341, 613.295319504681, 6581.618440909392]",None,"[3.5745719369322506, 4.279008570326855, 2.8230616391586922, 7.153997528836262]",False,265.6306220999686,267.9289529999951,267.9289529999951,269.1560307999607,None,0,2.7543816197430715,3.7841079197824,None,1,None,1,,,,,,,,moiern,001,fr,0,0,2022-07-08_14h07.09.994,Cluster,2022.1.1,34.626194650552165,
,,,,1,0,1,0,1,0,1,0,,,frequency,,,,,,,,,,,,,,,,,,,,,,,,,,,,,,,,,,,,,,,,,,,,,,,,,,,,,,,,,,,,,,,,,,,,,,,,,,,,,,,,,,,,,,,,,,,,,,,,,,,,,,,,,,,,,,,,,,,,269.4649777999148,None,,,,,"[0.5181632834017879, 0.6454691386011915, 0.6388334430873555, 0.6341725015956858]","[316.85040262804614, 474.7392005688274, 711.3051038830524, 1065.7534709664806]",Perfect_5th,"[3.5745719369322506, 4.0, 2.840435712491632, 5.860518223616085]",True,270.46799149992876,273.28700489993207,273.28700489993207,274.5061744999839,None,1,3.4683608198538423,4.486284519778565,None,1,None,1,,0,,,,,,moiern,001,fr,0,0,2022-07-08_14h07.09.994,Cluster,2022.1.1,34.626194650552165,
,,,,1,0,1,0,2,0,2,0,,,frequency,,,,,,,,,,,,,,,,,,,,,,,,,,,,,,,,,,,,,,,,,,,,,,,,,,,,,,,,,,,,,,,,,,,,,,,,,,,,,,,,,,,,,,,,,,,,,,,,,,,,,,,,,,,,,,,,,,,,274.99363079993054,None,171.6025886389434,-7.071975801245284,0.00016340622934714186,1,"[0.7568499800268501, 0.5681232384632052, 0.6744876042366661, 0.689707659109348]","[432.41142728531116, 343.2051772778868, 272.4021297259249, 216.20571364265558]",Major_3rd,"[4.279008570326855, 4.323537744665273, 2.313053696080658, 0.16444291805212163]",False,275.99223319999874,279.0082193999551,279.0082193999551,280.2425407000119,['space'],1,3.7157503198832273,4.749493319890462,None,1,None,1,[0.5058453000383452],,,,,,,moiern,001,fr,0,0,2022-07-08_14h07.09.994,Cluster,2022.1.1,34.626194650552165,
,,,,1,0,1,0,3,0,3,0,,,time,,,,,,,,,,,,,,,,,,,,,,,,,,,,,,,,,,,,,,,,,,,,,,,,,,,,,,,,,,,,,,,,,,,,,,,,,,,,,,,,,,,,,,,,,,,,,,,,,,,,,,,,,,,,,,,,,,,,280.79206669994164,None,2462.2888266898335,0.0,8.505946547995337e-05,1,"[0.6480184387260378, 0.6480184387260378, 0.6480184387260378, 0.6480184387260378]","[545.881368516379, 247.27536708118853, 3495.5436365205, 2217.6432250595385]",None,"[3.332236962200369, 1.5706783981663497, 4.165649081379183, 2.9203225638743593]",False,281.8177144000074,284.7813935999293,284.7813935999293,286.01262389996555,['space'],1,3.6401109598809853,4.642445359844714,None,1,None,1,[0.5415406000101939],,,,,,,moiern,001,fr,0,0,2022-07-08_14h07.09.994,Cluster,2022.1.1,34.626194650552165,
,,,,1,0,1,0,4,0,4,0,,,frequency,,,,,,,,,,,,,,,,,,,,,,,,,,,,,,,,,,,,,,,,,,,,,,,,,,,,,,,,,,,,,,,,,,,,,,,,,,,,,,,,,,,,,,,,,,,,,,,,,,,,,,,,,,,,,,,,,,,,286.49172449996695,None,707.1067811865476,-2.0,3.527051522850936e-05,1,"[0.4414660320130649, 0.6778600963674284, 0.5017781309034277, 0.523136921685976]","[1122.4620483093734, 1000.0000000000002, 890.8987181403395, 793.7005259840998]",Tone,"[6.372236586911086, 5.254994528763916, 4.000957316205357, 3.4838960020331875]",False,287.51172770000994,290.18858600000385,290.18858600000385,291.3920668999199,['space'],1,3.164815619937144,4.17795281985309,None,1,None,1,[0.39507760002743453],,,,,,,moiern,001,fr,0,0,2022-07-08_14h07.09.994,Cluster,2022.1.1,34.626194650552165,
,,,,1,0,1,0,5,0,5,0,,,both,,,,,,,,,,,,,,,,,,,,,,,,,,,,,,,,,,,,,,,,,,,,,,,,,,,,,,,,,,,,,,,,,,,,,,,,,,,,,,,,,,,,,,,,,,,,,,,,,,,,,,,,,,,,,,,,,,,,291.74356969993096,None,2462.2888266898335,-1.0,7.580932840616338e-05,1,"[0.47407285235494667, 0.47407285235494667, 0.47407285235494667, 0.47407285235494667]","[1551.144761833735, 1741.1011265922486, 1954.3199368684925, 2193.6499593892527]",Tone,"[6.0, 4.560991461741839, 3.2454748692368316, 2.9203225638743593]",False,292.76689829991665,295.22419109998737,295.22419109998737,296.46027319994755,['space'],1,2.911091719986871,3.9421311198966578,None,1,None,1,[0.3617186000337824],,,,,,,moiern,001,fr,0,0,2022-07-08_14h07.09.994,Cluster,2022.1.1,34.626194650552165,
,,,,1,0,1,0,6,0,6,0,,,none,,,,,,,,,,,,,,,,,,,,,,,,,,,,,,,,,,,,,,,,,,,,,,,,,,,,,,,,,,,,,,,,,,,,,,,,,,,,,,,,,,,,,,,,,,,,,,,,,,,,,,,,,,,,,,,,,,,,296.75936209992506,None,6600.355788657519,1.1539975288362623,0.0001588788039299053,0,"[0.6003011315273972, 0.6966719973518944, 0.7607949971931423, 0.4341782970766157]","[240.7810294925257, 2106.829282668175, 128.60943851401998, 3348.9911678338385]",None,"[1.0, 3.0, -0.4750503134073103, 4.276055605350804]",False,297.7528345999308,300.82625399995595,300.82625399995595,302.0351163999876,None,0,3.510497519862838,4.514567619888112,None,1,None,1,,,,,,,,moiern,001,fr,0,0,2022-07-08_14h07.09.994,Cluster,2022.1.1,34.626194650552165,
,,,,1,0,1,0,7,0,7,0,,,both,,,,,,,,,,,,,,,,,,,,,,,,,,,,,,,,,,,,,,,,,,,,,,,,,,,,,,,,,,,,,,,,,,,,,,,,,,,,,,,,,,,,,,,,,,,,,,,,,,,,,,,,,,,,,,,,,,,,302.3188441999955,None,5958.158031625288,0.0,0.00011741271044595866,1,"[0.5342349993512141, 0.5342349993512141, 0.5342349993512141, 0.5342349993512141]","[2364.4965817986904, 2979.0790158126447, 3753.4043613224526, 4728.99316359738]",Major_3rd,"[3.0, 4.168932372875219, 3.878558029931074, 3.2084435504672473]",False,303.3290151999099,305.9664216999663,305.9664216999663,307.2037277999334,['space'],1,3.1742980199633166,4.20942671992816,None,1,None,1,[0.256880100001581],,,,,,,moiern,001,fr,0,0,2022-07-08_14h07.09.994,Cluster,2022.1.1,34.626194650552165,
,,,,1,0,1,0,8,0,8,0,,,none,,,,,,,,,,,,,,,,,,,,,,,,,,,,,,,,,,,,,,,,,,,,,,,,,,,,,,,,,,,,,,,,,,,,,,,,,,,,,,,,,,,,,,,,,,,,,,,,,,,,,,,,,,,,,,,,,,,,307.58385769999586,None,3732.1319661472303,0.0,7.923801780976663e-05,1,"[0.5671906029015041, 0.7852140878531695, 0.6371090057903851, 0.7269920193319768]","[1736.8802043169671, 3302.1338504299156, 222.13651833672805, 188.12945498916284]",None,"[4.560991461741839, 4.276055605350804, 0.16444291805212163, -0.813030767644773]",False,308.6075053999666,311.6377885999391,311.6377885999391,312.8739034999162,['space'],1,3.7533348598517478,4.778982059913687,None,1,None,1,[0.4026419000001624],,,,,,,moiern,001,fr,0,0,2022-07-08_14h07.09.994,Cluster,2022.1.1,34.626194650552165,
,,,,1,0,1,0,9,0,9,0,,,time,,,,,,,,,,,,,,,,,,,,,,,,,,,,,,,,,,,,,,,,,,,,,,,,,,,,,,,,,,,,,,,,,,,,,,,,,,,,,,,,,,,,,,,,,,,,,,,,,,,,,,,,,,,,,,,,,,,,313.41540439997334,None,1767.099559747977,-1.439008538258161,5.447921720425086e-05,0,"[0.5135428744173172, 0.5135428744173172, 0.5135428744173172, 0.5135428744173172]","[921.1439106401111, 1311.6304246974, 2557.7046136990607, 3702.6477362476603]",None,"[4.606256195904452, 6.747195786821025, 3.474299885712254, 3.878558029931074]",False,314.40728739998303,316.97943449998274,316.97943449998274,318.2111509999959,None,0,3.073551519890316,4.107642919872887,None,1,None,1,,,,,,,,moiern,001,fr,0,0,2022-07-08_14h07.09.994,Cluster,2022.1.1,34.626194650552165,
,,,,1,0,1,0,10,0,10,0,,,both,,,,,,,,,,,,,,,,,,,,,,,,,,,,,,,,,,,,,,,,,,,,,,,,,,,,,,,,,,,,,,,,,,,,,,,,,,,,,,,,,,,,,,,,,,,,,,,,,,,,,,,,,,,,,,,,,,,,318.5669003999792,None,1515.7165665103996,-4.0,3.131458903779733e-05,1,"[0.7272276325903728, 0.7272276325903728, 0.7272276325903728, 0.7272276325903728]","[3819.3664156416708, 3031.4331330207997, 2406.050072164236, 1909.6832078208352]",Major_3rd,"[3.878558029931074, 4.168932372875219, 3.0, 3.814699611797265]",False,319.65835689997766,322.884718199959,322.884718199959,324.1181115999352,['space'],1,3.9353450399357826,4.969559639925137,None,1,None,1,[0.4339798999717459],,,,,,,moiern,001,fr,0,0,2022-07-08_14h07.09.994,Cluster,2022.1.1,34.626194650552165,
,,,,1,0,1,0,11,0,11,0,,,none,,,,,,,,,,,,,,,,,,,,,,,,,,,,,,,,,,,,,,,,,,,,,,,,,,,,,,,,,,,,,,,,,,,,,,,,,,,,,,,,,,,,,,,,,,,,,,,,,,,,,,,,,,,,,,,,,,,,324.6628609999316,None,,,,,"[0.4928589472856015, 0.5022679251954071, 0.4251467379971961, 0.6856638868816908]","[297.92026774486055, 876.8558734987959, 365.3733515389764, 7646.662208971989]",None,"[3.5745719369322506, 4.000957316205357, 4.323537744665273, 9.0]",True,325.67752159992233,328.12749449990224,328.12749449990224,329.3565227999352,None,1,3.1471770198550075,4.1809606198221445,None,1,None,1,,0,,,,,,moiern,001,fr,0,0,2022-07-08_14h07.09.994,Cluster,2022.1.1,34.626194650552165,
,,,,1,0,1,0,12,0,12,0,,,frequency,,,,,,,,,,,,,,,,,,,,,,,,,,,,,,,,,,,,,,,,,,,,,,,,,,,,,,,,,,,,,,,,,,,,,,,,,,,,,,,,,,,,,,,,,,,,,,,,,,,,,,,,,,,,,,,,,,,,329.8986831000075,None,4308.9228523158545,-2.7321749288801813,7.680510276965804e-05,1,"[0.6413024743724577, 0.5050984956479511, 0.5852900805341149, 0.7181248239720559]","[2714.4513020029012, 3046.868568482221, 3419.994334308001, 3838.813845693809]",Tone,"[3.474299885712254, 4.168932372875219, 4.165649081379183, 3.878558029931074]",False,330.91545739991125,333.6981835999759,333.6981835999759,334.9347406999441,['space'],1,3.4840918199624866,4.516230019973591,None,1,None,1,[0.5336824000114575],,,,,,,moiern,001,fr,0,0,2022-07-08_14h07.09.994,Cluster,2022.1.1,34.626194650552165,
,,,,1,0,1,0,13,0,13,0,,,both,,,,,,,,,,,,,,,,,,,,,,,,,,,,,,,,,,,,,,,,,,,,,,,,,,,,,,,,,,,,,,,,,,,,,,,,,,,,,,,,,,,,,,,,,,,,,,,,,,,,,,,,,,,,,,,,,,,,335.48243229999207,None,2824.059417325633,-2.133404810049627,5.1436844577288775e-05,1,"[0.5130259955610768, 0.5130259955610768, 0.5130259955610768, 0.5130259955610768]","[7116.183812084832, 5648.118834651267, 4482.914889883411, 3558.0919060424158]",Major_3rd,"[8.183632258325732, 4.930889606701771, 3.2084435504672473, 4.0]",False,336.5004509999417,339.0674369999906,339.0674369999906,340.3008497999981,['space'],1,3.068551620002836,4.100431919912808,None,1,None,1,[0.47595660004299134],,,,,,,moiern,001,fr,0,0,2022-07-08_14h07.09.994,Cluster,2022.1.1,34.626194650552165,
,,,,1,0,1,0,14,0,14,0,,,frequency,,,,,,,,,,,,,,,,,,,,,,,,,,,,,,,,,,,,,,,,,,,,,,,,,,,,,,,,,,,,,,,,,,,,,,,,,,,,,,,,,,,,,,,,,,,,,,,,,,,,,,,,,,,,,,,,,,,,340.6569120999193,None,1148.6983549970344,-3.0,3.5589898729636516e-05,1,"[0.4841781968125398, 0.6785715521307298, 0.5812844896433125, 0.5878644255365995]","[1823.4449771164332, 1624.5047927124706, 1447.2692374403775, 1289.3703084395786]",Tone,"[4.0, 5.350645207416182, 6.530561368431182, 6.747195786821025]",False,341.68978079990484,344.4764674999751,344.4764674999751,345.707296699984,['space'],1,3.3584256599424407,4.397522559971549,None,1,None,1,[0.7655941999983042],,,,,,,moiern,001,fr,0,0,2022-07-08_14h07.09.994,Cluster,2022.1.1,34.626194650552165,
,,,,1,0,1,0,15,0,15,0,,,both,,,,,,,,,,,,,,,,,,,,,,,,,,,,,,,,,,,,,,,,,,,,,,,,,,,,,,,,,,,,,,,,,,,,,,,,,,,,,,,,,,,,,,,,,,,,,,,,,,,,,,,,,,,,,,,,,,,,346.1233107999433,None,,,,,"[0.6837116554983758, 0.6837116554983758, 0.6837116554983758, 0.6837116554983758]","[6372.736091121994, 5677.462414627261, 5058.043987481382, 4506.2049047446135]",Tone,"[7.0, 5.0, 3.45311567350506, 3.2084435504672473]",True,347.135096999933,350.21608569996897,350.21608569996897,351.44560189999174,None,1,3.7508881198009476,4.782566819805652,None,1,None,1,,0,,,,,,moiern,001,fr,0,0,2022-07-08_14h07.09.994,Cluster,2022.1.1,34.626194650552165,
,,,,1,0,1,0,16,0,16,0,,,frequency,,,,,,,,,,,,,,,,,,,,,,,,,,,,,,,,,,,,,,,,,,,,,,,,,,,,,,,,,,,,,,,,,,,,,,,,,,,,,,,,,,,,,,,,,,,,,,,,,,,,,,,,,,,,,,,,,,,,351.9631735999137,None,711.4980496490059,-3.159564287508368,3.059502179630557e-05,1,"[0.7895478418505666, 0.7526243781332941, 0.7116941571473443, 0.7731915643493186]","[282.3581881215386, 355.749024824503, 448.2156848559651, 564.7163762430771]",Major_3rd,"[2.991557543137688, 4.323537744665273, 4.279008570326855, 3.0299226339438463]",False,352.97326949995477,356.2586534000002,356.2586534000002,357.4757693000138,['space'],1,4.046219119918533,5.06987201992888,None,1,None,1,[0.513612600043416],,,,,,,moiern,001,fr,0,0,2022-07-08_14h07.09.994,Cluster,2022.1.1,34.626194650552165,
,,,,1,0,1,0,17,0,17,0,,,frequency,,,,,,,,,,,,,,,,,,,,,,,,,,,,,,,,,,,,,,,,,,,,,,,,,,,,,,,,,,,,,,,,,,,,,,,,,,,,,,,,,,,,,,,,,,,,,,,,,,,,,,,,,,,,,,,,,,,,358.0823268999811,None,2000.0,-1.0,6.667607160816621e-05,1,"[0.5191849914864739, 0.6757289777201789, 0.6033217836448929, 0.48509284468024627]","[3174.8021039364003, 2828.427124746191, 2519.842099789747, 2244.9240966187463]",Tone,"[4.276055605350804, 3.866595189950373, 3.106486730434091, 2.8857393249623646]",False,359.73813730000984,362.5613359999843,362.5613359999843,363.77412269997876,['space'],1,3.3045617397874594,4.328806939767674,None,1,None,1,[0.45252809999510646],,,,,,,moiern,001,fr,0,0,2022-07-08_14h07.09.994,Cluster,2022.1.1,34.626194650552165,
,,,,1,0,1,0,18,0,18,0,,,both,,,,,,,,,,,,,,,,,,,,,,,,,,,,,,,,,,,,,,,,,,,,,,,,,,,,,,,,,,,,,,,,,,,,,,,,,,,,,,,,,,,,,,,,,,,,,,,,,,,,,,,,,,,,,,,,,,,,364.11547049996443,None,535.8867312681471,-2.0,5.230361854194559e-05,1,"[0.6734221606893909, 0.6734221606893909, 0.6734221606893909, 0.6734221606893909]","[212.66679023771422, 267.94336563407364, 337.5874865420479, 425.3335804754283]",Major_3rd,"[0.0, 2.313053696080658, 4.0233960137397595, 4.279008570326855]",False,365.1116600999376,368.16399149992503,368.16399149992503,369.3652078999439,['space'],1,3.7007551200222224,4.72506272001192,None,1,None,1,[0.3310554000781849],,,,,,,moiern,001,fr,0,0,2022-07-08_14h07.09.994,Cluster,2022.1.1,34.626194650552165,
,,,,1,0,1,0,19,0,19,0,,,time,,,,,,,,,,,,,,,,,,,,,,,,,,,,,,,,,,,,,,,,,,,,,,,,,,,,,,,,,,,,,,,,,,,,,,,,,,,,,,,,,,,,,,,,,,,,,,,,,,,,,,,,,,,,,,,,,,,,369.8874741999898,None,,,,,"[0.6398691504942733, 0.6398691504942733, 0.6398691504942733, 0.6398691504942733]","[1119.051493829536, 3021.162574810018, 1078.644399425261, 155.57547438209474]",None,"[6.0, 4.168932372875219, 5.860518223616085, -1.136210621316466]",True,370.89797869999893,373.83629879995715,373.83629879995715,375.0494437000016,None,1,3.5867226199479774,4.606543219881132,None,1,None,1,,0,,,,,,moiern,001,fr,0,0,2022-07-08_14h07.09.994,Cluster,2022.1.1,34.626194650552165,
,,,,2,0,2,0,0,0,0,0,,,frequency,,,,,,,,,,,,,,,,,,,,,,,,,,,,,,,,,,,,,,,,,,,,,,,,,,,,,,,,,,,,,,,,,,,,,,,,,,,,,,,,,,,,,,,,,,,,,,,,,,,,,,,,,,,,,,,,,,,,377.29401459998917,None,256.58021725755583,-4.0,0.00010127595927804023,1,"[0.42547968796214747, 0.6153193333190695, 0.6290991801891972, 0.6055668899577793]","[161.63540835469718, 181.42961154113533, 203.64785339443662, 228.58698665492625]",Tone,"[-1.1722083607040013, -1.0, -0.40430455611886007, 0.8322732586028652]",False,378.2809753000038,380.9848732999526,380.9848732999526,382.2150813000044,['space'],1,3.2929478199221194,4.315460119978525,None,1,None,1,[0.4290083999512717],,,,,,,moiern,001,fr,0,0,2022-07-08_14h07.09.994,Cluster,2022.1.1,34.626194650552165,
,,,,2,0,2,0,1,0,1,0,,,time,,,,,,,,,,,,,,,,,,,,,,,,,,,,,,,,,,,,,,,,,,,,,,,,,,,,,,,,,,,,,,,,,,,,,,,,,,,,,,,,,,,,,,,,,,,,,,,,,,,,,,,,,,,,,,,,,,,,382.6468040999025,None,189.4645708137998,-1.0,0.00027077274687630263,1,"[0.7151984850027552, 0.7151984850027552, 0.7151984850027552, 0.7151984850027552]","[167.1475260081369, 970.0643412778431, 1952.7137096064278, 3938.4475065689203]",None,"[-1.1722083607040013, 5.0, 3.2454748692368316, 3.5351726824326306]",False,383.67408649995923,386.8612025999464,386.8612025999464,388.0835708999075,['space'],1,3.900355859892443,4.905613859882578,None,1,None,1,[0.44970259990077466],,,,,,,moiern,001,fr,0,0,2022-07-08_14h07.09.994,Cluster,2022.1.1,34.626194650552165,
,,,,2,0,2,0,2,0,2,0,,,both,,,,,,,,,,,,,,,,,,,,,,,,,,,,,,,,,,,,,,,,,,,,,,,,,,,,,,,,,,,,,,,,,,,,,,,,,,,,,,,,,,,,,,,,,,,,,,,,,,,,,,,,,,,,,,,,,,,,388.6083204000024,None,237.77984025769393,-5.0,0.00010764581419755679,0,"[0.5001405405582882, 0.5001405405582882, 0.5001405405582882, 0.5001405405582882]","[1198.3353039252358, 799.7928611691829, 533.7976930846532, 356.26721739670967]",Perfect_5th,"[6.683787031380474, 3.4838960020331875, 3.332236962200369, 4.323537744665273]",False,389.62130499992054,392.14592409995385,392.14592409995385,393.3457664999878,None,0,3.015967319952324,4.0245314199710265,None,1,None,1,,,,,,,,moiern,001,fr,0,0,2022-07-08_14h07.09.994,Cluster,2022.1.1,34.626194650552165,
,,,,2,0,2,0,3,0,3,0,,,both,,,,,,,,,,,,,,,,,,,,,,,,,,,,,,,,,,,,,,,,,,,,,,,,,,,,,,,,,,,,,,,,,,,,,,,,,,,,,,,,,,,,,,,,,,,,,,,,,,,,,,,,,,,,,,,,,,,,393.6832343999995,None,,,,,"[0.5056462226009348, 0.5056462226009348, 0.5056462226009348, 0.5056462226009348]","[204.58190612442016, 306.5265177471396, 459.270850790905, 688.1287659431874]",Perfect_5th,"[-0.40430455611886007, 3.5745719369322506, 4.005196534947492, 2.840435712491632]",True,394.6885267999023,397.2395465999143,397.2395465999143,398.45499879994895,None,1,3.0494601199170575,4.0597939199069515,None,1,['space'],0,,0,[-3.4849034999497235],,,,,moiern,001,fr,0,0,2022-07-08_14h07.09.994,Cluster,2022.1.1,34.626194650552165,
,,,,2,0,2,0,4,0,4,0,,,both,,,,,,,,,,,,,,,,,,,,,,,,,,,,,,,,,,,,,,,,,,,,,,,,,,,,,,,,,,,,,,,,,,,,,,,,,,,,,,,,,,,,,,,,,,,,,,,,,,,,,,,,,,,,,,,,,,,,398.7854115999071,None,4000.0,-4.0,5.296268625886443e-05,1,"[0.6239478161424666, 0.6239478161424666, 0.6239478161424666, 0.6239478161424666]","[2519.842099789746, 2828.4271247461897, 3174.802103936399, 3563.594872561357]",Tone,"[3.106486730434091, 3.866595189950373, 4.276055605350804, 4.0]",False,399.8077375999419,402.72373139997944,402.72373139997944,403.9551370999543,['space'],1,3.4980349198449403,4.525903419940732,None,1,None,1,[0.41191179992165416],,,,,,,moiern,001,fr,0,0,2022-07-08_14h07.09.994,Cluster,2022.1.1,34.626194650552165,
,,,,2,0,2,0,5,0,5,0,,,none,,,,,,,,,,,,,,,,,,,,,,,,,,,,,,,,,,,,,,,,,,,,,,,,,,,,,,,,,,,,,,,,,,,,,,,,,,,,,,,,,,,,,,,,,,,,,,,,,,,,,,,,,,,,,,,,,,,,404.40003009990323,None,280.7969401135417,-3.008442456862312,9.537810350198982e-05,0,"[0.7402397557962052, 0.5849916610411215, 0.6259065634578969, 0.5971306844375678]","[1169.7236539707887, 826.2952379131008, 1964.1004135498897, 639.458096298956]",None,"[6.372236586911086, 3.4838960020331875, 3.2454748692368316, 2.754373837127009]",False,405.4080362999812,408.3777434999356,408.3777434999356,409.5956157000037,None,0,3.5873141199117526,4.618704319931567,None,1,None,1,,,,,,,,moiern,001,fr,0,0,2022-07-08_14h07.09.994,Cluster,2022.1.1,34.626194650552165,
,,,,2,0,2,0,6,0,6,0,,,frequency,,,,,,,,,,,,,,,,,,,,,,,,,,,,,,,,,,,,,,,,,,,,,,,,,,,,,,,,,,,,,,,,,,,,,,,,,,,,,,,,,,,,,,,,,,,,,,,,,,,,,,,,,,,,,,,,,,,,410.07652669993695,None,125.0,-5.0,0.00040641525808204974,1,"[0.6411844931088673, 0.45903513636618154, 0.5542709683119414, 0.4658932990518095]","[314.9802624737183, 250.00000000000003, 198.42513149602496, 157.49013123685916]",Major_3rd,"[3.5745719369322506, 1.5706783981663497, -0.40430455611886007, -1.136210621316466]",False,411.1183534999145,413.7974286999088,413.7974286999088,415.0024541999446,['space'],1,3.147679360001348,4.183820959995501,None,1,None,1,[0.4684664000524208],,,,,,,moiern,001,fr,0,0,2022-07-08_14h07.09.994,Cluster,2022.1.1,34.626194650552165,
,,,,2,0,2,0,7,0,7,0,,,both,,,,,,,,,,,,,,,,,,,,,,,,,,,,,,,,,,,,,,,,,,,,,,,,,,,,,,,,,,,,,,,,,,,,,,,,,,,,,,,,,,,,,,,,,,,,,,,,,,,,,,,,,,,,,,,,,,,,415.3434940999141,None,408.79427966882,-1.5631242693138176,6.357070920165556e-05,1,"[0.47727377517274405, 0.47727377517274405, 0.47727377517274405, 0.47727377517274405]","[648.9204695848673, 578.1224145281853, 515.0485180313582, 458.8560644942184]",Tone,"[2.754373837127009, 3.0, 3.6707912903203397, 4.005196534947492]",False,416.356944500003,418.80428119993303,418.80428119993303,420.0308615999529,['space'],1,2.9426938198739663,3.948738419916481,None,1,None,1,[0.473648100043647],,,,,,,moiern,001,fr,0,0,2022-07-08_14h07.09.994,Cluster,2022.1.1,34.626194650552165,
,,,,2,0,2,0,8,0,8,0,,,both,,,,,,,,,,,,,,,,,,,,,,,,,,,,,,,,,,,,,,,,,,,,,,,,,,,,,,,,,,,,,,,,,,,,,,,,,,,,,,,,,,,,,,,,,,,,,,,,,,,,,,,,,,,,,,,,,,,,420.3467663999181,None,125.0,-5.0,0.00040641525808204974,1,"[0.5938965202876552, 0.5938965202876552, 0.5938965202876552, 0.5938965202876552]","[629.9605249474366, 420.4482076268573, 280.6155120773433, 187.2883846095852]",Perfect_5th,"[2.8230616391586922, 4.436875730686182, 2.991557543137688, -0.813030767644773]",False,422.01252009999007,424.8054063000018,424.8054063000018,426.03615059994627,['space'],1,3.387751239934005,4.410786539898254,None,1,None,1,[0.3128279000520706],,,,,,,moiern,001,fr,0,0,2022-07-08_14h07.09.994,Cluster,2022.1.1,34.626194650552165,
,,,,2,0,2,0,9,0,9,0,,,frequency,,,,,,,,,,,,,,,,,,,,,,,,,,,,,,,,,,,,,,,,,,,,,,,,,,,,,,,,,,,,,,,,,,,,,,,,,,,,,,,,,,,,,,,,,,,,,,,,,,,,,,,,,,,,,,,,,,,,426.46189829998184,None,,,,,"[0.7812287341021797, 0.6139741207431858, 0.40004399419962555, 0.4706648836975784]","[152.4396046488667, 228.40133844168042, 342.2153417552758, 512.7436683677018]",Perfect_5th,"[-1.136210621316466, 0.8322732586028652, 4.323537744665273, 3.6707912903203397]",True,427.4610470999032,430.26987909991294,430.26987909991294,431.4770594999427,None,1,3.2821119198342785,4.2929709198651835,None,1,None,1,,0,,,,,,moiern,001,fr,0,0,2022-07-08_14h07.09.994,Cluster,2022.1.1,34.626194650552165,
,,,,2,0,2,0,10,0,10,0,,,time,,,,,,,,,,,,,,,,,,,,,,,,,,,,,,,,,,,,,,,,,,,,,,,,,,,,,,,,,,,,,,,,,,,,,,,,,,,,,,,,,,,,,,,,,,,,,,,,,,,,,,,,,,,,,,,,,,,,431.79404800001066,None,1022.7093584744936,-0.7450054712360834,4.1303279969429646e-05,1,"[0.6027397891157834, 0.6027397891157834, 0.6027397891157834, 0.6027397891157834]","[607.2323096175013, 299.81677946829615, 281.3301537478265, 162.9487952903189]",None,"[2.8230616391586922, 3.5745719369322506, 2.991557543137688, -1.1722083607040013]",False,432.8008171999827,435.6469164999435,435.6469164999435,436.8765734999906,['space'],1,3.4461249199230224,4.461362519883551,None,1,None,1,[0.38020680006593466],,,,,,,moiern,001,fr,0,0,2022-07-08_14h07.09.994,Cluster,2022.1.1,34.626194650552165,
,,,,2,0,2,0,11,0,11,0,,,frequency,,,,,,,,,,,,,,,,,,,,,,,,,,,,,,,,,,,,,,,,,,,,,,,,,,,,,,,,,,,,,,,,,,,,,,,,,,,,,,,,,,,,,,,,,,,,,,,,,,,,,,,,,,,,,,,,,,,,437.3085505999625,None,130.7123016101541,-6.761321206828752,0.0003084718333236526,0,"[0.6913777753724679, 0.6146954203400631, 0.7046940252450995, 0.5714141180313737]","[207.4928450811432, 184.8551097060825, 164.68718027884069, 146.71959780456612]",Tone,"[-0.40430455611886007, -0.813030767644773, -1.1722083607040013, -1.0]",False,438.30436889990233,441.35121769993566,441.35121769993566,442.55515899998136,None,0,3.618173419847153,4.647946119890548,None,1,None,1,,,,,,,,moiern,001,fr,0,0,2022-07-08_14h07.09.994,Cluster,2022.1.1,34.626194650552165,
,,,,2,0,2,0,12,0,12,0,,,time,,,,,,,,,,,,,,,,,,,,,,,,,,,,,,,,,,,,,,,,,,,,,,,,,,,,,,,,,,,,,,,,,,,,,,,,,,,,,,,,,,,,,,,,,,,,,,,,,,,,,,,,,,,,,,,,,,,,443.00385129998904,None,4000.0,-1.0,7.481178280472168e-05,1,"[0.5598838115411966, 0.5598838115411966, 0.5598838115411966, 0.5598838115411966]","[3025.1154537753637, 194.5524772461913, 474.37943643268835, 3218.7958352023975]",None,"[4.168932372875219, -0.813030767644773, 4.0, 4.276055605350804]",False,444.0212525000097,446.711526399944,446.711526399944,447.9349101999542,['space'],1,3.2579607198713347,4.290290319942869,None,1,None,1,[0.42450670001562685],,,,,,,moiern,001,fr,0,0,2022-07-08_14h07.09.994,Cluster,2022.1.1,34.626194650552165,
,,,,2,0,2,0,13,0,13,0,,,frequency,,,,,,,,,,,,,,,,,,,,,,,,,,,,,,,,,,,,,,,,,,,,,,,,,,,,,,,,,,,,,,,,,,,,,,,,,,,,,,,,,,,,,,,,,,,,,,,,,,,,,,,,,,,,,,,,,,,,448.41142489993945,None,8000.0,3.0,0.0002564306919956826,1,"[0.5807087930733874, 0.7585120778424271, 0.425775971560038, 0.5083061327197929]","[1587.4010519681997, 2378.4142300054423, 3563.5948725613575, 5339.359416680138]",Perfect_5th,"[5.350645207416182, 3.0, 4.0, 4.046049986249185]",False,449.387590099941,452.1957660999615,452.1957660999615,453.4097484999802,['space'],1,3.2808942198753357,4.30463431996759,None,1,None,1,[0.3288594000041485],,,,,,,moiern,001,fr,0,0,2022-07-08_14h07.09.994,Cluster,2022.1.1,34.626194650552165,
,,,,2,0,2,0,14,0,14,0,,,none,,,,,,,,,,,,,,,,,,,,,,,,,,,,,,,,,,,,,,,,,,,,,,,,,,,,,,,,,,,,,,,,,,,,,,,,,,,,,,,,,,,,,,,,,,,,,,,,,,,,,,,,,,,,,,,,,,,,453.7435578999575,None,,,,,"[0.51104089995181, 0.5403064383063616, 0.5090245541312608, 0.7335091184948938]","[762.7647096744209, 1172.0164793419938, 4854.649549509968, 207.0168155882406]",None,"[3.092109227946553, 6.372236586911086, 3.45311567350506, -0.40430455611886007]",True,454.7442977000028,457.3247013000073,457.3247013000073,458.53822919994127,None,1,3.3340055198641494,4.360631919815205,None,1,None,1,,0,,,,,,moiern,001,fr,0,0,2022-07-08_14h07.09.994,Cluster,2022.1.1,34.626194650552165,
,,,,2,0,2,0,15,0,15,0,,,time,,,,,,,,,,,,,,,,,,,,,,,,,,,,,,,,,,,,,,,,,,,,,,,,,,,,,,,,,,,,,,,,,,,,,,,,,,,,,,,,,,,,,,,,,,,,,,,,,,,,,,,,,,,,,,,,,,,,459.1522441999987,None,3245.5129351737387,-1.7239443946491966,5.796912494776623e-05,1,"[0.4261743320947247, 0.4261743320947247, 0.4261743320947247, 0.4261743320947247]","[474.61315463829857, 7615.603331403374, 1215.7146726768103, 731.5883893720003]",None,"[4.0, 9.0, 6.683787031380474, 3.0]",False,460.1574604999041,462.45682849991135,462.45682849991135,463.67479049996473,['space'],1,2.7424534199526533,3.754901019972749,None,1,None,1,[0.4321201000129804],,,,,,,moiern,001,fr,0,0,2022-07-08_14h07.09.994,Cluster,2022.1.1,34.626194650552165,
,,,,2,0,2,0,16,0,16,0,,,both,,,,,,,,,,,,,,,,,,,,,,,,,,,,,,,,,,,,,,,,,,,,,,,,,,,,,,,,,,,,,,,,,,,,,,,,,,,,,,,,,,,,,,,,,,,,,,,,,,,,,,,,,,,,,,,,,,,,463.9716085999971,None,428.6151185785545,-1.7209914296731452,6.159499868921435e-05,1,"[0.7180480650029196, 0.7180480650029196, 0.7180480650029196, 0.7180480650029196]","[2160.084840801232, 1441.6836669450092, 962.2084078720982, 642.1970654225862]",Perfect_5th,"[2.9203225638743593, 6.530561368431182, 5.0, 2.754373837127009]",False,464.9725053999573,468.150794499903,468.150794499903,469.3673095999984,['space'],1,3.9051070199348032,4.923342919908464,None,1,None,1,[0.7983179999282584],,,,,,,moiern,001,fr,0,0,2022-07-08_14h07.09.994,Cluster,2022.1.1,34.626194650552165,
,,,,2,0,2,0,17,0,17,0,,,none,,,,,,,,,,,,,,,,,,,,,,,,,,,,,,,,,,,,,,,,,,,,,,,,,,,,,,,,,,,,,,,,,,,,,,,,,,,,,,,,,,,,,,,,,,,,,,,,,,,,,,,,,,,,,,,,,,,,469.9389993000077,None,615.5722066724584,0.0,5.34153907348926e-05,1,"[0.7486702948108748, 0.5619010201787366, 0.7679396462945446, 0.6147123466564663]","[3429.1982234294005, 685.0798503035169, 561.7381691984292, 403.5560260661538]",None,"[4.165649081379183, 2.840435712491632, 3.0299226339438463, 4.436875730686182]",False,470.9714425000129,474.08790389995556,474.08790389995556,475.30937259993516,['space'],1,3.732090159901418,4.744944659876637,None,1,None,1,[0.43074139999225736],,,,,,,moiern,001,fr,0,0,2022-07-08_14h07.09.994,Cluster,2022.1.1,34.626194650552165,
,,,,2,0,2,0,18,0,18,0,,,frequency,,,,,,,,,,,,,,,,,,,,,,,,,,,,,,,,,,,,,,,,,,,,,,,,,,,,,,,,,,,,,,,,,,,,,,,,,,,,,,,,,,,,,,,,,,,,,,,,,,,,,,,,,,,,,,,,,,,,475.74434769991785,None,1160.4784278346378,0.37223658691108563,5.298762618203816e-05,1,"[0.6282812365858619, 0.6547431562581327, 0.7557786874938617, 0.7153860270402235]","[230.2680846413883, 345.0123007970308, 516.9343718936975, 774.5264276891294]",Perfect_5th,"[0.8322732586028652, 4.323537744665273, 3.6707912903203397, 3.092109227946553]",False,476.74217420001514,479.7966792999068,479.7966792999068,481.0270365999313,['space'],1,3.784289119881578,4.790937419864349,None,1,None,1,[0.34009399998467416],,,,,,,moiern,001,fr,0,0,2022-07-08_14h07.09.994,Cluster,2022.1.1,34.626194650552165,
,,,,2,0,2,0,19,0,19,0,,,both,,,,,,,,,,,,,,,,,,,,,,,,,,,,,,,,,,,,,,,,,,,,,,,,,,,,,,,,,,,,,,,,,,,,,,,,,,,,,,,,,,,,,,,,,,,,,,,,,,,,,,,,,,,,,,,,,,,,481.5809505999787,None,329.87697769322364,-5.0,5.328686774000889e-05,1,"[0.5794945080305018, 0.5794945080305018, 0.5794945080305018, 0.5794945080305018]","[831.2378961427881, 659.7539553864474, 523.6470614103135, 415.618948071394]",Major_3rd,"[3.4838960020331875, 2.754373837127009, 3.332236962200369, 4.436875730686182]",False,482.59442539990414,485.36496619996615,485.36496619996615,486.5787635999732,['space'],1,3.3242835198761895,4.3475093197776005,None,1,None,1,[0.5192297000903636],,,,,,,moiern,001,fr,0,0,2022-07-08_14h07.09.994,Cluster,2022.1.1,34.626194650552165,
,,,,3,0,3,0,0,0,0,0,,,time,,,,,,,,,,,,,,,,,,,,,,,,,,,,,,,,,,,,,,,,,,,,,,,,,,,,,,,,,,,,,,,,,,,,,,,,,,,,,,,,,,,,,,,,,,,,,,,,,,,,,,,,,,,,,,,,,,,,503.1326180999167,None,615.5722066724584,-3.0,3.781520069199877e-05,1,"[0.740672498610399, 0.740672498610399, 0.740672498610399, 0.740672498610399]","[2018.462036857745, 2507.3483320980445, 429.34326010188784, 1022.2607386985766]",None,"[3.2454748692368316, 3.106486730434091, 4.279008570326855, 5.254994528763916]",False,504.1543294999283,507.42033519991674,507.42033519991674,508.6500650999369,['space'],1,4.008411759859882,5.04130335978698,None,1,None,1,[0.2097318999003619],,,,,,,moiern,001,fr,0,0,2022-07-08_14h07.09.994,Cluster,2022.1.1,34.626194650552165,
,,,,3,0,3,0,1,0,1,0,,,frequency,,,,,,,,,,,,,,,,,,,,,,,,,,,,,,,,,,,,,,,,,,,,,,,,,,,,,,,,,,,,,,,,,,,,,,,,,,,,,,,,,,,,,,,,,,,,,,,,,,,,,,,,,,,,,,,,,,,,509.22673359990586,None,,,,,"[0.5414248760749949, 0.7569470043461548, 0.5733127015141349, 0.40043831164532434]","[242.59817725652496, 272.30724695947936, 305.65455019162346, 343.0856324831697]",Tone,"[1.0, 2.313053696080658, 3.5745719369322506, 4.323537744665273]",True,510.21879199997056,513.1271830999758,513.1271830999758,514.360386999906,None,1,3.3054621199844405,4.323974619968794,None,1,None,1,,0,,,,,,moiern,001,fr,0,0,2022-07-08_14h07.09.994,Cluster,2022.1.1,34.626194650552165,
,,,,3,0,3,0,2,0,2,0,,,both,,,,,,,,,,,,,,,,,,,,,,,,,,,,,,,,,,,,,,,,,,,,,,,,,,,,,,,,,,,,,,,,,,,,,,,,,,,,,,,,,,,,,,,,,,,,,,,,,,,,,,,,,,,,,,,,,,,,514.5875621999148,None,127.19783549795031,-6.47505031340731,0.0003336547360708406,1,"[0.7375548158398402, 0.7375548158398402, 0.7375548158398402, 0.7375548158398402]","[641.0369217797318, 427.84081559303246, 285.549485947096, 190.58141708997493]",Perfect_5th,"[2.754373837127009, 4.279008570326855, 2.991557543137688, -0.813030767644773]",False,515.5977620999329,518.8280065999134,518.8280065999134,520.0320603,['space'],1,3.9716471198480576,5.002572219935246,None,1,None,1,[0.4032788999611512],,,,,,,moiern,001,fr,0,0,2022-07-08_14h07.09.994,Cluster,2022.1.1,34.626194650552165,
,,,,3,0,3,0,3,0,3,0,,,frequency,,,,,,,,,,,,,,,,,,,,,,,,,,,,,,,,,,,,,,,,,,,,,,,,,,,,,,,,,,,,,,,,,,,,,,,,,,,,,,,,,,,,,,,,,,,,,,,,,,,,,,,,,,,,,,,,,,,,520.6517241999973,None,2828.42712474619,-6.0,3.282073027694465e-05,1,"[0.46944665946076836, 0.4632858339780803, 0.7647543282778395, 0.5835145387818386]","[4489.848193237493, 4000.000000000001, 3563.594872561358, 3174.8021039363994]",Tone,"[3.2084435504672473, 3.5351726824326306, 4.0, 4.276055605350804]",False,521.6682756999508,524.4044055999257,524.4044055999257,525.6147674999665,['space'],1,3.290687219821848,4.318741119815968,None,1,None,1,[0.4556695999344811],,,,,,,moiern,001,fr,0,0,2022-07-08_14h07.09.994,Cluster,2022.1.1,34.626194650552165,
,,,,3,0,3,0,4,0,4,0,,,frequency,,,,,,,,,,,,,,,,,,,,,,,,,,,,,,,,,,,,,,,,,,,,,,,,,,,,,,,,,,,,,,,,,,,,,,,,,,,,,,,,,,,,,,,,,,,,,,,,,,,,,,,,,,,,,,,,,,,,526.0372028999263,None,4192.072736428482,-2.7321749288801813,7.093499877413697e-05,1,"[0.7119010700547552, 0.6943922000647031, 0.6060758874733598, 0.7680005591501896]","[6654.500671733782, 5928.486118311653, 5281.680683316647, 4705.442550393393]",Tone,"[7.153997528836262, 6.0, 4.046049986249185, 3.2084435504672473]",False,527.0287288000109,530.0788201999385,530.0788201999385,531.3137314999476,['space'],1,3.8151019199285656,4.840464019915089,None,1,None,1,[0.2898365999571979],,,,,,,moiern,001,fr,0,0,2022-07-08_14h07.09.994,Cluster,2022.1.1,34.626194650552165,
,,,,3,0,3,0,5,0,5,0,,,both,,,,,,,,,,,,,,,,,,,,,,,,,,,,,,,,,,,,,,,,,,,,,,,,,,,,,,,,,,,,,,,,,,,,,,,,,,,,,,,,,,,,,,,,,,,,,,,,,,,,,,,,,,,,,,,,,,,,531.9157119999873,None,1148.6983549970344,-5.0,2.827006143192812e-05,0,"[0.7163030033460603, 0.7163030033460603, 0.7163030033460603, 0.7163030033460603]","[1823.4449771164332, 1624.5047927124706, 1447.2692374403775, 1289.3703084395786]",Tone,"[4.0, 5.350645207416182, 6.530561368431182, 6.747195786821025]",False,532.9447633000091,536.1339307999006,536.1339307999006,537.3521857999731,None,0,3.8925426199566573,4.904960719984956,None,1,None,1,,,,,,,,moiern,001,fr,0,0,2022-07-08_14h07.09.994,Cluster,2022.1.1,34.626194650552165,
,,,,3,0,3,0,6,0,6,0,,,frequency,,,,,,,,,,,,,,,,,,,,,,,,,,,,,,,,,,,,,,,,,,,,,,,,,,,,,,,,,,,,,,,,,,,,,,,,,,,,,,,,,,,,,,,,,,,,,,,,,,,,,,,,,,,,,,,,,,,,537.9002203999553,None,,,,,"[0.5209441920444605, 0.4807986882709354, 0.47115477070114986, 0.4810243373541372]","[201.91571058340375, 226.6427220872899, 254.3978540685114, 285.55193636325026]",Tone,"[-0.40430455611886007, 0.8322732586028652, 1.5706783981663497, 2.991557543137688]",True,538.9044174000155,541.3949757999508,541.3949757999508,542.5994791999692,None,1,2.9882399199996144,4.000466820085421,None,1,None,1,,0,,,,,,moiern,001,fr,0,0,2022-07-08_14h07.09.994,Cluster,2022.1.1,34.626194650552165,
,,,,3,0,3,0,7,0,7,0,,,none,,,,,,,,,,,,,,,,,,,,,,,,,,,,,,,,,,,,,,,,,,,,,,,,,,,,,,,,,,,,,,,,,,,,,,,,,,,,,,,,,,,,,,,,,,,,,,,,,,,,,,,,,,,,,,,,,,,,542.9430088999216,None,7931.200480193979,3.4475687076275285,0.0002668888864323528,0,"[0.554543026595684, 0.5678864714517404, 0.7811386553744426, 0.7361681563422477]","[165.5937949921568, 194.42173793567983, 3309.0802412521907, 4464.632946233594]",None,"[-1.1722083607040013, -0.813030767644773, 4.276055605350804, 3.2084435504672473]",False,543.9496543999994,546.8948291999986,546.8948291999986,548.1300546999555,None,0,3.6714801198104396,4.679590419866145,None,1,None,1,,,,,,,,moiern,001,fr,0,0,2022-07-08_14h07.09.994,Cluster,2022.1.1,34.626194650552165,
,,,,3,0,3,0,8,0,8,0,,,frequency,,,,,,,,,,,,,,,,,,,,,,,,,,,,,,,,,,,,,,,,,,,,,,,,,,,,,,,,,,,,,,,,,,,,,,,,,,,,,,,,,,,,,,,,,,,,,,,,,,,,,,,,,,,,,,,,,,,,548.6759860999882,None,1000.0,-7.0,1.9677503772788864e-05,0,"[0.5956443669090404, 0.5162865265069457, 0.6301899189991889, 0.5986399125472924]","[629.9605249474365, 707.1067811865474, 793.7005259840997, 890.8987181403393]",Tone,"[2.8230616391586922, 2.840435712491632, 3.4838960020331875, 4.000957316205357]",False,549.6987618999556,552.4660756000085,552.4660756000085,553.6720591000048,None,0,3.378728259820491,4.392393359798007,None,1,None,1,,,,,,,,moiern,001,fr,0,0,2022-07-08_14h07.09.994,Cluster,2022.1.1,34.626194650552165,
,,,,3,0,3,0,9,0,9,0,,,both,,,,,,,,,,,,,,,,,,,,,,,,,,,,,,,,,,,,,,,,,,,,,,,,,,,,,,,,,,,,,,,,,,,,,,,,,,,,,,,,,,,,,,,,,,,,,,,,,,,,,,,,,,,,,,,,,,,,554.1150670999195,None,5694.405930839346,-1.0,0.00011331268007386443,1,"[0.5420002693360392, 0.5420002693360392, 0.5420002693360392, 0.5420002693360392]","[1129.9132456185416, 1692.9570121669608, 2536.5694721777595, 3800.559991153286]",Perfect_5th,"[6.372236586911086, 5.0, 3.106486730434091, 3.878558029931074]",False,555.1189188999124,557.768778199912,557.768778199912,558.9751800999511,['space'],1,3.188574819942005,4.1926557199331,None,1,None,1,[0.36806230002548546],,,,,,,moiern,001,fr,0,0,2022-07-08_14h07.09.994,Cluster,2022.1.1,34.626194650552165,
,,,,3,0,3,0,10,0,10,0,,,frequency,,,,,,,,,,,,,,,,,,,,,,,,,,,,,,,,,,,,,,,,,,,,,,,,,,,,,,,,,,,,,,,,,,,,,,,,,,,,,,,,,,,,,,,,,,,,,,,,,,,,,,,,,,,,,,,,,,,,559.3604188999161,None,,,,,"[0.7852694605207777, 0.6739306907202325, 0.5470168809403494, 0.6008142313643985]","[4146.4584128079205, 3694.074484792802, 3291.0462232168416, 2931.988861604489]",Tone,"[3.2678250711198187, 3.878558029931074, 4.276055605350804, 4.0]",True,560.3580272999825,563.4003422999522,563.4003422999522,564.626966199954,None,1,3.6226724199950695,4.640240919892676,None,1,None,1,,0,,,,,,moiern,001,fr,0,0,2022-07-08_14h07.09.994,Cluster,2022.1.1,34.626194650552165,
,,,,3,0,3,0,11,0,11,0,,,time,,,,,,,,,,,,,,,,,,,,,,,,,,,,,,,,,,,,,,,,,,,,,,,,,,,,,,,,,,,,,,,,,,,,,,,,,,,,,,,,,,,,,,,,,,,,,,,,,,,,,,,,,,,,,,,,,,,,565.04144489998,None,1363.935094771539,0.747195786821025,5.632319065158452e-05,1,"[0.6992035023553821, 0.6992035023553821, 0.6992035023553821, 0.6992035023553821]","[413.16881498438084, 250.75410099129004, 378.51781328781937, 132.45207463630337]",None,"[4.436875730686182, 1.5706783981663497, 4.456966316652261, -0.761321206828752]",False,566.033259299933,569.1482737999177,569.1482737999177,570.3546664000023,['space'],1,3.8160734199918807,4.823844719910994,None,1,None,1,[0.5538204000331461],,,,,,,moiern,001,fr,0,0,2022-07-08_14h07.09.994,Cluster,2022.1.1,34.626194650552165,
,,,,3,0,3,0,12,0,12,0,,,both,,,,,,,,,,,,,,,,,,,,,,,,,,,,,,,,,,,,,,,,,,,,,,,,,,,,,,,,,,,,,,,,,,,,,,,,,,,,,,,,,,,,,,,,,,,,,,,,,,,,,,,,,,,,,,,,,,,,570.9098729999969,None,2143.5469250725882,-6.0,3.9089510241962354e-05,1,"[0.766666122745564, 0.766666122745564, 0.766666122745564, 0.766666122745564]","[5401.399784672766, 4287.093850145177, 3402.668643803426, 2700.6998923363826]",Major_3rd,"[4.046049986249185, 3.2678250711198187, 4.165649081379183, 3.474299885712254]",False,571.9242246999638,575.2540568999248,575.2540568999248,576.4891959999222,['space'],1,4.1098067599814385,5.12562915997114,None,1,None,1,[0.4041256000055],,,,,,,moiern,001,fr,0,0,2022-07-08_14h07.09.994,Cluster,2022.1.1,34.626194650552165,
,,,,3,0,3,0,13,0,13,0,,,time,,,,,,,,,,,,,,,,,,,,,,,,,,,,,,,,,,,,,,,,,,,,,,,,,,,,,,,,,,,,,,,,,,,,,,,,,,,,,,,,,,,,,,,,,,,,,,,,,,,,,,,,,,,,,,,,,,,,577.079441000009,None,125.0,-5.0,0.00040641525808204974,1,"[0.700152815814141, 0.700152815814141, 0.700152815814141, 0.700152815814141]","[3886.0890288535393, 147.77106646128524, 253.39043001330256, 6139.990193693628]",None,"[3.5351726824326306, -1.0, 1.5706783981663497, 6.017769004954904]",False,578.1473616999574,581.2670823999215,581.2670823999215,582.477041499922,['space'],1,3.85883743991144,4.8943108399398625,None,1,None,1,[0.4254150000633672],,,,,,,moiern,001,fr,0,0,2022-07-08_14h07.09.994,Cluster,2022.1.1,34.626194650552165,
,,,,3,0,3,0,14,0,14,0,,,time,,,,,,,,,,,,,,,,,,,,,,,,,,,,,,,,,,,,,,,,,,,,,,,,,,,,,,,,,,,,,,,,,,,,,,,,,,,,,,,,,,,,,,,,,,,,,,,,,,,,,,,,,,,,,,,,,,,,583.0762736999895,None,615.3714361976772,-3.1769383608413078,3.7074394493256114e-05,1,"[0.7658381391719399, 0.7658381391719399, 0.7658381391719399, 0.7658381391719399]","[905.4660525313915, 761.6791820079951, 3242.132921851153, 394.01959040023394]",None,"[4.606256195904452, 3.092109227946553, 4.276055605350804, 4.436875730686182]",False,584.0831521999789,587.4003481999971,587.4003481999971,588.6349308999488,['space'],1,4.087694519897923,5.098958819871768,None,1,None,1,[0.4161223000846803],,,,,,,moiern,001,fr,0,0,2022-07-08_14h07.09.994,Cluster,2022.1.1,34.626194650552165,
,,,,3,0,3,0,15,0,15,0,,,both,,,,,,,,,,,,,,,,,,,,,,,,,,,,,,,,,,,,,,,,,,,,,,,,,,,,,,,,,,,,,,,,,,,,,,,,,,,,,,,,,,,,,,,,,,,,,,,,,,,,,,,,,,,,,,,,,,,,589.2361295999726,None,915.6262795413419,-1.3937438040955477,3.547917846521067e-05,1,"[0.5735313316448862, 0.5735313316448862, 0.5735313316448862, 0.5735313316448862]","[1453.466119353655, 1294.8911025925845, 1153.6168234310642, 1027.7557492198653]",Tone,"[6.530561368431182, 6.747195786821025, 6.372236586911086, 5.254994528763916]",False,590.2550681999419,593.010998899932,593.010998899932,594.2434840999776,['space'],1,3.3170342198573053,4.3273423198843375,None,1,None,1,[0.25484439998399466],,,,,,,moiern,001,fr,0,0,2022-07-08_14h07.09.994,Cluster,2022.1.1,34.626194650552165,
,,,,3,0,3,0,16,0,16,0,,,both,,,,,,,,,,,,,,,,,,,,,,,,,,,,,,,,,,,,,,,,,,,,,,,,,,,,,,,,,,,,,,,,,,,,,,,,,,,,,,,,,,,,,,,,,,,,,,,,,,,,,,,,,,,,,,,,,,,,594.6196625999874,None,,,,,"[0.6091499689104458, 0.6091499689104458, 0.6091499689104458, 0.6091499689104458]","[386.2431841280327, 578.7108961744145, 867.0866312037717, 1299.1620357977724]",Perfect_5th,"[4.456966316652261, 3.0, 4.0, 6.747195786821025]",True,595.6295236999867,598.4814869000111,598.4814869000111,599.7120575999143,None,1,3.4825926198391244,4.514464119914919,None,1,None,1,,0,,,,,,moiern,001,fr,0,0,2022-07-08_14h07.09.994,Cluster,2022.1.1,34.626194650552165,
,,,,3,0,3,0,17,0,17,0,,,both,,,,,,,,,,,,,,,,,,,,,,,,,,,,,,,,,,,,,,,,,,,,,,,,,,,,,,,,,,,,,,,,,,,,,,,,,,,,,,,,,,,,,,,,,,,,,,,,,,,,,,,,,,,,,,,,,,,,600.1856675000163,None,406.12619817811805,-8.0,3.0352225841600565e-05,1,"[0.4592622973855563, 0.4592622973855563, 0.4592622973855563, 0.4592622973855563]","[161.17128855494758, 203.06309908905908, 255.84347299919395, 322.34257710989505]",Major_3rd,"[-1.1722083607040013, -0.40430455611886007, 2.0, 4.0]",False,601.2176456999732,603.6162268999033,603.6162268999033,604.848060999997,['space'],1,2.857978619984351,3.888737119967118,None,1,None,1,[0.37193290004506707],,,,,,,moiern,001,fr,0,0,2022-07-08_14h07.09.994,Cluster,2022.1.1,34.626194650552165,
,,,,3,0,3,0,18,0,18,0,,,frequency,,,,,,,,,,,,,,,,,,,,,,,,,,,,,,,,,,,,,,,,,,,,,,,,,,,,,,,,,,,,,,,,,,,,,,,,,,,,,,,,,,,,,,,,,,,,,,,,,,,,,,,,,,,,,,,,,,,,605.1651052999077,None,1859.0807660121752,-2.185300388202735,5.322321251996646e-05,1,"[0.4454771659126916, 0.6539412652619874, 0.5064288928882967, 0.4175717482281371]","[737.7766909153935, 929.5403830060878, 1171.1474952767126, 1475.5533818307865]",Major_3rd,"[3.0, 4.606256195904452, 6.372236586911086, 6.040397601811277]",False,606.1707414999837,608.8009479999309,608.8009479999309,610.0248502999311,['space'],1,3.0593055199133232,4.073079219902866,None,1,None,1,[0.7091182000003755],,,,,,,moiern,001,fr,0,0,2022-07-08_14h07.09.994,Cluster,2022.1.1,34.626194650552165,
,,,,3,0,3,0,19,0,19,0,,,frequency,,,,,,,,,,,,,,,,,,,,,,,,,,,,,,,,,,,,,,,,,,,,,,,,,,,,,,,,,,,,,,,,,,,,,,,,,,,,,,,,,,,,,,,,,,,,,,,,,,,,,,,,,,,,,,,,,,,,610.2887000999181,None,353.5533905932738,-3.0,6.273272561452762e-05,0,"[0.4755630454464572, 0.6530755338900804, 0.7624160128205318, 0.6990429403020773]","[222.72467953508485, 250.00000000000003, 280.6155120773433, 314.9802624737183]",Tone,"[0.16444291805212163, 1.5706783981663497, 2.991557543137688, 3.5745719369322506]",False,612.5567977000028,615.4691579999635,615.4691579999635,616.6956151999766,None,0,3.592305439757183,4.6082348397467285,None,1,None,1,,,,"{'estimation': [[125.0, -5.856003755242714], [129.3075731383936, -6.0], [133.9716828170366, -6.144348681926175], [143.5872943746293, -6.390637689660139], [153.89305166811442, -6.566583777372639], [164.93848884661162, -6.6420022288547775], [176.77669529663666, -6.58908244058053], [189.46457081379947, -6.3955512132199885], [203.0630990890584, -6.061559861853085], [204.98365831061943, -6.0], [217.6376408240306, -5.615246577412536], [233.25824788420147, -5.110845659941165], [236.5540664257119, -5.0], [249.99999999999937, -4.579012917536419], [267.94336563407256, -4.079428833406721], [271.2412406724625, -4.0], [287.1745887492579, -3.6256699187721213], [307.78610333622805, -3.2461959926205095], [324.38003481056506, -3.0], [329.87697769322244, -2.917437845106928], [353.55339059327247, -2.647539340803432], [378.929141627598, -2.4295204515507995], [406.12619817811606, -2.2694124976262935], [435.2752816480601, -2.1930196314503347], [466.5164957684015, -2.2368772856891788], [499.9999999999981, -2.4303598384002214], [535.8867312681438, -2.78600018191164], [551.6478015422067, -3.0], [574.3491774985143, -3.3011464761809903], [615.5722066724546, -3.906123676442106], [621.7088362439007, -4.0], [659.7539553864432, -4.548341006847086], [696.0842184877398, -5.0], [707.1067811865431, -5.133609201043168], [757.8582832551941, -5.577591077838157], [812.2523963562301, -5.821977140691901], [870.5505632961181, -5.8375596332116135], [933.0329915368008, -5.623125904391395], [999.9999999999926, -5.210702157663318], [1025.6623894056663, -5.0], [1071.773462536285, -4.647079147069633], [1148.698354997026, -4.032347329297091], [1153.0357194291423, -4.0], [1231.1444133449063, -3.448701393466599], [1316.9918002843435, -3.0], [1319.5079107728832, -2.986795833240655], [1414.2135623730828, -2.725583397511719], [1515.7165665103846, -2.7175742222295427], [1624.5047927124563, -2.974089514558178], [1630.3496352409977, -3.0], [1741.1011265922318, -3.4685355120070462], [1840.2834951910297, -4.0], [1866.065983073597, -4.139167500122303], [1999.9999999999802, -4.901585488580157], [2017.705993078367, -5.0], [2143.5469250725646, -5.686719682501282], [2208.702021908203, -6.0], [2297.396709994046, -6.4171924612827675], [2454.6375180803816, -7.0], [2462.2888266898062, -7.02792876667424], [2639.0158215457564, -7.495697479445167], [2828.427124746159, -7.787069446507433], [3031.4331330207615, -7.8965169890927704], [3249.0095854249043, -7.802404629091118], [3482.202253184451, -7.489074597908273], [3697.195185310644, -7.0], [3732.1319661471844, -6.922855638666971], [3999.9999999999504, -6.117682361074876], [4031.7266995662453, -6.0], [4287.093850145118, -5.073994381565828], [4305.680076214252, -5.0], [4555.0375991340115, -4.0], [4594.793419988081, -3.845382471999135], [4804.943509242014, -3.0], [4924.577653379601, -2.5263275631067676], [5066.154059070256, -2.0], [5278.031643091506, -1.2179220591866406], [5346.630682068153, -1.0], [5656.854249492303, -0.035006312955989806], [5671.158006992567, 0.0], [6062.866266041501, 0.9062809729459729], [6123.51692435701, 1.0], [6498.019170849792, 1.5344485666230465], [6964.4045063688845, 1.802553161680987], [7464.2639322943505, 1.7307246948340267], [7999.999999999892, 1.370827933543977]], 'plus_line': [[125.00000000000007, -7.83225979480566], [133.89788135639466, -8.0], [133.9716828170366, -8.001594003386472], [143.5872943746293, -8.264082494714875], [153.89305166811442, -8.466276704154442], [164.93848884661162, -8.570380134209394], [176.77669529663666, -8.561046961209936], [189.46457081379947, -8.420816159464284], [203.0630990890585, -8.114699963925531], [206.5012969865946, -8.0], [217.6376408240306, -7.689144586382142], [233.25824788420132, -7.14815384195423], [237.1995057416615, -7.0], [249.99999999999937, -6.595040212623882], [267.94336563407256, -6.079771599611336], [271.56964186577903, -6.0], [287.1745887492579, -5.70982441825088], [307.78610333622805, -5.443642040916564], [329.87697769322244, -5.208948362379218], [349.25905674344506, -5.0], [353.55339059327247, -4.960725894438935], [378.929141627598, -4.729387228006252], [406.12619817811606, -4.5127222538296365], [435.2752816480601, -4.381783151014901], [466.5164957684015, -4.416562160443066], [499.9999999999975, -4.6433078154303065], [532.9329064594593, -5.000000000000001], [535.8867312681438, -5.036832486535973], [574.3491774985143, -5.598997406984703], [602.246897304009, -6.0], [615.5722066724546, -6.2042950955216245], [659.7539553864432, -6.813953856682708], [675.5356143517171, -7.0], [707.1067811865431, -7.390821473102131], [757.8582832551941, -7.814026018585588], [801.9172082396668, -8.0], [812.2523963562311, -8.05066168044958], [870.5505632961181, -8.047057964748694], [880.0494464269428, -8.0], [933.0329915368008, -7.794070847480393], [999.9999999999926, -7.327354883175806], [1035.107912851173, -7.0], [1071.773462536285, -6.7079846021156], [1148.698354997026, -6.054042986800727], [1155.6655785411988, -5.999999999999999], [1231.1444133449063, -5.503323925285587], [1319.5079107728848, -5.043416098697748], [1334.2502692130024, -5.0], [1414.2135623730828, -4.810365129990405], [1515.7165665103846, -4.808293399478753], [1600.1896909882282, -5.0], [1624.5047927124563, -5.064520669628634], [1741.1011265922318, -5.602644887484162], [1811.155990059351, -6.0], [1866.065983073597, -6.332037443868641], [1974.4937407965963, -7.0], [1999.9999999999802, -7.164566539398369], [2143.5469250725646, -7.992307662917316], [2145.1064652425507, -8.0], [2297.396709994046, -8.757785707259753], [2365.592882912712, -9.0], [2462.2888266898062, -9.35792036320596], [2639.015821545763, -9.76018785518695], [2828.427124746159, -9.98535218442934], [2867.9593801177766, -10.0], [3031.4331330207615, -10.070830543399408], [3159.517359107513, -10.0], [3249.0095854249043, -9.961142585882925], [3482.2022531844555, -9.66455408130778], [3732.1319661471844, -9.088809457289347], [3759.6921565051052, -9.0], [3999.9999999999504, -8.295275977790864], [4080.8359039566344, -8.0], [4287.093850145118, -7.264246259460305], [4355.747114009613, -7.0], [4594.793419988081, -6.050745566723108], [4608.067869811345, -6.0], [4866.236342021162, -5.0], [4924.577653379601, -4.774093151166177], [5140.379010184411, -4.0], [5278.031643091506, -3.4961537107065315], [5435.2787331415075, -3.0], [5656.854249492303, -2.302897636299077], [5775.361668678922, -2.0], [6062.866266041501, -1.3117874463094261], [6239.509390508449, -1.0], [6498.019170849792, -0.6038205144197506], [6964.404506368894, -0.24623889436189653], [7464.2639322943505, -0.278264542059631], [7999.999999999882, -0.7030109136774301]], 'minus_line': [[125.0, -3.9082122922110085], [126.92828846287166, -4.0], [133.9716828170366, -4.262691452300917], [143.5872943746293, -4.502484502442679], [153.89305166811442, -4.662430839731751], [164.93848884661162, -4.713849186950255], [176.77669529663666, -4.618333685947009], [189.46457081379947, -4.377640385970734], [203.0630990890585, -4.028367273227616], [203.97674315555554, -4.0], [217.6376408240306, -3.5507885292109984], [233.25824788420132, -3.0957933363905727], [236.4721581827703, -3.0], [249.99999999999937, -2.580974376183562], [267.94336563407256, -2.1015119368950304], [271.82438193564576, -2.0], [287.1745887492579, -1.56424911925677], [307.78610333622805, -1.0990388006162122], [313.25690038509913, -1.0], [329.87697769322244, -0.6640519315541699], [353.55339059327247, -0.36018512043854334], [378.929141627598, -0.17402173500267273], [406.12619817811606, -0.0789104122000857], [435.2752816480601, -0.05481944782677122], [466.5164957684015, -0.10237899688253041], [499.9999999999975, -0.25317252563491277], [535.8867312681438, -0.5594184368566296], [568.2472752474558, -1.0], [574.3491774985143, -1.0744375722694102], [615.5722066724546, -1.6842886776193877], [634.5448507005814, -2.0], [659.7539553864432, -2.369561208460957], [706.1555060661015, -3.0], [707.1067811865431, -3.0117348884445496], [757.8582832551941, -3.4510226776613617], [812.2523963562301, -3.702498047631458], [870.5505632961181, -3.7305994139226955], [933.0329915368008, -3.541818015465586], [999.9999999999926, -3.18463992530644], [1025.1533497043813, -3.0], [1071.773462536285, -2.64121439912699], [1148.698354997026, -2.0523526636230867], [1155.7275203705979, -2.0], [1231.1444133449063, -1.4171637948024358], [1310.0385754639954, -1.0], [1319.5079107728832, -0.9431072580816995], [1414.2135623730828, -0.6450096607322434], [1515.7165665103846, -0.6408600293033598], [1624.5047927124563, -0.926699550352281], [1640.0759070256754, -1.0], [1741.1011265922318, -1.3979439544816694], [1855.1068009395672, -2.0], [1866.065983073597, -2.0540544960922387], [1999.9999999999777, -2.7463695640299353], [2047.1909646694792, -3.0], [2143.5469250725646, -3.4789210937744035], [2252.4738434210267, -4.0], [2297.3967099940432, -4.200103364327804], [2462.2888266898062, -4.82868296489654], [2515.310149038711, -5.0], [2639.01582154576, -5.339050154859374], [2828.427124746159, -5.677007910270549], [3031.4331330207656, -5.825735492824393], [3249.0095854249043, -5.74007671193815], [3482.2022531844555, -5.429314987184833], [3683.1770241834465, -5.0], [3732.1319661471844, -4.886995942416162], [3999.9999999999504, -4.085060087753833], [4022.4519782677953, -4.0], [4287.093850145118, -3.021870561965617], [4292.359424854631, -3.0], [4523.807551930847, -2.0], [4594.793419988081, -1.7195407341995885], [4759.042932807067, -1.0], [4924.577653379601, -0.33068410042586993], [5008.370328284665, 0.0], [5270.857868467973, 1.0], [5278.031643091506, 1.026057956487752], [5572.990408455482, 2.0], [5656.854249492303, 2.2569837658118868], [5984.10055676792, 3.0], [6062.866266041508, 3.1766769568492936], [6498.019170849785, 3.737305326552834], [6964.404506368894, 3.907763184332007], [7464.26393229436, 3.7819601154583005], [7999.999999999882, 3.4601195765204387]]}",,,,moiern,001,fr,0,0,2022-07-08_14h07.09.994,Cluster,2022.1.1,34.626194650552165,
,,,,4,0,4,0,0,0,0,0,,,time,,,,,,,,,,,,,,,,,,,,,,,,,,,,,,,,,,,,,,,,,,,,,,,,,,,,,,,,,,,,,,,,,,,,,,,,,,,,,,,,,,,,,,,,,,,,,,,,,,,,,,,,,,,,,,,,,,,,625.4898690999253,None,,,,,"[0.4917189669780208, 0.4917189669780208, 0.4917189669780208, 0.4917189669780208]","[4712.213698390313, 267.3785445725786, 906.3454595487075, 5041.418175707751]",None,"[3.2084435504672473, 2.313053696080658, 4.606256195904452, 3.45311567350506]",True,626.4677743999055,628.9777739999117,628.9777739999117,630.1935549000045,None,1,2.991045419825241,4.0033606197685,None,1,None,1,,0,,,,,,moiern,001,fr,0,0,2022-07-08_14h07.09.994,Cluster,2022.1.1,34.626194650552165,
,,,,4,0,4,0,1,0,1,0,,,none,,,,,,,,,,,,,,,,,,,,,,,,,,,,,,,,,,,,,,,,,,,,,,,,,,,,,,,,,,,,,,,,,,,,,,,,,,,,,,,,,,,,,,,,,,,,,,,,,,,,,,,,,,,,,,,,,,,,630.5107848999323,None,1515.7165665103996,-2.0,3.942273189957413e-05,0,"[0.4933548060230608, 0.480744697689468, 0.45638905160665644, 0.7397503572253176]","[6197.595015686902, 436.2978446739469, 1903.3109114332153, 1413.2997365144097]",None,"[6.017769004954904, 4.279008570326855, 3.814699611797265, 6.530561368431182]",False,631.5282791999634,633.9971546999877,633.9971546999877,635.2188784999307,None,0,3.1869675199268386,4.189083819859661,None,1,None,1,,,,,,,,moiern,001,fr,0,0,2022-07-08_14h07.09.994,Cluster,2022.1.1,34.626194650552165,
,,,,4,0,4,0,2,0,2,0,,,time,,,,,,,,,,,,,,,,,,,,,,,,,,,,,,,,,,,,,,,,,,,,,,,,,,,,,,,,,,,,,,,,,,,,,,,,,,,,,,,,,,,,,,,,,,,,,,,,,,,,,,,,,,,,,,,,,,,,635.7800325999269,None,189.4645708137998,-5.0,0.00017084605332667944,1,"[0.5988252463742714, 0.5988252463742714, 0.5988252463742714, 0.5988252463742714]","[2253.7065895000587, 4830.180887453174, 7209.54739859536, 3041.6774839687087]",None,"[2.8857393249623646, 3.45311567350506, 8.183632258325732, 4.168932372875219]",False,636.8029403999681,639.6175913999323,639.6175913999323,640.8380138999783,['space'],1,3.4573038598755375,4.4832695599179715,None,1,None,1,[0.45994749991223216],,,,,,,moiern,001,fr,0,0,2022-07-08_14h07.09.994,Cluster,2022.1.1,34.626194650552165,
,,,,4,0,4,0,3,0,3,0,,,none,,,,,,,,,,,,,,,,,,,,,,,,,,,,,,,,,,,,,,,,,,,,,,,,,,,,,,,,,,,,,,,,,,,,,,,,,,,,,,,,,,,,,,,,,,,,,,,,,,,,,,,,,,,,,,,,,,,,641.3145975999068,None,3253.327070937451,-1.7239443946491966,5.8081601599267346e-05,0,"[0.5779466893730507, 0.6282421400566839, 0.6502916532949903, 0.48853634857320055]","[1434.6905174283397, 3106.980539936681, 1357.1707586935888, 268.8197394342692]",None,"[6.530561368431182, 4.168932372875219, 6.747195786821025, 2.313053696080658]",False,642.3148235999979,645.2116539999843,645.2116539999843,646.4353092999663,None,0,3.3906924198381603,4.391554919886403,None,1,None,1,,,,,,,,moiern,001,fr,0,0,2022-07-08_14h07.09.994,Cluster,2022.1.1,34.626194650552165,
,,,,4,0,4,0,4,0,4,0,,,time,,,,,,,,,,,,,,,,,,,,,,,,,,,,,,,,,,,,,,,,,,,,,,,,,,,,,,,,,,,,,,,,,,,,,,,,,,,,,,,,,,,,,,,,,,,,,,,,,,,,,,,,,,,,,,,,,,,,646.7591900000116,None,,,,,"[0.7474857517462894, 0.7474857517462894, 0.7474857517462894, 0.7474857517462894]","[1307.7115725214028, 3399.8966463438774, 1131.0589172040256, 5134.528918705627]",None,"[6.747195786821025, 4.165649081379183, 6.372236586911086, 4.0]",True,647.7584369999822,651.0148725999752,651.0148725999752,652.2291898999829,None,1,4.019124519894831,5.035263719968498,None,1,None,1,,0,,,,,,moiern,001,fr,0,0,2022-07-08_14h07.09.994,Cluster,2022.1.1,34.626194650552165,
,,,,4,0,4,0,5,0,5,0,,,time,,,,,,,,,,,,,,,,,,,,,,,,,,,,,,,,,,,,,,,,,,,,,,,,,,,,,,,,,,,,,,,,,,,,,,,,,,,,,,,,,,,,,,,,,,,,,,,,,,,,,,,,,,,,,,,,,,,,652.8308558999561,None,821.4053014143914,-2.5161039979668125,2.9174076025158397e-05,1,"[0.6993671525113542, 0.6993671525113542, 0.6993671525113542, 0.6993671525113542]","[389.8468643699033, 542.153814504897, 3121.336248679233, 127.38301002269888]",None,"[4.456966316652261, 3.332236962200369, 4.168932372875219, -0.4750503134073103]",False,653.828310300014,656.950337599963,656.950337599963,658.1678784999531,['space'],1,3.8309618199709803,4.852533119963482,None,1,None,1,[0.8332823000382632],,,,,,,moiern,001,fr,0,0,2022-07-08_14h07.09.994,Cluster,2022.1.1,34.626194650552165,
,,,,4,0,4,0,6,0,6,0,,,both,,,,,,,,,,,,,,,,,,,,,,,,,,,,,,,,,,,,,,,,,,,,,,,,,,,,,,,,,,,,,,,,,,,,,,,,,,,,,,,,,,,,,,,,,,,,,,,,,,,,,,,,,,,,,,,,,,,,658.7386932999361,None,358.9033050543019,-1.6764622553347261,7.191344923997108e-05,0,"[0.5769802673516444, 0.5769802673516444, 0.5769802673516444, 0.5769802673516444]","[904.379657829512, 717.8066101086038, 569.7234839980624, 452.189828914756]",Major_3rd,"[4.606256195904452, 2.840435712491632, 3.0299226339438463, 4.005196534947492]",False,659.7469185999362,662.5095180999488,662.5095180999488,663.7271106999833,None,0,3.341444019926712,4.36788501997944,None,1,None,1,,,,,,,,moiern,001,fr,0,0,2022-07-08_14h07.09.994,Cluster,2022.1.1,34.626194650552165,
,,,,4,0,4,0,7,0,7,0,,,none,,,,,,,,,,,,,,,,,,,,,,,,,,,,,,,,,,,,,,,,,,,,,,,,,,,,,,,,,,,,,,,,,,,,,,,,,,,,,,,,,,,,,,,,,,,,,,,,,,,,,,,,,,,,,,,,,,,,664.1660313999746,None,203.0630990890589,1.0,0.0002910976221793013,1,"[0.5567036678335593, 0.7005442250244073, 0.5604797651496842, 0.7290057935845842]","[2943.143080503647, 770.8683367199169, 609.7629055839866, 3812.128260262153]",None,"[4.0, 3.092109227946553, 2.8230616391586922, 3.878558029931074]",False,665.1886178000132,668.0288004999747,668.0288004999747,669.2433601999655,['space'],1,3.573553659953177,4.575714959879406,None,1,None,1,[0.44600879994686693],,,,,,,moiern,001,fr,0,0,2022-07-08_14h07.09.994,Cluster,2022.1.1,34.626194650552165,
,,,,4,0,4,0,8,0,8,0,,,time,,,,,,,,,,,,,,,,,,,,,,,,,,,,,,,,,,,,,,,,,,,,,,,,,,,,,,,,,,,,,,,,,,,,,,,,,,,,,,,,,,,,,,,,,,,,,,,,,,,,,,,,,,,,,,,,,,,,669.7986718999455,None,,,,,"[0.6979964431120274, 0.6979964431120274, 0.6979964431120274, 0.6979964431120274]","[339.7419190019141, 180.4550540342723, 2159.7534547837126, 695.6661423063102]",None,"[4.0233960137397595, -1.0, 2.9203225638743593, 2.840435712491632]",True,670.7970965999411,673.9153063999256,673.9153063999256,675.1345502999611,None,1,3.8221388198435307,4.8510316198226064,None,1,None,1,,0,,,,,,moiern,001,fr,0,0,2022-07-08_14h07.09.994,Cluster,2022.1.1,34.626194650552165,
,,,,4,0,4,0,9,0,9,0,,,time,,,,,,,,,,,,,,,,,,,,,,,,,,,,,,,,,,,,,,,,,,,,,,,,,,,,,,,,,,,,,,,,,,,,,,,,,,,,,,,,,,,,,,,,,,,,,,,,,,,,,,,,,,,,,,,,,,,,675.6819731999421,None,1148.6983549970344,-5.0,2.827006143192812e-05,0,"[0.49304228780985737, 0.49304228780985737, 0.49304228780985737, 0.49304228780985737]","[395.2798153053767, 2710.6782520987845, 168.86418676453482, 921.0201057520682]",None,"[4.436875730686182, 3.474299885712254, -1.1722083607040013, 4.606256195904452]",False,676.689440999995,679.1991265999386,679.1991265999386,680.4005504999077,None,0,2.984770720009692,3.9982348199700937,None,1,None,1,,,,,,,,moiern,001,fr,0,0,2022-07-08_14h07.09.994,Cluster,2022.1.1,34.626194650552165,
,,,,4,0,4,0,10,0,10,0,,,both,,,,,,,,,,,,,,,,,,,,,,,,,,,,,,,,,,,,,,,,,,,,,,,,,,,,,,,,,,,,,,,,,,,,,,,,,,,,,,,,,,,,,,,,,,,,,,,,,,,,,,,,,,,,,,,,,,,,680.7452052999288,None,164.93848884661182,-7.0,0.0001756071591876441,1,"[0.7779583961428668, 0.7779583961428668, 0.7779583961428668, 0.7779583961428668]","[831.2378961427879, 554.7847360339226, 370.27438807164117, 247.1285050882241]",Perfect_5th,"[3.4838960020331875, 3.332236962200369, 4.456966316652261, 1.5706783981663497]",False,681.7876419000095,685.1510774999624,685.1510774999624,686.3601120999083,['space'],1,4.1252567198826,5.144720619893633,None,1,None,1,[0.5006687000859529],,,,,,,moiern,001,fr,0,0,2022-07-08_14h07.09.994,Cluster,2022.1.1,34.626194650552165,
,,,,4,0,4,0,11,0,11,0,,,time,,,,,,,,,,,,,,,,,,,,,,,,,,,,,,,,,,,,,,,,,,,,,,,,,,,,,,,,,,,,,,,,,,,,,,,,,,,,,,,,,,,,,,,,,,,,,,,,,,,,,,,,,,,,,,,,,,,,687.0042958999984,None,,,,,"[0.7871765736515192, 0.7871765736515192, 0.7871765736515192, 0.7871765736515192]","[3784.5034240404857, 962.8889057879373, 1469.6576211558609, 1107.1066732591476]",None,"[3.878558029931074, 5.0, 6.040397601811277, 6.0]",True,688.0009624999948,691.3981991999317,691.3981991999317,692.6297530999873,None,1,4.171039919950999,5.187986719887704,None,1,None,1,,0,,,,,,moiern,001,fr,0,0,2022-07-08_14h07.09.994,Cluster,2022.1.1,34.626194650552165,
,,,,4,0,4,0,12,0,12,0,,,both,,,,,,,,,,,,,,,,,,,,,,,,,,,,,,,,,,,,,,,,,,,,,,,,,,,,,,,,,,,,,,,,,,,,,,,,,,,,,,,,,,,,,,,,,,,,,,,,,,,,,,,,,,,,,,,,,,,,693.2350888999645,None,6236.257226043724,0.017769004954904744,0.00012726402350408033,1,"[0.4297320974693034, 0.4297320974693034, 0.4297320974693034, 0.4297320974693034]","[1237.4301601207615, 1854.050366049582, 2777.9367843378905, 4162.202343089513]",Perfect_5th,"[6.683787031380474, 3.814699611797265, 3.866595189950373, 3.2678250711198187]",False,694.2537510999246,696.5840338999406,696.5840338999406,697.8058537999168,['space'],1,2.752110819797963,3.7612632198724896,None,1,None,1,[0.3733831000281498],,,,,,,moiern,001,fr,0,0,2022-07-08_14h07.09.994,Cluster,2022.1.1,34.626194650552165,
,,,,4,0,4,0,13,0,13,0,,,both,,,,,,,,,,,,,,,,,,,,,,,,,,,,,,,,,,,,,,,,,,,,,,,,,,,,,,,,,,,,,,,,,,,,,,,,,,,,,,,,,,,,,,,,,,,,,,,,,,,,,,,,,,,,,,,,,,,,698.0640673999442,None,8000.0,1.0,0.0002036901389020564,0,"[0.7950285744540582, 0.7950285744540582, 0.7950285744540582, 0.7950285744540582]","[5039.684199579492, 5656.8542494923795, 6349.604207872798, 7127.189745122714]",Tone,"[3.45311567350506, 4.930889606701771, 7.0, 8.183632258325732]",False,700.980115699931,704.4123379999073,704.4123379999073,705.615456999978,None,0,4.194221559679136,5.210969259729609,None,1,None,1,,,,,"{'estimation': [[125.0, -8.883979736521447], [128.01133868731483, -9.0], [133.9716828170366, -9.220594081533385], [143.5872943746293, -9.363192320662819], [153.89305166811442, -9.241209338694022], [160.02186871247275, -9.0], [164.93848884661162, -8.810159811523086], [176.77669529663666, -8.095523493637481], [178.01294067098954, -8.0], [189.46457081379947, -7.1562382251999574], [191.41186516311117, -7.0], [203.0630990890585, -6.109622339053492], [204.58184417763567, -6.000000000000001], [217.6376408240306, -5.103701566019537], [219.53138895395406, -5.0], [233.25824788420118, -4.284884868385232], [242.34950439726194, -4.0], [249.99999999999937, -3.766591699370508], [267.94336563407256, -3.6282789723144417], [287.1745887492579, -3.8686668479162236], [291.7647066589681, -4.0], [307.78610333622805, -4.4320569155827], [323.9004171955923, -5.0], [329.87697769322244, -5.2014294026523595], [352.763681095827, -6.0], [353.55339059327247, -6.026576414425888], [378.929141627598, -6.7579907707710465], [391.73066914618965, -7.0], [406.12619817811606, -7.266483562237977], [435.2752816480607, -7.443389911157709], [466.5164957684015, -7.260408455282292], [483.011004750254, -7.0], [499.9999999999975, -6.736028296760275], [534.1854561581688, -6.0], [535.8867312681438, -5.963292986038239], [574.3491774985143, -5.059090628912169], [576.946358562217, -5.0], [615.5722066724546, -4.154667494218027], [623.8867910469017, -4.0], [659.7539553864432, -3.370141348370847], [689.3151314539215, -3.0], [707.1067811865431, -2.7903918932103307], [757.8582832551951, -2.4654198706218398], [812.2523963562301, -2.382158793058136], [870.5505632961181, -2.5014120735508953], [933.0329915368008, -2.7706202537065217], [973.2228567982404, -3.0], [999.9999999999939, -3.1494760837119684], [1071.773462536285, -3.583178917976782], [1138.2156059765766, -4.0], [1148.698354997026, -4.066054860050448], [1231.1444133449063, -4.581342510997706], [1298.068842122471, -5.0], [1319.5079107728832, -5.133313091276475], [1414.2135623730828, -5.6980158714253415], [1467.143128643947, -6.0], [1515.7165665103846, -6.269321242119305], [1624.5047927124563, -6.793992426693359], [1675.5933296988012, -7.0], [1741.101126592234, -7.253086545018466], [1866.065983073597, -7.591544154585421], [1999.9999999999777, -7.796943518934566], [2143.5469250725646, -7.865871026521287], [2297.396709994049, -7.813564714379229], [2462.2888266898062, -7.675835052296922], [2639.01582154576, -7.4974681505190555], [2828.427124746159, -7.320033193059745], [3031.4331330207615, -7.172342594751758], [3249.0095854249043, -7.0617614564865185], [3400.991913508599, -7.0], [3482.2022531844555, -6.96853733127425], [3732.1319661471844, -6.848739068769316], [3999.9999999999504, -6.641873941658223], [4287.093850145118, -6.283085397236444], [4434.826077608103, -6.0], [4594.7934199880865, -5.711288285136645], [4887.9778337073585, -5.0], [4924.577653379601, -4.916992618876542], [5246.396514822112, -4.0], [5278.031643091506, -3.917740801264525], [5576.285778753639, -3.0], [5656.854249492303, -2.775588719586616], [5916.396241508832, -2.0], [6062.866266041508, -1.5917944674092102], [6293.756371394468, -1.0], [6498.019170849792, -0.48450842245825554], [6750.032259247483, 0.0], [6964.404506368894, 0.4252930645777855], [7443.3711432491955, 1.0], [7464.2639322943505, 1.027078198621539], [7999.999999999882, 1.2598955588298608]], 'plus_line': [[125.0, -11.306040617971837], [133.9716828170366, -11.604966799463767], [143.5872943746293, -11.822270848498759], [153.89305166811442, -11.817119077238218], [164.93848884661162, -11.485021576286897], [172.82960346470676, -11.0], [176.77669529663666, -10.77702308910249], [186.7487476631667, -10.0], [189.46457081379947, -9.80013135475994], [199.18120733020734, -9.0], [203.0630990890585, -8.696102614628346], [212.4175485618074, -8.0], [217.6376408240306, -7.633005265512297], [228.8941644734421, -7.0], [233.25824788420132, -6.773194192936452], [249.99999999999937, -6.261514638881511], [267.94336563407256, -6.120555273425442], [287.17458874925757, -6.372755266530551], [307.78610333622805, -6.899245853430999], [310.72107483860634, -7.0], [329.87697769322244, -7.65507537920932], [339.93710494935283, -8.0], [353.55339059327247, -8.468196703951417], [372.3894807419543, -9.0], [378.929141627598, -9.191970516257332], [406.12619817811606, -9.716510682028009], [435.2752816480601, -9.920669221600843], [466.5164957684015, -9.797337725210214], [499.9999999999975, -9.345439751618075], [516.4268379495061, -9.0], [535.8867312681438, -8.621169245528279], [562.5984573375638, -8.0], [574.3491774985143, -7.739567896456334], [607.2836731934452, -7.0], [615.5722066724546, -6.823390308196942], [658.7258550829705, -6.0], [659.7539553864432, -5.981751954165542], [707.1067811865431, -5.345222822228573], [745.1731981120267, -5.0], [757.8582832551941, -4.902578258792423], [812.2523963562301, -4.74003233626008], [870.5505632961181, -4.796358039322339], [925.5880282959928, -5.0], [933.0329915368008, -5.031481216232789], [999.9999999999926, -5.432687514831034], [1071.773462536285, -5.87532919668913], [1090.5782269356969, -6.0], [1148.698354997026, -6.41133262456478], [1231.1444133449063, -6.943167277329139], [1239.7766417177884, -7.0], [1319.5079107728832, -7.545609516941667], [1394.8103373796716, -8.0], [1414.2135623730828, -8.125490382510598], [1515.7165665103846, -8.706899068687846], [1577.8311697662257, -9.0], [1624.5047927124563, -9.234676086687513], [1741.1011265922318, -9.671908079890937], [1866.065983073597, -9.976711296371064], [1881.701486261737, -10.0], [1999.9999999999827, -10.197462014195649], [2143.5469250725646, -10.2952684925056], [2297.396709994046, -10.294607130840756], [2462.2888266898062, -10.216234079542126], [2639.01582154576, -10.079587107247885], [2727.485012122574, -10.0], [2828.427124746159, -9.924487789332545], [3031.4331330207615, -9.78219797395646], [3249.0095854249043, -9.656332596246944], [3482.2022531844555, -9.545950181046226], [3732.1319661471844, -9.42241783088966], [3999.9999999999504, -9.219521307038802], [4163.104991165872, -9.0], [4287.093850145118, -8.856097320710045], [4594.7934199880865, -8.273830653291567], [4691.646363481534, -8.0], [4924.577653379601, -7.399515145947966], [5044.17885403049, -7.0], [5278.031643091513, -6.259352577070856], [5352.042872876884, -6.0], [5640.610800421535, -5.0], [5656.854249492303, -4.9496181182763825], [5960.17215968595, -4.0], [6062.866266041508, -3.691882198151878], [6336.952294911613, -3.0], [6498.019170849792, -2.601164303198898], [6846.30209037089, -2.0], [6964.404506368894, -1.8008649106291332], [7464.2639322943505, -1.4083490733197657], [7999.999999999892, -1.428884183478953]], 'minus_line': [[125.0, -6.606293502520855], [133.63998330740822, -7.000000000000001], [133.9716828170366, -7.0130795928140754], [143.5872943746293, -7.08750574692517], [147.8115042699642, -7.0], [153.89305166811442, -6.8557250639456], [164.93848884661162, -6.346987981094886], [170.41383324646063, -6.0], [176.77669529663666, -5.587016403145524], [184.64789779142743, -5.0], [189.46457081379947, -4.6462072154974035], [197.860592117964, -4.0], [203.0630990890585, -3.613950004332125], [211.9201830896607, -3.0], [217.6376408240306, -2.613699167096425], [229.27309218465572, -2.0], [233.25824788420132, -1.78551437954455], [249.99999999999937, -1.2476531703966025], [267.94336563407256, -1.098529965080132], [287.17458874925825, -1.3357935675868564], [307.78610333622805, -1.956361098631057], [308.84224319879473, -2.0], [329.87697769322244, -2.775813570948006], [335.4357279335528, -3.0], [353.55339059327247, -3.663172494227884], [363.93776918641015, -4.0], [378.929141627598, -4.437193133540801], [406.12619817811606, -4.961052372893882], [413.0383767511257, -5.0], [435.2752816480601, -5.104216657148524], [448.89294248001323, -5.0], [466.5164957684015, -4.84710656239635], [499.9999999999975, -4.244573747547917], [510.33152792739673, -4.0], [535.8867312681438, -3.3793659841342163], [550.9124890526693, -3.0], [574.3491774985137, -2.407604435499625], [592.3564618421533, -2.0], [615.5722066724546, -1.4794294272642965], [643.9629076917682, -1.0], [659.7539553864432, -0.731676978925416], [707.1067811865431, -0.24360806788220815], [757.8582832551941, -0.037141674771165326], [812.2523963562301, -0.05789212368662685], [870.5505632961181, -0.24647778743107937], [933.0329915368008, -0.548218590088109], [999.9999999999926, -0.943317506233675], [1008.9443389649576, -1.0], [1071.773462536285, -1.3379241801891992], [1148.698354997026, -1.771420625238707], [1186.1694144351554, -2.0], [1231.1444133449063, -2.2436938635388226], [1319.5079107728832, -2.74256567652209], [1361.47910249016, -3.0], [1414.2135623730828, -3.2884599135083583], [1515.7165665103846, -3.850276483365329], [1543.032898364343, -4.0], [1624.5047927124563, -4.386884685105995], [1741.1011265922318, -4.879657184182175], [1776.706899434291, -5.0], [1866.065983073597, -5.251608579491689], [1999.9999999999827, -5.465075863669611], [2143.5469250725646, -5.5141633180900325], [2297.396709994049, -5.409741076619092], [2462.2888266898062, -5.2063581753806965], [2616.8529614566896, -5.0], [2639.01582154576, -4.965807415603131], [2828.427124746159, -4.728589974399116], [3031.4331330207615, -4.571614757395961], [3249.0095854249043, -4.48570712591669], [3482.2022531844555, -4.430648741316441], [3732.1319661471844, -4.3446227242319235], [3999.9999999999504, -4.164779759335922], [4141.283789217061, -4.0], [4287.093850145118, -3.8180935461789254], [4594.7934199880865, -3.302561268574917], [4734.375208383585, -3.0], [4924.577653379601, -2.598795157911793], [5164.726576941064, -2.0], [5278.031643091506, -1.733839729049418], [5543.301691263029, -1.0], [5656.854249492303, -0.7127723190650508], [5903.245196693655, 0.0], [6062.866266041508, 0.4241178564465251], [6274.6119646513425, 1.0], [6498.019170849792, 1.5886439906764103], [6681.86566263392, 2.0], [6964.404506368902, 2.657456629665246], [7181.037634582023, 3.0], [7464.2639322943505, 3.496292414084205], [7999.999999999882, 3.9739326206301926]]}",,,moiern,001,fr,0,0,2022-07-08_14h07.09.994,Cluster,2022.1.1,34.626194650552165,
,,,,4,0,4,0,14,0,14,0,,,none,,,,,,,,,,,,,,,,,,,,,,,,,,,,,,,,,,,,,,,,,,,,,,,,,,,,,,,,,,,,,,,,,,,,,,,,,,,,,,,,,,,,,,,,,,,,,,,,,,,,,,,,,,,,,,,,,,,,706.2545726000099,None,1559.23687851601,0.0,5.3306873571157734e-05,1,"[0.5603274627392851, 0.735167968306577, 0.7996080150934812, 0.574113524810401]","[1209.874865889139, 235.228866643055, 1445.23271206582, 379.18417349308254]",None,"[6.683787031380474, 1.0, 6.530561368431182, 4.456966316652261]",False,707.2479926999658,710.384503099951,710.384503099951,711.5900602999609,['space'],1,3.714977719937451,4.738174419966526,None,1,None,1,[0.40291129995603114],,,,,,,moiern,001,fr,0,0,2022-07-08_14h07.09.994,Cluster,2022.1.1,34.626194650552165,
,,,,4,0,4,0,15,0,15,0,,,none,,,,,,,,,,,,,,,,,,,,,,,,,,,,,,,,,,,,,,,,,,,,,,,,,,,,,,,,,,,,,,,,,,,,,,,,,,,,,,,,,,,,,,,,,,,,,,,,,,,,,,,,,,,,,,,,,,,,712.03474059992,None,307.7861033362292,3.0,0.00015010132972500563,0,"[0.4225757492903679, 0.7354765859238167, 0.7359910164541211, 0.611872173903567]","[1377.0041642949118, 3087.3393571904753, 3459.9797455625594, 3813.61029479709]",None,"[6.530561368431182, 4.168932372875219, 4.165649081379183, 3.878558029931074]",False,713.659263700014,716.5930687999353,716.5930687999353,717.7962134999689,None,0,3.54885019978974,4.567492799833417,None,1,None,1,,,,,,,,moiern,001,fr,0,0,2022-07-08_14h07.09.994,Cluster,2022.1.1,34.626194650552165,
,,,,4,0,4,0,16,0,16,0,,,time,,,,,,,,,,,,,,,,,,,,,,,,,,,,,,,,,,,,,,,,,,,,,,,,,,,,,,,,,,,,,,,,,,,,,,,,,,,,,,,,,,,,,,,,,,,,,,,,,,,,,,,,,,,,,,,,,,,,718.269165799953,None,,,,,"[0.6858811412993595, 0.6858811412993595, 0.6858811412993595, 0.6858811412993595]","[687.8330162634837, 459.6845966515169, 1570.7138705274592, 2671.664254723129]",None,"[2.840435712491632, 4.005196534947492, 6.0, 3.474299885712254]",True,719.2619398999959,722.3479521999834,722.3479521999834,723.567200099933,None,1,3.774756719940342,4.784794820006937,None,1,None,1,,0,,,,,,moiern,001,fr,0,0,2022-07-08_14h07.09.994,Cluster,2022.1.1,34.626194650552165,
,,,,4,0,4,0,17,0,17,0,,,none,,,,,,,,,,,,,,,,,,,,,,,,,,,,,,,,,,,,,,,,,,,,,,,,,,,,,,,,,,,,,,,,,,,,,,,,,,,,,,,,,,,,,,,,,,,,,,,,,,,,,,,,,,,,,,,,,,,,724.0907136999303,None,680.3615711851181,-3.245626162872991,3.217248331475668e-05,0,"[0.4583540911780752, 0.5569024618456745, 0.7084383427815302, 0.47610019647074386]","[305.84267338299827, 6478.05651825509, 3185.8337669459897, 1128.540224698538]",None,"[3.5745719369322506, 7.153997528836262, 4.276055605350804, 6.372236586911086]",False,725.0920092999004,727.8492714999011,727.8492714999011,729.0724557999056,None,0,3.2209244198165834,4.220807519857772,None,1,None,1,,,,,,,,moiern,001,fr,0,0,2022-07-08_14h07.09.994,Cluster,2022.1.1,34.626194650552165,
,,,,4,0,4,0,18,0,18,0,,,none,,,,,,,,,,,,,,,,,,,,,,,,,,,,,,,,,,,,,,,,,,,,,,,,,,,,,,,,,,,,,,,,,,,,,,,,,,,,,,,,,,,,,,,,,,,,,,,,,,,,,,,,,,,,,,,,,,,,729.3590414999053,None,435.2752816480623,4.0,0.00011847381036860221,1,"[0.5121468580209249, 0.4460653022458957, 0.7109814911709207, 0.6194185639391091]","[1116.3097686646763, 227.27402775145944, 162.74022790171597, 264.0766572456683]",None,"[6.0, 0.8322732586028652, -1.1722083607040013, 2.0]",False,731.3005909000058,734.0120802000165,734.0120802000165,735.2172154999571,['space'],1,3.3108287397772074,4.344387739780359,None,1,None,1,[0.3692829000065103],,,,,,,moiern,001,fr,0,0,2022-07-08_14h07.09.994,Cluster,2022.1.1,34.626194650552165,
,,,,4,0,4,0,19,0,19,0,,,time,,,,,,,,,,,,,,,,,,,,,,,,,,,,,,,,,,,,,,,,,,,,,,,,,,,,,,,,,,,,,,,,,,,,,,,,,,,,,,,,,,,,,,,,,,,,,,,,,,,,,,,,,,,,,,,,,,,,735.6880897999508,None,6802.083755854801,2.0,0.0001828303796364251,1,"[0.7233412220330622, 0.7233412220330622, 0.7233412220330622, 0.7233412220330622]","[1277.4010630074677, 544.8598974689428, 303.7177188581454, 161.746946685286]",None,"[6.747195786821025, 3.332236962200369, 3.5745719369322506, -1.1722083607040013]",False,736.6867836000165,739.8830973999575,739.8830973999575,741.1189677999355,['space'],1,3.935635219910182,4.962681419914588,None,1,None,1,[0.40423480002209544],,,,,,,moiern,001,fr,0,0,2022-07-08_14h07.09.994,Cluster,2022.1.1,34.626194650552165,
,,,,5,0,5,0,0,0,0,0,,,time,,,,,,,,,,,,,,,,,,,,,,,,,,,,,,,,,,,,,,,,,,,,,,,,,,,,,,,,,,,,,,,,,,,,,,,,,,,,,,,,,,,,,,,,,,,,,,,,,,,,,,,,,,,,,,,,,,,,759.6688763999846,None,,,,,"[0.7401853646209684, 0.7401853646209684, 0.7401853646209684, 0.7401853646209684]","[3909.0062347459343, 853.942722150522, 249.37476978863305, 1718.3378482197668]",None,"[3.5351726824326306, 4.0, 1.5706783981663497, 4.560991461741839]",True,760.6551268999465,763.9050450999057,763.9050450999057,765.1101755999262,None,1,3.9872348197968677,5.0142849198309705,None,1,None,1,,0,,,,,,moiern,001,fr,0,0,2022-07-08_14h07.09.994,Cluster,2022.1.1,34.626194650552165,
,,,,5,0,5,0,1,0,1,0,,,none,,,,,,,,,,,,,,,,,,,,,,,,,,,,,,,,,,,,,,,,,,,,,,,,,,,,,,,,,,,,,,,,,,,,,,,,,,,,,,,,,,,,,,,,,,,,,,,,,,,,,,,,,,,,,,,,,,,,765.712805399904,None,3999.9743440924126,-2.4648273175673694,6.320134320058496e-05,0,"[0.6912769573879132, 0.7440201934730721, 0.6293604671518408, 0.4271682605592612]","[4533.58511056979, 3417.038932673057, 6644.222068964544, 1112.9043900578229]",None,"[3.2084435504672473, 4.165649081379183, 7.153997528836262, 6.0]",False,766.7062735999934,769.7934323999798,769.7934323999798,771.0086681999965,None,0,3.508277619839646,4.541860319906846,None,1,None,1,,,,,,,,moiern,001,fr,0,0,2022-07-08_14h07.09.994,Cluster,2022.1.1,34.626194650552165,
,,,,5,0,5,0,2,0,2,0,,,none,,,,,,,,,,,,,,,,,,,,,,,,,,,,,,,,,,,,,,,,,,,,,,,,,,,,,,,,,,,,,,,,,,,,,,,,,,,,,,,,,,,,,,,,,,,,,,,,,,,,,,,,,,,,,,,,,,,,771.2996935999254,None,125.0,-3.0,0.0005116464961403772,1,"[0.49424039427453886, 0.7914122680792668, 0.6060741930854346, 0.7698164182036682]","[586.2508819958973, 238.2231894383494, 192.25222709446902, 811.9680358249124]",None,"[3.0, 1.0, -0.813030767644773, 3.4838960020331875]",False,772.9821181999287,775.9214418999618,775.9214418999618,777.1288620999549,['space'],1,3.7076347797410563,4.72519887983799,None,1,None,1,[0.3693124999990687],,,,,,,moiern,001,fr,0,0,2022-07-08_14h07.09.994,Cluster,2022.1.1,34.626194650552165,
,,,,5,0,5,0,3,0,3,0,,,time,,,,,,,,,,,,,,,,,,,,,,,,,,,,,,,,,,,,,,,,,,,,,,,,,,,,,,,,,,,,,,,,,,,,,,,,,,,,,,,,,,,,,,,,,,,,,,,,,,,,,,,,,,,,,,,,,,,,777.7510984999826,None,435.2752816480623,-3.0,5.2920307191259255e-05,0,"[0.4646152475941642, 0.4646152475941642, 0.4646152475941642, 0.4646152475941642]","[327.0183609644085, 125.53629251158428, 164.08972609810638, 757.7988013010412]",None,"[4.0, -0.4750503134073103, -1.1722083607040013, 3.092109227946553]",False,778.7665984999621,781.1807001999114,781.1807001999114,782.3947905999376,None,0,2.889948259922676,3.900864159921184,None,1,None,1,,,,,,,,moiern,001,fr,0,0,2022-07-08_14h07.09.994,Cluster,2022.1.1,34.626194650552165,
