sweeps.thisRepN,sweeps.thisTrialN,sweeps.thisN,sweeps.thisIndex,trials.thisRepN,trials.thisTrialN,trials.thisN,trials.thisIndex,instructions.started,instructions.stopped,blank_text.started,blank_text.stopped,,text.started,text.stopped,Delay,Prediction,Frequency,Volume,Psychopy_level,isCatchTrial,len(y),finished_audiograms,probe.started,probe.stopped,feedback.keys,feedback.started,feedback.stopped,ISI.started,ISI.stopped,text_2.started,text_2.stopped,feedback.rt,break_txt.started,break_txt.stopped,Intervals,Audiogram_time,Audiogram_both,Audiogram_none,Audiogram_frequency,participant,session,language (english or french),Resume previous experiment,date,expName,psychopyVersion,frameRate,
0,0,0,0,0,0,0,0,23.013226100010797,None,34.24021349998657,None,0.5833333333333334,36.54962720000185,None,1.4087001159096757,frequency,158.0,11.307026457814834,0.0015766477098781543,0,29,[],0.02290735999122262,None,None,37.57039040001109,None,0.22485205996781588,1.6335521758774916,37.77987500000745,None,,,,,,,,,tsbvqq,001,fr,0,2022-05-04_17h28.58.455,Continuous,2022.1.1,35.46858972476719,
0,0,0,0,1,0,1,0,,,,,,,,1.3120563876761944,frequency,236.0,13.447237701063282,0.0009166405849726959,0,30,[],0.019142959965392947,None,None,39.18719580001198,39.18719580001198,0.21646566002164036,1.5285220476978347,39.40720830007922,39.18719580001198,,,,,,,,,tsbvqq,001,fr,0,2022-05-04_17h28.58.455,Continuous,2022.1.1,35.46858972476719,
0,0,0,0,2,0,2,0,,,,,,,,1.4471544967775305,frequency,354.0,18.0,0.0007029517838246072,0,31,[],0.023660660022869706,None,None,40.71147690003272,40.71147690003272,0.22919126006308943,1.67634575684062,40.92551029997412,40.71147690003272,,,,,,,,,tsbvqq,001,fr,0,2022-05-04_17h28.58.455,Continuous,2022.1.1,35.46858972476719,
0,0,0,0,3,0,3,0,,,,,,,,2.269731162630687,frequency,530.0,17.692246316790524,0.000511869357438274,0,32,[],0.02348716009873897,None,None,42.368065700051375,42.368065700051375,0.22955786006059498,2.499289022691282,42.57973370002583,42.368065700051375,,,,,,,,,tsbvqq,001,fr,0,2022-05-04_17h28.58.455,Continuous,2022.1.1,35.46858972476719,
0,0,0,0,4,0,4,0,,,,,,,,1.220889296206189,frequency,,,,1,32,[],0.02387025987263769,None,['space'],44.84925450000446,44.84925450000446,0.22680445993319154,1.4476937561393806,45.063520599971525,44.84925450000446,[-0.7473063999786973],,,,,,,,tsbvqq,001,fr,0,2022-05-04_17h28.58.455,Continuous,2022.1.1,35.46858972476719,
0,0,0,0,5,0,5,0,,,,,,,,2.2174433178636077,frequency,1190.0,15.595950760991016,0.00031318252226524853,0,33,[],0.022002159850671887,None,None,46.27755170001183,46.27755170001183,0.22239445988088846,2.439837777744496,46.49872170004528,46.27755170001183,,,,,,,,,tsbvqq,001,fr,0,2022-05-04_17h28.58.455,Continuous,2022.1.1,35.46858972476719,
0,0,0,0,6,0,6,0,,,,,,,,2.664838898650417,frequency,1783.0,14.080403985678432,0.0003288699106810969,0,34,[],0.023575559840537608,None,['space'],48.71005090000108,48.71005090000108,0.2330815598834306,2.8979204585338474,48.92744310002308,48.71005090000108,[-1.5837026999797672],,,,,,,,tsbvqq,001,fr,0,2022-05-04_17h28.58.455,Continuous,2022.1.1,35.46858972476719,
0,0,0,0,7,0,7,0,,,,,,,,2.3264712829390257,frequency,2671.0,11.297183788098533,0.0002763599609343858,0,35,[],0.021941160084679723,None,['space'],51.582647699979134,51.582647699979134,0.22355956002138555,2.5500308429604113,51.80348300002515,51.582647699979134,[-1.928199400077574],,,,,,,,tsbvqq,001,fr,0,2022-05-04_17h28.58.455,Continuous,2022.1.1,35.46858972476719,
0,0,0,0,8,0,8,0,,,,,,,,1.5297845209483378,frequency,4002.0,10.145094268080475,0.00027035606572823733,0,36,[],0.023512759944424033,None,['space'],54.12690859998111,54.12690859998111,0.23257975990418345,1.7623642808525213,54.336910300073214,54.12690859998111,[-2.1687904000282288],,,,,,,,tsbvqq,001,fr,0,2022-05-04_17h28.58.455,Continuous,2022.1.1,35.46858972476719,
1,0,1,0,0,0,0,0,,,,,0.5833333333333334,62.0701301000081,None,2.0481251345830755,frequency,141.0,8.747354286173628,0.001588552040363823,0,37,[],0.024185260059311986,None,None,63.10076060006395,None,0.22497615998145193,2.2731012945645275,63.30731619999278,None,,55.87022659997456,None,,,,,,tsbvqq,001,fr,0,2022-05-04_17h28.58.455,Continuous,2022.1.1,35.46858972476719,
1,0,1,0,1,0,1,0,,,,,,,,1.8463769490444606,frequency,,,,1,37,[],0.02306005998980254,None,None,65.35452789999545,65.35452789999545,0.22918975993525237,2.075566708979713,65.57145450008102,65.35452789999545,,,,,,,,,tsbvqq,001,fr,0,2022-05-04_17h28.58.455,Continuous,2022.1.1,35.46858972476719,
1,0,1,0,2,0,2,0,,,,,,,,1.8432741410108293,frequency,318.0,10.547930195811428,0.0003295514347298703,0,38,[],0.024636860005557537,None,None,67.41542430000845,67.41542430000845,0.22986665996722877,2.073140800978058,67.63208320003469,67.41542430000845,,,,,,,,,tsbvqq,001,fr,0,2022-05-04_17h28.58.455,Continuous,2022.1.1,35.46858972476719,
1,0,1,0,3,0,3,0,,,,,,,,2.482513335487988,frequency,477.0,14.374774816273439,0.00038000956328610163,0,39,[],0.019802459981292486,None,None,69.46945059997961,69.46945059997961,0.21858215995598584,2.701095495443974,69.68949110002723,69.46945059997961,,,,,,,,,tsbvqq,001,fr,0,2022-05-04_17h28.58.455,Continuous,2022.1.1,35.46858972476719,
1,0,1,0,4,0,4,0,,,,,,,,2.6462944749262416,frequency,715.0,9.495919070874098,0.00013043207790249648,0,40,[],0.023183359997346997,None,['space'],72.17086339998059,72.17086339998059,0.22688055993057787,2.8731750348568195,72.382930999971,72.17086339998059,[0.1879490000428632],,,,,,,,tsbvqq,001,fr,0,2022-05-04_17h28.58.455,Continuous,2022.1.1,35.46858972476719,
1,0,1,0,5,0,5,0,,,,,,,,2.8403430658535873,frequency,1072.0,8.0,0.0001182194143953675,0,41,[],0.019794060033746064,None,None,75.02569370006677,75.02569370006677,0.23051606002263725,3.0708591258762246,75.24459450005088,75.02569370006677,,,,,,,,,tsbvqq,001,fr,0,2022-05-04_17h28.58.455,Continuous,2022.1.1,35.46858972476719,
1,0,1,0,6,0,6,0,,,,,,,,1.6471880802369443,frequency,1606.0,8.792624893115462,0.00015691684702980166,0,42,[],0.023013159981928766,None,['space'],78.07691720000003,78.07691720000003,0.22776535991579294,1.8749534401527372,78.29348860005848,78.07691720000003,[-2.503780100028962],,,,,,,,tsbvqq,001,fr,0,2022-05-04_17h28.58.455,Continuous,2022.1.1,35.46858972476719,
1,0,1,0,7,0,7,0,,,,,,,,2.0307255881216495,frequency,2406.0,7.863944255901481,0.00020725348414638402,0,43,[],0.014243660029023886,None,['space'],79.93796640005894,79.93796640005894,0.2135050599463284,2.244230648067978,80.1555230000522,79.93796640005894,[-1.499885999946855],,,,,,,,tsbvqq,001,fr,0,2022-05-04_17h28.58.455,Continuous,2022.1.1,35.46858972476719,
1,0,1,0,8,0,8,0,,,,,,,,1.138122265495875,frequency,3605.0,7.50659668548074,0.00018274952687982103,0,44,[],0.014507960062474012,0.20874986005946994,None,82.1889838000061,82.1889838000061,0.20874986005946994,1.3468721255553449,82.4041357000824,82.1889838000061,,,,,,,,,tsbvqq,001,fr,0,2022-05-04_17h28.58.455,Continuous,2022.1.1,35.46858972476719,
1,0,1,0,9,0,9,0,,,,,,,,1.6090136158189783,frequency,5401.0,6.245541572718435,0.00028315616047477026,0,45,[],0.01905815990176052,0.2176571598974988,['space'],83.53369319997728,83.53369319997728,0.2176571598974988,1.826670775716477,83.74927640007809,83.53369319997728,[-0.9196305000223219],,,,,,,,tsbvqq,001,fr,0,2022-05-04_17h28.58.455,Continuous,2022.1.1,35.46858972476719,
2,0,2,0,0,0,0,0,,,,,,87.99629510007799,None,1.0437977768403426,none,501.0,18.242146823533123,0.0005822748355380647,0,29,[],0.024402860086411238,None,None,89.02601460006554,None,0.22560126008465886,1.2693990369250014,89.2345838000765,None,,85.35697259998415,None,"[0.5833333333333334, 0.5833333333333334, 0.5833333333333334, 0.3333333333333333, 0.16666666666666666, 0.3333333333333333, 0.3333333333333333, 0.16666666666666666, 0.3333333333333333, 0.3333333333333333, 0.16666666666666666, 0.5833333333333334, 0.3333333333333333, 0.3333333333333333, 0.5833333333333334]",,,,,tsbvqq,001,fr,0,2022-05-04_17h28.58.455,Continuous,2022.1.1,35.46858972476719,
2,0,2,0,1,0,1,0,,,,,,,,1.0768981298654514,none,751.0,15.20257891720949,0.00023367529366027492,0,30,[],0.01716606004629284,None,['space'],90.284903199994,90.284903199994,0.22536156000569463,1.302259689871146,90.50078980007675,90.284903199994,[-0.4387984999921173],,,,,,,,tsbvqq,001,fr,0,2022-05-04_17h28.58.455,Continuous,2022.1.1,35.46858972476719,
2,0,2,0,2,0,2,0,,,,,,,,2.4442832857422063,none,,,,1,30,[],0.022682560025714338,None,None,91.57282030000351,91.57282030000351,0.2283543599769473,2.6726376457191536,91.79194200003985,91.57282030000351,,,,,,,,,tsbvqq,001,fr,0,2022-05-04_17h28.58.455,Continuous,2022.1.1,35.46858972476719,
2,0,2,0,3,0,3,0,,,,,,,,2.6965068436973736,none,281.0,18.0,0.001069491809280863,0,31,[],0.02389985998161137,None,None,94.23142700002063,94.23142700002063,0.22972835996188223,2.926235203659256,94.44942219997756,94.23142700002063,,,,,,,,,tsbvqq,001,fr,0,2022-05-04_17h28.58.455,Continuous,2022.1.1,35.46858972476719,
2,0,2,0,4,0,4,0,,,,,,,,1.8784429070871762,none,157.0,16.062328445201253,0.002782413764477011,0,32,[],0.022712160018272698,None,['space'],97.14694920007605,97.14694920007605,0.22867805999703705,2.1071209670842133,97.36275930004194,97.14694920007605,[-2.4688925000373274],,,,,,,,tsbvqq,001,fr,0,2022-05-04_17h28.58.455,Continuous,2022.1.1,35.46858972476719,
2,0,2,0,5,0,5,0,,,,,,,,2.659236448722934,none,140.0,13.156398815019017,0.002679576751216295,0,33,[],0.021738859941251576,None,['space'],99.23291440005414,99.23291440005414,0.2249092599377036,2.8841457086606375,99.45480399997905,99.23291440005414,[-1.738938600057736],,,,,,,,tsbvqq,001,fr,0,2022-05-04_17h28.58.455,Continuous,2022.1.1,35.46858972476719,
2,0,2,0,6,0,6,0,,,,,,,,2.6344936659947944,none,250.0,16.88871785017818,0.0011705929301510849,0,34,[],0.02178286004345864,None,['space'],102.10275910003111,102.10275910003111,0.22418095998000354,2.858674625974798,102.32433089998085,102.10275910003111,[-2.496299699996598],,,,,,,,tsbvqq,001,fr,0,2022-05-04_17h28.58.455,Continuous,2022.1.1,35.46858972476719,
2,0,2,0,7,0,7,0,,,,,,,,2.670128448870246,none,1786.0,16.91695280702789,0.0004568309468676463,0,35,[],0.02245975995901972,None,['space'],104.95093210006598,104.95093210006598,0.23842355993110687,2.908552008801353,105.17341669998132,104.95093210006598,[-2.4322659999597818],,,,,,,,tsbvqq,001,fr,0,2022-05-04_17h28.58.455,Continuous,2022.1.1,35.46858972476719,
2,0,2,0,8,0,8,0,,,,,,,,1.46227154354999,none,354.0,18.0,0.0007029517838246072,0,36,[],0.022230959846638143,None,['space'],107.83437240007333,107.83437240007333,0.22456625988706946,1.6868378034370595,108.0485006000381,107.83437240007333,[-2.5970446000574157],,,,,,,,tsbvqq,001,fr,0,2022-05-04_17h28.58.455,Continuous,2022.1.1,35.46858972476719,
2,0,2,0,9,0,9,0,,,,,,,,1.3791618735378914,none,198.0,15.82915773436978,0.0016872704937863088,0,37,[],0.022373059880919755,None,['space'],109.50890430004802,109.50890430004802,0.2266883598640561,1.6058502334019475,109.72279889998026,109.50890430004802,[-1.1350225999485701],,,,,,,,tsbvqq,001,fr,0,2022-05-04_17h28.58.455,Continuous,2022.1.1,35.46858972476719,
2,0,2,0,10,0,10,0,,,,,,,,2.4952577981791917,none,946.0,15.799199603966226,0.0002621376341210109,0,38,[],0.022226360044442117,None,['space'],111.10073659999762,111.10073659999762,0.2243739600526169,2.7196317582318086,111.31747940008063,111.10073659999762,[-1.0792950000613928],,,,,,,,tsbvqq,001,fr,0,2022-05-04_17h28.58.455,Continuous,2022.1.1,35.46858972476719,
2,0,2,0,11,0,11,0,,,,,,,,2.686707295457329,none,446.0,19.29452747979418,0.0006841530024324603,0,39,[],0.022235659882426262,None,['space'],113.81571660004556,113.81571660004556,0.22746585996355861,2.9141731554208876,114.03047100000549,113.81571660004556,[-2.2899028999963775],,,,,,,,tsbvqq,001,fr,0,2022-05-04_17h28.58.455,Continuous,2022.1.1,35.46858972476719,
3,0,3,0,0,0,0,0,,,,,0.5833333333333334,119.57956920005381,None,1.8377228624272322,frequency,177.0,24.0,0.005534569164046399,0,46,[],0.024237859877757728,None,None,120.58677340007853,None,0.236757559934631,2.074480422361863,120.8006144000683,None,,116.71033380005974,None,,,,,,tsbvqq,001,fr,0,2022-05-04_17h28.58.455,Continuous,2022.1.1,35.46858972476719,
3,0,3,0,1,0,1,0,,,,,,,,2.802712930654164,frequency,265.0,22.976858438754714,0.0021355906759560677,0,47,[],0.021723959944210947,None,['space'],122.6339496000437,122.6339496000437,0.22483385994564742,3.0275467905998115,122.84581470000558,122.6339496000437,[-1.3810032999608666],,,,,,,,tsbvqq,001,fr,0,2022-05-04_17h28.58.455,Continuous,2022.1.1,35.46858972476719,
3,0,3,0,2,0,2,0,,,,,,,,1.8602263823387843,frequency,397.0,23.96447690390851,0.0012206462656075196,0,48,[],0.016751060029491782,None,['space'],125.64664230006747,125.64664230006747,0.215221660095267,2.0754480424340516,125.86704729998019,125.64664230006747,[-2.6964145000092685],,,,,,,,tsbvqq,001,fr,0,2022-05-04_17h28.58.455,Continuous,2022.1.1,35.46858972476719,
3,0,3,0,3,0,3,0,,,,,,,,1.648880806768959,frequency,595.0,18.13319914014201,0.00045673635791169574,0,49,[],0.02202416001819074,None,['space'],127.72496909997426,127.72496909997426,0.22913826000876725,1.8780190667777263,127.93678029999137,127.72496909997426,[-1.750598100014031],,,,,,,,tsbvqq,001,fr,0,2022-05-04_17h28.58.455,Continuous,2022.1.1,35.46858972476719,
3,0,3,0,4,0,4,0,,,,,,,,2.3486953123657854,frequency,891.0,23.414213652827698,0.0006067529723878487,0,50,[],0.021354159922339022,None,['space'],129.58201460004784,129.58201460004784,0.22374795994255692,2.5724432723083424,129.79803679999895,129.58201460004784,[-1.4953403000254184],,,,,,,,tsbvqq,001,fr,0,2022-05-04_17h28.58.455,Continuous,2022.1.1,35.46858972476719,
3,0,3,0,5,0,5,0,,,,,,,,1.2887860726366247,frequency,1335.0,20.6191559658447,0.0005627045270978945,0,51,[],0.021732759894803166,None,['space'],132.1399407000281,132.1399407000281,0.2271643599960953,1.51595043263272,132.355717599974,132.1399407000281,[-2.3100635999580845],,,,,,,,tsbvqq,001,fr,0,2022-05-04_17h28.58.455,Continuous,2022.1.1,35.46858972476719,
3,0,3,0,6,0,6,0,,,,,,,,1.5495943470268672,frequency,2000.0,13.121174241908848,0.00033886656194239605,0,52,[],0.02183906000573188,None,['space'],133.64270560001023,133.64270560001023,0.22690365999005735,1.7764980070169245,133.8575364999706,133.64270560001023,[-1.2852242999942973],,,,,,,,tsbvqq,001,fr,0,2022-05-04_17h28.58.455,Continuous,2022.1.1,35.46858972476719,
3,0,3,0,7,0,7,0,,,,,,,,1.621263362705832,frequency,2997.0,10.550043759409512,0.00018533033390079765,0,53,[],0.021817459841258824,None,['space'],135.40469900006428,135.40469900006428,0.22607695986516774,1.8473403225709997,135.61885960004292,135.40469900006428,[-1.3983463000040501],,,,,,,,tsbvqq,001,fr,0,2022-05-04_17h28.58.455,Continuous,2022.1.1,35.46858972476719,
3,0,3,0,8,0,8,0,,,,,,,,2.199893209722765,frequency,4490.0,13.264512064959533,0.0005417965669507844,0,54,[],0.021687560016289353,None,"['space', 'space']",137.23362359998282,137.23362359998282,0.2281971600605175,2.4280903697832823,137.443752399995,137.23362359998282,"[-1.5633758000331, 0.17963530006818473]",,,,,,,,tsbvqq,001,fr,0,2022-05-04_17h28.58.455,Continuous,2022.1.1,35.46858972476719,
3,0,3,0,9,0,9,0,,,,,,,,2.0547987516033794,frequency,6727.0,3.906830425794716,0.00022414539902761347,0,55,[],0.014200359932146966,None,['space'],139.6690839000512,139.6690839000512,0.22818285995163023,2.2829816115550097,139.89229930005968,139.6690839000512,[-0.5917960000224411],,,,,,,,tsbvqq,001,fr,0,2022-05-04_17h28.58.455,Continuous,2022.1.1,35.46858972476719,
3,0,3,0,10,0,10,0,,,,,,,,1.564528861627281,frequency,,,,1,55,[],0.021435359958559275,None,None,141.93960120005067,141.93960120005067,0.22730776004027575,1.7918366216675568,142.15086080005858,141.93960120005067,,,,,,,,,tsbvqq,001,fr,0,2022-05-04_17h28.58.455,Continuous,2022.1.1,35.46858972476719,
4,0,4,0,0,0,0,0,,,,,,146.00176360004116,None,1.2657451181220636,time,187.0,14.482966486045363,0.0016572892412344473,0,29,[],0.02422736003063619,None,None,147.0402035000734,None,0.21890246006660163,1.4846475781886652,147.2523675999837,None,,143.71466350008268,None,"[0.3333333333333333, 0.3333333333333333, 0.5833333333333334, 0.16666666666666666, 0.3333333333333333, 0.3333333333333333, 0.3333333333333333, 0.3333333333333333, 0.5833333333333334, 0.5833333333333334, 0.3333333333333333, 0.16666666666666666, 0.3333333333333333, 0.3333333333333333, 0.5833333333333334]",,,,,tsbvqq,001,fr,0,2022-05-04_17h28.58.455,Continuous,2022.1.1,35.46858972476719,
4,0,4,0,1,0,1,0,,,,,,,,1.2657451181220636,time,236.0,16.02558737692531,0.0012334358464323367,0,30,[],0.021286659874022007,None,None,148.5099390000105,148.5099390000105,0.2271312599768862,1.4928763780989498,148.7240793000674,148.5099390000105,,,,,,,,,tsbvqq,001,fr,0,2022-05-04_17h28.58.455,Continuous,2022.1.1,35.46858972476719,
4,0,4,0,2,0,2,0,,,,,,,,1.2657451181220636,time,1784.0,17.167241156800188,0.00046953451215067394,0,31,[],0.014858959941193461,None,['space'],149.99190740007907,149.99190740007907,0.21765055996365845,1.483395678085722,150.21048830007203,149.99190740007907,[-1.073897400056012],,,,,,,,tsbvqq,001,fr,0,2022-05-04_17h28.58.455,Continuous,2022.1.1,35.46858972476719,
4,0,4,0,3,0,3,0,,,,,,,,1.2657451181220636,time,354.0,18.0,0.0007029517838246072,0,32,[],0.021352559910155833,None,['space'],151.4787842000369,151.4787842000369,0.22590315993875265,1.4916482780608162,151.69329119997565,151.4787842000369,[-1.201322800014168],,,,,,,,tsbvqq,001,fr,0,2022-05-04_17h28.58.455,Continuous,2022.1.1,35.46858972476719,
4,0,4,0,4,0,4,0,,,,,,,,1.2657451181220636,time,1191.0,13.767199147076383,0.0002539271460298533,0,33,[],0.016535659902729094,0.21186126000247896,['space'],152.95941150002182,152.95941150002182,0.21186126000247896,1.4776063781245425,153.17683910008054,152.95941150002182,[-1.1771627999842167],,,,,,,,tsbvqq,001,fr,0,2022-05-04_17h28.58.455,Continuous,2022.1.1,35.46858972476719,
4,0,4,0,5,0,5,0,,,,,,,,1.2657451181220636,time,945.0,9.147673524506176,0.00012180431140697501,0,34,[],0.02144976006820798,None,"['space', 'space']",154.4413470000727,154.4413470000727,0.22887006006203592,1.4946151781840995,154.65971520007588,154.4413470000727,"[-1.2201041000662372, 0.07613830000627786]",,,,,,,,tsbvqq,001,fr,0,2022-05-04_17h28.58.455,Continuous,2022.1.1,35.46858972476719,
4,0,4,0,6,0,6,0,,,,,,,,1.2657451181220636,time,,,,1,34,[],0.021294660051353276,None,None,155.9193152000662,155.9193152000662,0.23418095998931676,1.4999260781113803,156.13915339997038,155.9193152000662,,,,,,,,,tsbvqq,001,fr,0,2022-05-04_17h28.58.455,Continuous,2022.1.1,35.46858972476719,
4,0,4,0,7,0,7,0,,,,,,,,1.2657451181220636,time,668.0,16.841397118434887,0.00033249978286786444,0,35,[],0.019040960003621876,None,['space'],157.39535380003508,157.39535380003508,0.21697165991645306,1.4827167780385166,157.61534570006188,157.39535380003508,[-1.053020599996671],,,,,,,,tsbvqq,001,fr,0,2022-05-04_17h28.58.455,Continuous,2022.1.1,35.46858972476719,
4,0,4,0,8,0,8,0,,,,,,,,1.2657451181220636,time,530.0,17.004777440876218,0.00047291782975295303,0,36,[],0.02024645998608321,None,None,158.87980059999973,158.87980059999973,0.22210295998957008,1.4878480781116337,159.10114370007068,158.87980059999973,,,,,,,,,tsbvqq,001,fr,0,2022-05-04_17h28.58.455,Continuous,2022.1.1,35.46858972476719,
5,0,5,0,0,0,0,0,,,,,,162.66825190000236,None,1.537468605933094,time,839.0,25.007782527846572,0.0007026322159545445,0,37,[],0.02400686009787023,0.22016926005017012,None,163.69116829999257,None,0.22016926005017012,1.757637865983264,163.90313710004557,None,,160.37186299997848,None,"[0.5833333333333334, 0.5833333333333334, 0.16666666666666666, 0.3333333333333333, 0.16666666666666666, 0.3333333333333333, 0.5833333333333334, 0.5833333333333334, 0.16666666666666666, 0.5833333333333334, 0.16666666666666666, 0.16666666666666666, 0.5833333333333334, 0.16666666666666666, 0.5833333333333334]",,,,,tsbvqq,001,fr,0,2022-05-04_17h28.58.455,Continuous,2022.1.1,35.46858972476719,
5,0,5,0,1,0,1,0,,,,,,,,1.537468605933094,time,,,,1,37,[],0.021086159977130592,None,['space'],165.4309170000488,165.4309170000488,0.226717559969984,1.764186165903078,165.638417600072,165.4309170000488,[-1.3610389999812469],,,,,,,,tsbvqq,001,fr,0,2022-05-04_17h28.58.455,Continuous,2022.1.1,35.46858972476719,
5,0,5,0,2,0,2,0,,,,,,,,1.537468605933094,time,265.0,20.46033743399204,0.0015984239044535096,0,38,[],0.022364460048265755,None,None,167.1774449000368,167.1774449000368,0.22721096000168473,1.7646795659347787,167.39670589996967,167.1774449000368,,,,,,,,,tsbvqq,001,fr,0,2022-05-04_17h28.58.455,Continuous,2022.1.1,35.46858972476719,
5,0,5,0,3,0,3,0,,,,,,,,1.537468605933094,time,158.0,21.28212949256905,0.004971527156582707,0,39,[],0.02091796009335667,None,['space'],168.93360260000918,168.93360260000918,0.22972776007372886,1.7671963660068228,169.14492630003951,168.93360260000918,[-1.2795902999350801],,,,,,,,tsbvqq,001,fr,0,2022-05-04_17h28.58.455,Continuous,2022.1.1,35.46858972476719,
5,0,5,0,4,0,4,0,,,,,,,,1.537468605933094,time,560.0,19.80785823762974,0.0006072637096939512,0,40,[],0.01597076014149934,0.21457996009849012,['space'],170.6771882000612,170.6771882000612,0.21457996009849012,1.752048566031584,170.8962883000495,170.6771882000612,[-1.4710972999455407],,,,,,,,tsbvqq,001,fr,0,2022-05-04_17h28.58.455,Continuous,2022.1.1,35.46858972476719,
5,0,5,0,5,0,5,0,,,,,,,,1.537468605933094,time,177.0,26.0,0.006967609763950412,0,41,[],0.01355546002741903,None,['space'],172.43502049997915,172.43502049997915,0.21511956001631916,1.7525881659494131,172.65039980004076,172.43502049997915,[-1.4369914000853896],,,,,,,,tsbvqq,001,fr,0,2022-05-04_17h28.58.455,Continuous,2022.1.1,35.46858972476719,
5,0,5,0,6,0,6,0,,,,,,,,1.537468605933094,time,499.0,22.927035669785447,0.001001456941582963,0,42,[],0.020717460080049932,None,"['space', 'space']",174.19073170004413,174.19073170004413,0.22740006004460156,1.7648686659776955,174.41173410008196,174.19073170004413,"[-1.4972122000763193, 0.007486299960874021]",,,,,,,,tsbvqq,001,fr,0,2022-05-04_17h28.58.455,Continuous,2022.1.1,35.46858972476719,
5,0,5,0,7,0,7,0,,,,,,,,1.537468605933094,time,297.0,21.29813025204746,0.001366620445782521,0,43,[],0.02015916001982987,None,['space'],175.94739750004373,175.94739750004373,0.22314616001676768,1.7606147659498617,176.16787090001162,175.94739750004373,[0.04218409990426153],,,,,,,,tsbvqq,001,fr,0,2022-05-04_17h28.58.455,Continuous,2022.1.1,35.46858972476719,
6,0,6,0,0,0,0,0,,,,,0.16666666666666666,178.96081040007994,None,2.7162883967268807,both,141.0,17.608397524935775,0.004406092482923895,0,29,[],0.024212060030549765,None,['space'],179.975248200004,None,0.2209302600240335,2.937218656750914,180.1859492000658,None,[-1.1050874999491498],177.7001202000538,None,,,,,,tsbvqq,001,fr,0,2022-05-04_17h28.58.455,Continuous,2022.1.1,35.46858972476719,
6,0,6,0,1,0,1,0,,,,,,,,2.7162883967268807,both,158.0,12.661586168440826,0.0018427340035362548,0,30,[],0.02002965984866023,None,None,182.89982140006032,182.89982140006032,0.22720265993848443,2.943491056665365,183.11309330002405,182.89982140006032,,,,,,,,,tsbvqq,001,fr,0,2022-05-04_17h28.58.455,Continuous,2022.1.1,35.46858972476719,
6,0,6,0,2,0,2,0,,,,,,,,2.7162883967268807,both,177.0,10.74085424245497,0.0012026147640209124,0,31,[],0.01783265999983996,None,['space'],185.82553420006298,185.82553420006298,0.21612846001517028,2.932416856742051,186.04534140008036,185.82553420006298,[-2.507788800052367],,,,,,,,tsbvqq,001,fr,0,2022-05-04_17h28.58.455,Continuous,2022.1.1,35.46858972476719,
6,0,6,0,3,0,3,0,,,,,,,,2.7162883967268807,both,199.0,11.707808593974352,0.0010358064878871662,0,32,[],0.020238259923644364,None,['space'],188.76153200003318,188.76153200003318,0.22431675996631384,2.9406051566931946,188.97499330004212,188.76153200003318,[-2.5959475999698043],,,,,,,,tsbvqq,001,fr,0,2022-05-04_17h28.58.455,Continuous,2022.1.1,35.46858972476719,
6,0,6,0,4,0,4,0,,,,,,,,2.7162883967268807,both,223.0,12.19021500281807,0.0008967772985731243,0,33,[],0.02030525985173881,None,['space'],191.6865073000081,191.6865073000081,0.2229683599434793,2.93925675667036,191.90208949998487,191.6865073000081,[-2.576557799940929],,,,,,,,tsbvqq,001,fr,0,2022-05-04_17h28.58.455,Continuous,2022.1.1,35.46858972476719,
6,0,6,0,5,0,5,0,,,,,,,,2.7162883967268807,both,250.0,15.855595256532098,0.0010393211547173407,0,34,[],0.009162259986624122,None,['space'],194.62518790003378,194.62518790003378,0.2142870599636808,2.9305754566905615,194.85000229999423,194.62518790003378,[-2.5547483999980614],,,,,,,,tsbvqq,001,fr,0,2022-05-04_17h28.58.455,Continuous,2022.1.1,35.46858972476719,
6,0,6,0,6,0,6,0,,,,,,,,2.7162883967268807,both,281.0,18.0,0.001069491809280863,0,35,[],0.020099060027860105,None,['space'],197.56962670001667,197.56962670001667,0.22455746005289257,2.9408458567797733,197.78671060001943,197.56962670001667,[-2.6206994999665767],,,,,,,,tsbvqq,001,fr,0,2022-05-04_17h28.58.455,Continuous,2022.1.1,35.46858972476719,
6,0,6,0,7,0,7,0,,,,,,,,2.7162883967268807,both,315.0,19.871581314604104,0.0009717377400812883,0,36,[],0.02024045994039625,None,['space'],200.4962996999966,200.4962996999966,0.22308415989391506,2.9393725566207958,200.71108000003733,200.4962996999966,[-2.6510172999696806],,,,,,,,tsbvqq,001,fr,0,2022-05-04_17h28.58.455,Continuous,2022.1.1,35.46858972476719,
6,0,6,0,8,0,8,0,,,,,,,,2.7162883967268807,both,354.0,18.0,0.0007029517838246072,0,37,[],0.017367460066452622,0.2158518600044772,['space'],203.42798979999498,203.42798979999498,0.2158518600044772,2.932140256731358,203.64359430002514,203.42798979999498,[-2.574017299921252],,,,,,,,tsbvqq,001,fr,0,2022-05-04_17h28.58.455,Continuous,2022.1.1,35.46858972476719,
6,0,6,0,9,0,9,0,,,,,,,,2.7162883967268807,both,397.0,23.33897102944956,0.0011358331327131752,0,38,[],0.020184860099107027,None,['space'],206.35403500008397,206.35403500008397,0.22655316011514515,2.942841556842026,206.5726334999781,206.35403500008397,[-2.5401852999348193],,,,,,,,tsbvqq,001,fr,0,2022-05-04_17h28.58.455,Continuous,2022.1.1,35.46858972476719,
6,0,6,0,10,0,10,0,,,,,,,,2.7162883967268807,both,446.0,18.99225270876317,0.0006607535401773661,0,39,[],0.01603876007720828,None,"['space', 'space']",209.28418409998994,209.28418409998994,0.21220126003026962,2.9284896567571503,209.5032336000586,209.28418409998994,"[-2.6868921000277624, -0.27015510003548115]",,,,,,,,tsbvqq,001,fr,0,2022-05-04_17h28.58.455,Continuous,2022.1.1,35.46858972476719,
6,0,6,0,11,0,11,0,,,,,,,,2.7162883967268807,both,501.0,18.260256372943925,0.0005834901094538543,0,40,[],0.019928559893742204,None,['space'],212.21773819997907,212.21773819997907,0.2235226599732414,2.939811056700122,212.42644259997178,212.21773819997907,[-0.54748720000498],,,,,,,,tsbvqq,001,fr,0,2022-05-04_17h28.58.455,Continuous,2022.1.1,35.46858972476719,
6,0,6,0,12,0,12,0,,,,,,,,2.7162883967268807,both,,,,1,40,[],0.019952059839852154,None,['space'],215.14632950001396,215.14632950001396,0.2272993598598987,2.9435877565867794,215.3593973000534,215.14632950001396,[0.1397504999767989],,,,,,,,tsbvqq,001,fr,0,2022-05-04_17h28.58.455,Continuous,2022.1.1,35.46858972476719,
6,0,6,0,13,0,13,0,,,,,,,,2.7162883967268807,both,631.0,15.73506476084123,0.0003125922833495075,0,41,[],0.02026546001434326,None,None,218.07508640002925,218.07508640002925,0.22586596000473946,2.94215435673162,218.2965260000201,218.07508640002925,,,,,,,,,tsbvqq,001,fr,0,2022-05-04_17h28.58.455,Continuous,2022.1.1,35.46858972476719,
6,0,6,0,14,0,14,0,,,,,,,,2.7162883967268807,both,708.0,15.542809904649447,0.0002653294811975049,0,42,[],0.019320859923027456,None,['space'],221.00645280000754,221.00645280000754,0.22453596000559628,2.940824356732477,221.2242151000537,221.00645280000754,[0.10331300005782396],,,,,,,,tsbvqq,001,fr,0,2022-05-04_17h28.58.455,Continuous,2022.1.1,35.46858972476719,
7,0,7,0,0,0,0,0,,,,,0.16666666666666666,226.14231700007804,None,1.9199171686914205,both,524.0,15.39642850768189,0.0003984873268421873,0,43,[],0.024179560015909374,None,None,227.14509640005417,None,0.22655956004746258,2.1464767287388833,227.36060210003052,None,,223.93191809998825,None,,,,,,tsbvqq,001,fr,0,2022-05-04_17h28.58.455,Continuous,2022.1.1,35.46858972476719,
7,0,7,0,1,0,1,0,,,,,,,,1.9199171686914205,both,588.0,15.49972985569873,0.0003437856328177796,0,44,[],0.019187959958799183,None,None,229.27821909997147,229.27821909997147,0.2252742600394413,2.145191428730862,229.48934109997936,229.27821909997147,,,,,,,,,tsbvqq,001,fr,0,2022-05-04_17h28.58.455,Continuous,2022.1.1,35.46858972476719,
7,0,7,0,2,0,2,0,,,,,,,,1.9199171686914205,both,660.0,13.597819629662304,0.0002322393953121459,0,45,[],0.019771860097534955,None,['space'],231.40602400002535,231.40602400002535,0.22291856002993882,2.1428357287213595,231.62103849998675,231.40602400002535,[0.05657659994903952],,,,,,,,tsbvqq,001,fr,0,2022-05-04_17h28.58.455,Continuous,2022.1.1,35.46858972476719,
7,0,7,0,3,0,3,0,,,,,,,,1.9199171686914205,both,741.0,10.735843235027158,0.00014259853466145524,0,46,[],0.019575559999793768,None,None,233.53931670007296,233.53931670007296,0.2226278600282967,2.1425450287197174,233.74253260006662,233.53931670007296,,,,,,,,,tsbvqq,001,fr,0,2022-05-04_17h28.58.455,Continuous,2022.1.1,35.46858972476719,
7,0,7,0,4,0,4,0,,,,,,,,1.9199171686914205,both,832.0,9.841567962085767,0.00012196158183464666,0,47,[],0.01205906004179269,None,None,235.67004820005968,235.67004820005968,0.2068814600352198,2.1267986287266405,235.88283050002065,235.67004820005968,,,,,,,,,tsbvqq,001,fr,0,2022-05-04_17h28.58.455,Continuous,2022.1.1,35.46858972476719,
7,0,7,0,5,0,5,0,,,,,,,,1.9199171686914205,both,934.0,7.3086466486157,9.783717812090349e-05,0,48,[],0.019596860045567155,None,['space'],237.8056636999827,237.8056636999827,0.225539360078983,2.1454565287704037,238.013494700077,237.8056636999827,[-1.7194674999918789],,,,,,,,tsbvqq,001,fr,0,2022-05-04_17h28.58.455,Continuous,2022.1.1,35.46858972476719,
7,0,7,0,6,0,6,0,,,,,,,,1.9199171686914205,both,1048.0,7.250536775974366,0.00010613341664061727,0,49,[],0.011973359971307218,None,['space'],239.94060590001754,239.94060590001754,0.2109502600505948,2.1308674287420155,240.15359590004664,239.94060590001754,[-1.6949813000392169],,,,,,,,tsbvqq,001,fr,0,2022-05-04_17h28.58.455,Continuous,2022.1.1,35.46858972476719,
7,0,7,0,7,0,7,0,,,,,,,,1.9199171686914205,both,1176.0,7.621610774799941,0.00012364087770292396,0,50,[],0.019494260079227388,None,"['space', 'space']",242.0775567999808,242.0775567999808,0.22273446002509445,2.142651628716515,242.28856710006949,242.0775567999808,"[-1.8802472000243142, 0.10378280002623796]",,,,,,,,tsbvqq,001,fr,0,2022-05-04_17h28.58.455,Continuous,2022.1.1,35.46858972476719,
7,0,7,0,8,0,8,0,,,,,,,,1.9199171686914205,both,1320.0,7.0,0.00011814034578168958,0,51,[],0.015400760108605027,None,['space'],244.20598440000322,244.20598440000322,0.21635076007805765,2.1362679287694784,244.4244936000323,244.20598440000322,[-0.13655029993969947],,,,,,,,tsbvqq,001,fr,0,2022-05-04_17h28.58.455,Continuous,2022.1.1,35.46858972476719,
7,0,7,0,9,0,9,0,,,,,,,,1.9199171686914205,both,1482.0,9.220363785848468,0.00014092488415001393,0,52,[],0.019411860033869743,None,['space'],246.3468986999942,246.3468986999942,0.22119975998066366,2.1411169286720844,246.56232650007587,246.3468986999942,[-0.21344089997000992],,,,,,,,tsbvqq,001,fr,0,2022-05-04_17h28.58.455,Continuous,2022.1.1,35.46858972476719,
7,0,7,0,10,0,10,0,,,,,,,,1.9199171686914205,both,1663.0,8.927736918495095,0.00016657047662199152,0,53,[],0.019378560013137758,None,['space'],248.4850155999884,248.4850155999884,0.22464366001076996,2.1445608287021907,248.69318559998646,248.4850155999884,[-0.19180369994137436],,,,,,,,tsbvqq,001,fr,0,2022-05-04_17h28.58.455,Continuous,2022.1.1,35.46858972476719,
7,0,7,0,11,0,11,0,,,,,,,,1.9199171686914205,both,1867.0,8.41304109968997,0.00018125125235441742,0,54,[],0.019132860004901886,None,['space'],250.61768849997316,250.61768849997316,0.2372738600242883,2.157191028715709,250.84034110000357,250.61768849997316,[-0.1801745000993833],,,,,,,,tsbvqq,001,fr,0,2022-05-04_17h28.58.455,Continuous,2022.1.1,35.46858972476719,
7,0,7,0,12,0,12,0,,,,,,,,1.9199171686914205,both,,,,1,54,[],0.01909525995142758,None,['space'],252.75787159998436,252.75787159998436,0.22425525996368378,2.1441724286551045,252.97046660003252,252.75787159998436,[-0.01619980006944388],,,,,,,,tsbvqq,001,fr,0,2022-05-04_17h28.58.455,Continuous,2022.1.1,35.46858972476719,
7,0,7,0,13,0,13,0,,,,,,,,1.9199171686914205,both,2353.0,7.356413379216484,0.00019274996998589204,0,55,[],0.020235660020262003,None,['space'],254.89165600005072,254.89165600005072,0.22407766000833362,2.1439948286997543,255.10384019999765,254.89165600005072,[-0.1180744000012055],,,,,,,,tsbvqq,001,fr,0,2022-05-04_17h28.58.455,Continuous,2022.1.1,35.46858972476719,
7,0,7,0,14,0,14,0,,,,,,,,1.9199171686914205,both,2641.0,7.0034369464092086,0.0001727481872053494,0,56,[],0.018604059936478734,None,['space'],257.027736500022,257.027736500022,0.2244725599884987,2.1443897286799194,257.24824390001595,257.027736500022,[0.0011631000088527799],,,,,,,,tsbvqq,001,fr,0,2022-05-04_17h28.58.455,Continuous,2022.1.1,35.46858972476719,
8,0,8,0,0,0,0,0,,,,,,263.0923030000413,None,1.2702625701404038,time,6965.0,1.1804733162894674,0.00017202614048335966,0,44,[],0.02418776007834822,None,None,264.1169079000829,None,0.22708156006410718,1.497344130204511,264.3360742999939,None,,259.1679748999886,None,"[0.16666666666666666, 0.16666666666666666, 0.16666666666666666, 0.3333333333333333, 0.16666666666666666, 0.5833333333333334, 0.16666666666666666, 0.16666666666666666, 0.16666666666666666, 0.16666666666666666, 0.3333333333333333, 0.16666666666666666, 0.5833333333333334, 0.5833333333333334, 0.3333333333333333]",,,,,tsbvqq,001,fr,0,2022-05-04_17h28.58.455,Continuous,2022.1.1,35.46858972476719,
8,0,8,0,1,0,1,0,,,,,,,,1.2702625701404038,time,7818.0,1.124522744701939,0.00020035192405175035,0,45,[],0.01901986007578671,None,['space'],265.60856690001674,265.60856690001674,0.22554266010411084,1.4958052302445146,265.8197432999732,265.60856690001674,[-0.7550716999685392],,,,,,,,tsbvqq,001,fr,0,2022-05-04_17h28.58.455,Continuous,2022.1.1,35.46858972476719,
8,0,8,0,2,0,2,0,,,,,,,,1.2702625701404038,time,4925.0,1.0,0.0001655937853633201,0,46,[],0.011585159925743937,None,None,267.0860320000211,267.0860320000211,0.2088882599491626,1.4791508300895664,267.30652720003854,267.0860320000211,,,,,,,,,tsbvqq,001,fr,0,2022-05-04_17h28.58.455,Continuous,2022.1.1,35.46858972476719,
8,0,8,0,3,0,3,0,,,,,,,,1.2702625701404038,time,1305.0,7.303993095391844,0.00012321168333468067,0,47,[],0.018496360047720373,None,['space'],268.57773879996967,268.57773879996967,0.2223812600132078,1.4926438301536116,268.79940600006375,268.57773879996967,[-1.0996711000334471],,,,,,,,tsbvqq,001,fr,0,2022-05-04_17h28.58.455,Continuous,2022.1.1,35.46858972476719,
8,0,8,0,4,0,4,0,,,,,,,,1.2702625701404038,time,2325.0,7.776890371397488,0.00020079083194925762,0,48,[],0.015018959995359182,None,['space'],270.06618049996905,270.06618049996905,0.21172875992488116,1.481991330065285,270.2853840000462,270.06618049996905,[-1.0841396000469103],,,,,,,,tsbvqq,001,fr,0,2022-05-04_17h28.58.455,Continuous,2022.1.1,35.46858972476719,
8,0,8,0,5,0,5,0,,,,,,,,1.2702625701404038,time,1465.0,3.824868997142543,7.637596725863225e-05,0,49,[],0.018898459966294467,None,['space'],271.55850080004893,271.55850080004893,0.22023186006117612,1.49049443020158,271.77878990001045,271.55850080004893,[0.14331549999769777],,,,,,,,tsbvqq,001,fr,0,2022-05-04_17h28.58.455,Continuous,2022.1.1,35.46858972476719,
8,0,8,0,6,0,6,0,,,,,,,,1.2702625701404038,time,1644.0,7.238987063898168,0.00013516466283276907,0,50,[],0.01882146007847041,None,None,273.0488194000209,273.0488194000209,0.2257377600762993,1.496000330216703,273.2565184000414,273.0488194000209,,,,,,,,,tsbvqq,001,fr,0,2022-05-04_17h28.58.455,Continuous,2022.1.1,35.46858972476719,
8,0,8,0,7,0,7,0,,,,,,,,1.2702625701404038,time,5528.0,0.8948944955391345,0.0001477388041634638,0,51,[],0.012387559982016683,None,['space'],274.5255149999866,274.5255149999866,0.20892145996913314,1.479184030109537,274.7483103000559,274.5255149999866,[-1.1600604999111965],,,,,,,,tsbvqq,001,fr,0,2022-05-04_17h28.58.455,Continuous,2022.1.1,35.46858972476719,
8,0,8,0,8,0,8,0,,,,,,,,1.2702625701404038,time,3909.0,1.40377851074552,9.678642256952079e-05,0,52,[],0.018620960065163672,None,['space'],276.0196024000179,276.0196024000179,0.22292436007410288,1.4931869302145067,276.23510549997445,276.0196024000179,[-0.8301115999929607],,,,,,,,tsbvqq,001,fr,0,2022-05-04_17h28.58.455,Continuous,2022.1.1,35.46858972476719,
8,0,8,0,9,0,9,0,,,,,,,,1.2702625701404038,time,3483.0,1.3961666348468322,8.791957740497885e-05,0,53,[],0.017577459919266403,None,None,277.50419330003206,277.50419330003206,0.2187914599198848,1.4890540300602886,277.72004919999745,277.50419330003206,,,,,,,,,tsbvqq,001,fr,0,2022-05-04_17h28.58.455,Continuous,2022.1.1,35.46858972476719,
8,0,8,0,10,0,10,0,,,,,,,,1.2702625701404038,time,,,,1,53,[],0.014487960026599467,None,['space'],278.99488170002587,278.99488170002587,0.21039546001702547,1.4806580301574293,279.2110149000073,278.99488170002587,[-1.1013880000682548],,,,,,,,tsbvqq,001,fr,0,2022-05-04_17h28.58.455,Continuous,2022.1.1,35.46858972476719,
8,0,8,0,11,0,11,0,,,,,,,,1.2702625701404038,time,2071.0,5.080011699132626,0.00013709209581644252,0,54,[],0.019579460029490292,None,None,280.48411279998254,280.48411279998254,0.22329796000849456,1.4935605301488983,280.69823620002717,280.48411279998254,,,,,,,,,tsbvqq,001,fr,0,2022-05-04_17h28.58.455,Continuous,2022.1.1,35.46858972476719,
9,0,9,0,0,0,0,0,,,,,,285.19362829998136,None,2.1886483643130465,time,131.0,7.837656075419354,0.0016500821583182574,0,55,[],0.01967755996156484,None,None,286.20895860006567,None,0.21913005993701518,2.4077784242500617,286.42011170007754,None,,281.97496160003357,None,"[0.3333333333333333, 0.16666666666666666, 0.3333333333333333, 0.3333333333333333, 0.5833333333333334, 0.3333333333333333, 0.5833333333333334, 0.16666666666666666, 0.3333333333333333, 0.3333333333333333, 0.3333333333333333, 0.3333333333333333, 0.16666666666666666, 0.16666666666666666, 0.3333333333333333]",,,,,tsbvqq,001,fr,0,2022-05-04_17h28.58.455,Continuous,2022.1.1,35.46858972476719,
9,0,9,0,1,0,1,0,,,,,,,,2.1886483643130465,time,,,,1,55,[],0.0182703600730747,None,None,288.6162885000231,288.6162885000231,0.22401936003006995,2.4126677243431165,288.8263525000075,288.6162885000231,,,,,,,,,tsbvqq,001,fr,0,2022-05-04_17h28.58.455,Continuous,2022.1.1,35.46858972476719,
9,0,9,0,2,0,2,0,,,,,,,,2.1886483643130465,time,1867.0,7.042917151993224,0.00015480137667671148,0,56,[],0.01955476007424295,None,None,291.0101921000751,291.0101921000751,0.24249526008497924,2.431143624398026,291.2347279000096,291.0101921000751,,,,,,,,,tsbvqq,001,fr,0,2022-05-04_17h28.58.455,Continuous,2022.1.1,35.46858972476719,
9,0,9,0,3,0,3,0,,,,,,,,2.1886483643130465,time,2096.0,0.15487494308944427,7.832403120392556e-05,0,57,[],0.015643859980627894,None,"['space', 'space']",293.4221262000501,293.4221262000501,0.21504106000065804,2.4036894243137046,293.6431762999855,293.4221262000501,"[-1.880450600059703, 0.16754509997554123]",,,,,,,,tsbvqq,001,fr,0,2022-05-04_17h28.58.455,Continuous,2022.1.1,35.46858972476719,
9,0,9,0,4,0,4,0,,,,,,,,2.1886483643130465,time,147.0,3.937945344613544,0.0008290692184386759,0,58,[],0.01825215993449092,None,['space'],295.83397620008327,295.83397620008327,0.22332095995079726,2.411969324263844,296.0446553999791,295.83397620008327,[-0.03626229998189956],,,,,,,,tsbvqq,001,fr,0,2022-05-04_17h28.58.455,Continuous,2022.1.1,35.46858972476719,
9,0,9,0,5,0,5,0,,,,,,,,2.1886483643130465,time,349.0,-0.8502937428249986,8.142067850879028e-05,0,59,[],0.013996060006320477,0.20802766003180295,None,298.2319263999816,298.2319263999816,0.20802766003180295,2.3966760243448495,298.44674260006286,298.2319263999816,,,,,,,,,tsbvqq,001,fr,0,2022-05-04_17h28.58.455,Continuous,2022.1.1,35.46858972476719,
9,0,9,0,6,0,6,0,,,,,,,,2.1886483643130465,time,660.0,1.075359053423492,5.4930412861811054e-05,0,60,[],0.014445660053752363,None,None,300.6306641000556,300.6306641000556,0.21894026012159884,2.4075886244346454,300.8487222000258,300.6306641000556,,,,,,,,,tsbvqq,001,fr,0,2022-05-04_17h28.58.455,Continuous,2022.1.1,35.46858972476719,
9,0,9,0,7,0,7,0,,,,,,,,2.1886483643130465,time,741.0,6.473477112401012,8.729648489029541e-05,0,61,[],0.018082259921357036,None,['space'],303.04131480003707,303.04131480003707,0.22193535999394953,2.410583724306996,303.2536863000132,303.04131480003707,[-1.3875444999430329],,,,,,,,tsbvqq,001,fr,0,2022-05-04_17h28.58.455,Continuous,2022.1.1,35.46858972476719,
9,0,9,0,8,0,8,0,,,,,,,,2.1886483643130465,time,2353.0,0.1852887579567728,8.441858882412088e-05,0,62,[],0.01081486011389643,None,None,305.4432549000485,305.4432549000485,0.20642216014675796,2.3950705244598045,305.6583640000317,305.4432549000485,,,,,,,,,tsbvqq,001,fr,0,2022-05-04_17h28.58.455,Continuous,2022.1.1,35.46858972476719,
9,0,9,0,9,0,9,0,,,,,,,,2.1886483643130465,time,933.0,-5.0,2.3701663381124344e-05,0,63,[],0.01826416002586484,None,['space'],307.85335380001925,307.85335380001925,0.22094215999823064,2.409590524311277,308.06925940001383,307.85335380001925,[-1.543420400004834],,,,,,,,tsbvqq,001,fr,0,2022-05-04_17h28.58.455,Continuous,2022.1.1,35.46858972476719,
9,0,9,0,10,0,10,0,,,,,,,,2.1886483643130465,time,1176.0,4.845944308335098,8.98211799728961e-05,0,64,[],0.013995760004036129,0.2088705600472167,None,310.2591270999983,310.2591270999983,0.2088705600472167,2.3975189243602633,310.47756700008176,310.2591270999983,,,,,,,,,tsbvqq,001,fr,0,2022-05-04_17h28.58.455,Continuous,2022.1.1,35.46858972476719,
9,0,9,0,11,0,11,0,,,,,,,,2.1886483643130465,time,2965.0,-0.38453794696217436,5.453052702165607e-05,0,65,[],0.013386160135269165,0.21072536008432508,['space'],312.6592151999939,312.6592151999939,0.21072536008432508,2.3993737243973716,312.8726560000796,312.6592151999939,[-1.181458399980329],,,,,,,,tsbvqq,001,fr,0,2022-05-04_17h28.58.455,Continuous,2022.1.1,35.46858972476719,
9,0,9,0,12,0,12,0,,,,,,,,2.1886483643130465,time,185.0,7.568451792536632,0.0007650152949803188,0,66,[],0.01765656005591154,None,None,315.0601424999768,315.0601424999768,0.21956315997522324,2.40821152428827,315.2715292000212,315.0601424999768,,,,,,,,,tsbvqq,001,fr,0,2022-05-04_17h28.58.455,Continuous,2022.1.1,35.46858972476719,
9,0,9,0,13,0,13,0,,,,,,,,2.1886483643130465,time,233.0,-2.4476823713083125,0.0001514801376286474,0,67,[],0.017822059919126332,None,['space'],317.4625399999786,317.4625399999786,0.22408835997339338,2.41273672428644,317.6725113000721,317.4625399999786,[-1.8722972999094054],,,,,,,,tsbvqq,001,fr,0,2022-05-04_17h28.58.455,Continuous,2022.1.1,35.46858972476719,
9,0,9,0,14,0,14,0,,,,,,,,2.1886483643130465,time,440.0,-3.371464546763118,5.0541050903567964e-05,0,68,[],0.017812959966249764,None,['space'],319.8639863000717,319.8639863000717,0.22208865999709815,2.4107370243101447,320.0672730000224,319.8639863000717,[-1.3302732000593096],,,,,,,,tsbvqq,001,fr,0,2022-05-04_17h28.58.455,Continuous,2022.1.1,35.46858972476719,
10,0,10,0,0,0,0,0,,,,,,329.6568339000223,None,2.1659638037576654,time,,,,1,68,[],0.024532460025511682,None,['space'],330.6926287000533,None,0.22411346004810184,2.3900772638057672,330.90273089997936,None,[-3.6629379000514746],322.2614088000264,None,"[0.3333333333333333, 0.16666666666666666, 0.5833333333333334, 0.16666666666666666, 0.16666666666666666, 0.3333333333333333, 0.3333333333333333, 0.3333333333333333, 0.5833333333333334, 0.16666666666666666, 0.16666666666666666, 0.3333333333333333, 0.16666666666666666, 0.3333333333333333, 0.3333333333333333]",,,,,tsbvqq,001,fr,0,2022-05-04_17h28.58.455,Continuous,2022.1.1,35.46858972476719,
10,0,10,0,1,0,1,0,,,,,,,,2.1659638037576654,time,354.0,1.0,9.929457867117957e-05,0,69,[],0.01588326005730778,None,None,333.0633267000085,333.0633267000085,0.21490486001130193,2.3808686637689673,333.28373700007796,333.0633267000085,,,,,,,,,tsbvqq,001,fr,0,2022-05-04_17h28.58.455,Continuous,2022.1.1,35.46858972476719,
10,0,10,0,2,0,2,0,,,,,,,,2.1659638037576654,time,148.0,3.732606175821833,0.0007960171723564779,0,70,[],0.017282760003581643,None,None,335.449432500056,335.449432500056,0.2194175599142909,2.3853813636719563,335.6604271000251,335.449432500056,,,,,,,,,tsbvqq,001,fr,0,2022-05-04_17h28.58.455,Continuous,2022.1.1,35.46858972476719,
10,0,10,0,3,0,3,0,,,,,,,,2.1659638037576654,time,562.0,4.00050470354115,9.790878084112914e-05,0,71,[],0.014090060023590922,None,None,337.82252420007717,337.82252420007717,0.20889076008461416,2.3748545638422796,338.0389800000703,337.82252420007717,,,,,,,,,tsbvqq,001,fr,0,2022-05-04_17h28.58.455,Continuous,2022.1.1,35.46858972476719,
10,0,10,0,4,0,4,0,,,,,,,,2.1659638037576654,time,795.0,2.0815209414844382,4.904692832969449e-05,0,72,[],0.0133614600636065,0.20920286001637578,None,340.20547769998666,340.20547769998666,0.20920286001637578,2.375166663774041,340.4242320000194,340.20547769998666,,,,,,,,,tsbvqq,001,fr,0,2022-05-04_17h28.58.455,Continuous,2022.1.1,35.46858972476719,
10,0,10,0,5,0,5,0,,,,,,,,2.1659638037576654,time,397.0,1.9696404073037321,9.701703594521159e-05,0,73,[],0.017337860073894262,None,None,342.5877231999766,342.5877231999766,0.22123076010029763,2.387194563857963,342.79304780007806,342.5877231999766,,,,,,,,,tsbvqq,001,fr,0,2022-05-04_17h28.58.455,Continuous,2022.1.1,35.46858972476719,
10,0,10,0,6,0,6,0,,,,,,,,2.1659638037576654,time,1002.0,4.192307313863151,7.151700190954006e-05,0,74,[],0.013935259892605245,None,None,344.9630966000259,344.9630966000259,0.2112171599874273,2.3771809637450927,345.17910259997007,344.9630966000259,,,,,,,,,tsbvqq,001,fr,0,2022-05-04_17h28.58.455,Continuous,2022.1.1,35.46858972476719,
10,0,10,0,7,0,7,0,,,,,,,,2.1659638037576654,time,236.0,7.565273448741733,0.00046569424332990365,0,75,[],0.01418386003933847,0.2130421600304544,['space'],347.34555610001553,347.34555610001553,0.2130421600304544,2.37900596378812,347.5651043000398,347.34555610001553,[-1.5955268000252545],,,,,,,,tsbvqq,001,fr,0,2022-05-04_17h28.58.455,Continuous,2022.1.1,35.46858972476719,
10,0,10,0,8,0,8,0,,,,,,,,2.1659638037576654,time,446.0,8.030941033448617,0.00018705697846634663,0,76,[],0.017192160012200475,None,['space'],349.7263300999766,349.7263300999766,0.23075385997071862,2.396717663728384,349.9445281000808,349.7263300999766,[-1.0161179000278935],,,,,,,,tsbvqq,001,fr,0,2022-05-04_17h28.58.455,Continuous,2022.1.1,35.46858972476719,
10,0,10,0,9,0,9,0,,,,,,,,2.1659638037576654,time,187.0,6.891587665350402,0.0006915592107498395,0,77,[],0.013583160005509853,None,['space'],352.10507200006396,352.10507200006396,0.2115117599023506,2.377475563660016,352.3214597000042,352.10507200006396,[-0.7880153000587597],,,,,,,,tsbvqq,001,fr,0,2022-05-04_17h28.58.455,Continuous,2022.1.1,35.46858972476719,
11,0,11,0,0,0,0,0,,,,,0.3333333333333333,357.2207904000534,None,1.0528450978169557,both,776.0,2.7761222737566182,5.431950864190517e-05,0,57,[],0.024253459880128503,None,None,358.25162750005256,None,0.2222501599462703,1.275095257763226,358.46336579998024,None,,354.49484780000057,None,,,,,,tsbvqq,001,fr,0,2022-05-04_17h28.58.455,Continuous,2022.1.1,35.46858972476719,
11,0,11,0,1,0,1,0,,,,,,,,1.0528450978169557,both,,,,1,57,[],0.013424860080704093,None,None,359.5126428999938,359.5126428999938,0.20794686011504382,1.2607919579319995,359.72803220001515,359.5126428999938,,,,,,,,,tsbvqq,001,fr,0,2022-05-04_17h28.58.455,Continuous,2022.1.1,35.46858972476719,
11,0,11,0,2,0,2,0,,,,,,,,1.0528450978169557,both,1232.0,7.031398710168127,0.00012078127183733912,0,58,[],0.015307660098187625,None,None,360.7787952000508,360.7787952000508,0.21098816010635346,1.2638332579233091,360.9971416000044,360.7787952000508,,,,,,,,,tsbvqq,001,fr,0,2022-05-04_17h28.58.455,Continuous,2022.1.1,35.46858972476719,
11,0,11,0,3,0,3,0,,,,,,,,1.0528450978169557,both,1552.0,4.355171676184051,8.700258018956367e-05,0,59,[],0.01718985999468714,None,['space'],362.0540832000552,362.0540832000552,0.220334260025993,1.2731793578429487,362.26728869997896,362.0540832000552,[-0.9286815000232309],,,,,,,,tsbvqq,001,fr,0,2022-05-04_17h28.58.455,Continuous,2022.1.1,35.46858972476719,
11,0,11,0,4,0,4,0,,,,,,,,1.0528450978169557,both,1955.0,6.335662294183123,0.00015093658786573974,0,60,[],0.017165360040962696,None,None,363.3228350999998,363.3228350999998,0.22491605998948216,1.2777611578064378,363.53918730001897,363.3228350999998,,,,,,,,,tsbvqq,001,fr,0,2022-05-04_17h28.58.455,Continuous,2022.1.1,35.46858972476719,
11,0,11,0,5,0,5,0,,,,,,,,1.0528450978169557,both,2463.0,4.837496871231089,0.00014848342502330326,0,61,[],0.016846759943291545,None,['space'],364.5945006000111,364.5945006000111,0.2207186600426212,1.2735637578595769,364.80216369999107,364.5945006000111,[-0.8771907999180257],,,,,,,,tsbvqq,001,fr,0,2022-05-04_17h28.58.455,Continuous,2022.1.1,35.46858972476719,
11,0,11,0,6,0,6,0,,,,,,,,1.0528450978169557,both,3103.0,1.634927403776917,7.794463838985394e-05,0,62,[],0.01680926012340933,None,None,365.8633063000161,365.8633063000161,0.21965366008225828,1.272498757899214,366.07422279997263,365.8633063000161,,,,,,,,,tsbvqq,001,fr,0,2022-05-04_17h28.58.455,Continuous,2022.1.1,35.46858972476719,
11,0,11,0,7,0,7,0,,,,,,,,1.0528450978169557,both,3909.0,1.8233187699623352,0.00010157608047919646,0,63,[],0.015336760086938739,None,['space'],367.1315939000342,367.1315939000342,0.2135401600971818,1.2663852579141375,367.34251810004935,367.1315939000342,[-0.7900279000168666],,,,,,,,tsbvqq,001,fr,0,2022-05-04_17h28.58.455,Continuous,2022.1.1,35.46858972476719,
11,0,11,0,8,0,8,0,,,,,,,,1.0528450978169557,both,4925.0,1.0,0.0001655937853633201,0,64,[],0.015989959938451648,None,['space'],368.39976359996945,368.39976359996945,0.21638125996105373,1.2692263577780094,368.61603709997144,368.39976359996945,[-0.6666460999986157],,,,,,,,tsbvqq,001,fr,0,2022-05-04_17h28.58.455,Continuous,2022.1.1,35.46858972476719,
11,0,11,0,9,0,9,0,,,,,,,,1.0528450978169557,both,6205.0,0.9696281548317178,0.00014035630813420878,0,65,[],0.013532460085116327,0.2119064599974081,"['space', 'space']",369.6742361000506,369.6742361000506,0.2119064599974081,1.2647515578143638,369.8843710999936,369.6742361000506,"[-0.9170344000449404, 0.12332719995174557]",,,,,,,,tsbvqq,001,fr,0,2022-05-04_17h28.58.455,Continuous,2022.1.1,35.46858972476719,
11,0,11,0,10,0,10,0,,,,,,,,1.0528450978169557,both,7818.0,3.669476725664455,0.0002685599309164343,0,66,[],0.013375160051509738,None,['space'],370.9397266000742,370.9397266000742,0.21037006005644798,1.2632151578734037,371.15766180003993,370.9397266000742,[0.07353799999691546],,,,,,,,tsbvqq,001,fr,0,2022-05-04_17h28.58.455,Continuous,2022.1.1,35.46858972476719,
12,0,12,0,0,0,0,0,,,,,0.3333333333333333,376.77202060003765,None,2.449111170351931,both,131.0,11.305881363458907,0.00245989649034201,0,67,[],0.022401960100978613,None,['space'],377.7829277999699,None,0.23621846013702452,2.6853296304889556,377.9944909000769,None,[-1.0888235000893474],372.21493440004997,None,,,,,,tsbvqq,001,fr,0,2022-05-04_17h28.58.455,Continuous,2022.1.1,35.46858972476719,
12,0,12,0,1,0,1,0,,,,,,,,2.449111170351931,both,165.0,8.552364946296278,0.001051750962260698,0,68,[],0.012611259939149022,None,None,380.44748570001684,380.44748570001684,0.20891485991887748,2.6580260302708085,380.66678079997655,380.44748570001684,,,,,,,,,tsbvqq,001,fr,0,2022-05-04_17h28.58.455,Continuous,2022.1.1,35.46858972476719,
12,0,12,0,2,0,2,0,,,,,,,,2.449111170351931,both,208.0,9.299512080017417,0.0007286410258882336,0,69,[],0.012971059884876013,None,['space'],383.1171456000302,383.1171456000302,0.2122112598735839,2.661322430225515,383.3367129000835,383.1171456000302,[-0.023220299975946546],,,,,,,,tsbvqq,001,fr,0,2022-05-04_17h28.58.455,Continuous,2022.1.1,35.46858972476719,
12,0,12,0,3,0,3,0,,,,,,,,2.449111170351931,both,262.0,13.164505939474207,0.0007045495664594407,0,70,[],0.012469760025851429,None,['space'],385.7867654999718,385.7867654999718,0.20976796001195908,2.65887913036389,386.0064902000595,385.7867654999718,[-0.6925895001040772],,,,,,,,tsbvqq,001,fr,0,2022-05-04_17h28.58.455,Continuous,2022.1.1,35.46858972476719,
12,0,12,0,4,0,4,0,,,,,,,,2.449111170351931,both,330.0,8.0,0.0002379434711000918,0,71,[],0.013226060080341995,None,['space'],388.4576824000105,388.4576824000105,0.20750666002277285,2.656617830374704,388.6753655000357,388.4576824000105,[-0.7240599999204278],,,,,,,,tsbvqq,001,fr,0,2022-05-04_17h28.58.455,Continuous,2022.1.1,35.46858972476719,
12,0,12,0,5,0,5,0,,,,,,,,2.449111170351931,both,416.0,18.85527053678069,0.0006638510126516763,0,72,[],0.012202560086734593,None,None,391.1256724999985,391.1256724999985,0.20715216011740267,2.6562633304693337,391.3454028000124,391.1256724999985,,,,,,,,,tsbvqq,001,fr,0,2022-05-04_17h28.58.455,Continuous,2022.1.1,35.46858972476719,
12,0,12,0,6,0,6,0,,,,,,,,2.449111170351931,both,524.0,15.354880303790642,0.00039658574872863435,0,73,[],0.013231460005044937,None,"['space', 'space']",393.7970739000011,393.7970739000011,0.2107766600092873,2.6598878303612183,394.01046330004465,393.7970739000011,"[-2.2243315000087023, -1.0392911999952048]",,,,,,,,tsbvqq,001,fr,0,2022-05-04_17h28.58.455,Continuous,2022.1.1,35.46858972476719,
12,0,12,0,7,0,7,0,,,,,,,,2.449111170351931,both,660.0,13.161760924506172,0.0002208680804580503,0,74,[],0.011966860038228333,None,"['space', 'space']",396.46495509997476,396.46495509997476,0.20733515999745578,2.656446330349387,396.68445729999803,396.46495509997476,"[-1.7234544000821188, -0.234746600035578]",,,,,,,,tsbvqq,001,fr,0,2022-05-04_17h28.58.455,Continuous,2022.1.1,35.46858972476719,
12,0,12,0,8,0,8,0,,,,,,,,2.449111170351931,both,832.0,8.79858777521919,0.00010816183314617026,0,75,[],0.013101859949529171,None,['space'],399.1366055000108,399.1366055000108,0.20879765995778143,2.6579088303097125,399.35387440002523,399.1366055000108,[-0.4422655999660492],,,,,,,,tsbvqq,001,fr,0,2022-05-04_17h28.58.455,Continuous,2022.1.1,35.46858972476719,
12,0,12,0,9,0,9,0,,,,,,,,2.449111170351931,both,,,,1,75,[],0.013142560026608407,None,['space'],401.8055142000085,401.8055142000085,0.2085532599594444,2.6576644303113754,402.0228168000467,401.8055142000085,[-1.2394393999129534],,,,,,,,tsbvqq,001,fr,0,2022-05-04_17h28.58.455,Continuous,2022.1.1,35.46858972476719,
12,0,12,0,10,0,10,0,,,,,,,,2.449111170351931,both,1320.0,8.482052465538324,0.0001401202362614959,0,76,[],0.013619459932669997,None,['space'],404.4731498999754,404.4731498999754,0.2105404599569738,2.659651630308905,404.6928944999818,404.4731498999754,[-0.2116270000115037],,,,,,,,tsbvqq,001,fr,0,2022-05-04_17h28.58.455,Continuous,2022.1.1,35.46858972476719,
13,0,13,0,0,0,0,0,,,,,0.3333333333333333,410.1727715000743,None,1.1590419026477232,frequency,1260.0,8.891334014392934,0.0001510268460659531,0,56,[],0.024227860034443438,None,None,411.20310060004704,None,0.23734285996761173,1.396384762615335,411.41703020001296,None,,407.14641030004714,None,,,,,,tsbvqq,001,fr,0,2022-05-04_17h28.58.455,Continuous,2022.1.1,35.46858972476719,
13,0,13,0,1,0,1,0,,,,,,,,2.9162570002112593,frequency,1587.0,8.334842730793824,0.00014528650061892167,0,57,[],0.015379859949462116,None,['space'],412.5791942999931,412.5791942999931,0.2180147599428892,3.1342717601541485,412.7958771000849,412.5791942999931,[-0.5890899000223726],,,,,,,,tsbvqq,001,fr,0,2022-05-04_17h28.58.455,Continuous,2022.1.1,35.46858972476719,
13,0,13,0,2,0,2,0,,,,,,,,2.2836821265225877,frequency,2000.0,2.5160037148370176,9.994709830779024e-05,0,58,[],0.015918659861199558,None,['space'],415.7153162000468,415.7153162000468,0.2186849599238485,2.5023670864464362,415.917941300082,415.7153162000468,[-2.5097163999453187],,,,,,,,tsbvqq,001,fr,0,2022-05-04_17h28.58.455,Continuous,2022.1.1,35.46858972476719,
13,0,13,0,3,0,3,0,,,,,,,,1.1864743961054214,frequency,2520.0,4.923703408741371,0.00014921939039553545,0,59,[],0.012772660003975034,None,None,418.206055900082,418.206055900082,0.20836806006263942,1.3948424561680608,418.4231184000382,418.206055900082,,,,,,,,,tsbvqq,001,fr,0,2022-05-04_17h28.58.455,Continuous,2022.1.1,35.46858972476719,
13,0,13,0,4,0,4,0,,,,,,,,2.7355371153302857,frequency,3175.0,2.6499339300448748,9.423655079872874e-05,0,60,[],0.011963560013100505,None,None,419.61189739999827,419.61189739999827,0.21284515992738307,2.9483822752576687,419.82973180001136,419.61189739999827,,,,,,,,,tsbvqq,001,fr,0,2022-05-04_17h28.58.455,Continuous,2022.1.1,35.46858972476719,
13,0,13,0,5,0,5,0,,,,,,,,2.6856626651064923,frequency,4000.0,1.7961383590812983,0.00010322310584982059,0,61,[],0.015580059960484505,None,['space'],422.57395270001143,422.57395270001143,0.21814526000525802,2.9038079251117503,422.7843297000509,422.57395270001143,[-2.457202299963683],,,,,,,,tsbvqq,001,fr,0,2022-05-04_17h28.58.455,Continuous,2022.1.1,35.46858972476719,
13,0,13,0,6,0,6,0,,,,,,,,2.494835996794359,frequency,5040.0,1.9059784243978601,0.00018838859490328638,0,62,[],0.008011060068383813,0.19942865998018533,['space'],425.472588500008,425.472588500008,0.19942865998018533,2.6942646567745445,425.6816945000319,425.472588500008,[-2.4104908999288455],,,,,,,,tsbvqq,001,fr,0,2022-05-04_17h28.58.455,Continuous,2022.1.1,35.46858972476719,
13,0,13,0,7,0,7,0,,,,,,,,1.7690212024590302,frequency,,,,1,62,[],0.014278860064223409,None,['space'],428.1795801999979,428.1795801999979,0.214257960091345,1.9832791625503752,428.3973069000058,428.1795801999979,[-2.3021240999223664],,,,,,,,tsbvqq,001,fr,0,2022-05-04_17h28.58.455,Continuous,2022.1.1,35.46858972476719,
13,0,13,0,8,0,8,0,,,,,,,,2.596651991708087,frequency,8000.0,2.0,0.0002285440948074376,0,63,[],0.01270945998840034,None,['space'],430.1737075999845,430.1737075999845,0.20982685999479145,2.8064788517028783,430.38696849998087,430.1737075999845,[-1.623788999975659],,,,,,,,tsbvqq,001,fr,0,2022-05-04_17h28.58.455,Continuous,2022.1.1,35.46858972476719,
14,0,14,0,0,0,0,0,,,,,,440.64462889998686,None,2.7404045228376033,time,1888.0,-1.977037286804677,5.555475113540784e-05,0,78,[],0.024369959952309728,None,None,441.67306469997857,None,0.2340627599041909,2.974467282741794,441.8923993000062,None,,432.98745060001966,None,"[0.3333333333333333, 0.3333333333333333, 0.5833333333333334, 0.5833333333333334, 0.3333333333333333, 0.5833333333333334, 0.5833333333333334, 0.5833333333333334, 0.3333333333333333, 0.5833333333333334, 0.5833333333333334, 0.16666666666666666, 0.3333333333333333, 0.5833333333333334, 0.16666666666666666]",,,,,tsbvqq,001,fr,0,2022-05-04_17h28.58.455,Continuous,2022.1.1,35.46858972476719,
14,0,14,0,1,0,1,0,,,,,,,,2.7404045228376033,time,2829.0,2.0909541340908095,8.326448239911654e-05,0,79,[],0.011342360056005418,None,None,444.63201709999703,444.63201709999703,0.20816796005237848,2.9485724828899817,444.85200319997966,444.63201709999703,,,,,,,,,tsbvqq,001,fr,0,2022-05-04_17h28.58.455,Continuous,2022.1.1,35.46858972476719,
14,0,14,0,2,0,2,0,,,,,,,,2.7404045228376033,time,667.0,-2.8029892127030074,3.470304056971824e-05,0,80,[],0.015431759878993034,None,None,447.59693690005224,447.59693690005224,0.21971295995172113,2.9601174827893244,447.80530030000955,447.59693690005224,,,,,,,,,tsbvqq,001,fr,0,2022-05-04_17h28.58.455,Continuous,2022.1.1,35.46858972476719,
14,0,14,0,3,0,3,0,,,,,,,,2.7404045228376033,time,529.0,4.397104317004114,0.00011102367722580726,0,81,[],0.014247059938497841,None,None,450.5532026999863,450.5532026999863,0.21563795988913625,2.9560424827267395,450.7743899000343,450.5532026999863,,,,,,,,,tsbvqq,001,fr,0,2022-05-04_17h28.58.455,Continuous,2022.1.1,35.46858972476719,
14,0,14,0,4,0,4,0,,,,,,,,2.7404045228376033,time,8000.0,-3.0,0.00012851978913844324,0,82,[],0.007850560010410845,None,None,453.51839740003925,453.51839740003925,0.2015121600124985,2.9419166828501018,453.7329150000587,453.51839740003925,,,,,,,,,tsbvqq,001,fr,0,2022-05-04_17h28.58.455,Continuous,2022.1.1,35.46858972476719,
14,0,14,0,5,0,5,0,,,,,,,,2.7404045228376033,time,1000.0,5.264454639518039,8.07593354007287e-05,0,83,[],0.01175706007052213,None,None,456.47929460008163,456.47929460008163,0.20611426001414657,2.94651878285175,456.69801529997494,456.47929460008163,,,,,,,,,tsbvqq,001,fr,0,2022-05-04_17h28.58.455,Continuous,2022.1.1,35.46858972476719,
14,0,14,0,6,0,6,0,,,,,,,,2.7404045228376033,time,6350.0,0.3743198881215799,0.00013731553489882816,0,84,[],0.015608760062605143,None,['space'],459.4460133999819,459.4460133999819,0.22140946006402373,2.961813982901627,459.66257370007224,459.4460133999819,[-2.465417300001718],,,,,,,,tsbvqq,001,fr,0,2022-05-04_17h28.58.455,Continuous,2022.1.1,35.46858972476719,
14,0,14,0,7,0,7,0,,,,,,,,2.7404045228376033,time,,,,1,84,[],0.011534160003066063,None,['space'],462.4004356000805,462.4004356000805,0.20829436008352786,2.948698882921131,462.61963730002753,462.4004356000805,[-2.555420699995011],,,,,,,,tsbvqq,001,fr,0,2022-05-04_17h28.58.455,Continuous,2022.1.1,35.46858972476719,
14,0,14,0,8,0,8,0,,,,,,,,2.7404045228376033,time,1499.0,9.77490310949926,0.00014891495780369797,0,85,[],0.011459660134278238,None,['space'],465.3623046000721,465.3623046000721,0.21036546013783664,2.95076998297544,465.5744248999981,465.3623046000721,[-2.1413269999902695],,,,,,,,tsbvqq,001,fr,0,2022-05-04_17h28.58.455,Continuous,2022.1.1,35.46858972476719,
14,0,14,0,9,0,9,0,,,,,,,,2.7404045228376033,time,4238.0,-2.440857988393865,7.574034566708238e-05,0,86,[],0.014265160076320171,None,"['space', 'space']",468.32177340006456,468.32177340006456,0.21591155999340117,2.9563160828310044,468.5382413000334,468.32177340006456,"[-2.5564527000533417, -0.3639158000005409]",,,,,,,,tsbvqq,001,fr,0,2022-05-04_17h28.58.455,Continuous,2022.1.1,35.46858972476719,
15,0,15,0,0,0,0,0,,,,,,478.33884490001947,None,2.1866740977794166,time,,,,1,86,[],0.02413705992512405,None,None,479.34567220008466,None,0.2316169599071145,2.418291057686531,479.5599700000603,None,,471.2851768999826,None,"[0.16666666666666666, 0.5833333333333334, 0.5833333333333334, 0.5833333333333334, 0.5833333333333334, 0.16666666666666666, 0.5833333333333334, 0.3333333333333333, 0.3333333333333333, 0.5833333333333334, 0.5833333333333334, 0.16666666666666666, 0.16666666666666666, 0.5833333333333334, 0.16666666666666666]",,,,,tsbvqq,001,fr,0,2022-05-04_17h28.58.455,Continuous,2022.1.1,35.46858972476719,
15,0,15,0,1,0,1,0,,,,,,,,2.1866740977794166,time,1680.0,11.680623997137733,0.0002316330356898923,0,87,[],0.016101859975606203,None,None,481.7470391000388,481.7470391000388,0.21938536001835018,2.4060594577977668,481.961450300063,481.7470391000388,,,,,,,,,tsbvqq,001,fr,0,2022-05-04_17h28.58.455,Continuous,2022.1.1,35.46858972476719,
15,0,15,0,2,0,2,0,,,,,,,,2.1866740977794166,time,706.0,15.078746908798678,0.0002525209419744732,0,88,['time'],0.011229860014282167,None,['space'],484.1569995000027,484.1569995000027,0.20871236000675708,2.3953864577861737,484.37703600001987,484.1569995000027,[-1.8961380999535322],,,,"{'estimation': [[125.0, 22.2125466570697], [125.47549125316571, 22.0], [127.75496999845272, 21.0], [130.1176214063295, 20.0], [132.5939393875463, 19.0], [133.9716828170366, 18.46748655051606], [135.09985540332235, 18.0], [137.52683593494444, 17.0], [139.99142680121074, 16.0], [142.52162593016408, 15.0], [143.5872943746293, 14.589226708004869], [145.3302581029536, 14.0], [148.30574604443936, 13.0], [151.3302465314171, 12.0], [153.89305166811442, 11.173074855265567], [154.6451659621198, 11.0], [159.0438435338888, 10.0], [163.5652636507055, 9.0], [164.93848884661162, 8.703025902818618], [171.549167787998, 8.0], [176.77669529663666, 7.464843055441104], [189.46457081379947, 7.498150357168701], [195.53107145468775, 8.0], [203.0630990890585, 8.599265255952623], [206.27160349521174, 9.0], [214.51669498293228, 10.0], [217.6376408240306, 10.366257181583265], [222.6833349813294, 11.0], [230.8937141292347, 12.0], [233.25824788420132, 12.279854799773528], [241.00046483856315, 13.0], [249.99999999999937, 13.810925369056541], [254.58391960621364, 14.0], [267.94336563407256, 14.538264176373339], [287.1745887492579, 14.251718856539348], [291.29910426014067, 14.0], [307.78610333622805, 13.015892568929795], [307.9704521352788, 13.0], [319.7463750164989, 12.0], [329.87697769322244, 11.166128121267803], [331.83253140161173, 11.0], [343.85409891140876, 10.0], [353.55339059327247, 9.222705570251062], [357.2345019621111, 9.0], [374.3702825488987, 8.0], [378.929141627598, 7.74426557339266], [406.12619817811606, 7.158384921996135], [435.2752816480601, 7.624933401505116], [443.5722093520308, 8.0], [466.5164957684015, 8.98789045513693], [466.7280841437612, 9.000000000000002], [484.575400309473, 10.0], [499.9999999999975, 10.82718838622277], [503.4008379865778, 11.0], [523.4833537011672, 12.0], [535.8867312681438, 12.597772043058846], [548.5435990710339, 13.0], [574.3491774985143, 13.798157932932792], [600.7123640776122, 14.0], [615.5722066724546, 14.11110610274788], [622.985252689924, 14.0], [659.7539553864432, 13.46538697615085], [674.6089569701891, 13.0], [707.1067811865431, 12.012585633933652], [707.4211314002556, 12.0], [732.7970295287283, 11.0], [757.8582832551941, 10.044724412712911], [758.9486724462781, 10.0], [783.725622849396, 9.0], [809.3644255528334, 8.0], [812.252396356229, 7.89004885477855], [836.9654859166794, 7.0], [865.789142464008, 6.0], [870.5505632961192, 5.839328667203172], [900.262390191015, 5.0], [933.0329915368008, 4.112743149251333], [938.8777719835587, 4.0], [992.424939347061, 3.0], [999.9999999999926, 2.8631441990145032], [1071.773462536285, 2.1928901543493935], [1148.698354997026, 2.1543400251693128], [1231.1444133449063, 2.7338173826669476], [1252.0920749278066, 3.0], [1319.5079107728816, 3.8260223662148523], [1330.8892822323976, 4.0], [1398.6357200864209, 5.0], [1414.2135623730828, 5.221370714406365], [1469.2124367247875, 6.0], [1515.7165665103846, 6.630743765983819], [1550.6962069745036, 7.0], [1624.5047927124563, 7.748460351068328], [1673.722894439434, 8.0], [1741.1011265922318, 8.331770021428003], [1866.065983073597, 8.269247304487962], [1919.534675111417, 8.0], [1999.9999999999802, 7.607737907564246], [2079.550196920399, 7.0], [2143.5469250725646, 6.523344221005157], [2205.95976161386, 6.0], [2297.396709994046, 5.249037407964349], [2329.453711065624, 5.0], [2461.015894518047, 4.0], [2462.2888266898094, 3.9905025546947543], [2617.193384591564, 3.0], [2639.01582154576, 2.864333567502528], [2804.4470408993907, 2.0], [2828.427124746159, 1.8788298795085518], [3023.149382011768, 1.0], [3031.4331330207615, 0.9639215247662731], [3249.0095854249043, 0.02856326441341306], [3255.3855843896754, 0.0], [3482.2022531844555, -0.9809338083436953], [3486.533935953873, -1.0], [3721.0013012514055, -2.0], [3732.13196614718, -2.045982742703281], [3979.8627856321614, -3.0], [3999.999999999946, -3.0753836701546033], [4287.093850145118, -3.9345225189316553], [4322.665501334129, -4.0], [4594.793419988076, -4.489215769420618], [4924.577653379601, -4.643285468513987], [5278.031643091506, -4.365446141535955], [5479.569675454787, -4.0], [5656.854249492303, -3.691846432235087], [5941.371287435715, -3.0], [6062.866266041508, -2.7171184682066003], [6330.882955559496, -2.0], [6498.019170849792, -1.5723232869076114], [6720.728228574366, -1.0], [6964.4045063688845, -0.40120952647682534], [7149.101689830897, 0.0], [7464.263932294341, 0.6628600803926816], [7677.240160487408, 1.0], [7999.999999999882, 1.5160003113236078]], 'plus_line': [[125.0, 8.816227269064257], [127.1176371410851, 8.0], [129.87390236691633, 7.0], [132.87542617492988, 6.000000000000001], [133.9716828170366, 5.653166002700723], [135.48413308200352, 5.0], [137.84645439783085, 4.0], [140.32209731134984, 3.0], [142.95638235047056, 2.0], [143.5872943746293, 1.7672522929333079], [145.67910363635784, 1.0], [148.47197600048503, 0.0], [151.3993211277011, -1.0], [153.89305166811442, -1.8095407187797088], [154.67566394234407, -2.0], [158.828015028927, -3.0], [163.21399150954156, -4.0], [164.9384888466117, -4.380637920783202], [170.65336867578807, -5.0], [176.77669529663666, -5.63808610819976], [189.46457081379947, -5.5794195990966085], [196.09838905638486, -5.0], [203.0630990890585, -4.4116329780830945], [206.20704789904738, -4.0], [213.95510656420112, -3.0], [217.6376408240306, -2.5337129512507506], [221.7076016448279, -2.0], [229.41176000018442, -1.0], [233.25824788420132, -0.509539153416117], [238.64411753333164, 0.0], [249.40639408356267, 1.0], [249.99999999999937, 1.0536641849208679], [267.94336563407256, 1.6824835483238585], [287.1745887492579, 1.2329025048137043], [290.58819476303836, 1.0], [305.71541158519034, 0.0], [307.78610333622805, -0.13302328807258632], [317.6021393162772, -1.0], [329.68651258714834, -2.0], [329.87697769322244, -2.0154269001248206], [341.8032394285847, -3.0], [353.55339059327247, -3.902068270250353], [355.29668113118845, -4.0], [373.75592903254704, -5.0], [378.929141627598, -5.26660309977997], [406.12619817811606, -5.697798864764633], [435.2752816480601, -5.039254356741091], [436.03575261546143, -4.999999999999999], [455.9972070457937, -4.0], [466.5164957684015, -3.488315583547368], [474.6779050996389, -3.0], [491.5962760077495, -2.0], [499.9999999999975, -1.5129722237060568], [510.0670583639928, -1.0], [529.9072809950125, 0.0], [535.8867312681438, 0.2952249924361229], [559.0503101402782, 1.0], [574.3491774985143, 1.452092995180918], [615.5722066724546, 1.7050879630355682], [659.7539553864432, 1.0289970139677531], [660.6572744405389, 1.0], [692.569561407047, 0.0], [707.1067811865431, -0.4319661169574881], [721.2523622739567, -1.0], [747.3510820298523, -2.0], [757.8582832551941, -2.3851624176892074], [772.9376514917838, -3.0], [798.6188494530937, -4.0], [812.2523963562301, -4.505477542925494], [826.039105202303, -5.0], [855.0725082801507, -6.0], [870.5505632961181, -6.507634970981099], [887.9358383484858, -7.0], [924.8068898508715, -8.0], [933.0329915368008, -8.216156692420752], [971.857358812914, -9.0], [999.9999999999926, -9.549302094641302], [1037.3534588192927, -10.0], [1071.773462536285, -10.412885377787635], [1148.698354997026, -10.669179408433983], [1231.1444133449063, -10.206261691571184], [1246.7068004425782, -10.0], [1319.5079107728832, -9.06694291666718], [1323.4211701575728, -9.0], [1383.713012858779, -8.0], [1414.2135623730828, -7.509151983777939], [1445.6307157068236, -7.0], [1509.239097260601, -6.0], [1515.7165665103828, -5.901844084522799], [1591.870441640121, -5.0], [1624.5047927124563, -4.629910938376357], [1729.500931531303, -4.0], [1741.101126592234, -3.9345555809722903], [1866.065983073597, -3.9391856278874755], [1877.7152389855034, -4.0], [1999.9999999999802, -4.624345817604088], [2043.8207010370152, -5.0], [2143.5469250725646, -5.82793973521065], [2161.1905762473302, -6.0], [2265.667300804762, -7.0], [2297.396709994046, -7.2950693776322595], [2376.602269729665, -8.0], [2462.2888266898062, -8.736130016788348], [2499.0842004700903, -9.0], [2639.01582154576, -9.97145257273784], [2644.1376583687547, -10.0], [2828.427124746159, -10.996240567677265], [2829.228358641829, -11.0], [3031.4331330207615, -11.921344030966711], [3048.940369931417, -12.0], [3249.0095854249043, -12.872808177271741], [3276.6250840813036, -13.0], [3482.2022531844555, -13.918107258228645], [3499.748622961262, -14.0], [3720.0308861903313, -15.0], [3732.1319661471844, -15.053507533157887], [3950.044326651546, -16.0], [3999.999999999946, -16.21095072733376], [4217.491532231417, -17.0], [4287.093850145118, -17.247578972078696], [4594.793419988081, -17.9712242827367], [4633.331699244564, -18.0], [4924.577653379601, -18.218058087231043], [5168.3557614359315, -18.0], [5278.031643091506, -17.9080666414198], [5656.85424949231, -17.113660941073046], [5695.67756624644, -17.0], [6052.703054651372, -16.0], [6062.866266041508, -15.972776547289543], [6376.981718199254, -15.0], [6498.019170849792, -14.640059860070673], [6711.770122703597, -14.0], [6964.404506368894, -13.272805540790866], [7085.518987107202, -12.999999999999998], [7464.2639322943505, -12.17861289834146], [7761.907830347822, -12.0], [7999.999999999882, -11.860548442177109]], 'minus_line': [[125.0, 36.35365537817881], [125.68631453560802, 36.0], [127.63209654479826, 35.0], [129.5645757696621, 34.0], [131.50726654534427, 33.0], [133.48682749102954, 32.0], [133.9716828170366, 31.763172372617834], [135.78515843145505, 31.0], [138.12065858787426, 30.0], [140.42271924589306, 29.0], [142.7221965213625, 28.0], [143.5872943746293, 27.631208657488948], [145.48236875018512, 27.0], [148.44709158354078, 26.0], [151.3705369570621, 25.0], [153.89305166811442, 24.1390263009909], [154.4889007388662, 24.0], [158.82033324337354, 23.0], [163.133933329922, 21.999999999999996], [164.9384888466115, 21.58852180066291], [170.0563945284967, 21.0], [176.77669529663666, 20.252563694664296], [189.46457081379947, 20.212802766234173], [199.5446375743418, 21.0], [203.0630990890585, 21.263996260779233], [209.0766365710906, 22.0], [217.6376408240306, 22.98315005867938], [217.769598169573, 23.0], [225.70907823819778, 24.0], [233.25824788420132, 24.88889902907121], [234.3699359431205, 25.0], [244.55670023016535, 26.0], [249.99999999999937, 26.511534902434867], [259.34898103725044, 27.0], [267.94336563407256, 27.44388169185565], [287.1745887492579, 27.406583979337867], [295.0186527426901, 27.0], [307.78610333622805, 26.349501597007652], [312.0174280614318, 26.0], [324.21057048523903, 25.0], [329.87697769322244, 24.539610934133563], [336.1077501137434, 24.0], [347.7407009316452, 23.0], [353.55339059327247, 22.507727276182216], [361.23654368091786, 22.0], [376.72112726066325, 21.0], [378.929141627598, 20.861726582178928], [406.12619817811606, 20.07441004261781], [435.2752816480601, 20.335443984416138], [452.2969922681619, 21.0], [466.5164957684015, 21.52515318540076], [475.14821314942117, 22.0], [494.25105150081487, 23.0], [499.9999999999975, 23.288302753266485], [513.5134035852938, 24.0], [533.5464635313755, 25.0], [535.8867312681438, 25.11403197525807], [560.6913760215845, 26.0], [574.3491774985143, 26.471637737570482], [615.5722066724546, 26.94805667246465], [659.7539553864432, 26.42251219690452], [673.7794155912475, 26.0], [707.1067811865431, 25.00776369343982], [707.3009856234871, 25.0], [732.7136365485912, 24.0], [757.8582832551941, 23.006183410176646], [758.0040376079126, 23.0], [781.969733227998, 22.0], [805.862559349936, 21.0], [812.2523963562301, 20.7378105121557], [831.2511588432062, 20.0], [857.2006904064676, 19.0], [870.5505632961181, 18.495840835891165], [886.2267730899337, 18.0], [918.5147199837608, 17.0], [933.0329915368008, 16.56287647263317], [959.8170816007976, 16.0], [999.9999999999926, 15.186254426903217], [1019.2907433598906, 15.0], [1071.773462536285, 14.521092134638454], [1148.698354997026, 14.565111951047836], [1204.1932955379432, 15.0], [1231.1444133449063, 15.20764686469194], [1294.9432505400757, 16.0], [1319.5079107728832, 16.293964588136948], [1367.9850403103849, 17.0], [1414.2135623730828, 17.641827244576252], [1439.6996565927038, 18.0], [1514.0256280816134, 19.0], [1515.7165665103846, 19.02220937545402], [1608.4105965216033, 20.0], [1624.5047927124563, 20.16450372809727], [1741.1011265922318, 20.79057548514377], [1866.065983073597, 20.76793411986508], [1999.9999999999802, 20.16200606566604], [2023.1981279075605, 20.0], [2143.5469250725646, 19.182978443103824], [2167.9580567510575, 19.0], [2297.396709994046, 18.048969923767537], [2304.3355449791634, 18.0], [2449.413166170427, 17.0], [2462.2888266898035, 16.913252478538148], [2612.042124095345, 16.0], [2639.01582154576, 15.840345358277961], [2796.9685291176415, 15.0], [2828.427124746159, 14.838838633647962], [3004.3754689064394, 14.0], [3031.433133020758, 13.876270485209119], [3224.2343562284154, 13.0], [3249.0095854249084, 12.891952894878287], [3446.0214572337195, 12.0], [3482.2022531844555, 11.842417367998825], [3675.0905845242837, 10.999999999999998], [3732.1319661471844, 10.759741240173305], [3934.4613929899033, 10.0], [3999.9999999999504, 9.762510216935802], [4284.258210830936, 9.0], [4287.093850145118, 8.99268113873733], [4594.793419988081, 8.554770287515883], [4924.577653379601, 8.46506003441134], [5278.031643091506, 8.728172283127643], [5444.576738998126, 9.0], [5656.854249492303, 9.338697020592338], [5951.8167465481865, 10.0], [6062.866266041508, 10.240989968633226], [6367.972854349233, 11.0], [6498.019170849792, 11.311245873437683], [6785.051436989452, 12.0], [6964.404506368894, 12.413825085081882], [7214.127488437588, 13.0], [7464.2639322943505, 13.570303497378372], [7619.044428031002, 14.0], [7978.927150337022, 15.0], [7999.999999999882, 15.0589923872386]]}",,,,tsbvqq,001,fr,0,2022-05-04_17h28.58.455,Continuous,2022.1.1,35.46858972476719,
15,0,15,0,3,0,3,0,,,,,,,,2.1866740977794166,time,3171.0,11.195458284363077,0.00025180035694414356,0,89,['time'],0.006115960073657334,0.20095746009610593,None,486.5721352000255,486.5721352000255,0.20095746009610593,2.3876315578755225,486.7866059000371,486.5721352000255,,,,,,,,,tsbvqq,001,fr,0,2022-05-04_17h28.58.455,Continuous,2022.1.1,35.46858972476719,
15,0,15,0,4,0,4,0,,,,,,,,2.1866740977794166,time,5333.0,13.225511635045315,0.0006439431671523637,0,90,['time'],0.012014859938062727,None,['space'],488.9770554000279,488.9770554000279,0.21292915986850858,2.399603257647925,489.19855730002746,488.9770554000279,[-2.0749685999471694],,,,,,,,tsbvqq,001,fr,0,2022-05-04_17h28.58.455,Continuous,2022.1.1,35.46858972476719,
15,0,15,0,5,0,5,0,,,,,,,,2.1866740977794166,time,125.0,25.0,0.012851978913844325,0,91,['time'],0.00726486009079963,0.19909326010383666,['space'],491.392095600022,491.392095600022,0.19909326010383666,2.3857673578832532,491.60202130000107,491.392095600022,[-2.1230635000392795],,,,,,,,tsbvqq,001,fr,0,2022-05-04_17h28.58.455,Continuous,2022.1.1,35.46858972476719,
15,0,15,0,6,0,6,0,,,,,,,,2.1866740977794166,time,280.0,23.007454120385482,0.0019184655095646097,0,92,['time'],0.01406836009118706,None,"['space', 'space']",493.79876540007535,493.79876540007535,0.2184368601301685,2.405110957909585,494.00850110000465,493.79876540007535,"[-2.1780075000133365, 0.07910480001010001]",,,,,,,,tsbvqq,001,fr,0,2022-05-04_17h28.58.455,Continuous,2022.1.1,35.46858972476719,
15,0,15,0,7,0,7,0,,,,,,,,2.1866740977794166,time,1121.0,16.290092943464952,0.0003204097760965108,0,93,['time'],0.027204519952647388,None,['space'],496.20379290007986,496.20379290007986,0.23598471994046122,2.422658817719878,496.4287020000629,496.20379290007986,[-0.18279889994300902],,,,,,,,tsbvqq,001,fr,0,2022-05-04_17h28.58.455,Continuous,2022.1.1,35.46858972476719,
15,0,15,0,8,0,8,0,,,,,,,,2.1866740977794166,time,471.0,22.659511148556717,0.000990514757344297,0,94,['time'],0.013754959916695952,None,['space'],498.6206384000834,498.6206384000834,0.21921175997704268,2.4058858577564592,498.84161000000313,498.6206384000834,[-0.27850810007657856],,,,,,,,tsbvqq,001,fr,0,2022-05-04_17h28.58.455,Continuous,2022.1.1,35.46858972476719,
15,0,15,0,9,0,9,0,,,,,,,,2.1866740977794166,time,420.0,24.7303379863187,0.0013021181799537152,0,95,['time'],0.0074176599737256765,None,['space'],501.03349689999595,501.03349689999595,0.20240895997267216,2.3890830577520887,501.2455077000195,501.03349689999595,[-0.4359243999933824],,,,,,,,tsbvqq,001,fr,0,2022-05-04_17h28.58.455,Continuous,2022.1.1,35.46858972476719,
15,0,15,0,10,0,10,0,,,,,,,,2.1866740977794166,time,4751.0,13.054078902284667,0.0006095460798781403,0,96,['time'],0.013147560064680874,None,['space'],503.44253060000483,503.44253060000483,0.21991906000766903,2.4065931577870856,503.6598555999808,503.44253060000483,[-0.3335838000057265],,,,,,,,tsbvqq,001,fr,0,2022-05-04_17h28.58.455,Continuous,2022.1.1,35.46858972476719,
15,0,15,0,11,0,11,0,,,,,,,,2.1866740977794166,time,890.0,22.782108166874337,0.0005637741243494256,0,97,['time'],0.008807660080492496,None,['space'],505.8470360999927,505.8470360999927,0.22091576003003865,2.4075898578094552,506.0687726000324,505.8470360999927,[-0.1945063000312075],,,,,,,,tsbvqq,001,fr,0,2022-05-04_17h28.58.455,Continuous,2022.1.1,35.46858972476719,
15,0,15,0,12,0,12,0,,,,,,,,2.1866740977794166,time,2825.0,19.153083530014847,0.0005959537088369557,0,98,['time'],0.009695959859527647,None,['space'],508.2567911000224,508.2567911000224,0.2184241599170491,2.4050982576964657,508.4778266000794,508.2567911000224,[-0.2035238000098616],,,,,,,,tsbvqq,001,fr,0,2022-05-04_17h28.58.455,Continuous,2022.1.1,35.46858972476719,
15,0,15,0,13,0,13,0,,,,,,,,2.1866740977794166,time,2517.0,17.83359205747076,0.0006611120642888733,0,99,['time'],0.013479760033078492,None,['space'],510.6664099000627,510.6664099000627,0.2183708599768579,2.4050449577562745,510.8770154999802,510.6664099000627,[-0.10110420000273734],,,,,,,,tsbvqq,001,fr,0,2022-05-04_17h28.58.455,Continuous,2022.1.1,35.46858972476719,
16,0,16,0,0,0,0,0,,,,,0.16666666666666666,518.0938971000724,None,1.6943366931836736,both,3174.0,2.8103105052293285,9.596844055107327e-05,0,77,['time'],0.024492060067132115,None,None,519.1150263000745,None,0.21786706009879708,1.9122037532824707,519.3248673999915,None,,513.0696369999787,None,,,,,,tsbvqq,001,fr,0,2022-05-04_17h28.58.455,Continuous,2022.1.1,35.46858972476719,
16,0,16,0,1,0,1,0,,,,,,,,1.6943366931836736,both,3563.0,1.994146950236026,9.595237504191699e-05,0,78,['time'],0.01317326002754271,None,None,521.0278412000043,521.0278412000043,0.2173560600494966,1.9116927532331702,521.2438212999841,521.0278412000043,,,,,,,,,tsbvqq,001,fr,0,2022-05-04_17h28.58.455,Continuous,2022.1.1,35.46858972476719,
16,0,16,0,2,0,2,0,,,,,,,,1.6943366931836736,both,,,,1,78,['time'],0.01075096009299159,None,['space'],522.9486651000334,522.9486651000334,0.21823266008868814,1.9125693532723618,523.1687116000103,522.9486651000334,[-1.4073582000564784],,,,,,,,tsbvqq,001,fr,0,2022-05-04_17h28.58.455,Continuous,2022.1.1,35.46858972476719,
16,0,16,0,3,0,3,0,,,,,,,,1.6943366931836736,both,4489.0,-1.7566777421665711,9.60556033920259e-05,0,79,['time'],0.012629159959033132,None,None,524.8649741000263,524.8649741000263,0.21193145995493978,1.9062681531386134,525.0824073000113,524.8649741000263,,,,,,,,,tsbvqq,001,fr,0,2022-05-04_17h28.58.455,Continuous,2022.1.1,35.46858972476719,
16,0,16,0,4,0,4,0,,,,,,,,1.6943366931836736,both,5039.0,-1.5713668132646523,0.00012626797132738018,0,80,['time'],0.008745760074816644,0.2015802600653842,['space'],526.7864378000377,526.7864378000377,0.2015802600653842,1.8959169532490578,526.9987217000453,526.7864378000377,[-0.33363490004558116],,,,,,,,tsbvqq,001,fr,0,2022-05-04_17h28.58.455,Continuous,2022.1.1,35.46858972476719,
16,0,16,0,5,0,5,0,,,,,,,,1.6943366931836736,both,5656.0,-1.1005858250556857,0.0001132557643518941,0,81,['time'],0.010375860030762851,0.20553955994546413,None,528.6915459000738,528.6915459000738,0.20553955994546413,1.8998762531291378,528.906722899992,528.6915459000738,,,,,,,,,tsbvqq,001,fr,0,2022-05-04_17h28.58.455,Continuous,2022.1.1,35.46858972476719,
16,0,16,0,6,0,6,0,,,,,,,,1.6943366931836736,both,6349.0,0.12259575813323365,0.0001333623877669322,0,82,['time'],0.013447460019961,None,None,530.6049547999864,530.6049547999864,0.2189239599974826,1.9132606531811562,530.8279104999965,530.6049547999864,,,,,,,,,tsbvqq,001,fr,0,2022-05-04_17h28.58.455,Continuous,2022.1.1,35.46858972476719,
16,0,16,0,7,0,7,0,,,,,,,,1.6943366931836736,both,7127.0,-0.5162713052519505,0.00014612748699503132,0,83,['time'],0.010415259981527925,None,['space'],532.5237472000299,532.5237472000299,0.20864975987933576,1.9029864530630094,532.7439559000777,532.5237472000299,[-1.6386909999419004],,,,,,,,tsbvqq,001,fr,0,2022-05-04_17h28.58.455,Continuous,2022.1.1,35.46858972476719,
16,0,16,0,8,0,8,0,,,,,,,,1.6943366931836736,both,8000.0,-3.0,0.00012851978913844324,0,84,['time'],0.00933736003935337,None,['space'],534.443103400059,534.443103400059,0.2060242600273341,1.9003609532110077,534.6624072999693,534.443103400059,[-1.4776176000013947],,,,,,,,tsbvqq,001,fr,0,2022-05-04_17h28.58.455,Continuous,2022.1.1,35.46858972476719,
17,0,17,0,0,0,0,0,,,,,,538.6710257000523,None,1.0602202306076718,none,4925.0,1.0,0.0001655937853633201,0,40,['time'],0.02426745998673141,None,['space'],539.6868919000262,None,0.2300878600217402,1.290308090629412,539.9094821000472,None,[-0.03319970006123185],536.3645183000481,None,"[0.3333333333333333, 0.3333333333333333, 0.16666666666666666, 0.3333333333333333, 0.16666666666666666, 0.3333333333333333, 0.5833333333333334, 0.3333333333333333, 0.5833333333333334, 0.16666666666666666, 0.16666666666666666, 0.16666666666666666, 0.3333333333333333, 0.5833333333333334, 0.16666666666666666]",,,,,tsbvqq,001,fr,0,2022-05-04_17h28.58.455,Continuous,2022.1.1,35.46858972476719,
17,0,17,0,1,0,1,0,,,,,,,,1.264860736438629,none,870.0,6.4070485689553935,8.438743755435415e-05,0,41,['time'],0.008489059982821345,None,None,540.9668740000343,540.9668740000343,0.2043301600497216,1.4691908964883507,541.1860272000777,540.9668740000343,,,,,,,,,tsbvqq,001,fr,0,2022-05-04_17h28.58.455,Continuous,2022.1.1,35.46858972476719,
17,0,17,0,2,0,2,0,,,,,,,,2.5513958057174864,none,5528.0,0.6958805010093391,0.00014439224860781602,0,42,['time'],0.005285160033963621,0.1886958599789068,['space'],542.4572302000597,542.4572302000597,0.1886958599789068,2.740091665696393,542.660998800071,542.4572302000597,[-0.19606830005068332],,,,,,,,tsbvqq,001,fr,0,2022-05-04_17h28.58.455,Continuous,2022.1.1,35.46858972476719,
17,0,17,0,3,0,3,0,,,,,,,,2.334529729569545,none,6965.0,1.2099942060838453,0.00017261180351813224,0,43,['time'],0.010282859904691577,None,None,545.2200880000601,545.2200880000601,0.20952685992233455,2.5440565894918796,545.4412057000445,545.2200880000601,,,,,,,,,tsbvqq,001,fr,0,2022-05-04_17h28.58.455,Continuous,2022.1.1,35.46858972476719,
17,0,17,0,4,0,4,0,,,,,,,,2.7597752691624216,none,6205.0,0.6182791852095417,0.000134792114978216,0,44,['time'],0.005410359939560294,0.18295356002636254,['space'],547.7864750999724,547.7864750999724,0.18295356002636254,2.942728829188784,547.9776537000434,547.7864750999724,[-2.196878799935803],,,,,,,,tsbvqq,001,fr,0,2022-05-04_17h28.58.455,Continuous,2022.1.1,35.46858972476719,
17,0,17,0,5,0,5,0,,,,,,,,1.225273789580582,none,691.0,3.700755095366697,7.015347528275863e-05,0,45,['time'],0.009449660079553723,None,['space'],550.746759600006,550.746759600006,0.20926616003271192,1.434539949613294,550.9585797999753,550.746759600006,[-2.4221901000710204],,,,,,,,tsbvqq,001,fr,0,2022-05-04_17h28.58.455,Continuous,2022.1.1,35.46858972476719,
17,0,17,0,6,0,6,0,,,,,,,,1.3513484349053422,none,3287.0,3.0035852825135567,0.00010093091141127159,0,46,['time'],0.009697260102257133,None,None,552.1955892000115,552.1955892000115,0.20869686012156308,1.5600452950269053,552.415451399982,552.1955892000115,,,,,,,,,tsbvqq,001,fr,0,2022-05-04_17h28.58.455,Continuous,2022.1.1,35.46858972476719,
17,0,17,0,7,0,7,0,,,,,,,,1.7328443164073082,none,2609.0,2.3242703064879233,0.00010339745286261515,0,47,['time'],0.008874860010109842,0.20302195998374373,['space'],553.7667020000517,553.7667020000517,0.20302195998374373,1.935866276391052,553.9829458000604,553.7667020000517,[-1.0894999000011012],,,,,,,,tsbvqq,001,fr,0,2022-05-04_17h28.58.455,Continuous,2022.1.1,35.46858972476719,
17,0,17,0,8,0,8,0,,,,,,,,2.1299917328097857,none,,,,1,47,['time'],0.009411960025317967,None,['space'],555.7205365999835,555.7205365999835,0.20673875999636948,2.336730492806155,555.9372082999907,555.7205365999835,[-1.4589935999829322],,,,,,,,tsbvqq,001,fr,0,2022-05-04_17h28.58.455,Continuous,2022.1.1,35.46858972476719,
17,0,17,0,9,0,9,0,,,,,,,,2.670422582070008,none,1382.0,5.1278560373725455,9.24559650909174e-05,0,48,['time'],0.010756160016171634,None,None,558.0744852999924,558.0744852999924,0.20822356001008302,2.878646142080091,558.2958255000412,558.0744852999924,,,,,,,,,tsbvqq,001,fr,0,2022-05-04_17h28.58.455,Continuous,2022.1.1,35.46858972476719,
17,0,17,0,10,0,10,0,,,,,,,,2.8389392559034405,none,1741.0,3.859538242109906,9.842924305429787e-05,0,49,['time'],0.005321359960362315,None,None,560.9674521000125,560.9674521000125,0.20168186002410948,3.04062111592755,561.1872795000672,560.9674521000125,,,,,,,,,tsbvqq,001,fr,0,2022-05-04_17h28.58.455,Continuous,2022.1.1,35.46858972476719,
17,0,17,0,11,0,11,0,,,,,,,,1.9274409152481793,none,1231.0,1.5294511498979624,6.40566422495887e-05,0,50,['time'],0.005565760075114667,0.2007807600311935,None,564.0364263000665,564.0364263000665,0.2007807600311935,2.128221675279373,564.246089000022,564.0364263000665,,,,,,,,,tsbvqq,001,fr,0,2022-05-04_17h28.58.455,Continuous,2022.1.1,35.46858972476719,
18,0,18,0,0,0,0,0,,,,,0.3333333333333333,569.4187801000662,None,2.0868022553204555,frequency,140.0,13.965791311367521,0.0029412763159647726,0,64,['time'],0.023760859854519367,None,None,570.4319828000152,None,0.22895675990730524,2.3157590152277607,570.6462681000121,None,,566.1825746999821,None,,,,,,tsbvqq,001,fr,0,2022-05-04_17h28.58.455,Continuous,2022.1.1,35.46858972476719,
18,0,18,0,1,0,1,0,,,,,,,,2.29879879416647,frequency,177.0,29.0,0.009842010387860046,0,65,['time'],0.006740560056641698,None,None,572.7363468999974,572.7363468999974,0.20291685999836773,2.5017156541648378,572.9529312000377,572.7363468999974,,,,,,,,,tsbvqq,001,fr,0,2022-05-04_17h28.58.455,Continuous,2022.1.1,35.46858972476719,
18,0,18,0,2,0,2,0,,,,,,,,2.830801910241662,frequency,223.0,16.067760818910283,0.001401399301213897,0,66,['time'],0.009034360060468316,None,['space'],575.2551869000308,575.2551869000308,0.2096061600605026,3.0404080703021648,575.4677803000668,575.2551869000308,[-2.161781599977985],,,,,,,,tsbvqq,001,fr,0,2022-05-04_17h28.58.455,Continuous,2022.1.1,35.46858972476719,
18,0,18,0,3,0,3,0,,,,,,,,2.8699622053119223,frequency,,,,1,66,['time'],0.008391860057599843,None,"['space', 'space']",578.3062959000235,578.3062959000235,0.21071986004244536,3.0806820653543676,578.5246910999995,578.3062959000235,"[-2.6217993000755087, 0.0835593999363482]",,,,,,,,tsbvqq,001,fr,0,2022-05-04_17h28.58.455,Continuous,2022.1.1,35.46858972476719,
18,0,18,0,4,0,4,0,,,,,,,,1.677584840650496,frequency,354.0,24.923114194748525,0.0015598442885746025,0,67,['time'],0.007747860043309629,0.20184115995652974,['space'],581.4039884000085,581.4039884000085,0.20184115995652974,1.8794260006070258,581.6142672999995,581.4039884000085,[-0.6623657000018284],,,,,,,,tsbvqq,001,fr,0,2022-05-04_17h28.58.455,Continuous,2022.1.1,35.46858972476719,
18,0,18,0,5,0,5,0,,,,,,,,1.6658507147985662,frequency,446.0,22.984626828022446,0.001046304768557433,0,68,['time'],0.0008143601007759571,None,['space'],583.3111783000641,583.3111783000641,0.19788716011680663,1.8637378749153728,583.5307559000794,583.3111783000641,[0.18227150000166148],,,,,,,,tsbvqq,001,fr,0,2022-05-04_17h28.58.455,Continuous,2022.1.1,35.46858972476719,
18,0,18,0,6,0,6,0,,,,,,,,1.9940359033026587,frequency,562.0,22.54558350464997,0.0008280862679041815,0,69,['time'],0.008728860062547028,None,None,585.2024205999915,585.2024205999915,0.20846365997567773,2.2024995632783364,585.4231021000305,585.2024205999915,,,,,,,,,tsbvqq,001,fr,0,2022-05-04_17h28.58.455,Continuous,2022.1.1,35.46858972476719,
18,0,18,0,7,0,7,0,,,,,,,,2.518486092110576,frequency,708.0,19.724808335601548,0.0004294231263153188,0,70,['time'],0.004181759897619486,0.18370855995453894,"['space', 'space']",587.4224041000707,587.4224041000707,0.18370855995453894,2.7021946520651148,587.6176513000391,587.4224041000707,"[-1.898013300029561, -0.15330720006022602]",,,,,,,,tsbvqq,001,fr,0,2022-05-04_17h28.58.455,Continuous,2022.1.1,35.46858972476719,
19,0,19,0,0,0,0,0,,,,,,593.0245576000307,None,1.420816256723636,none,210.0,9.068275297039577,0.0006983683446103035,0,51,['time'],0.02423376007936895,None,None,594.0294532000553,None,0.24402725999243557,1.6648435167160716,594.2549701000098,None,,590.1432104000123,None,"[0.5833333333333334, 0.3333333333333333, 0.16666666666666666, 0.3333333333333333, 0.5833333333333334, 0.5833333333333334, 0.16666666666666666, 0.5833333333333334, 0.3333333333333333, 0.16666666666666666, 0.3333333333333333, 0.5833333333333334, 0.16666666666666666, 0.3333333333333333, 0.5833333333333334]",,,,,tsbvqq,001,fr,0,2022-05-04_17h28.58.455,Continuous,2022.1.1,35.46858972476719,
19,0,19,0,1,0,1,0,,,,,,,,1.6149389823764952,none,2119.0,6.583462663289532,0.0001652695358671628,0,52,['time'],0.00807465985417366,0.2053695599315688,None,595.6740304999985,595.6740304999985,0.2053695599315688,1.820308542308064,595.8941378999734,595.6740304999985,,,,,,,,,tsbvqq,001,fr,0,2022-05-04_17h28.58.455,Continuous,2022.1.1,35.46858972476719,
19,0,19,0,2,0,2,0,,,,,,,,1.4342018532613674,none,2378.0,5.994331905888548,0.00016587960896869645,0,53,['time'],0.008682360057719052,None,['space'],597.5124526000582,597.5124526000582,0.20620536000933498,1.6404072132707024,597.7295002000174,597.5124526000582,[-1.1874786000698805],,,,,,,,tsbvqq,001,fr,0,2022-05-04_17h28.58.455,Continuous,2022.1.1,35.46858972476719,
19,0,19,0,3,0,3,0,,,,,,,,2.3865510095492297,none,1414.0,6.63487731189583,0.0001082676327738092,0,54,['time'],0.00721705995965749,None,['space'],599.1716778000118,599.1716778000118,0.20055465993937105,2.5871056694886008,599.3854844999732,599.1716778000118,[-1.1984906999859959],,,,,,,,tsbvqq,001,fr,0,2022-05-04_17h28.58.455,Continuous,2022.1.1,35.46858972476719,
19,0,19,0,4,0,4,0,,,,,,,,1.8830486804417552,none,315.0,9.133595570921681,0.0002822602896631408,0,55,['time'],0.00733436003793031,None,"['space', 'space']",601.7826851999853,601.7826851999853,0.2059720599791035,2.0890207404208585,601.9999857000075,601.7826851999853,"[-2.1940823999466375, -0.4330425999360159]",,,,,,,,tsbvqq,001,fr,0,2022-05-04_17h28.58.455,Continuous,2022.1.1,35.46858972476719,
19,0,19,0,5,0,5,0,,,,,,,,1.8254381283805847,none,167.0,6.304534259396365,0.0007968832339332757,0,56,['time'],0.00836406007874757,None,['space'],603.8891496000579,603.8891496000579,0.20653856010176241,2.031976688482347,604.1137785000028,603.8891496000579,[-0.49189469998236746],,,,,,,,tsbvqq,001,fr,0,2022-05-04_17h28.58.455,Continuous,2022.1.1,35.46858972476719,
19,0,19,0,6,0,6,0,,,,,,,,1.7786312449060868,none,1122.0,5.281878679216946,9.029521805591004e-05,0,57,['time'],0.008038460044190288,None,None,605.9387499999721,605.9387499999721,0.20365676004439592,1.9822880049504827,606.155604199972,605.9387499999721,,,,,,,,,tsbvqq,001,fr,0,2022-05-04_17h28.58.455,Continuous,2022.1.1,35.46858972476719,
19,0,19,0,7,0,7,0,,,,,,,,1.1921539537958334,none,794.0,9.809789994734485,0.00011954642827975102,0,58,['time'],0.008373260032385588,None,['space'],607.944986400078,607.944986400078,0.20524256001226604,1.3973965138080995,608.1614075000398,607.944986400078,[-1.7317634000210091],,,,,,,,tsbvqq,001,fr,0,2022-05-04_17h28.58.455,Continuous,2022.1.1,35.46858972476719,
19,0,19,0,8,0,8,0,,,,,,,,1.7092448836783676,none,149.0,7.195246897950565,0.0011655334711092363,0,59,['time'],0.008383059874176979,None,['space'],609.364127799985,609.364127799985,0.2171599599532783,1.9264048436316459,609.5913181999931,609.364127799985,[-1.08755299996119],,,,,,,,tsbvqq,001,fr,0,2022-05-04_17h28.58.455,Continuous,2022.1.1,35.46858972476719,
19,0,19,0,9,0,9,0,,,,,,,,2.6866150914408644,none,,,,1,59,['time'],0.005721459863707423,0.2022342599229887,['space'],611.302476300043,611.302476300043,0.2022342599229887,2.888849351363853,611.5125155000715,611.302476300043,[-1.2336500999517739],,,,,,,,tsbvqq,001,fr,0,2022-05-04_17h28.58.455,Continuous,2022.1.1,35.46858972476719,
19,0,19,0,10,0,10,0,,,,,,,,1.2439380744864328,none,530.0,12.448787790511648,0.00027988924163124774,0,60,['time'],0.009062860044650733,None,"['space', 'space']",614.210746500059,614.210746500059,0.20950545999221504,1.4534435344786478,614.4249399000546,614.210746500059,"[-2.477038800017908, -0.5247459999518469]",,,,,,,,tsbvqq,001,fr,0,2022-05-04_17h28.58.455,Continuous,2022.1.1,35.46858972476719,
19,0,19,0,11,0,11,0,,,,,,,,1.6806922389944672,none,472.0,18.04981570431729,0.0005821994331932748,0,61,['time'],0.0075276599964126945,None,None,615.679456599988,615.679456599988,0.20765385997947305,1.8883460989739402,615.8990583000705,615.679456599988,,,,,,,,,tsbvqq,001,fr,0,2022-05-04_17h28.58.455,Continuous,2022.1.1,35.46858972476719,
19,0,19,0,12,0,12,0,,,,,,,,2.724519419207901,none,4489.0,2.5051091625597737,0.00015689606434989595,0,62,['time'],0.007853760034777224,None,['space'],617.5862858999753,617.5862858999753,0.20573366002645344,2.9302530792343546,617.8017507999903,617.5862858999753,[-1.405061100027524],,,,,,,,tsbvqq,001,fr,0,2022-05-04_17h28.58.455,Continuous,2022.1.1,35.46858972476719,
19,0,19,0,13,0,13,0,,,,,,,,1.6667529704365778,none,1000.0,4.0,6.981841805279689e-05,0,63,['time'],0.007432759972289205,None,"['space', 'space']",620.5375453999732,620.5375453999732,0.20535565994214267,1.8721086303787204,620.7551953999791,620.5375453999732,"[-2.7077855999814346, -0.7241226999321952]",,,,,,,,tsbvqq,001,fr,0,2022-05-04_17h28.58.455,Continuous,2022.1.1,35.46858972476719,
20,0,20,0,0,0,0,0,,,,,0.16666666666666666,626.4715584000805,None,1.048559440940404,both,127.0,10.504285671312166,0.0023623844519095956,0,85,['time'],0.02316956000868231,None,None,627.501545200008,None,0.21907465998083353,1.2676341009212375,627.6991141000763,None,,622.4331858999794,None,,,,,,tsbvqq,001,fr,0,2022-05-04_17h28.58.455,Continuous,2022.1.1,35.46858972476719,
20,0,20,0,1,0,1,0,,,,,,,,1.048559440940404,both,143.0,7.318086990440028,0.0013061801918761715,0,86,['time'],0.007361360127106309,None,None,628.7599094000179,628.7599094000179,0.20970146008767188,1.2582609010280759,628.973623799975,628.7599094000179,,,,,,,,,tsbvqq,001,fr,0,2022-05-04_17h28.58.455,Continuous,2022.1.1,35.46858972476719,
20,0,20,0,2,0,2,0,,,,,,,,1.048559440940404,both,,,,1,86,['time'],0.007805060013197362,0.20490866003092378,None,630.0294864000753,630.0294864000753,0.20490866003092378,1.2534681009713278,630.2467997000786,630.0294864000753,,,,,,,,,tsbvqq,001,fr,0,2022-05-04_17h28.58.455,Continuous,2022.1.1,35.46858972476719,
20,0,20,0,3,0,3,0,,,,,,,,1.048559440940404,both,181.0,4.035264086426229,0.0005325259687647974,0,87,['time'],0.009217760059982538,None,None,631.3002915000543,631.3002915000543,0.2098281600046903,1.2583876009450943,631.5109913999913,631.3002915000543,,,,,,,,,tsbvqq,001,fr,0,2022-05-04_17h28.58.455,Continuous,2022.1.1,35.46858972476719,
