tTrials.thisRepN,tTrials.thisTrialN,tTrials.thisN,tTrials.thisIndex,blocks.thisRepN,blocks.thisTrialN,blocks.thisN,blocks.thisIndex,trials.thisRepN,trials.thisTrialN,trials.thisN,trials.thisIndex,tStart_text.started,tStart_text.stopped,Prediction,practice_Frequency,practice_Level,practice_Psychopy_Level,practice_isCatchTrial,Practice_trial_detection,practice_Cue_Delays,practice_Cue_Frequencies,practice_Interval,practice_Cue_Intensities,tCue_visual_cue.started,tCue_visual_cue.stopped,tProbe_visual_cue.started,tProbe_visual_cue.stopped,tFeedback.keys,tFeedback.corr,tFeedback.rt,tFeedback.started,tFeedback.stopped,tToo_late.keys,tToo_late.corr,tToo_early.keys,tToo_early.corr,more_instructions.started,more_instructions.stopped,readyy.keys,readyy.rt,readyy.started,readyy.stopped,txt_rhythm.started,txt_rhythm.stopped,sound_1.started,sound_1.stopped,sound_2.started,sound_2.stopped,sound_3.started,sound_3.stopped,sound_4.started,sound_4.stopped,cross.started,cross.stopped,sound_5.started,sound_5.stopped,circle.started,circle.stopped,rhythm_ready.keys,rhythm_ready.rt,rhythm_ready.started,rhythm_ready.stopped,rhytm_ready_txt.started,rhytm_ready_txt.stopped,txt_freq.started,txt_freq.stopped,sound_6.started,sound_6.stopped,sound_7.started,sound_7.stopped,sound_8.started,sound_8.stopped,sound_9.started,sound_9.stopped,cross_2.started,cross_2.stopped,sound_10.started,sound_10.stopped,circle_2.started,circle_2.stopped,freq_ready.keys,freq_ready.rt,freq_ready.started,freq_ready.stopped,freq_ready_txt.started,freq_ready_txt.stopped,txt_freq_2.started,txt_freq_2.stopped,sound_11.started,sound_11.stopped,sound_12.started,sound_12.stopped,sound_13.started,sound_13.stopped,sound_14.started,sound_14.stopped,cross_3.started,cross_3.stopped,sound_15.started,sound_15.stopped,circle_3.started,circle_3.stopped,freq_ready_2.keys,freq_ready_2.rt,freq_ready_2.started,freq_ready_2.stopped,freq_ready_txt_2.started,freq_ready_txt_2.stopped,txt_freq_3.started,txt_freq_3.stopped,sound_16.started,sound_16.stopped,sound_17.started,sound_17.stopped,sound_18.started,sound_18.stopped,sound_19.started,sound_19.stopped,cross_4.started,cross_4.stopped,sound_20.started,sound_20.stopped,circle_4.started,circle_4.stopped,freq_ready_txt_3.started,freq_ready_txt_3.stopped,tStart_text_2.started,tStart_text_2.stopped,this_trial_is.started,this_trial_is.stopped,Frequency,Level,Psychopy_Level,Real trial detection,Cue Delays,Cue Frequencies,Interval,Cue Intensities,Catch trial,cue_visual_cue.started,cue_visual_cue.stopped,probe_visual_cue.started,probe_visual_cue.stopped,feedback.keys,feedback.corr,feedback.rt,feedback.started,feedback.stopped,answer_too_late.keys,answer_too_late.corr,answer_too_early.keys,answer_too_early.corr,Catch trial answer,answer_too_early.rt,Audiogram_time,Audiogram_frequency,Audiogram_none,Audiogram_both,goodbye_text.started,goodbye_text.stopped,key_resp.keys,key_resp.rt,key_resp.started,key_resp.stopped,participant,session,Language (english or french),Skip training? (1 for yes),Resume previous experiment,date,expName,psychopyVersion,frameRate,
0,0,0,0,,,,,,,,,13.912764700013213,None,frequency,1000,30,0.0013930605843148849,False,1,"[0.7435940395126286, 0.6145345898148262, 0.42238150624029014, 0.5340299794587957]","[2519.8420997897465, 2000.0000000000002, 1587.4010519681997, 1259.9210498948732]",Major_3rd,"[30, 30, 30, 30]",33.28515599993989,35.974555199965835,35.974555199965835,37.192428400041535,['space'],1,[0.6486380000133067],35.974555199965835,37.72302589996252,None,1,None,1,,,,,,,,,,,,,,,,,,,,,,,,,,,,,,,,,,,,,,,,,,,,,,,,,,,,,,,,,,,,,,,,,,,,,,,,,,,,,,,,,,,,,,,,,,,,,,,,,,,,,,,,,,,,,,,,,,,,,,,,,,,,,,,,,tlvjds,001,fr,0,0,2022-05-06_11h58.32.052,Cluster,2022.1.1,36.03090732281718,
1,0,1,0,,,,,,,,,,,both,2500,30,0.002716251657462167,False,1,"[0.41407100352661913, 0.41407100352661913, 0.41407100352661913, 0.41407100352661913]","[992.1256574801249, 1250.0000000000002, 1574.9013123685916, 1984.2513149602494]",Major_3rd,"[30, 30, 30, 30]",44.5361825999571,46.72315860004164,46.72315860004164,47.93743829999585,['space'],1,[0.7318596999393776],46.72315860004164,48.35014939995017,None,1,None,1,,,,,,,,,,,,,,,,,,,,,,,,,,,,,,,,,,,,,,,,,,,,,,,,,,,,,,,,,,,,,,,,,,,,,,,,,,,,,,,,,,,,,,,,,,,,,,,,,,,,,,,,,,,,,,,,,,,,,,,,,,,,,,,,,tlvjds,001,fr,0,0,2022-05-06_11h58.32.052,Cluster,2022.1.1,36.03090732281718,
2,0,2,0,,,,,,,,,,,time,6000,30,0.003664122665694519,True,1,"[0.49233429036849014, 0.49233429036849014, 0.49233429036849014, 0.49233429036849014]","[3993.1527976463813, 3043.5698897525167, 2661.111147956925, 726.7393442425351]",None,"[30, 30, 30, 30]",52.685548300039954,55.07522829994559,55.07522829994559,56.28280689998064,None,1,,55.07522829994559,56.758139400044456,None,1,None,1,,,,,,,,,,,,,,,,,,,,,,,,,,,,,,,,,,,,,,,,,,,,,,,,,,,,,,,,,,,,,,,,,,,,,,,,,,,,,,,,,,,,,,,,,,,,,,,,,,,,,,,,,,,,,,,,,,,,,,,,,,,,,,,,,tlvjds,001,fr,0,0,2022-05-06_11h58.32.052,Cluster,2022.1.1,36.03090732281718,
3,0,3,0,,,,,,,,,,,frequency,440,30,0.0023562289915021436,False,1,"[0.7070668361694865, 0.7895079177349467, 0.7054655410409821, 0.7077117967992617]","[277.182630976872, 311.12698372208087, 349.2282314330038, 391.99543598174927]",Tone,"[30, 30, 30, 30]",59.792299299966544,62.92214849998709,62.92214849998709,64.14594550000038,['space'],1,[1.205438300035894],62.92214849998709,64.85102529998403,None,1,None,1,,,,,,,,,,,,,,,,,,,,,,,,,,,,,,,,,,,,,,,,,,,,,,,,,,,,,,,,,,,,,,,,,,,,,,,,,,,,,,,,,,,,,,,,,,,,,,,,,,,,,,,,,,,,,,,,,,,,,,,,,,,,,,,,,tlvjds,001,fr,0,0,2022-05-06_11h58.32.052,Cluster,2022.1.1,36.03090732281718,
4,0,4,0,,,,,,,,,,,none,250,30,0.005296268625886445,True,1,"[0.46409923022635224, 0.6460273999245691, 0.4582677785958502, 0.5895600837110558]","[2073.990858848363, 480.1331124755047, 1547.570119314961, 296.8625315200344]",None,"[30, 30, 30, 30]",67.21873840002809,69.72124250000343,69.72124250000343,70.94897669996135,None,1,,69.72124250000343,71.53424149996135,None,1,None,1,,,,,,,,,,,,,,,,,,,,,,,,,,,,,,,,,,,,,,,,,,,,,,,,,,,,,,,,,,,,,,,,,,,,,,,,,,,,,,,,,,,,,,,,,,,,,,,,,,,,,,,,,,,,,,,,,,,,,,,,,,,,,,,,,tlvjds,001,fr,0,0,2022-05-06_11h58.32.052,Cluster,2022.1.1,36.03090732281718,
,,,,,,,,,,,,,,,,,,,,,,,,,,,,,,,,,,,,,73.39949199999683,None,space,28.455133799929172,73.39949199999683,None,,,,,,,,,,,,,,,,,,,,,,,,,,,,,,,,,,,,,,,,,,,,,,,,,,,,,,,,,,,,,,,,,,,,,,,,,,,,,,,,,,,,,,,,,,,,,,,,,,,,,,,,,,,,,,,,,,,,,,,,,,,tlvjds,001,fr,0,0,2022-05-06_11h58.32.052,Cluster,2022.1.1,36.03090732281718,
,,,,,,,,,,,,,,,,,,,,,,,,,,,,,,,,,,,,,,,,,,,101.91449570003897,102.93642049992923,103.39553058001911,None,103.87320758000715,None,104.37145837995922,None,104.86889027996222,105.0866957999533,103.28230720001739,105.0866957999533,105.37555617996259,None,105.0866957999533,105.90075249993242,space,1.2022509999806061,106.07694539998192,None,,,,,,,,,,,,,,,,,,,,,,,,,,,,,,,,,,,,,,,,,,,,,,,,,,,,,,,,,,,,,,,,,,,,,,,,,,,,,,,,,,,,,,,,,,,,,,,,,,,,,,,tlvjds,001,fr,0,0,2022-05-06_11h58.32.052,Cluster,2022.1.1,36.03090732281718,
,,,,,,,,,,,,,,,,,,,,,,,,,,,,,,,,,,,,,,,,,,,,,,,,,,,,,,,,,,,,,,,106.07694539998192,None,107.33650770003442,108.36174900003243,108.79342337994603,109.00668079999741,109.08916877995944,109.31063750002068,109.805051680014,110.01457110000774,110.18644027999835,110.40760629996657,108.7064776000334,110.49212319997605,110.7852109799278,111.00609799998347,110.49212319997605,111.30116849998012,space,0.891189599991776,111.50800929998513,None,,,,,,,,,,,,,,,,,,,,,,,,,,,,,,,,,,,,,,,,,,,,,,,,,,,,,,,,,,,,,,,,,,,,,,,,,,,,,,,,,tlvjds,001,fr,0,0,2022-05-06_11h58.32.052,Cluster,2022.1.1,36.03090732281718,
,,,,,,,,,,,,,,,,,,,,,,,,,,,,,,,,,,,,,,,,,,,,,,,,,,,,,,,,,,,,,,,,,,,,,,,,,,,,,,,,,,,,,111.50800929998513,None,112.44881940004416,113.47060020000208,113.93042727996362,114.1492283999687,114.41035287996056,114.62162190000527,114.91077727993252,115.12184110004455,115.42201018001651,115.64571339997929,113.81608509994112,115.64571339997929,115.91151567996712,116.12230829999316,115.64571339997929,116.4656387999421,space,0.8438939000479877,116.61035029997583,None,,,,,,,,,,,,,,,,,,,,,,,,,,,,,,,,,,,,,,,,,,,,,,,,,,,,,,,,,,,tlvjds,001,fr,0,0,2022-05-06_11h58.32.052,Cluster,2022.1.1,36.03090732281718,
,,,,0,0,0,0,0,0,0,0,,,both,,,,,,,,,,,,,,,,,,,,,,,,,,,,,,,,,,,,,,,,,,,,,,,,,,,,,,,,,,,,,,,,,,,,,,,,,,,,,,,,,,,,,,,,,,,,,116.61035029997583,None,117.49239499995019,118.51549539994448,118.94505657994887,119.16656639997382,119.24941818002844,119.46714550000615,119.94840427994495,None,120.36452548002126,120.5847237999551,118.859168499941,120.64070580003317,120.96597237995593,121.18742590001784,120.64070580003317,121.44449509994593,121.64190369995777,None,122.69760900002439,None,135.20423140004277,None,1192.4481896674686,3.1676491859747076,7.503032653256251e-05,1,"[0.5837716749921822, 0.5837716749921822, 0.5837716749921822, 0.5837716749921822]","[1892.8935106957151, 1686.3764022549792, 1502.390575071078, 1338.4778374769505]",Tone,"[5.0, 6.0, 7.454713098789001, 8.781215544860745]",False,136.19107129995245,138.96968119998928,138.96968119998928,140.16736249998212,['space'],1,[0.32247939996887],3.378573519876227,4.386407519807108,None,1,None,1,,,,,,,,,,,,,tlvjds,001,fr,0,0,2022-05-06_11h58.32.052,Cluster,2022.1.1,36.03090732281718,
,,,,0,0,0,0,1,0,1,0,,,time,,,,,,,,,,,,,,,,,,,,,,,,,,,,,,,,,,,,,,,,,,,,,,,,,,,,,,,,,,,,,,,,,,,,,,,,,,,,,,,,,,,,,,,,,,,,,,,,,,,,,,,,,,,,,,,,,,,140.6120729999384,None,981.9733173422286,3.2255934820561585,6.312029457474137e-05,1,"[0.6815823928166977, 0.6815823928166977, 0.6815823928166977, 0.6815823928166977]","[637.897330505349, 338.18806026981935, 2986.083308099442, 4502.542656246382]",None,"[8.7114728918216, 6.529146053103162, 2.7619899096497633, -0.4302768951686673]",False,141.6119249999756,144.67576100002043,144.67576100002043,145.89138529996853,['space'],1,[0.4047361999982968],3.748308319831267,4.75503171980381,None,1,None,1,,,,,,,,,,,,,tlvjds,001,fr,0,0,2022-05-06_11h58.32.052,Cluster,2022.1.1,36.03090732281718,
,,,,0,0,0,0,2,0,2,0,,,frequency,,,,,,,,,,,,,,,,,,,,,,,,,,,,,,,,,,,,,,,,,,,,,,,,,,,,,,,,,,,,,,,,,,,,,,,,,,,,,,,,,,,,,,,,,,,,,,,,,,,,,,,,,,,,,,,,,,,146.40108129999135,None,509.81466790986633,2.073907754869993,8.876813406996008e-05,1,"[0.47479188054777993, 0.5729151608229196, 0.7615994279949297, 0.6139209674894353]","[202.32008503723506, 254.9073339549332, 321.16311582240246, 404.64017007447006]",Major_3rd,"[11.820817285616162, 8.772224237705462, 6.529146053103162, 6.883827048893163]",False,147.41680969996378,150.2670466999989,150.2670466999989,151.48086579993833,['space'],1,[0.32659319997765124],3.443548619863577,4.450438119936734,None,1,None,1,,,,,,,,,,,,,tlvjds,001,fr,0,0,2022-05-06_11h58.32.052,Cluster,2022.1.1,36.03090732281718,
,,,,0,0,0,0,3,0,3,0,,,none,,,,,,,,,,,,,,,,,,,,,,,,,,,,,,,,,,,,,,,,,,,,,,,,,,,,,,,,,,,,,,,,,,,,,,,,,,,,,,,,,,,,,,,,,,,,,,,,,,,,,,,,,,,,,,,,,,,151.89337910001632,None,,,,,"[0.6532128543462281, 0.6149779028804881, 0.5254712754806379, 0.7927806407239701]","[559.4774887712622, 200.20316975846075, 4597.554257897214, 132.51003763432544]",None,"[8.582078609430688, 12.0, -0.4302768951686673, 15.55857510933215]",True,152.907439099974,155.7152713999385,155.7152713999385,156.9435541999992,['space'],0,[0.1770447000162676],3.6098062199307606,4.63290371990297,None,1,None,1,0,,,,,,,,,,,,tlvjds,001,fr,0,0,2022-05-06_11h58.32.052,Cluster,2022.1.1,36.03090732281718,
,,,,0,0,0,0,4,0,4,0,,,frequency,,,,,,,,,,,,,,,,,,,,,,,,,,,,,,,,,,,,,,,,,,,,,,,,,,,,,,,,,,,,,,,,,,,,,,,,,,,,,,,,,,,,,,,,,,,,,,,,,,,,,,,,,,,,,,,,,,,157.5701337000355,None,189.4645708137998,6.0,0.000606184672180193,1,"[0.7826874515153417, 0.72035449958756, 0.5480664066953458, 0.6923934130804161]","[477.4208019552084, 378.9291416275996, 300.7562590205292, 238.7104009776042]",Major_3rd,"[7.683408614321836, 6.59878515438321, 7.0, 9.725788110567924]",False,158.58543890004512,161.6486664999975,161.6486664999975,162.88839850004297,['space'],1,[0.4016340000089258],3.7596237199613824,4.7682736199349165,None,1,None,1,,,,,,,,,,,,,tlvjds,001,fr,0,0,2022-05-06_11h58.32.052,Cluster,2022.1.1,36.03090732281718,
,,,,0,0,0,0,5,0,5,0,,,time,,,,,,,,,,,,,,,,,,,,,,,,,,,,,,,,,,,,,,,,,,,,,,,,,,,,,,,,,,,,,,,,,,,,,,,,,,,,,,,,,,,,,,,,,,,,,,,,,,,,,,,,,,,,,,,,,,,163.39362170000095,None,353.5533905932738,2.0,0.0001115563142959358,1,"[0.6793287370977614, 0.6793287370977614, 0.6793287370977614, 0.6793287370977614]","[336.13186873484733, 5214.291277346509, 440.4456426231743, 607.1048519955513]",None,"[6.529146053103162, -0.541673177568244, 7.272468950205591, 8.683221070112829]",False,164.40248829999473,167.48669669998344,167.48669669998344,168.7050088000251,['space'],1,[0.5596980000846088],3.7332218198571354,4.762678219936788,None,1,None,1,,,,,,,,,,,,,tlvjds,001,fr,0,0,2022-05-06_11h58.32.052,Cluster,2022.1.1,36.03090732281718,
,,,,0,0,0,0,6,0,6,0,,,frequency,,,,,,,,,,,,,,,,,,,,,,,,,,,,,,,,,,,,,,,,,,,,,,,,,,,,,,,,,,,,,,,,,,,,,,,,,,,,,,,,,,,,,,,,,,,,,,,,,,,,,,,,,,,,,,,,,,,169.20273170003202,None,140.61119318523586,9.506687383192702,0.001744018444640131,1,"[0.536128610092059, 0.746514933534439, 0.678303484693269, 0.6885409933767217]","[354.3180042898265, 281.2223863704718, 223.20635598074716, 177.15900214491322]",Major_3rd,"[6.469206311410494, 7.280458301908395, 10.758907848768903, 13.797039980076061]",False,170.20816229993943,173.19090159994084,173.19090159994084,174.4194766000146,['space'],1,[0.35459369991440326],3.6991623198846355,4.712500119814649,None,1,None,1,,,,,,,,,,,,,tlvjds,001,fr,0,0,2022-05-06_11h58.32.052,Cluster,2022.1.1,36.03090732281718,
,,,,0,0,0,0,7,0,7,0,,,time,,,,,,,,,,,,,,,,,,,,,,,,,,,,,,,,,,,,,,,,,,,,,,,,,,,,,,,,,,,,,,,,,,,,,,,,,,,,,,,,,,,,,,,,,,,,,,,,,,,,,,,,,,,,,,,,,,,174.95556849997956,None,,,,,"[0.4506810521046743, 0.4506810521046743, 0.4506810521046743, 0.4506810521046743]","[7002.064955579592, 886.5671504603173, 1165.9901754706539, 149.69379157305212]",None,"[-0.41829779965109815, 8.890123896236423, 9.34146993684537, 15.17756756333614]",True,175.9686394999735,178.35820190003142,178.35820190003142,179.56162870000117,None,1,,2.835100819938816,3.863997419946827,None,1,None,1,0,,,,,,,,,,,,tlvjds,001,fr,0,0,2022-05-06_11h58.32.052,Cluster,2022.1.1,36.03090732281718,
,,,,0,0,0,0,8,0,8,0,,,frequency,,,,,,,,,,,,,,,,,,,,,,,,,,,,,,,,,,,,,,,,,,,,,,,,,,,,,,,,,,,,,,,,,,,,,,,,,,,,,,,,,,,,,,,,,,,,,,,,,,,,,,,,,,,,,,,,,,,179.86218589998316,None,329.87697769322364,-1.0,8.44539939287158e-05,1,"[0.6498620840465558, 0.6377618237376717, 0.6546697883473729, 0.4355690635946725]","[1662.4757922855758, 1109.5694720678453, 740.5487761432823, 494.2570101764482]",Perfect_5th,"[6.621660076540737, 9.341844895661215, 8.717639864225424, 8.0]",False,180.86376330000348,183.8400452999631,183.8400452999631,185.05739750002977,['space'],1,[0.4031416999641806],3.413202619878575,4.419829519814812,None,1,None,1,,,,,,,,,,,,,tlvjds,001,fr,0,0,2022-05-06_11h58.32.052,Cluster,2022.1.1,36.03090732281718,
,,,,0,0,0,0,9,0,9,0,,,time,,,,,,,,,,,,,,,,,,,,,,,,,,,,,,,,,,,,,,,,,,,,,,,,,,,,,,,,,,,,,,,,,,,,,,,,,,,,,,,,,,,,,,,,,,,,,,,,,,,,,,,,,,,,,,,,,,,185.3273280999856,None,3809.11279376208,-5.110502420609238,4.474582469441929e-05,1,"[0.78650120134656, 0.78650120134656, 0.78650120134656, 0.78650120134656]","[924.2811586630235, 5722.219564571272, 6624.1277048782795, 667.9528305135067]",None,"[9.055491067398357, -0.4874407955257025, -0.4145697355470386, 8.7114728918216]",False,186.31591100001242,189.69540299999062,189.69540299999062,190.90872720000334,['space'],1,[0.6679914999986067],4.188606719835661,5.215559319825843,None,1,None,1,,,,,,,,,,,,,tlvjds,001,fr,0,0,2022-05-06_11h58.32.052,Cluster,2022.1.1,36.03090732281718,
,,,,0,0,0,0,10,0,10,0,,,both,,,,,,,,,,,,,,,,,,,,,,,,,,,,,,,,,,,,,,,,,,,,,,,,,,,,,,,,,,,,,,,,,,,,,,,,,,,,,,,,,,,,,,,,,,,,,,,,,,,,,,,,,,,,,,,,,,,191.5706838000333,None,353.5533905932738,2.0,0.0001115563142959358,1,"[0.7626566939360064, 0.7626566939360064, 0.7626566939360064, 0.7626566939360064]","[1781.7974362806788, 1189.2071150027211, 793.7005259840998, 529.7315471796477]",Perfect_5th,"[5.797861461966059, 9.34146993684537, 8.773628846204765, 8.38159537766056]",False,192.59995810000692,195.91443390003406,195.91443390003406,197.11940500000492,['space'],1,[0.47083120001479983],4.073549619759433,5.097072319709696,None,1,None,1,,,,,,,,,,,,,tlvjds,001,fr,0,0,2022-05-06_11h58.32.052,Cluster,2022.1.1,36.03090732281718,
,,,,0,0,0,0,11,0,11,0,,,both,,,,,,,,,,,,,,,,,,,,,,,,,,,,,,,,,,,,,,,,,,,,,,,,,,,,,,,,,,,,,,,,,,,,,,,,,,,,,,,,,,,,,,,,,,,,,,,,,,,,,,,,,,,,,,,,,,,197.73374719999265,None,456.088055179085,1.6834086143218363,8.944784574900354e-05,1,"[0.760997171123925, 0.760997171123925, 0.760997171123925, 0.760997171123925]","[287.3174706628718, 322.5029566353153, 361.9973292907049, 406.3282637181672]",Tone,"[7.280458301908395, 6.529146053103162, 6.469206311410494, 6.883827048893163]",False,198.73843010002747,202.05625629995484,202.05625629995484,203.25890709995292,['space'],1,[0.4398791999556124],4.0763289199676365,5.087244919966906,None,1,None,1,,,,,,,,,,,,,tlvjds,001,fr,0,0,2022-05-06_11h58.32.052,Cluster,2022.1.1,36.03090732281718,
,,,,0,0,0,0,12,0,12,0,,,frequency,,,,,,,,,,,,,,,,,,,,,,,,,,,,,,,,,,,,,,,,,,,,,,,,,,,,,,,,,,,,,,,,,,,,,,,,,,,,,,,,,,,,,,,,,,,,,,,,,,,,,,,,,,,,,,,,,,,203.8595987999579,None,151.82918290479873,9.17756756333614,0.0013918814074431296,1,"[0.7911696706807817, 0.6371845734027859, 0.5578773527543258, 0.7596138916780241]","[382.5855670601895, 303.65836580959746, 241.01380466254966, 191.29278353009474]",Major_3rd,"[6.59878515438321, 6.797557276678826, 9.0, 12.854184084946422]",False,204.85797929996625,207.8605811999878,207.8605811999878,209.0932974999305,['space'],1,[0.5129114000592381],3.76946961984504,4.773403119877912,None,1,None,1,,,,,,,,,,,,,tlvjds,001,fr,0,0,2022-05-06_11h58.32.052,Cluster,2022.1.1,36.03090732281718,
,,,,0,0,0,0,13,0,13,0,,,none,,,,,,,,,,,,,,,,,,,,,,,,,,,,,,,,,,,,,,,,,,,,,,,,,,,,,,,,,,,,,,,,,,,,,,,,,,,,,,,,,,,,,,,,,,,,,,,,,,,,,,,,,,,,,,,,,,,209.6685444000177,None,,,,,"[0.5215283972213959, 0.41656718395057357, 0.7670023319262267, 0.6820409256634166]","[6649.753317849567, 1850.3597442931934, 315.7846384336802, 336.9651817899936]",None,"[-0.4145697355470386, 5.074361877782851, 6.797557276678826, 6.529146053103162]",True,210.6787231999915,213.39980290003587,213.39980290003587,214.60981699998956,None,1,,3.426876419922337,4.434890019940212,None,1,None,1,0,,,,,,,,,,,,tlvjds,001,fr,0,0,2022-05-06_11h58.32.052,Cluster,2022.1.1,36.03090732281718,
,,,,0,0,0,0,14,0,14,0,,,both,,,,,,,,,,,,,,,,,,,,,,,,,,,,,,,,,,,,,,,,,,,,,,,,,,,,,,,,,,,,,,,,,,,,,,,,,,,,,,,,,,,,,,,,,,,,,,,,,,,,,,,,,,,,,,,,,,,215.14177720004227,None,189.4645708137998,6.0,0.000606184672180193,1,"[0.625096811889513, 0.625096811889513, 0.625096811889513, 0.625096811889513]","[954.8416039104168, 637.2803136596312, 425.333580475428, 283.8761072677194]",Perfect_5th,"[9.055491067398357, 8.683221070112829, 7.272468950205591, 7.280458301908395]",False,216.22742649994325,219.11588679999113,219.11588679999113,220.33419740002137,['space'],1,[0.41067460004705936],3.507396279950626,4.5299541800050065,None,1,None,1,,,,,,,,,,,,,tlvjds,001,fr,0,0,2022-05-06_11h58.32.052,Cluster,2022.1.1,36.03090732281718,
,,,,0,0,0,0,15,0,15,0,,,none,,,,,,,,,,,,,,,,,,,,,,,,,,,,,,,,,,,,,,,,,,,,,,,,,,,,,,,,,,,,,,,,,,,,,,,,,,,,,,,,,,,,,,,,,,,,,,,,,,,,,,,,,,,,,,,,,,,220.81009699997958,None,6901.81894389804,-6.418297799651098,7.080784958050708e-05,1,"[0.544570753513325, 0.4925399740426364, 0.6700245780575909, 0.4012382920084803]","[3614.5733744484087, 1399.7727848693846, 6129.404864491419, 230.62118692172854]",None,"[1.0, 8.202742051541081, -0.43547093715637253, 10.0]",False,221.83074290002696,224.5667540000286,224.5667540000286,225.77672920003533,['space'],1,[0.4835848999209702],3.128557019867003,4.15561881987378,None,1,None,1,,,,,,,,,,,,,tlvjds,001,fr,0,0,2022-05-06_11h58.32.052,Cluster,2022.1.1,36.03090732281718,
,,,,0,0,0,0,16,0,16,0,,,frequency,,,,,,,,,,,,,,,,,,,,,,,,,,,,,,,,,,,,,,,,,,,,,,,,,,,,,,,,,,,,,,,,,,,,,,,,,,,,,,,,,,,,,,,,,,,,,,,,,,,,,,,,,,,,,,,,,,,226.01989659992978,None,8000.0,0.0,0.0001815390273850507,1,"[0.5138390871775329, 0.759215565358047, 0.4355715922714608, 0.6827914554181733]","[1587.4010519681997, 2378.4142300054423, 3563.5948725613575, 5339.359416680138]",Perfect_5th,"[7.0, 3.8415904308323636, 1.5553021726140503, -0.541673177568244]",False,227.0437368999701,229.78845510003157,229.78845510003157,231.01171969994903,['space'],1,[0.46036110003478825],3.399035819922574,4.428094620001502,None,1,None,1,,,,,,,,,,,,,tlvjds,001,fr,0,0,2022-05-06_11h58.32.052,Cluster,2022.1.1,36.03090732281718,
,,,,0,0,0,0,17,0,17,0,,,frequency,,,,,,,,,,,,,,,,,,,,,,,,,,,,,,,,,,,,,,,,,,,,,,,,,,,,,,,,,,,,,,,,,,,,,,,,,,,,,,,,,,,,,,,,,,,,,,,,,,,,,,,,,,,,,,,,,,,231.51168160000816,None,,,,,"[0.4448400148207312, 0.628310631120381, 0.7486222830729548, 0.433315575027531]","[939.1139589248435, 1407.0810906507702, 2108.2395558614085, 3158.7902462985003]",Perfect_5th,"[9.055491067398357, 8.202742051541081, 4.102496813092523, 2.2095652480986097]",True,232.50220789993182,235.35145049996208,235.35145049996208,236.55534940003417,None,1,,3.281211319961585,4.2959720198996365,None,1,None,1,0,,,,,,,,,,,,tlvjds,001,fr,0,0,2022-05-06_11h58.32.052,Cluster,2022.1.1,36.03090732281718,
,,,,0,0,0,0,18,0,18,0,,,frequency,,,,,,,,,,,,,,,,,,,,,,,,,,,,,,,,,,,,,,,,,,,,,,,,,,,,,,,,,,,,,,,,,,,,,,,,,,,,,,,,,,,,,,,,,,,,,,,,,,,,,,,,,,,,,,,,,,,236.83000730001368,None,842.2753059604722,2.890123896236423,5.5190971423511386e-05,1,"[0.5372147768426754, 0.7711170197816483, 0.4650054732014973, 0.7296832954850534]","[530.6001938931217, 595.5785804706239, 668.5143533642453, 750.3819904014467]",Tone,"[8.38159537766056, 8.683221070112829, 8.7114728918216, 8.717639864225424]",False,237.81965129997116,240.63031489995774,240.63031489995774,241.83746589999646,['space'],1,[0.42911620007362217],3.547826519818045,4.5684877197491005,None,1,None,1,,,,,,,,,,,,,tlvjds,001,fr,0,0,2022-05-06_11h58.32.052,Cluster,2022.1.1,36.03090732281718,
,,,,0,0,0,0,19,0,19,0,,,none,,,,,,,,,,,,,,,,,,,,,,,,,,,,,,,,,,,,,,,,,,,,,,,,,,,,,,,,,,,,,,,,,,,,,,,,,,,,,,,,,,,,,,,,,,,,,,,,,,,,,,,,,,,,,,,,,,,242.42539999994915,None,189.4645708137998,5.0,0.0005402626577628941,1,"[0.5774154171108493, 0.5909933219054254, 0.5391556217433079, 0.6824843656077462]","[359.8730909412672, 1274.3923171833014, 520.0415218916777, 250.2984084405328]",None,"[6.469206311410494, 9.0, 8.38159537766056, 8.772224237705462]",False,243.43629760004114,246.16720269992948,246.16720269992948,247.37339560000692,['space'],1,[0.49507189996074885],3.419747019885108,4.444646019954234,None,1,None,1,,,,,,,,,,,,,tlvjds,001,fr,0,0,2022-05-06_11h58.32.052,Cluster,2022.1.1,36.03090732281718,
,,,,1,0,1,0,0,0,0,0,,,time,,,,,,,,,,,,,,,,,,,,,,,,,,,,,,,,,,,,,,,,,,,,,,,,,,,,,,,,,,,,,,,,,,,,,,,,,,,,,,,,,,,,,,,,,,,,,,,,,,,,,,,,,,,,,,,,,,,259.0469684000127,None,189.4645708137998,5.0,0.0005402626577628941,1,"[0.4397094018417115, 0.4397094018417115, 0.4397094018417115, 0.4397094018417115]","[7814.566949829645, 3296.834755994256, 3660.71401758085, 1240.4015707869617]",None,"[-0.32769683202992184, 2.0, 1.0, 9.167649185974707]",False,260.0517972999951,262.38503100001253,262.38503100001253,263.61351920000743,['space'],1,[0.20791979995556176],2.7866547199664637,3.8200659200083464,None,1,None,1,,,,,,,,,,,,,tlvjds,001,fr,0,0,2022-05-06_11h58.32.052,Cluster,2022.1.1,36.03090732281718,
,,,,1,0,1,0,1,0,1,0,,,frequency,,,,,,,,,,,,,,,,,,,,,,,,,,,,,,,,,,,,,,,,,,,,,,,,,,,,,,,,,,,,,,,,,,,,,,,,,,,,,,,,,,,,,,,,,,,,,,,,,,,,,,,,,,,,,,,,,,,263.91569259995595,None,,,,,"[0.4615861476793181, 0.6189002146167866, 0.6659701401945914, 0.4819649147398419]","[1835.9532752184343, 1457.197080223102, 1156.5780890355704, 917.9766376092172]",Major_3rd,"[5.074361877782851, 8.0, 9.34146993684537, 9.0]",True,264.9198051999556,267.690782199963,267.690782199963,268.92499999993015,None,1,,3.2732994199031964,4.288292419863865,None,1,None,1,0,,,,,,,,,,,,tlvjds,001,fr,0,0,2022-05-06_11h58.32.052,Cluster,2022.1.1,36.03090732281718,
,,,,1,0,1,0,2,0,2,0,,,both,,,,,,,,,,,,,,,,,,,,,,,,,,,,,,,,,,,,,,,,,,,,,,,,,,,,,,,,,,,,,,,,,,,,,,,,,,,,,,,,,,,,,,,,,,,,,,,,,,,,,,,,,,,,,,,,,,,269.23689019994345,None,7015.750917170192,-6.418297799651098,7.245734378200185e-05,1,"[0.7330221830439559, 0.7330221830439559, 0.7330221830439559, 0.7330221830439559]","[4419.646130680993, 4960.885048646783, 5568.405193131412, 6250.323498898834]",Tone,"[-0.15399378487551196, -0.5432522364856851, -0.4874407955257025, -0.43547093715637253]",False,270.2417364999419,273.4583680999931,273.4583680999931,274.67916649999097,['space'],1,[0.37456000002566725],3.9637566198362038,4.988687619799748,None,1,None,1,,,,,,,,,,,,,tlvjds,001,fr,0,0,2022-05-06_11h58.32.052,Cluster,2022.1.1,36.03090732281718,
,,,,1,0,1,0,3,0,3,0,,,both,,,,,,,,,,,,,,,,,,,,,,,,,,,,,,,,,,,,,,,,,,,,,,,,,,,,,,,,,,,,,,,,,,,,,,,,,,,,,,,,,,,,,,,,,,,,,,,,,,,,,,,,,,,,,,,,,,,275.26885140000377,None,125.0,9.0,0.0020369013890205647,1,"[0.477511844085763, 0.477511844085763, 0.477511844085763, 0.477511844085763]","[629.9605249474366, 420.4482076268573, 280.6155120773433, 187.2883846095852]",Perfect_5th,"[8.683221070112829, 7.0, 7.280458301908395, 13.0]",False,277.07958479993977,279.5316778999986,279.5316778999986,280.76491589995567,['space'],1,[0.4010394999058917],2.942972839693539,3.975306439679116,None,1,None,1,,,,,,,,,,,,,tlvjds,001,fr,0,0,2022-05-06_11h58.32.052,Cluster,2022.1.1,36.03090732281718,
,,,,1,0,1,0,4,0,4,0,,,frequency,,,,,,,,,,,,,,,,,,,,,,,,,,,,,,,,,,,,,,,,,,,,,,,,,,,,,,,,,,,,,,,,,,,,,,,,,,,,,,,,,,,,,,,,,,,,,,,,,,,,,,,,,,,,,,,,,,,281.1031000999501,None,2462.2888266898335,0.0,8.505946547995337e-05,1,"[0.5177450824908033, 0.7855751168001653, 0.6749538568668509, 0.412752370925545]","[488.5799842171232, 732.042847972813, 1096.8249796946263, 1643.3806291715812]",Perfect_5th,"[8.0, 8.708224822513255, 9.341844895661215, 6.621660076540737]",False,282.1166060999967,285.11913609993644,285.11913609993644,286.3207431000192,['space'],1,[0.4237268000142649],3.4163222200004384,4.444007719983347,None,1,None,1,,,,,,,,,,,,,tlvjds,001,fr,0,0,2022-05-06_11h58.32.052,Cluster,2022.1.1,36.03090732281718,
,,,,1,0,1,0,5,0,5,0,,,both,,,,,,,,,,,,,,,,,,,,,,,,,,,,,,,,,,,,,,,,,,,,,,,,,,,,,,,,,,,,,,,,,,,,,,,,,,,,,,,,,,,,,,,,,,,,,,,,,,,,,,,,,,,,,,,,,,,286.6124992000405,None,6936.965231267924,-6.418297799651098,7.131669354726792e-05,1,"[0.6762294758073383, 0.6762294758073383, 0.6762294758073383, 0.6762294758073383]","[4370.014258631657, 4905.1751558848555, 5505.872952790763, 6180.133432320696]",Tone,"[-0.15399378487551196, -0.5432522364856851, -0.4874407955257025, -0.43547093715637253]",False,287.60591519996524,290.67192999995314,290.67192999995314,291.8773565000156,['space'],1,[0.39602510002441704],3.7295720198890194,4.7524599198950455,None,1,None,1,,,,,,,,,,,,,tlvjds,001,fr,0,0,2022-05-06_11h58.32.052,Cluster,2022.1.1,36.03090732281718,
,,,,1,0,1,0,6,0,6,0,,,frequency,,,,,,,,,,,,,,,,,,,,,,,,,,,,,,,,,,,,,,,,,,,,,,,,,,,,,,,,,,,,,,,,,,,,,,,,,,,,,,,,,,,,,,,,,,,,,,,,,,,,,,,,,,,,,,,,,,,292.39666640001815,None,,,,,"[0.7917323294233102, 0.6393062129663696, 0.4822939070900008, 0.5376351250189215]","[1031.1944050881277, 1157.4765841403853, 1299.2235375043533, 1458.329113118886]",Tone,"[9.225593482056158, 9.34146993684537, 8.781215544860745, 8.0]",True,293.39704770001117,296.3401315000374,296.3401315000374,297.5461792999413,None,1,,3.4896883198525757,4.513893619761802,None,1,None,1,0,,,,,,,,,,,,tlvjds,001,fr,0,0,2022-05-06_11h58.32.052,Cluster,2022.1.1,36.03090732281718,
,,,,1,0,1,0,7,0,7,0,,,none,,,,,,,,,,,,,,,,,,,,,,,,,,,,,,,,,,,,,,,,,,,,,,,,,,,,,,,,,,,,,,,,,,,,,,,,,,,,,,,,,,,,,,,,,,,,,,,,,,,,,,,,,,,,,,,,,,,297.9401918000076,None,6202.539478296058,-6.4354709371563725,5.978271300744383e-05,1,"[0.5382174425834374, 0.7903457635452596, 0.42037593495565345, 0.6422150768314516]","[5093.6391457728005, 5066.301319077961, 2079.2236185768265, 420.0609318480335]",None,"[-0.5432522364856851, -0.5432522364856851, 4.102496813092523, 7.0]",False,298.9350061999867,301.7205137000419,301.7205137000419,302.94234690000303,['space'],1,[0.3843343999469653],3.4211342197377235,4.425831419765018,None,1,None,1,,,,,,,,,,,,,tlvjds,001,fr,0,0,2022-05-06_11h58.32.052,Cluster,2022.1.1,36.03090732281718,
,,,,1,0,1,0,8,0,8,0,,,time,,,,,,,,,,,,,,,,,,,,,,,,,,,,,,,,,,,,,,,,,,,,,,,,,,,,,,,,,,,,,,,,,,,,,,,,,,,,,,,,,,,,,,,,,,,,,,,,,,,,,,,,,,,,,,,,,,,303.40449179999996,None,2750.2316783809492,-2.811471416817251,5.0893382243232396e-05,1,"[0.7962308758921798, 0.7962308758921798, 0.7962308758921798, 0.7962308758921798]","[155.4589143744263, 539.1654899462767, 2068.315284701283, 933.895309496307]",None,"[15.17756756333614, 8.38159537766056, 4.49861841184684, 9.055491067398357]",False,304.3958662999794,307.79951959999744,307.79951959999744,309.02582849992905,['space'],1,[0.5085919999983162],4.22164591983892,5.24878631986212,None,1,None,1,,,,,,,,,,,,,tlvjds,001,fr,0,0,2022-05-06_11h58.32.052,Cluster,2022.1.1,36.03090732281718,
,,,,1,0,1,0,9,0,9,0,,,both,,,,,,,,,,,,,,,,,,,,,,,,,,,,,,,,,,,,,,,,,,,,,,,,,,,,,,,,,,,,,,,,,,,,,,,,,,,,,,,,,,,,,,,,,,,,,,,,,,,,,,,,,,,,,,,,,,,309.68195150000975,None,2462.2888266898335,0.0,8.505946547995337e-05,0,"[0.49574073615345027, 0.49574073615345027, 0.49574073615345027, 0.49574073615345027]","[6204.579047334941, 4924.577653379667, 3908.6398737369855, 3102.2895236674703]",Major_3rd,"[-0.43547093715637253, -0.5432522364856851, 0.3021827262870165, 2.7619899096497633]",False,310.6961193999741,313.1973385999445,313.1973385999445,314.4124141000211,None,0,,2.994876619661227,4.02287271968089,None,1,None,1,,,,,,,,,,,,,tlvjds,001,fr,0,0,2022-05-06_11h58.32.052,Cluster,2022.1.1,36.03090732281718,
,,,,1,0,1,0,10,0,10,0,,,both,,,,,,,,,,,,,,,,,,,,,,,,,,,,,,,,,,,,,,,,,,,,,,,,,,,,,,,,,,,,,,,,,,,,,,,,,,,,,,,,,,,,,,,,,,,,,,,,,,,,,,,,,,,,,,,,,,,314.7720446999883,None,717.295902057336,2.7082248225132557,5.9428490454351313e-05,1,"[0.7451449128189118, 0.7451449128189118, 0.7451449128189118, 0.7451449128189118]","[142.3295336872867, 213.2533475722197, 319.51899983509946, 478.7375786494888]",Perfect_5th,"[15.506687383192702, 11.0, 6.529146053103162, 7.683408614321836]",False,315.7701335999882,319.04507719993126,319.04507719993126,320.2704277000157,['space'],1,[0.37085470010060817],4.023874619742855,5.041450419812463,None,1,['space'],0,,[-3.989776499918662],,,,,,,,,,,tlvjds,001,fr,0,0,2022-05-06_11h58.32.052,Cluster,2022.1.1,36.03090732281718,
,,,,1,0,1,0,11,0,11,0,,,both,,,,,,,,,,,,,,,,,,,,,,,,,,,,,,,,,,,,,,,,,,,,,,,,,,,,,,,,,,,,,,,,,,,,,,,,,,,,,,,,,,,,,,,,,,,,,,,,,,,,,,,,,,,,,,,,,,,320.84837609995157,None,4000.0,-1.0,7.481178280472168e-05,1,"[0.5610138810810585, 0.5610138810810585, 0.5610138810810585, 0.5610138810810585]","[6349.6042078728005, 5656.854249492382, 5039.684199579494, 4489.8481932374925]",Tone,"[-0.4145697355470386, -0.4874407955257025, -0.5432522364856851, -0.4302768951686673]",False,323.39095369994175,326.09876089997124,326.09876089997124,327.3145156999817,['space'],1,[0.2959159000311047],3.2703150995075703,4.293203599518165,None,1,None,1,,,,,,,,,,,,,tlvjds,001,fr,0,0,2022-05-06_11h58.32.052,Cluster,2022.1.1,36.03090732281718,
,,,,1,0,1,0,12,0,12,0,,,none,,,,,,,,,,,,,,,,,,,,,,,,,,,,,,,,,,,,,,,,,,,,,,,,,,,,,,,,,,,,,,,,,,,,,,,,,,,,,,,,,,,,,,,,,,,,,,,,,,,,,,,,,,,,,,,,,,,327.726205999963,None,125.0,8.0,0.0018153902738505074,1,"[0.6729952946551283, 0.6401593460170922, 0.43439454023952895, 0.41856643380524766]","[729.6887333958558, 551.297681839484, 390.3768939514447, 7729.273529045417]",None,"[8.708224822513255, 8.38159537766056, 6.59878515438321, -0.4082478628706969]",False,328.81614919996355,331.5651652000379,331.5651652000379,332.78263040003367,['space'],1,[0.40755090001039207],3.194598679896444,4.227733979932964,None,1,None,1,,,,,,,,,,,,,tlvjds,001,fr,0,0,2022-05-06_11h58.32.052,Cluster,2022.1.1,36.03090732281718,
,,,,1,0,1,0,13,0,13,0,,,none,,,,,,,,,,,,,,,,,,,,,,,,,,,,,,,,,,,,,,,,,,,,,,,,,,,,,,,,,,,,,,,,,,,,,,,,,,,,,,,,,,,,,,,,,,,,,,,,,,,,,,,,,,,,,,,,,,,333.09304089995567,None,2142.9225896877906,-1.8975031869074772,6.267697076495831e-05,0,"[0.6176248715976117, 0.5920041854281297, 0.7728863510559661, 0.6685605879144574]","[578.9624284523437, 476.66493053317447, 224.8946378206184, 988.5642226220539]",None,"[8.582078609430688, 7.683408614321836, 10.0, 9.225593482056158]",False,334.0890954999486,337.0836260999786,337.0836260999786,338.2944809999317,None,0,,3.6719490197720006,4.682022719760425,None,1,None,1,,,,,,,,,,,,,tlvjds,001,fr,0,0,2022-05-06_11h58.32.052,Cluster,2022.1.1,36.03090732281718,
,,,,1,0,1,0,14,0,14,0,,,time,,,,,,,,,,,,,,,,,,,,,,,,,,,,,,,,,,,,,,,,,,,,,,,,,,,,,,,,,,,,,,,,,,,,,,,,,,,,,,,,,,,,,,,,,,,,,,,,,,,,,,,,,,,,,,,,,,,338.811110700015,None,,,,,"[0.4207699115985535, 0.4207699115985535, 0.4207699115985535, 0.4207699115985535]","[232.71447597406637, 198.30609219739225, 666.7117599369025, 5254.210186177909]",None,"[9.725788110567924, 12.0, 8.7114728918216, -0.541673177568244]",True,339.80662389995996,342.1111978000263,342.1111978000263,343.32274360000156,None,1,,2.731631919858046,3.761324119870551,None,1,None,1,0,,,,,,,,,,,,tlvjds,001,fr,0,0,2022-05-06_11h58.32.052,Cluster,2022.1.1,36.03090732281718,
,,,,1,0,1,0,15,0,15,0,,,frequency,,,,,,,,,,,,,,,,,,,,,,,,,,,,,,,,,,,,,,,,,,,,,,,,,,,,,,,,,,,,,,,,,,,,,,,,,,,,,,,,,,,,,,,,,,,,,,,,,,,,,,,,,,,,,,,,,,,343.5938943999354,None,4119.948724770146,-6.0,4.620614279586884e-05,1,"[0.5976917071239539, 0.4161282677511903, 0.768185960885345, 0.6012340075303831]","[1635.0027349387935, 2059.9743623850736, 2595.4050614127236, 3270.005469877586]",Major_3rd,"[6.621660076540737, 4.49861841184684, 3.470049290367114, 2.2095652480986097]",False,344.5941620999947,347.402894299943,347.402894299943,348.6293427000055,['space'],1,[0.3279420000035316],3.41831201990135,4.44923551985994,None,1,None,1,,,,,,,,,,,,,tlvjds,001,fr,0,0,2022-05-06_11h58.32.052,Cluster,2022.1.1,36.03090732281718,
,,,,1,0,1,0,16,0,16,0,,,frequency,,,,,,,,,,,,,,,,,,,,,,,,,,,,,,,,,,,,,,,,,,,,,,,,,,,,,,,,,,,,,,,,,,,,,,,,,,,,,,,,,,,,,,,,,,,,,,,,,,,,,,,,,,,,,,,,,,,349.0761443999363,None,1741.101126592249,-2.0,5.0139344383985924e-05,1,"[0.5516570937550664, 0.464210495301261, 0.5435311971849761, 0.7604571061614662]","[345.47821999194423, 517.632461920689, 775.5723809168677, 1162.0455869578402]",Perfect_5th,"[6.469206311410494, 8.073907754869992, 8.717639864225424, 9.34146993684537]",False,351.6705748999957,354.2672778000124,354.2672778000124,355.50595290004276,['space'],1,[0.45072319998871535],3.3649918594164774,4.38498815940693,None,1,None,1,,,,,,,,,,,,,tlvjds,001,fr,0,0,2022-05-06_11h58.32.052,Cluster,2022.1.1,36.03090732281718,
,,,,1,0,1,0,17,0,17,0,,,time,,,,,,,,,,,,,,,,,,,,,,,,,,,,,,,,,,,,,,,,,,,,,,,,,,,,,,,,,,,,,,,,,,,,,,,,,,,,,,,,,,,,,,,,,,,,,,,,,,,,,,,,,,,,,,,,,,,356.09458759997506,None,125.0,8.0,0.0018153902738505074,1,"[0.6561125888805887, 0.6561125888805887, 0.6561125888805887, 0.6561125888805887]","[522.7466192529154, 1709.6294401217835, 181.70137156757693, 545.5551252759548]",None,"[8.38159537766056, 6.0, 13.797039980076061, 8.38159537766056]",False,357.1040277000284,360.104849299998,360.104849299998,361.3259166999487,['space'],1,[0.2624183999141678],3.6647285198559985,4.66425631986931,None,1,None,1,,,,,,,,,,,,,tlvjds,001,fr,0,0,2022-05-06_11h58.32.052,Cluster,2022.1.1,36.03090732281718,
,,,,1,0,1,0,18,0,18,0,,,none,,,,,,,,,,,,,,,,,,,,,,,,,,,,,,,,,,,,,,,,,,,,,,,,,,,,,,,,,,,,,,,,,,,,,,,,,,,,,,,,,,,,,,,,,,,,,,,,,,,,,,,,,,,,,,,,,,,361.8238460000139,None,329.87697769322364,-2.0,7.52697013181096e-05,1,"[0.41403038808649034, 0.7205149541313491, 0.6634420982141339, 0.6311428356090921]","[3898.249036971193, 1789.6173559287106, 332.07036153208026, 879.9713755855422]",None,"[0.3021827262870165, 5.797861461966059, 6.529146053103162, 8.890123896236423]",False,362.84364510001615,365.6831228999654,365.6831228999654,366.91614979994483,['space'],1,[0.8385024999734014],3.4595949198119342,4.486851119901985,None,1,None,1,,,,,,,,,,,,,tlvjds,001,fr,0,0,2022-05-06_11h58.32.052,Cluster,2022.1.1,36.03090732281718,
,,,,1,0,1,0,19,0,19,0,,,frequency,,,,,,,,,,,,,,,,,,,,,,,,,,,,,,,,,,,,,,,,,,,,,,,,,,,,,,,,,,,,,,,,,,,,,,,,,,,,,,,,,,,,,,,,,,,,,,,,,,,,,,,,,,,,,,,,,,,367.3815529999556,None,,,,,"[0.5744215990849184, 0.6064157970755863, 0.6716633755999629, 0.6522078723875313]","[4453.075118844496, 3967.2389151612, 3534.4080640735833, 3148.7996136680335]",Tone,"[-0.4302768951686673, 0.3021827262870165, 1.5553021726140503, 2.2095652480986097]",True,368.4030273000244,371.2899670000188,371.2899670000188,372.5230654999614,None,1,,3.526290619862266,4.562665219884366,None,1,None,1,0,,,,,,,,,,,,tlvjds,001,fr,0,0,2022-05-06_11h58.32.052,Cluster,2022.1.1,36.03090732281718,
,,,,2,0,2,0,0,0,0,0,,,time,,,,,,,,,,,,,,,,,,,,,,,,,,,,,,,,,,,,,,,,,,,,,,,,,,,,,,,,,,,,,,,,,,,,,,,,,,,,,,,,,,,,,,,,,,,,,,,,,,,,,,,,,,,,,,,,,,,439.7782708000159,None,7917.376248445949,-6.327696832029922,8.640759101199474e-05,0,"[0.5753449306921954, 0.5753449306921954, 0.5753449306921954, 0.5753449306921954]","[225.7541478009704, 350.70477861149107, 6217.344871290286, 4603.310591183333]",None,"[10.0, 6.469206311410494, -0.43547093715637253, -0.4302768951686673]",False,440.7423335999483,443.5016622999683,443.5016622999683,444.70562489994336,None,0,,3.3245677198283374,4.349075319827534,None,1,None,1,,,,,,,,,,,,,tlvjds,001,fr,0,0,2022-05-06_11h58.32.052,Cluster,2022.1.1,36.03090732281718,
,,,,2,0,2,0,1,0,1,0,,,none,,,,,,,,,,,,,,,,,,,,,,,,,,,,,,,,,,,,,,,,,,,,,,,,,,,,,,,,,,,,,,,,,,,,,,,,,,,,,,,,,,,,,,,,,,,,,,,,,,,,,,,,,,,,,,,,,,,445.12712219997775,None,1821.8570075090568,-0.9256381222171487,6.0018749096075236e-05,0,"[0.4026532759597885, 0.7305660732966895, 0.5386136001567938, 0.7292326373800784]","[6944.767421331896, 1263.2561108832565, 633.9323090596756, 3836.4278235641027]",None,"[-0.41829779965109815, 9.0, 8.683221070112829, 0.8894975793907616]",False,446.14195550000295,448.8353874000022,448.8353874000022,450.0510992000345,None,0,,3.4235960198566318,4.4498667197767645,None,1,None,1,,,,,,,,,,,,,tlvjds,001,fr,0,0,2022-05-06_11h58.32.052,Cluster,2022.1.1,36.03090732281718,
,,,,2,0,2,0,2,0,2,0,,,frequency,,,,,,,,,,,,,,,,,,,,,,,,,,,,,,,,,,,,,,,,,,,,,,,,,,,,,,,,,,,,,,,,,,,,,,,,,,,,,,,,,,,,,,,,,,,,,,,,,,,,,,,,,,,,,,,,,,,450.63090889994055,None,1802.671872218518,-0.20213853803394083,6.438584261270319e-05,1,"[0.5978938165270203, 0.6809534559731517, 0.589381579432216, 0.4161407072911369]","[357.69540328914496, 535.9375541143845, 802.9990300935617, 1203.1391295142948]",Perfect_5th,"[6.469206311410494, 8.38159537766056, 8.773628846204765, 9.167649185974707]",False,451.6417763000354,454.53597990004346,454.53597990004346,455.74857479997445,['space'],1,[0.33851290005259216],3.3204782200045884,4.323077220004052,None,1,None,1,,,,,,,,,,,,,tlvjds,001,fr,0,0,2022-05-06_11h58.32.052,Cluster,2022.1.1,36.03090732281718,
,,,,2,0,2,0,3,0,3,0,,,time,,,,,,,,,,,,,,,,,,,,,,,,,,,,,,,,,,,,,,,,,,,,,,,,,,,,,,,,,,,,,,,,,,,,,,,,,,,,,,,,,,,,,,,,,,,,,,,,,,,,,,,,,,,,,,,,,,,456.0057312999852,None,574.3491774985172,-1.0,5.333798065099765e-05,1,"[0.5495789831875321, 0.5495789831875321, 0.5495789831875321, 0.5495789831875321]","[423.8315926011144, 4782.742197983538, 2855.8929891087264, 621.9475282995734]",None,"[7.0, -0.5432522364856851, 3.188528583182749, 8.683221070112829]",False,457.04163460002746,459.714289000025,459.714289000025,460.91803429997526,['space'],1,[0.2333941999822855],3.220558119821362,4.246198019827716,None,1,None,1,,,,,,,,,,,,,tlvjds,001,fr,0,0,2022-05-06_11h58.32.052,Cluster,2022.1.1,36.03090732281718,
,,,,2,0,2,0,4,0,4,0,,,frequency,,,,,,,,,,,,,,,,,,,,,,,,,,,,,,,,,,,,,,,,,,,,,,,,,,,,,,,,,,,,,,,,,,,,,,,,,,,,,,,,,,,,,,,,,,,,,,,,,,,,,,,,,,,,,,,,,,,461.3360306000104,None,217.63764082403114,-3.0,0.0001634552883734765,1,"[0.4730321097821964, 0.59862012340005, 0.4450257499662095, 0.5811672505671059]","[548.4124898473133, 435.27528164806233, 345.47821999194423, 274.20624492365664]",Major_3rd,"[8.38159537766056, 7.272468950205591, 6.469206311410494, 7.9447353217809225]",False,462.369774700026,464.912379699992,464.912379699992,466.13611870002933,['space'],1,[0.10443289997056127],3.126925519783981,4.133177519775927,None,1,None,1,,,,,,,,,,,,,tlvjds,001,fr,0,0,2022-05-06_11h58.32.052,Cluster,2022.1.1,36.03090732281718,
,,,,2,0,2,0,5,0,5,0,,,frequency,,,,,,,,,,,,,,,,,,,,,,,,,,,,,,,,,,,,,,,,,,,,,,,,,,,,,,,,,,,,,,,,,,,,,,,,,,,,,,,,,,,,,,,,,,,,,,,,,,,,,,,,,,,,,,,,,,,466.55034880002495,None,1206.2503673477825,3.1676491859747076,7.586168452399526e-05,1,"[0.4588894129429577, 0.4719003150235015, 0.7931732519501931, 0.4336532561448702]","[478.7007755162244, 603.1251836738913, 759.8901146324473, 957.4015510324485]",Major_3rd,"[7.683408614321836, 8.683221070112829, 8.717639864225424, 9.055491067398357]",False,467.5659221999813,470.325959000038,470.325959000038,471.5546941999346,['space'],1,[0.34528240002691746],3.18209801975172,4.199175219750032,None,1,None,1,,,,,,,,,,,,,tlvjds,001,fr,0,0,2022-05-06_11h58.32.052,Cluster,2022.1.1,36.03090732281718,
,,,,2,0,2,0,6,0,6,0,,,none,,,,,,,,,,,,,,,,,,,,,,,,,,,,,,,,,,,,,,,,,,,,,,,,,,,,,,,,,,,,,,,,,,,,,,,,,,,,,,,,,,,,,,,,,,,,,,,,,,,,,,,,,,,,,,,,,,,471.80509609996807,None,3249.0095854249403,0.0,7.075723770535575e-05,1,"[0.584402433594717, 0.5096963225035624, 0.5438802630608878, 0.6419656016796442]","[5558.9280476099, 2894.0066560219575, 634.6052334916388, 1266.828814558701]",None,"[-0.4874407955257025, 3.0, 8.683221070112829, 9.0]",False,472.81129400001373,475.4824140999699,475.4824140999699,476.6906847000355,['space'],1,[0.12860399996861815],3.307419719872996,4.311950519797392,None,1,None,1,,,,,,,,,,,,,tlvjds,001,fr,0,0,2022-05-06_11h58.32.052,Cluster,2022.1.1,36.03090732281718,
,,,,2,0,2,0,7,0,7,0,,,none,,,,,,,,,,,,,,,,,,,,,,,,,,,,,,,,,,,,,,,,,,,,,,,,,,,,,,,,,,,,,,,,,,,,,,,,,,,,,,,,,,,,,,,,,,,,,,,,,,,,,,,,,,,,,,,,,,,477.1734856000403,None,279.7022574513056,1.2804583019083942,0.00015762044028755113,1,"[0.5529227322418684, 0.44416657374320456, 0.42015416309890363, 0.4378729859470459]","[438.53642936221473, 583.1222070798459, 346.3628112073219, 1415.4195150774729]",None,"[7.272468950205591, 8.582078609430688, 6.469206311410494, 8.202742051541081]",False,478.15898169996217,480.60748310002964,480.60748310002964,481.81127039995044,['space'],1,[0.38786669995170087],2.8984032197622582,3.925741519778967,None,1,None,1,,,,,,,,,,,,,tlvjds,001,fr,0,0,2022-05-06_11h58.32.052,Cluster,2022.1.1,36.03090732281718,
,,,,2,0,2,0,8,0,8,0,,,frequency,,,,,,,,,,,,,,,,,,,,,,,,,,,,,,,,,,,,,,,,,,,,,,,,,,,,,,,,,,,,,,,,,,,,,,,,,,,,,,,,,,,,,,,,,,,,,,,,,,,,,,,,,,,,,,,,,,,482.12166720000096,None,,,,,"[0.7816649623806109, 0.416384765881916, 0.4810426189795378, 0.6164783036821118]","[915.153984505429, 610.7920056101764, 407.65475584845535, 272.07690742423654]",Perfect_5th,"[9.0, 8.683221070112829, 6.883827048893163, 7.9447353217809225]",True,483.13940909993835,485.85738549998496,485.85738549998496,487.0680350000039,None,1,,3.3182814199244604,4.340243119979277,None,1,None,1,0,,,,,,,,,,,,tlvjds,001,fr,0,0,2022-05-06_11h58.32.052,Cluster,2022.1.1,36.03090732281718,
,,,,2,0,2,0,9,0,9,0,,,both,,,,,,,,,,,,,,,,,,,,,,,,,,,,,,,,,,,,,,,,,,,,,,,,,,,,,,,,,,,,,,,,,,,,,,,,,,,,,,,,,,,,,,,,,,,,,,,,,,,,,,,,,,,,,,,,,,,487.51826050004456,None,385.0289423804238,0.5987851543832096,8.618202354237165e-05,1,"[0.6062578275767859, 0.6062578275767859, 0.6062578275767859, 0.6062578275767859]","[611.1953481728881, 544.5131522205644, 485.1060693238562, 432.18037532272206]",Tone,"[8.683221070112829, 8.38159537766056, 8.0, 7.272468950205591]",False,488.51098200003617,491.3470049999887,491.3470049999887,492.56077360000927,['space'],1,[0.304255900089629],3.4599707199959084,4.464910419890657,None,1,None,1,,,,,,,,,,,,,tlvjds,001,fr,0,0,2022-05-06_11h58.32.052,Cluster,2022.1.1,36.03090732281718,
,,,,2,0,2,0,10,0,10,0,,,time,,,,,,,,,,,,,,,,,,,,,,,,,,,,,,,,,,,,,,,,,,,,,,,,,,,,,,,,,,,,,,,,,,,,,,,,,,,,,,,,,,,,,,,,,,,,,,,,,,,,,,,,,,,,,,,,,,,493.0141303000273,None,2954.782308254407,-3.0,4.080165791587572e-05,1,"[0.4403649590411508, 0.4403649590411508, 0.4403649590411508, 0.4403649590411508]","[1936.6201843661788, 186.1150212413875, 841.1230365829512, 272.425690821288]",None,"[5.0, 13.0, 8.773628846204765, 7.9447353217809225]",False,494.0282326999586,496.3798156999983,496.3798156999983,497.60295279999264,['space'],1,[0.32028820004779845],2.8071467197733,3.8114604197908193,None,1,None,1,,,,,,,,,,,,,tlvjds,001,fr,0,0,2022-05-06_11h58.32.052,Cluster,2022.1.1,36.03090732281718,
,,,,2,0,2,0,11,0,11,0,,,frequency,,,,,,,,,,,,,,,,,,,,,,,,,,,,,,,,,,,,,,,,,,,,,,,,,,,,,,,,,,,,,,,,,,,,,,,,,,,,,,,,,,,,,,,,,,,,,,,,,,,,,,,,,,,,,,,,,,,497.8819073999766,None,125.0,5.0,0.0012851978913844323,1,"[0.4788866754532571, 0.4840575319993487, 0.7980684056048706, 0.564799889468469]","[629.9605249474366, 420.4482076268573, 280.6155120773433, 187.2883846095852]",Perfect_5th,"[8.683221070112829, 7.0, 7.280458301908395, 13.0]",False,498.91407559998333,501.7095876999665,501.7095876999665,502.9258805999998,['space'],1,[0.33760079997591674],3.362474819761701,4.387983719818294,None,1,None,1,,,,,,,,,,,,,tlvjds,001,fr,0,0,2022-05-06_11h58.32.052,Cluster,2022.1.1,36.03090732281718,
,,,,2,0,2,0,12,0,12,0,,,both,,,,,,,,,,,,,,,,,,,,,,,,,,,,,,,,,,,,,,,,,,,,,,,,,,,,,,,,,,,,,,,,,,,,,,,,,,,,,,,,,,,,,,,,,,,,,,,,,,,,,,,,,,,,,,,,,,,503.3482386999531,None,,,,,"[0.577938119344862, 0.577938119344862, 0.577938119344862, 0.577938119344862]","[444.14108154149034, 352.5150100306278, 279.7913488785995, 222.07054077074517]",Major_3rd,"[7.272468950205591, 6.469206311410494, 7.280458301908395, 10.758907848768903]",True,504.34047209995333,507.0936402999796,507.0936402999796,508.32613469997887,None,1,,3.340593519853428,4.3512740198057145,None,1,None,1,0,,,,,,,,,,,,tlvjds,001,fr,0,0,2022-05-06_11h58.32.052,Cluster,2022.1.1,36.03090732281718,
,,,,2,0,2,0,13,0,13,0,,,time,,,,,,,,,,,,,,,,,,,,,,,,,,,,,,,,,,,,,,,,,,,,,,,,,,,,,,,,,,,,,,,,,,,,,,,,,,,,,,,,,,,,,,,,,,,,,,,,,,,,,,,,,,,,,,,,,,,508.7198921999661,None,307.7861033362292,-4.0,6.704780114820166e-05,0,"[0.512505725926048, 0.512505725926048, 0.512505725926048, 0.512505725926048]","[5863.1245679640415, 3402.896715849143, 229.58845763191957, 1476.832590912149]",None,"[-0.43547093715637253, 1.5553021726140503, 10.0, 8.0]",False,509.8138948000269,512.3745486999396,512.3745486999396,513.5749743999913,None,0,,3.092602259828709,4.098194059799425,None,1,None,1,,,,,,,,,,,,,tlvjds,001,fr,0,0,2022-05-06_11h58.32.052,Cluster,2022.1.1,36.03090732281718,
,,,,2,0,2,0,14,0,14,0,,,frequency,,,,,,,,,,,,,,,,,,,,,,,,,,,,,,,,,,,,,,,,,,,,,,,,,,,,,,,,,,,,,,,,,,,,,,,,,,,,,,,,,,,,,,,,,,,,,,,,,,,,,,,,,,,,,,,,,,,513.9413553000195,None,2889.3244556739255,-3.0,4.368140337732078e-05,1,"[0.48878785700012534, 0.49382660311225923, 0.7058782523525878, 0.689459561312127]","[7280.64140335925, 5778.648911347851, 4586.5166804142345, 3640.320701679625]",Major_3rd,"[-0.4082478628706969, -0.4874407955257025, -0.4302768951686673, 1.0]",False,514.9555495999521,517.6691136999289,517.6691136999289,518.8761269999668,['space'],1,[0.35241599997971207],3.3997033197665587,4.427389419754036,None,1,None,1,,,,,,,,,,,,,tlvjds,001,fr,0,0,2022-05-06_11h58.32.052,Cluster,2022.1.1,36.03090732281718,
,,,,2,0,2,0,15,0,15,0,,,both,,,,,,,,,,,,,,,,,,,,,,,,,,,,,,,,,,,,,,,,,,,,,,,,,,,,,,,,,,,,,,,,,,,,,,,,,,,,,,,,,,,,,,,,,,,,,,,,,,,,,,,,,,,,,,,,,,,519.4228660999797,None,267.9433656340732,-3.0,0.00010511108728813206,1,"[0.6545997420136407, 0.6545997420136407, 0.6545997420136407, 0.6545997420136407]","[675.1749730840947, 535.8867312681464, 425.3335804754277, 337.5874865420474]",Major_3rd,"[8.7114728918216, 8.38159537766056, 7.272468950205591, 6.529146053103162]",False,520.4415984000079,523.4228307999438,523.4228307999438,524.6238858000142,['space'],1,[0.3764656001003459],3.6308017199626192,4.6370540199568495,None,1,None,1,,,,,,,,,,,,,tlvjds,001,fr,0,0,2022-05-06_11h58.32.052,Cluster,2022.1.1,36.03090732281718,
,,,,2,0,2,0,16,0,16,0,,,none,,,,,,,,,,,,,,,,,,,,,,,,,,,,,,,,,,,,,,,,,,,,,,,,,,,,,,,,,,,,,,,,,,,,,,,,,,,,,,,,,,,,,,,,,,,,,,,,,,,,,,,,,,,,,,,,,,,525.1328038999345,None,,,,,"[0.4863654581893261, 0.7285761525606625, 0.5666892976807936, 0.48709275224463666]","[4343.987721937089, 204.10427087023356, 4160.4587557443065, 171.4900018016638]",None,"[-0.15399378487551196, 11.820817285616162, 0.0, 14.0]",True,526.1275646999711,528.9250853999984,528.9250853999984,530.1544995999429,None,1,,3.2910186199005693,4.29614741995465,None,1,None,1,0,,,,,,,,,,,,tlvjds,001,fr,0,0,2022-05-06_11h58.32.052,Cluster,2022.1.1,36.03090732281718,
,,,,2,0,2,0,17,0,17,0,,,frequency,,,,,,,,,,,,,,,,,,,,,,,,,,,,,,,,,,,,,,,,,,,,,,,,,,,,,,,,,,,,,,,,,,,,,,,,,,,,,,,,,,,,,,,,,,,,,,,,,,,,,,,,,,,,,,,,,,,530.4608526999364,None,125.0,-2.0,0.0005740768107484417,1,"[0.5037866086018415, 0.7403965700022613, 0.6353885862285075, 0.7169582800989571]","[314.9802624737183, 250.00000000000003, 198.42513149602496, 157.49013123685916]",Major_3rd,"[6.797557276678826, 8.772224237705462, 12.0, 15.0]",False,531.4691809000215,534.3856375999749,534.3856375999749,535.5942247000057,['space'],1,[0.4660940000321716],3.604146219789982,4.638198719825596,None,1,None,1,,,,,,,,,,,,,tlvjds,001,fr,0,0,2022-05-06_11h58.32.052,Cluster,2022.1.1,36.03090732281718,
,,,,2,0,2,0,18,0,18,0,,,time,,,,,,,,,,,,,,,,,,,,,,,,,,,,,,,,,,,,,,,,,,,,,,,,,,,,,,,,,,,,,,,,,,,,,,,,,,,,,,,,,,,,,,,,,,,,,,,,,,,,,,,,,,,,,,,,,,,536.158446699963,None,5527.29142705068,-6.4874407955257025,6.316302964444482e-05,1,"[0.7747913213257881, 0.7747913213257881, 0.7747913213257881, 0.7747913213257881]","[205.9019570221853, 176.447137865617, 5608.833827799681, 1890.7235660452777]",None,"[11.820817285616162, 13.797039980076061, -0.4874407955257025, 5.0]",False,537.1757618000265,540.5273899999447,540.5273899999447,541.7465905999998,['space'],1,[0.35339109995402396],4.122859519789927,5.140033719828352,None,1,None,1,,,,,,,,,,,,,tlvjds,001,fr,0,0,2022-05-06_11h58.32.052,Cluster,2022.1.1,36.03090732281718,
,,,,2,0,2,0,19,0,19,0,,,both,,,,,,,,,,,,,,,,,,,,,,,,,,,,,,,,,,,,,,,,,,,,,,,,,,,,,,,,,,,,,,,,,,,,,,,,,,,,,,,,,,,,,,,,,,,,,,,,,,,,,,,,,,,,,,,,,,,542.3560429000063,None,2111.33400034382,-1.8975031869074772,6.211415358656183e-05,1,"[0.7322623942713309, 0.7322623942713309, 0.7322623942713309, 0.7322623942713309]","[418.94172665025087, 627.7033538390071, 940.4923772362121, 1409.1463845615901]",Perfect_5th,"[7.0, 8.683221070112829, 9.055491067398357, 8.202742051541081]",False,543.353493600036,546.5693673000205,546.5693673000205,547.7998377999756,['space'],1,[0.35283210000488907],3.961384819704108,4.988186219707131,None,1,None,1,,,,,,,,,,,,,tlvjds,001,fr,0,0,2022-05-06_11h58.32.052,Cluster,2022.1.1,36.03090732281718,
,,,,3,0,3,0,0,0,0,0,,,both,,,,,,,,,,,,,,,,,,,,,,,,,,,,,,,,,,,,,,,,,,,,,,,,,,,,,,,,,,,,,,,,,,,,,,,,,,,,,,,,,,,,,,,,,,,,,,,,,,,,,,,,,,,,,,,,,,,551.2711290000007,None,,,,,"[0.7127751200870936, 0.7127751200870936, 0.7127751200870936, 0.7127751200870936]","[602.0076161199511, 536.3278135119858, 477.8137615608391, 425.6836676843653]",Tone,"[8.683221070112829, 8.38159537766056, 7.683408614321836, 7.272468950205591]",True,552.2501498999773,555.4259714999935,555.4259714999935,556.6398283999879,None,1,,3.9007138196611777,4.9292853196384385,None,1,None,1,0,,,,,,,,,,,,tlvjds,001,fr,0,0,2022-05-06_11h58.32.052,Cluster,2022.1.1,36.03090732281718,
,,,,3,0,3,0,1,0,1,0,,,none,,,,,,,,,,,,,,,,,,,,,,,,,,,,,,,,,,,,,,,,,,,,,,,,,,,,,,,,,,,,,,,,,,,,,,,,,,,,,,,,,,,,,,,,,,,,,,,,,,,,,,,,,,,,,,,,,,,557.2170432000421,None,659.7539553864473,-1.0,4.3275085888736026e-05,1,"[0.6073532409306586, 0.7986409502670068, 0.5436022757278455, 0.6115118162269573]","[183.93930119754066, 366.73509853886856, 4197.236809072094, 376.2159663855616]",None,"[13.0, 6.59878515438321, 0.0, 6.59878515438321]",False,558.22352400003,561.210554099991,561.210554099991,562.4170509999385,['space'],1,[0.33048330002930015],3.59621021989733,4.603591219871305,None,1,None,1,,,,,,,,,,,,,tlvjds,001,fr,0,0,2022-05-06_11h58.32.052,Cluster,2022.1.1,36.03090732281718,
,,,,3,0,3,0,2,0,2,0,,,frequency,,,,,,,,,,,,,,,,,,,,,,,,,,,,,,,,,,,,,,,,,,,,,,,,,,,,,,,,,,,,,,,,,,,,,,,,,,,,,,,,,,,,,,,,,,,,,,,,,,,,,,,,,,,,,,,,,,,562.8749606999336,None,628.8205575850473,2.683221070112828,6.993426663165988e-05,1,"[0.5328819536726875, 0.4555138021643654, 0.6116992474438423, 0.6188674278014404]","[249.5476036524335, 314.4102787925237, 396.13212855401616, 499.0952073048669]",Major_3rd,"[8.772224237705462, 6.797557276678826, 6.883827048893163, 8.073907754869992]",False,563.8796663000248,566.5131378000369,566.5131378000369,567.7422107999446,['space'],1,[0.35106780007481575],3.2463353199418634,4.2607500199228525,None,1,None,1,,,,,,,,,,,,,tlvjds,001,fr,0,0,2022-05-06_11h58.32.052,Cluster,2022.1.1,36.03090732281718,
,,,,3,0,3,0,3,0,3,0,,,time,,,,,,,,,,,,,,,,,,,,,,,,,,,,,,,,,,,,,,,,,,,,,,,,,,,,,,,,,,,,,,,,,,,,,,,,,,,,,,,,,,,,,,,,,,,,,,,,,,,,,,,,,,,,,,,,,,,568.1839548000135,None,1741.101126592249,-2.0,5.0139344383985924e-05,1,"[0.6429255789615481, 0.6429255789615481, 0.6429255789615481, 0.6429255789615481]","[790.1864810911261, 5648.025943665005, 389.8392030185498, 324.58216620890886]",None,"[8.773628846204765, -0.4874407955257025, 6.59878515438321, 6.529146053103162]",False,569.1951637000311,572.1515427000122,572.1515427000122,573.3536361999577,['space'],1,[0.38895070005673915],3.58817731984891,4.618784919846803,None,1,None,1,,,,,,,,,,,,,tlvjds,001,fr,0,0,2022-05-06_11h58.32.052,Cluster,2022.1.1,36.03090732281718,
,,,,3,0,3,0,4,0,4,0,,,frequency,,,,,,,,,,,,,,,,,,,,,,,,,,,,,,,,,,,,,,,,,,,,,,,,,,,,,,,,,,,,,,,,,,,,,,,,,,,,,,,,,,,,,,,,,,,,,,,,,,,,,,,,,,,,,,,,,,,573.8722942000022,None,,,,,"[0.7917903884023915, 0.5932607026558766, 0.563151073941767, 0.6617847959707958]","[4762.427862163374, 5345.644533089529, 6000.283112145476, 6735.09007249495]",Tone,"[-0.5432522364856851, -0.541673177568244, -0.43547093715637253, -0.41829779965109815]",True,574.8552157999948,577.8383434000425,577.8383434000425,579.0390102999518,None,1,,3.638266919995658,4.645830319961533,None,1,None,1,0,,,,,,,,,,,,tlvjds,001,fr,0,0,2022-05-06_11h58.32.052,Cluster,2022.1.1,36.03090732281718,
,,,,3,0,3,0,5,0,5,0,,,both,,,,,,,,,,,,,,,,,,,,,,,,,,,,,,,,,,,,,,,,,,,,,,,,,,,,,,,,,,,,,,,,,,,,,,,,,,,,,,,,,,,,,,,,,,,,,,,,,,,,,,,,,,,,,,,,,,,579.5362771999789,None,164.93848884661182,3.0,0.000555318596464719,1,"[0.43959207493582975, 0.43959207493582975, 0.43959207493582975, 0.43959207493582975]","[261.82353070515677, 233.25824788420192, 207.809474035697, 185.13719403582058]",Tone,"[8.0, 9.725788110567924, 11.820817285616162, 13.0]",False,580.5925681999652,582.9382572999457,582.9382572999457,584.1415438000113,['space'],1,[0.33969539997633547],2.7754912998061627,3.7929594998713583,None,1,None,1,,,,,,,,,,,,,tlvjds,001,fr,0,0,2022-05-06_11h58.32.052,Cluster,2022.1.1,36.03090732281718,
,,,,3,0,3,0,6,0,6,0,,,time,,,,,,,,,,,,,,,,,,,,,,,,,,,,,,,,,,,,,,,,,,,,,,,,,,,,,,,,,,,,,,,,,,,,,,,,,,,,,,,,,,,,,,,,,,,,,,,,,,,,,,,,,,,,,,,,,,,584.4265016999561,None,2054.1844590881783,-1.5013815881531598,6.39467163035763e-05,1,"[0.6089866524486978, 0.6089866524486978, 0.6089866524486978, 0.6089866524486978]","[2134.8895951491922, 129.03892605313527, 493.1702039175223, 7185.097559843989]",None,"[4.102496813092523, 15.329490798789571, 8.0, -0.41829779965109815]",False,585.435561500024,588.2793558000121,588.2793558000121,589.5045762000373,['space'],1,[0.30266400007531047],3.4825136199360713,4.495377919985913,None,1,None,1,,,,,,,,,,,,,tlvjds,001,fr,0,0,2022-05-06_11h58.32.052,Cluster,2022.1.1,36.03090732281718,
,,,,3,0,3,0,7,0,7,0,,,both,,,,,,,,,,,,,,,,,,,,,,,,,,,,,,,,,,,,,,,,,,,,,,,,,,,,,,,,,,,,,,,,,,,,,,,,,,,,,,,,,,,,,,,,,,,,,,,,,,,,,,,,,,,,,,,,,,,589.9720734000439,None,5881.2634899466375,-6.4354709371563725,5.7319895861720146e-05,1,"[0.5625196381375923, 0.5625196381375923, 0.5625196381375923, 0.5625196381375923]","[1166.990481355432, 1748.5100968625688, 2619.8050521195187, 3925.2724496279584]",Perfect_5th,"[9.34146993684537, 5.797861461966059, 3.470049290367114, 0.3021827262870165]",False,590.9697872999823,593.6811215999769,593.6811215999769,594.9084077000152,['space'],1,[0.42529379995539784],3.2964233198435977,4.300443419837393,None,1,None,1,,,,,,,,,,,,,tlvjds,001,fr,0,0,2022-05-06_11h58.32.052,Cluster,2022.1.1,36.03090732281718,
,,,,3,0,3,0,8,0,8,0,,,both,,,,,,,,,,,,,,,,,,,,,,,,,,,,,,,,,,,,,,,,,,,,,,,,,,,,,,,,,,,,,,,,,,,,,,,,,,,,,,,,,,,,,,,,,,,,,,,,,,,,,,,,,,,,,,,,,,,595.3066522999434,None,,,,,"[0.6647719404860895, 0.6647719404860895, 0.6647719404860895, 0.6647719404860895]","[1027.2988064937747, 815.3676030569469, 647.1576954166934, 513.6494032468873]",Major_3rd,"[9.225593482056158, 8.773628846204765, 8.7114728918216, 8.073907754869992]",True,596.3038863999536,599.3336745999986,599.3336745999986,600.5495488999877,None,1,,3.6971942199161276,4.722605119924992,None,1,None,1,0,,,,,,,,,,,,tlvjds,001,fr,0,0,2022-05-06_11h58.32.052,Cluster,2022.1.1,36.03090732281718,
,,,,3,0,3,0,9,0,9,0,,,none,,,,,,,,,,,,,,,,,,,,,,,,,,,,,,,,,,,,,,,,,,,,,,,,,,,,,,,,,,,,,,,,,,,,,,,,,,,,,,,,,,,,,,,,,,,,,,,,,,,,,,,,,,,,,,,,,,,601.0601437999867,None,201.2668118769459,6.0,0.0005246747707177114,1,"[0.5982240652271634, 0.6381097392926348, 0.6143230709120502, 0.5857371175899462]","[1209.2827983798131, 443.38086803721217, 7111.699034681674, 724.8147947474929]",None,"[9.167649185974707, 7.272468950205591, -0.41829779965109815, 8.708224822513255]",False,602.0778294999618,604.9651993999723,604.9651993999723,606.1906497000018,['space'],1,[0.32190219999756664],3.4593771196668968,4.478719819686376,None,1,None,1,,,,,,,,,,,,,tlvjds,001,fr,0,0,2022-05-06_11h58.32.052,Cluster,2022.1.1,36.03090732281718,
,,,,3,0,3,0,10,0,10,0,,,time,,,,,,,,,,,,,,,,,,,,,,,,,,,,,,,,,,,,,,,,,,,,,,,,,,,,,,,,,,,,,,,,,,,,,,,,,,,,,,,,,,,,,,,,,,,,,,,,,,,,,,,,,,,,,,,,,,,606.5990310999332,None,189.4645708137998,0.0,0.00030381201891724585,1,"[0.48800997250971884, 0.48800997250971884, 0.48800997250971884, 0.48800997250971884]","[2580.9710478181887, 1455.3514409942152, 2454.6210797135586, 827.1577502631504]",None,"[3.470049290367114, 8.0, 3.6605625063632186, 8.773628846204765]",False,607.6296390999341,610.1080065999413,610.1080065999413,611.3293361000251,['space'],1,[0.27837900002487004],2.9770760198589414,3.9834689197596163,None,1,None,1,,,,,,,,,,,,,tlvjds,001,fr,0,0,2022-05-06_11h58.32.052,Cluster,2022.1.1,36.03090732281718,
,,,,3,0,3,0,11,0,11,0,,,frequency,,,,,,,,,,,,,,,,,,,,,,,,,,,,,,,,,,,,,,,,,,,,,,,,,,,,,,,,,,,,,,,,,,,,,,,,,,,,,,,,,,,,,,,,,,,,,,,,,,,,,,,,,,,,,,,,,,,611.6624629000435,None,125.0,-7.0,0.00032282711451732784,0,"[0.6531489126281131, 0.5722479578296351, 0.5097151778813231, 0.430783749748838]","[314.9802624737183, 250.00000000000003, 198.42513149602496, 157.49013123685916]",Major_3rd,"[6.797557276678826, 8.772224237705462, 12.0, 15.0]",False,612.6727955000242,615.4448757999344,615.4448757999344,616.6700336999493,None,0,,3.184602919849567,4.188078919891268,None,1,None,1,,,,,,,,,,,,,tlvjds,001,fr,0,0,2022-05-06_11h58.32.052,Cluster,2022.1.1,36.03090732281718,
,,,,3,0,3,0,12,0,12,0,,,none,,,,,,,,,,,,,,,,,,,,,,,,,,,,,,,,,,,,,,,,,,,,,,,,,,,,,,,,,,,,,,,,,,,,,,,,,,,,,,,,,,,,,,,,,,,,,,,,,,,,,,,,,,,,,,,,,,,616.9146771000233,None,,,,,"[0.6832037744738957, 0.7278877943664768, 0.603976412431161, 0.45504096189040605]","[309.1818845132454, 152.54342318619905, 147.301888136185, 330.1042474140023]",None,"[6.797557276678826, 15.17756756333614, 15.506687383192702, 6.529146053103162]",True,617.907104199985,620.9584500000346,620.9584500000346,622.1743899999419,None,1,,3.506643119850196,4.536608919850551,None,1,None,1,0,,,,,,,,,,,,tlvjds,001,fr,0,0,2022-05-06_11h58.32.052,Cluster,2022.1.1,36.03090732281718,
,,,,3,0,3,0,13,0,13,0,,,time,,,,,,,,,,,,,,,,,,,,,,,,,,,,,,,,,,,,,,,,,,,,,,,,,,,,,,,,,,,,,,,,,,,,,,,,,,,,,,,,,,,,,,,,,,,,,,,,,,,,,,,,,,,,,,,,,,,622.4761455999687,None,7229.774653611386,-6.408247862870697,7.564342717887701e-05,0,"[0.6233414974520722, 0.6233414974520722, 0.6233414974520722, 0.6233414974520722]","[1345.7147671402947, 899.464427476871, 1415.5966120495073, 4592.253309848314]",None,"[8.781215544860745, 9.0, 8.202742051541081, -0.4302768951686673]",False,623.4943575999932,626.385320100002,626.385320100002,627.5935477999737,None,0,,3.5226624198257923,4.525429819826968,None,1,['space'],0,,[0.49287000007461756],,,,,,,,,,,tlvjds,001,fr,0,0,2022-05-06_11h58.32.052,Cluster,2022.1.1,36.03090732281718,
,,,,3,0,3,0,14,0,14,0,,,both,,,,,,,,,,,,,,,,,,,,,,,,,,,,,,,,,,,,,,,,,,,,,,,,,,,,,,,,,,,,,,,,,,,,,,,,,,,,,,,,,,,,,,,,,,,,,,,,,,,,,,,,,,,,,,,,,,,628.0655149000231,None,378.9291416275994,-6.0,4.110966093181886e-05,0,"[0.6259498120575139, 0.6259498120575139, 0.6259498120575139, 0.6259498120575139]","[150.37812951026456, 189.46457081379972, 238.71040097760408, 300.75625902052906]",Major_3rd,"[15.17756756333614, 12.854184084946422, 9.725788110567924, 7.0]",False,629.1316353000002,632.0527909999946,632.0527909999946,633.2781332000159,None,0,,3.512208779924549,4.5160363799659535,None,1,None,1,,,,,,,,,,,,,tlvjds,001,fr,0,0,2022-05-06_11h58.32.052,Cluster,2022.1.1,36.03090732281718,
,,,,3,0,3,0,15,0,15,0,,,none,,,,,,,,,,,,,,,,,,,,,,,,,,,,,,,,,,,,,,,,,,,,,,,,,,,,,,,,,,,,,,,,,,,,,,,,,,,,,,,,,,,,,,,,,,,,,,,,,,,,,,,,,,,,,,,,,,,633.7004143999657,None,164.93848884661182,2.0,0.0004949282200622958,1,"[0.5058927653378339, 0.5867916872174477, 0.4341725290110881, 0.5865774735231488]","[473.90212072571325, 1631.2196038549669, 939.9977726427252, 506.7711486947238]",None,"[7.683408614321836, 6.621660076540737, 9.055491067398357, 8.073907754869992]",False,634.7080665000249,637.2670691999374,637.2670691999374,638.4962583000306,['space'],1,[0.4167455000570044],3.1188977197743952,4.128579219803214,None,1,None,1,,,,,,,,,,,,,tlvjds,001,fr,0,0,2022-05-06_11h58.32.052,Cluster,2022.1.1,36.03090732281718,
,,,,3,0,3,0,16,0,16,0,,,both,,,,,,,,,,,,,,,,,,,,,,,,,,,,,,,,,,,,,,,,,,,,,,,,,,,,,,,,,,,,,,,,,,,,,,,,,,,,,,,,,,,,,,,,,,,,,,,,,,,,,,,,,,,,,,,,,,,638.8894634000026,None,,,,,"[0.4071648076071731, 0.4071648076071731, 0.4071648076071731, 0.4071648076071731]","[179.8452801006989, 269.46345591774616, 403.7390029612068, 604.9250053479116]",Perfect_5th,"[13.797039980076061, 7.9447353217809225, 6.883827048893163, 8.683221070112829]",True,639.8803243000293,642.1156271999935,642.1156271999935,643.3253970999504,None,1,,2.660020419745706,3.684496119734831,None,1,None,1,0,,,,,,,,,,,,tlvjds,001,fr,0,0,2022-05-06_11h58.32.052,Cluster,2022.1.1,36.03090732281718,
,,,,3,0,3,0,17,0,17,0,,,both,,,,,,,,,,,,,,,,,,,,,,,,,,,,,,,,,,,,,,,,,,,,,,,,,,,,,,,,,,,,,,,,,,,,,,,,,,,,,,,,,,,,,,,,,,,,,,,,,,,,,,,,,,,,,,,,,,,643.5976437999634,None,2751.7898140638304,-2.811471416817251,5.0823329676672224e-05,1,"[0.4888021980731393, 0.4888021980731393, 0.4888021980731393, 0.4888021980731393]","[1092.0485114100754, 1375.8949070319156, 1733.51895581266, 2184.0970228201504]",Major_3rd,"[9.341844895661215, 8.202742051541081, 5.797861461966059, 4.0]",False,644.5982105999719,647.0993468000088,647.0993468000088,648.3006975000026,['space'],1,[0.3452727000694722],2.9802962199319154,4.002182319876738,None,1,None,1,,,,,,,,,,,,,tlvjds,001,fr,0,0,2022-05-06_11h58.32.052,Cluster,2022.1.1,36.03090732281718,
,,,,3,0,3,0,18,0,18,0,,,both,,,,,,,,,,,,,,,,,,,,,,,,,,,,,,,,,,,,,,,,,,,,,,,,,,,,,,,,,,,,,,,,,,,,,,,,,,,,,,,,,,,,,,,,,,,,,,,,,,,,,,,,,,,,,,,,,,,648.6419839999871,None,125.0,-1.0,0.000644124775846567,0,"[0.6599617011036429, 0.6599617011036429, 0.6599617011036429, 0.6599617011036429]","[198.42513149602502, 176.77669529663694, 157.49013123685918, 140.30775603867164]",Tone,"[12.0, 13.797039980076061, 15.0, 15.506687383192702]",False,652.392751700012,655.3996178000234,655.3996178000234,656.6135208000196,None,0,,3.6477878390578553,4.651900039054453,None,1,None,1,,,,,,,,,,,,,tlvjds,001,fr,0,0,2022-05-06_11h58.32.052,Cluster,2022.1.1,36.03090732281718,
,,,,3,0,3,0,19,0,19,0,,,none,,,,,,,,,,,,,,,,,,,,,,,,,,,,,,,,,,,,,,,,,,,,,,,,,,,,,,,,,,,,,,,,,,,,,,,,,,,,,,,,,,,,,,,,,,,,,,,,,,,,,,,,,,,,,,,,,,,657.095572900027,None,671.631459013056,2.7114728918216002,6.492232913585063e-05,1,"[0.6545979918850401, 0.6294431442889099, 0.6581641210292775, 0.46661626129326644]","[3220.845673009545, 1882.1737890594654, 5591.768145741726, 1230.4576407409318]",None,"[2.2095652480986097, 5.0, -0.4874407955257025, 9.167649185974707]",False,658.1118935999693,661.0582456999691,661.0582456999691,662.2593876000028,['space'],1,[0.3276641999837011],3.437526019872166,4.447314419900067,None,1,None,1,,,,,,,,,,,,,tlvjds,001,fr,0,0,2022-05-06_11h58.32.052,Cluster,2022.1.1,36.03090732281718,
,,,,4,0,4,0,0,0,0,0,,,frequency,,,,,,,,,,,,,,,,,,,,,,,,,,,,,,,,,,,,,,,,,,,,,,,,,,,,,,,,,,,,,,,,,,,,,,,,,,,,,,,,,,,,,,,,,,,,,,,,,,,,,,,,,,,,,,,,,,,723.1770331000444,None,1013.0649051621486,3.2255934820561585,6.465526991002013e-05,1,"[0.7820627470272625, 0.4288594676979476, 0.6827054699948529, 0.573285306260964]","[1608.140296166459, 1432.690128444524, 1276.3817989235445, 1137.1269085186461]",Tone,"[6.621660076540737, 8.0, 9.0, 9.34146993684537]",False,724.1663726000115,727.0862235999666,727.0862235999666,728.2996175999288,['space'],1,[0.24275959993246943],3.514481919934042,4.517998919822276,None,1,None,1,,,,,,,,,,,,,tlvjds,001,fr,0,0,2022-05-06_11h58.32.052,Cluster,2022.1.1,36.03090732281718,
,,,,4,0,4,0,1,0,1,0,,,none,,,,,,,,,,,,,,,,,,,,,,,,,,,,,,,,,,,,,,,,,,,,,,,,,,,,,,,,,,,,,,,,,,,,,,,,,,,,,,,,,,,,,,,,,,,,,,,,,,,,,,,,,,,,,,,,,,,728.7301391999936,None,125.0,1.0,0.0008109050486794653,0,"[0.42805476976521506, 0.5611794714711339, 0.758953915458133, 0.5953516511228226]","[1596.3480841450864, 608.9749072155362, 1578.9368454030082, 389.3915227770396]",None,"[7.0, 8.683221070112829, 7.0, 6.59878515438321]",False,729.762241999968,732.5444092999678,732.5444092999678,733.7642214000225,None,0,,3.3600589198758826,4.368304919800721,None,1,None,1,,,,,,,,,,,,,tlvjds,001,fr,0,0,2022-05-06_11h58.32.052,Cluster,2022.1.1,36.03090732281718,
,,,,4,0,4,0,2,0,2,0,,,frequency,,,,,,,,,,,,,,,,,,,,,,,,,,,,,,,,,,,,,,,,,,,,,,,,,,,,,,,,,,,,,,,,,,,,,,,,,,,,,,,,,,,,,,,,,,,,,,,,,,,,,,,,,,,,,,,,,,,734.1800491999602,None,,,,,"[0.45199787540564246, 0.6793472051801256, 0.7219476984605118, 0.6784934872198369]","[3876.4524512355106, 4351.170758587701, 4884.0240422281995, 5482.131630431689]",Tone,"[0.3021827262870165, -0.15399378487551196, -0.5432522364856851, -0.4874407955257025]",True,735.1910241999431,738.0850069000153,738.0850069000153,739.2915391999995,None,1,,3.5780218199361116,4.5990319199627265,None,1,None,1,0,,,,,,,,,,,,tlvjds,001,fr,0,0,2022-05-06_11h58.32.052,Cluster,2022.1.1,36.03090732281718,
,,,,4,0,4,0,3,0,3,0,,,time,,,,,,,,,,,,,,,,,,,,,,,,,,,,,,,,,,,,,,,,,,,,,,,,,,,,,,,,,,,,,,,,,,,,,,,,,,,,,,,,,,,,,,,,,,,,,,,,,,,,,,,,,,,,,,,,,,,739.8263979000039,None,125.0,0.0,0.000722719885372964,0,"[0.45581169407033423, 0.45581169407033423, 0.45581169407033423, 0.45581169407033423]","[2427.1695723127095, 1328.823655135373, 3820.04145206731, 1929.8628865708415]",None,"[3.6605625063632186, 8.781215544860745, 0.8894975793907616, 5.0]",False,740.8531535000075,743.2586508999811,743.2586508999811,744.4720780999633,None,0,,2.8414323199540377,3.846267719869502,None,1,None,1,,,,,,,,,,,,,tlvjds,001,fr,0,0,2022-05-06_11h58.32.052,Cluster,2022.1.1,36.03090732281718,
,,,,4,0,4,0,4,0,4,0,,,time,,,,,,,,,,,,,,,,,,,,,,,,,,,,,,,,,,,,,,,,,,,,,,,,,,,,,,,,,,,,,,,,,,,,,,,,,,,,,,,,,,,,,,,,,,,,,,,,,,,,,,,,,,,,,,,,,,,744.7474572999636,None,2025.97704892059,-1.5013815881531598,6.342069127790062e-05,1,"[0.5939467303244332, 0.5939467303244332, 0.5939467303244332, 0.5939467303244332]","[3384.0425445822334, 5188.831353206611, 208.87619293849338, 5529.3070468269325]",None,"[2.0, -0.541673177568244, 11.0, -0.4874407955257025]",False,745.7653865999309,748.5838947000448,748.5838947000448,749.7874791999348,['space'],1,[0.23034430004190654],3.4152416199212894,4.437897919910029,None,1,None,1,,,,,,,,,,,,,tlvjds,001,fr,0,0,2022-05-06_11h58.32.052,Cluster,2022.1.1,36.03090732281718,
,,,,4,0,4,0,5,0,5,0,,,time,,,,,,,,,,,,,,,,,,,,,,,,,,,,,,,,,,,,,,,,,,,,,,,,,,,,,,,,,,,,,,,,,,,,,,,,,,,,,,,,,,,,,,,,,,,,,,,,,,,,,,,,,,,,,,,,,,,750.2429600999458,None,707.1067811865476,-2.0,3.527051522850936e-05,1,"[0.46430627215278675, 0.46430627215278675, 0.46430627215278675, 0.46430627215278675]","[186.71994024514828, 4553.1742034351855, 7423.8689714238535, 3854.748133209476]",None,"[13.0, -0.4302768951686673, -0.4082478628706969, 0.8894975793907616]",False,753.6387488000328,756.0603601000039,756.0603601000039,757.2737132000038,['space'],1,[0.4195740999421105],2.907967579201795,3.9374912792118266,None,1,None,1,,,,,,,,,,,,,tlvjds,001,fr,0,0,2022-05-06_11h58.32.052,Cluster,2022.1.1,36.03090732281718,
,,,,4,0,4,0,6,0,6,0,,,time,,,,,,,,,,,,,,,,,,,,,,,,,,,,,,,,,,,,,,,,,,,,,,,,,,,,,,,,,,,,,,,,,,,,,,,,,,,,,,,,,,,,,,,,,,,,,,,,,,,,,,,,,,,,,,,,,,,757.6113586999709,None,,,,,"[0.7917970573572136, 0.7917970573572136, 0.7917970573572136, 0.7917970573572136]","[286.0838445194449, 276.70576230505867, 7264.2849812537825, 211.4544366346611]",None,"[7.280458301908395, 7.9447353217809225, -0.4082478628706969, 11.0]",True,758.625516799977,762.0159345000284,762.0159345000284,763.2216490999563,None,1,,4.194966619950719,5.218654119991697,None,1,None,1,0,,,,,,,,,,,,tlvjds,001,fr,0,0,2022-05-06_11h58.32.052,Cluster,2022.1.1,36.03090732281718,
,,,,4,0,4,0,7,0,7,0,,,both,,,,,,,,,,,,,,,,,,,,,,,,,,,,,,,,,,,,,,,,,,,,,,,,,,,,,,,,,,,,,,,,,,,,,,,,,,,,,,,,,,,,,,,,,,,,,,,,,,,,,,,,,,,,,,,,,,,763.878539999947,None,774.9857178115977,2.7176398642254234,5.401806227909776e-05,1,"[0.6117812322717273, 0.6117812322717273, 0.6117812322717273, 0.6117812322717273]","[3905.683276954881, 2606.7308479223975, 1739.7841124506315, 1161.1665854754717]",Perfect_5th,"[0.3021827262870165, 3.470049290367114, 5.797861461966059, 9.34146993684537]",False,764.8994068999309,767.7719772999408,767.7719772999408,768.9809448999586,['space'],1,[0.3501509999623522],3.493307319935411,4.522290919907391,None,1,None,1,,,,,,,,,,,,,tlvjds,001,fr,0,0,2022-05-06_11h58.32.052,Cluster,2022.1.1,36.03090732281718,
,,,,4,0,4,0,8,0,8,0,,,time,,,,,,,,,,,,,,,,,,,,,,,,,,,,,,,,,,,,,,,,,,,,,,,,,,,,,,,,,,,,,,,,,,,,,,,,,,,,,,,,,,,,,,,,,,,,,,,,,,,,,,,,,,,,,,,,,,,769.4704082999378,None,1810.1927905920502,-0.9256381222171487,5.954531307015019e-05,1,"[0.7688719373132836, 0.7688719373132836, 0.7688719373132836, 0.7688719373132836]","[289.248460036946, 312.10222884059345, 680.220545909501, 942.0985079291112]",None,"[7.280458301908395, 6.797557276678826, 8.7114728918216, 9.055491067398357]",False,770.4872284999583,773.8231395999901,773.8231395999901,775.0559566000011,['space'],1,[0.30581089993938804],4.107064219773747,5.124909219797701,None,1,None,1,,,,,,,,,,,,,tlvjds,001,fr,0,0,2022-05-06_11h58.32.052,Cluster,2022.1.1,36.03090732281718,
,,,,4,0,4,0,9,0,9,0,,,frequency,,,,,,,,,,,,,,,,,,,,,,,,,,,,,,,,,,,,,,,,,,,,,,,,,,,,,,,,,,,,,,,,,,,,,,,,,,,,,,,,,,,,,,,,,,,,,,,,,,,,,,,,,,,,,,,,,,,775.6542864999501,None,406.12619817811805,-5.0,4.2873658564129765e-05,0,"[0.7639428796454062, 0.5834030915482787, 0.5808194018788418, 0.6098357469294382]","[644.6851542197901, 574.349177498518, 511.68694599838784, 455.86124427910875]",Tone,"[8.7114728918216, 8.582078609430688, 8.073907754869992, 7.683408614321836]",False,776.6884378000395,779.6516282999655,779.6516282999655,780.8692646999843,None,0,,3.566181519883685,4.581148919882253,None,1,None,1,,,,,,,,,,,,,tlvjds,001,fr,0,0,2022-05-06_11h58.32.052,Cluster,2022.1.1,36.03090732281718,
,,,,4,0,4,0,10,0,10,0,,,time,,,,,,,,,,,,,,,,,,,,,,,,,,,,,,,,,,,,,,,,,,,,,,,,,,,,,,,,,,,,,,,,,,,,,,,,,,,,,,,,,,,,,,,,,,,,,,,,,,,,,,,,,,,,,,,,,,,781.3237515999936,None,435.2752816480623,-4.0,4.716527343053582e-05,0,"[0.6945615537923815, 0.6945615537923815, 0.6945615537923815, 0.6945615537923815]","[407.09138583871226, 697.3800862878559, 438.06047386283325, 7735.377972141285]",None,"[6.883827048893163, 8.708224822513255, 7.272468950205591, -0.32769683202992184]",False,782.359625000041,785.4634780000197,785.4634780000197,786.6678268000251,None,0,,3.7957079198677093,4.82444901985582,None,1,['space'],0,,[0.5188226000173017],,,,,,,,,,,tlvjds,001,fr,0,0,2022-05-06_11h58.32.052,Cluster,2022.1.1,36.03090732281718,
,,,,4,0,4,0,11,0,11,0,,,none,,,,,,,,,,,,,,,,,,,,,,,,,,,,,,,,,,,,,,,,,,,,,,,,,,,,,,,,,,,,,,,,,,,,,,,,,,,,,,,,,,,,,,,,,,,,,,,,,,,,,,,,,,,,,,,,,,,787.2386032999493,None,,,,,"[0.7166883350894993, 0.655864205898043, 0.7196446781577486, 0.6098090772359855]","[5939.779860907132, 412.1673820056727, 5647.715410776228, 134.75688291090475]",None,"[-0.43547093715637253, 7.0, -0.4874407955257025, 15.55857510933215]",True,788.2515262999805,791.3755738999462,791.3755738999462,792.5765072000213,None,1,,3.7493351198500022,4.773576619918458,None,1,None,1,0,,,,,,,,,,,,tlvjds,001,fr,0,0,2022-05-06_11h58.32.052,Cluster,2022.1.1,36.03090732281718,
,,,,4,0,4,0,12,0,12,0,,,time,,,,,,,,,,,,,,,,,,,,,,,,,,,,,,,,,,,,,,,,,,,,,,,,,,,,,,,,,,,,,,,,,,,,,,,,,,,,,,,,,,,,,,,,,,,,,,,,,,,,,,,,,,,,,,,,,,,793.0568523999536,None,3189.3412785332293,-3.7904347519013903,4.505802866008807e-05,1,"[0.4661304806996953, 0.4661304806996953, 0.4661304806996953, 0.4661304806996953]","[477.1845869291002, 3277.8877823495873, 4961.692058069588, 5206.872966241101]",None,"[7.683408614321836, 2.2095652480986097, -0.5432522364856851, -0.541673177568244]",False,794.057270099991,796.4852424999699,796.4852424999699,797.7126845000312,['space'],1,[0.3846010999986902],2.9056893199449405,3.9273477199021727,None,1,None,1,,,,,,,,,,,,,tlvjds,001,fr,0,0,2022-05-06_11h58.32.052,Cluster,2022.1.1,36.03090732281718,
,,,,4,0,4,0,13,0,13,0,,,both,,,,,,,,,,,,,,,,,,,,,,,,,,,,,,,,,,,,,,,,,,,,,,,,,,,,,,,,,,,,,,,,,,,,,,,,,,,,,,,,,,,,,,,,,,,,,,,,,,,,,,,,,,,,,,,,,,,798.0301854000427,None,1624.5047927124701,-3.0,4.095962509705186e-05,1,"[0.5148325632461929, 0.5148325632461929, 0.5148325632461929, 0.5148325632461929]","[4093.4955679870973, 3249.0095854249403, 2578.7406168791567, 2046.7477839935486]",Major_3rd,"[0.3021827262870165, 2.2095652480986097, 3.470049290367114, 4.49861841184684]",False,799.0573759999825,801.630010599969,801.630010599969,802.8528625000035,['space'],1,[0.1556222999934107],3.082425919827074,4.085016919882037,None,1,None,1,,,,,,,,,,,,,tlvjds,001,fr,0,0,2022-05-06_11h58.32.052,Cluster,2022.1.1,36.03090732281718,
,,,,4,0,4,0,14,0,14,0,,,frequency,,,,,,,,,,,,,,,,,,,,,,,,,,,,,,,,,,,,,,,,,,,,,,,,,,,,,,,,,,,,,,,,,,,,,,,,,,,,,,,,,,,,,,,,,,,,,,,,,,,,,,,,,,,,,,,,,,,803.1912120999768,None,775.0957526656134,2.7176398642254234,5.4011221147831115e-05,1,"[0.5695604681595676, 0.5486508907423542, 0.645809605973984, 0.6648669182486269]","[488.27972723375825, 548.0754627787462, 615.193906578739, 690.5318124858164]",Tone,"[8.0, 8.38159537766056, 8.683221070112829, 8.708224822513255]",False,804.1829893999966,806.9800099999411,806.9800099999411,808.1983377999859,['space'],1,[0.2993068000068888],3.4569364198250696,4.464037519879639,None,1,None,1,,,,,,,,,,,,,tlvjds,001,fr,0,0,2022-05-06_11h58.32.052,Cluster,2022.1.1,36.03090732281718,
,,,,4,0,4,0,15,0,15,0,,,time,,,,,,,,,,,,,,,,,,,,,,,,,,,,,,,,,,,,,,,,,,,,,,,,,,,,,,,,,,,,,,,,,,,,,,,,,,,,,,,,,,,,,,,,,,,,,,,,,,,,,,,,,,,,,,,,,,,808.6894170000451,None,125.0,7.0,0.0016179682846481417,1,"[0.5631535152931324, 0.5631535152931324, 0.5631535152931324, 0.5631535152931324]","[434.6876327283313, 957.2148423458518, 3143.935757357729, 2014.4381713071775]",None,"[7.272468950205591, 9.055491067398357, 2.2095652480986097, 4.49861841184684]",False,809.7670064000413,812.4799246999901,812.4799246999901,813.7084074999439,['space'],1,[0.49821590003557503],3.29590835981071,4.303662559832446,None,1,None,1,,,,,,,,,,,,,tlvjds,001,fr,0,0,2022-05-06_11h58.32.052,Cluster,2022.1.1,36.03090732281718,
,,,,4,0,4,0,16,0,16,0,,,time,,,,,,,,,,,,,,,,,,,,,,,,,,,,,,,,,,,,,,,,,,,,,,,,,,,,,,,,,,,,,,,,,,,,,,,,,,,,,,,,,,,,,,,,,,,,,,,,,,,,,,,,,,,,,,,,,,,814.0996756999521,None,2509.3235843464854,-2.3394374936367814,6.517165223831116e-05,1,"[0.7712527845742366, 0.7712527845742366, 0.7712527845742366, 0.7712527845742366]","[3355.0513950176546, 664.0745105556238, 6927.279083269541, 1655.8769523258775]",None,"[2.0, 8.7114728918216, -0.41829779965109815, 6.621660076540737]",False,815.0970018999651,818.441527799936,818.441527799936,819.6474079999607,['space'],1,[0.8006034999853],4.106284719891846,5.112936219898984,None,1,None,1,,,,,,,,,,,,,tlvjds,001,fr,0,0,2022-05-06_11h58.32.052,Cluster,2022.1.1,36.03090732281718,
,,,,4,0,4,0,17,0,17,0,,,frequency,,,,,,,,,,,,,,,,,,,,,,,,,,,,,,,,,,,,,,,,,,,,,,,,,,,,,,,,,,,,,,,,,,,,,,,,,,,,,,,,,,,,,,,,,,,,,,,,,,,,,,,,,,,,,,,,,,,820.2559314999962,None,8000.0,-5.0,0.00010208689723347648,1,"[0.6385137760556587, 0.5502543222551515, 0.4846982245098232, 0.7188208173976416]","[5039.684199579492, 5656.8542494923795, 6349.604207872798, 7127.189745122714]",Tone,"[-0.5432522364856851, -0.4874407955257025, -0.4145697355470386, -0.41829779965109815]",False,821.2850704999873,823.9763525000308,823.9763525000308,825.2085744999349,['space'],1,[0.44420899997930974],3.412241719895974,4.427359019871801,None,1,None,1,,,,,,,,,,,,,tlvjds,001,fr,0,0,2022-05-06_11h58.32.052,Cluster,2022.1.1,36.03090732281718,
,,,,4,0,4,0,18,0,18,0,,,both,,,,,,,,,,,,,,,,,,,,,,,,,,,,,,,,,,,,,,,,,,,,,,,,,,,,,,,,,,,,,,,,,,,,,,,,,,,,,,,,,,,,,,,,,,,,,,,,,,,,,,,,,,,,,,,,,,,825.761892999988,None,4130.028091933399,-6.0,4.6553725902035184e-05,1,"[0.7427450807387825, 0.7427450807387825, 0.7427450807387825, 0.7427450807387825]","[6556.010937793294, 5840.74174059409, 5203.509329684049, 4635.799791646815]",Tone,"[-0.4145697355470386, -0.4874407955257025, -0.541673177568244, -0.4302768951686673]",False,826.7608716000104,830.0146095999517,830.0146095999517,831.226873400039,['space'],1,[0.24738120008260012],4.02044561994262,5.0292661199346185,None,1,None,1,,,,,,,,,,,,,tlvjds,001,fr,0,0,2022-05-06_11h58.32.052,Cluster,2022.1.1,36.03090732281718,
,,,,4,0,4,0,19,0,19,0,,,none,,,,,,,,,,,,,,,,,,,,,,,,,,,,,,,,,,,,,,,,,,,,,,,,,,,,,,,,,,,,,,,,,,,,,,,,,,,,,,,,,,,,,,,,,,,,,,,,,,,,,,,,,,,,,,,,,,,831.8343410999514,None,1086.1495436308699,3.3418448956612137,7.001777315364927e-05,1,"[0.6585100426494183, 0.640595230604291, 0.7789149675265229, 0.4803064045356891]","[1210.8010996524774, 477.7181876502383, 332.055536616079, 732.3077042800951]",None,"[9.167649185974707, 7.683408614321836, 6.529146053103162, 8.708224822513255]",False,832.8339053000091,835.9535701000132,835.9535701000132,837.1572345999302,['space'],1,[0.4376902999356389],3.5814287200337276,4.6002664199331775,None,1,None,1,,,,,,,,,,,,,tlvjds,001,fr,0,0,2022-05-06_11h58.32.052,Cluster,2022.1.1,36.03090732281718,
,,,,5,0,5,0,0,0,0,0,,,frequency,,,,,,,,,,,,,,,,,,,,,,,,,,,,,,,,,,,,,,,,,,,,,,,,,,,,,,,,,,,,,,,,,,,,,,,,,,,,,,,,,,,,,,,,,,,,,,,,,,,,,,,,,,,,,,,,,,,969.4272473999299,None,,,,,"[0.6676131229132916, 0.5259145276335676, 0.5701254086923669, 0.5208004031715621]","[916.9865029489027, 612.0150649361016, 408.471050014585, 272.6217184170747]",Perfect_5th,"[9.0, 8.683221070112829, 6.883827048893163, 7.9447353217809225]",True,970.4195164999692,973.2177928999299,973.2177928999299,974.4257876999909,None,1,,3.32315761980135,4.365176719729789,None,1,None,1,0,,,,,,,,,,,,tlvjds,001,fr,0,0,2022-05-06_11h58.32.052,Cluster,2022.1.1,36.03090732281718,
,,,,5,0,5,0,1,0,1,0,,,both,,,,,,,,,,,,,,,,,,,,,,,,,,,,,,,,,,,,,,,,,,,,,,,,,,,,,,,,,,,,,,,,,,,,,,,,,,,,,,,,,,,,,,,,,,,,,,,,,,,,,,,,,,,,,,,,,,,974.8267147999723,None,574.3491774985172,-4.0,3.7760398549436506e-05,1,"[0.7531265685120105, 0.7531265685120105, 0.7531265685120105, 0.7531265685120105]","[911.7224885582166, 812.2523963562353, 723.6346187201888, 644.6851542197893]",Tone,"[9.0, 8.773628846204765, 8.708224822513255, 8.7114728918216]",False,975.8573973999592,979.1465164000401,979.1465164000401,980.372919699992,['space'],1,[0.28422600007615983],4.023738119984046,5.028138119960204,None,1,None,1,,,,,,,,,,,,,tlvjds,001,fr,0,0,2022-05-06_11h58.32.052,Cluster,2022.1.1,36.03090732281718,
,,,,5,0,5,0,2,0,2,0,,,none,,,,,,,,,,,,,,,,,,,,,,,,,,,,,,,,,,,,,,,,,,,,,,,,,,,,,,,,,,,,,,,,,,,,,,,,,,,,,,,,,,,,,,,,,,,,,,,,,,,,,,,,,,,,,,,,,,,980.9441492999904,None,406.12619817811805,-6.0,3.821118841650656e-05,0,"[0.645917040860346, 0.710465890786119, 0.4530845809470941, 0.4591703519028576]","[900.839185589426, 2756.1142431298954, 1577.6360351634307, 802.0278973976607]",None,"[9.0, 3.188528583182749, 7.0, 8.773628846204765]",False,981.9486995999468,984.7834108000388,984.7834108000388,985.9898150999798,None,0,,3.275177219766192,4.291814219788648,None,1,None,1,,,,,,,,,,,,,tlvjds,001,fr,0,0,2022-05-06_11h58.32.052,Cluster,2022.1.1,36.03090732281718,
,,,,5,0,5,0,3,0,3,0,,,time,,,,,,,,,,,,,,,,,,,,,,,,,,,,,,,,,,,,,,,,,,,,,,,,,,,,,,,,,,,,,,,,,,,,,,,,,,,,,,,,,,,,,,,,,,,,,,,,,,,,,,,,,,,,,,,,,,,986.2946967999451,None,8000.0,-1.0,0.00016179682846481421,1,"[0.7028041134005063, 0.7028041134005063, 0.7028041134005063, 0.7028041134005063]","[3471.2532514344302, 258.948617414275, 6206.0359399690815, 215.459056432646]",None,"[1.5553021726140503, 8.0, -0.43547093715637253, 11.0]",False,987.3258187000174,990.461558299954,990.461558299954,991.6738288999768,['space'],1,[0.18678789993282408],3.830590719822794,4.864561819820665,None,1,None,1,,,,,,,,,,,,,tlvjds,001,fr,0,0,2022-05-06_11h58.32.052,Cluster,2022.1.1,36.03090732281718,
,,,,5,0,5,0,4,0,4,0,,,frequency,,,,,,,,,,,,,,,,,,,,,,,,,,,,,,,,,,,,,,,,,,,,,,,,,,,,,,,,,,,,,,,,,,,,,,,,,,,,,,,,,,,,,,,,,,,,,,,,,,,,,,,,,,,,,,,,,,,992.2532255999977,None,,,,,"[0.5070723644610289, 0.5490855655308683, 0.49808843083851756, 0.6182537757062002]","[1238.4784619879008, 1390.145071229981, 1560.385084099984, 1751.4730376502612]",Tone,"[9.167649185974707, 8.202742051541081, 7.0, 5.797861461966059]",True,993.2599189999746,995.8383763999445,995.8383763999445,997.0716737000039,None,1,,3.2232051198370755,4.244434319785796,None,1,None,1,0,,,,,,,,,,,,tlvjds,001,fr,0,0,2022-05-06_11h58.32.052,Cluster,2022.1.1,36.03090732281718,
,,,,5,0,5,0,5,0,5,0,,,both,,,,,,,,,,,,,,,,,,,,,,,,,,,,,,,,,,,,,,,,,,,,,,,,,,,,,,,,,,,,,,,,,,,,,,,,,,,,,,,,,,,,,,,,,,,,,,,,,,,,,,,,,,,,,,,,,,,997.5458490999881,None,202.51307923378948,5.820817285616163,0.0005091897316755523,0,"[0.42831532982686255, 0.42831532982686255, 0.42831532982686255, 0.42831532982686255]","[127.57524570283984, 143.19837160518114, 160.73473750651837, 180.41864269603602]",Tone,"[15.329490798789571, 15.506687383192702, 15.0, 13.797039980076061]",False,998.5617676000111,1000.8666560000274,1000.8666560000274,1002.0683931999374,None,0,,2.761554519762285,3.7766553197288886,None,1,None,1,,,,,,,,,,,,,tlvjds,001,fr,0,0,2022-05-06_11h58.32.052,Cluster,2022.1.1,36.03090732281718,
,,,,5,0,5,0,6,0,6,0,,,both,,,,,,,,,,,,,,,,,,,,,,,,,,,,,,,,,,,,,,,,,,,,,,,,,,,,,,,,,,,,,,,,,,,,,,,,,,,,,,,,,,,,,,,,,,,,,,,,,,,,,,,,,,,,,,,,,,,1002.390962000005,None,125.0,7.0,0.0016179682846481417,1,"[0.4804146449911175, 0.4804146449911175, 0.4804146449911175, 0.4804146449911175]","[198.42513149602502, 176.77669529663694, 157.49013123685918, 140.30775603867164]",Tone,"[12.0, 13.797039980076061, 15.0, 15.506687383192702]",False,1005.4821598000126,1007.9410992999328,1007.9410992999328,1009.1531162000028,['space'],1,[0.27504019998013973],2.9527929193573073,3.9566111193271354,None,1,None,1,,,,,,,,,,,,,tlvjds,001,fr,0,0,2022-05-06_11h58.32.052,Cluster,2022.1.1,36.03090732281718,
,,,,5,0,5,0,7,0,7,0,,,time,,,,,,,,,,,,,,,,,,,,,,,,,,,,,,,,,,,,,,,,,,,,,,,,,,,,,,,,,,,,,,,,,,,,,,,,,,,,,,,,,,,,,,,,,,,,,,,,,,,,,,,,,,,,,,,,,,,1009.4879473999608,None,4926.591723449069,-6.543252236485685,6.953501978262109e-05,1,"[0.4922194634322008, 0.4922194634322008, 0.4922194634322008, 0.4922194634322008]","[1967.3508645678753, 1301.5175197921214, 615.3063503003426, 1078.4677616187732]",None,"[4.49861841184684, 8.781215544860745, 8.683221070112829, 9.341844895661215]",False,1010.4932266999967,1013.0154756000265,1013.0154756000265,1014.2118579000235,['space'],1,[0.3347255999688059],3.000888319686055,4.026096019661054,None,1,None,1,,,,,,,,,,,,,tlvjds,001,fr,0,0,2022-05-06_11h58.32.052,Cluster,2022.1.1,36.03090732281718,
,,,,5,0,5,0,8,0,8,0,,,none,,,,,,,,,,,,,,,,,,,,,,,,,,,,,,,,,,,,,,,,,,,,,,,,,,,,,,,,,,,,,,,,,,,,,,,,,,,,,,,,,,,,,,,,,,,,,,,,,,,,,,,,,,,,,,,,,,,1014.5652525000041,None,,,,,"[0.4833703226609661, 0.6420166948379756, 0.7684388901411501, 0.7656954082210703]","[4098.905989222092, 740.4167184501466, 362.67563470738634, 7726.402895469488]",None,"[0.0, 8.717639864225424, 6.469206311410494, -0.4082478628706969]",True,1015.567460799939,1018.4935740999645,1018.4935740999645,1019.712941500009,['space'],0,[0.17051049997098744],3.7035263198195025,4.732713019824587,None,1,None,1,0,,,,,,,,,,,,tlvjds,001,fr,0,0,2022-05-06_11h58.32.052,Cluster,2022.1.1,36.03090732281718,
,,,,5,0,5,0,9,0,9,0,,,frequency,,,,,,,,,,,,,,,,,,,,,,,,,,,,,,,,,,,,,,,,,,,,,,,,,,,,,,,,,,,,,,,,,,,,,,,,,,,,,,,,,,,,,,,,,,,,,,,,,,,,,,,,,,,,,,,,,,,1020.3365350000095,None,3049.8833468817447,-3.2380100903502367,4.1014947083768415e-05,1,"[0.5652601131911077, 0.6826372827729891, 0.5136603928412531, 0.6644795595267527]","[1921.3061142300687, 2156.593196408005, 2420.694016610187, 2717.137164214514]",Tone,"[5.0, 4.102496813092523, 3.6605625063632186, 3.470049290367114]",False,1021.353732699994,1024.1275801999727,1024.1275801999727,1025.340224299929,['space'],1,[0.3210967000341043],3.4654439199948683,4.487174619920552,None,1,None,1,,,,,,,,,,,,,tlvjds,001,fr,0,0,2022-05-06_11h58.32.052,Cluster,2022.1.1,36.03090732281718,
,,,,5,0,5,0,10,0,10,0,,,both,,,,,,,,,,,,,,,,,,,,,,,,,,,,,,,,,,,,,,,,,,,,,,,,,,,,,,,,,,,,,,,,,,,,,,,,,,,,,,,,,,,,,,,,,,,,,,,,,,,,,,,,,,,,,,,,,,,1025.883283299976,None,1686.5496991699308,0.0,6.065852844252085e-05,1,"[0.5055895339997813, 0.5055895339997813, 0.5055895339997813, 0.5055895339997813]","[669.3076916647499, 843.2748495849656, 1062.459733839031, 1338.6153833294993]",Major_3rd,"[8.7114728918216, 8.890123896236423, 9.341844895661215, 8.781215544860745]",False,1026.8953471999848,1029.431816700031,1029.431816700031,1030.643552399939,['space'],1,[0.3693312000250444],3.0440438200021163,4.052579819923267,None,1,None,1,,,,,,,,,,,,,tlvjds,001,fr,0,0,2022-05-06_11h58.32.052,Cluster,2022.1.1,36.03090732281718,
,,,,5,0,5,0,11,0,11,0,,,time,,,,,,,,,,,,,,,,,,,,,,,,,,,,,,,,,,,,,,,,,,,,,,,,,,,,,,,,,,,,,,,,,,,,,,,,,,,,,,,,,,,,,,,,,,,,,,,,,,,,,,,,,,,,,,,,,,,1030.990316499956,None,217.63764082403114,-4.0,0.00014567967910578282,0,"[0.6760847162522357, 0.6760847162522357, 0.6760847162522357, 0.6760847162522357]","[2792.471302593301, 160.09441393617317, 462.4866391141561, 1628.1960852841837]",None,"[3.188528583182749, 15.0, 7.683408614321836, 6.621660076540737]",False,1032.0181551999412,1035.0820709000109,1035.0820709000109,1036.2862564999377,None,0,,3.7378721197601408,4.756827019737102,None,1,None,1,,,,,,,,,,,,,tlvjds,001,fr,0,0,2022-05-06_11h58.32.052,Cluster,2022.1.1,36.03090732281718,
,,,,5,0,5,0,12,0,12,0,,,both,,,,,,,,,,,,,,,,,,,,,,,,,,,,,,,,,,,,,,,,,,,,,,,,,,,,,,,,,,,,,,,,,,,,,,,,,,,,,,,,,,,,,,,,,,,,,,,,,,,,,,,,,,,,,,,,,,,1036.828909700038,None,250.0,-2.0,0.0001330362529899405,1,"[0.6976229398659206, 0.6976229398659206, 0.6976229398659206, 0.6976229398659206]","[629.9605249474366, 500.00000000000006, 396.8502629920499, 314.9802624737183]",Major_3rd,"[8.683221070112829, 8.073907754869992, 6.883827048893163, 6.797557276678826]",False,1037.8538131000241,1040.9825080999872,1040.9825080999872,1042.211072599981,['space'],1,[0.19748460000846535],3.826503119780682,4.849201619741507,None,1,None,1,,,,,,,,,,,,,tlvjds,001,fr,0,0,2022-05-06_11h58.32.052,Cluster,2022.1.1,36.03090732281718,
,,,,5,0,5,0,13,0,13,0,,,both,,,,,,,,,,,,,,,,,,,,,,,,,,,,,,,,,,,,,,,,,,,,,,,,,,,,,,,,,,,,,,,,,,,,,,,,,,,,,,,,,,,,,,,,,,,,,,,,,,,,,,,,,,,,,,,,,,,1042.7474996999372,None,,,,,"[0.7571788254004881, 0.7571788254004881, 0.7571788254004881, 0.7571788254004881]","[944.3174123253192, 630.2562584792767, 420.64558607911454, 280.74724638955695]",Perfect_5th,"[9.055491067398357, 8.683221070112829, 7.0, 7.280458301908395]",True,1043.7427471999545,1047.049479600042,1047.049479600042,1048.2593701999867,['space'],0,[0.5516771998954937],4.075071919825859,5.10099351988174,None,1,None,1,0,,,,,,,,,,,,tlvjds,001,fr,0,0,2022-05-06_11h58.32.052,Cluster,2022.1.1,36.03090732281718,
,,,,5,0,5,0,14,0,14,0,,,time,,,,,,,,,,,,,,,,,,,,,,,,,,,,,,,,,,,,,,,,,,,,,,,,,,,,,,,,,,,,,,,,,,,,,,,,,,,,,,,,,,,,,,,,,,,,,,,,,,,,,,,,,,,,,,,,,,,1048.8828935000347,None,4312.640818954023,-6.153993784875512,5.192230659148924e-05,0,"[0.5283805168395372, 0.5283805168395372, 0.5283805168395372, 0.5283805168395372]","[1532.864529598301, 915.5891167291518, 558.7791459820403, 129.30404786939033]",None,"[7.454713098789001, 9.0, 8.582078609430688, 15.329490798789571]",False,1049.882410799968,1052.4827496999642,1052.4827496999642,1053.7046668999828,None,0,,3.138214119942859,4.141180119942874,None,1,['space'],0,,[0.28333979996386915],,,,,,,,,,,tlvjds,001,fr,0,0,2022-05-06_11h58.32.052,Cluster,2022.1.1,36.03090732281718,
,,,,5,0,5,0,15,0,15,0,,,both,,,,,,,,,,,,,,,,,,,,,,,,,,,,,,,,,,,,,,,,,,,,,,,,,,,,,,,,,,,,,,,,,,,,,,,,,,,,,,,,,,,,,,,,,,,,,,,,,,,,,,,,,,,,,,,,,,,1054.0804492000025,None,5842.071801624941,-6.4874407955257025,5.766276963201371e-05,1,"[0.5993634150252367, 0.5993634150252367, 0.5993634150252367, 0.5993634150252367]","[3680.274618932264, 4130.968587107706, 4636.855461786593, 5204.694279351483]",Tone,"[1.0, 0.0, -0.4302768951686673, -0.541673177568244]",False,1055.0940101000015,1057.922247300041,1057.922247300041,1059.1384970999788,['space'],1,[0.30635930004063994],3.434338619816117,4.458498119842261,None,1,None,1,,,,,,,,,,,,,tlvjds,001,fr,0,0,2022-05-06_11h58.32.052,Cluster,2022.1.1,36.03090732281718,
,,,,5,0,5,0,16,0,16,0,,,both,,,,,,,,,,,,,,,,,,,,,,,,,,,,,,,,,,,,,,,,,,,,,,,,,,,,,,,,,,,,,,,,,,,,,,,,,,,,,,,,,,,,,,,,,,,,,,,,,,,,,,,,,,,,,,,,,,,1059.5993029000238,None,176.7766952966369,3.0,0.0004944177713899504,1,"[0.7176512738689403, 0.7176512738689403, 0.7176512738689403, 0.7176512738689403]","[890.8987181403394, 594.6035575013606, 396.8502629920499, 264.86577358982385]",Perfect_5th,"[8.890123896236423, 8.582078609430688, 6.883827048893163, 8.0]",False,1063.118047200027,1066.3060488000046,1066.3060488000046,1067.5156371999765,['space'],1,[0.4403962000505999],3.899806899135001,4.929291899083182,None,1,None,1,,,,,,,,,,,,,tlvjds,001,fr,0,0,2022-05-06_11h58.32.052,Cluster,2022.1.1,36.03090732281718,
,,,,5,0,5,0,17,0,17,0,,,frequency,,,,,,,,,,,,,,,,,,,,,,,,,,,,,,,,,,,,,,,,,,,,,,,,,,,,,,,,,,,,,,,,,,,,,,,,,,,,,,,,,,,,,,,,,,,,,,,,,,,,,,,,,,,,,,,,,,,1068.0868650999619,None,176.7766952966369,-6.0,0.0001754260451641794,1,"[0.5295250255260512, 0.6135499396101631, 0.6710629100903216, 0.5680074116709612]","[445.44935907016975, 353.55339059327383, 280.6155120773433, 222.72467953508485]",Major_3rd,"[7.272468950205591, 6.469206311410494, 7.280458301908395, 10.758907848768903]",False,1069.101222599973,1071.9531477999408,1071.9531477999408,1073.1579581999686,['space'],1,[0.3992877999553457],3.398768019862473,4.404029619763605,None,1,None,1,,,,,,,,,,,,,tlvjds,001,fr,0,0,2022-05-06_11h58.32.052,Cluster,2022.1.1,36.03090732281718,
,,,,5,0,5,0,18,0,18,0,,,frequency,,,,,,,,,,,,,,,,,,,,,,,,,,,,,,,,,,,,,,,,,,,,,,,,,,,,,,,,,,,,,,,,,,,,,,,,,,,,,,,,,,,,,,,,,,,,,,,,,,,,,,,,,,,,,,,,,,,1073.5535246999934,None,1304.55731727096,2.7812155448607445,7.321546385650306e-05,1,"[0.40865122546266774, 0.5087525642369501, 0.7144551342431094, 0.4915195701282329]","[258.8569572235918, 387.847210906872, 581.1142208486492, 870.6875495712098]",Perfect_5th,"[8.0, 6.59878515438321, 8.582078609430688, 8.890123896236423]",False,1074.5699268999742,1077.2311003999785,1077.2311003999785,1078.456306100008,['space'],1,[0.3690049999859184],3.14423331967555,4.155913019669242,None,1,None,1,,,,,,,,,,,,,tlvjds,001,fr,0,0,2022-05-06_11h58.32.052,Cluster,2022.1.1,36.03090732281718,
,,,,5,0,5,0,19,0,19,0,,,none,,,,,,,,,,,,,,,,,,,,,,,,,,,,,,,,,,,,,,,,,,,,,,,,,,,,,,,,,,,,,,,,,,,,,,,,,,,,,,,,,,,,,,,,,,,,,,,,,,,,,,,,,,,,,,,,,,,1078.7687825999456,None,6253.685934223712,-6.4354709371563725,6.0931703056900664e-05,1,"[0.6105982038271653, 0.5381070563970752, 0.471182749093747, 0.6713069381316494]","[1583.7255354009294, 3165.6451913935916, 563.9048227149243, 4694.079438678797]",None,"[7.0, 2.2095652480986097, 8.582078609430688, -0.4302768951686673]",False,1079.7815016999375,1082.4146781000309,1082.4146781000309,1083.6231786999851,['space'],1,[0.9722737000556663],3.3125196198234335,4.343345319852233,None,1,None,1,,,,,,,,,,,,,tlvjds,001,fr,0,0,2022-05-06_11h58.32.052,Cluster,2022.1.1,36.03090732281718,
,,,,6,0,6,0,0,0,0,0,,,both,,,,,,,,,,,,,,,,,,,,,,,,,,,,,,,,,,,,,,,,,,,,,,,,,,,,,,,,,,,,,,,,,,,,,,,,,,,,,,,,,,,,,,,,,,,,,,,,,,,,,,,,,,,,,,,,,,,1086.3798020000104,None,300.1003855376513,1.0,0.00012836555571296606,0,"[0.5268940067448834, 0.5268940067448834, 0.5268940067448834, 0.5268940067448834]","[756.2055856409077, 600.2007710753026, 476.3796676985299, 378.10279282045383]",Major_3rd,"[8.717639864225424, 8.683221070112829, 7.683408614321836, 6.59878515438321]",False,1087.3848340000259,1089.9828058000421,1089.9828058000421,1091.1952756999526,None,0,,3.1322228198405355,4.134417019900866,None,1,None,1,,,,,,,,,,,,,tlvjds,001,fr,0,0,2022-05-06_11h58.32.052,Cluster,2022.1.1,36.03090732281718,
,,,,6,0,6,0,1,0,1,0,,,both,,,,,,,,,,,,,,,,,,,,,,,,,,,,,,,,,,,,,,,,,,,,,,,,,,,,,,,,,,,,,,,,,,,,,,,,,,,,,,,,,,,,,,,,,,,,,,,,,,,,,,,,,,,,,,,,,,,1091.563613699982,None,,,,,"[0.785763541510909, 0.785763541510909, 0.785763541510909, 0.785763541510909]","[691.5202110091731, 461.534368809558, 308.0372347781046, 205.5901887750729]",Perfect_5th,"[8.708224822513255, 7.683408614321836, 6.797557276678826, 11.820817285616162]",True,1092.5612557999557,1095.9519358000252,1095.9519358000252,1097.1705519999377,None,1,,4.166549619869329,5.169607719872147,None,1,None,1,0,,,,,,,,,,,,tlvjds,001,fr,0,0,2022-05-06_11h58.32.052,Cluster,2022.1.1,36.03090732281718,
,,,,6,0,6,0,2,0,2,0,,,none,,,,,,,,,,,,,,,,,,,,,,,,,,,,,,,,,,,,,,,,,,,,,,,,,,,,,,,,,,,,,,,,,,,,,,,,,,,,,,,,,,,,,,,,,,,,,,,,,,,,,,,,,,,,,,,,,,,1097.7680268000113,None,217.63764082403114,-5.0,0.00012983715067005198,0,"[0.4768156510625777, 0.6900644602098487, 0.7221651270298312, 0.6488719019192319]","[2144.743631053877, 728.2612941833738, 1585.9251145610117, 6248.126157973405]",None,"[4.102496813092523, 8.708224822513255, 7.0, -0.43547093715637253]",False,1098.7757843999425,1101.7070667999797,1101.7070667999797,1102.9177588999737,None,0,,3.549453719635494,4.572310719639063,None,1,None,1,,,,,,,,,,,,,tlvjds,001,fr,0,0,2022-05-06_11h58.32.052,Cluster,2022.1.1,36.03090732281718,
,,,,6,0,6,0,3,0,3,0,,,both,,,,,,,,,,,,,,,,,,,,,,,,,,,,,,,,,,,,,,,,,,,,,,,,,,,,,,,,,,,,,,,,,,,,,,,,,,,,,,,,,,,,,,,,,,,,,,,,,,,,,,,,,,,,,,,,,,,1103.4036187999882,None,8000.0,-7.0,8.109050486794653e-05,0,"[0.7384219370002841, 0.7384219370002841, 0.7384219370002841, 0.7384219370002841]","[3174.8021039364003, 4000.0000000000014, 5039.684199579494, 6349.604207872799]",Major_3rd,"[2.2095652480986097, 0.3021827262870165, -0.5432522364856851, -0.4145697355470386]",False,1104.4166283999803,1107.6528941999422,1107.6528941999422,1108.8692911999533,None,0,,3.9675454198149964,4.993312319740653,None,1,None,1,,,,,,,,,,,,,tlvjds,001,fr,0,0,2022-05-06_11h58.32.052,Cluster,2022.1.1,36.03090732281718,
