practice.thisRepN,practice.thisTrialN,practice.thisN,practice.thisIndex,trials.thisRepN,trials.thisTrialN,trials.thisN,trials.thisIndex,blank_txt.started,blank_txt.stopped,practice_frequency,practice_level,psychopy_volume,tProbe.started,tProbe.stopped,tFeedback.keys,tFeedback.corr,tFeedback.rt,tFeedback.started,tFeedback.stopped,tToo_early.keys,tToo_early.corr,tToo_early.started,tToo_early.stopped,tToo_late.keys,tToo_late.corr,tToo_late.started,tToo_late.stopped,you_done_goofed.started,you_done_goofed.stopped,Init_phase,Frequency,Level,Psychopy_Volume,Catch trial,probe.started,probe.stopped,feedback.keys,feedback.corr,feedback.rt,feedback.started,feedback.stopped,too_late.keys,too_late.corr,too_late.started,too_late.stopped,too_late.rt,Audiogram,participant,session,Language (english or french),Tone duration (ms),date,expName,psychopyVersion,frameRate,
0,0,0,0,,,,,98.47084600001108,None,567,40,0.006099267302654233,0.999461266794242,None,['space'],1,[0.4610407999716699],100.4862438000273,101.51191290002316,None,1,99.4794288999401,100.4862438000273,None,1,101.51191290002316,None,102.55576589994598,None,,,,,,,,,,,,,,,,,,,nefynm,001,english,200,2022-05-06_09h20.14.230,Bayesian,2022.1.1,None,
1,0,1,0,,,,,,,234,40,0.019882976039061955,1.0049482666654512,None,['space'],1,[0.3931238999357447],105.78543219994754,106.81687189999502,None,1,104.77335739997216,105.80511119996663,None,1,106.81687189999502,None,107.85032389999833,None,,,,,,,,,,,,,,,,,,,nefynm,001,english,200,2022-05-06_09h20.14.230,Bayesian,2022.1.1,None,
2,0,2,0,,,,,,,2345,40,0.008245949202640053,1.017829266609624,None,['space'],1,[0.5158464000560343],111.23083799995948,112.23223620001227,None,1,110.23714880004991,111.23083799995948,None,1,112.23223620001227,None,113.26608570001554,None,,,,,,,,,,,,,,,,,,,nefynm,001,english,200,2022-05-06_09h20.14.230,Bayesian,2022.1.1,None,
,,,,0,0,0,0,117.85647789994255,None,,,,,,,,,,,,,,,,,,,,,"{'x': [], 'y': [], 'is_init_phase': True, 'is_exam_finished': False, 'threshold_uncertainty_db': 6}",1000,60,0.0440524436504007,False,0.0034296667436137795,None,['space'],1,[0.5105155000928789],118.96420159994159,119.97219969995786,None,1,119.97219969995786,None,,,nefynm,001,english,200,2022-05-06_09h20.14.230,Bayesian,2022.1.1,None,
,,,,1,0,1,0,,,,,,,,,,,,,,,,,,,,,,,"{'x': [[1000, 60]], 'y': [[1]], 'audiogram': {}, 'is_init_phase': True, 'is_exam_finished': False, 'threshold_uncertainty_db': 6}",1000,40,0.004405244365040069,False,0.011989933322183788,None,['space'],1,[0.5669981999089941],121.72380309994332,122.73410270002205,None,1,122.73410270002205,121.72380309994332,,,nefynm,001,english,200,2022-05-06_09h20.14.230,Bayesian,2022.1.1,None,
,,,,2,0,2,0,,,,,,,,,,,,,,,,,,,,,,,"{'x': [[1000, 60], [1000, 40]], 'y': [[1], [1]], 'audiogram': {}, 'is_init_phase': True, 'is_exam_finished': False, 'threshold_uncertainty_db': 6}",1000,20,0.0004405244365040069,False,0.00911179999820888,None,['space'],1,[0.6245955000631511],125.77890679996926,126.77888380002696,None,1,126.77888380002696,125.77890679996926,,,nefynm,001,english,200,2022-05-06_09h20.14.230,Bayesian,2022.1.1,None,
,,,,3,0,3,0,,,,,,,,,,,,,,,,,,,,,,,"{'x': [[1000, 60], [1000, 40], [1000, 20]], 'y': [[1], [1], [1]], 'audiogram': {}, 'is_init_phase': True, 'is_exam_finished': False, 'threshold_uncertainty_db': 6}",,,,True,0.013141933246515691,None,None,0,,128.9102414000081,129.9145012999652,None,1,129.9145012999652,128.9102414000081,,,nefynm,001,english,200,2022-05-06_09h20.14.230,Bayesian,2022.1.1,None,
,,,,4,0,4,0,,,,,,,,,,,,,,,,,,,,,,,"{'x': [[1000, 60], [1000, 40], [1000, 20]], 'y': [[1], [1], [1]], 'audiogram': {}, 'is_init_phase': True, 'is_exam_finished': False, 'threshold_uncertainty_db': 6}",1000,0,4.405244365040069e-05,False,0.012735199998132885,None,None,0,,132.50267970003188,133.52437260001898,['space'],0,133.52437260001898,132.50267970003188,[0.01424549997318536],,nefynm,001,english,200,2022-05-06_09h20.14.230,Bayesian,2022.1.1,None,
,,,,5,0,5,0,,,,,,,,,,,,,,,,,,,,,,,"{'x': [[1000, 60], [1000, 40], [1000, 20], [1000, 0]], 'y': [[1], [1], [1], [-1]], 'audiogram': {}, 'is_init_phase': True, 'is_exam_finished': False, 'threshold_uncertainty_db': 6}",1500,10,0.0001527460556607757,False,0.011470400029793382,None,['space'],1,[0.5819382999325171],136.23771170002874,137.2511195000261,None,1,137.2511195000261,136.23771170002874,,,nefynm,001,english,200,2022-05-06_09h20.14.230,Bayesian,2022.1.1,None,
,,,,6,0,6,0,,,,,,,,,,,,,,,,,,,,,,,"{'x': [[1000, 60], [1000, 40], [1000, 20], [1000, 0], [1500, 10]], 'y': [[1], [1], [1], [-1], [1]], 'audiogram': {}, 'is_init_phase': True, 'is_exam_finished': False, 'threshold_uncertainty_db': 6}",1500,-10,1.527460556607758e-05,False,0.007235099910758436,None,['space'],1,[-0.09922760003246367],139.9896281999536,140.99841050000396,None,1,140.99841050000396,139.9896281999536,,,nefynm,001,english,200,2022-05-06_09h20.14.230,Bayesian,2022.1.1,None,
,,,,7,0,7,0,,,,,,,,,,,,,,,,,,,,,,,"{'x': [[1000, 60], [1000, 40], [1000, 20], [1000, 0], [1500, 10], [1500, -10]], 'y': [[1], [1], [1], [-1], [1], [1]], 'audiogram': {}, 'is_init_phase': True, 'is_exam_finished': False, 'threshold_uncertainty_db': 6}",,,,True,6.506673526018858e-05,0.1934645667206496,None,0,,143.84949209995102,144.8686091999989,None,1,144.8686091999989,143.84949209995102,,,nefynm,001,english,200,2022-05-06_09h20.14.230,Bayesian,2022.1.1,None,
,,,,8,0,8,0,,,,,,,,,,,,,,,,,,,,,,,"{'x': [[1000, 60], [1000, 40], [1000, 20], [1000, 0], [1500, 10], [1500, -10]], 'y': [[1], [1], [1], [-1], [1], [1]], 'audiogram': {}, 'is_init_phase': True, 'is_exam_finished': False, 'threshold_uncertainty_db': 6}",2000,-10,2.3657562948074015e-05,False,0.0026025999104604125,None,None,0,,147.302721700049,148.3283223999897,None,1,148.3283223999897,147.302721700049,,,nefynm,001,english,200,2022-05-06_09h20.14.230,Bayesian,2022.1.1,None,
,,,,9,0,9,0,,,,,,,,,,,,,,,,,,,,,,,"{'x': [[1000, 60], [1000, 40], [1000, 20], [1000, 0], [1500, 10], [1500, -10], [2000, -10]], 'y': [[1], [1], [1], [-1], [1], [1], [-1]], 'audiogram': {}, 'is_init_phase': True, 'is_exam_finished': False, 'threshold_uncertainty_db': 6}",2000,10,0.00023657562948074026,False,0.010949500021524727,None,['space'],1,[0.49233539996203035],150.48700359999202,151.50964079995174,None,1,151.50964079995174,150.48700359999202,,,nefynm,001,english,200,2022-05-06_09h20.14.230,Bayesian,2022.1.1,None,
,,,,10,0,10,0,,,,,,,,,,,,,,,,,,,,,,,"{'x': [[1000, 60], [1000, 40], [1000, 20], [1000, 0], [1500, 10], [1500, -10], [2000, -10], [2000, 10]], 'y': [[1], [1], [1], [-1], [1], [1], [-1], [1]], 'audiogram': {}, 'is_init_phase': True, 'is_exam_finished': False, 'threshold_uncertainty_db': 6}",3000,-10,1.7336842522626584e-05,False,0.006826399941928685,None,None,0,,154.07432470005006,155.09362679999322,None,1,155.09362679999322,154.07432470005006,,,nefynm,001,english,200,2022-05-06_09h20.14.230,Bayesian,2022.1.1,None,
,,,,11,0,11,0,,,,,,,,,,,,,,,,,,,,,,,"{'x': [[1000, 60], [1000, 40], [1000, 20], [1000, 0], [1500, 10], [1500, -10], [2000, -10], [2000, 10], [3000, -10]], 'y': [[1], [1], [1], [-1], [1], [1], [-1], [1], [-1]], 'audiogram': {}, 'is_init_phase': True, 'is_exam_finished': False, 'threshold_uncertainty_db': 6}",,,,True,0.00043666677083820105,0.18442256678827107,None,0,,157.16340159997344,158.1747223000275,None,1,158.1747223000275,157.16340159997344,,,nefynm,001,english,200,2022-05-06_09h20.14.230,Bayesian,2022.1.1,None,
,,,,12,0,12,0,,,,,,,,,,,,,,,,,,,,,,,"{'x': [[1000, 60], [1000, 40], [1000, 20], [1000, 0], [1500, 10], [1500, -10], [2000, -10], [2000, 10], [3000, -10]], 'y': [[1], [1], [1], [-1], [1], [1], [-1], [1], [-1]], 'audiogram': {}, 'is_init_phase': True, 'is_exam_finished': False, 'threshold_uncertainty_db': 6}",3000,10,0.00017336842522626576,False,0.009322566678747535,None,['space'],1,[0.491145700099878],161.15998949995264,162.16791449999437,None,1,162.16791449999437,161.15998949995264,,,nefynm,001,english,200,2022-05-06_09h20.14.230,Bayesian,2022.1.1,None,
,,,,13,0,13,0,,,,,,,,,,,,,,,,,,,,,,,"{'x': [[1000, 60], [1000, 40], [1000, 20], [1000, 0], [1500, 10], [1500, -10], [2000, -10], [2000, 10], [3000, -10], [3000, 10]], 'y': [[1], [1], [1], [-1], [1], [1], [-1], [1], [-1], [1]], 'audiogram': {}, 'is_init_phase': True, 'is_exam_finished': False, 'threshold_uncertainty_db': 6}",4000,-10,2.6544222211549425e-05,False,0.01355230004992336,None,None,0,,163.5415363999782,164.5566295000026,None,1,164.5566295000026,163.5415363999782,,,nefynm,001,english,200,2022-05-06_09h20.14.230,Bayesian,2022.1.1,None,
,,,,14,0,14,0,,,,,,,,,,,,,,,,,,,,,,,"{'x': [[1000, 60], [1000, 40], [1000, 20], [1000, 0], [1500, 10], [1500, -10], [2000, -10], [2000, 10], [3000, -10], [3000, 10], [4000, -10]], 'y': [[1], [1], [1], [-1], [1], [1], [-1], [1], [-1], [1], [-1]], 'audiogram': {}, 'is_init_phase': True, 'is_exam_finished': False, 'threshold_uncertainty_db': 6}",4000,10,0.00026544222211549425,False,0.0011781000066548586,None,['space'],1,[0.562554799951613],165.85689609998371,166.85891039995477,None,1,166.85891039995477,165.85689609998371,,,nefynm,001,english,200,2022-05-06_09h20.14.230,Bayesian,2022.1.1,None,
,,,,15,0,15,0,,,,,,,,,,,,,,,,,,,,,,,"{'x': [[1000, 60], [1000, 40], [1000, 20], [1000, 0], [1500, 10], [1500, -10], [2000, -10], [2000, 10], [3000, -10], [3000, 10], [4000, -10], [4000, 10]], 'y': [[1], [1], [1], [-1], [1], [1], [-1], [1], [-1], [1], [-1], [1]], 'audiogram': {}, 'is_init_phase': True, 'is_exam_finished': False, 'threshold_uncertainty_db': 6}",,,,True,0.010670333285816014,None,None,0,,169.54995729995426,170.55435959994793,None,1,170.55435959994793,169.54995729995426,,,nefynm,001,english,200,2022-05-06_09h20.14.230,Bayesian,2022.1.1,None,
,,,,16,0,16,0,,,,,,,,,,,,,,,,,,,,,,,"{'x': [[1000, 60], [1000, 40], [1000, 20], [1000, 0], [1500, 10], [1500, -10], [2000, -10], [2000, 10], [3000, -10], [3000, 10], [4000, -10], [4000, 10]], 'y': [[1], [1], [1], [-1], [1], [1], [-1], [1], [-1], [1], [-1], [1]], 'audiogram': {}, 'is_init_phase': True, 'is_exam_finished': False, 'threshold_uncertainty_db': 6}",6000,-10,3.664122665694518e-05,False,0.006423666724003851,None,['space'],1,[0.8114456000039354],172.87196210003458,173.88927929999772,None,1,173.88927929999772,172.87196210003458,,,nefynm,001,english,200,2022-05-06_09h20.14.230,Bayesian,2022.1.1,None,
,,,,17,0,17,0,,,,,,,,,,,,,,,,,,,,,,,"{'x': [[1000, 60], [1000, 40], [1000, 20], [1000, 0], [1500, 10], [1500, -10], [2000, -10], [2000, 10], [3000, -10], [3000, 10], [4000, -10], [4000, 10], [6000, -10]], 'y': [[1], [1], [1], [-1], [1], [1], [-1], [1], [-1], [1], [-1], [1], [1]], 'audiogram': {}, 'is_init_phase': True, 'is_exam_finished': False, 'threshold_uncertainty_db': 6}",8000,-10,5.740768107484415e-05,False,0.00015540001913905144,None,None,0,,176.37024179997388,177.39315539994277,['space'],0,177.39315539994277,176.37024179997388,[0.48228400002699345],,nefynm,001,english,200,2022-05-06_09h20.14.230,Bayesian,2022.1.1,None,
,,,,18,0,18,0,,,,,,,,,,,,,,,,,,,,,,,"{'x': [[1000, 60], [1000, 40], [1000, 20], [1000, 0], [1500, 10], [1500, -10], [2000, -10], [2000, 10], [3000, -10], [3000, 10], [4000, -10], [4000, 10], [6000, -10], [8000, -10]], 'y': [[1], [1], [1], [-1], [1], [1], [-1], [1], [-1], [1], [-1], [1], [1], [-1]], 'audiogram': {}, 'is_init_phase': True, 'is_exam_finished': False, 'threshold_uncertainty_db': 6}",8000,0,0.0001815390273850507,False,0.008587400079704821,0.2018362000817433,['space'],1,[0.6220892999554053],180.38825309998356,181.40721259999555,None,1,181.40721259999555,180.38825309998356,,,nefynm,001,english,200,2022-05-06_09h20.14.230,Bayesian,2022.1.1,None,
,,,,19,0,19,0,,,,,,,,,,,,,,,,,,,,,,,"{'x': [[1000, 60], [1000, 40], [1000, 20], [1000, 0], [1500, 10], [1500, -10], [2000, -10], [2000, 10], [3000, -10], [3000, 10], [4000, -10], [4000, 10], [6000, -10], [8000, -10], [8000, 0]], 'y': [[1], [1], [1], [-1], [1], [1], [-1], [1], [-1], [1], [-1], [1], [1], [-1], [1]], 'audiogram': {}, 'is_init_phase': True, 'is_exam_finished': False, 'threshold_uncertainty_db': 6}",750,10,0.00012851978913844324,False,0.008095199940726161,None,['space'],1,[0.6611148999072611],182.73345980001613,183.73503420001362,None,1,183.73503420001362,182.73345980001613,,,nefynm,001,english,200,2022-05-06_09h20.14.230,Bayesian,2022.1.1,None,
,,,,20,0,20,0,,,,,,,,,,,,,,,,,,,,,,,"{'x': [[1000, 60], [1000, 40], [1000, 20], [1000, 0], [1500, 10], [1500, -10], [2000, -10], [2000, 10], [3000, -10], [3000, 10], [4000, -10], [4000, 10], [6000, -10], [8000, -10], [8000, 0], [750, 10]], 'y': [[1], [1], [1], [-1], [1], [1], [-1], [1], [-1], [1], [-1], [1], [1], [-1], [1], [1]], 'audiogram': {}, 'is_init_phase': True, 'is_exam_finished': False, 'threshold_uncertainty_db': 6}",,,,True,0.012995033175684512,None,None,0,,185.29810120002367,186.31146849994548,None,1,186.31146849994548,185.29810120002367,,,nefynm,001,english,200,2022-05-06_09h20.14.230,Bayesian,2022.1.1,None,
,,,,21,0,21,0,,,,,,,,,,,,,,,,,,,,,,,"{'x': [[1000, 60], [1000, 40], [1000, 20], [1000, 0], [1500, 10], [1500, -10], [2000, -10], [2000, 10], [3000, -10], [3000, 10], [4000, -10], [4000, 10], [6000, -10], [8000, -10], [8000, 0], [750, 10]], 'y': [[1], [1], [1], [-1], [1], [1], [-1], [1], [-1], [1], [-1], [1], [1], [-1], [1], [1]], 'audiogram': {}, 'is_init_phase': True, 'is_exam_finished': False, 'threshold_uncertainty_db': 6}",750,-10,1.2851978913844322e-05,False,0.00707759999204427,0.19698179990518838,None,0,,188.1981784000527,189.20238649996463,None,1,189.20238649996463,188.1981784000527,,,nefynm,001,english,200,2022-05-06_09h20.14.230,Bayesian,2022.1.1,None,
,,,,22,0,22,0,,,,,,,,,,,,,,,,,,,,,,,"{'x': [[1000, 60], [1000, 40], [1000, 20], [1000, 0], [1500, 10], [1500, -10], [2000, -10], [2000, 10], [3000, -10], [3000, 10], [4000, -10], [4000, 10], [6000, -10], [8000, -10], [8000, 0], [750, 10], [750, -10]], 'y': [[1], [1], [1], [-1], [1], [1], [-1], [1], [-1], [1], [-1], [1], [1], [-1], [1], [1], [-1]], 'audiogram': {}, 'is_init_phase': True, 'is_exam_finished': False, 'threshold_uncertainty_db': 6}",500,10,0.0002259279721874612,False,0.00665540003683418,None,['space'],1,[0.4880147000076249],192.10768420004752,193.1175380999921,None,1,193.1175380999921,192.10768420004752,,,nefynm,001,english,200,2022-05-06_09h20.14.230,Bayesian,2022.1.1,None,
,,,,23,0,23,0,,,,,,,,,,,,,,,,,,,,,,,"{'x': [[1000, 60], [1000, 40], [1000, 20], [1000, 0], [1500, 10], [1500, -10], [2000, -10], [2000, 10], [3000, -10], [3000, 10], [4000, -10], [4000, 10], [6000, -10], [8000, -10], [8000, 0], [750, 10], [750, -10], [500, 10]], 'y': [[1], [1], [1], [-1], [1], [1], [-1], [1], [-1], [1], [-1], [1], [1], [-1], [1], [1], [-1], [1]], 'audiogram': {}, 'is_init_phase': True, 'is_exam_finished': False, 'threshold_uncertainty_db': 6}",500,-10,2.259279721874613e-05,False,0.008153599919751287,None,None,0,,195.64404919999652,196.68021230003797,['space'],0,196.68021230003797,195.64404919999652,[0.8267970000160858],,nefynm,001,english,200,2022-05-06_09h20.14.230,Bayesian,2022.1.1,None,
,,,,24,0,24,0,,,,,,,,,,,,,,,,,,,,,,,"{'x': [[1000, 60], [1000, 40], [1000, 20], [1000, 0], [1500, 10], [1500, -10], [2000, -10], [2000, 10], [3000, -10], [3000, 10], [4000, -10], [4000, 10], [6000, -10], [8000, -10], [8000, 0], [750, 10], [750, -10], [500, 10], [500, -10]], 'y': [[1], [1], [1], [-1], [1], [1], [-1], [1], [-1], [1], [-1], [1], [1], [-1], [1], [1], [-1], [1], [-1]], 'audiogram': {}, 'is_init_phase': True, 'is_exam_finished': False, 'threshold_uncertainty_db': 6}",,,,True,0.011941633303649724,None,None,0,,199.2154452999821,200.24202180001885,None,1,200.24202180001885,199.2154452999821,,,nefynm,001,english,200,2022-05-06_09h20.14.230,Bayesian,2022.1.1,None,
,,,,25,0,25,0,,,,,,,,,,,,,,,,,,,,,,,"{'x': [[1000, 60], [1000, 40], [1000, 20], [1000, 0], [1500, 10], [1500, -10], [2000, -10], [2000, 10], [3000, -10], [3000, 10], [4000, -10], [4000, 10], [6000, -10], [8000, -10], [8000, 0], [750, 10], [750, -10], [500, 10], [500, -10]], 'y': [[1], [1], [1], [-1], [1], [1], [-1], [1], [-1], [1], [-1], [1], [1], [-1], [1], [1], [-1], [1], [-1]], 'audiogram': {}, 'is_init_phase': True, 'is_exam_finished': False, 'threshold_uncertainty_db': 6}",250,10,0.0005296268625886444,False,0.009800300002098083,None,['space'],1,[0.5669588999589905],202.82792980002705,203.8252231000224,None,1,203.8252231000224,202.82792980002705,,,nefynm,001,english,200,2022-05-06_09h20.14.230,Bayesian,2022.1.1,None,
,,,,26,0,26,0,,,,,,,,,,,,,,,,,,,,,,,"{'x': [[1000, 60], [1000, 40], [1000, 20], [1000, 0], [1500, 10], [1500, -10], [2000, -10], [2000, 10], [3000, -10], [3000, 10], [4000, -10], [4000, 10], [6000, -10], [8000, -10], [8000, 0], [750, 10], [750, -10], [500, 10], [500, -10], [250, 10]], 'y': [[1], [1], [1], [-1], [1], [1], [-1], [1], [-1], [1], [-1], [1], [1], [-1], [1], [1], [-1], [1], [-1], [1]], 'audiogram': {}, 'is_init_phase': True, 'is_exam_finished': False, 'threshold_uncertainty_db': 6}",250,-10,5.296268625886443e-05,False,0.00823609996587038,None,None,0,,206.5893609999912,207.61748410004657,None,1,207.61748410004657,206.5893609999912,,,nefynm,001,english,200,2022-05-06_09h20.14.230,Bayesian,2022.1.1,None,
,,,,27,0,27,0,,,,,,,,,,,,,,,,,,,,,,,"{'x': [[1000, 60], [1000, 40], [1000, 20], [1000, 0], [1500, 10], [1500, -10], [2000, -10], [2000, 10], [3000, -10], [3000, 10], [4000, -10], [4000, 10], [6000, -10], [8000, -10], [8000, 0], [750, 10], [750, -10], [500, 10], [500, -10], [250, 10], [250, -10]], 'y': [[1], [1], [1], [-1], [1], [1], [-1], [1], [-1], [1], [-1], [1], [1], [-1], [1], [1], [-1], [1], [-1], [1], [-1]], 'audiogram': {}, 'is_init_phase': True, 'is_exam_finished': False, 'threshold_uncertainty_db': 6}",125,10,0.002285440948074376,False,0.008701200014911592,None,['space'],1,[0.6739107000175864],209.55300600000191,210.56511950003915,None,1,210.56511950003915,209.55300600000191,,,nefynm,001,english,200,2022-05-06_09h20.14.230,Bayesian,2022.1.1,None,
,,,,28,0,28,0,,,,,,,,,,,,,,,,,,,,,,,"{'x': [[1000, 60], [1000, 40], [1000, 20], [1000, 0], [1500, 10], [1500, -10], [2000, -10], [2000, 10], [3000, -10], [3000, 10], [4000, -10], [4000, 10], [6000, -10], [8000, -10], [8000, 0], [750, 10], [750, -10], [500, 10], [500, -10], [250, 10], [250, -10], [125, 10]], 'y': [[1], [1], [1], [-1], [1], [1], [-1], [1], [-1], [1], [-1], [1], [1], [-1], [1], [1], [-1], [1], [-1], [1], [-1], [1]], 'audiogram': {}, 'is_init_phase': True, 'is_exam_finished': False, 'threshold_uncertainty_db': 6}",,,,True,0.011492333374917507,None,None,0,,212.00038910005242,213.0095152000431,None,1,213.0095152000431,212.00038910005242,,,nefynm,001,english,200,2022-05-06_09h20.14.230,Bayesian,2022.1.1,None,
,,,,29,0,29,0,,,,,,,,,,,,,,,,,,,,,,,"{'x': [[1000, 60], [1000, 40], [1000, 20], [1000, 0], [1500, 10], [1500, -10], [2000, -10], [2000, 10], [3000, -10], [3000, 10], [4000, -10], [4000, 10], [6000, -10], [8000, -10], [8000, 0], [750, 10], [750, -10], [500, 10], [500, -10], [250, 10], [250, -10], [125, 10]], 'y': [[1], [1], [1], [-1], [1], [1], [-1], [1], [-1], [1], [-1], [1], [1], [-1], [1], [1], [-1], [1], [-1], [1], [-1], [1]], 'audiogram': {}, 'is_init_phase': True, 'is_exam_finished': False, 'threshold_uncertainty_db': 6}",125,-10,0.0002285440948074376,False,0.007551599992439151,None,None,0,,216.00463390001096,217.0109809000278,['space'],0,217.0109809000278,216.00463390001096,[0.06377989996690303],,nefynm,001,english,200,2022-05-06_09h20.14.230,Bayesian,2022.1.1,None,
,,,,30,0,30,0,,,,,,,,,,,,,,,,,,,,,,,"{'x': [[1000, 60], [1000, 40], [1000, 20], [1000, 0], [1500, 10], [1500, -10], [2000, -10], [2000, 10], [3000, -10], [3000, 10], [4000, -10], [4000, 10], [6000, -10], [8000, -10], [8000, 0], [750, 10], [750, -10], [500, 10], [500, -10], [250, 10], [250, -10], [125, 10], [125, -10]], 'y': [[1], [1], [1], [-1], [1], [1], [-1], [1], [-1], [1], [-1], [1], [1], [-1], [1], [1], [-1], [1], [-1], [1], [-1], [1], [-1]], 'audiogram': {}, 'is_init_phase': True, 'is_exam_finished': False, 'threshold_uncertainty_db': 6}",176.7766952966369,-1.0,0.0003119565241000184,False,0.01035766676068306,None,['space'],1,[-0.3976416999939829],221.0718997999793,222.07563830004074,None,1,222.07563830004074,221.0718997999793,,,nefynm,001,english,200,2022-05-06_09h20.14.230,Bayesian,2022.1.1,None,
,,,,31,0,31,0,,,,,,,,,,,,,,,,,,,,,,,,353.5533905932738,-1.0,7.897582242723967e-05,False,0.012730066548101604,None,['space'],1,[0.5402791000669822],225.84652400005143,226.85434800002258,None,1,226.85434800002258,225.84652400005143,,,nefynm,001,english,200,2022-05-06_09h20.14.230,Bayesian,2022.1.1,None,
,,,,32,0,32,0,,,,,,,,,,,,,,,,,,,,,,,,1414.213562373095,-8.0,2.007747620013617e-05,False,0.01216646668035537,None,['space'],1,[-0.5412251999368891],229.92078529996797,230.94035159994382,None,1,230.94035159994382,229.92078529996797,,,nefynm,001,english,200,2022-05-06_09h20.14.230,Bayesian,2022.1.1,None,
,,,,33,0,33,0,,,,,,,,,,,,,,,,,,,,,,,,615.5722066724584,0.0,5.34153907348926e-05,False,0.01469653332605958,None,['space'],1,[0.6165999000659212],234.42658029997256,235.43176669999957,None,1,235.43176669999957,234.42658029997256,,,nefynm,001,english,200,2022-05-06_09h20.14.230,Bayesian,2022.1.1,None,
,,,,34,0,34,0,,,,,,,,,,,,,,,,,,,,,,,,933.0329915368076,0.0,4.214911765470246e-05,False,0.008291066624224186,None,None,0,,239.52813170000445,240.5346550999675,None,1,240.5346550999675,239.52813170000445,,,nefynm,001,english,200,2022-05-06_09h20.14.230,Bayesian,2022.1.1,None,
,,,,35,0,35,0,,,,,,,,,,,,,,,,,,,,,,,,,,,True,0.006219233269803226,None,None,0,,243.43939630000386,244.43400130001828,None,1,244.43400130001828,243.43939630000386,,,nefynm,001,english,200,2022-05-06_09h20.14.230,Bayesian,2022.1.1,None,
,,,,36,0,36,0,,,,,,,,,,,,,,,,,,,,,,,,125.0,-4.0,0.00045600541967795504,False,0.0010020998306572437,None,None,0,,247.1723261999432,248.17681940004695,['space'],0,248.17681940004695,247.1723261999432,[1.4901486999588087],,nefynm,001,english,200,2022-05-06_09h20.14.230,Bayesian,2022.1.1,None,
,,,,37,0,37,0,,,,,,,,,,,,,,,,,,,,,,,,2828.42712474619,0.0,6.548596627134577e-05,False,0.01318653323687613,None,None,0,,250.93097959994338,251.946368600009,None,1,251.946368600009,250.93097959994338,,,nefynm,001,english,200,2022-05-06_09h20.14.230,Bayesian,2022.1.1,None,
,,,,38,0,38,0,,,,,,,,,,,,,,,,,,,,,,,,4594.793419988137,-7.0,5.577535693020852e-05,False,0.014392566750757396,0.21140236675273627,['space'],1,[0.6351274000480771],256.11904270004015,257.13805619999766,None,1,257.13805619999766,256.11904270004015,,,nefynm,001,english,200,2022-05-06_09h20.14.230,Bayesian,2022.1.1,None,
,,,,39,0,39,0,,,,,,,,,,,,,,,,,,,,,,,,,,,True,0.013412633328698575,None,None,0,,260.0748584000394,261.0897992999526,['space'],0,261.0897992999526,260.0748584000394,[2.1138472999446094],,nefynm,001,english,200,2022-05-06_09h20.14.230,Bayesian,2022.1.1,None,
,,,,40,0,40,0,,,,,,,,,,,,,,,,,,,,,,,,329.87697769322364,-6.0,4.749197086349176e-05,False,0.00017886655405163765,0.18349776649847627,None,0,,264.87829499994405,265.89493269997183,None,1,265.89493269997183,264.87829499994405,,,nefynm,001,english,200,2022-05-06_09h20.14.230,Bayesian,2022.1.1,None,
,,,,41,0,41,0,,,,,,,,,,,,,,,,,,,,,,,,217.63764082403114,-5.0,0.00012983715067005198,False,0.007232166826725006,None,None,0,,269.28676849999465,270.3020989999641,None,1,270.3020989999641,269.28676849999465,,,nefynm,001,english,200,2022-05-06_09h20.14.230,Bayesian,2022.1.1,None,
,,,,42,0,42,0,,,,,,,,,,,,,,,,,,,,,,,,125.0,0.0,0.000722719885372964,False,0.002095233299769461,None,['space'],1,[-1.10573840001598],274.14837970002554,275.16207760002,None,1,275.16207760002,274.14837970002554,,,nefynm,001,english,200,2022-05-06_09h20.14.230,Bayesian,2022.1.1,None,
,,,,43,0,43,0,,,,,,,,,,,,,,,,,,,,,,,,2297.3967099940687,0.0,8.14042568960799e-05,False,0.0017083999700844288,0.19050759996753186,['space'],1,[0.9478555000387132],277.5511376999784,278.5725418999791,None,1,278.5725418999791,277.5511376999784,,,nefynm,001,english,200,2022-05-06_09h20.14.230,Bayesian,2022.1.1,None,
,,,,44,0,44,0,,,,,,,,,,,,,,,,,,,,,,,,,,,True,0.012984333443455398,None,None,0,,279.9001350000035,280.9098806999391,None,1,280.9098806999391,279.9001350000035,,,nefynm,001,english,200,2022-05-06_09h20.14.230,Bayesian,2022.1.1,None,
,,,,45,0,45,0,,,,,,,,,,,,,,,,,,,,,,,,466.5164957684038,-6.0,3.66646508956036e-05,False,0.010542099946178496,0.20437489997129887,None,0,,283.69859639997594,284.71240590000525,None,1,284.71240590000525,283.69859639997594,,,nefynm,001,english,200,2022-05-06_09h20.14.230,Bayesian,2022.1.1,None,
,,,,46,0,46,0,,,,,,,,,,,,,,,,,,,,,,,,8000.0,-7.0,8.109050486794653e-05,False,0.015513333375565708,None,['space'],1,[0.6202672000508755],288.343043699977,289.35842069995124,None,1,289.35842069995124,288.343043699977,,,nefynm,001,english,200,2022-05-06_09h20.14.230,Bayesian,2022.1.1,None,
,,,,47,0,47,0,,,,,,,,,,,,,,,,,,,,,,,,250.0,-2.0,0.0001330362529899405,False,0.0018885999452322721,0.19208829989656806,None,0,,292.2321140000131,293.24446109996643,None,1,293.24446109996643,292.2321140000131,,,nefynm,001,english,200,2022-05-06_09h20.14.230,Bayesian,2022.1.1,None,
,,,,48,0,48,0,,,,,,,,,,,,,,,,,,,,,,,,,,,True,0.013452433398924768,None,None,0,,295.3869060999714,296.39048099995125,None,1,296.39048099995125,295.3869060999714,,,nefynm,001,english,200,2022-05-06_09h20.14.230,Bayesian,2022.1.1,None,
,,,,49,0,49,0,,,,,,,,,,,,,,,,,,,,,,,,5656.85424949238,-14.0,2.5643846742814755e-05,False,0.0007620332762598991,0.191818333347328,None,0,,300.67492499994114,301.68530560005456,None,1,301.68530560005456,300.67492499994114,,,nefynm,001,english,200,2022-05-06_09h20.14.230,Bayesian,2022.1.1,None,
,,,,50,0,50,0,,,,,,,,,,,,,,,,,,,,,,,,3482.202253184498,-1.0,6.671077963256969e-05,False,0.0084475998301059,None,None,0,,304.14479579997715,305.15733730001375,None,1,305.15733730001375,304.14479579997715,,,nefynm,001,english,200,2022-05-06_09h20.14.230,Bayesian,2022.1.1,None,
,,,,51,0,51,0,,,,,,,,,,,,,,,,,,,,,,,,707.1067811865476,1.0,4.982092697845807e-05,False,0.007846000022254884,None,None,0,,308.459481399972,309.47299399995245,None,1,309.47299399995245,308.459481399972,,,nefynm,001,english,200,2022-05-06_09h20.14.230,Bayesian,2022.1.1,None,
,,,,52,0,52,0,,,,,,,,,,,,,,,,,,,,,,,,,,,True,0.013587433379143476,None,None,0,,311.1233980000252,312.12607999995816,None,1,312.12607999995816,311.1233980000252,,,nefynm,001,english,200,2022-05-06_09h20.14.230,Bayesian,2022.1.1,None,
,,,,53,0,53,0,,,,,,,,,,,,,,,,,,,,,,,,176.7766952966369,-3.0,0.0002477958750990904,False,0.014440066646784544,None,None,0,,316.5104235999752,317.52476880000904,None,1,317.52476880000904,316.5104235999752,,,nefynm,001,english,200,2022-05-06_09h20.14.230,Bayesian,2022.1.1,None,
,,,,54,0,54,0,,,,,,,,,,,,,,,,,,,,,,,,250.0,1.0,0.00018791870214422208,False,0.010488333296962082,None,None,0,,321.29170059994794,322.3073716999497,None,1,322.3073716999497,321.29170059994794,,,nefynm,001,english,200,2022-05-06_09h20.14.230,Bayesian,2022.1.1,None,
,,,,55,0,55,0,,,,,,,,,,,,,,,,,,,,,,,,1071.7734625362941,0.0,4.705452115887428e-05,False,0.011592233437113464,None,['space'],1,[0.410776500008069],325.9920627999818,326.99960430001374,None,1,326.99960430001374,325.9920627999818,,,nefynm,001,english,200,2022-05-06_09h20.14.230,Bayesian,2022.1.1,None,
,,,,56,0,56,0,,,,,,,,,,,,,,,,,,,,,,,,,,,True,0.011846233275718987,None,None,0,,328.8900312000187,329.9158060000045,None,1,329.9158060000045,328.8900312000187,,,nefynm,001,english,200,2022-05-06_09h20.14.230,Bayesian,2022.1.1,None,
,,,,57,0,57,0,,,,,,,,,,,,,,,,,,,,,,,,1624.5047927124701,-12.0,1.4533023402421583e-05,False,0.014162666629999876,None,None,0,,334.28105380001944,335.2914019000018,None,1,335.2914019000018,334.28105380001944,,,nefynm,001,english,200,2022-05-06_09h20.14.230,Bayesian,2022.1.1,None,
,,,,58,0,58,0,,,,,,,,,,,,,,,,,,,,,,,,435.2752816480623,-4.0,4.716527343053582e-05,False,0.01357363339047879,None,['space'],1,[0.9317425999324769],338.9902522000484,339.99790990003385,None,1,339.99790990003385,338.9902522000484,,,nefynm,001,english,200,2022-05-06_09h20.14.230,Bayesian,2022.1.1,None,
,,,,59,0,59,0,,,,,,,,,,,,,,,,,,,,,,,,3732.1319661472303,-1.0,7.062095770881294e-05,False,0.008016066625714302,None,['space'],1,[0.6760684000328183],344.3340134000173,345.34184100001585,None,1,345.34184100001585,344.3340134000173,,,nefynm,001,english,200,2022-05-06_09h20.14.230,Bayesian,2022.1.1,None,
,,,,60,0,60,0,,,,,,,,,,,,,,,,,,,,,,,,287.17458874925893,1.0,0.00014373014543855395,False,0.004031866672448814,0.19406336662359536,None,0,,349.42656689998694,350.4378187999828,None,1,350.4378187999828,349.42656689998694,,,nefynm,001,english,200,2022-05-06_09h20.14.230,Bayesian,2022.1.1,None,
,,,,61,0,61,0,,,,,,,,,,,,,,,,,,,,,,,,,,,True,0.016462833271361887,None,None,0,,352.97203259996604,353.97914159996435,None,1,353.97914159996435,352.97203259996604,,,nefynm,001,english,200,2022-05-06_09h20.14.230,Bayesian,2022.1.1,None,
,,,,62,0,62,0,,,,,,,,,,,,,,,,,,,,,,,,2143.5469250725882,-4.0,4.9210777778194787e-05,False,0.012467899941839278,0.20841920003294945,None,0,,358.1913150999462,359.19703829998616,None,1,359.19703829998616,358.1913150999462,,,nefynm,001,english,200,2022-05-06_09h20.14.230,Bayesian,2022.1.1,None,
,,,,63,0,63,0,,,,,,,,,,,,,,,,,,,,,,,,125.0,-2.0,0.0005740768107484417,False,0.006345600006170571,0.20351749996189028,None,0,,362.61218000005465,363.6187784000067,['space'],0,363.6187784000067,362.61218000005465,[1.9203555999556556],,nefynm,001,english,200,2022-05-06_09h20.14.230,Bayesian,2022.1.1,None,
,,,,64,0,64,0,,,,,,,,,,,,,,,,,,,,,,,,217.63764082403114,3.0,0.00032613617707396853,False,0.014283099910244346,None,None,0,,367.35182650003117,368.3516340999631,None,1,368.3516340999631,367.35182650003117,,,nefynm,001,english,200,2022-05-06_09h20.14.230,Bayesian,2022.1.1,None,
,,,,65,0,65,0,,,,,,,,,,,,,,,,,,,,,,,,164.93848884661182,-1.0,0.0003503823469658471,False,0.008939333376474679,0.2010944333160296,None,0,,372.69637699995656,373.6989178999793,None,1,373.6989178999793,372.69637699995656,,,nefynm,001,english,200,2022-05-06_09h20.14.230,Bayesian,2022.1.1,None,
,,,,66,0,66,0,,,,,,,,,,,,,,,,,,,,,,,,,,,True,0.013410633197054267,None,None,0,,375.59070860000793,376.6183049000101,None,1,376.6183049000101,375.59070860000793,,,nefynm,001,english,200,2022-05-06_09h20.14.230,Bayesian,2022.1.1,None,
,,,,67,0,67,0,,,,,,,,,,,,,,,,,,,,,,,,8000.0,-9.0,6.441247758465671e-05,False,0.002846500021405518,None,['space'],1,[0.6939904000610113],380.1569388000062,381.17098930000793,None,1,381.17098930000793,380.1569388000062,,,nefynm,001,english,200,2022-05-06_09h20.14.230,Bayesian,2022.1.1,None,
,,,,68,0,68,0,,,,,,,,,,,,,,,,,,,,,,,,757.8582832551998,4.0,6.384618178815568e-05,False,0.003788466681726277,None,None,0,,384.18924600002356,385.1941252000397,['space'],0,385.1941252000397,384.18924600002356,[1.3846386999357492],,nefynm,001,english,200,2022-05-06_09h20.14.230,Bayesian,2022.1.1,None,
,,,,69,0,69,0,,,,,,,,,,,,,,,,,,,,,,,,176.7766952966369,2.0,0.00044065030258128913,False,0.0021157999290153384,0.1920422000112012,None,0,,388.88160880003124,389.87501820002217,None,1,389.87501820002217,388.88160880003124,,,nefynm,001,english,200,2022-05-06_09h20.14.230,Bayesian,2022.1.1,None,
,,,,70,0,70,0,,,,,,,,,,,,,,,,,,,,,,,,5656.85424949238,-12.0,3.228369032068457e-05,False,0.0025912999408319592,0.19492169993463904,None,0,,394.42290200002026,395.4285389999859,None,1,395.4285389999859,394.42290200002026,,,nefynm,001,english,200,2022-05-06_09h20.14.230,Bayesian,2022.1.1,None,
,,,,71,0,71,0,,,,,,,,,,,,,,,,,,,,,,,,2828.42712474619,3.0,9.250138600417529e-05,False,0.008511800086125731,None,None,0,,399.9550222000107,400.95308060001116,None,1,400.95308060001116,399.9550222000107,,,nefynm,001,english,200,2022-05-06_09h20.14.230,Bayesian,2022.1.1,None,
,,,,72,0,72,0,,,,,,,,,,,,,,,,,,,,,,,,233.2582478842019,6.0,0.00039961710977049484,False,0.003907933249138296,0.19880013330839574,['space'],1,[0.5761167999589816],404.62723059998825,405.6485791000305,None,1,405.6485791000305,404.62723059998825,,,nefynm,001,english,200,2022-05-06_09h20.14.230,Bayesian,2022.1.1,None,
,,,,73,0,73,0,,,,,,,,,,,,,,,,,,,,,,,,,,,True,0.013592833187431097,None,None,0,,408.3200814999873,409.3492878000252,None,1,409.3492878000252,408.3200814999873,,,nefynm,001,english,200,2022-05-06_09h20.14.230,Bayesian,2022.1.1,None,
,,,,74,0,74,0,,,,,,,,,,,,,,,,,,,,,,,,1231.1444133449168,-7.0,2.3996088094672076e-05,False,0.013650899985805154,None,None,0,,412.51397239998914,413.52307390002534,None,1,413.52307390002534,412.51397239998914,,,nefynm,001,english,200,2022-05-06_09h20.14.230,Bayesian,2022.1.1,None,
,,,,75,0,75,0,,,,,,,,,,,,,,,,,,,,,,,,353.5533905932738,-2.0,7.038727582816145e-05,False,0.0018736333586275578,None,None,0,,416.92945990001317,417.93860340001993,None,1,417.93860340001993,416.92945990001317,,,nefynm,001,english,200,2022-05-06_09h20.14.230,Bayesian,2022.1.1,None,
,,,,76,0,76,0,,,,,,,,,,,,,,,,,,,,,,,,574.3491774985172,-2.0,4.7537525293361234e-05,False,0.0022921665804460645,None,['space'],1,[0.703120700083673],421.8753908999497,422.8897904000478,None,1,422.8897904000478,421.8753908999497,,,nefynm,001,english,200,2022-05-06_09h20.14.230,Bayesian,2022.1.1,None,
,,,,77,0,77,0,,,,,,,,,,,,,,,,,,,,,,,,2000.0,-4.0,4.720304381429618e-05,False,0.0019768999191001058,0.19414789997972548,None,0,,427.7177314000437,428.7356729999883,None,1,428.7356729999883,427.7177314000437,,,nefynm,001,english,200,2022-05-06_09h20.14.230,Bayesian,2022.1.1,None,
,,,,78,0,78,0,,,,,,,,,,,,,,,,,,,,,,,,164.93848884661182,2.0,0.0004949282200622958,False,0.004470300045795739,None,None,0,,432.144030299969,433.17944259999786,None,1,433.17944259999786,432.144030299969,,,nefynm,001,english,200,2022-05-06_09h20.14.230,Bayesian,2022.1.1,None,
,,,,79,0,79,0,,,,,,,,,,,,,,,,,,,,,,,,125.0,1.0,0.0008109050486794653,False,0.004783199983648956,0.19547829998191446,None,0,,437.7103939000517,438.7196538000135,None,1,438.7196538000135,437.7103939000517,,,nefynm,001,english,200,2022-05-06_09h20.14.230,Bayesian,2022.1.1,None,
,,,,80,0,80,0,,,,,,,,,,,,,,,,,,,,,,,,870.5505632961246,6.0,8.055522766386251e-05,False,0.01650213322136551,None,None,0,,442.59751869994216,443.6145433000056,None,1,443.6145433000056,442.59751869994216,,,nefynm,001,english,200,2022-05-06_09h20.14.230,Bayesian,2022.1.1,None,
,,,,81,0,81,0,,,,,,,,,,,,,,,,,,,,,,,,2639.015821545789,5.0,0.00013738374372185104,False,0.00027130008675158024,0.18330990010872483,['space'],1,[0.5915838000364602],447.6190358999884,448.62959849997424,None,1,448.62959849997424,447.6190358999884,,,nefynm,001,english,200,2022-05-06_09h20.14.230,Bayesian,2022.1.1,None,
,,,,82,0,82,0,,,,,,,,,,,,,,,,,,,,,,,,4287.0938501451765,-6.0,5.197007826100645e-05,False,0.012266066740266979,None,['space'],1,[0.6260258000111207],453.15268800000194,454.1595207999926,None,1,454.1595207999926,453.15268800000194,,,nefynm,001,english,200,2022-05-06_09h20.14.230,Bayesian,2022.1.1,None,
,,,,83,0,83,0,,,,,,,,,,,,,,,,,,,,,,,,8000.0,-10.0,5.740768107484415e-05,False,0.009652466629631817,None,['space'],1,[0.6566342000151053],459.10538950003684,460.1178473000182,None,1,460.1178473000182,459.10538950003684,,,nefynm,001,english,200,2022-05-06_09h20.14.230,Bayesian,2022.1.1,None,
,,,,84,0,84,0,,,,,,,,,,,,,,,,,,,,,,,,,,,True,0.015818633371964097,None,None,0,,462.66979209997226,463.6787256000098,None,1,463.6787256000098,462.66979209997226,,,nefynm,001,english,200,2022-05-06_09h20.14.230,Bayesian,2022.1.1,None,
,,,,85,0,85,0,,,,,,,,,,,,,,,,,,,,,,,,307.7861033362292,3.0,0.00015010132972500563,False,0.014647266711108387,None,['space'],1,[0.7066888000117615],467.4246816999512,468.4406350000063,None,1,468.4406350000063,467.4246816999512,,,nefynm,001,english,200,2022-05-06_09h20.14.230,Bayesian,2022.1.1,None,
,,,,86,0,86,0,,,,,,,,,,,,,,,,,,,,,,,,125.0,2.0,0.000909850429304992,False,0.009308900102041662,None,None,0,,472.9015377999749,473.8991907000309,['space'],0,473.8991907000309,472.9015377999749,[0.8396128999302164],,nefynm,001,english,200,2022-05-06_09h20.14.230,Bayesian,2022.1.1,None,
,,,,87,0,87,0,,,,,,,,,,,,,,,,,,,,,,,,164.93848884661182,4.0,0.0006230777132504799,False,8.52999510243535e-05,0.18848769995383918,None,0,,477.6765258000232,478.6946056999732,['space'],0,478.6946056999732,477.6765258000232,[0.7962120999582112],,nefynm,001,english,200,2022-05-06_09h20.14.230,Bayesian,2022.1.1,None,
,,,,88,0,88,0,,,,,,,,,,,,,,,,,,,,,,,,933.0329915368076,7.0,9.436012066558641e-05,False,0.006855399813503027,None,None,0,,482.6273985999869,483.63438099995255,None,1,483.63438099995255,482.6273985999869,,,nefynm,001,english,200,2022-05-06_09h20.14.230,Bayesian,2022.1.1,None,
,,,,89,0,89,0,,,,,,,,,,,,,,,,,,,,,,,,6498.0191708498805,-12.0,3.4164270565414325e-05,False,0.005794933415018022,None,None,0,,488.2710475999629,489.2960099000484,None,1,489.2960099000484,488.2710475999629,,,nefynm,001,english,200,2022-05-06_09h20.14.230,Bayesian,2022.1.1,None,
,,,,90,0,90,0,,,,,,,,,,,,,,,,,,,,,,,,1866.0659830736151,-5.0,3.8668977259766345e-05,False,0.011170066660270095,None,None,0,,493.9243673000019,494.9215113000246,['space'],0,494.9215113000246,493.9243673000019,[0.13687339995522052],,nefynm,001,english,200,2022-05-06_09h20.14.230,Bayesian,2022.1.1,None,
,,,,91,0,91,0,,,,,,,,,,,,,,,,,,,,,,,,,,,True,0.0126266332808882,None,None,0,,497.32081169995945,498.32108799996786,None,1,498.32108799996786,497.32081169995945,,,nefynm,001,english,200,2022-05-06_09h20.14.230,Bayesian,2022.1.1,None,
,,,,92,0,92,0,,,,,,,,,,,,,,,,,,,,,,,,125.0,4.0,0.0011454338263838868,False,0.0023083999985828996,0.19049700000323355,None,0,,501.9680105999578,502.9618904000381,None,1,502.9618904000381,501.9680105999578,,,nefynm,001,english,200,2022-05-06_09h20.14.230,Bayesian,2022.1.1,None,
,,,,93,0,93,0,,,,,,,,,,,,,,,,,,,,,,,,1231.1444133449168,-5.0,3.020928508603416e-05,False,0.0003488666843622923,0.19459726673085243,None,0,,508.1736863000551,509.16914559993893,None,1,509.16914559993893,508.1736863000551,,,nefynm,001,english,200,2022-05-06_09h20.14.230,Bayesian,2022.1.1,None,
,,,,94,0,94,0,,,,,,,,,,,,,,,,,,,,,,,,933.0329915368076,9.0,0.0001187923537658707,False,0.004759533330798149,None,['space'],1,[0.6308757000369951],513.995303099975,515.0037481000181,None,1,515.0037481000181,513.995303099975,,,nefynm,001,english,200,2022-05-06_09h20.14.230,Bayesian,2022.1.1,None,
,,,,95,0,95,0,,,,,,,,,,,,,,,,,,,,,,,,,,,True,0.012655433383770287,None,None,0,,516.0998776999768,517.1132512999466,None,1,517.1132512999466,516.0998776999768,,,nefynm,001,english,200,2022-05-06_09h20.14.230,Bayesian,2022.1.1,None,
,,,,96,0,96,0,,,,,,,,,,,,,,,,,,,,,,,,125.0,5.0,0.0012851978913844323,False,0.010210033389739692,None,['space'],1,[0.5750503999879584],522.228561499971,523.241953699966,None,1,523.241953699966,522.228561499971,,,nefynm,001,english,200,2022-05-06_09h20.14.230,Bayesian,2022.1.1,None,
,,,,97,0,97,0,,,,,,,,,,,,,,,,,,,,,,,,535.8867312681471,-5.0,3.702812625480642e-05,False,0.00026180013082921505,None,None,0,,527.4443565000547,528.4540599000175,None,1,528.4540599000175,527.4443565000547,,,nefynm,001,english,200,2022-05-06_09h20.14.230,Bayesian,2022.1.1,None,
,,,,98,0,98,0,,,,,,,,,,,,,,,,,,,,,,,,4594.793419988137,-9.0,4.430394081148925e-05,False,0.012027999851852655,None,['space'],1,[0.7127507000695914],533.6255170999793,534.627471899963,None,1,534.627471899963,533.6255170999793,,,nefynm,001,english,200,2022-05-06_09h20.14.230,Bayesian,2022.1.1,None,
,,,,99,0,99,0,,,,,,,,,,,,,,,,,,,,,,,,,,,True,0.014426133246161044,None,None,0,,537.4169289999409,538.4302243000129,None,1,538.4302243000129,537.4169289999409,,,nefynm,001,english,200,2022-05-06_09h20.14.230,Bayesian,2022.1.1,None,
,,,,100,0,100,0,,,,,,,,,,,,,,,,,,,,,,,,1741.101126592249,-6.0,3.1635787586497645e-05,False,0.011486033210530877,None,['space'],1,[-0.3025488000130281],543.6337098999647,544.6311277999775,None,1,544.6311277999775,543.6337098999647,,,nefynm,001,english,200,2022-05-06_09h20.14.230,Bayesian,2022.1.1,None,
,,,,101,0,101,0,,,,,,,,,,,,,,,,,,,,,,,,406.12619817811805,-4.0,4.810503611239506e-05,False,0.010293866624124348,None,None,0,,548.3267953000031,549.3363840000238,None,1,549.3363840000238,548.3267953000031,,,nefynm,001,english,200,2022-05-06_09h20.14.230,Bayesian,2022.1.1,None,
,,,,102,0,102,0,,,,,,,,,,,,,,,,,,,,,,,,203.0630990890589,5.0,0.00046135863973359204,False,0.012753400020301342,None,None,0,,552.833284100052,553.8335100000259,['space'],0,553.8335100000259,552.833284100052,[0.7611768000060692],,nefynm,001,english,200,2022-05-06_09h20.14.230,Bayesian,2022.1.1,None,
,,,,103,0,103,0,,,,,,,,,,,,,,,,,,,,,,,,8000.0,-11.0,5.116464961403774e-05,False,0.016136599937453866,None,['space'],1,[0.6138916999334469],559.5332110000309,560.5406742000487,None,1,560.5406742000487,559.5332110000309,,,nefynm,001,english,200,2022-05-06_09h20.14.230,Bayesian,2022.1.1,None,
,,,,104,0,104,0,,,,,,,,,,,,,,,,,,,,,,,,3249.0095854249403,1.0,7.939092648083988e-05,False,0.014392833225429058,None,None,0,,565.6579499000218,566.6553574999562,None,1,566.6553574999562,565.6579499000218,,,nefynm,001,english,200,2022-05-06_09h20.14.230,Bayesian,2022.1.1,None,
,,,,105,0,105,0,,,,,,,,,,,,,,,,,,,,,,,,164.93848884661182,5.0,0.0006991046927313053,False,0.00782139995135367,None,"['space', 'space']",0,"[-2.8591890000971034, 0.7403934999601915]",572.3988278999459,573.4087744000135,None,1,573.4087744000135,572.3988278999459,,,nefynm,001,english,200,2022-05-06_09h20.14.230,Bayesian,2022.1.1,None,
,,,,106,0,106,0,,,,,,,,,,,,,,,,,,,,,,,,,,,True,0.01280313334427774,None,None,0,,576.0338505000109,577.0390173000051,None,1,577.0390173000051,576.0338505000109,,,nefynm,001,english,200,2022-05-06_09h20.14.230,Bayesian,2022.1.1,None,
,,,,107,0,107,0,,,,,,,,,,,,,,,,,,,,,,,,707.1067811865476,5.0,7.896084801026046e-05,False,0.004120533354580402,None,['space'],1,[0.7738830999005586],581.1007297999458,582.1111900999676,None,1,582.1111900999676,581.1007297999458,,,nefynm,001,english,200,2022-05-06_09h20.14.230,Bayesian,2022.1.1,None,
,,,,108,0,108,0,,,,,,,,,,,,,,,,,,,,,,,,6062.8662660415985,-11.0,3.3491538128955e-05,False,0.007236833334900439,None,None,0,,587.409502799972,588.4116657000268,['space'],0,588.4116657000268,587.409502799972,[0.9666959999594837],,nefynm,001,english,200,2022-05-06_09h20.14.230,Bayesian,2022.1.1,None,
,,,,109,0,109,0,,,,,,,,,,,,,,,,,,,,,,,,2462.2888266898335,4.0,0.00013481016779355918,False,0.015295633347705007,None,['space'],1,[0.8717475000303239],593.4027243000455,594.4069694000063,None,1,594.4069694000063,593.4027243000455,,,nefynm,001,english,200,2022-05-06_09h20.14.230,Bayesian,2022.1.1,None,
,,,,110,0,110,0,,,,,,,,,,,,,,,,,,,,,,,,287.17458874925893,3.0,0.00018094553253346707,False,0.01614906673785299,None,['space'],1,[0.6969504000153393],598.1054244999541,599.1162044999655,None,1,599.1162044999655,598.1054244999541,,,nefynm,001,english,200,2022-05-06_09h20.14.230,Bayesian,2022.1.1,None,
,,,,111,0,111,0,,,,,,,,,,,,,,,,,,,,,,,,8000.0,-12.0,4.560054196779548e-05,False,0.008577266708016396,None,['space'],1,[0.5666727999923751],603.5315018000547,604.5287252999842,None,1,604.5287252999842,603.5315018000547,,,nefynm,001,english,200,2022-05-06_09h20.14.230,Bayesian,2022.1.1,None,
,,,,112,0,112,0,,,,,,,,,,,,,,,,,,,,,,,,1231.1444133449168,-4.0,3.3895375357799394e-05,False,0.0019486999372020364,0.1969490998890251,None,0,,609.2141660000198,610.2270680000074,None,1,610.2270680000074,609.2141660000198,,,nefynm,001,english,200,2022-05-06_09h20.14.230,Bayesian,2022.1.1,None,
,,,,113,0,113,0,,,,,,,,,,,,,,,,,,,,,,,,,,,True,0.013188633369281888,None,None,0,,613.1006893999875,614.109490999952,None,1,614.109490999952,613.1006893999875,,,nefynm,001,english,200,2022-05-06_09h20.14.230,Bayesian,2022.1.1,None,
,,,,114,0,114,0,,,,,,,,,,,,,,,,,,,,,,,,466.5164957684038,-3.0,5.1790195950526384e-05,False,0.006653666612692177,None,['space'],1,[-0.5446048999438062],617.9869611000177,619.0027322999667,None,1,619.0027322999667,617.9869611000177,,,nefynm,001,english,200,2022-05-06_09h20.14.230,Bayesian,2022.1.1,None,
,,,,115,0,115,0,,,,,,,,,,,,,,,,,,,,,,,,8000.0,-14.0,3.622179800374953e-05,False,0.0040012666722759604,0.1964606666006148,['space'],1,[0.5710985999321565],623.0643532000249,624.0860170000233,None,1,624.0860170000233,623.0643532000249,,,nefynm,001,english,200,2022-05-06_09h20.14.230,Bayesian,2022.1.1,None,
,,,,116,0,116,0,,,,,,,,,,,,,,,,,,,,,,,,8000.0,-15.0,3.228271145173278e-05,False,0.012200933299027383,None,['space'],1,[0.8909598999889567],628.7754551999969,629.7863120000111,None,1,629.7863120000111,628.7754551999969,,,nefynm,001,english,200,2022-05-06_09h20.14.230,Bayesian,2022.1.1,None,
,,,,117,0,117,0,,,,,,,,,,,,,,,,,,,,,,,,,,,True,0.009240233339369297,None,None,0,,632.5071398,633.515451699961,None,1,633.515451699961,632.5071398,,,nefynm,001,english,200,2022-05-06_09h20.14.230,Bayesian,2022.1.1,None,
,,,,118,0,118,0,,,,,,,,,,,,,,,,,,,,,,,,8000.0,-16.0,2.8771996866857863e-05,False,0.009506033384241164,0.20378363330382854,['space'],1,[0.7956997000146657],639.0784174000146,640.0931736000348,None,1,640.0931736000348,639.0784174000146,,,nefynm,001,english,200,2022-05-06_09h20.14.230,Bayesian,2022.1.1,None,
,,,,119,0,119,0,,,,,,,,,,,,,,,,,,,,,,,,8000.0,-17.0,2.564306919956824e-05,False,0.002729766769334674,None,None,0,,644.5637096000137,645.5825482000364,None,1,645.5825482000364,644.5637096000137,,,nefynm,001,english,200,2022-05-06_09h20.14.230,Bayesian,2022.1.1,None,
,,,,120,0,120,0,,,,,,,,,,,,,,,,,,,,,,,,4594.793419988137,-10.0,3.9485928811261754e-05,False,0.016384866670705378,None,None,0,,649.8053851999575,650.7996844999725,['space'],0,650.7996844999725,649.8053851999575,[0.819898399990052],,nefynm,001,english,200,2022-05-06_09h20.14.230,Bayesian,2022.1.1,None,
,,,,121,0,121,0,,,,,,,,,,,,,,,,,,,,,,,,615.5722066724584,-2.0,4.2429353029554974e-05,False,0.004523000097833574,None,None,0,,656.3721501999535,657.383366300026,None,1,657.383366300026,656.3721501999535,,,nefynm,001,english,200,2022-05-06_09h20.14.230,Bayesian,2022.1.1,None,
,,,,122,0,122,0,,,,,,,,,,,,,,,,,,,,,,,,217.63764082403114,6.0,0.0004606795947767153,False,0.004791966755874455,None,['space'],1,[0.723664200049825],662.8469325000187,663.8699421000201,None,1,663.8699421000201,662.8469325000187,,,nefynm,001,english,200,2022-05-06_09h20.14.230,Bayesian,2022.1.1,None,
,,,,123,0,123,0,,,,,,,,,,,,,,,,,,,,,,,,3249.0095854249403,2.0,8.907808461563274e-05,False,0.005287099862471223,None,None,0,,669.1985786999576,670.2116814999608,None,1,670.2116814999608,669.1985786999576,,,nefynm,001,english,200,2022-05-06_09h20.14.230,Bayesian,2022.1.1,None,
,,,,124,0,124,0,,,,,,,,,,,,,,,,,,,,,,,,3249.0095854249403,2.0,8.907808461563274e-05,False,None,None,None,0,,None,None,None,1,None,None,,"{'estimation': [[125.0, 3.490574947021435], [133.9716828170366, 3.701383027368968], [143.5872943746293, 3.8834997196748597], [150.26072905298687, 4.0], [153.89305166811442, 4.062230116357715], [164.93848884661162, 4.245471099602025], [176.77669529663666, 4.418390781248929], [189.46457081379947, 4.5436193710008], [203.0630990890585, 4.567047562418643], [217.6376408240306, 4.432425410968461], [233.25824788420132, 4.096333932716702], [236.0750340037954, 4.0], [249.99999999999952, 3.5425115366814257], [262.7532848135983, 3.0], [267.94336563407256, 2.7855761298433617], [284.2542848858944, 2.0], [287.1745887492579, 1.8633989949281309], [304.20462851379733, 1.0], [307.78610333622805, 0.8241492997937548], [324.1468187175947, 0.0], [329.87697769322244, -0.2790727587142397], [345.01679690887096, -1.0], [353.55339059327247, -1.3928064231476451], [367.7942438109047, -2.0], [378.929141627598, -2.4583395123347813], [394.3170980225709, -3.0], [406.12619817811606, -3.4006431851803463], [430.3115719460063, -4.0], [435.2752816480601, -4.1189046615817055], [466.5164957684015, -4.487824520861921], [499.9999999999975, -4.381661082232782], [519.6085384576669, -4.0], [535.8867312681438, -3.6939269442827465], [556.063099997961, -3.0], [574.3491774985143, -2.3938880389558004], [583.021167238212, -2.0], [604.9471527094007, -1.0], [615.5722066724546, -0.541955017692146], [626.342934022669, 0.0], [645.8060340127513, 1.0], [659.7539553864424, 1.672047411979337], [666.5830943467377, 2.0], [686.766018056096, 3.0], [707.1067811865431, 3.9572337936197695], [708.1941642752912, 4.0], [733.1931936410588, 5.0], [757.8582832551941, 5.950290616201528], [759.828940544679, 6.0], [800.0496185371655, 7.0], [812.2523963562301, 7.291513861600708], [870.5505632961192, 7.688050401699729], [933.0329915368008, 7.000626279128747], [933.0570010418178, 7.0], [971.1987131401871, 6.0], [999.9999999999926, 5.26840669618649], [1007.7089773055735, 5.0], [1035.1819345278013, 4.0], [1063.0371301433786, 3.0], [1071.773462536285, 2.709070939796105], [1090.3063939561553, 2.0], [1114.79347036727, 1.0], [1140.2945886956823, 0.0], [1148.6983549970273, -0.300601928624148], [1168.2262812677636, -1.0], [1194.4077360672036, -2.0], [1221.6872532988607, -3.0], [1231.1444133449063, -3.3158889204704076], [1254.6452010294133, -4.0], [1287.7183544306786, -5.0], [1319.5079107728832, -5.8991879779381495], [1324.7407711510061, -6.0], [1376.2429453383497, -7.0], [1414.2135623730828, -7.707408705112304], [1449.0134837961168, -8.0], [1515.7165665103846, -8.541264201621859], [1624.5047927124563, -8.36522692462171], [1663.1872646513732, -8.0], [1741.101126592234, -7.291085129611108], [1761.489626834489, -7.0], [1831.6575405380108, -6.0], [1866.065983073597, -5.536272597428331], [1899.036593963354, -5.0], [1959.7253288564964, -4.0], [1999.9999999999802, -3.379585067018173], [2023.9731177854821, -3.0], [2085.440500278859, -2.0], [2143.5469250725646, -1.1100247341600686], [2151.6039323258155, -1.0], [2223.2556672714063, 0.0], [2297.396709994046, 0.9902111646074612], [2298.348592403902, 1.0], [2395.3886509799863, 2.0], [2462.2888266898062, 2.659301605231226], [2520.211726044628, 3.0], [2639.01582154576, 3.6759513373436903], [2828.427124746159, 3.8789194726919067], [3031.4331330207615, 3.2062315828907266], [3061.0821965063037, 3.0], [3206.0375075376896, 2.0], [3249.0095854249043, 1.715417315930713], [3327.6616494264335, 1.0], [3437.469219048464, 0.0], [3482.2022531844555, -0.38289971238194065], [3546.335824320182, -1.0], [3647.9381714525102, -2.0], [3732.1319661471844, -2.7721615146888583], [3758.442954904338, -3.0], [3870.736056838354, -4.0], [3988.2837983530353, -5.0], [3999.9999999999504, -5.093358819414161], [4132.154186472314, -6.0], [4283.380725056759, -7.0], [4287.093850145114, -7.023293788638507], [4505.418396930033, -8.0], [4594.793419988076, -8.382390716164998], [4851.6292827735515, -9.0], [4924.577653379601, -9.170160822114099], [5278.031643091506, -9.561128320733381], [5656.854249492303, -9.843154742345131], [5791.033078257021, -10.0], [6062.866266041516, -10.30635594943075], [6423.00116125447, -11.0], [6498.019170849792, -11.13947932704697], [6818.783394914535, -12.0], [6964.4045063688845, -12.370566715329081], [7170.246313840383, -13.0], [7464.2639322943505, -13.85385519425803], [7517.003537905499, -14.0], [7879.1918797690205, -15.0], [7999.999999999872, -15.323229806476323]], 'plus_line': [[125.0, -0.15869970291712288], [130.12633250590633, 0.0], [133.9716828170366, 0.10355429967728291], [143.5872943746293, 0.22578605035439026], [153.89305166811442, 0.36809341073558244], [164.93848884661162, 0.5629486667656335], [176.77669529663666, 0.7682406743681334], [189.46457081379947, 0.9147890579275374], [203.0630990890585, 0.9362771674047312], [217.6376408240306, 0.7833643804513737], [233.25824788420132, 0.4334422716632942], [246.369638490688, 0.0], [249.99999999999937, -0.12409720495730318], [267.94336563407256, -0.8923424009123281], [270.09865276903304, -1.0], [287.1745887492579, -1.8326241512277934], [290.3635084954199, -2.0], [307.78610333622805, -2.881697923667941], [310.06126340006375, -3.0], [329.87697769322244, -3.986774873884168], [330.1472145628047, -4.0], [351.16842195987584, -5.0], [353.55339059327247, -5.107560037442505], [374.7155333620183, -6.0], [378.929141627598, -6.169438044120827], [403.2646087607996, -7.0], [406.12619817811606, -7.095003899210493], [435.2752816480601, -7.802651346344089], [452.52564088674006, -8.0], [466.5164957684015, -8.167673178280863], [499.99999999999693, -8.055639666017427], [502.7653731197587, -8.0], [535.8867312681438, -7.3852788571805235], [547.2977900196462, -7.0], [574.3491774985143, -6.073924877477387], [576.0784891624454, -6.000000000000001], [598.8944083790914, -5.0], [615.5722066724546, -4.2287386526949], [620.5298774046089, -4.0], [640.8718566790378, -3.0], [659.7356703752357, -2.0], [659.7539553864432, -1.9991063460082918], [681.8170317185338, -1.0], [701.3838041288589, 0.0], [707.1067811865431, 0.27511952556829966], [726.4591558018762, 1.0], [750.9175414589056, 2.0], [757.8582832551941, 2.271046528698557], [787.4416114193302, 3.0], [812.2523963562301, 3.6116681134658815], [865.8347633155618, 4.0], [870.5505632961181, 4.03082779321533], [873.2922383173303, 4.0], [933.0329915368008, 3.3347448289578034], [945.2910121732358, 3.0], [982.9221396672579, 2.0], [999.9999999999926, 1.5933861294566145], [1015.4653140428683, 1.0], [1041.4122031403879, 0.0], [1071.773462536285, -0.9588232001640667], [1072.8155476135669, -1.0], [1095.6176881890126, -2.0], [1119.3667373430405, -3.0], [1148.698354997026, -3.976881643268989], [1149.3243136398319, -4.0], [1173.7208371826443, -5.0], [1199.0569543704723, -6.0], [1231.110793868316, -7.0], [1231.1444133449063, -7.000963143295636], [1261.8275118194374, -8.0], [1295.2209098058804, -9.0], [1319.5079107728832, -9.612282675775877], [1338.6234109007953, -10.0], [1389.4179330478994, -11.0], [1414.2135623730828, -11.43677383214689], [1482.0360641896434, -12.0], [1515.7165665103864, -12.277309481471914], [1624.5047927124563, -12.0910820503955], [1634.008754938265, -12.0], [1740.895750130752, -11.0], [1741.1011265922318, -10.998152489609781], [1813.5685421078333, -10.0], [1866.065983073597, -9.240828243668785], [1882.1115401350726, -9.0], [1944.7301910939009, -8.0], [1999.9999999999827, -7.062459866199062], [2004.3277776579323, -7.0], [2070.728236325087, -6.0], [2130.2669215873357, -5.0], [2143.5469250725646, -4.791812335867506], [2204.9523985808814, -4.0], [2274.93528366634, -3.0], [2297.396709994046, -2.693647509174646], [2367.746563431268, -2.0], [2462.2888266898062, -1.0117349374076148], [2464.2662924698016, -1.0], [2638.435540243577, 0.0], [2639.01582154576, 0.003219451166671994], [2828.427124746159, 0.1872618876220422], [2882.7428847679435, 0.0], [3031.4331330207615, -0.5151794525265053], [3098.3802543882034, -1.0], [3247.4424236447962, -2.0], [3249.0095854249043, -2.0100888960850707], [3349.529966219991, -3.0], [3466.182944441679, -4.0], [3482.2022531844555, -4.126901386890072], [3565.4176963843056, -5.0], [3669.2103067291464, -6.0], [3732.1319661471844, -6.521694046697371], [3783.726904917391, -7.0], [3893.034289292392, -8.0], [3999.9999999999504, -8.818998007243342], [4025.591320972492, -9.0], [4166.419843373801, -10.0], [4287.093850145118, -10.736030537018594], [4344.766225310729, -11.0], [4576.8640586453275, -12.0], [4594.793419988081, -12.072953642088885], [4924.577653379601, -12.848980133338955], [5063.964373403445, -13.0], [5278.031643091506, -13.239628760539631], [5656.854249492303, -13.528874089322795], [6062.866266041508, -13.98816555695968], [6068.891657271071, -14.0], [6498.019170849792, -14.826831888899683], [6562.776664337526, -15.0], [6956.239462943647, -16.0], [6964.404506368894, -16.01995314317742], [7285.7753980267225, -17.0], [7464.2639322943505, -17.493246848773737], [7632.230800105857, -18.0], [7979.485479930289, -19.0], [7999.999999999882, -19.057620684874333]], 'minus_line': [[125.0, 7.235301334656481], [133.9716828170366, 7.41440542990101], [143.5872943746293, 7.653457068872915], [153.89305166811442, 7.8539084698238675], [164.2852771477418, 8.0], [164.93848884661162, 8.009889788671488], [176.77669529663666, 8.154776130571465], [189.46457081379947, 8.259144637706553], [203.0630990890585, 8.271994750979642], [217.6376408240306, 8.124074571894896], [222.87200765746124, 8.0], [233.25824788420132, 7.783346824238508], [249.99999999999937, 7.230697753084937], [255.2657297430722, 7.0], [267.94336563407256, 6.482615146938091], [277.9007887470354, 6.0], [287.17458874925825, 5.569767559648621], [298.4920178529239, 5.0], [307.78610333622805, 4.544787970665167], [318.74714124788346, 4.0], [329.87697769322244, 3.4567823785717033], [339.59251896797963, 3.0], [353.55339059327247, 2.3538800625396474], [361.87861646625333, 2.0], [378.929141627598, 1.2916008756654316], [387.0737385639468, 1.0], [406.12619817811606, 0.3462733330071732], [419.4254875217378, 0.0], [435.2752816480596, -0.38348018160865854], [466.5164957684015, -0.7685934278807972], [499.9999999999975, -0.6713596716878489], [535.8867312681438, -0.011743786966878387], [536.220742510792, 0.0], [565.1261961301424, 1.0], [574.3491774985143, 1.2932046161510966], [589.0728749485704, 2.0], [612.2295509850978, 3.0], [615.5722066724546, 3.1335565035243276], [631.3398342588415, 4.0], [651.4646388314687, 5.0], [659.7539553864432, 5.363744374118202], [671.8661522747492, 6.0], [691.6155183738697, 7.0], [707.1067811865431, 7.667866510886797], [715.006653572452, 8.0], [738.8678661835844, 9.0], [757.8582832551941, 9.690718084888715], [769.7297670799783, 10.0], [810.1060399990246, 11.0], [812.2523963562301, 11.051164774506898], [870.5505632961181, 11.488189979070466], [914.7962761500874, 11.0], [933.0329915368008, 10.811800882511667], [965.6236489022733, 10.0], [999.9999999999926, 9.08380448526574], [1002.6478860055248, 9.0], [1032.7511741702324, 8.0], [1059.0302174206329, 7.0], [1071.773462536285, 6.535006272280972], [1087.5608477047574, 6.0], [1113.320481032524, 5.0], [1136.5059942156602, 4.0], [1148.698354997026, 3.5117912943958998], [1164.8436751755416, 3.0], [1192.446550400955, 2.0], [1217.2195553325973, 1.0], [1231.1444133449063, 0.47777465630956006], [1249.2379218183503, 0.0], [1283.2359390708837, -1.0], [1314.943848191706, -2.0], [1319.5079107728832, -2.1317472596537073], [1366.390759874719, -3.0], [1414.2135623730828, -3.948942925082952], [1420.1317754685497, -4.0], [1515.7165665103846, -4.774113005766862], [1624.5047927124563, -4.596760536605599], [1688.5161124315603, -4.0], [1741.1011265922318, -3.531559098907251], [1776.9415028582353, -3.0], [1849.8009404091915, -2.0], [1866.065983073597, -1.7947307911673307], [1911.4993508414625, -1.0], [1974.5077183021858, 0.0], [1999.9999999999802, 0.3584643448796032], [2037.3970010917892, 1.0], [2098.6485023275854, 2.0], [2143.5469250725646, 2.624916169941953], [2169.267363482611, 3.0], [2238.603128588447, 4.0], [2297.396709994046, 4.723815058857722], [2323.216019746585, 5.0], [2419.3597038242065, 6.0], [2462.2888266898062, 6.402067262412455], [2563.858607954023, 7.0], [2639.01582154576, 7.4271695077083395], [2828.427124746159, 7.6419219123692645], [3021.61879586472, 7.0], [3031.4331330207615, 6.96946394233067], [3175.8979141993686, 6.0], [3249.0095854249043, 5.500899209382398], [3307.784806770009, 5.0], [3416.0486351406353, 4.0], [3482.2022531844555, 3.3881318410251726], [3526.0129124439413, 3.0], [3629.4832397007094, 2.0], [3727.0037484654854, 1.0], [3732.1319661471844, 0.9519258817278275], [3847.7505255900505, 0.0], [3955.540915938493, -1.0], [3999.999999999946, -1.3901480225401661], [4094.0695478632692, -2.0], [4236.580099637582, -3.0], [4287.093850145118, -3.3421302807004185], [4437.749348325069, -4.0], [4594.793419988081, -4.696241408463429], [4721.919440676027, -5.0], [4924.577653379601, -5.458106850317568], [5278.0316430915, -5.817515219123928], [5549.447391932379, -6.000000000000001], [5656.854249492303, -6.064433379671023], [6062.866266041501, -6.485458885270464], [6317.733692885107, -7.0], [6498.019170849792, -7.3423808510388735], [6727.240478971597, -8.0], [6964.404506368894, -8.664203887750988], [7068.072890184544, -9.0], [7375.863588488169, -10.0], [7464.2639322943505, -10.271636560820127], [7732.251569250347, -11.0], [7999.999999999892, -11.735125130579524]]}",nefynm,001,english,200,2022-05-06_09h20.14.230,Bayesian,2022.1.1,None,
