sweeps.thisRepN,sweeps.thisTrialN,sweeps.thisN,sweeps.thisIndex,trials.thisRepN,trials.thisTrialN,trials.thisN,trials.thisIndex,instructions.started,instructions.stopped,blank_text.started,blank_text.stopped,Intervals,text.started,text.stopped,Delay,Prediction,isCatchTrial,len(y),finished_audiograms,probe.started,probe.stopped,feedback.keys,feedback.started,feedback.stopped,ISI.started,ISI.stopped,text_2.started,text_2.stopped,Frequency,Volume,Psychopy_level,feedback.rt,break_txt.started,break_txt.stopped,,Audiogram_time,Audiogram_both,participant,session,language (english or french),Resume previous experiment,date,expName,psychopyVersion,frameRate,
0,0,0,0,0,0,0,0,28.512943900190294,None,61.22046949993819,None,"[0.16666666666666666, 0.16666666666666666, 0.5833333333333334, 0.16666666666666666, 0.3333333333333333, 0.16666666666666666, 0.5833333333333334, 0.3333333333333333, 0.5833333333333334, 0.5833333333333334, 0.16666666666666666, 0.5833333333333334, 0.16666666666666666, 0.16666666666666666, 0.16666666666666666]",64.35166270006448,None,2.5036533159379193,time,1,26,[],0.023504219949245453,None,None,65.37454030010849,None,0.2363118203356862,2.7399651362736055,65.59608459984884,None,,,,,,,,,,eqdcwr,001,english,0,2022-05-24_14h53.53.792,Continuous,2022.1.1,35.81197563384986,
0,0,0,0,1,0,1,0,,,,,,,,2.5036533159379193,time,0,27,[],0.01851992029696703,None,None,68.09381340024993,68.09381340024993,0.22232642024755478,2.725979736185474,68.31390109984204,68.09381340024993,1259.0,0.45215560580041103,5.718654982852562e-05,,,,,,,eqdcwr,001,english,0,2022-05-24_14h53.53.792,Continuous,2022.1.1,35.81197563384986,
0,0,0,0,2,0,2,0,,,,,,,,2.5036533159379193,time,0,28,[],0.02329711988568306,None,['space'],70.81351260002702,70.81351260002702,0.23495871992781758,2.738612035865737,71.02972360001877,70.81351260002702,236.0,0.08427331185368936,0.00019681167731153574,[-2.040949100162834],,,,,,eqdcwr,001,english,0,2022-05-24_14h53.53.792,Continuous,2022.1.1,35.81197563384986,
0,0,0,0,3,0,3,0,,,,,,,,2.5036533159379193,time,0,29,[],0.023558219894766808,None,['space'],73.53343260008842,73.53343260008842,0.2305082194507122,2.7341615353886315,73.75420289998874,73.53343260008842,354.0,-1.0,7.887248739356936e-05,[-2.177253299858421],,,,,,eqdcwr,001,english,0,2022-05-24_14h53.53.792,Continuous,2022.1.1,35.81197563384986,
0,0,0,0,4,0,4,0,,,,,,,,2.5036533159379193,time,0,30,[],0.023394619580358267,None,['space'],76.25268039992079,76.25268039992079,0.23694121977314353,2.740594535711063,76.46953420015052,76.25268039992079,187.0,0.0028080761679316613,0.0003128890686389073,[-1.8319598003290594],,,,,,eqdcwr,001,english,0,2022-05-24_14h53.53.792,Continuous,2022.1.1,35.81197563384986,
0,0,0,0,5,0,5,0,,,,,,,,2.5036533159379193,time,0,31,[],0.020852620247751474,None,['space'],78.97453759983182,78.97453759983182,0.22679912019520998,2.7304524361331293,79.18874699994922,78.97453759983182,595.0,-0.5601099942724126,5.308846003534995e-05,[-2.224903099704534],,,,,,eqdcwr,001,english,0,2022-05-24_14h53.53.792,Continuous,2022.1.1,35.81197563384986,
0,0,0,0,6,0,6,0,,,,,,,,2.5036533159379193,time,0,32,[],0.023194119799882174,None,['space'],81.69171110028401,81.69171110028401,0.2292529195547104,2.7329062354926297,81.91185279982165,81.69171110028401,891.0,-0.1988320014797228,4.002760724895949e-05,[-0.957984599750489],,,,,,eqdcwr,001,english,0,2022-05-24_14h53.53.792,Continuous,2022.1.1,35.81197563384986,
0,0,0,0,7,0,7,0,,,,,,,,2.5036533159379193,time,0,33,[],0.023430120199918747,None,None,84.40874220011756,84.40874220011756,0.2382126203738153,2.7418659363117346,84.62936440017074,84.40874220011756,125.0,2.105366476906905,0.0009209548263311419,,,,,,,eqdcwr,001,english,0,2022-05-24_14h53.53.792,Continuous,2022.1.1,35.81197563384986,
0,0,0,0,8,0,8,0,,,,,,,,2.5036533159379193,time,0,34,[],0.022144519723951817,None,['space'],87.12995560001582,87.12995560001582,0.24086751975119114,2.7445208356891104,87.35004570009187,87.12995560001582,1122.0,-0.8145190907533689,4.475534019306816e-05,[-2.1083158999681473],,,,,,eqdcwr,001,english,0,2022-05-24_14h53.53.792,Continuous,2022.1.1,35.81197563384986,
0,0,0,0,9,0,9,0,,,,,,,,2.5036533159379193,time,0,35,[],0.023235519882291555,None,['space'],89.84810779988766,89.84810779988766,0.252134719863534,2.7557880358014533,90.07767459983006,89.84810779988766,1000.0,-0.2915280451380877,4.2598430878854705e-05,[-0.7718855999410152],,,,,,eqdcwr,001,english,0,2022-05-24_14h53.53.792,Continuous,2022.1.1,35.81197563384986,
1,0,1,0,0,0,0,0,,,,,"[0.16666666666666666, 0.5833333333333334, 0.3333333333333333, 0.5833333333333334, 0.16666666666666666, 0.5833333333333334, 0.3333333333333333, 0.5833333333333334, 0.5833333333333334, 0.3333333333333333, 0.16666666666666666, 0.16666666666666666, 0.16666666666666666, 0.5833333333333334, 0.3333333333333333]",97.04662459995598,None,1.7019122952917283,time,0,36,[],0.024467819835990667,None,None,98.06931350007653,None,0.23129391996189952,1.9332062152536278,98.27863139985129,None,812.0,0.03334061431817503,3.885800640276446e-05,,92.57956920005381,None,,,,eqdcwr,001,english,0,2022-05-24_14h53.53.792,Continuous,2022.1.1,35.81197563384986,
1,0,1,0,1,0,1,0,,,,,,,,1.7019122952917283,time,0,37,[],0.020890119951218367,0.21603342005982995,None,99.976747199893,99.976747199893,0.21603342005982995,1.9179457153515582,100.18418970005587,99.976747199893,322.0,1.3949788026143266,0.00011366890528612589,,,,,,,eqdcwr,001,english,0,2022-05-24_14h53.53.792,Continuous,2022.1.1,35.81197563384986,
1,0,1,0,2,0,2,0,,,,,,,,1.7019122952917283,time,0,38,[],0.02276661992073059,None,None,101.88892590021715,101.88892590021715,0.22595332004129887,1.9278656153330271,102.10407749982551,101.88892590021715,542.0,3.4844948982345527,9.692157677207749e-05,,,,,,,eqdcwr,001,english,0,2022-05-24_14h53.53.792,Continuous,2022.1.1,35.81197563384986,
1,0,1,0,3,0,3,0,,,,,,,,1.7019122952917283,time,0,39,[],0.02301741996780038,None,None,103.79621999990195,103.79621999990195,0.2192003196105361,1.9211126149022644,104.00918680010363,103.79621999990195,3248.0,0.31489736379911,7.335115355848233e-05,,,,,,,eqdcwr,001,english,0,2022-05-24_14h53.53.792,Continuous,2022.1.1,35.81197563384986,
1,0,1,0,4,0,4,0,,,,,,,,1.7019122952917283,time,1,39,[],0.02288622036576271,None,['space'],105.70995149994269,105.70995149994269,0.22684652032330632,1.9287588156150346,105.92260299995542,105.70995149994269,,,,[-1.3698638998903334],,,,,,eqdcwr,001,english,0,2022-05-24_14h53.53.792,Continuous,2022.1.1,35.81197563384986,
1,0,1,0,5,0,5,0,,,,,,,,1.7019122952917283,time,0,40,[],0.018058519810438156,None,None,107.62027239985764,107.62027239985764,0.23229512013494968,1.934207415426678,107.84904480027035,107.62027239985764,483.0,3.468253828918352,0.00010780307000359024,,,,,,,eqdcwr,001,english,0,2022-05-24_14h53.53.792,Continuous,2022.1.1,35.81197563384986,
1,0,1,0,6,0,6,0,,,,,,,,1.7019122952917283,time,0,41,[],0.022689719684422016,None,['space'],109.54374480014667,109.54374480014667,0.22044421965256333,1.9223565149442916,109.75637309998274,109.54374480014667,2297.0,0.0,8.139546291729739e-05,[-1.0118356999009848],,,,,,eqdcwr,001,english,0,2022-05-24_14h53.53.792,Continuous,2022.1.1,35.81197563384986,
1,0,1,0,7,0,7,0,,,,,,,,1.7019122952917283,time,0,42,[],0.02036752039566636,0.21301271999254823,['space'],111.45506750000641,111.45506750000641,0.21301271999254823,1.9149250152842765,111.6601010998711,111.45506750000641,1533.0,0.3830736987279043,5.339404737826017e-05,[-1.4904922996647656],,,,,,eqdcwr,001,english,0,2022-05-24_14h53.53.792,Continuous,2022.1.1,35.81197563384986,
1,0,1,0,8,0,8,0,,,,,,,,1.7019122952917283,time,0,43,[],0.022226119879633188,None,['space'],113.36184100015089,113.36184100015089,0.21799981966614723,1.9199121149578755,113.57328299991786,113.36184100015089,1023.0,-0.2697109766475729,4.363817385314388e-05,[-1.0773534998297691],,,,,,eqdcwr,001,english,0,2022-05-24_14h53.53.792,Continuous,2022.1.1,35.81197563384986,
1,0,1,0,9,0,9,0,,,,,,,,1.7019122952917283,time,0,44,[],0.02107011992484331,None,['space'],115.27630400005728,115.27630400005728,0.22231642017140985,1.9242287154631381,115.50371409999207,115.27630400005728,256.0,0.9536918331242608,0.00017982535808663242,[-0.9436368998140097],,,,,,eqdcwr,001,english,0,2022-05-24_14h53.53.792,Continuous,2022.1.1,35.81197563384986,
1,0,1,0,10,0,10,0,,,,,,,,1.7019122952917283,time,0,45,[],0.017739420291036367,None,['space'],117.1951226000674,117.1951226000674,0.22910372028127313,1.9310160155730014,117.41742650000378,117.1951226000674,2894.0,0.0,6.141106983191191e-05,[-1.310886399820447],,,,,,eqdcwr,001,english,0,2022-05-24_14h53.53.792,Continuous,2022.1.1,35.81197563384986,
1,0,1,0,11,0,11,0,,,,,,,,1.7019122952917283,time,0,46,[],0.02127081947401166,None,['space'],119.11166490009055,119.11166490009055,0.2263268195092678,1.928239114800996,119.33300600014627,119.11166490009055,171.0,0.9416649232379171,0.0004135489143946474,[-1.4114211001433432],,,,,,eqdcwr,001,english,0,2022-05-24_14h53.53.792,Continuous,2022.1.1,35.81197563384986,
1,0,1,0,12,0,12,0,,,,,,,,1.7019122952917283,time,0,47,[],0.021228219848126173,None,['space'],121.03177030012012,121.03177030012012,0.23817771952599287,1.9400900148177211,121.2483562999405,121.03177030012012,3646.0,0.0,7.772604839165949e-05,[-1.5227888999506831],,,,,,eqdcwr,001,english,0,2022-05-24_14h53.53.792,Continuous,2022.1.1,35.81197563384986,
1,0,1,0,13,0,13,0,,,,,,,,1.7019122952917283,time,0,48,[],0.022526919841766357,None,['space'],122.94098210008815,122.94098210008815,0.21683441987261176,1.91874671516434,123.15101859997958,122.94098210008815,7725.0,-1.1985385171622258,0.00015087899792343533,[-1.4331541997380555],,,,,,eqdcwr,001,english,0,2022-05-24_14h53.53.792,Continuous,2022.1.1,35.81197563384986,
1,0,1,0,14,0,14,0,,,,,,,,1.7019122952917283,time,0,49,[],0.014401520136743784,None,['space'],124.85924400016665,124.85924400016665,0.2082441197708249,1.9101564150625532,125.07420070003718,124.85924400016665,6131.0,-1.2331091144269863,0.00010589097818793508,[-1.3665091996081173],,,,,,eqdcwr,001,english,0,2022-05-24_14h53.53.792,Continuous,2022.1.1,35.81197563384986,
2,0,2,0,0,0,0,0,,,,,"[0.3333333333333333, 0.16666666666666666, 0.3333333333333333, 0.5833333333333334, 0.3333333333333333, 0.5833333333333334, 0.5833333333333334, 0.16666666666666666, 0.3333333333333333, 0.5833333333333334, 0.5833333333333334, 0.16666666666666666, 0.16666666666666666, 0.5833333333333334, 0.3333333333333333]",133.96630300022662,None,2.134749689532346,time,0,50,[],0.024451919831335545,None,['space'],134.990247100126,None,0.2220471198670566,2.3567968093994027,135.19918770017102,None,794.0,1.4765452259624527,4.580093739470418e-05,[-1.9444807996042073],126.77428130013868,None,,,,eqdcwr,001,english,0,2022-05-24_14h53.53.792,Continuous,2022.1.1,35.81197563384986,
2,0,2,0,1,0,1,0,,,,,,,,2.134749689532346,time,0,51,[],0.014939920045435429,None,['space'],137.33730740007013,137.33730740007013,0.2265857202000916,2.3613354097324377,137.56021479982883,137.33730740007013,530.0,3.1505309850823062,9.595627162222516e-05,[-1.0849752998910844],,,,,,eqdcwr,001,english,0,2022-05-24_14h53.53.792,Continuous,2022.1.1,35.81197563384986,
2,0,2,0,2,0,2,0,,,,,,,,2.134749689532346,time,0,52,[],0.019222520291805267,None,['space'],139.69005850004032,139.69005850004032,0.21995822014287114,2.3547079096752173,139.90482870023698,139.69005850004032,1887.0,1.8333229593361775,8.609104969371797e-05,[-1.5976221999153495],,,,,,eqdcwr,001,english,0,2022-05-24_14h53.53.792,Continuous,2022.1.1,35.81197563384986,
2,0,2,0,3,0,3,0,,,,,,,,2.134749689532346,time,0,53,[],0.021729319356381893,None,['space'],142.03546170005575,142.03546170005575,0.24058011965826154,2.3753298091906077,142.25859260000288,142.03546170005575,891.0,1.7361197338174301,5.0015799641368855e-05,[-1.8551059002056718],,,,,,eqdcwr,001,english,0,2022-05-24_14h53.53.792,Continuous,2022.1.1,35.81197563384986,
2,0,2,0,4,0,4,0,,,,,,,,2.134749689532346,time,0,54,[],0.020225720014423132,None,['space'],144.3885600999929,144.3885600999929,0.23054811963811517,2.3652978091704613,144.61137000005692,144.3885600999929,354.0,2.0,0.00011141034968120162,[-1.9041778999380767],,,,,,eqdcwr,001,english,0,2022-05-24_14h53.53.792,Continuous,2022.1.1,35.81197563384986,
2,0,2,0,5,0,5,0,,,,,,,,2.134749689532346,time,0,55,[],0.018608120270073414,None,['space'],146.74286619992927,146.74286619992927,0.23134432034566998,2.366094009878016,146.96287389984354,146.74286619992927,1498.0,1.5196237786334779,5.759667391588696e-05,[-1.8339737998321652],,,,,,eqdcwr,001,english,0,2022-05-24_14h53.53.792,Continuous,2022.1.1,35.81197563384986,
2,0,2,0,6,0,6,0,,,,,,,,2.134749689532346,time,0,56,[],0.018501820042729378,None,['space'],149.0950222001411,149.0950222001411,0.23241682024672627,2.3671665097790724,149.3151795999147,149.0950222001411,281.0,2.4055395980956606,0.00017760469522763844,[-1.8345402996055782],,,,,,eqdcwr,001,english,0,2022-05-24_14h53.53.792,Continuous,2022.1.1,35.81197563384986,
2,0,2,0,7,0,7,0,,,,,,,,2.134749689532346,time,0,57,[],0.02166131976991892,None,['space'],151.44520610012114,151.44520610012114,0.22958301985636353,2.3643327093887097,151.6660458999686,151.44520610012114,1000.0,0.4701577659506609,4.6502670380178916e-05,[-1.943689700216055],,,,,,eqdcwr,001,english,0,2022-05-24_14h53.53.792,Continuous,2022.1.1,35.81197563384986,
2,0,2,0,8,0,8,0,,,,,,,,2.134749689532346,time,0,58,[],0.021666619461029768,None,['space'],153.79791400022805,153.79791400022805,0.2396704195998609,2.374420109132207,154.01814780011773,153.79791400022805,167.0,2.018631000532126,0.0004865186876765464,[-1.9536240003071725],,,,,,eqdcwr,001,english,0,2022-05-24_14h53.53.792,Continuous,2022.1.1,35.81197563384986,
2,0,2,0,9,0,9,0,,,,,,,,2.134749689532346,time,1,58,[],0.022099019959568977,0.2150590200908482,['space'],156.1462131999433,156.1462131999433,0.2150590200908482,2.3498087096231943,156.35715770022944,156.1462131999433,,,,[-2.037762800231576],,,,,,eqdcwr,001,english,0,2022-05-24_14h53.53.792,Continuous,2022.1.1,35.81197563384986,
3,0,3,0,0,0,0,0,,,,,,160.56413039984182,None,1.5999179053199044,both,0,27,[],0.02437252039089799,None,None,161.59701990010217,None,0.2226859205402434,1.8226038258601478,161.80215470027179,None,708.0,-0.7721057387112495,4.05545629717727e-05,,158.48602649988607,None,0.16666666666666666,,,eqdcwr,001,english,0,2022-05-24_14h53.53.792,Continuous,2022.1.1,35.81197563384986,
3,0,3,0,1,0,1,0,,,,,,,,1.5999179053199044,both,0,28,[],0.021507219411432743,None,None,163.40037629986182,163.40037629986182,0.22725761961191893,1.8271755249318233,163.61064600013196,163.40037629986182,631.0,0.029899063703805684,5.1253079880335506e-05,,,,,,,eqdcwr,001,english,0,2022-05-24_14h53.53.792,Continuous,2022.1.1,35.81197563384986,
3,0,3,0,2,0,2,0,,,,,,,,1.5999179053199044,both,0,29,[],0.0206595198251307,None,None,165.21163110015914,165.21163110015914,0.22566602006554604,1.8255839253854504,165.43177369982004,165.21163110015914,562.0,2.378131387032549,8.122747944787e-05,,,,,,,eqdcwr,001,english,0,2022-05-24_14h53.53.792,Continuous,2022.1.1,35.81197563384986,
3,0,3,0,3,0,3,0,,,,,,,,1.5999179053199044,both,0,30,[],0.018020119983702898,None,None,167.03088250011206,167.03088250011206,0.239216519985348,1.8391344253052524,167.2625184999779,167.03088250011206,501.0,1.4749455554298385,8.448273362796223e-05,,,,,,,eqdcwr,001,english,0,2022-05-24_14h53.53.792,Continuous,2022.1.1,35.81197563384986,
3,0,3,0,4,0,4,0,,,,,,,,1.5999179053199044,both,0,31,[],0.014360119588673115,0.2126194196753204,None,168.8548515001312,168.8548515001312,0.2126194196753204,1.8125373249952248,169.07291430002078,168.8548515001312,446.0,5.377401391858497,0.0001378151407007483,,,,,,,eqdcwr,001,english,0,2022-05-24_14h53.53.792,Continuous,2022.1.1,35.81197563384986,
3,0,3,0,5,0,5,0,,,,,,,,1.5999179053199044,both,1,31,[],0.017184320371598005,0.21024212008342147,['space'],170.6697329999879,170.6697329999879,0.21024212008342147,1.8101600254033259,170.88389820000157,170.6697329999879,,,,[-1.1934978999197483],,,,,,eqdcwr,001,english,0,2022-05-24_14h53.53.792,Continuous,2022.1.1,35.81197563384986,
3,0,3,0,6,0,6,0,,,,,,,,1.5999179053199044,both,0,32,[],0.022742520552128553,None,None,172.47516389982775,172.47516389982775,0.2407693206332624,1.8406872259531668,172.6976429000497,172.47516389982775,354.0,-1.0,7.887248739356936e-05,,,,,,,eqdcwr,001,english,0,2022-05-24_14h53.53.792,Continuous,2022.1.1,35.81197563384986,
3,0,3,0,7,0,7,0,,,,,,,,1.5999179053199044,both,0,33,[],0.017810719553381205,None,['space'],174.2879755999893,174.2879755999893,0.2344529195688665,1.834370824888771,174.5165889998898,174.2879755999893,315.0,2.101800895928,0.00012562036447507784,[-1.1881133997812867],,,,,,eqdcwr,001,english,0,2022-05-24_14h53.53.792,Continuous,2022.1.1,35.81197563384986,
3,0,3,0,8,0,8,0,,,,,,,,1.5999179053199044,both,0,34,[],0.018354420084506273,None,['space'],176.10616949992254,176.10616949992254,0.23199022002518177,1.8319081253450862,176.32838700013235,176.10616949992254,281.0,-0.13096351214566715,0.00013262618804260335,[-1.14237040001899],,,,,,eqdcwr,001,english,0,2022-05-24_14h53.53.792,Continuous,2022.1.1,35.81197563384986,
3,0,3,0,9,0,9,0,,,,,,,,1.5999179053199044,both,0,35,[],0.014422520063817501,None,['space'],177.9304563002661,177.9304563002661,0.2239553197287023,1.8238732250486067,178.15525559987873,177.9304563002661,250.0,1.0032043148264949,0.00018798804009255318,[-1.334576899651438],,,,,,eqdcwr,001,english,0,2022-05-24_14h53.53.792,Continuous,2022.1.1,35.81197563384986,
3,0,3,0,10,0,10,0,,,,,,,,1.5999179053199044,both,0,36,[],0.013678120449185371,None,['space'],179.7503802999854,179.7503802999854,0.21229042019695044,1.8122083255168548,179.96669609984383,179.7503802999854,223.0,0.3697975351336417,0.00022996605358519549,[-1.370277099777013],,,,,,eqdcwr,001,english,0,2022-05-24_14h53.53.792,Continuous,2022.1.1,35.81197563384986,
3,0,3,0,11,0,11,0,,,,,,,,1.5999179053199044,both,0,37,[],0.020904019474983215,0.2147124195471406,['space'],181.56954189995304,181.56954189995304,0.2147124195471406,1.814630324867045,181.775162700098,181.56954189995304,199.0,0.716426242797924,0.00029221971266429165,[-1.3403759999200702],,,,,,eqdcwr,001,english,0,2022-05-24_14h53.53.792,Continuous,2022.1.1,35.81197563384986,
3,0,3,0,12,0,12,0,,,,,,,,1.5999179053199044,both,0,38,[],0.020601320080459118,None,['space'],183.37909370008856,183.37909370008856,0.21192642021924257,1.811844325539147,183.58782509993762,183.37909370008856,177.0,0.11074316191716083,0.00035368853094137204,[-1.3266174998134375],,,,,,eqdcwr,001,english,0,2022-05-24_14h53.53.792,Continuous,2022.1.1,35.81197563384986,
3,0,3,0,13,0,13,0,,,,,,,,1.5999179053199044,both,0,39,[],0.013935919851064682,None,['space'],185.1886684000492,185.1886684000492,0.22347691981121898,1.8233948251311234,185.41212989995256,185.1886684000492,158.0,-0.5664712417197308,0.00040184611996465515,[-1.400695700198412],,,,,,eqdcwr,001,english,0,2022-05-24_14h53.53.792,Continuous,2022.1.1,35.81197563384986,
3,0,3,0,14,0,14,0,,,,,,,,1.5999179053199044,both,0,40,[],0.01412161998450756,None,['space'],187.0063423998654,187.0063423998654,0.22343771997839212,1.8233556252982965,187.23175580007955,187.0063423998654,141.0,1.628220493759541,0.0006999141233547453,[-1.3531677997671068],,,,,,eqdcwr,001,english,0,2022-05-24_14h53.53.792,Continuous,2022.1.1,35.81197563384986,
4,0,4,0,0,0,0,0,,,,,"[0.3333333333333333, 0.3333333333333333, 0.3333333333333333, 0.16666666666666666, 0.5833333333333334, 0.16666666666666666, 0.5833333333333334, 0.3333333333333333, 0.5833333333333334, 0.3333333333333333, 0.16666666666666666, 0.16666666666666666, 0.16666666666666666, 0.3333333333333333, 0.16666666666666666]",191.80891489982605,None,2.002815265893961,none,0,27,[],0.024573620408773422,None,None,192.83565240027383,None,0.2513605202548206,2.2541757861487817,193.0670961001888,None,795.0,-0.33688283751513504,3.712715105368625e-05,,188.8254558001645,None,,,,eqdcwr,001,english,0,2022-05-24_14h53.53.792,Continuous,2022.1.1,35.81197563384986,
4,0,4,0,1,0,1,0,,,,,,,,2.6332140995775863,none,0,28,[],0.01568572036921978,0.20941122015938163,None,195.06306099984795,195.06306099984795,0.20941122015938163,2.842625319736968,195.27817940013483,195.06306099984795,446.0,4.180739621615852,0.00012007811019630274,,,,,,,eqdcwr,001,english,0,2022-05-24_14h53.53.792,Continuous,2022.1.1,35.81197563384986,
4,0,4,0,2,0,2,0,,,,,,,,1.1366557409772102,none,0,29,[],0.01915042009204626,None,['space'],197.91337840026245,197.91337840026245,0.21536981966346502,1.3520255606406753,198.1232731998898,197.91337840026245,187.0,-0.8087455523916254,0.0002849789021721579,[-2.3241783999837935],,,,,,eqdcwr,001,english,0,2022-05-24_14h53.53.792,Continuous,2022.1.1,35.81197563384986,
4,0,4,0,3,0,3,0,,,,,,,,1.2168860065828315,none,0,30,[],0.020740820094943047,None,['space'],199.2644572998397,199.2644572998397,0.22226771991699934,1.4391537264998309,199.48018540022895,199.2644572998397,562.0,-0.11216469597053358,6.0980105697331166e-05,[-0.8920074999332428],,,,,,eqdcwr,001,english,0,2022-05-24_14h53.53.792,Continuous,2022.1.1,35.81197563384986,
4,0,4,0,4,0,4,0,,,,,,,,1.7728067050928178,none,0,31,[],0.020957219880074263,None,None,200.69961749995127,200.69961749995127,0.21847091987729073,1.9912776249701085,200.90828920016065,200.69961749995127,354.0,-1.0,7.887248739356936e-05,,,,,,,eqdcwr,001,english,0,2022-05-24_14h53.53.792,Continuous,2022.1.1,35.81197563384986,
4,0,4,0,5,0,5,0,,,,,,,,1.1431112951452986,none,1,31,[],0.02094181999564171,None,None,202.68516049999744,202.68516049999744,0.219451820012182,1.3625631151574806,202.89573450013995,202.68516049999744,,,,,,,,,,eqdcwr,001,english,0,2022-05-24_14h53.53.792,Continuous,2022.1.1,35.81197563384986,
4,0,4,0,6,0,6,0,,,,,,,,1.0103533944455114,none,0,32,[],0.016676020342856646,0.20875872019678354,None,204.03944840002805,204.03944840002805,0.20875872019678354,1.219112114642295,204.25328799989074,204.03944840002805,631.0,-0.3983662930089835,4.87872905860365e-05,,,,,,,eqdcwr,001,english,0,2022-05-24_14h53.53.792,Continuous,2022.1.1,35.81197563384986,
4,0,4,0,7,0,7,0,,,,,,,,2.496171071114552,none,0,33,[],0.016626920085400343,0.20918521983549,None,205.25698669999838,205.25698669999838,0.20918521983549,2.705356290950042,205.46439989982173,205.25698669999838,125.0,1.7507886697949662,0.0008841163820757576,,,,,,,eqdcwr,001,english,0,2022-05-24_14h53.53.792,Continuous,2022.1.1,35.81197563384986,
4,0,4,0,8,0,8,0,,,,,,,,2.4684128278849853,none,0,34,[],0.020269319880753756,None,['space'],207.96495199995115,207.96495199995115,0.22329252026975155,2.691705348154737,208.18421360012144,207.96495199995115,892.0,-0.600489003239609,3.8245299807906654e-05,[-2.2568955002352595],,,,,,eqdcwr,001,english,0,2022-05-24_14h53.53.792,Continuous,2022.1.1,35.81197563384986,
4,0,4,0,9,0,9,0,,,,,,,,2.849187658201645,none,0,35,[],0.017040220089256763,None,None,210.64434670004994,210.64434670004994,0.22501962026581168,3.0742072784674566,210.8640246000141,210.64434670004994,501.0,-0.4811963180482186,6.744672465246158e-05,,,,,,,eqdcwr,001,english,0,2022-05-24_14h53.53.792,Continuous,2022.1.1,35.81197563384986,
5,0,5,0,0,0,0,0,,,,,,217.4106653998606,None,1.6893777875316016,both,0,41,[],0.020544120110571384,None,None,218.43569929990917,None,0.2198472199961543,1.909225007527756,218.6568883000873,None,5527.0,-4.530595594684105,7.912982848728445e-05,,213.71374850021675,None,0.5833333333333334,,,eqdcwr,001,english,0,2022-05-24_14h53.53.792,Continuous,2022.1.1,35.81197563384986,
5,0,5,0,1,0,1,0,,,,,,,,1.6893777875316016,both,0,42,[],0.020176919642835855,None,None,220.34758890001103,220.34758890001103,0.22054421994835138,1.909922007479953,220.56021270016208,220.34758890001103,3689.0,0.0,7.848087482703279e-05,,,,,,,eqdcwr,001,english,0,2022-05-24_14h53.53.792,Continuous,2022.1.1,35.81197563384986,
5,0,5,0,2,0,2,0,,,,,,,,1.6893777875316016,both,0,43,[],0.020357420202344656,None,['space'],222.24819889990613,222.24819889990613,0.22349072014912963,1.9128685076807312,222.46165780024603,222.24819889990613,2462.0,0.0,8.505306297983944e-05,[-1.2186441998928785],,,,,,eqdcwr,001,english,0,2022-05-24_14h53.53.792,Continuous,2022.1.1,35.81197563384986,
5,0,5,0,3,0,3,0,,,,,,,,1.6893777875316016,both,0,44,[],0.013036919757723808,None,['space'],224.14938009995967,224.14938009995967,0.22068601986393332,1.910063807395535,224.3758964999579,224.14938009995967,1643.0,0.4300593010233318,6.167125604396137e-05,[-1.4481632998213172],,,,,,eqdcwr,001,english,0,2022-05-24_14h53.53.792,Continuous,2022.1.1,35.81197563384986,
5,0,5,0,4,0,4,0,,,,,,,,1.6893777875316016,both,0,45,[],0.019974620081484318,None,['space'],226.05887590022758,226.05887590022758,0.2211868199519813,1.910564607483583,226.27496099984273,226.05887590022758,1097.0,0.0,4.81096746663167e-05,[-1.4865935002453625],,,,,,eqdcwr,001,english,0,2022-05-24_14h53.53.792,Continuous,2022.1.1,35.81197563384986,
5,0,5,0,5,0,5,0,,,,,,,,1.6893777875316016,both,0,46,[],0.01562091987580061,None,['space'],227.96381910005584,227.96381910005584,0.2179394201375544,1.907317207669156,228.18518400005996,227.96381910005584,732.0,1.6147177423698906,5.0845679811941486e-05,[-1.5437519997358322],,,,,,eqdcwr,001,english,0,2022-05-24_14h53.53.792,Continuous,2022.1.1,35.81197563384986,
5,0,5,0,6,0,6,0,,,,,,,,1.6893777875316016,both,0,47,[],0.019997019786387682,0.21634311974048615,['space'],229.8808713001199,229.8808713001199,0.21634311974048615,1.9057209072720878,230.09109289990738,229.8808713001199,489.0,2.5831860442449943,9.694660062029492e-05,[-1.3483705995604396],,,,,,eqdcwr,001,english,0,2022-05-24_14h53.53.792,Continuous,2022.1.1,35.81197563384986,
5,0,5,0,7,0,7,0,,,,,,,,1.6893777875316016,both,0,48,[],0.020218220073729753,None,['space'],231.7800503000617,231.7800503000617,0.220388219691813,1.9097660072234146,231.99184249993414,231.7800503000617,326.0,1.6067310979078364,0.00011522463845416175,[-1.4871404995210469],,,,,,eqdcwr,001,english,0,2022-05-24_14h53.53.792,Continuous,2022.1.1,35.81197563384986,
5,0,5,0,8,0,8,0,,,,,,,,1.6893777875316016,both,0,49,[],0.01887101959437132,0.21344191953539848,['space'],233.6838099998422,233.6838099998422,0.21344191953539848,1.902819707067,233.89219610020518,233.6838099998422,218.0,0.6544617459400646,0.00024819020491574867,[-1.48002569982782],,,,,,eqdcwr,001,english,0,2022-05-24_14h53.53.792,Continuous,2022.1.1,35.81197563384986,
5,0,5,0,9,0,9,0,,,,,,,,1.6893777875316016,both,1,49,[],0.020109020173549652,0.21318142022937536,['space'],235.58495600009337,235.58495600009337,0.21318142022937536,1.902559207760977,235.79199890000746,235.58495600009337,,,,[-1.4128883997909725],,,,,,eqdcwr,001,english,0,2022-05-24_14h53.53.792,Continuous,2022.1.1,35.81197563384986,
6,0,6,0,0,0,0,0,,,,,"[0.3333333333333333, 0.5833333333333334, 0.3333333333333333, 0.3333333333333333, 0.3333333333333333, 0.5833333333333334, 0.3333333333333333, 0.5833333333333334, 0.3333333333333333, 0.5833333333333334, 0.3333333333333333, 0.5833333333333334, 0.5833333333333334, 0.16666666666666666, 0.3333333333333333]",246.9075223999098,None,1.5261146934964382,none,0,36,[],0.024342219810932875,None,None,247.9114999002777,None,0.22860271949321032,1.7547174129896486,248.121027499903,None,1954.0,-0.07184384819514195,7.213560825399646e-05,,237.48615460004658,None,,,,eqdcwr,001,english,0,2022-05-24_14h53.53.792,Continuous,2022.1.1,35.81197563384986,
6,0,6,0,1,0,1,0,,,,,,,,2.928794268629019,none,0,37,[],0.014450419694185257,None,['space'],249.65434270026162,249.65434270026162,0.21300541935488582,3.1417996879839047,249.8722692001611,249.65434270026162,345.0,2.2287146052852664,0.0001174028808253127,[-0.8821598999202251],,,,,,eqdcwr,001,english,0,2022-05-24_14h53.53.792,Continuous,2022.1.1,35.81197563384986,
6,0,6,0,2,0,2,0,,,,,,,,1.340644938314053,none,0,38,[],0.016886519733816385,None,['space'],252.8050315999426,252.8050315999426,0.21557401958853006,1.5562189579025831,253.02166590001434,252.8050315999426,691.0,0.8330715225672953,5.0427218240068565e-05,[-2.584595500025898],,,,,,eqdcwr,001,english,0,2022-05-24_14h53.53.792,Continuous,2022.1.1,35.81197563384986,
6,0,6,0,3,0,3,0,,,,,,,,2.2265366181974358,none,0,39,[],0.019664920400828123,None,None,254.36658950010315,254.36658950010315,0.22406852012500167,2.4506051383224374,254.58028799993917,254.36658950010315,3689.0,0.0,7.848087482703279e-05,,,,,,,eqdcwr,001,english,0,2022-05-24_14h53.53.792,Continuous,2022.1.1,35.81197563384986,
6,0,6,0,4,0,4,0,,,,,,,,1.7436533950520359,none,0,40,[],0.016446820460259914,0.207524920348078,['space'],256.80957990000024,256.80957990000024,0.207524920348078,1.9511783154001139,257.0189074999653,256.80957990000024,548.0,1.4156431259185993,7.527799932535705e-05,[-1.9255695999599993],,,,,,eqdcwr,001,english,0,2022-05-24_14h53.53.792,Continuous,2022.1.1,35.81197563384986,
6,0,6,0,5,0,5,0,,,,,,,,2.4774169442273726,none,0,41,[],0.013006320223212242,0.20267652021721005,['space'],258.76796660013497,258.76796660013497,0.20267652021721005,2.6800934644445826,258.97894870024174,258.76796660013497,2462.0,0.0,8.505306297983944e-05,[-0.27624279959127307],,,,,,eqdcwr,001,english,0,2022-05-24_14h53.53.792,Continuous,2022.1.1,35.81197563384986,
6,0,6,0,6,0,6,0,,,,,,,,2.5398516965845417,none,0,42,[],0.016897019930183887,0.2071635201573372,None,261.44586989982054,261.44586989982054,0.2071635201573372,2.747015216741879,261.64896589983255,261.44586989982054,1035.0,-0.09864165972309788,4.500240828198927e-05,,,,,,,eqdcwr,001,english,0,2022-05-24_14h53.53.792,Continuous,2022.1.1,35.81197563384986,
6,0,6,0,7,0,7,0,,,,,,,,1.986294982559958,none,1,42,[],0.018457119818776846,0.20923131983727217,['space'],264.20020100008696,264.20020100008696,0.20923131983727217,2.19552630239723,264.4064110000618,264.20020100008696,,,,[-2.1639606999233365],,,,,,eqdcwr,001,english,0,2022-05-24_14h53.53.792,Continuous,2022.1.1,35.81197563384986,
6,0,6,0,8,0,8,0,,,,,,,,1.3989185349349225,none,0,43,[],0.020059920381754637,None,None,266.394575800281,266.394575800281,0.2185209202580154,1.6174394551929379,266.6075689001009,266.394575800281,6964.0,-0.39666213636982084,0.0001434333024347659,,,,,,,eqdcwr,001,english,0,2022-05-24_14h53.53.792,Continuous,2022.1.1,35.81197563384986,
6,0,6,0,9,0,9,0,,,,,,,,2.065941403134531,none,0,44,[],0.019469919614493847,None,None,268.01276359986514,268.01276359986514,0.21769131999462843,2.2836327231291595,268.22435209993273,268.01276359986514,230.0,0.6002587197650275,0.00022145376273313575,,,,,,,eqdcwr,001,english,0,2022-05-24_14h53.53.792,Continuous,2022.1.1,35.81197563384986,
6,0,6,0,10,0,10,0,,,,,,,,1.3195442893138822,none,0,45,[],0.012290720362216234,None,['space'],270.2980953999795,270.2980953999795,0.21105882013216615,1.5306031094460484,270.5076530999504,270.2980953999795,435.0,4.70150932898754,0.00012846343664606123,[-1.726245699916035],,,,,,eqdcwr,001,english,0,2022-05-24_14h53.53.792,Continuous,2022.1.1,35.81197563384986,
6,0,6,0,11,0,11,0,,,,,,,,2.8133802177934863,none,0,46,[],0.01905531994998455,0.21359201986342669,None,271.8860138002783,271.8860138002783,0.21359201986342669,3.026972237656913,272.0423949002288,271.8860138002783,4648.0,-0.22214247179213764,0.00012528099732046712,,,,,,,eqdcwr,001,english,0,2022-05-24_14h53.53.792,Continuous,2022.1.1,35.81197563384986,
7,0,7,0,0,0,0,0,,,,,,278.4728649999015,None,2.3385347972973403,both,0,50,[],0.023699820041656494,None,None,279.49163450021297,None,0.24916932033374906,2.5877041176310893,279.71902550011873,None,6649.0,-0.5569867433059486,0.00013185476367303864,,274.86132290028036,None,0.16666666666666666,,,eqdcwr,001,english,0,2022-05-24_14h53.53.792,Continuous,2022.1.1,35.81197563384986,
7,0,7,0,1,0,1,0,,,,,,,,2.3385347972973403,both,0,51,[],0.017182520125061274,None,['space'],282.05281200027093,282.05281200027093,0.22481002006679773,2.563344817364138,282.27380779990926,282.05281200027093,5924.0,1.2931124026604666,0.0001377225643930473,[-0.3919821996241808],,,,,,eqdcwr,001,english,0,2022-05-24_14h53.53.792,Continuous,2022.1.1,35.81197563384986,
7,0,7,0,2,0,2,0,,,,,,,,2.3385347972973403,both,0,52,[],0.01861932035535574,None,['space'],284.6162533001043,284.6162533001043,0.22744532022625208,2.5659801175235923,284.8370511000976,284.6162533001043,5278.0,2.0,0.00017938986881298888,[-0.05152779957279563],,,,,,eqdcwr,001,english,0,2022-05-24_14h53.53.792,Continuous,2022.1.1,35.81197563384986,
7,0,7,0,3,0,3,0,,,,,,,,2.3385347972973403,both,0,53,[],0.018444419838488102,None,None,287.17564330017194,287.17564330017194,0.22988682007417083,2.568421617371511,287.39324840018526,287.17564330017194,4702.0,1.4146932651782587,0.00015563374916302702,,,,,,,eqdcwr,001,english,0,2022-05-24_14h53.53.792,Continuous,2022.1.1,35.81197563384986,
7,0,7,0,4,0,4,0,,,,,,,,2.3385347972973403,both,0,54,[],0.01058721961453557,None,['space'],289.73723570024595,289.73723570024595,0.21581201953813434,2.5543468168354746,289.96718880021945,289.73723570024595,4189.0,0.3076482512190042,0.00010043974953017151,[-1.923708699643612],,,,,,eqdcwr,001,english,0,2022-05-24_14h53.53.792,Continuous,2022.1.1,35.81197563384986,
7,0,7,0,5,0,5,0,,,,,,,,2.3385347972973403,both,1,54,[],0.018705320078879595,0.21016682032495737,['space'],292.30691040027887,292.30691040027887,0.21016682032495737,2.5487016176222976,292.5148316998966,292.30691040027887,,,,[-2.0548847997561097],,,,,,eqdcwr,001,english,0,2022-05-24_14h53.53.792,Continuous,2022.1.1,35.81197563384986,
7,0,7,0,6,0,6,0,,,,,,,,2.3385347972973403,both,0,55,[],0.015888920053839684,0.2104198201559484,['space'],294.8511709999293,294.8511709999293,0.2104198201559484,2.5489546174532887,295.0676138000563,294.8511709999293,3325.0,1.7199042108583478,8.787743102655066e-05,[-0.6306764995679259],,,,,,eqdcwr,001,english,0,2022-05-24_14h53.53.792,Continuous,2022.1.1,35.81197563384986,
7,0,7,0,7,0,7,0,,,,,,,,2.3385347972973403,both,0,56,[],0.01726691983640194,None,['space'],297.4026794000529,297.4026794000529,0.2264835201203823,2.5650183174177226,297.6219076998532,297.4026794000529,2962.0,1.7631596163078807,7.00555783575672e-05,[-1.8945395001210272],,,,,,eqdcwr,001,english,0,2022-05-24_14h53.53.792,Continuous,2022.1.1,35.81197563384986,
7,0,7,0,8,0,8,0,,,,,,,,2.3385347972973403,both,0,57,[],0.012282319832593203,None,['space'],299.9621251001954,299.9621251001954,0.20646012015640736,2.5449949174537476,300.1765022999607,299.9621251001954,2639.0,0.7857980863115333,8.457281339755144e-05,[-2.0862278998829424],,,,,,eqdcwr,001,english,0,2022-05-24_14h53.53.792,Continuous,2022.1.1,35.81197563384986,
7,0,7,0,9,0,9,0,,,,,,,,2.3385347972973403,both,0,58,[],0.018558320123702288,0.20901912031695247,['space'],302.51917830016464,302.51917830016464,0.20901912031695247,2.5475539176142927,302.72084330022335,302.51917830016464,2351.0,-0.48494926074724215,7.810756990540483e-05,[-2.122474899981171],,,,,,eqdcwr,001,english,0,2022-05-24_14h53.53.792,Continuous,2022.1.1,35.81197563384986,
7,0,7,0,10,0,10,0,,,,,,,,2.3385347972973403,both,0,59,[],0.017887819558382034,None,['space'],305.0575687000528,305.0575687000528,0.23236741963773966,2.57090221693508,305.2775977998972,305.0575687000528,2095.0,-0.2949191353861444,7.43498650293068e-05,[-2.0538600995205343],,,,,,eqdcwr,001,english,0,2022-05-24_14h53.53.792,Continuous,2022.1.1,35.81197563384986,
8,0,8,0,0,0,0,0,,,,,,313.79616270028055,None,1.0164462459454864,frequency,0,27,[],0.02423001965507865,None,None,314.81319590006024,None,0.24577941978350282,1.2622256657289892,315.03520070016384,None,1416.0,-0.6279289253225357,4.68738446810493e-05,,307.61031170003116,None,0.3333333333333333,,,eqdcwr,001,english,0,2022-05-24_14h53.53.792,Continuous,2022.1.1,35.81197563384986,
8,0,8,0,1,0,1,0,,,,,,,,2.067535306829821,frequency,0,28,[],0.018188420217484236,0.20815492002293468,['space'],316.05003320006654,316.05003320006654,0.20815492002293468,2.2756902268527557,316.24800579994917,316.05003320006654,1124.0,-0.11678063070154654,4.858142556505999e-05,[-0.4536612001247704],,,,,,eqdcwr,001,english,0,2022-05-24_14h53.53.792,Continuous,2022.1.1,35.81197563384986,
8,0,8,0,2,0,2,0,,,,,,,,1.394702613512397,frequency,0,29,[],0.016443419735878706,None,['space'],318.3274539001286,318.3274539001286,0.23400912014767528,1.6287117336600723,318.54674640018493,318.3274539001286,892.0,-0.730950578888311,3.767515007510543e-05,[-1.7061429996974766],,,,,,eqdcwr,001,english,0,2022-05-24_14h53.53.792,Continuous,2022.1.1,35.81197563384986,
8,0,8,0,3,0,3,0,,,,,,,,2.0736567388181992,frequency,0,30,[],0.01783121982589364,None,None,319.93912270013243,319.93912270013243,0.23985221982002258,2.313508958638222,320.1616972000338,319.93912270013243,708.0,-0.6494819975069583,4.113115572658625e-05,,,,,,,eqdcwr,001,english,0,2022-05-24_14h53.53.792,Continuous,2022.1.1,35.81197563384986,
8,0,8,0,4,0,4,0,,,,,,,,2.746266808125431,frequency,0,31,[],0.014047919772565365,None,['space'],322.2319602998905,322.2319602998905,0.2097569196484983,2.956023727773929,322.4443403999321,322.2319602998905,562.0,-0.3536266138545878,5.9308245540490435e-05,[-0.25186439976096153],,,,,,eqdcwr,001,english,0,2022-05-24_14h53.53.792,Continuous,2022.1.1,35.81197563384986,
8,0,8,0,5,0,5,0,,,,,,,,2.793402087766478,frequency,0,32,[],0.017019520048052073,None,None,325.1961850998923,325.1961850998923,0.20912922034040093,3.002531308106879,325.402881400194,325.1961850998923,446.0,3.2277719532487263,0.00010760079024281166,,,,,,,eqdcwr,001,english,0,2022-05-24_14h53.53.792,Continuous,2022.1.1,35.81197563384986,
8,0,8,0,6,0,6,0,,,,,,,,2.0449066482484586,frequency,0,33,[],0.015278419945389032,0.20577212003991008,"['space', 'space']",328.20043840026483,328.20043840026483,0.20577212003991008,2.2506787682883687,328.403035200201,328.20043840026483,354.0,-1.0,7.887248739356936e-05,"[-2.3405983997508883, -0.24410220002755523]",,,,,,eqdcwr,001,english,0,2022-05-24_14h53.53.792,Continuous,2022.1.1,35.81197563384986,
8,0,8,0,7,0,7,0,,,,,,,,1.6949889483537703,frequency,0,34,[],0.01638981979340315,0.20487731974571943,['space'],330.45185820013285,330.45185820013285,0.20487731974571943,1.8998662680994898,330.65549180004746,330.45185820013285,281.0,2.1771644180164293,0.00017299584952727424,[-0.023356399964541197],,,,,,eqdcwr,001,english,0,2022-05-24_14h53.53.792,Continuous,2022.1.1,35.81197563384986,
8,0,8,0,8,0,8,0,,,,,,,,2.1551984753656104,frequency,0,35,[],0.01646922016516328,None,None,332.3544793999754,332.3544793999754,0.21732612000778317,2.3725245953733936,332.5722421002574,332.3544793999754,223.0,0.48307518367124136,0.00023298481416099957,,,,,,,eqdcwr,001,english,0,2022-05-24_14h53.53.792,Continuous,2022.1.1,35.81197563384986,
8,0,8,0,9,0,9,0,,,,,,,,2.637399779021098,frequency,0,36,[],0.018082220572978258,None,['space'],334.7347762999125,334.7347762999125,0.21747982036322355,2.8548795993843217,334.94286839989945,334.7347762999125,177.0,0.8406052297330081,0.0003846928199653694,[-1.8190557998605072],,,,,,eqdcwr,001,english,0,2022-05-24_14h53.53.792,Continuous,2022.1.1,35.81197563384986,
8,0,8,0,10,0,10,0,,,,,,,,1.533278288663297,frequency,0,37,[],0.018028720282018185,None,['space'],337.59068970009685,337.59068970009685,0.2202025200240314,1.7534808086873284,337.7983617000282,337.59068970009685,140.0,2.9646938167267622,0.0008288595603826235,[-2.4427356994710863],,,,,,eqdcwr,001,english,0,2022-05-24_14h53.53.792,Continuous,2022.1.1,35.81197563384986,
8,0,8,0,11,0,11,0,,,,,,,,1.034498180548913,frequency,1,37,[],0.014509319793432951,0.20531241968274117,['space'],339.329694500193,339.329694500193,0.20531241968274117,1.2398106002316542,339.53883079998195,339.329694500193,,,,[-1.0779245998710394],,,,,,eqdcwr,001,english,0,2022-05-24_14h53.53.792,Continuous,2022.1.1,35.81197563384986,
9,0,9,0,0,0,0,0,,,,,"[0.3333333333333333, 0.16666666666666666, 0.3333333333333333, 0.5833333333333334, 0.3333333333333333, 0.5833333333333334, 0.3333333333333333, 0.16666666666666666, 0.16666666666666666, 0.5833333333333334, 0.16666666666666666, 0.5833333333333334, 0.16666666666666666, 0.5833333333333334, 0.3333333333333333]",345.83071500016376,None,1.3056764778070897,time,0,59,[],0.024522119667381048,None,None,346.8565611001104,None,0.22961191972717643,1.5352883975342662,347.071692999918,None,4925.0,-4.0,9.312022870449567e-05,,340.56756829982623,None,,,,eqdcwr,001,english,0,2022-05-24_14h53.53.792,Continuous,2022.1.1,35.81197563384986,
9,0,9,0,1,0,1,0,,,,,,,,1.3056764778070897,time,0,60,[],0.012936119921505451,None,None,348.37832920020446,348.37832920020446,0.21383792022243142,1.5195143980295212,348.5907107000239,348.37832920020446,871.0,-0.5347026740170758,3.7974842538939217e-05,,,,,,,eqdcwr,001,english,0,2022-05-24_14h53.53.792,Continuous,2022.1.1,35.81197563384986,
9,0,9,0,2,0,2,0,,,,,,,,1.3056764778070897,time,0,61,[],0.01743802009150386,None,None,349.9071597000584,349.9071597000584,0.2256501200608909,1.5313265978679806,350.1207944001071,349.9071597000584,776.0,0.20451761200546004,4.039946367986477e-05,,,,,,,eqdcwr,001,english,0,2022-05-24_14h53.53.792,Continuous,2022.1.1,35.81197563384986,
9,0,9,0,3,0,3,0,,,,,,,,1.3056764778070897,time,0,62,[],0.01783711975440383,None,None,351.4238169998862,351.4238169998862,0.21815461991354823,1.523831097720638,351.63220999995247,351.4238169998862,1097.0,-3.354016174563769,3.269878466942059e-05,,,,,,,eqdcwr,001,english,0,2022-05-24_14h53.53.792,Continuous,2022.1.1,35.81197563384986,
9,0,9,0,4,0,4,0,,,,,,,,1.3056764778070897,time,0,63,[],0.016325419768691063,None,None,352.9431082000956,352.9431082000956,0.215488419868052,1.5211648976751417,353.15968029992655,352.9431082000956,3103.0,-1.83053810839887,5.230135866459707e-05,,,,,,,eqdcwr,001,english,0,2022-05-24_14h53.53.792,Continuous,2022.1.1,35.81197563384986,
9,0,9,0,5,0,5,0,,,,,,,,1.3056764778070897,time,0,64,[],0.014676319435238838,None,['space'],354.4621327999048,354.4621327999048,0.21323411958292127,1.518910597390011,354.68135440023616,354.4621327999048,2071.0,-0.5949912603226049,7.132836478357006e-05,[-1.0813551996834576],,,,,,eqdcwr,001,english,0,2022-05-24_14h53.53.792,Continuous,2022.1.1,35.81197563384986,
9,0,9,0,6,0,6,0,,,,,,,,1.3056764778070897,time,1,64,[],0.013474119361490011,0.20921041956171393,['space'],355.9855611999519,355.9855611999519,0.20921041956171393,1.5148868973688037,356.20010530017316,355.9855611999519,,,,[-1.0937618999741971],,,,,,eqdcwr,001,english,0,2022-05-24_14h53.53.792,Continuous,2022.1.1,35.81197563384986,
9,0,9,0,7,0,7,0,,,,,,,,1.3056764778070897,time,0,65,[],0.01493171975016594,None,['space'],357.50504660001025,357.50504660001025,0.21607481967657804,1.5217512974836678,357.7309161000885,357.50504660001025,7379.0,-3.924468302120834,0.00010356291771185855,[-0.7008627997711301],,,,,,eqdcwr,001,english,0,2022-05-24_14h53.53.792,Continuous,2022.1.1,35.81197563384986,
9,0,9,0,8,0,8,0,,,,,,,,1.3056764778070897,time,0,66,[],0.016495519783347845,None,None,359.03312639985234,359.03312639985234,0.21121532004326582,1.5168917978503555,359.24027720000595,359.03312639985234,4388.0,-2.3495683878035516,8.441535892475458e-05,,,,,,,eqdcwr,001,english,0,2022-05-24_14h53.53.792,Continuous,2022.1.1,35.81197563384986,
9,0,9,0,9,0,9,0,,,,,,,,1.3056764778070897,time,0,67,[],0.008746719919145107,None,None,360.56061050016433,360.56061050016433,0.20619932003319263,1.5118757978402824,360.7726965001784,360.56061050016433,1644.0,-2.7672575421968193,4.27121010279051e-05,,,,,,,eqdcwr,001,english,0,2022-05-24_14h53.53.792,Continuous,2022.1.1,35.81197563384986,
10,0,10,0,0,0,0,0,,,,,"[0.5833333333333334, 0.5833333333333334, 0.3333333333333333, 0.16666666666666666, 0.3333333333333333, 0.3333333333333333, 0.5833333333333334, 0.5833333333333334, 0.5833333333333334, 0.3333333333333333, 0.5833333333333334, 0.3333333333333333, 0.16666666666666666, 0.16666666666666666, 0.3333333333333333]",365.0252823000774,None,1.133621133088757,time,1,67,[],0.01858551986515522,0.20986511977389455,None,366.0544893001206,None,0.20986511977389455,1.3434862528626514,366.27226189989597,None,,,,,362.0858514001593,None,,,,eqdcwr,001,english,0,2022-05-24_14h53.53.792,Continuous,2022.1.1,35.81197563384986,
10,0,10,0,1,0,1,0,,,,,,,,1.133621133088757,time,0,68,[],0.017336420249193907,None,None,367.40551189985126,367.40551189985126,0.22555552003905177,1.3591766531278087,367.6204609000124,367.40551189985126,384.0,3.0105104597370387,0.00011414127962140205,,,,,,,eqdcwr,001,english,0,2022-05-24_14h53.53.792,Continuous,2022.1.1,35.81197563384986,
10,0,10,0,2,0,2,0,,,,,,,,1.133621133088757,time,0,69,[],0.010760920122265816,0.20669962000101805,['space'],368.7519137999043,368.7519137999043,0.20669962000101805,1.340320753089775,368.97146649984643,368.7519137999043,256.0,1.0456921969126165,0.0001817401792140592,[-0.04329639999195933],,,,,,eqdcwr,001,english,0,2022-05-24_14h53.53.792,Continuous,2022.1.1,35.81197563384986,
10,0,10,0,3,0,3,0,,,,,,,,1.133621133088757,time,0,70,[],0.013479319866746664,0.2107291198335588,None,370.0996020999737,370.0996020999737,0.2107291198335588,1.3443502529223157,370.3155326000415,370.0996020999737,543.0,0.6185906770741525,6.951523093957637e-05,,,,,,,eqdcwr,001,english,0,2022-05-24_14h53.53.792,Continuous,2022.1.1,35.81197563384986,
10,0,10,0,4,0,4,0,,,,,,,,1.133621133088757,time,0,71,[],0.010574220214039087,None,['space'],371.4554850002751,371.4554850002751,0.20775022031739354,1.3413713534061504,371.67933560023084,371.4554850002751,484.0,-5.100740742380646,4.0167464491682385e-05,[-0.7314515998587012],,,,,,eqdcwr,001,english,0,2022-05-24_14h53.53.792,Continuous,2022.1.1,35.81197563384986,
10,0,10,0,5,0,5,0,,,,,,,,1.133621133088757,time,0,72,[],0.013930719811469316,0.2105750199407339,['space'],372.814766000025,372.814766000025,0.2105750199407339,1.3441961530294908,373.0264987000264,372.814766000025,203.0,-6.0,0.00013009048986491176,[-0.5067845997400582],,,,,,eqdcwr,001,english,0,2022-05-24_14h53.53.792,Continuous,2022.1.1,35.81197563384986,
10,0,10,0,6,0,6,0,,,,,,,,1.133621133088757,time,0,73,[],0.016550019849091768,None,['space'],374.1661792998202,374.1661792998202,0.2238570200279355,1.3574781531166924,374.3815577002242,374.1661792998202,609.0,-4.574839550445587,3.215003007492486e-05,[-0.33815590012818575],,,,,,eqdcwr,001,english,0,2022-05-24_14h53.53.792,Continuous,2022.1.1,35.81197563384986,
10,0,10,0,7,0,7,0,,,,,,,,1.133621133088757,time,0,74,[],0.015986219979822636,None,['space'],375.5176677000709,375.5176677000709,0.219948620069772,1.353569753158529,375.73371020006016,375.5176677000709,135.0,-3.814493893032054,0.0004084635819499611,[0.030104900244623423],,,,,,eqdcwr,001,english,0,2022-05-24_14h53.53.792,Continuous,2022.1.1,35.81197563384986,
10,0,10,0,8,0,8,0,,,,,,,,1.133621133088757,time,0,75,[],0.012699420098215342,None,None,376.87440120009705,376.87440120009705,0.21135431993752718,1.344975453026284,377.09197239996865,376.87440120009705,767.0,0.14184980286769977,4.05249937590686e-05,,,,,,,eqdcwr,001,english,0,2022-05-24_14h53.53.792,Continuous,2022.1.1,35.81197563384986,
11,0,11,0,0,0,0,0,,,,,,381.49030590010807,None,2.554796979652383,both,0,60,[],0.024117920082062483,None,None,382.5250685000792,None,0.22406702022999525,2.778863999882378,382.726809900254,None,5279.0,-4.8568467879465915,8.144101294571828e-05,,378.23151700012386,None,0.3333333333333333,,,eqdcwr,001,english,0,2022-05-24_14h53.53.792,Continuous,2022.1.1,35.81197563384986,
11,0,11,0,1,0,1,0,,,,,,,,2.554796979652383,both,0,61,[],0.015823920257389545,None,None,385.2944280002266,385.2944280002266,0.2188258203677833,2.773622800020166,385.5056948000565,385.2944280002266,4190.0,-2.1724125948372652,7.554586663242081e-05,,,,,,,eqdcwr,001,english,0,2022-05-24_14h53.53.792,Continuous,2022.1.1,35.81197563384986,
11,0,11,0,2,0,2,0,,,,,,,,2.554796979652383,both,0,62,[],0.016731019597500563,None,['space'],388.06168830022216,388.06168830022216,0.22296061972156167,2.7777575993739445,388.27957849996164,388.06168830022216,3326.0,-1.0831780531177406,6.365448026147367e-05,[-2.2253867997787893],,,,,,eqdcwr,001,english,0,2022-05-24_14h53.53.792,Continuous,2022.1.1,35.81197563384986,
11,0,11,0,3,0,3,0,,,,,,,,2.554796979652383,both,0,63,[],0.017005419824272394,0.20647531980648637,['space'],390.83085220027715,390.83085220027715,0.20647531980648637,2.761272299458869,391.0319900000468,390.83085220027715,2640.0,-2.479072164365351,5.802802574240169e-05,[-2.281812199857086],,,,,,eqdcwr,001,english,0,2022-05-24_14h53.53.792,Continuous,2022.1.1,35.81197563384986,
11,0,11,0,4,0,4,0,,,,,,,,2.554796979652383,both,0,64,[],0.01323642022907734,None,['space'],393.58692010026425,393.58692010026425,0.21301172021776438,2.767808699870147,393.807515299879,393.58692010026425,2095.0,-2.582196814578432,5.713685089438316e-05,[-2.3668142994865775],,,,,,eqdcwr,001,english,0,2022-05-24_14h53.53.792,Continuous,2022.1.1,35.81197563384986,
11,0,11,0,5,0,5,0,,,,,,,,2.554796979652383,both,0,65,[],0.016940420027822256,0.20758241973817348,['space'],396.37008380005136,396.37008380005136,0.20758241973817348,2.7623793993905563,396.574187700171,396.37008380005136,1663.0,-0.7259796330564161,5.4816613370086735e-05,[-2.318210399709642],,,,,,eqdcwr,001,english,0,2022-05-24_14h53.53.792,Continuous,2022.1.1,35.81197563384986,
11,0,11,0,6,0,6,0,,,,,,,,2.554796979652383,both,0,66,[],0.01294762035831809,None,['space'],399.12803550018,399.12803550018,0.22368022007867694,2.7784771997310598,399.34862510021776,399.12803550018,1320.0,-5.0,2.967551315828762e-05,[-2.2195716998539865],,,,,,eqdcwr,001,english,0,2022-05-24_14h53.53.792,Continuous,2022.1.1,35.81197563384986,
11,0,11,0,7,0,7,0,,,,,,,,2.554796979652383,both,0,67,[],0.013977820053696632,None,['space'],401.91534700011835,401.91534700011835,0.21635052002966404,2.771147499682047,402.1332144001499,401.91534700011835,1048.0,-3.9120162244740566,2.9357866766880895e-05,[-2.2238324000500143],,,,,,eqdcwr,001,english,0,2022-05-24_14h53.53.792,Continuous,2022.1.1,35.81197563384986,
11,0,11,0,8,0,8,0,,,,,,,,2.554796979652383,both,0,68,[],0.016169019974768162,None,['space'],404.69376190006733,404.69376190006733,0.21977311978116632,2.774570099433549,404.90637100022286,404.69376190006733,832.0,-4.570366582650024,2.3207391102740556e-05,[-2.153784899972379],,,,,,eqdcwr,001,english,0,2022-05-24_14h53.53.792,Continuous,2022.1.1,35.81197563384986,
11,0,11,0,9,0,9,0,,,,,,,,2.554796979652383,both,0,69,[],0.016191319562494755,None,['space'],407.46310510020703,407.46310510020703,0.22043951973319054,2.7752364993855734,407.6773578999564,407.46310510020703,660.0,-2.4171493794574994,3.6744085382565106e-05,[-2.3786663999781013],,,,,,eqdcwr,001,english,0,2022-05-24_14h53.53.792,Continuous,2022.1.1,35.81197563384986,
11,0,11,0,10,0,10,0,,,,,,,,2.554796979652383,both,0,70,[],0.010968119837343693,None,None,410.2427492002025,410.2427492002025,0.21055701980367303,2.765353999456056,410.4572411002591,410.2427492002025,524.0,-0.0675652829473572,6.71761058471526e-05,,,,,,,eqdcwr,001,english,0,2022-05-24_14h53.53.792,Continuous,2022.1.1,35.81197563384986,
11,0,11,0,11,0,11,0,,,,,,,,2.554796979652383,both,0,71,[],0.01616742042824626,0.2071354202926159,None,413.01991000026464,413.01991000026464,0.2071354202926159,2.7619323999449987,413.22409470006824,413.01991000026464,416.0,3.9581632568775036,0.0001194580051406297,,,,,,,eqdcwr,001,english,0,2022-05-24_14h53.53.792,Continuous,2022.1.1,35.81197563384986,
11,0,11,0,12,0,12,0,,,,,,,,2.554796979652383,both,0,72,[],0.014548019971698523,None,['space'],415.77461440023035,415.77461440023035,0.20803811959922314,2.762835099251606,415.98414900014177,415.77461440023035,330.0,-1.9169893015306805,7.596688657802596e-05,[-1.5146767999976873],,,,,,eqdcwr,001,english,0,2022-05-24_14h53.53.792,Continuous,2022.1.1,35.81197563384986,
11,0,11,0,13,0,13,0,,,,,,,,2.554796979652383,both,0,73,[],0.011694420129060745,0.20868292031809688,None,418.54657430015504,418.54657430015504,0.20868292031809688,2.7634798999704797,418.76602560002357,418.54657430015504,262.0,-0.14396475987481683,0.00015222571304776024,,,,,,,eqdcwr,001,english,0,2022-05-24_14h53.53.792,Continuous,2022.1.1,35.81197563384986,
11,0,11,0,14,0,14,0,,,,,,,,2.554796979652383,both,1,73,[],0.013146319892257452,0.20143061969429255,['space'],421.3165616998449,421.3165616998449,0.20143061969429255,2.7562275993466754,421.52353050000966,421.3165616998449,,,,[0.008908399846404791],,,,,,eqdcwr,001,english,0,2022-05-24_14h53.53.792,Continuous,2022.1.1,35.81197563384986,
12,0,12,0,0,0,0,0,,,,,"[0.16666666666666666, 0.5833333333333334, 0.3333333333333333, 0.5833333333333334, 0.5833333333333334, 0.3333333333333333, 0.3333333333333333, 0.16666666666666666, 0.5833333333333334, 0.5833333333333334, 0.5833333333333334, 0.16666666666666666, 0.5833333333333334, 0.3333333333333333, 0.16666666666666666]",428.25440600002185,None,2.3943089650265224,time,0,76,[],0.024385320022702217,None,None,429.26517160004005,None,0.23044821992516518,2.6247571849516875,429.4753049998544,None,945.0,-7.0062515505237934,1.8965592160705682e-05,,424.0733643998392,None,,,,eqdcwr,001,english,0,2022-05-24_14h53.53.792,Continuous,2022.1.1,35.81197563384986,
12,0,12,0,1,0,1,0,,,,,,,,2.3943089650265224,time,0,77,[],0.012859920039772987,0.20382582023739815,None,431.8769089002162,431.8769089002162,0.20382582023739815,2.5981347852639205,432.08710350003093,431.8769089002162,177.0,-13.0,7.817786737526911e-05,,,,,,,eqdcwr,001,english,0,2022-05-24_14h53.53.792,Continuous,2022.1.1,35.81197563384986,
12,0,12,0,2,0,2,0,,,,,,,,2.3943089650265224,time,0,78,[],0.009943719953298569,0.19225791981443763,None,434.4875948000699,434.4875948000699,0.19225791981443763,2.58656688484096,434.68239270010963,434.4875948000699,446.0,0.5781689817657414,7.931134452567658e-05,,,,,,,eqdcwr,001,english,0,2022-05-24_14h53.53.792,Continuous,2022.1.1,35.81197563384986,
12,0,12,0,3,0,3,0,,,,,,,,2.3943089650265224,time,0,79,[],0.012549220118671656,None,None,437.0814272998832,437.0814272998832,0.2234881198965013,2.6177970849230237,437.3092014999129,437.0814272998832,265.0,-11.453432375517572,4.055117804443583e-05,,,,,,,eqdcwr,001,english,0,2022-05-24_14h53.53.792,Continuous,2022.1.1,35.81197563384986,
12,0,12,0,4,0,4,0,,,,,,,,2.3943089650265224,time,0,80,[],0.012043420225381851,0.2005763202905655,None,439.7019719998352,439.7019719998352,0.2005763202905655,2.594885285317088,439.908015999943,439.7019719998352,397.0,-4.552749303070201,4.57855585315887e-05,,,,,,,eqdcwr,001,english,0,2022-05-24_14h53.53.792,Continuous,2022.1.1,35.81197563384986,
12,0,12,0,5,0,5,0,,,,,,,,2.3943089650265224,time,0,81,[],0.012039320077747107,0.1949777198024094,None,442.30416580010206,442.30416580010206,0.1949777198024094,2.5892866848289318,442.5119635001756,442.30416580010206,668.0,-6.6240305367619055,2.2311048653608923e-05,,,,,,,eqdcwr,001,english,0,2022-05-24_14h53.53.792,Continuous,2022.1.1,35.81197563384986,
12,0,12,0,6,0,6,0,,,,,,,,2.3943089650265224,time,1,81,[],0.016156119760125875,0.20422051986679435,None,444.90436200005934,444.90436200005934,0.20422051986679435,2.5985294848933167,445.1034405999817,444.90436200005934,,,,,,,,,,eqdcwr,001,english,0,2022-05-24_14h53.53.792,Continuous,2022.1.1,35.81197563384986,
12,0,12,0,7,0,7,0,,,,,,,,2.3943089650265224,time,0,82,[],0.012822120450437069,0.20209462009370327,None,447.5074946000241,447.5074946000241,0.20209462009370327,2.5964035851202256,447.7123648002744,447.5074946000241,842.0,-8.185411192161883,1.5417196069795394e-05,,,,,,,eqdcwr,001,english,0,2022-05-24_14h53.53.792,Continuous,2022.1.1,35.81197563384986,
13,0,13,0,0,0,0,0,,,,,"[0.5833333333333334, 0.3333333333333333, 0.16666666666666666, 0.5833333333333334, 0.16666666666666666, 0.3333333333333333, 0.3333333333333333, 0.5833333333333334, 0.16666666666666666, 0.5833333333333334, 0.3333333333333333, 0.3333333333333333, 0.5833333333333334, 0.5833333333333334, 0.5833333333333334]",455.17256700014696,None,2.4245644659421015,none,1,46,[],0.024783820379525423,None,None,456.1961540998891,None,0.22322362009435892,2.6477880860364604,456.40468150004745,None,,,,,450.10417640022933,None,,,,eqdcwr,001,english,0,2022-05-24_14h53.53.792,Continuous,2022.1.1,35.81197563384986,
13,0,13,0,1,0,1,0,,,,,,,,1.9374172822301068,none,0,47,[],0.01723942020907998,0.21444692043587565,None,458.83777650026605,458.83777650026605,0.21444692043587565,2.1518642026659824,459.0437193000689,458.83777650026605,631.0,1.890314363269538,6.349517623543244e-05,,,,,,,eqdcwr,001,english,0,2022-05-24_14h53.53.792,Continuous,2022.1.1,35.81197563384986,
13,0,13,0,2,0,2,0,,,,,,,,2.538183079195645,none,0,48,[],0.0156139200553298,None,None,460.9889674000442,460.9889674000442,0.22056032018736005,2.758743399383005,461.2063696999103,460.9889674000442,158.0,2.5018480637395335,0.000572105001646423,,,,,,,eqdcwr,001,english,0,2022-05-24_14h53.53.792,Continuous,2022.1.1,35.81197563384986,
13,0,13,0,3,0,3,0,,,,,,,,1.487512629908878,none,0,49,[],0.006793519947677851,None,['space'],463.7584325000644,463.7584325000644,0.2135822200216353,1.7010948499305132,463.9818346002139,463.7584325000644,334.0,1.6374046339633916,0.00011312453936441168,[-2.298727599903941],,,,,,eqdcwr,001,english,0,2022-05-24_14h53.53.792,Continuous,2022.1.1,35.81197563384986,
13,0,13,0,4,0,4,0,,,,,,,,1.49346366849154,none,0,50,[],0.01121912058442831,None,['space'],465.4701608000323,465.4701608000323,0.2108550202101469,1.704318688701687,465.68457400007173,465.4701608000323,265.0,1.0566050855241447,0.00017120062601313178,[-1.177921500056982],,,,,,eqdcwr,001,english,0,2022-05-24_14h53.53.792,Continuous,2022.1.1,35.81197563384986,
13,0,13,0,5,0,5,0,,,,,,,,2.321686602431615,none,0,51,[],0.011656519956886768,None,['space'],467.18581270007417,467.18581270007417,0.21835161978378892,2.540038222215404,467.41603810014203,467.18581270007417,945.0,-0.022675723124169295,4.23784627138111e-05,[-1.1263008997775614],,,,,,eqdcwr,001,english,0,2022-05-24_14h53.53.792,Continuous,2022.1.1,35.81197563384986,
13,0,13,0,6,0,6,0,,,,,,,,2.008006104015728,none,0,52,[],0.010695720091462135,0.20621292013674974,['space'],469.7344919000752,469.7344919000752,0.20621292013674974,2.2142190241524777,469.95404990017414,469.7344919000752,421.0,4.838375636005111,0.00013175235622364187,[0.10234009986743331],,,,,,eqdcwr,001,english,0,2022-05-24_14h53.53.792,Continuous,2022.1.1,35.81197563384986,
13,0,13,0,7,0,7,0,,,,,,,,1.5765885436124925,none,0,53,[],0.00664152018725872,0.1995494202710688,None,471.9646601001732,471.9646601001732,0.1995494202710688,1.7761379638835613,472.1771650998853,471.9646601001732,1416.0,0.12867801290774172,5.114002353364955e-05,,,,,,,eqdcwr,001,english,0,2022-05-24_14h53.53.792,Continuous,2022.1.1,35.81197563384986,
13,0,13,0,8,0,8,0,,,,,,,,1.4619309025821154,none,0,54,[],0.011964719742536545,0.1949750198982656,None,473.7543508000672,473.7543508000672,0.1949750198982656,1.656905922480381,473.95541069982573,473.7543508000672,177.0,0.0,0.00034920770625886783,,,,,,,eqdcwr,001,english,0,2022-05-24_14h53.53.792,Continuous,2022.1.1,35.81197563384986,
14,0,14,0,0,0,0,0,,,,,,487.3801751998253,None,1.6522388558942709,frequency,0,38,[],0.02452391991391778,None,None,488.3902815999463,None,0.22002621972933412,1.872265075623605,488.5991195999086,None,5278.0,-1.6588399197061365,0.00011772153498605705,,475.42071999982,None,0.16666666666666666,,,eqdcwr,001,english,0,2022-05-24_14h53.53.792,Continuous,2022.1.1,35.81197563384986,
14,0,14,0,1,0,1,0,,,,,,,,2.068081633006422,frequency,0,39,[],0.011210420168936253,None,None,490.25630300026387,490.25630300026387,0.22090142033994198,2.2889830533463638,490.48058529989794,490.25630300026387,4702.0,-1.375160293054563,0.00011287846674720111,,,,,,,eqdcwr,001,english,0,2022-05-24_14h53.53.792,Continuous,2022.1.1,35.81197563384986,
14,0,14,0,2,0,2,0,,,,,,,,2.239163622764952,frequency,0,40,[],0.011721719987690449,0.19436162011697888,['space'],492.54347599996254,492.54347599996254,0.19436162011697888,2.433525242881931,492.7396956998855,492.54347599996254,4189.0,-1.0170261796123397,8.623268315036738e-05,[-1.8263443997129798],,,,,,eqdcwr,001,english,0,2022-05-24_14h53.53.792,Continuous,2022.1.1,35.81197563384986,
14,0,14,0,3,0,3,0,,,,,,,,1.9105138842577192,frequency,0,41,[],0.014682919718325138,0.2097004195675254,['space'],494.9885618998669,494.9885618998669,0.2097004195675254,2.120214303825245,495.19845120003447,494.9885618998669,3732.0,-0.03726227203845224,7.889650996011676e-05,[-1.856839899905026],,,,,,eqdcwr,001,english,0,2022-05-24_14h53.53.792,Continuous,2022.1.1,35.81197563384986,
14,0,14,0,4,0,4,0,,,,,,,,2.052771654812755,frequency,0,42,[],0.014222620520740747,0.20147252036258578,['space'],497.1102474001236,497.1102474001236,0.20147252036258578,2.254244175175341,497.3141443999484,497.1102474001236,3325.0,0.44682588391279554,7.589679489057242e-05,[-1.698636299930513],,,,,,eqdcwr,001,english,0,2022-05-24_14h53.53.792,Continuous,2022.1.1,35.81197563384986,
14,0,14,0,5,0,5,0,,,,,,,,2.8828248160164938,frequency,0,43,[],0.01002592034637928,None,['space'],499.37255260022357,499.37255260022357,0.21859432011842728,3.101419136134921,499.59790460020304,499.37255260022357,2962.0,0.2044974911260698,5.854767003662669e-05,[-1.9203419000841677],,,,,,eqdcwr,001,english,0,2022-05-24_14h53.53.792,Continuous,2022.1.1,35.81197563384986,
14,0,14,0,6,0,6,0,,,,,,,,2.253173415422383,frequency,0,44,[],0.015255719888955355,0.2043627197854221,['space'],502.48143649986014,502.48143649986014,0.2043627197854221,2.457536135207805,502.68292349996045,502.48143649986014,2639.0,0.0,7.725753970277922e-05,[-2.677444600034505],,,,,,eqdcwr,001,english,0,2022-05-24_14h53.53.792,Continuous,2022.1.1,35.81197563384986,
14,0,14,0,7,0,7,0,,,,,,,,2.613864245046107,frequency,0,45,[],0.011205619666725397,0.19437381951138377,['space'],504.93897200003266,504.93897200003266,0.19437381951138377,2.8082380645574907,505.14188149990514,504.93897200003266,2351.0,-0.5391868319505815,7.762135998158467e-05,[-2.087063799612224],,,,,,eqdcwr,001,english,0,2022-05-24_14h53.53.792,Continuous,2022.1.1,35.81197563384986,
14,0,14,0,8,0,8,0,,,,,,,,1.8193793889560541,frequency,0,46,[],0.011155019979923964,0.19454941991716623,['space'],507.7610748000443,507.7610748000443,0.19454941991716623,2.0139288088732203,507.95897389994934,507.7610748000443,2095.0,-0.2918870605308467,7.437582364927497e-05,[-2.428368399851024],,,,,,eqdcwr,001,english,0,2022-05-24_14h53.53.792,Continuous,2022.1.1,35.81197563384986,
14,0,14,0,9,0,9,0,,,,,,,,2.3004234958931638,frequency,0,47,[],0.01487801969051361,0.20240991981700063,['space'],509.78835349995643,509.78835349995643,0.20240991981700063,2.5028334157101644,509.9920518002473,509.78835349995643,1866.0,0.08785752055997707,6.946031440003188e-05,[-1.6568958000279963],,,,,,eqdcwr,001,english,0,2022-05-24_14h53.53.792,Continuous,2022.1.1,35.81197563384986,
14,0,14,0,10,0,10,0,,,,,,,,2.263558155742776,frequency,0,48,[],0.01090501993894577,0.1943896198645234,None,512.29484029999,512.29484029999,0.1943896198645234,2.4579477756072996,512.498833599966,512.29484029999,1662.0,0.376396339372963,6.218731779268971e-05,,,,,,,eqdcwr,001,english,0,2022-05-24_14h53.53.792,Continuous,2022.1.1,35.81197563384986,
14,0,14,0,11,0,11,0,,,,,,,,1.2505128927043616,frequency,0,49,[],0.011373419780284166,0.19405731977894902,['space'],514.7675962001085,514.7675962001085,0.19405731977894902,1.4445702124833106,514.9656444001012,514.7675962001085,1481.0,0.8508000854610902,5.3793601227829815e-05,[-1.8678367999382317],,,,,,eqdcwr,001,english,0,2022-05-24_14h53.53.792,Continuous,2022.1.1,35.81197563384986,
14,0,14,0,12,0,12,0,,,,,,,,2.610292511287937,frequency,0,50,[],0.009720719885081053,0.19601931981742382,['space'],516.224822900258,516.224822900258,0.19601931981742382,2.806311831105361,516.4300123001449,516.224822900258,1319.0,0.02318239186266491,5.293728046773718e-05,[-0.8451562998816371],,,,,,eqdcwr,001,english,0,2022-05-24_14h53.53.792,Continuous,2022.1.1,35.81197563384986,
14,0,14,0,13,0,13,0,,,,,,,,2.627372161993856,frequency,1,50,[],0.014817120041698217,0.20668241987004876,['space'],519.0482179000974,519.0482179000974,0.20668241987004876,2.8340545818639047,519.2552963001654,519.0482179000974,,,,[-2.3001358001492918],,,,,,eqdcwr,001,english,0,2022-05-24_14h53.53.792,Continuous,2022.1.1,35.81197563384986,
14,0,14,0,14,0,14,0,,,,,,,,1.3891823034818958,frequency,0,51,[],0.016028419602662325,None,None,521.8842346998863,521.8842346998863,0.20900641940534115,1.598188722887237,522.0918330000713,521.8842346998863,1047.0,-0.061220965090939244,4.569510683857707e-05,,,,,,,eqdcwr,001,english,0,2022-05-24_14h53.53.792,Continuous,2022.1.1,35.81197563384986,
15,0,15,0,0,0,0,0,,,,,"[0.16666666666666666, 0.5833333333333334, 0.3333333333333333, 0.16666666666666666, 0.3333333333333333, 0.5833333333333334, 0.16666666666666666, 0.3333333333333333, 0.16666666666666666, 0.16666666666666666, 0.3333333333333333, 0.5833333333333334, 0.5833333333333334, 0.16666666666666666, 0.3333333333333333]",527.4522815998644,None,1.386426774349405,time,0,83,[],0.023980219848454,None,None,528.4755456000566,None,0.24369332008063793,1.630120094430043,528.7009793999605,None,349.0,-3.0432747892800176,6.32536607334886e-05,,523.486921499949,None,,,,eqdcwr,001,english,0,2022-05-24_14h53.53.792,Continuous,2022.1.1,35.81197563384986,
15,0,15,0,1,0,1,0,,,,,,,,1.386426774349405,time,1,83,[],0.011231319978833199,0.1955849202349782,None,530.083680999931,530.083680999931,0.1955849202349782,1.5820116945843832,530.2873130999506,530.083680999931,,,,,,,,,,eqdcwr,001,english,0,2022-05-24_14h53.53.792,Continuous,2022.1.1,35.81197563384986,
15,0,15,0,2,0,2,0,,,,,,,,1.386426774349405,time,0,84,[],0.01579812029376626,0.20665742037817836,None,531.6793737998232,531.6793737998232,0.20665742037817836,1.5930841947275833,531.8840791000985,531.6793737998232,233.0,-2.2636280322315554,0.00015472425776128675,,,,,,,eqdcwr,001,english,0,2022-05-24_14h53.53.792,Continuous,2022.1.1,35.81197563384986,
15,0,15,0,3,0,3,0,,,,,,,,1.386426774349405,time,0,85,[],0.009495419915765524,0.19361181976273656,['space'],533.2748183999211,533.2748183999211,0.19361181976273656,1.5800385941121415,533.4753482001834,533.2748183999211,587.0,-1.3146664261457808,4.9743938178818156e-05,[-1.09471940016374],,,,,,eqdcwr,001,english,0,2022-05-24_14h53.53.792,Continuous,2022.1.1,35.81197563384986,
15,0,15,0,4,0,4,0,,,,,,,,1.386426774349405,time,0,86,['time'],0.0105917202308774,0.1956805200316012,None,534.8694881000556,534.8694881000556,0.1956805200316012,1.5821072943810062,535.0744297001511,534.8694881000556,740.0,-5.993338645479563,2.0824483022289696e-05,,,,,"{'estimation': [[125.0, 2.1184204487165363], [125.41304942161135, 2.0], [128.86398984819934, 1.0], [132.41209430070444, 0.0], [133.9716828170366, -0.41065586932999604], [136.16099120535267, -1.0], [139.74318927030222, -2.0], [143.42710819311628, -3.0], [143.5872943746293, -3.0419162975578495], [147.60086730234752, -4.0], [151.7203907855846, -5.0], [153.89305166811442, -5.508915801893998], [156.5148530355673, -6.0], [161.82769325994153, -7.0], [164.93848884661162, -7.564933860908399], [168.39052488229848, -8.0], [176.60175881358288, -9.0], [176.77669529663666, -9.020621011453246], [189.46457081379947, -9.768206795134253], [203.0630990890585, -9.783393467669173], [217.6376408240306, -9.123346001701972], [219.14873466798576, -9.0], [231.9596295910258, -8.0], [233.25824788420132, -7.903780199822236], [242.43611070755043, -7.0], [249.99999999999937, -6.290932555742719], [252.77953218741962, -6.0], [262.45984337646877, -5.0], [267.94336563407256, -4.4631716915291575], [272.6354614829683, -4.0], [282.94371874434705, -3.0], [287.1745887492579, -2.6115438854064115], [294.4178617029371, -2.0], [306.70332300911883, -1.0], [307.78610333622805, -0.9160091076233788], [322.13356859741646, 0.0], [329.87697769322244, 0.4692217212410107], [342.64405336180386, 1.0], [353.55339059327247, 1.434458645296541], [378.929141627598, 1.927974532337511], [406.12619817811606, 1.9775076617785543], [435.2752816480601, 1.6826445913517067], [466.5164957684015, 1.206676251358339], [480.5084862216414, 1.0], [499.9999999999975, 0.7243180457714142], [535.8867312681438, 0.39103020637438257], [574.3491774985143, 0.27352425976110617], [615.5722066724546, 0.3403913833629896], [659.7539553864432, 0.4709073906456698], [707.1067811865431, 0.5038905379500573], [757.8582832551941, 0.305117831718802], [791.6385705988855, 0.0], [812.2523963562301, -0.1763424297780158], [870.550563296117, -0.8679136283282256], [881.2411170617312, -1.0], [933.0329915368008, -1.616079420069444], [974.852867303078, -2.0], [999.9999999999926, -2.2268468795585226], [1071.773462536285, -2.5478868986979384], [1148.698354997026, -2.537499965048003], [1231.1444133449063, -2.27532417442271], [1302.3878328388253, -2.0], [1319.5079107728832, -1.9352026257008934], [1414.2135623730828, -1.7303828626017146], [1515.7165665103846, -1.8247478740504306], [1556.565795436884, -2.0], [1624.5047927124563, -2.2824072469833965], [1735.5901497074112, -3.0], [1741.1011265922318, -3.034986613619526], [1866.065983073597, -3.9143822029865154], [1880.6128376406064, -4.0], [1999.9999999999802, -4.695895348875792], [2093.196132973928, -5.0], [2143.5469250725646, -5.163858213215101], [2297.396709994046, -5.170133136290749], [2351.7291799634672, -5.0], [2462.2888266898062, -4.669139015618129], [2584.7773011609, -4.0], [2639.01582154576, -3.720183116751286], [2744.271125247541, -3.0], [2828.427124746159, -2.4623629085825396], [2893.3746922252312, -2.0], [3031.433133020758, -1.075388066068037], [3043.3069869137244, -1.0], [3205.7615847449624, 0.0], [3249.0095854249043, 0.25348515934505167], [3405.8554302109837, 1.0], [3482.2022531844555, 1.3555898324101097], [3698.170171607148, 2.0], [3732.1319661471844, 2.101460732532713], [3999.9999999999504, 2.402151374153889], [4287.093850145118, 2.2075939119325056], [4377.807469099489, 2.0], [4594.7934199880865, 1.514610126712687], [4741.355192019339, 1.0], [4924.577653379601, 0.372692174364349], [5011.461783499623, 0.0], [5249.783725190662, -1.0], [5278.031643091506, -1.114655264667279], [5475.324561923887, -2.0], [5656.854249492303, -2.7833639257465985], [5708.135621980225, -3.0], [5950.30216155098, -4.0], [6062.866266041508, -4.441520759408669], [6226.107570579345, -5.0], [6498.019170849792, -5.880940409247015], [6548.417916415171, -6.0], [6964.404506368894, -6.929754224049851], [7026.881447879921, -7.0], [7464.2639322943505, -7.476250903464148], [7999.999999999882, -7.4871552290403205]], 'plus_line': [[125.0, -2.433082977769444], [126.89997859954171, -3.0], [130.34422882039658, -4.0], [133.9716828170366, -4.900897439308091], [134.30579984746768, -5.0], [137.4765475278366, -6.0], [140.83170291048134, -6.999999999999999], [143.5872943746293, -7.724518156253698], [144.6201362868301, -8.0], [148.2287868360287, -9.0], [152.15877189950626, -10.0], [153.89305166811442, -10.406241120312888], [156.75491767561874, -11.0], [161.7435079916831, -12.0], [164.93848884661162, -12.585331690630031], [168.13443319978035, -13.0], [176.3317011422918, -14.0], [176.77669529663666, -14.052452960072118], [189.46457081379947, -14.754873748495607], [203.0630990890585, -14.68392299078068], [215.8332012812112, -14.0], [217.6376408240306, -13.910758467144804], [228.31389399720263, -13.0], [233.25824788420132, -12.590599211395196], [239.02881969665012, -12.0], [248.60833525963682, -11.0], [249.99999999999937, -10.861598537640853], [258.191283781252, -10.0], [267.29817086439255, -9.0], [267.94336563407256, -8.933108785699016], [277.3819386865617, -8.0], [287.0456200932273, -7.0], [287.1745887492579, -6.987462317421598], [298.75353048484067, -6.0], [307.78610333622805, -5.212543415021285], [310.9518433178751, -5.0], [325.9699686950125, -4.0], [329.87697769322244, -3.749011359408328], [347.20782738787824, -3.0], [353.55339059327247, -2.738316113920805], [378.929141627598, -2.2388815012640273], [406.12619817811606, -2.2048283984641497], [435.2752816480601, -2.5107308665084647], [466.5164957684015, -2.9580325526221785], [469.58757855212906, -3.0], [499.9999999999975, -3.422784476379759], [535.8867312681438, -3.7419055252985696], [574.3491774985143, -3.872023555745721], [615.5722066724546, -3.827830776968914], [659.7539553864432, -3.6906517362156883], [707.1067811865431, -3.602612821387396], [757.8582832551941, -3.715952659960863], [796.3214269174358, -4.0], [812.2523963562301, -4.120627075739211], [870.5505632961181, -4.789957493640975], [887.3730118736743, -5.0], [933.0329915368008, -5.571876908448685], [975.7273574851913, -6.0], [999.9999999999939, -6.250979752981352], [1071.773462536285, -6.6703771249963655], [1148.698354997026, -6.757859369944683], [1231.1444133449063, -6.579616627623067], [1319.5079107728848, -6.283957662695861], [1414.2135623730828, -6.0810237975279655], [1515.7165665103846, -6.177678798013584], [1624.5047927124563, -6.65646832735455], [1673.3211264993824, -7.0], [1741.1011265922298, -7.478853822488416], [1806.3162642940179, -8.0], [1866.065983073597, -8.47578356183941], [1942.223704329999, -9.0], [1999.9999999999827, -9.401359173111445], [2143.5469250725646, -9.987211928075341], [2170.053268515688, -10.0], [2297.396709994046, -10.066286397805849], [2316.718765736508, -10.000000000000002], [2462.2888266898062, -9.546669392836243], [2549.2698630003433, -9.0], [2639.015821545763, -8.467495653364697], [2698.4639924598528, -8.0], [2828.427124746155, -7.003917597760962], [2828.9180905935577, -6.999999999999999], [2958.6747966150547, -6.0], [3031.433133020758, -5.4548957403949885], [3100.2815915049077, -5.0], [3249.0095854249043, -4.027310627014388], [3254.7370830983064, -4.0], [3471.176000937816, -3.0], [3482.2022531844555, -2.9506193083903165], [3732.1319661471844, -2.319423396156684], [3999.9999999999504, -2.1443982726702737], [4287.093850145118, -2.4585695798563565], [4503.00904162548, -2.9999999999999996], [4594.793419988081, -3.2318076931773945], [4802.86383904362, -4.0], [4924.577653379601, -4.431745030146024], [5052.275629579788, -5.0], [5278.031643091506, -5.940916497101329], [5290.812376114344, -6.0], [5507.410179714387, -7.0], [5656.854249492303, -7.629318890880027], [5744.6527520574655, -8.0], [5993.144167433508, -9.0], [6062.866266041508, -9.263056597243711], [6286.326865556981, -10.0], [6498.019170849792, -10.645476825255297], [6661.179284858912, -11.0], [6964.404506368902, -11.632977374155468], [7286.255529542074, -12.0], [7464.2639322943505, -12.207837844744581], [7999.999999999882, -12.489237194713061]], 'minus_line': [[125.0, 6.77575805516852], [127.75175279018092, 6.0], [131.02271370778632, 5.0], [133.9716828170366, 4.101567806294936], [134.39444930291543, 4.0], [138.3996928340725, 3.0], [142.0057805229147, 2.0], [143.5872943746293, 1.5724563297231737], [146.29638414939097, 1.0], [150.65219497733153, 0.0], [153.89305166811442, -0.7668564208131682], [155.23326941834384, -1.0], [160.80509497947938, -2.0], [164.93848884661162, -2.765014099471355], [166.80169781296752, -3.0], [174.75308517618558, -4.0], [176.77669529663666, -4.247519868463625], [188.26539808582328, -5.0], [189.46457081379947, -5.073576324390447], [203.0630990890585, -5.173975535558869], [207.37809986305643, -5.0], [217.6376408240306, -4.592549620301107], [225.49457293057716, -4.0], [233.25824788420132, -3.449741859841601], [237.8543758227316, -3.0], [248.85538673408945, -2.0], [249.99999999999937, -1.9017480154088813], [258.5372751210188, -1.0], [267.94336563407256, -0.11887954849139619], [269.1363635781432, 0.0], [279.2039794996054, 1.0], [287.1745887492579, 1.700949098005915], [290.69890251501545, 2.0], [302.9639949638017, 3.0], [307.78610333622805, 3.359520003488618], [317.8887241327435, 4.0], [329.87697769322244, 4.703074031806582], [337.18651738525307, 5.0], [353.55339059327247, 5.643605290328038], [372.4259661307664, 6.0], [378.929141627598, 6.126213287337604], [406.12619817811606, 6.1755393769995965], [421.27144564646176, 6.0], [435.2752816480601, 5.856149180123606], [466.5164957684015, 5.33838355691392], [486.92554260315393, 5.0], [499.9999999999975, 4.8038807517519375], [535.8867312681438, 4.463895871666728], [574.3491774985143, 4.381391507097315], [615.5722066724546, 4.5028629983839465], [659.7539553864432, 4.6566327005116195], [707.1067811865431, 4.656730405657244], [757.8582832551941, 4.377013418240205], [791.7907138980743, 4.0], [812.2523963562301, 3.7962872925318334], [870.5505632961181, 3.0262338670293465], [872.5447952501428, 3.0], [933.0329915368008, 2.2671353407553725], [962.4033444949356, 2.0], [999.9999999999939, 1.685451156905688], [1071.773462536285, 1.439823493188985], [1148.6983549970246, 1.5501770262858763], [1231.1444133449063, 1.9041344645178782], [1252.0193862095853, 2.0], [1319.5079107728832, 2.3242363857624033], [1414.2135623730828, 2.5621193430606937], [1515.7165665103846, 2.4723451416690896], [1624.5047927124563, 2.0066235314198653], [1625.5193323329217, 2.0], [1741.1011265922318, 1.2957400956188017], [1785.5058341841586, 1.0], [1866.065983073597, 0.4873059487545873], [1959.9118835890538, 0.0], [1999.9999999999802, -0.19898023791165106], [2143.5469250725646, -0.5588162541191304], [2297.396709994046, -0.5019141333157782], [2462.2888266898062, -0.021415656121106387], [2466.48464043488, 0.0], [2639.01582154576, 0.8453943726675771], [2663.550822107849, 1.0], [2828.427124746159, 1.9703055839666195], [2832.8539665190015, 2.0], [2987.2841021302547, 3.0], [3031.4331330207615, 3.263610156523334], [3149.6731958512783, 4.0], [3249.0095854249043, 4.579445871109544], [3329.9494363882495, 5.0], [3482.2022531844555, 5.771248604911384], [3545.686877661051, 6.0], [3732.1319661471844, 6.683074721813599], [3917.1928390280545, 7.0], [3999.9999999999504, 7.151441694920578], [4287.093850145118, 7.088820772558248], [4329.75367068031, 7.0], [4594.793419988081, 6.482713198147547], [4735.1446693709095, 6.0], [4924.577653379601, 5.362022122114423], [5008.917202248149, 5.0], [5240.8198205701365, 4.0], [5278.031643091513, 3.844510315279754], [5463.890003756683, 3.0], [5656.854249492303, 2.1065980665304362], [5681.161319962015, 2.0], [5911.69322470809, 1.0], [6062.866266041516, 0.3483898531991009], [6157.017760366962, 0.0], [6430.665051912376, -1.0], [6498.019170849792, -1.234043644454284], [6797.9471155767405, -2.0], [6964.404506368902, -2.4030163493052905], [7464.2639322943505, -2.960630108404919], [7999.999999999892, -2.70225432096589]]}",,eqdcwr,001,english,0,2022-05-24_14h53.53.792,Continuous,2022.1.1,35.81197563384986,
15,0,15,0,5,0,5,0,,,,,,,,1.386426774349405,time,0,87,['time'],0.010252019856125116,0.19516801973804832,['space'],536.4693613001145,536.4693613001145,0.19516801973804832,1.5815947940874533,536.6738772001117,536.4693613001145,165.0,-8.0,0.00015642086050847074,[-0.09643629984930158],,,,,,eqdcwr,001,english,0,2022-05-24_14h53.53.792,Continuous,2022.1.1,35.81197563384986,
15,0,15,0,6,0,6,0,,,,,,,,1.386426774349405,time,0,88,['time'],0.009583919309079647,0.196995519567281,None,538.0639829998836,538.0639829998836,0.196995519567281,1.583422293916686,538.2714038002305,538.0639829998836,147.0,-4.775865563008371,0.0003040186636185903,,,,,,,eqdcwr,001,english,0,2022-05-24_14h53.53.792,Continuous,2022.1.1,35.81197563384986,
15,0,15,0,7,0,7,0,,,,,,,,1.386426774349405,time,0,89,['time'],0.009317920077592134,None,['space'],539.6641068002209,539.6641068002209,0.20705592026934028,1.5934826946187453,539.8789727999829,539.6641068002209,185.0,-6.745777427952554,0.000147217235145225,[-0.7167553999461234],,,,,,eqdcwr,001,english,0,2022-05-24_14h53.53.792,Continuous,2022.1.1,35.81197563384986,
16,0,16,0,0,0,0,0,,,,,,544.0357774002478,None,2.433082030860959,both,0,74,['time'],0.024296219926327467,None,None,545.0470106001012,None,0.22134251985698938,2.6544245507179483,545.2544594001956,None,4288.0,-3.197772003008807,7.180022777094739e-05,,541.2757216999307,None,0.3333333333333333,,,eqdcwr,001,english,0,2022-05-24_14h53.53.792,Continuous,2022.1.1,35.81197563384986,
16,0,16,0,1,0,1,0,,,,,,,,2.433082030860959,both,1,74,['time'],0.011280220001935959,0.19883301993831992,"['space', 'space']",547.696864800062,547.696864800062,0.19883301993831992,2.631915050799279,547.8998755002394,547.696864800062,,,,"[-2.1328059998340905, 0.020760999992489815]",,,,,,eqdcwr,001,english,0,2022-05-24_14h53.53.792,Continuous,2022.1.1,35.81197563384986,
16,0,16,0,2,0,2,0,,,,,,,,2.433082030860959,both,0,75,['time'],0.010814620181918144,0.19374782033264637,None,550.3354405001737,550.3354405001737,0.19374782033264637,2.6268298511936052,550.537276700139,550.3354405001737,2701.0,-5.144364151816246,4.0598080267545926e-05,,,,,,,eqdcwr,001,english,0,2022-05-24_14h53.53.792,Continuous,2022.1.1,35.81197563384986,
16,0,16,0,3,0,3,0,,,,,,,,2.433082030860959,both,0,76,['time'],0.009905419778078794,0.19753231946378946,['space'],552.9777224999852,552.9777224999852,0.19753231946378946,2.6306143503247483,553.1823317999952,552.9777224999852,2144.0,-2.893438677583942,5.590417164005177e-05,[-2.3334574000909925],,,,,,eqdcwr,001,english,0,2022-05-24_14h53.53.792,Continuous,2022.1.1,35.81197563384986,
16,0,16,0,4,0,4,0,,,,,,,,2.433082030860959,both,0,77,['time'],0.009091420564800501,0.1989894206635654,None,555.6160237002186,555.6160237002186,0.1989894206635654,2.6320714515245243,555.8264585998841,555.6160237002186,1702.0,-5.979369517171631,3.082404838574597e-05,,,,,,,eqdcwr,001,english,0,2022-05-24_14h53.53.792,Continuous,2022.1.1,35.81197563384986,
16,0,16,0,5,0,5,0,,,,,,,,2.433082030860959,both,0,78,['time'],0.004277420230209827,0.1970769204199314,None,558.2756978999823,558.2756978999823,0.1970769204199314,2.6301589512808903,558.484221899882,558.2756978999823,1351.0,-8.522891815529299,1.9492752328420237e-05,,,,,,,eqdcwr,001,english,0,2022-05-24_14h53.53.792,Continuous,2022.1.1,35.81197563384986,
16,0,16,0,6,0,6,0,,,,,,,,2.433082030860959,both,0,79,['time'],0.009434320498257875,None,None,560.9301575999707,560.9301575999707,0.20984432054683566,2.6429263514077945,561.1521510998718,560.9301575999707,1072.0,-10.0,1.488294249497533e-05,,,,,,,eqdcwr,001,english,0,2022-05-24_14h53.53.792,Continuous,2022.1.1,35.81197563384986,
16,0,16,0,7,0,7,0,,,,,,,,2.433082030860959,both,0,80,['time'],0.008362819906324148,None,None,563.5909275002778,563.5909275002778,0.2075133197940886,2.6405953506550475,563.8053909000009,563.5909275002778,851.0,-2.91189214093124,2.8476089428642815e-05,,,,,,,eqdcwr,001,english,0,2022-05-24_14h53.53.792,Continuous,2022.1.1,35.81197563384986,
16,0,16,0,8,0,8,0,,,,,,,,2.433082030860959,both,0,81,['time'],0.007729419972747564,None,['space'],566.2532406002283,566.2532406002283,0.21730172028765082,2.6503837511486097,566.469461500179,566.2532406002283,675.0,-8.04008859662984,1.8711454857408755e-05,[-1.9138418999500573],,,,,,eqdcwr,001,english,0,2022-05-24_14h53.53.792,Continuous,2022.1.1,35.81197563384986,
16,0,16,0,9,0,9,0,,,,,,,,2.433082030860959,both,0,82,['time'],0.007922119460999966,None,None,568.9113914002664,568.9113914002664,0.21060921950265765,2.6436912503636165,569.1237753001042,568.9113914002664,536.0,-7.287865011688859,2.844604718547007e-05,,,,,,,eqdcwr,001,english,0,2022-05-24_14h53.53.792,Continuous,2022.1.1,35.81197563384986,
16,0,16,0,10,0,10,0,,,,,,,,2.433082030860959,both,0,83,['time'],0.00548951979726553,None,None,571.5705085000955,571.5705085000955,0.20409461995586753,2.6371766508168264,571.7907547000796,571.5705085000955,425.0,-0.40152498067389697,7.18763128254206e-05,,,,,,,eqdcwr,001,english,0,2022-05-24_14h53.53.792,Continuous,2022.1.1,35.81197563384986,
16,0,16,0,11,0,11,0,,,,,,,,2.433082030860959,both,0,84,['time'],0.006988219916820526,None,None,574.2306915000081,574.2306915000081,0.20863171992823482,2.6417137507891937,574.4488772000186,574.2306915000081,337.0,3.383047731009976,0.00013715562618414224,,,,,,,eqdcwr,001,english,0,2022-05-24_14h53.53.792,Continuous,2022.1.1,35.81197563384986,
16,0,16,0,12,0,12,0,,,,,,,,2.433082030860959,both,0,85,['time'],0.005769519601017237,None,"['space', 'space']",576.892155200243,576.892155200243,0.20226051984354854,2.6353425507045074,577.1048206998967,576.892155200243,267.0,1.0663417581945025,0.00016899706511762716,"[-2.047920999582857, -1.304690099786967]",,,,,,eqdcwr,001,english,0,2022-05-24_14h53.53.792,Continuous,2022.1.1,35.81197563384986,
16,0,16,0,13,0,13,0,,,,,,,,2.433082030860959,both,0,86,"['time', 'both']",0.009069920051842928,None,['space'],579.5501071000472,579.5501071000472,0.20982412016019225,2.642906151021151,579.7697268999182,579.5501071000472,212.0,-5.966417174928562,0.00012172291715850287,[-2.1542413998395205],,,,,"{'estimation': [[125.0, 0.4914683052109934], [127.98207013790825, 0.0], [133.9716828170366, -0.8953303712414591], [134.64806637227787, -1.0], [141.25141808018265, -2.0], [143.5872943746293, -2.3338927680540547], [148.86411885772586, -3.0], [153.89305166811442, -3.6239667072831065], [158.07268872250268, -4.0], [164.93848884661162, -4.615456050934519], [172.48360140692012, -5.0], [176.77669529663666, -5.218933134687413], [189.46457081379947, -5.427420892241212], [203.06309908905865, -5.304935920928891], [215.4499971739945, -5.0], [217.6376408240306, -4.949973183776578], [233.25824788420132, -4.471835633642328], [247.2173274179354, -4.0], [249.99999999999937, -3.9127178030510725], [267.94336563407256, -3.2870463414958255], [274.9346225399042, -3.0], [287.1745887492579, -2.536509046583471], [298.749820937419, -2.0], [307.78610333622805, -1.607800764649535], [319.3140290549434, -1.0], [329.87697769322244, -0.4706012153064071], [338.162518456319, 0.0], [353.55339059327247, 0.8483567119607593], [356.26187517732336, 1.0], [374.18893252364796, 2.0], [378.929141627598, 2.251712425219264], [394.1532438582013, 3.0], [406.12619817811606, 3.5671084175611125], [417.91095265563786, 4.0], [435.2752816480596, 4.615745847107779], [454.7047866135998, 5.0], [466.5164957684015, 5.227880148330357], [499.9999999999975, 5.279631726926393], [517.7445094202589, 5.0], [535.8867312681438, 4.725147103836141], [560.4767962989063, 4.0], [574.3491774985143, 3.604581557853879], [589.801619049319, 3.0], [615.5722066724546, 2.007733456155582], [615.7521822855723, 2.0], [638.3215951375204, 1.0], [659.7539553864432, 0.08021771509025633], [661.6288396838702, 0.0], [683.8633368007239, -1.0], [706.6862914473, -2.0], [707.1067811865431, -2.0171928915919253], [730.960548408764, -3.0], [755.0663978307578, -4.0], [757.8582832551941, -4.10909003104787], [783.2998480381957, -5.0], [811.3868413958661, -6.000000000000001], [812.2523963562301, -6.029858592829306], [847.4290969201138, -7.0], [870.5505632961181, -7.644614838465072], [889.3783716863201, -8.0], [933.0329915368008, -8.843409985787945], [947.4929895770643, -9.0], [999.9999999999926, -9.573173607853724], [1071.773462536285, -9.821298454317969], [1148.698354997026, -9.646696242528883], [1231.1444133449063, -9.14754776227715], [1248.9770561167281, -9.0], [1319.5079107728832, -8.46231983332874], [1378.7269441325334, -8.0], [1414.2135623730828, -7.741092535441568], [1515.7165665103828, -7.130727193570701], [1549.539934876299, -7.0], [1624.5047927124563, -6.725199049989005], [1741.1011265922318, -6.576875680790422], [1866.065983073597, -6.659153576077252], [1999.9999999999802, -6.888294622970681], [2063.51614440508, -7.0], [2143.5469250725646, -7.138305383549619], [2297.3967099940432, -7.2575759837831875], [2462.2888266898062, -7.114932381382726], [2502.2029137758827, -7.0], [2639.01582154576, -6.630914974012373], [2778.369268501867, -6.0], [2828.427124746159, -5.786618582477722], [2965.0014932546746, -5.0], [3031.4331330207615, -4.642961332409027], [3133.2081101196873, -4.0], [3249.0095854249043, -3.315677333692367], [3300.84494936901, -3.0], [3473.1204113354497, -2.0], [3482.2022531844555, -1.9507227831202942], [3671.313598343171, -1.0], [3732.1319661471844, -0.7122728883919983], [3922.9218279189345, 0.0], [3999.9999999999504, 0.27601851775125963], [4287.093850145118, 0.933524758567516], [4349.843600922557, 1.0], [4594.793419988081, 1.2505985547304665], [4924.577653379601, 1.2455049820315893], [5250.468270535247, 1.0], [5278.0316430915, 0.9797029658237847], [5656.854249492303, 0.5316350130281031], [6037.380194300994, 0.0], [6062.866266041508, -0.03545832117629945], [6498.019170849792, -0.6639181573306343], [6738.17709087217, -1.0], [6964.4045063688845, -1.3192149683693621], [7464.2639322943505, -1.9586537556641372], [7502.7866238932975, -2.0], [7999.999999999882, -2.5606627390129146]], 'plus_line': [[125.0, -3.0491945514199386], [131.76688051701063, -4.0], [133.9716828170366, -4.280317465599254], [138.52521840521658, -5.0], [143.5872943746293, -5.737997984890825], [145.46392999353017, -6.0], [152.68835676516161, -7.000000000000001], [153.89305166811442, -7.161845885615541], [161.98066251231944, -8.0], [164.9384888466117, -8.302963978037972], [176.77669529663666, -8.976111923444083], [178.23939695169418, -9.0], [189.46457081379947, -9.198227809417805], [202.47011902891518, -9.0], [203.0630990890585, -8.992389611094028], [217.6376408240306, -8.53988989631102], [230.52742639764162, -8.0], [233.25824788420132, -7.899942306063857], [249.99999999999937, -7.197998391689709], [254.16284971584363, -7.0], [267.94336563407256, -6.423158331923204], [276.6245694505793, -6.0], [287.1745887492579, -5.536682856012138], [297.5222958415245, -5.0], [307.78610333622805, -4.503537008671248], [316.89554891611067, -4.0], [329.87697769322244, -3.2988661454531423], [335.13327873869457, -3.0], [352.34385487815666, -2.0], [353.55339059327247, -1.9336473031254242], [370.5841167595079, -1.0], [378.929141627598, -0.5379530340396061], [389.9624294793537, 0.0], [406.12619817811606, 0.8011647543070654], [411.37052859961295, 1.0], [435.2752816480601, 1.8754150167395351], [441.00960033693, 2.0], [466.5164957684015, 2.49073399479788], [499.99999999999693, 2.5446168058519945], [535.8867312681438, 2.006711620904272], [536.1081330135313, 2.0], [569.5790130373307, 1.0], [574.3491774985143, 0.865538529010645], [595.2239864293194, 0.0], [615.5722066724546, -0.7401974103836947], [621.2668489115446, -1.0], [642.2343942898576, -2.0], [659.7539553864432, -2.696296996906056], [666.2415334585045, -3.0], [686.2089402527141, -4.0], [707.1067811865431, -4.859418243445681], [710.3332163328025, -5.0], [731.0503779476483, -6.0], [755.1657895334338, -7.0], [757.8582832551941, -7.10283898259174], [779.2987631520808, -8.0], [804.9981584085626, -9.0], [812.2523963562301, -9.258992486705003], [834.6337285710247, -10.0], [866.4300977334376, -11.0], [870.5505632961181, -11.124942630055681], [907.8199464710385, -12.0], [933.0329915368008, -12.570268810240199], [965.8399522023158, -13.0], [999.9999999999939, -13.459182849524584], [1071.773462536285, -13.758484935173838], [1148.698354997026, -13.535987673981214], [1216.0786429537065, -13.0], [1231.1444133449063, -12.893803056522511], [1319.5079107728832, -12.045082214094563], [1324.045611980359, -12.0], [1414.2135623730828, -11.194755593046473], [1440.2183184410928, -11.0], [1515.7165665103828, -10.497015742805171], [1624.5047927124563, -10.035072167835974], [1647.5355307488003, -10.0], [1741.1011265922318, -9.879442251351998], [1866.065983073597, -9.966820309585234], [1883.7902249630974, -10.0], [1999.9999999999802, -10.237299791487285], [2143.5469250725646, -10.532606278156079], [2297.396709994046, -10.69368373507066], [2462.2888266898062, -10.57729809679384], [2639.01582154576, -10.04716930080884], [2647.9387939915327, -10.0], [2828.427124746159, -9.116024790472089], [2845.973273582868, -9.0], [3003.0569210873787, -8.0], [3031.4331330207615, -7.830523324995406], [3152.9723792084587, -7.0], [3249.0095854249043, -6.354785184469625], [3303.598388526879, -6.0], [3456.60905420656, -5.0], [3482.2022531844555, -4.8456170378186005], [3640.625575957683, -4.0], [3732.1319661471844, -3.525954185510437], [3864.2476733180238, -3.0], [3999.9999999999554, -2.4884801504413123], [4197.932723932497, -2.0], [4287.093850145118, -1.7995439418086883], [4594.793419988076, -1.4984976717014153], [4924.577653379601, -1.5173022140510541], [5278.031643091506, -1.7962794170554546], [5438.95450618087, -2.0], [5656.854249492297, -2.294848536303814], [6062.866266041508, -2.9096204067911247], [6118.140148180113, -3.0], [6498.019170849792, -3.6431655150424467], [6713.558496761022, -4.0], [6964.4045063688845, -4.4352990416023665], [7301.702613920891, -5.0], [7464.2639322943505, -5.288497977601402], [7883.598381908114, -6.0], [7999.999999999882, -6.211803758203104]], 'minus_line': [[125.0, 4.03257662273042], [125.16612115599953, 4.0], [130.46879798533413, 3.0], [133.9716828170366, 2.377406265105281], [136.327822702156, 2.0], [142.539101400623, 1.0], [143.5872943746293, 0.8429533658794162], [150.52822029157994, 0.0], [153.89305166811442, -0.40446505892484996], [160.9771026715106, -1.0], [164.93848884661162, -1.3236608253391293], [176.77669529663666, -1.877295052087947], [183.95785794600047, -2.0], [189.46457081379936, -2.0833529414106495], [203.06309908905865, -2.0011526202275505], [203.1207595322945, -2.0], [217.6376408240306, -1.7031477923862928], [233.25824788420132, -1.3095429393507596], [244.70531559295853, -1.0], [249.99999999999937, -0.853537233529615], [267.94336563407256, -0.32470934634845044], [277.4393996497374, 0.0], [287.1745887492579, 0.3298797142412362], [303.35243147366975, 1.0], [307.78610333622805, 1.1793419614943088], [323.8313069321292, 2.0], [329.87697769322244, 2.2907538381628423], [342.04552334762434, 3.0], [353.55339059327247, 3.616484749626109], [360.1391566370515, 4.0], [378.4462163953262, 5.0], [378.929141627598, 5.025140833887929], [397.843981586813, 6.0], [406.12619817811606, 6.388891990769596], [422.54422693762456, 7.0], [435.2752816480601, 7.458400508529712], [463.1281927882619, 8.0], [466.5164957684015, 8.069823277196157], [499.9999999999975, 8.14709681623105], [509.11696065731326, 8.0], [535.8867312681438, 7.617326319804917], [556.8262744350208, 7.0], [574.3491774985143, 6.492076397527713], [587.283228346361, 6.0], [611.7759009166294, 5.0], [615.5722066724546, 4.85417709949566], [636.0155085100389, 4.0], [657.2102016831116, 3.0], [659.7539553864432, 2.8912899565511974], [681.4684762149116, 2.0], [702.5166807415327, 1.0], [707.1067811865431, 0.8021416388826788], [728.9015604340298, 0.0], [752.3282421554278, -1.0], [757.8582832551941, -1.2190187121873792], [783.2675993361672, -2.0], [811.9263582027122, -3.0000000000000004], [812.2523963562301, -3.010701448800704], [853.7173633564264, -4.0], [870.5505632961181, -4.42551549647248], [905.9503940358466, -5.0], [933.0329915368008, -5.446799169462842], [993.679222344125, -6.0], [999.9999999999926, -6.055758588898066], [1071.773462536285, -6.243545169837691], [1148.698354997026, -6.09526064668305], [1167.0035226530897, -6.0], [1231.1444133449063, -5.663044887304272], [1319.5079107728832, -5.085813809555379], [1331.8062590039517, -5.0], [1414.2135623730828, -4.433267886173301], [1493.1498032652785, -4.0], [1515.7165665103846, -3.8726437794082287], [1624.5047927124563, -3.4807586636117804], [1741.1011265922318, -3.350817503257634], [1866.065983073597, -3.4553587574773648], [1999.9999999999802, -3.7119585322509367], [2143.5469250725646, -3.989490661555688], [2155.2260319560028, -4.0], [2297.3967099940432, -4.108393743261299], [2437.5612575803157, -4.0], [2462.2888266898062, -3.979381668404308], [2639.01582154576, -3.514017047115741], [2763.889852708619, -3.0], [2828.427124746159, -2.739050253431934], [2967.3840373224552, -2.0], [3031.4331330207615, -1.6805937343055795], [3145.6413482606163, -1.0], [3249.0095854249043, -0.4378743862155576], [3323.98946465272, 0.0], [3482.2022531844555, 0.8503289697670495], [3511.9338162903914, 1.0], [3719.485952270972, 2.0], [3732.1319661471844, 2.0579613201798894], [3987.5636954842826, 3.0], [3999.9999999999504, 3.0449259156556163], [4287.093850145118, 3.729447377194473], [4555.929397220235, 4.0], [4594.793419988081, 4.043350381506592], [4924.577653379601, 4.046181614773686], [4981.894763403568, 4.0], [5278.031643091506, 3.799546263379784], [5656.854249492303, 3.3803957838693117], [5934.254730758401, 3.0], [6062.866266041516, 2.839939529445036], [6498.019170849792, 2.2861308956240136], [6734.566505900925, 2.0], [6964.404506368894, 1.7415720871544573], [7464.2639322943505, 1.2933700990961903], [7959.49341682835, 1.0], [7999.999999999882, 0.9767911720992623]]}",eqdcwr,001,english,0,2022-05-24_14h53.53.792,Continuous,2022.1.1,35.81197563384986,
16,0,16,0,14,0,14,0,,,,,,,,2.433082030860959,both,0,87,"['time', 'both']",0.005424619652330875,None,['space'],582.2122165001929,582.2122165001929,0.20473621971905231,2.637818250580011,582.4258210002445,582.2122165001929,168.0,-6.223587804258301,0.000186581032650526,[-1.880893999710679],,,,,,eqdcwr,001,english,0,2022-05-24_14h53.53.792,Continuous,2022.1.1,35.81197563384986,
17,0,17,0,0,0,0,0,,,,,,591.7458390998654,None,1.4676755688627776,frequency,0,52,"['time', 'both']",0.023945919703692198,0.22040901985019445,None,592.7559493998997,None,0.22040901985019445,1.688084588712972,592.9660522001795,None,1868.0,0.02843276311087596,6.907732391502486e-05,,584.871741599869,None,0.3333333333333333,,,eqdcwr,001,english,0,2022-05-24_14h53.53.792,Continuous,2022.1.1,35.81197563384986,
17,0,17,0,1,0,1,0,,,,,,,,2.8336918742349604,frequency,0,53,"['time', 'both']",0.006985719781368971,0.20147201977670193,None,594.4321789001115,594.4321789001115,0.20147201977670193,3.0351638940116623,594.6476773000322,594.4321789001115,1483.0,0.5449713372150233,5.187962564612862e-05,,,,,,,eqdcwr,001,english,0,2022-05-24_14h53.53.792,Continuous,2022.1.1,35.81197563384986,
17,0,17,0,2,0,2,0,,,,,,,,2.3462871355120347,frequency,0,54,"['time', 'both']",0.006881119683384895,0.1956118200905621,None,597.4898426998407,597.4898426998407,0.1956118200905621,2.541898955602597,597.7009276002645,597.4898426998407,1177.0,0.058943605968787796,5.1806218299776515e-05,,,,,,,eqdcwr,001,english,0,2022-05-24_14h53.53.792,Continuous,2022.1.1,35.81197563384986,
17,0,17,0,3,0,3,0,,,,,,,,1.6215510267581608,frequency,0,55,"['time', 'both']",0.0023853201419115067,None,['space'],600.054280700162,600.054280700162,0.20694922003895044,1.8285002467971112,600.2779618999921,600.054280700162,934.0,-0.0038926820754859592,4.215770412240461e-05,[-1.8910005996003747],,,,,,eqdcwr,001,english,0,2022-05-24_14h53.53.792,Continuous,2022.1.1,35.81197563384986,
17,0,17,0,4,0,4,0,,,,,,,,2.8960050242169384,frequency,0,56,"['time', 'both']",0.006933019962161779,None,None,601.9064075001515,601.9064075001515,0.20711681991815567,3.103121844135094,602.1276127998717,601.9064075001515,741.0,0.3230732131131868,4.30008025984372e-05,,,,,,,eqdcwr,001,english,0,2022-05-24_14h53.53.792,Continuous,2022.1.1,35.81197563384986,
17,0,17,0,5,0,5,0,,,,,,,,1.755361301582688,frequency,0,57,"['time', 'both']",0.008344819769263268,0.19740141974762082,"['space', 'space']",605.0322552002035,605.0322552002035,0.19740141974762082,1.952762721330309,605.2368796998635,605.0322552002035,588.0,2.286536475296973,7.509794518071508e-05,"[-2.4767198995687068, 0.12375720031559467]",,,,,,eqdcwr,001,english,0,2022-05-24_14h53.53.792,Continuous,2022.1.1,35.81197563384986,
17,0,17,0,6,0,6,0,,,,,,,,1.2677311497284243,frequency,0,58,"['time', 'both']",0.00780081981793046,0.19771042000502348,None,606.9973487001844,606.9973487001844,0.19771042000502348,1.4654415697334477,607.2072304999456,606.9973487001844,467.0,0.0,7.313089072787545e-05,,,,,,,eqdcwr,001,english,0,2022-05-24_14h53.53.792,Continuous,2022.1.1,35.81197563384986,
17,0,17,0,7,0,7,0,,,,,,,,1.5510674238142823,frequency,0,59,"['time', 'both']",0.007464319933205843,0.19642212009057403,None,608.4832850000821,608.4832850000821,0.19642212009057403,1.7474895439048563,608.691117099952,608.4832850000821,371.0,4.258128621309996,0.00013728238114861762,,,,,,,eqdcwr,001,english,0,2022-05-24_14h53.53.792,Continuous,2022.1.1,35.81197563384986,
17,0,17,0,8,0,8,0,,,,,,,,2.4473536466857704,frequency,0,60,"['time', 'both']",0.007329520303755999,0.20224042003974319,['space'],610.2552149998955,610.2552149998955,0.20224042003974319,2.6495940667255136,610.4714457001537,610.2552149998955,294.0,1.241228036383958,0.00013943613721327937,[-1.3075005998834968],,,,,,eqdcwr,001,english,0,2022-05-24_14h53.53.792,Continuous,2022.1.1,35.81197563384986,
17,0,17,0,9,0,9,0,,,,,,,,2.035036886700949,frequency,0,61,"['time', 'both']",0.005945219658315182,0.19937191996723413,['space'],612.9213152001612,612.9213152001612,0.19937191996723413,2.234408806668183,613.1361754001118,612.9213152001612,233.0,0.002669793502067641,0.00020085067669524926,[-2.061682699713856],,,,,,eqdcwr,001,english,0,2022-05-24_14h53.53.792,Continuous,2022.1.1,35.81197563384986,
