practice.thisRepN,practice.thisTrialN,practice.thisN,practice.thisIndex,trials.thisRepN,trials.thisTrialN,trials.thisN,trials.thisIndex,blank_txt.started,blank_txt.stopped,practice_frequency,practice_level,psychopy_volume,tProbe.started,tProbe.stopped,tFeedback.keys,tFeedback.corr,tFeedback.rt,tFeedback.started,tFeedback.stopped,tToo_early.keys,tToo_early.corr,tToo_early.started,tToo_early.stopped,tToo_late.keys,tToo_late.corr,tToo_late.started,tToo_late.stopped,you_done_goofed.started,you_done_goofed.stopped,Init_phase,Frequency,Level,Psychopy_Volume,Catch trial,probe.started,probe.stopped,feedback.keys,feedback.corr,feedback.rt,feedback.started,feedback.stopped,too_late.keys,too_late.corr,too_late.started,too_late.stopped,Audiogram,participant,session,Language (english or french),Tone duration (ms),date,expName,psychopyVersion,frameRate,
0,0,0,0,,,,,32.0915221000032,None,567,40,0.006099267302654233,1.0138513666461222,None,['space'],1,[0.5688175999966916],34.118494700000156,35.118672600001446,None,1,33.112146700004814,34.118494700000156,None,1,35.118672600001446,None,36.15756279999914,None,,,,,,,,,,,,,,,,,,quicsb,001,fr$*,200,2022-07-21_14h50.13.060,Bayesian,2022.1.1,None,
1,0,1,0,,,,,,,234,40,0.019882976039061955,1.0095761666598264,None,['space'],1,[0.4252377999946475],39.82932220000657,40.826779299997725,None,1,38.852204800001346,39.86248209999758,None,1,40.826779299997725,None,41.85714910000388,None,,,,,,,,,,,,,,,,,,quicsb,001,fr$*,200,2022-07-21_14h50.13.060,Bayesian,2022.1.1,None,
2,0,2,0,,,,,,,2345,40,0.008245949202640053,1.0069171666691545,None,['space'],1,[0.4529175000061514],44.47504360000312,45.49053179999464,None,1,43.49123820000386,44.49207579999347,None,1,45.49053179999464,None,46.522709900003974,None,,,,,,,,,,,,,,,,,,quicsb,001,fr$*,200,2022-07-21_14h50.13.060,Bayesian,2022.1.1,None,
,,,,0,0,0,0,53.90531620000547,None,,,,,,,,,,,,,,,,,,,,,"{'x': [], 'y': [], 'is_init_phase': True, 'is_exam_finished': False, 'threshold_uncertainty_db': 6}",1000,60,0.0440524436504007,False,0.01256390000344254,None,['space'],1,[0.2997336000116775],54.99474690000352,56.00714180000068,None,1,56.00714180000068,None,,quicsb,001,fr$*,200,2022-07-21_14h50.13.060,Bayesian,2022.1.1,None,
,,,,1,0,1,0,,,,,,,,,,,,,,,,,,,,,,,"{'x': [[1000, 60]], 'y': [[1]], 'audiogram': {}, 'is_init_phase': True, 'is_exam_finished': False, 'threshold_uncertainty_db': 6}",1000,40,0.004405244365040069,False,0.009893833339447156,None,['space'],1,[0.24459729999944102],58.40350099999341,59.41612809999788,None,1,59.41612809999788,58.40350099999341,,quicsb,001,fr$*,200,2022-07-21_14h50.13.060,Bayesian,2022.1.1,None,
,,,,2,0,2,0,,,,,,,,,,,,,,,,,,,,,,,"{'x': [[1000, 60], [1000, 40]], 'y': [[1], [1]], 'audiogram': {}, 'is_init_phase': True, 'is_exam_finished': False, 'threshold_uncertainty_db': 6}",1000,20,0.0004405244365040069,False,0.011766600015107542,None,['space'],1,[0.3412448000017321],60.538614400007646,61.55227780000132,None,1,61.55227780000132,60.538614400007646,,quicsb,001,fr$*,200,2022-07-21_14h50.13.060,Bayesian,2022.1.1,None,
,,,,3,0,3,0,,,,,,,,,,,,,,,,,,,,,,,"{'x': [[1000, 60], [1000, 40], [1000, 20]], 'y': [[1], [1], [1]], 'audiogram': {}, 'is_init_phase': True, 'is_exam_finished': False, 'threshold_uncertainty_db': 6}",,,,True,0.009606833351426758,None,None,0,,64.24444589999621,65.24829889999819,None,1,65.24829889999819,64.24444589999621,,quicsb,001,fr$*,200,2022-07-21_14h50.13.060,Bayesian,2022.1.1,None,
,,,,4,0,4,0,,,,,,,,,,,,,,,,,,,,,,,"{'x': [[1000, 60], [1000, 40], [1000, 20]], 'y': [[1], [1], [1]], 'audiogram': {}, 'is_init_phase': True, 'is_exam_finished': False, 'threshold_uncertainty_db': 6}",1000,0,4.405244365040069e-05,False,0.006695499992929399,0.20518140000058338,None,0,,68.09423930000048,69.10094810000737,None,1,69.10094810000737,68.09423930000048,,quicsb,001,fr$*,200,2022-07-21_14h50.13.060,Bayesian,2022.1.1,None,
,,,,5,0,5,0,,,,,,,,,,,,,,,,,,,,,,,"{'x': [[1000, 60], [1000, 40], [1000, 20], [1000, 0]], 'y': [[1], [1], [1], [-1]], 'audiogram': {}, 'is_init_phase': True, 'is_exam_finished': False, 'threshold_uncertainty_db': 6}",1500,10,0.0001527460556607757,False,0.005953599989879876,None,['space'],1,[0.40417550000711344],71.01847609999822,72.02993279999646,None,1,72.02993279999646,71.01847609999822,,quicsb,001,fr$*,200,2022-07-21_14h50.13.060,Bayesian,2022.1.1,None,
,,,,6,0,6,0,,,,,,,,,,,,,,,,,,,,,,,"{'x': [[1000, 60], [1000, 40], [1000, 20], [1000, 0], [1500, 10]], 'y': [[1], [1], [1], [-1], [1]], 'audiogram': {}, 'is_init_phase': True, 'is_exam_finished': False, 'threshold_uncertainty_db': 6}",1500,-10,1.527460556607758e-05,False,0.007497999991755933,0.2018054999934975,None,0,,75.0092902000033,76.01757650000218,None,1,76.01757650000218,75.0092902000033,,quicsb,001,fr$*,200,2022-07-21_14h50.13.060,Bayesian,2022.1.1,None,
,,,,7,0,7,0,,,,,,,,,,,,,,,,,,,,,,,"{'x': [[1000, 60], [1000, 40], [1000, 20], [1000, 0], [1500, 10], [1500, -10]], 'y': [[1], [1], [1], [-1], [1], [-1]], 'audiogram': {}, 'is_init_phase': True, 'is_exam_finished': False, 'threshold_uncertainty_db': 6}",,,,True,0.013797333333059214,None,None,0,,78.49438790000568,79.49517779999587,None,1,79.49517779999587,78.49438790000568,,quicsb,001,fr$*,200,2022-07-21_14h50.13.060,Bayesian,2022.1.1,None,
,,,,8,0,8,0,,,,,,,,,,,,,,,,,,,,,,,"{'x': [[1000, 60], [1000, 40], [1000, 20], [1000, 0], [1500, 10], [1500, -10]], 'y': [[1], [1], [1], [-1], [1], [-1]], 'audiogram': {}, 'is_init_phase': True, 'is_exam_finished': False, 'threshold_uncertainty_db': 6}",2000,10,0.00023657562948074026,False,0.008442999998806044,0.20094169999356382,['space'],1,[0.41731459999573417],81.8295330999972,82.83549040000071,None,1,82.83549040000071,81.8295330999972,,quicsb,001,fr$*,200,2022-07-21_14h50.13.060,Bayesian,2022.1.1,None,
,,,,9,0,9,0,,,,,,,,,,,,,,,,,,,,,,,"{'x': [[1000, 60], [1000, 40], [1000, 20], [1000, 0], [1500, 10], [1500, -10], [2000, 10]], 'y': [[1], [1], [1], [-1], [1], [-1], [1]], 'audiogram': {}, 'is_init_phase': True, 'is_exam_finished': False, 'threshold_uncertainty_db': 6}",2000,-10,2.3657562948074015e-05,False,0.006118400007835589,None,None,0,,85.7006326999981,86.70325839999714,None,1,86.70325839999714,85.7006326999981,,quicsb,001,fr$*,200,2022-07-21_14h50.13.060,Bayesian,2022.1.1,None,
,,,,10,0,10,0,,,,,,,,,,,,,,,,,,,,,,,"{'x': [[1000, 60], [1000, 40], [1000, 20], [1000, 0], [1500, 10], [1500, -10], [2000, 10], [2000, -10]], 'y': [[1], [1], [1], [-1], [1], [-1], [1], [-1]], 'audiogram': {}, 'is_init_phase': True, 'is_exam_finished': False, 'threshold_uncertainty_db': 6}",3000,10,0.00017336842522626576,False,0.012761899997713044,None,['space'],1,[0.5055255000042962],88.79709360000561,89.81615480000619,None,1,89.81615480000619,88.79709360000561,,quicsb,001,fr$*,200,2022-07-21_14h50.13.060,Bayesian,2022.1.1,None,
,,,,11,0,11,0,,,,,,,,,,,,,,,,,,,,,,,"{'x': [[1000, 60], [1000, 40], [1000, 20], [1000, 0], [1500, 10], [1500, -10], [2000, 10], [2000, -10], [3000, 10]], 'y': [[1], [1], [1], [-1], [1], [-1], [1], [-1], [1]], 'audiogram': {}, 'is_init_phase': True, 'is_exam_finished': False, 'threshold_uncertainty_db': 6}",3000,-10,1.7336842522626584e-05,False,0.003428800016990863,0.1923166000196943,None,0,,91.14242649999505,92.15460300000268,None,1,92.15460300000268,91.14242649999505,,quicsb,001,fr$*,200,2022-07-21_14h50.13.060,Bayesian,2022.1.1,None,
,,,,12,0,12,0,,,,,,,,,,,,,,,,,,,,,,,"{'x': [[1000, 60], [1000, 40], [1000, 20], [1000, 0], [1500, 10], [1500, -10], [2000, 10], [2000, -10], [3000, 10], [3000, -10]], 'y': [[1], [1], [1], [-1], [1], [-1], [1], [-1], [1], [-1]], 'audiogram': {}, 'is_init_phase': True, 'is_exam_finished': False, 'threshold_uncertainty_db': 6}",,,,True,0.009886233325232752,None,None,0,,93.6354938000004,94.64653090000502,None,1,94.64653090000502,93.6354938000004,,quicsb,001,fr$*,200,2022-07-21_14h50.13.060,Bayesian,2022.1.1,None,
,,,,13,0,13,0,,,,,,,,,,,,,,,,,,,,,,,"{'x': [[1000, 60], [1000, 40], [1000, 20], [1000, 0], [1500, 10], [1500, -10], [2000, 10], [2000, -10], [3000, 10], [3000, -10]], 'y': [[1], [1], [1], [-1], [1], [-1], [1], [-1], [1], [-1]], 'audiogram': {}, 'is_init_phase': True, 'is_exam_finished': False, 'threshold_uncertainty_db': 6}",4000,10,0.00026544222211549425,False,0.005422900023404509,None,['space'],1,[0.4445883000007598],95.94601970000076,96.95888760000526,None,1,96.95888760000526,95.94601970000076,,quicsb,001,fr$*,200,2022-07-21_14h50.13.060,Bayesian,2022.1.1,None,
,,,,14,0,14,0,,,,,,,,,,,,,,,,,,,,,,,"{'x': [[1000, 60], [1000, 40], [1000, 20], [1000, 0], [1500, 10], [1500, -10], [2000, 10], [2000, -10], [3000, 10], [3000, -10], [4000, 10]], 'y': [[1], [1], [1], [-1], [1], [-1], [1], [-1], [1], [-1], [1]], 'audiogram': {}, 'is_init_phase': True, 'is_exam_finished': False, 'threshold_uncertainty_db': 6}",4000,-10,2.6544222211549425e-05,False,0.004474500005017035,0.19460780000372324,None,0,,99.61715869999898,100.62038209999446,None,1,100.62038209999446,99.61715869999898,,quicsb,001,fr$*,200,2022-07-21_14h50.13.060,Bayesian,2022.1.1,None,
,,,,15,0,15,0,,,,,,,,,,,,,,,,,,,,,,,"{'x': [[1000, 60], [1000, 40], [1000, 20], [1000, 0], [1500, 10], [1500, -10], [2000, 10], [2000, -10], [3000, 10], [3000, -10], [4000, 10], [4000, -10]], 'y': [[1], [1], [1], [-1], [1], [-1], [1], [-1], [1], [-1], [1], [-1]], 'audiogram': {}, 'is_init_phase': True, 'is_exam_finished': False, 'threshold_uncertainty_db': 6}",6000,10,0.00036641226656945183,False,0.012061166678904556,None,['space'],1,[0.47202549999929033],103.35021020000568,104.37198999999964,None,1,104.37198999999964,103.35021020000568,,quicsb,001,fr$*,200,2022-07-21_14h50.13.060,Bayesian,2022.1.1,None,
,,,,16,0,16,0,,,,,,,,,,,,,,,,,,,,,,,"{'x': [[1000, 60], [1000, 40], [1000, 20], [1000, 0], [1500, 10], [1500, -10], [2000, 10], [2000, -10], [3000, 10], [3000, -10], [4000, 10], [4000, -10], [6000, 10]], 'y': [[1], [1], [1], [-1], [1], [-1], [1], [-1], [1], [-1], [1], [-1], [1]], 'audiogram': {}, 'is_init_phase': True, 'is_exam_finished': False, 'threshold_uncertainty_db': 6}",6000,-10,3.664122665694518e-05,False,0.005770400006440468,None,None,0,,106.44227220000175,107.45665229999577,None,1,107.45665229999577,106.44227220000175,,quicsb,001,fr$*,200,2022-07-21_14h50.13.060,Bayesian,2022.1.1,None,
,,,,17,0,17,0,,,,,,,,,,,,,,,,,,,,,,,"{'x': [[1000, 60], [1000, 40], [1000, 20], [1000, 0], [1500, 10], [1500, -10], [2000, 10], [2000, -10], [3000, 10], [3000, -10], [4000, 10], [4000, -10], [6000, 10], [6000, -10]], 'y': [[1], [1], [1], [-1], [1], [-1], [1], [-1], [1], [-1], [1], [-1], [1], [-1]], 'audiogram': {}, 'is_init_phase': True, 'is_exam_finished': False, 'threshold_uncertainty_db': 6}",,,,True,0.009726933349156752,None,None,0,,109.14514829999825,110.16241160000209,None,1,110.16241160000209,109.14514829999825,,quicsb,001,fr$*,200,2022-07-21_14h50.13.060,Bayesian,2022.1.1,None,
,,,,18,0,18,0,,,,,,,,,,,,,,,,,,,,,,,"{'x': [[1000, 60], [1000, 40], [1000, 20], [1000, 0], [1500, 10], [1500, -10], [2000, 10], [2000, -10], [3000, 10], [3000, -10], [4000, 10], [4000, -10], [6000, 10], [6000, -10]], 'y': [[1], [1], [1], [-1], [1], [-1], [1], [-1], [1], [-1], [1], [-1], [1], [-1]], 'audiogram': {}, 'is_init_phase': True, 'is_exam_finished': False, 'threshold_uncertainty_db': 6}",8000,10,0.0005740768107484417,False,0.00700939999660477,0.2041897000017343,['space'],1,[0.3405861999926856],112.48295790000702,113.49110620000283,None,1,113.49110620000283,112.48295790000702,,quicsb,001,fr$*,200,2022-07-21_14h50.13.060,Bayesian,2022.1.1,None,
,,,,19,0,19,0,,,,,,,,,,,,,,,,,,,,,,,"{'x': [[1000, 60], [1000, 40], [1000, 20], [1000, 0], [1500, 10], [1500, -10], [2000, 10], [2000, -10], [3000, 10], [3000, -10], [4000, 10], [4000, -10], [6000, 10], [6000, -10], [8000, 10]], 'y': [[1], [1], [1], [-1], [1], [-1], [1], [-1], [1], [-1], [1], [-1], [1], [-1], [1]], 'audiogram': {}, 'is_init_phase': True, 'is_exam_finished': False, 'threshold_uncertainty_db': 6}",8000,-10,5.740768107484415e-05,False,0.009237500009476207,None,None,0,,115.80160910000268,116.80773850000696,None,1,116.80773850000696,115.80160910000268,,quicsb,001,fr$*,200,2022-07-21_14h50.13.060,Bayesian,2022.1.1,None,
,,,,20,0,20,0,,,,,,,,,,,,,,,,,,,,,,,"{'x': [[1000, 60], [1000, 40], [1000, 20], [1000, 0], [1500, 10], [1500, -10], [2000, 10], [2000, -10], [3000, 10], [3000, -10], [4000, 10], [4000, -10], [6000, 10], [6000, -10], [8000, 10], [8000, -10]], 'y': [[1], [1], [1], [-1], [1], [-1], [1], [-1], [1], [-1], [1], [-1], [1], [-1], [1], [-1]], 'audiogram': {}, 'is_init_phase': True, 'is_exam_finished': False, 'threshold_uncertainty_db': 6}",750,10,0.00012851978913844324,False,0.011593733317567967,None,None,0,,118.55199880000146,119.57159819999652,None,1,119.57159819999652,118.55199880000146,,quicsb,001,fr$*,200,2022-07-21_14h50.13.060,Bayesian,2022.1.1,None,
,,,,21,0,21,0,,,,,,,,,,,,,,,,,,,,,,,"{'x': [[1000, 60], [1000, 40], [1000, 20], [1000, 0], [1500, 10], [1500, -10], [2000, 10], [2000, -10], [3000, 10], [3000, -10], [4000, 10], [4000, -10], [6000, 10], [6000, -10], [8000, 10], [8000, -10], [750, 10]], 'y': [[1], [1], [1], [-1], [1], [-1], [1], [-1], [1], [-1], [1], [-1], [1], [-1], [1], [-1], [-1]], 'audiogram': {}, 'is_init_phase': True, 'is_exam_finished': False, 'threshold_uncertainty_db': 6}",750,30,0.0012851978913844323,False,0.0017420999938622117,0.18987620000552852,['space'],1,[0.4034747999976389],121.47667380000348,122.48981260000437,None,1,122.48981260000437,121.47667380000348,,quicsb,001,fr$*,200,2022-07-21_14h50.13.060,Bayesian,2022.1.1,None,
,,,,22,0,22,0,,,,,,,,,,,,,,,,,,,,,,,"{'x': [[1000, 60], [1000, 40], [1000, 20], [1000, 0], [1500, 10], [1500, -10], [2000, 10], [2000, -10], [3000, 10], [3000, -10], [4000, 10], [4000, -10], [6000, 10], [6000, -10], [8000, 10], [8000, -10], [750, 10], [750, 30]], 'y': [[1], [1], [1], [-1], [1], [-1], [1], [-1], [1], [-1], [1], [-1], [1], [-1], [1], [-1], [-1], [1]], 'audiogram': {}, 'is_init_phase': True, 'is_exam_finished': False, 'threshold_uncertainty_db': 6}",,,,True,0.0042877333326032385,0.19669703333056532,None,0,,124.29707790000248,125.291782100001,None,1,125.291782100001,124.29707790000248,,quicsb,001,fr$*,200,2022-07-21_14h50.13.060,Bayesian,2022.1.1,None,
,,,,23,0,23,0,,,,,,,,,,,,,,,,,,,,,,,"{'x': [[1000, 60], [1000, 40], [1000, 20], [1000, 0], [1500, 10], [1500, -10], [2000, 10], [2000, -10], [3000, 10], [3000, -10], [4000, 10], [4000, -10], [6000, 10], [6000, -10], [8000, 10], [8000, -10], [750, 10], [750, 30]], 'y': [[1], [1], [1], [-1], [1], [-1], [1], [-1], [1], [-1], [1], [-1], [1], [-1], [1], [-1], [-1], [1]], 'audiogram': {}, 'is_init_phase': True, 'is_exam_finished': False, 'threshold_uncertainty_db': 6}",500,10,0.0002259279721874612,False,0.014537566676153801,None,['space'],1,[0.4761621999932686],128.0264995000034,129.04765579999366,None,1,129.04765579999366,128.0264995000034,,quicsb,001,fr$*,200,2022-07-21_14h50.13.060,Bayesian,2022.1.1,None,
,,,,24,0,24,0,,,,,,,,,,,,,,,,,,,,,,,"{'x': [[1000, 60], [1000, 40], [1000, 20], [1000, 0], [1500, 10], [1500, -10], [2000, 10], [2000, -10], [3000, 10], [3000, -10], [4000, 10], [4000, -10], [6000, 10], [6000, -10], [8000, 10], [8000, -10], [750, 10], [750, 30], [500, 10]], 'y': [[1], [1], [1], [-1], [1], [-1], [1], [-1], [1], [-1], [1], [-1], [1], [-1], [1], [-1], [-1], [1], [1]], 'audiogram': {}, 'is_init_phase': True, 'is_exam_finished': False, 'threshold_uncertainty_db': 6}",500,-10,2.259279721874613e-05,False,0.006764400008250959,None,None,0,,131.43642169999657,132.44958790000237,None,1,132.44958790000237,131.43642169999657,,quicsb,001,fr$*,200,2022-07-21_14h50.13.060,Bayesian,2022.1.1,None,
,,,,25,0,25,0,,,,,,,,,,,,,,,,,,,,,,,"{'x': [[1000, 60], [1000, 40], [1000, 20], [1000, 0], [1500, 10], [1500, -10], [2000, 10], [2000, -10], [3000, 10], [3000, -10], [4000, 10], [4000, -10], [6000, 10], [6000, -10], [8000, 10], [8000, -10], [750, 10], [750, 30], [500, 10], [500, -10]], 'y': [[1], [1], [1], [-1], [1], [-1], [1], [-1], [1], [-1], [1], [-1], [1], [-1], [1], [-1], [-1], [1], [1], [-1]], 'audiogram': {}, 'is_init_phase': True, 'is_exam_finished': False, 'threshold_uncertainty_db': 6}",250,10,0.0005296268625886444,False,0.011166600001160987,None,['space'],1,[0.45352480000292417],134.1934750000073,135.2012820999953,None,1,135.2012820999953,134.1934750000073,,quicsb,001,fr$*,200,2022-07-21_14h50.13.060,Bayesian,2022.1.1,None,
,,,,26,0,26,0,,,,,,,,,,,,,,,,,,,,,,,"{'x': [[1000, 60], [1000, 40], [1000, 20], [1000, 0], [1500, 10], [1500, -10], [2000, 10], [2000, -10], [3000, 10], [3000, -10], [4000, 10], [4000, -10], [6000, 10], [6000, -10], [8000, 10], [8000, -10], [750, 10], [750, 30], [500, 10], [500, -10], [250, 10]], 'y': [[1], [1], [1], [-1], [1], [-1], [1], [-1], [1], [-1], [1], [-1], [1], [-1], [1], [-1], [-1], [1], [1], [-1], [1]], 'audiogram': {}, 'is_init_phase': True, 'is_exam_finished': False, 'threshold_uncertainty_db': 6}",,,,True,0.00034486666845623404,0.19810756666993257,None,0,,136.2434374000004,137.25476060000074,None,1,137.25476060000074,136.2434374000004,,quicsb,001,fr$*,200,2022-07-21_14h50.13.060,Bayesian,2022.1.1,None,
,,,,27,0,27,0,,,,,,,,,,,,,,,,,,,,,,,"{'x': [[1000, 60], [1000, 40], [1000, 20], [1000, 0], [1500, 10], [1500, -10], [2000, 10], [2000, -10], [3000, 10], [3000, -10], [4000, 10], [4000, -10], [6000, 10], [6000, -10], [8000, 10], [8000, -10], [750, 10], [750, 30], [500, 10], [500, -10], [250, 10]], 'y': [[1], [1], [1], [-1], [1], [-1], [1], [-1], [1], [-1], [1], [-1], [1], [-1], [1], [-1], [-1], [1], [1], [-1], [1]], 'audiogram': {}, 'is_init_phase': True, 'is_exam_finished': False, 'threshold_uncertainty_db': 6}",250,-10,5.296268625886443e-05,False,0.008646900008898228,None,None,0,,139.18809060000058,140.19995259999996,None,1,140.19995259999996,139.18809060000058,,quicsb,001,fr$*,200,2022-07-21_14h50.13.060,Bayesian,2022.1.1,None,
,,,,28,0,28,0,,,,,,,,,,,,,,,,,,,,,,,"{'x': [[1000, 60], [1000, 40], [1000, 20], [1000, 0], [1500, 10], [1500, -10], [2000, 10], [2000, -10], [3000, 10], [3000, -10], [4000, 10], [4000, -10], [6000, 10], [6000, -10], [8000, 10], [8000, -10], [750, 10], [750, 30], [500, 10], [500, -10], [250, 10], [250, -10]], 'y': [[1], [1], [1], [-1], [1], [-1], [1], [-1], [1], [-1], [1], [-1], [1], [-1], [1], [-1], [-1], [1], [1], [-1], [1], [-1]], 'audiogram': {}, 'is_init_phase': True, 'is_exam_finished': False, 'threshold_uncertainty_db': 6}",125,10,0.002285440948074376,False,0.016298366666887887,None,['space'],1,[0.45387460000347346],141.78531239999575,142.79353090000222,None,1,142.79353090000222,141.78531239999575,,quicsb,001,fr$*,200,2022-07-21_14h50.13.060,Bayesian,2022.1.1,None,
,,,,29,0,29,0,,,,,,,,,,,,,,,,,,,,,,,"{'x': [[1000, 60], [1000, 40], [1000, 20], [1000, 0], [1500, 10], [1500, -10], [2000, 10], [2000, -10], [3000, 10], [3000, -10], [4000, 10], [4000, -10], [6000, 10], [6000, -10], [8000, 10], [8000, -10], [750, 10], [750, 30], [500, 10], [500, -10], [250, 10], [250, -10], [125, 10]], 'y': [[1], [1], [1], [-1], [1], [-1], [1], [-1], [1], [-1], [1], [-1], [1], [-1], [1], [-1], [-1], [1], [1], [-1], [1], [-1], [1]], 'audiogram': {}, 'is_init_phase': True, 'is_exam_finished': False, 'threshold_uncertainty_db': 6}",125,-10,0.0002285440948074376,False,0.004233999992720783,0.2012057999963872,None,0,,144.612498100003,145.6364723000006,None,1,145.6364723000006,144.612498100003,,quicsb,001,fr$*,200,2022-07-21_14h50.13.060,Bayesian,2022.1.1,None,
,,,,30,0,30,0,,,,,,,,,,,,,,,,,,,,,,,"{'x': [[1000, 60], [1000, 40], [1000, 20], [1000, 0], [1500, 10], [1500, -10], [2000, 10], [2000, -10], [3000, 10], [3000, -10], [4000, 10], [4000, -10], [6000, 10], [6000, -10], [8000, 10], [8000, -10], [750, 10], [750, 30], [500, 10], [500, -10], [250, 10], [250, -10], [125, 10], [125, -10]], 'y': [[1], [1], [1], [-1], [1], [-1], [1], [-1], [1], [-1], [1], [-1], [1], [-1], [1], [-1], [-1], [1], [1], [-1], [1], [-1], [1], [-1]], 'audiogram': {}, 'is_init_phase': True, 'is_exam_finished': False, 'threshold_uncertainty_db': 6}",176.7766952966369,2.0,0.00044065030258128913,False,0.008723833336262032,None,None,0,,149.76569349999772,150.76918319999822,None,1,150.76918319999822,149.76569349999772,,quicsb,001,fr$*,200,2022-07-21_14h50.13.060,Bayesian,2022.1.1,None,
,,,,31,0,31,0,,,,,,,,,,,,,,,,,,,,,,,,353.5533905932738,2.0,0.0001115563142959358,False,0.009607533342204988,None,['space'],1,[0.5253758000035305],153.32242140000744,154.34165210000356,None,1,154.34165210000356,153.32242140000744,,quicsb,001,fr$*,200,2022-07-21_14h50.13.060,Bayesian,2022.1.1,None,
,,,,32,0,32,0,,,,,,,,,,,,,,,,,,,,,,,,2462.2888266898335,1.0,9.543828998156852e-05,False,0.013548500020988286,None,None,0,,158.73637210000015,159.74076470000728,None,1,159.74076470000728,158.73637210000015,,quicsb,001,fr$*,200,2022-07-21_14h50.13.060,Bayesian,2022.1.1,None,
,,,,33,0,33,0,,,,,,,,,,,,,,,,,,,,,,,,,,,True,0.012856733330409043,None,None,0,,160.80112889999873,161.8224063999951,None,1,161.8224063999951,160.80112889999873,,quicsb,001,fr$*,200,2022-07-21_14h50.13.060,Bayesian,2022.1.1,None,
,,,,34,0,34,0,,,,,,,,,,,,,,,,,,,,,,,,8000.0,2.0,0.0002285440948074376,False,0.0020139333355473354,0.18816513333877083,['space'],1,[0.3725125999917509],164.23470129999623,165.26589769999555,None,1,165.26589769999555,164.23470129999623,,quicsb,001,fr$*,200,2022-07-21_14h50.13.060,Bayesian,2022.1.1,None,
,,,,35,0,35,0,,,,,,,,,,,,,,,,,,,,,,,,4924.577653379667,1.0,0.0001655611795965586,False,0.014015666660270654,None,['space'],1,[0.4703661999956239],168.98399969999446,169.98482949999743,None,1,169.98482949999743,168.98399969999446,,quicsb,001,fr$*,200,2022-07-21_14h50.13.060,Bayesian,2022.1.1,None,
,,,,36,0,36,0,,,,,,,,,,,,,,,,,,,,,,,,1231.1444133449168,5.0,9.553014735722362e-05,False,0.0064325999992433935,None,None,0,,173.92702020000434,174.93031450000126,None,1,174.93031450000126,173.92702020000434,,quicsb,001,fr$*,200,2022-07-21_14h50.13.060,Bayesian,2022.1.1,None,
,,,,37,0,37,0,,,,,,,,,,,,,,,,,,,,,,,,,,,True,0.0136180333502125,None,None,0,,177.75108739999996,178.774828900001,None,1,178.774828900001,177.75108739999996,,quicsb,001,fr$*,200,2022-07-21_14h50.13.060,Bayesian,2022.1.1,None,
,,,,38,0,38,0,,,,,,,,,,,,,,,,,,,,,,,,125.0,4.0,0.0011454338263838868,False,0.010286799995810725,None,['space'],1,[0.38251100000343286],181.09764890000224,182.1108099999983,None,1,182.1108099999983,181.09764890000224,,quicsb,001,fr$*,200,2022-07-21_14h50.13.060,Bayesian,2022.1.1,None,
,,,,39,0,39,0,,,,,,,,,,,,,,,,,,,,,,,,500.0,3.0,0.0001009183181840781,False,0.013166533331968822,None,['space'],1,[0.4350131999963196],186.04467200000363,187.05255190000753,None,1,187.05255190000753,186.04467200000363,,quicsb,001,fr$*,200,2022-07-21_14h50.13.060,Bayesian,2022.1.1,None,
,,,,40,0,40,0,,,,,,,,,,,,,,,,,,,,,,,,287.17458874925893,-1.0,0.0001141689127028708,False,0.001101099987863563,0.1960926999890944,None,0,,189.35148029999982,190.37466810000478,None,1,190.37466810000478,189.35148029999982,,quicsb,001,fr$*,200,2022-07-21_14h50.13.060,Bayesian,2022.1.1,None,
,,,,41,0,41,0,,,,,,,,,,,,,,,,,,,,,,,,,,,True,0.014546333346515894,None,None,0,,193.3393364000076,194.36248660000274,None,1,194.36248660000274,193.3393364000076,,quicsb,001,fr$*,200,2022-07-21_14h50.13.060,Bayesian,2022.1.1,None,
,,,,42,0,42,0,,,,,,,,,,,,,,,,,,,,,,,,812.2523963562351,12.0,0.00015413240703763653,False,0.006367799986037426,None,['space'],1,[0.4012753999995766],198.17439440000453,199.18825279999874,None,1,199.18825279999874,198.17439440000453,,quicsb,001,fr$*,200,2022-07-21_14h50.13.060,Bayesian,2022.1.1,None,
,,,,43,0,43,0,,,,,,,,,,,,,,,,,,,,,,,,3482.202253184498,1.0,8.398389572004273e-05,False,0.008936433310736902,0.20249813332338817,None,0,,201.71904039999936,202.72302980000677,None,1,202.72302980000677,201.71904039999936,,quicsb,001,fr$*,200,2022-07-21_14h50.13.060,Bayesian,2022.1.1,None,
,,,,44,0,44,0,,,,,,,,,,,,,,,,,,,,,,,,8000.0,-2.0,0.00014420157515633036,False,0.013067133331787772,None,['space'],1,[0.5213483999978052],206.24676900000486,207.27663890000258,None,1,207.27663890000258,206.24676900000486,,quicsb,001,fr$*,200,2022-07-21_14h50.13.060,Bayesian,2022.1.1,None,
,,,,45,0,45,0,,,,,,,,,,,,,,,,,,,,,,,,,,,True,0.00933823334344197,None,None,0,,209.92261740000686,210.92800559999887,None,1,210.92800559999887,209.92261740000686,,quicsb,001,fr$*,200,2022-07-21_14h50.13.060,Bayesian,2022.1.1,None,
,,,,46,0,46,0,,,,,,,,,,,,,,,,,,,,,,,,1866.0659830736151,4.0,0.00010898398547837883,False,0.005994433333398774,0.20178703333658632,['space'],1,[0.4358273000107147],214.47619430000486,215.50193220000074,None,1,215.50193220000074,214.47619430000486,,quicsb,001,fr$*,200,2022-07-21_14h50.13.060,Bayesian,2022.1.1,None,
,,,,47,0,47,0,,,,,,,,,,,,,,,,,,,,,,,,203.0630990890589,6.0,0.0005176529078327412,False,0.006041266678948887,None,['space'],1,[0.5109899999952177],217.89578120000078,218.92694940000365,None,1,218.92694940000365,217.89578120000078,,quicsb,001,fr$*,200,2022-07-21_14h50.13.060,Bayesian,2022.1.1,None,
,,,,48,0,48,0,,,,,,,,,,,,,,,,,,,,,,,,125.0,0.0,0.000722719885372964,False,0.0056853666610550135,None,None,0,,222.20072579999396,223.2106453000015,None,1,223.2106453000015,222.20072579999396,,quicsb,001,fr$*,200,2022-07-21_14h50.13.060,Bayesian,2022.1.1,None,
,,,,49,0,49,0,,,,,,,,,,,,,,,,,,,,,,,,574.3491774985172,3.0,8.45350024333888e-05,False,0.00911596667720005,0.20508216667803936,None,0,,226.01638479999383,227.03516309999395,None,1,227.03516309999395,226.01638479999383,,quicsb,001,fr$*,200,2022-07-21_14h50.13.060,Bayesian,2022.1.1,None,
,,,,50,0,50,0,,,,,,,,,,,,,,,,,,,,,,,,,,,True,0.01084893333609216,None,None,0,,228.86453629999596,229.87291200000618,None,1,229.87291200000618,228.86453629999596,,quicsb,001,fr$*,200,2022-07-21_14h50.13.060,Bayesian,2022.1.1,None,
,,,,51,0,51,0,,,,,,,,,,,,,,,,,,,,,,,,6062.8662660415985,-4.0,7.497821437245907e-05,False,0.0049777000094763935,None,['space'],1,[0.46915119999903254],234.07439069999964,235.07960640000238,None,1,235.07960640000238,234.07439069999964,,quicsb,001,fr$*,200,2022-07-21_14h50.13.060,Bayesian,2022.1.1,None,
,,,,52,0,52,0,,,,,,,,,,,,,,,,,,,,,,,,4287.0938501451765,0.0,0.00010369393866016962,False,0.011117999980342574,None,['space'],1,[0.4613060999981826],237.7130252000061,238.72407280000334,None,1,238.72407280000334,237.7130252000061,,quicsb,001,fr$*,200,2022-07-21_14h50.13.060,Bayesian,2022.1.1,None,
,,,,53,0,53,0,,,,,,,,,,,,,,,,,,,,,,,,1148.6983549970344,8.0,0.00012627772590742052,False,0.01005329999316018,None,['space'],1,[0.5362619000079576],242.30253960000118,243.31941510000615,None,1,243.31941510000615,242.30253960000118,,quicsb,001,fr$*,200,2022-07-21_14h50.13.060,Bayesian,2022.1.1,None,
,,,,54,0,54,0,,,,,,,,,,,,,,,,,,,,,,,,1624.5047927124701,2.0,7.283765795300079e-05,False,0.010841966650332324,None,None,0,,246.5605232999951,247.56676190000144,None,1,247.56676190000144,246.5605232999951,,quicsb,001,fr$*,200,2022-07-21_14h50.13.060,Bayesian,2022.1.1,None,
,,,,55,0,55,0,,,,,,,,,,,,,,,,,,,,,,,,,,,True,0.009293433337006718,None,None,0,,248.95923670000047,249.99119939999946,None,1,249.99119939999946,248.95923670000047,,quicsb,001,fr$*,200,2022-07-21_14h50.13.060,Bayesian,2022.1.1,None,
,,,,56,0,56,0,,,,,,,,,,,,,,,,,,,,,,,,378.9291416275994,-1.0,7.310446358873497e-05,False,0.010297533342964016,None,None,0,,253.9028127000056,254.9226895000029,None,1,254.9226895000029,253.9028127000056,,quicsb,001,fr$*,200,2022-07-21_14h50.13.060,Bayesian,2022.1.1,None,
,,,,57,0,57,0,,,,,,,,,,,,,,,,,,,,,,,,8000.0,-5.0,0.00010208689723347648,False,0.0033918666740646586,None,None,0,,258.53308639999887,259.5471678000031,None,1,259.5471678000031,258.53308639999887,,quicsb,001,fr$*,200,2022-07-21_14h50.13.060,Bayesian,2022.1.1,None,
,,,,58,0,58,0,,,,,,,,,,,,,,,,,,,,,,,,2639.015821545789,4.0,0.00012244339047642582,False,0.006162833335110918,0.19865673333697487,None,0,,262.58592850000423,263.5842185999936,None,1,263.5842185999936,262.58592850000423,,quicsb,001,fr$*,200,2022-07-21_14h50.13.060,Bayesian,2022.1.1,None,
,,,,59,0,59,0,,,,,,,,,,,,,,,,,,,,,,,,,,,True,0.007975433327374049,0.20143363333772868,None,0,,265.1688556000008,266.1775564999989,None,1,266.1775564999989,265.1688556000008,,quicsb,001,fr$*,200,2022-07-21_14h50.13.060,Bayesian,2022.1.1,None,
,,,,60,0,60,0,,,,,,,,,,,,,,,,,,,,,,,,250.0,3.0,0.00023657562948074026,False,0.008148166656610556,None,['space'],1,[0.45860610000090674],269.4376085999975,270.44942289999744,None,1,270.44942289999744,269.4376085999975,,quicsb,001,fr$*,200,2022-07-21_14h50.13.060,Bayesian,2022.1.1,None,
,,,,61,0,61,0,,,,,,,,,,,,,,,,,,,,,,,,4924.577653379667,-5.0,8.29771495980672e-05,False,0.00892026667133905,None,None,0,,273.1090861999983,274.1198013999965,None,1,274.1198013999965,273.1090861999983,,quicsb,001,fr$*,200,2022-07-21_14h50.13.060,Bayesian,2022.1.1,None,
,,,,62,0,62,0,,,,,,,,,,,,,,,,,,,,,,,,164.93848884661182,4.0,0.0006230777132504799,False,0.007119400004739873,None,['space'],1,[0.47778139999718405],276.93740939999407,277.9320743999997,None,1,277.9320743999997,276.93740939999407,,quicsb,001,fr$*,200,2022-07-21_14h50.13.060,Bayesian,2022.1.1,None,
,,,,63,0,63,0,,,,,,,,,,,,,,,,,,,,,,,,,,,True,0.013217933345003985,None,None,0,,280.45426769999904,281.48488240000734,None,1,281.48488240000734,280.45426769999904,,quicsb,001,fr$*,200,2022-07-21_14h50.13.060,Bayesian,2022.1.1,None,
,,,,64,0,64,0,,,,,,,,,,,,,,,,,,,,,,,,812.2523963562351,10.0,0.00012243172279601027,False,0.007249566682730801,None,['space'],1,[0.5200190999894403],285.12786320000305,286.133579500005,None,1,286.133579500005,285.12786320000305,,quicsb,001,fr$*,200,2022-07-21_14h50.13.060,Bayesian,2022.1.1,None,
,,,,65,0,65,0,,,,,,,,,,,,,,,,,,,,,,,,812.2523963562351,10.0,0.00012243172279601027,False,None,None,None,0,,None,None,None,1,None,None,"{'estimation': [[125.0, 2.1044461920876034], [133.9716828170366, 2.2501258146396443], [143.5872943746293, 2.3835025507063916], [153.89305166811442, 2.476269928425004], [164.93848884661162, 2.50402309052194], [176.77669529663666, 2.4526169418701524], [189.46457081379947, 2.32222069740227], [203.0630990890585, 2.1251164292271705], [210.49075193747842, 2.0], [217.6376408240306, 1.8804891137639423], [233.25824788420132, 1.6243872183379746], [249.99999999999937, 1.3740509429326502], [267.94336563407256, 1.1314553337048447], [278.3598678989278, 1.0], [287.1745887492579, 0.8938471177491522], [307.78610333622805, 0.6749930698778372], [329.87697769322244, 0.48625457438927666], [353.55339059327247, 0.356615356648497], [378.929141627598, 0.34019160212531785], [406.12619817811606, 0.505598694224707], [435.2752816480601, 0.9239813671431916], [438.46459062428227, 1.0], [466.5164957684015, 1.6396128545230055], [478.2272947605389, 2.0], [499.9999999999975, 2.651526734635146], [509.8857826809977, 3.0], [535.8867312681438, 3.905025650432729], [538.5253654567911, 4.0], [565.7638712402013, 5.0], [574.3491774985143, 5.299830270209806], [595.049570419014, 6.0], [615.5722066724546, 6.677992580316015], [627.0584149986481, 7.0], [659.7539553864432, 7.903905323176307], [664.4584687269362, 8.0], [707.1067811865431, 8.84535255238231], [720.3270491393965, 9.0], [757.8582832551941, 9.424494065508316], [812.2523963562301, 9.606086819012052], [870.5505632961181, 9.434644929157692], [929.3288186875983, 9.0], [933.0329915368019, 8.973304175529991], [999.9999999999926, 8.321076609125381], [1028.753697470716, 8.0], [1071.773462536285, 7.552618345959705], [1123.3776143176412, 7.0], [1148.6983549970273, 6.74458271775576], [1225.76785900278, 6.0], [1231.1444133449063, 5.949863232820328], [1319.5079107728832, 5.205396031295534], [1347.7354515359432, 5.0], [1414.2135623730828, 4.533624096537752], [1513.347190662291, 4.0], [1515.7165665103828, 3.98733479588627], [1624.5047927124563, 3.609120762538604], [1741.1011265922318, 3.4456170713980203], [1866.065983073597, 3.5129794549261653], [1999.9999999999777, 3.801872696302679], [2060.523069446037, 4.0], [2143.5469250725646, 4.268044040814378], [2297.3967099940432, 4.792271583857125], [2367.8225251743315, 5.0], [2462.2888266898062, 5.272511997982248], [2639.015821545763, 5.557044354572005], [2828.427124746159, 5.547737168085696], [3031.4331330207615, 5.176288375538259], [3080.539407908016, 5.0], [3249.0095854249043, 4.427097004279265], [3338.759827803542, 4.0], [3482.2022531844555, 3.3468235626769745], [3545.8410711818237, 3.0], [3732.1319661471844, 2.018639609504586], [3735.472677454767, 2.0], [3915.1700132813216, 1.0], [3999.9999999999504, 0.5650310828955563], [4108.412548478043, 0.0], [4287.093850145118, -0.8900263247193243], [4311.572836404513, -1.0], [4535.419187328919, -2.0], [4594.793419988081, -2.2452677788510744], [4809.220144088085, -3.0], [4924.577653379601, -3.389319269345475], [5170.004640368776, -4.0], [5278.0316430915, -4.26450801511668], [5656.854249492303, -4.821585591819918], [5949.012912231623, -5.0], [6062.866266041508, -5.069072144854811], [6498.019170849792, -5.002301975785692], [6500.943281552396, -5.0], [6964.404506368894, -4.66379354210302], [7464.26393229436, -4.110633339793331], [7545.317476916568, -4.0], [7999.999999999872, -3.3941058559611195]], 'plus_line': [[125.0, -0.171328490528171], [130.4148473307709, 0.0], [133.9716828170366, 0.08944430401468528], [143.5872943746293, 0.255543732635509], [153.89305166811442, 0.36258399555612575], [164.93848884661162, 0.3944204326871863], [176.77669529663666, 0.32799474981330123], [189.46457081379947, 0.16307766828201697], [198.79591753156234, 0.0], [203.0630990890585, -0.08793533072692938], [217.6376408240306, -0.3851087231000452], [233.25824788420132, -0.6451772220014427], [249.99999999999937, -0.8638213967874133], [262.57924785625715, -1.0], [267.94336563407256, -1.0657554387098842], [287.1745887492579, -1.2710524695853809], [307.78610333622805, -1.4574637282689937], [329.87697769322244, -1.6238760988170768], [353.55339059327247, -1.747970913122661], [378.929141627598, -1.780687501623811], [406.12619817811606, -1.6480631728477422], [435.2752816480601, -1.2523991943182966], [445.79391420042964, -1.0], [466.5164957684015, -0.5520961093755936], [484.6494973787866, 0.0], [499.9999999999975, 0.45201049531348336], [516.0620291782174, 1.0], [535.8867312681438, 1.6922884872927086], [544.8582628276349, 2.0], [572.1073866108062, 3.0], [574.3491774985151, 3.0775397448253172], [603.0514630420431, 4.0], [615.5722066724546, 4.411874346154824], [637.4377369191205, 5.0], [659.7539553864432, 5.609984976314599], [679.2889312235009, 6.0], [707.1067811865431, 6.532275023613961], [747.6855471491016, 7.0], [757.8582832551941, 7.107067925379762], [812.2523963562301, 7.260719935159095], [870.5505632961181, 7.085012302702311], [882.4680683722992, 7.0], [933.0329915368008, 6.619034520268451], [999.9999999999926, 6.039148836197757], [1003.8644044149943, 6.0], [1071.773462536285, 5.332137736852594], [1105.987981572599, 5.0], [1148.698354997026, 4.590563969966684], [1213.97824162261, 4.0], [1231.1444133449063, 3.842298084523434], [1319.5079107728832, 3.1026226395594234], [1333.527922765049, 3.0], [1414.2135623730828, 2.3978052555813587], [1489.155275428112, 2.0], [1515.7165665103864, 1.8465800769914353], [1624.5047927124563, 1.456196428586415], [1741.1011265922318, 1.2910909138260522], [1866.065983073597, 1.3344450428522243], [1999.9999999999777, 1.5835317109605616], [2131.167800349832, 2.0], [2143.5469250725646, 2.035111714580216], [2297.3967099940432, 2.524301270924064], [2453.442978250703, 3.0], [2462.2888266898062, 3.0241342530207103], [2639.01582154576, 3.3032500374107814], [2828.427124746159, 3.297178454360375], [2995.522483746366, 3.0], [3031.4331330207615, 2.9291242071184387], [3249.0095854249043, 2.1786532716358327], [3286.8324684491718, 2.0], [3482.2022531844555, 1.116634354096782], [3503.8433011242173, 1.0], [3693.135030327872, 0.0], [3732.1319661471844, -0.18572660416893466], [3877.0005728990177, -1.0], [3999.9999999999504, -1.5981408001987591], [4076.904930558539, -2.0], [4287.093850145118, -2.990149367212052], [4289.294260215981, -3.0], [4507.8400309178405, -4.0], [4594.793419988081, -4.3466989148369395], [4776.215188886989, -5.0], [4924.577653379601, -5.500456165221701], [5120.103462425126, -6.0], [5278.031643091506, -6.4062349921372945], [5656.854249492303, -6.978322482969169], [5691.092563497545, -7.0], [6062.866266041501, -7.264864628726611], [6498.019170849792, -7.181488139805172], [6696.164967874988, -7.0], [6964.404506368894, -6.798811319399096], [7464.2639322943505, -6.221530960060874], [7631.760383420918, -6.0], [7999.999999999882, -5.561229748722182]], 'minus_line': [[125.00000000000007, 4.389087672037641], [133.9716828170366, 4.420257169949081], [143.5872943746293, 4.501514118821625], [153.89305166811442, 4.565184920570005], [164.93848884661162, 4.577727342109665], [176.77669529663666, 4.534484723973527], [189.46457081379947, 4.438917051186102], [203.0630990890585, 4.2881409106561135], [217.6376408240306, 4.07407465688391], [221.88745886144696, 4.0], [233.25824788420132, 3.8363364452539264], [249.99999999999937, 3.587285488488857], [267.94336563407256, 3.3207741987417285], [287.1745887492579, 3.037491372183525], [289.88115753073396, 3.0], [307.78610333622805, 2.802216114944814], [329.87697769322244, 2.6059412936826334], [353.55339059327247, 2.4755218605150633], [378.929141627598, 2.4711611761038617], [406.12619817811606, 2.6543959576238], [430.084197545989, 3.0], [435.2752816480601, 3.084230063922477], [466.5164957684015, 3.821072360638835], [472.1970335517772, 4.0], [499.9999999999975, 4.853110849939103], [504.007545533042, 5.0], [531.5151104255577, 6.0], [535.8867312681438, 6.147301989588619], [557.4645022129757, 7.0], [574.3491774985143, 7.592153981334217], [585.7033923798564, 8.0], [615.5722066724546, 8.997054719459022], [615.6731773374958, 8.999999999999998], [649.3353311133928, 10.0], [659.7539553864432, 10.281531487063166], [695.1986180292661, 11.0], [707.1067811865431, 11.237060035104605], [757.8582832551941, 11.808708438991596], [812.2523963562301, 11.98208987294897], [870.5505632961181, 11.811707053729116], [933.0329915368008, 11.33467099258097], [962.2418185839174, 11.0], [999.9999999999926, 10.617378624103107], [1050.7970820267262, 10.0], [1071.773462536285, 9.768111764737393], [1138.3628853234538, 9.0], [1148.698354997026, 8.88991840216678], [1231.1444133449063, 8.067461294937186], [1238.6385977003415, 8.0], [1319.5079107728832, 7.346841050392312], [1367.2597696931343, 7.0], [1414.2135623730828, 6.6925165545761764], [1515.7165665103846, 6.153719106219381], [1555.024004440991, 6.0], [1624.5047927124563, 5.773395426642901], [1741.1011265922318, 5.619755382060543], [1866.065983073597, 5.710004820899334], [1986.8838753348634, 6.0], [1999.9999999999802, 6.036719940617827], [2143.5469250725646, 6.574632699223721], [2262.001078913251, 7.0], [2297.396709994046, 7.139941772257509], [2462.2888266898062, 7.650688184325421], [2639.01582154576, 7.935794542020428], [2828.427124746162, 7.936023605885948], [3031.4331330207615, 7.585434162797213], [3191.850048998409, 7.0], [3249.0095854249043, 6.808627152900829], [3416.113449546301, 5.999999999999999], [3482.2022531844555, 5.691978127040365], [3607.7545539533958, 5.0], [3732.1319661471844, 4.303014930117208], [3786.426984824164, 4.0], [3955.66091486223, 3.0], [3999.9999999999504, 2.7579430741592037], [4145.672635810962, 2.0], [4287.093850145118, 1.2302090631290317], [4338.731978401365, 1.0], [4553.356797313127, 0.0], [4594.793419988076, -0.17923243990736787], [4828.9977036335595, -1.0], [4924.577653379607, -1.32773779950005], [5196.263314864025, -2.0], [5278.031643091506, -2.1926278573784868], [5656.854249492303, -2.7125437412035494], [6062.866266041508, -2.955961861648663], [6498.019170849792, -2.891454771107201], [6964.404506368894, -2.5674695191085677], [7464.2639322943505, -2.0479444639018536], [7497.139239063796, -2.0], [7999.999999999882, -1.2464532000478596]]}",quicsb,001,fr$*,200,2022-07-21_14h50.13.060,Bayesian,2022.1.1,None,
