frequencies,training_trials.thisRepN,training_trials.thisTrialN,training_trials.thisN,training_trials.thisIndex,frequencies.thisRepN,frequencies.thisTrialN,frequencies.thisN,frequencies.thisIndex,trials.thisRepN,trials.thisTrialN,trials.thisN,trials.thisIndex,tFrequency,tLevel,tCorrect,Tprobe.started,Tprobe.stopped,tTriangle_cue.started,tTriangle_cue.stopped,Tfeedback.keys,Tfeedback.corr,Tfeedback.rt,Tfeedback.started,Tfeedback.stopped,reversals_nTrials.routineEndVal,track_dir.routineEndVal,step_up.routineEndVal,Correct,Frequency,Level,Psychopy_Level,Direction,Reversals,Track_dir,Step,probe.started,probe.stopped,cross_cue.started,cross_cue.stopped,circle_cue.started,circle_cue.stopped,triangle_cue.started,triangle_cue.stopped,feedback.keys,feedback.corr,feedback.rt,feedback.started,feedback.stopped,memo.started,memo.stopped,key_resp.keys,key_resp.rt,key_resp.started,key_resp.stopped,text.started,text.stopped,participant,session,skip_training,language (english or french),date,expName,psychopyVersion,frameRate,
850,0,0,0,2,,,,,,,,,850,30,up,59.87993324005511,None,None,None,up,1,2.064761899993755,58.389863800024614,None,,,,,,,,,,,,,,,,,,,,,,,,,,,,,,,,,wfoooa,001,0,fr,2022-05-04_10h56.16.460,3-AFC_adaptive_staircase_mess,2022.1.1,35.895171741209495,
450,0,1,1,1,,,,,,,,,450,30,left,64.13445954006166,64.36170880007558,None,None,left,1,0.9737778999842703,63.67205549997743,None,,,,,,,,,,,,,,,,,,,,,,,,,,,,,,,,,wfoooa,001,0,fr,2022-05-04_10h56.16.460,3-AFC_adaptive_staircase_mess,2022.1.1,35.895171741209495,
1300,0,2,2,3,,,,,,,,,1300,30,up,68.75060893995688,None,None,None,up,1,1.9957502000033855,67.2911900000181,None,,,,,,,,,,,,,,,,,,,,,,,,,,,,,,,,,wfoooa,001,0,fr,2022-05-04_10h56.16.460,3-AFC_adaptive_staircase_mess,2022.1.1,35.895171741209495,
200,0,3,3,0,,,,,,,,,200,30,left,72.11850984003395,None,None,None,left,1,1.0368728999746963,71.65738750004675,None,,,,,,,,,,,,,,,,,,,,,,,,,,,,,,,,,wfoooa,001,0,fr,2022-05-04_10h56.16.460,3-AFC_adaptive_staircase_mess,2022.1.1,35.895171741209495,
5000,0,4,4,4,,,,,,,,,5000,30,up,76.58506074005273,76.80788259999827,None,None,up,1,1.9047234000172466,75.12486410001293,None,,,,,,,,,,,,,,,,,,,,,,,,,,,,,,,,,wfoooa,001,0,fr,2022-05-04_10h56.16.460,3-AFC_adaptive_staircase_mess,2022.1.1,35.895171741209495,
,,,,,0,0,0,0,0,0,0,0,,,,,,,,,,,,,[],[],10,right,1000,30,0.0013930605843148849,0,0,-1,10,96.84250264002476,97.06176369998138,94.78519470000174,95.103264400037,95.77356000000145,96.10194029996637,96.78233539999928,97.09442620002665,right,1,2.5670686999801546,94.84801299998071,None,97.33646420005243,None,,,,,,,wfoooa,001,0,fr,2022-05-04_10h56.16.460,3-AFC_adaptive_staircase_mess,2022.1.1,35.895171741209495,
,,,,,0,0,0,0,1,0,1,0,,,,,,,,,,,,,,,,left,1000,30,0.0013930605843148849,0,0,-1,10,98.97718314004597,99.19617760006804,98.91824180004187,99.2251073999796,None,None,None,None,left,1,0.5464461999945343,98.97888479998801,None,None,None,,,,,,,wfoooa,001,0,fr,2022-05-04_10h56.16.460,3-AFC_adaptive_staircase_mess,2022.1.1,35.895171741209495,
,,,,,0,0,0,0,2,0,2,0,,,,,,,,,,,,,,,,up,1000,10,0.00013930605843148847,-1,0,-1,-10,102.05323493997567,102.27551100007258,101.02087160001975,101.36215800000355,102.0247194999829,102.33248179999646,103.01999230007641,103.3217302999692,up,1,2.293009400018491,101.0565060999943,None,None,None,,,,,,,wfoooa,001,0,fr,2022-05-04_10h56.16.460,3-AFC_adaptive_staircase_mess,2022.1.1,35.895171741209495,
,,,,,0,0,0,0,3,0,3,0,,,,,,,,,,,,,,,,right,1000,10,0.00013930605843148847,-1,0,-1,-10,106.86003654000815,None,104.82329139998183,105.12596069998108,105.81607140006963,106.13964269997086,106.83152110001538,107.15276119997725,right,1,2.5122116999700665,104.88583150005434,None,107.36286690004636,None,,,,,,,wfoooa,001,0,fr,2022-05-04_10h56.16.460,3-AFC_adaptive_staircase_mess,2022.1.1,35.895171741209495,
,,,,,0,0,0,0,4,0,4,0,,,,,,,,,,,,,,,,left,1000,0,4.405244365040069e-05,-1,0,-1,-10,108.95394544005394,109.17340239998884,108.89560479996726,109.20214900001884,109.901705199969,110.21326740004588,110.89721079997253,111.2174648999935,left,1,3.2069142999826,108.95786450000014,None,111.46866160002537,None,,,,,,,wfoooa,001,0,fr,2022-05-04_10h56.16.460,3-AFC_adaptive_staircase_mess,2022.1.1,35.895171741209495,
,,,,,0,0,0,0,5,0,5,0,,,,,,,,,,,,,,,,left,1000,0,4.405244365040069e-05,-1,0,-1,-10,113.72759244001936,None,113.66734050004743,113.99062499997672,114.68970870005433,115.0204530999763,115.67282900004648,116.00400700001046,left,1,2.5652877000393346,113.7285234000301,None,116.24326610006392,None,,,,,,,wfoooa,001,0,fr,2022-05-04_10h56.16.460,3-AFC_adaptive_staircase_mess,2022.1.1,35.895171741209495,
,,,,,0,0,0,0,6,0,6,0,,,,,,,,,,,,,,,,left,1000,-10,1.3930605843148848e-05,-1,0,-1,-10,117.83170533999801,118.05175470001996,117.77327870007139,118.08369250001851,118.76611159997992,119.09287110005971,119.77269140002318,120.07530170003884,up,0,4.845636200043373,117.83225420000963,None,120.3141851000255,None,,,,,,,wfoooa,001,0,fr,2022-05-04_10h56.16.460,3-AFC_adaptive_staircase_mess,2022.1.1,35.895171741209495,
,,,,,0,0,0,0,7,0,7,0,,,,,,,,,,,,,,,,right,1000,-5,2.4772509540239506e-05,1,1,1,5,126.21411234005355,126.43797460000496,124.15784340002574,124.47854320006445,125.15210229996592,125.45143000001553,126.15636510006152,126.46744879998732,left,0,4.311979199992493,124.22076220007148,None,126.69223190005869,None,,,,,,,wfoooa,001,0,fr,2022-05-04_10h56.16.460,3-AFC_adaptive_staircase_mess,2022.1.1,35.895171741209495,
,,,,,0,0,0,0,8,0,8,0,,,,,,,,,,,,,,,,right,1000,0,4.405244365040069e-05,1,1,1,5,132.09100454002618,None,130.03926420002244,130.33011039998382,131.05089529999532,131.35358800005633,132.04164229996968,132.34991800005082,right,1,3.027979900012724,130.09856810001656,None,132.5889698000392,None,,,,,,,wfoooa,001,0,fr,2022-05-04_10h56.16.460,3-AFC_adaptive_staircase_mess,2022.1.1,35.895171741209495,
,,,,,0,0,0,0,9,0,9,0,,,,,,,,,,,,,,,,up,1000,0,4.405244365040069e-05,1,1,1,5,135.63474764004349,None,134.58673059998546,134.90689870005008,135.60623220005073,135.92704300000332,136.58913209999446,136.91636100003961,up,1,3.896108299959451,134.6547305000713,None,137.13421459996607,None,,,,,,,wfoooa,001,0,fr,2022-05-04_10h56.16.460,3-AFC_adaptive_staircase_mess,2022.1.1,35.895171741209495,
,,,,,0,0,0,0,10,0,10,0,,,,,,,,,,,,,,,,left,1000,-10,1.3930605843148848e-05,-1,2,-1,-5.0,140.11313453996553,None,140.04977929999586,140.37130890006665,141.06261859997176,141.3758977999678,142.03563559998292,142.35723029996734,left,1,3.7273860001005232,140.11885930004064,None,142.60796170006506,None,,,,,,,wfoooa,001,0,fr,2022-05-04_10h56.16.460,3-AFC_adaptive_staircase_mess,2022.1.1,35.895171741209495,
,,,,,0,0,0,0,11,0,11,0,,,,,,,,,,,,,,,,right,1000,-10,1.3930605843148848e-05,-1,2,-1,-5.0,147.37065214004832,None,145.33100770006422,145.65769200003706,146.3330891999649,146.64549600007012,147.31034159997944,147.63415519997943,left,0,2.7558496000710875,145.36166819999926,None,147.875247900025,None,,,,,,,wfoooa,001,0,fr,2022-05-04_10h56.16.460,3-AFC_adaptive_staircase_mess,2022.1.1,35.895171741209495,
,,,,,0,0,0,0,12,0,12,0,,,,,,,,,,,,,,,,left,1000,-7.5,1.8576761454858622e-05,1,3,1,2.5,149.66174314001108,149.88199789996725,149.6030405999627,149.91050460003316,150.59790469997097,150.91784540005028,151.59973680006806,151.93306239997037,left,1,2.7273615000303835,149.66226290003397,None,152.17001390003134,None,,,,,,,wfoooa,001,0,fr,2022-05-04_10h56.16.460,3-AFC_adaptive_staircase_mess,2022.1.1,35.895171741209495,
,,,,,0,0,0,0,13,0,13,0,,,,,,,,,,,,,,,,left,1000,-7.5,1.8576761454858622e-05,1,3,1,2.5,153.91458974003325,None,153.85731720004696,154.15872619999573,154.87576620001346,155.1759965000674,155.86708890006412,156.2023162000114,up,0,3.255328799947165,153.91864649998024,None,156.42151260003448,None,,,,,,,wfoooa,001,0,fr,2022-05-04_10h56.16.460,3-AFC_adaptive_staircase_mess,2022.1.1,35.895171741209495,
,,,,,0,0,0,0,14,0,14,0,,,,,,,,,,,,,,,,right,1000,-5.0,2.4772509540239506e-05,1,3,1,2.5,160.72555724000557,160.95499550004024,158.66942940000445,158.97072480001952,159.68134550005198,159.9867188000353,160.6970418000128,161.01787139999215,left,0,3.1120294999564067,158.73384810006246,None,161.22639780002646,None,,,,,,,wfoooa,001,0,fr,2022-05-04_10h56.16.460,3-AFC_adaptive_staircase_mess,2022.1.1,35.895171741209495,
,,,,,0,0,0,0,15,0,15,0,,,,,,,,,,,,,,,,up,1000,-2.5,3.303467240037979e-05,1,3,1,2.5,164.37110614001284,164.59036899998318,163.29398560000118,163.63297629996669,164.31031460000668,164.62150320003275,165.31008720002137,165.64107680006418,up,1,2.8976831999607384,163.3645891000051,None,165.87873480003327,None,,,,,,,wfoooa,001,0,fr,2022-05-04_10h56.16.460,3-AFC_adaptive_staircase_mess,2022.1.1,35.895171741209495,
,,,,,0,0,0,0,16,0,16,0,,,,,,,,,,,,,,,,right,1000,-2.5,3.303467240037979e-05,1,3,1,2.5,169.84336753997485,170.0650402000174,167.78326349996496,168.1003729000222,168.7907207000535,169.09416280000005,169.78229250002187,170.09611390007194,right,1,3.4521195999113843,167.83429659996182,None,170.330489300075,None,,,,,,,wfoooa,001,0,fr,2022-05-04_10h56.16.460,3-AFC_adaptive_staircase_mess,2022.1.1,35.895171741209495,
,,,,,0,0,0,0,17,0,17,0,,,,,,,,,,,,,,,,right,1000,-7.5,1.8576761454858622e-05,-1,4,-1,-5.0,174.80625144001095,175.02250750001986,172.76527370000258,173.08217910001986,173.7564818999963,174.08759630005807,174.7777360000182,175.0778765999712,up,0,2.9570908000459895,172.82414539996535,None,175.31752090004738,None,,,,,,,wfoooa,001,0,fr,2022-05-04_10h56.16.460,3-AFC_adaptive_staircase_mess,2022.1.1,35.895171741209495,
,,,,,0,0,0,0,18,0,18,0,,,,,,,,,,,,,,,,up,1000,-5.0,2.4772509540239506e-05,1,5,1,2.5,178.31222834000363,None,177.2749794999836,177.60195609997027,178.25447200005874,178.57144089997746,179.2597350999713,179.56934629997704,left,0,2.669064400019124,177.30467810004484,None,179.81867559999228,None,,,,,,,wfoooa,001,0,fr,2022-05-04_10h56.16.460,3-AFC_adaptive_staircase_mess,2022.1.1,35.895171741209495,
,,,,,0,0,0,0,19,0,19,0,,,,,,,,,,,,,,,,left,1000,-2.5,3.303467240037979e-05,1,5,1,2.5,181.51983784004113,181.74520640005358,181.46003700001165,181.7750028000446,182.45971159997862,182.78892399999313,183.46520970005076,183.7960622999817,left,1,2.6153769999509677,181.51944000006188,None,184.00165440002456,None,,,,,,,wfoooa,001,0,fr,2022-05-04_10h56.16.460,3-AFC_adaptive_staircase_mess,2022.1.1,35.895171741209495,
,,,,,0,0,0,0,20,0,20,0,,,,,,,,,,,,,,,,right,1000,-2.5,3.303467240037979e-05,1,5,1,2.5,187.66568213996942,187.88823829998728,185.60401200002525,185.92142989998683,186.6042987999972,186.9368162000319,187.60534470004495,187.92038460006006,left,0,4.516970700002275,185.66604859998915,None,188.16220969997812,None,,,,,,,wfoooa,001,0,fr,2022-05-04_10h56.16.460,3-AFC_adaptive_staircase_mess,2022.1.1,35.895171741209495,
,,,,,0,0,0,0,21,0,21,0,,,,,,,,,,,,,,,,right,1000,0.0,4.405244365040069e-05,1,5,1,2.5,193.73826704004313,193.95444170001429,191.67323529999703,191.97771090001334,192.67341539997142,193.00935309997294,193.6760273000691,193.98538199998438,left,0,3.241113599971868,191.7406186000444,None,194.22828300006222,None,,,,,,,wfoooa,001,0,fr,2022-05-04_10h56.16.460,3-AFC_adaptive_staircase_mess,2022.1.1,35.895171741209495,
,,,,,0,0,0,0,22,0,22,0,,,,,,,,,,,,,,,,right,1000,2.5,5.874487774697646e-05,1,5,1,2.5,198.50843184003605,198.72948960005306,196.44548080000095,196.752917899983,197.45268870005384,197.77779309998732,198.44566560001113,198.76068469998427,right,1,2.933266200008802,196.512825599988,None,199.0011292999843,None,,,,,,,wfoooa,001,0,fr,2022-05-04_10h56.16.460,3-AFC_adaptive_staircase_mess,2022.1.1,35.895171741209495,
,,,,,0,0,0,0,23,0,23,0,,,,,,,,,,,,,,,,right,1000,2.5,5.874487774697646e-05,1,5,1,2.5,202.9822667399887,203.20227340003476,200.93525940005202,201.23689689999446,201.9189531999873,202.25071499997284,202.91980659996625,203.2322108000517,right,1,2.783740899991244,200.96601670002565,None,203.48925760004204,None,,,,,,,wfoooa,001,0,fr,2022-05-04_10h56.16.460,3-AFC_adaptive_staircase_mess,2022.1.1,35.895171741209495,
,,,,,0,0,0,0,24,0,24,0,,,,,,,,,,,,,,,,left,1000,-2.5,3.303467240037979e-05,-1,6,-1,-5.0,205.29012144000734,None,205.231486100005,205.5375430000713,206.2195008000126,206.55901530000847,207.22916700004134,207.55488339997828,up,0,3.1639338999520987,205.28985309996642,None,207.7704077999806,None,,,,,,,wfoooa,001,0,fr,2022-05-04_10h56.16.460,3-AFC_adaptive_staircase_mess,2022.1.1,35.895171741209495,
,,,,,1,0,1,0,0,0,0,0,,,,,,,,,,,,,[],[],10,left,1500,30,0.001527460556607757,0,0,-1,10,211.12586664005647,211.34129150002263,211.0973512000637,211.40508399996907,212.09862070006784,212.42773940006737,213.06882030004635,213.39852539997082,left,1,2.6668949999148026,211.13088800001424,None,213.62974500004202,None,up,1.0841767999809235,209.529234000016,None,209.529234000016,None,wfoooa,001,0,fr,2022-05-04_10h56.16.460,3-AFC_adaptive_staircase_mess,2022.1.1,35.895171741209495,
,,,,,1,0,1,0,1,0,1,0,,,,,,,,,,,,,,,,left,1500,30,0.001527460556607757,0,0,-1,10,215.317681839969,215.54114650003612,215.26117499999236,215.57267460005824,216.27721804000902,None,None,None,left,1,0.9284061000216752,215.31774289999157,None,None,None,,,,,,,wfoooa,001,0,fr,2022-05-04_10h56.16.460,3-AFC_adaptive_staircase_mess,2022.1.1,35.895171741209495,
,,,,,1,0,1,0,2,0,2,0,,,,,,,,,,,,,,,,up,1500,10,0.0001527460556607757,-1,0,-1,-10,218.77401703996583,None,217.69901480001863,218.00494640006218,218.71612560003996,219.0400154000381,None,None,up,1,1.584565700031817,217.76576169999316,None,None,None,,,,,,,wfoooa,001,0,fr,2022-05-04_10h56.16.460,3-AFC_adaptive_staircase_mess,2022.1.1,35.895171741209495,
,,,,,1,0,1,0,3,0,3,0,,,,,,,,,,,,,,,,up,1500,10,0.0001527460556607757,-1,0,-1,-10,221.898683339986,222.11467110004742,220.83618530002423,221.16612309997436,221.83706240006723,222.14685889997054,None,None,up,1,1.7140409999992698,220.90033490001224,None,None,None,,,,,,,wfoooa,001,0,fr,2022-05-04_10h56.16.460,3-AFC_adaptive_staircase_mess,2022.1.1,35.895171741209495,
,,,,,1,0,1,0,4,0,4,0,,,,,,,,,,,,,,,,left,1500,0,4.830254394949071e-05,-1,0,-1,-10,224.17270173998548,224.3875834000064,224.14418629999273,224.44740040006582,None,None,None,None,left,1,0.8691504000453278,224.17690389999188,None,None,None,,,,,,,wfoooa,001,0,fr,2022-05-04_10h56.16.460,3-AFC_adaptive_staircase_mess,2022.1.1,35.895171741209495,
,,,,,1,0,1,0,5,0,5,0,,,,,,,,,,,,,,,,left,1500,0,4.830254394949071e-05,-1,0,-1,-10,226.59286934002301,226.81059610005468,226.56435390003026,226.86656480003148,None,None,None,None,left,1,0.6444444000953808,226.59362719999626,None,None,None,,,,,,,wfoooa,001,0,fr,2022-05-04_10h56.16.460,3-AFC_adaptive_staircase_mess,2022.1.1,35.895171741209495,
,,,,,1,0,1,0,6,0,6,0,,,,,,,,,,,,,,,,left,1500,-10,1.527460556607758e-05,-1,0,-1,-10,228.75465214001014,None,228.72613670001738,229.03356100001838,229.71154360007495,230.04542660003062,230.72292289999314,231.02870779996738,left,1,3.236337599926628,228.75408590002917,None,231.2680338000646,None,,,,,,,wfoooa,001,0,fr,2022-05-04_10h56.16.460,3-AFC_adaptive_staircase_mess,2022.1.1,35.895171741209495,
,,,,,1,0,1,0,7,0,7,0,,,,,,,,,,,,,,,,up,1500,-10,1.527460556607758e-05,-1,0,-1,-10,234.52796744001097,None,233.49056469998322,233.81520920002367,234.4994520000182,234.81700350006577,235.50072200002614,235.81790290004574,left,0,2.8093255000421777,233.54790080001112,None,236.0526141000446,None,,,,,,,wfoooa,001,0,fr,2022-05-04_10h56.16.460,3-AFC_adaptive_staircase_mess,2022.1.1,35.895171741209495,
,,,,,1,0,1,0,8,0,8,0,,,,,,,,,,,,,,,,up,1500,-5,2.716251657462168e-05,1,1,1,5,238.89191774004138,239.11024369997904,237.85627970006317,238.1859624000499,238.86340230004862,239.16537740000058,239.85375939996447,240.1748268000083,up,1,2.6166149999480695,237.91766849998385,None,240.41903720004484,None,,,,,,,wfoooa,001,0,fr,2022-05-04_10h56.16.460,3-AFC_adaptive_staircase_mess,2022.1.1,35.895171741209495,
,,,,,1,0,1,0,9,0,9,0,,,,,,,,,,,,,,,,up,1500,-5,2.716251657462168e-05,1,1,1,5,243.0741184399696,None,242.02108600002248,242.32629420002922,243.017285500071,243.33783169998787,244.02304030000232,244.34804060007446,left,0,2.854626400046982,242.07813909999095,None,244.55578930000775,None,,,,,,,wfoooa,001,0,fr,2022-05-04_10h56.16.460,3-AFC_adaptive_staircase_mess,2022.1.1,35.895171741209495,
,,,,,1,0,1,0,10,0,10,0,,,,,,,,,,,,,,,,up,1500,0,4.830254394949071e-05,1,1,1,5,247.48284044004976,247.7098302000668,246.45212789997458,246.7811675000703,247.454325000057,247.7707117999671,248.4301262999652,248.7652747000102,up,1,2.279441799968481,246.478341500042,None,None,None,,,,,,,wfoooa,001,0,fr,2022-05-04_10h56.16.460,3-AFC_adaptive_staircase_mess,2022.1.1,35.895171741209495,
,,,,,1,0,1,0,11,0,11,0,,,,,,,,,,,,,,,,right,1500,0,4.830254394949071e-05,1,1,1,5,252.31352363997138,None,250.25318110000808,250.5815110000549,251.23691720003262,251.5714196000481,252.25135919998866,252.5815631999867,right,1,2.747857899987139,250.28153529996052,None,252.80585370003246,None,,,,,,,wfoooa,001,0,fr,2022-05-04_10h56.16.460,3-AFC_adaptive_staircase_mess,2022.1.1,35.895171741209495,
,,,,,1,0,1,0,12,0,12,0,,,,,,,,,,,,,,,,left,1500,-10,1.527460556607758e-05,-1,2,-1,-5.0,254.5671737400582,None,254.50667450006586,254.82926590007264,255.50435569998808,255.83871230005752,256.4971501000691,256.7979648000328,left,1,4.441940300050192,254.57173640001565,None,257.0629512000596,None,,,,,,,wfoooa,001,0,fr,2022-05-04_10h56.16.460,3-AFC_adaptive_staircase_mess,2022.1.1,35.895171741209495,
,,,,,1,0,1,0,13,0,13,0,,,,,,,,,,,,,,,,left,1500,-10,1.527460556607758e-05,-1,2,-1,-5.0,260.55451154003384,260.77131119999103,260.5259961000411,260.827158399974,261.5133429999696,261.84058429999277,262.5163263999857,262.85218899999745,up,0,3.099168499931693,260.5554151000688,None,263.0867973000277,None,,,,,,,wfoooa,001,0,fr,2022-05-04_10h56.16.460,3-AFC_adaptive_staircase_mess,2022.1.1,35.895171741209495,
,,,,,1,0,1,0,14,0,14,0,,,,,,,,,,,,,,,,up,1500,-7.5,2.036901389020565e-05,1,3,1,2.5,266.2183126400225,266.4374073999934,265.1535375000676,265.48755980003625,266.15369599999394,266.4663005999755,267.1569765000604,267.48796339996625,up,1,2.9292430999921635,265.2204591999762,None,267.7244504999835,None,,,,,,,wfoooa,001,0,fr,2022-05-04_10h56.16.460,3-AFC_adaptive_staircase_mess,2022.1.1,35.895171741209495,
,,,,,1,0,1,0,15,0,15,0,,,,,,,,,,,,,,,,left,1500,-7.5,2.036901389020565e-05,1,3,1,2.5,269.69227894004433,None,269.63007529999595,269.95494500000495,270.63706199999433,270.9375868999632,271.6339236999629,271.95472639997024,left,1,3.734051499981433,269.6956726000644,None,272.1994149000384,None,,,,,,,wfoooa,001,0,fr,2022-05-04_10h56.16.460,3-AFC_adaptive_staircase_mess,2022.1.1,35.895171741209495,
,,,,,1,0,1,0,16,0,16,0,,,,,,,,,,,,,,,,right,1500,-12.5,1.1454338263838873e-05,-1,4,-1,-5.0,276.99098514001815,277.20612430002075,274.92929700005334,275.25926880002953,275.9166172000114,276.24239570007194,276.93459900002927,277.2377239000052,right,1,3.398405999992974,274.9906110999873,None,277.47155580006074,None,,,,,,,wfoooa,001,0,fr,2022-05-04_10h56.16.460,3-AFC_adaptive_staircase_mess,2022.1.1,35.895171741209495,
,,,,,1,0,1,0,17,0,17,0,,,,,,,,,,,,,,,,right,1500,-12.5,1.1454338263838873e-05,-1,4,-1,-5.0,281.9315542399883,None,279.8777499999851,280.2077930000378,280.8752779000206,281.1961278000381,281.87428870005533,282.18869260000065,left,0,3.2816195000195876,279.90817760000937,None,282.42448829999194,None,,,,,,,wfoooa,001,0,fr,2022-05-04_10h56.16.460,3-AFC_adaptive_staircase_mess,2022.1.1,35.895171741209495,
,,,,,1,0,1,0,18,0,18,0,,,,,,,,,,,,,,,,left,1500,-10.0,1.527460556607758e-05,1,5,1,2.5,284.72944834006483,284.9442289000144,284.66901650000364,284.97836850001477,285.68033450003713,285.9849669999676,286.6871073000366,287.00703179999255,up,0,2.68295719998423,284.731138400035,None,287.24639139999636,None,,,,,,,wfoooa,001,0,fr,2022-05-04_10h56.16.460,3-AFC_adaptive_staircase_mess,2022.1.1,35.895171741209495,
,,,,,1,0,1,0,19,0,19,0,,,,,,,,,,,,,,,,up,1500,-7.5,2.036901389020565e-05,1,5,1,2.5,289.9613279400393,290.1855440000072,288.92777379998006,289.25233489996754,289.93281250004657,290.2464143000543,290.94385779998265,291.2755002999911,up,1,3.0054393000900745,288.9846205000067,None,291.47739630006254,None,,,,,,,wfoooa,001,0,fr,2022-05-04_10h56.16.460,3-AFC_adaptive_staircase_mess,2022.1.1,35.895171741209495,
,,,,,1,0,1,0,20,0,20,0,,,,,,,,,,,,,,,,up,1500,-7.5,2.036901389020565e-05,1,5,1,2.5,294.5357848400483,294.7576301000081,293.50609959999565,293.8115331999725,294.5072694000555,294.8208541000495,295.4763675000286,295.8012858000584,up,1,2.9353528999490663,293.53407439996954,None,296.03865250002127,None,,,,,,,wfoooa,001,0,fr,2022-05-04_10h56.16.460,3-AFC_adaptive_staircase_mess,2022.1.1,35.895171741209495,
,,,,,1,0,1,0,21,0,21,0,,,,,,,,,,,,,,,,right,1500,-12.5,1.1454338263838873e-05,-1,6,-1,-5.0,300.00343763995915,300.23087900003884,297.9833846000256,298.2882247000234,298.95325190003496,299.28187629999593,299.94723290007096,300.2625756000634,right,1,7.588388600037433,298.017585100024,None,300.50663540000096,None,,,,,,,wfoooa,001,0,fr,2022-05-04_10h56.16.460,3-AFC_adaptive_staircase_mess,2022.1.1,35.895171741209495,
,,,,,2,0,2,0,0,0,0,0,,,,,,,,,,,,,[],[],10,left,2000,30,0.0023657562948074026,0,0,-1,10,319.56442054004873,319.7828675999772,319.5034499000758,319.8151501000393,None,None,None,None,left,1,0.7728947000578046,319.56931190006435,None,None,None,up,12.369463799986988,306.6767519999994,None,306.6767519999994,None,wfoooa,001,0,fr,2022-05-04_10h56.16.460,3-AFC_adaptive_staircase_mess,2022.1.1,35.895171741209495,
,,,,,2,0,2,0,1,0,1,0,,,,,,,,,,,,,,,,up,2000,30,0.0023657562948074026,0,0,-1,10,322.872053140006,323.0868191999616,321.80680380004924,322.12408550002147,322.81443130003754,323.1200277999742,None,None,up,1,1.5420056000584736,321.8724613999948,None,None,None,,,,,,,wfoooa,001,0,fr,2022-05-04_10h56.16.460,3-AFC_adaptive_staircase_mess,2022.1.1,35.895171741209495,
,,,,,2,0,2,0,2,0,2,0,,,,,,,,,,,,,,,,left,2000,10,0.00023657562948074026,-1,0,-1,-10,324.9401021400001,None,324.88262250006665,325.1838441999862,None,None,None,None,left,1,0.6461452000075951,324.94325760006905,None,None,None,,,,,,,wfoooa,001,0,fr,2022-05-04_10h56.16.460,3-AFC_adaptive_staircase_mess,2022.1.1,35.895171741209495,
,,,,,2,0,2,0,3,0,3,0,,,,,,,,,,,,,,,,up,2000,10,0.00023657562948074026,-1,0,-1,-10,328.11047733998856,None,327.0798114000354,327.40886840003077,328.05285530001856,328.3654418999795,None,None,up,1,1.5654984000138938,327.112278399989,None,None,None,,,,,,,wfoooa,001,0,fr,2022-05-04_10h56.16.460,3-AFC_adaptive_staircase_mess,2022.1.1,35.895171741209495,
,,,,,2,0,2,0,4,0,4,0,,,,,,,,,,,,,,,,left,2000,0,7.481178280472168e-05,-1,0,-1,-10,330.1904615400592,None,330.1619461000664,330.48643230006564,331.15506150003057,331.480478100013,332.1554337000707,332.48437149997335,left,1,2.5489180999575183,330.1927138000028,None,332.6965481999796,None,,,,,,,wfoooa,001,0,fr,2022-05-04_10h56.16.460,3-AFC_adaptive_staircase_mess,2022.1.1,35.895171741209495,
,,,,,2,0,2,0,5,0,5,0,,,,,,,,,,,,,,,,left,2000,0,7.481178280472168e-05,-1,0,-1,-10,334.285609539994,334.4970307999756,334.2237525000237,334.5288959000027,None,None,None,None,left,1,0.8513167999917641,334.29012190003414,None,None,None,,,,,,,wfoooa,001,0,fr,2022-05-04_10h56.16.460,3-AFC_adaptive_staircase_mess,2022.1.1,35.895171741209495,
,,,,,2,0,2,0,6,0,6,0,,,,,,,,,,,,,,,,right,2000,-10,2.3657562948074015e-05,-1,0,-1,-10,338.6919043399859,None,336.61676020000596,336.92356739996467,337.6402181000449,337.95878300000913,338.6344938999973,338.9581940000644,right,1,3.7953394000651315,336.6739725000225,None,339.1790279999841,None,,,,,,,wfoooa,001,0,fr,2022-05-04_10h56.16.460,3-AFC_adaptive_staircase_mess,2022.1.1,35.895171741209495,
,,,,,2,0,2,0,7,0,7,0,,,,,,,,,,,,,,,,up,2000,-10,2.3657562948074015e-05,-1,0,-1,-10,342.99101774003356,None,341.92936970002484,342.25028350006323,342.9625023000408,343.2933335000416,343.9351381000597,344.26235149998683,up,1,3.277246300014667,341.9931588000618,None,344.5065298000118,None,,,,,,,wfoooa,001,0,fr,2022-05-04_10h56.16.460,3-AFC_adaptive_staircase_mess,2022.1.1,35.895171741209495,
,,,,,2,0,2,0,8,0,8,0,,,,,,,,,,,,,,,,right,2000,-20,7.481178280472164e-06,-1,0,-1,-10,348.79266444004605,349.0127523000119,346.7408346000593,347.0681273000082,347.7380155000137,348.0636483000126,348.7641490000533,349.0741699000355,left,0,2.562387599959038,346.80297299998347,None,349.2963597000344,None,,,,,,,wfoooa,001,0,fr,2022-05-04_10h56.16.460,3-AFC_adaptive_staircase_mess,2022.1.1,35.895171741209495,
,,,,,2,0,2,0,9,0,9,0,,,,,,,,,,,,,,,,right,2000,-15,1.3303625298994042e-05,1,1,1,5,352.88174003995954,None,350.83611979999114,351.1643561000237,351.83456280000973,352.1526720999973,352.8532245999668,353.1773280999623,left,0,2.641091699944809,350.9013901000144,None,353.4051862000488,None,,,,,,,wfoooa,001,0,fr,2022-05-04_10h56.16.460,3-AFC_adaptive_staircase_mess,2022.1.1,35.895171741209495,
,,,,,2,0,2,0,10,0,10,0,,,,,,,,,,,,,,,,right,2000,-10,2.3657562948074015e-05,1,1,1,5,357.07074864003806,357.2871784999734,355.01275120000355,355.3152193999849,356.0108814999694,356.3388275000034,357.0094034000067,357.3188007000135,left,0,3.6701124000828713,355.0719036000082,None,357.5742854999844,None,,,,,,,wfoooa,001,0,fr,2022-05-04_10h56.16.460,3-AFC_adaptive_staircase_mess,2022.1.1,35.895171741209495,
,,,,,2,0,2,0,11,0,11,0,,,,,,,,,,,,,,,,up,2000,-5,4.206975708225974e-05,1,1,1,5,361.28237824006936,None,360.2180532000493,360.5448569,361.225139999995,361.5479503000388,362.2209394000238,362.5505398999667,up,1,3.0505948000354692,360.2827738999622,None,362.77548990002833,None,,,,,,,wfoooa,001,0,fr,2022-05-04_10h56.16.460,3-AFC_adaptive_staircase_mess,2022.1.1,35.895171741209495,
,,,,,2,0,2,0,12,0,12,0,,,,,,,,,,,,,,,,right,2000,-5,4.206975708225974e-05,1,1,1,5,366.8698882400524,367.09834849997424,364.82067639997695,365.1210386999883,365.8414802000625,366.1538275000639,366.8413728000596,367.1590196000179,up,0,2.6444405999500304,364.8809125999687,None,367.3688615000574,None,,,,,,,wfoooa,001,0,fr,2022-05-04_10h56.16.460,3-AFC_adaptive_staircase_mess,2022.1.1,35.895171741209495,
,,,,,2,0,2,0,13,0,13,0,,,,,,,,,,,,,,,,up,2000,0,7.481178280472168e-05,1,1,1,5,370.08487204001284,None,369.026750799967,369.3560268000001,370.0253865000559,370.35419390001334,371.02834770001937,371.3541732999729,up,1,2.305553900077939,369.09215200005565,None,None,None,,,,,,,wfoooa,001,0,fr,2022-05-04_10h56.16.460,3-AFC_adaptive_staircase_mess,2022.1.1,35.895171741209495,
,,,,,2,0,2,0,14,0,14,0,,,,,,,,,,,,,,,,right,2000,0,7.481178280472168e-05,1,1,1,5,374.95414763996376,None,372.8902425999986,373.19653690000996,373.89613470004406,374.22157699998934,374.8918037000112,375.2141573000699,right,1,3.8343328000046313,372.9553614000324,None,375.46201859996654,None,,,,,,,wfoooa,001,0,fr,2022-05-04_10h56.16.460,3-AFC_adaptive_staircase_mess,2022.1.1,35.895171741209495,
,,,,,2,0,2,0,15,0,15,0,,,,,,,,,,,,,,,,left,2000,-10,2.3657562948074015e-05,-1,2,-1,-5.0,378.3173064400209,378.54130499996245,378.2572829000419,378.57334800006356,379.2751055000117,379.5789116000524,380.2628097999841,380.56316919997334,right,0,4.121344799990766,378.31683949998114,None,380.83160370006226,None,,,,,,,wfoooa,001,0,fr,2022-05-04_10h56.16.460,3-AFC_adaptive_staircase_mess,2022.1.1,35.895171741209495,
,,,,,2,0,2,0,16,0,16,0,,,,,,,,,,,,,,,,left,2000,-7.5,3.154786722400965e-05,1,3,1,2.5,383.97141193998976,None,383.942896499997,384.2470684000291,384.92827759997454,385.23103470006026,385.9168961000396,386.22471970005427,up,0,2.5603185000363737,383.9737027999945,None,386.49438110005576,None,,,,,,,wfoooa,001,0,fr,2022-05-04_10h56.16.460,3-AFC_adaptive_staircase_mess,2022.1.1,35.895171741209495,
,,,,,2,0,2,0,17,0,17,0,,,,,,,,,,,,,,,,up,2000,-5.0,4.206975708225974e-05,1,3,1,2.5,389.10368454006965,389.31748139997944,388.0445321999723,388.3517560000764,389.04096320003737,389.3495697999606,390.04010840004776,390.34917299996596,right,0,2.938900399953127,388.0745225000428,None,390.59184540004935,None,,,,,,,wfoooa,001,0,fr,2022-05-04_10h56.16.460,3-AFC_adaptive_staircase_mess,2022.1.1,35.895171741209495,
,,,,,2,0,2,0,18,0,18,0,,,,,,,,,,,,,,,,up,2000,-2.5,5.610092271509818e-05,1,3,1,2.5,393.57227804004214,393.79055320005864,392.5292232000502,392.82998789998237,393.51389269996434,393.8229600000195,394.51891740004066,394.8199900999898,up,1,2.597640599939041,392.55968000006396,None,395.0873618000187,None,,,,,,,wfoooa,001,0,fr,2022-05-04_10h56.16.460,3-AFC_adaptive_staircase_mess,2022.1.1,35.895171741209495,
,,,,,2,0,2,0,19,0,19,0,,,,,,,,,,,,,,,,left,2000,-2.5,5.610092271509818e-05,1,3,1,2.5,396.7088775400072,396.92483010003343,396.65098040003795,396.9582140999846,397.6673538000323,397.9808618000243,398.6598121999996,398.9890122000361,left,1,2.7518074000254273,396.71007090003695,None,399.22068520006724,None,,,,,,,wfoooa,001,0,fr,2022-05-04_10h56.16.460,3-AFC_adaptive_staircase_mess,2022.1.1,35.895171741209495,
,,,,,2,0,2,0,20,0,20,0,,,,,,,,,,,,,,,,left,2000,-7.5,3.154786722400965e-05,-1,4,-1,-5.0,401.0161247400567,None,400.95739070000127,401.2733206000412,401.9606695000548,402.26077659998555,402.9594550000038,403.27821760007646,up,0,2.6196993000339717,401.01794930000324,None,403.5134545000037,None,,,,,,,wfoooa,001,0,fr,2022-05-04_10h56.16.460,3-AFC_adaptive_staircase_mess,2022.1.1,35.895171741209495,
,,,,,2,0,2,0,21,0,21,0,,,,,,,,,,,,,,,,up,2000,-5.0,4.206975708225974e-05,1,5,1,2.5,406.1600766400108,None,405.12588259996846,405.4269083000254,406.10341380001046,406.40419270005077,407.13179640006274,407.43144309998024,up,1,2.5304105000104755,405.1556143000489,None,407.67104899999686,None,,,,,,,wfoooa,001,0,fr,2022-05-04_10h56.16.460,3-AFC_adaptive_staircase_mess,2022.1.1,35.895171741209495,
,,,,,2,0,2,0,22,0,22,0,,,,,,,,,,,,,,,,left,2000,-5.0,4.206975708225974e-05,1,5,1,2.5,409.2299588399939,409.4494512999663,409.1686007999815,409.4776980000315,410.16345180000644,410.4917327000294,411.1769378000172,411.48857759998646,left,1,2.629675199976191,409.23170640005264,None,411.72948780003935,None,,,,,,,wfoooa,001,0,fr,2022-05-04_10h56.16.460,3-AFC_adaptive_staircase_mess,2022.1.1,35.895171741209495,
,,,,,2,0,2,0,23,0,23,0,,,,,,,,,,,,,,,,left,2000,-10.0,2.3657562948074015e-05,-1,6,-1,-5.0,413.40764914003665,413.6276257999707,413.34950160002336,413.6441682999721,414.3321872999659,414.63253659999464,415.3436995999655,415.6442982000299,right,0,2.7412373000988737,413.4081275999779,None,415.89443250000477,None,,,,,,,wfoooa,001,0,fr,2022-05-04_10h56.16.460,3-AFC_adaptive_staircase_mess,2022.1.1,35.895171741209495,
,,,,,3,0,3,0,0,0,0,0,,,,,,,,,,,,,[],[],10,left,3000,30,0.001733684252262658,0,0,-1,10,425.0880004399689,425.30568240000866,425.0594849999761,425.3659934999887,None,None,None,None,left,1,0.4659834000049159,425.09208580001723,None,None,None,up,7.348787699942477,417.21645599999465,None,417.21645599999465,None,wfoooa,001,0,fr,2022-05-04_10h56.16.460,3-AFC_adaptive_staircase_mess,2022.1.1,35.895171741209495,
,,,,,3,0,3,0,1,0,1,0,,,,,,,,,,,,,,,,left,3000,30,0.001733684252262658,0,0,-1,10,427.0882073400309,None,427.03816740005277,427.346469799988,None,None,None,None,left,1,0.5151547999121249,427.090438800049,None,None,None,,,,,,,wfoooa,001,0,fr,2022-05-04_10h56.16.460,3-AFC_adaptive_staircase_mess,2022.1.1,35.895171741209495,
,,,,,3,0,3,0,2,0,2,0,,,,,,,,,,,,,,,,up,3000,10,0.00017336842522626576,-1,0,-1,-10,430.1174538400257,None,429.0742564999964,429.3757037000032,430.0592102999799,430.3719987999648,None,None,up,1,1.4592981999740005,429.12378949997947,None,None,None,,,,,,,wfoooa,001,0,fr,2022-05-04_10h56.16.460,3-AFC_adaptive_staircase_mess,2022.1.1,35.895171741209495,
,,,,,3,0,3,0,3,0,3,0,,,,,,,,,,,,,,,,left,3000,10,0.00017336842522626576,-1,0,-1,-10,432.150907940045,432.3629706000211,432.0914787000511,432.39233709999826,433.0990019000601,None,None,None,left,1,1.022711200057529,432.15129790001083,None,None,None,,,,,,,wfoooa,001,0,fr,2022-05-04_10h56.16.460,3-AFC_adaptive_staircase_mess,2022.1.1,35.895171741209495,
,,,,,3,0,3,0,4,0,4,0,,,,,,,,,,,,,,,,left,3000,0,5.482390980715923e-05,-1,0,-1,-10,434.738644640008,None,434.68103510001674,434.99225390003994,None,None,None,None,left,1,0.6655647000297904,434.731384200044,None,None,None,,,,,,,wfoooa,001,0,fr,2022-05-04_10h56.16.460,3-AFC_adaptive_staircase_mess,2022.1.1,35.895171741209495,
,,,,,3,0,3,0,5,0,5,0,,,,,,,,,,,,,,,,up,3000,0,5.482390980715923e-05,-1,0,-1,-10,437.9317369399825,None,436.89347969996743,437.2160260999808,437.8815897000022,438.1935107000172,None,None,up,1,1.49815060000401,436.9225821000291,None,None,None,,,,,,,wfoooa,001,0,fr,2022-05-04_10h56.16.460,3-AFC_adaptive_staircase_mess,2022.1.1,35.895171741209495,
,,,,,3,0,3,0,6,0,6,0,,,,,,,,,,,,,,,,left,3000,-10,1.7336842522626584e-05,-1,0,-1,-10,439.96949384005273,440.19197150005493,439.90339380002115,440.22356970002875,440.9085299000144,441.2327442000387,441.906393900048,442.21225740003865,right,0,3.3282955000177026,439.97397669998463,None,442.43999820004683,None,,,,,,,wfoooa,001,0,fr,2022-05-04_10h56.16.460,3-AFC_adaptive_staircase_mess,2022.1.1,35.895171741209495,
,,,,,3,0,3,0,7,0,7,0,,,,,,,,,,,,,,,,right,3000,-5,3.082975009307411e-05,1,1,1,5,446.85435204003005,447.07131390005816,444.7985350000672,445.1223745000316,445.81067120004445,446.13754140003584,446.7925506000174,447.10182079998776,right,1,2.557194900000468,444.8558873999864,None,447.35069460002705,None,,,,,,,wfoooa,001,0,fr,2022-05-04_10h56.16.460,3-AFC_adaptive_staircase_mess,2022.1.1,35.895171741209495,
,,,,,3,0,3,0,8,0,8,0,,,,,,,,,,,,,,,,left,3000,-5,3.082975009307411e-05,1,1,1,5,448.94237384006846,None,448.9138584000757,449.2336575000081,None,None,None,None,left,1,0.8558186999289319,448.9416945000412,None,None,None,,,,,,,wfoooa,001,0,fr,2022-05-04_10h56.16.460,3-AFC_adaptive_staircase_mess,2022.1.1,35.895171741209495,
,,,,,3,0,3,0,9,0,9,0,,,,,,,,,,,,,,,,right,3000,-15,9.749222998790228e-06,-1,2,-1,-5.0,453.3505770400399,None,451.2955600999994,451.6295293000294,452.28386560000945,452.60981080005877,453.2940344000235,453.62096610001754,up,0,3.493708400055766,451.3595592000056,None,453.8576418000739,None,,,,,,,wfoooa,001,0,fr,2022-05-04_10h56.16.460,3-AFC_adaptive_staircase_mess,2022.1.1,35.895171741209495,
,,,,,3,0,3,0,10,0,10,0,,,,,,,,,,,,,,,,right,3000,-12.5,1.300079781582636e-05,1,3,1,2.5,458.40718523999675,None,456.3535628999816,456.66754529997706,457.3493196000345,457.66880430001765,458.34911050007213,458.67480000003707,right,1,3.0342920999974012,456.4111441000132,None,458.9070834000595,None,,,,,,,wfoooa,001,0,fr,2022-05-04_10h56.16.460,3-AFC_adaptive_staircase_mess,2022.1.1,35.895171741209495,
,,,,,3,0,3,0,11,0,11,0,,,,,,,,,,,,,,,,up,3000,-12.5,1.300079781582636e-05,1,3,1,2.5,461.97769563999026,None,460.9306325999787,461.243885200005,461.9491801999975,462.2769174000714,462.94207520002965,463.2503647999838,left,0,2.648215000052005,460.9893928000238,None,463.49170120002236,None,,,,,,,wfoooa,001,0,fr,2022-05-04_10h56.16.460,3-AFC_adaptive_staircase_mess,2022.1.1,35.895171741209495,
,,,,,3,0,3,0,12,0,12,0,,,,,,,,,,,,,,,,left,3000,-10.0,1.7336842522626584e-05,1,3,1,2.5,465.15689333998597,None,465.10845349996816,465.41768970002886,466.12550199998077,466.4273277000757,467.13403539999854,467.45992990001105,left,1,4.131260600057431,465.17104929999914,None,467.66968859999906,None,,,,,,,wfoooa,001,0,fr,2022-05-04_10h56.16.460,3-AFC_adaptive_staircase_mess,2022.1.1,35.895171741209495,
,,,,,3,0,3,0,13,0,13,0,,,,,,,,,,,,,,,,up,3000,-10.0,1.7336842522626584e-05,1,3,1,2.5,471.8482017399976,472.060098499991,470.80502970004454,471.1035128000658,471.7870391000761,472.0924032999901,472.79438770003617,473.12162770004943,up,1,4.370585799915716,470.83486160007305,None,473.3492722000228,None,,,,,,,wfoooa,001,0,fr,2022-05-04_10h56.16.460,3-AFC_adaptive_staircase_mess,2022.1.1,35.895171741209495,
,,,,,3,0,3,0,14,0,14,0,,,,,,,,,,,,,,,,up,3000,-15.0,9.749222998790228e-06,-1,4,-1,-5.0,477.737726139999,None,476.70787170005497,477.02405320003163,477.7092107000062,478.0159370000474,478.69035649998114,478.99692160007544,right,0,2.5641028999816626,476.73706900002435,None,479.24155510007404,None,,,,,,,wfoooa,001,0,fr,2022-05-04_10h56.16.460,3-AFC_adaptive_staircase_mess,2022.1.1,35.895171741209495,
,,,,,3,0,3,0,15,0,15,0,,,,,,,,,,,,,,,,right,3000,-12.5,1.300079781582636e-05,1,5,1,2.5,482.82377864005974,None,480.79049180005677,481.12704609998036,481.7721400000155,482.10571470006835,482.795263200067,483.1050143999746,left,0,3.47873700002674,480.8469923000084,None,483.3322805999778,None,,,,,,,wfoooa,001,0,fr,2022-05-04_10h56.16.460,3-AFC_adaptive_staircase_mess,2022.1.1,35.895171741209495,
,,,,,3,0,3,0,16,0,16,0,,,,,,,,,,,,,,,,left,3000,-10.0,1.7336842522626584e-05,1,5,1,2.5,485.8462543399539,486.0635712000076,485.78893480007537,486.09187830006704,486.798518900061,487.1329737000633,487.80876280006487,488.1342681000242,left,1,2.700021700002253,485.85000870004296,None,488.3459751000628,None,,,,,,,wfoooa,001,0,fr,2022-05-04_10h56.16.460,3-AFC_adaptive_staircase_mess,2022.1.1,35.895171741209495,
,,,,,3,0,3,0,17,0,17,0,,,,,,,,,,,,,,,,up,3000,-10.0,1.7336842522626584e-05,1,5,1,2.5,491.1000301400665,491.3241746000713,490.037514799973,490.37188660004176,491.07151470007375,491.38151380000636,None,None,up,1,1.7735814000479877,490.1036871999968,None,None,None,,,,,,,wfoooa,001,0,fr,2022-05-04_10h56.16.460,3-AFC_adaptive_staircase_mess,2022.1.1,35.895171741209495,
,,,,,3,0,3,0,18,0,18,0,,,,,,,,,,,,,,,,left,3000,-15.0,9.749222998790228e-06,-1,6,-1,-5.0,493.434420140041,493.6551456999732,493.3739514000481,493.68524170003366,494.39641420007683,494.7056280999677,495.3872046000324,495.7120988999959,left,1,2.600037800031714,493.4371055000229,None,495.923770399997,None,,,,,,,wfoooa,001,0,fr,2022-05-04_10h56.16.460,3-AFC_adaptive_staircase_mess,2022.1.1,35.895171741209495,
,,,,,4,0,4,0,0,0,0,0,,,,,,,,,,,,,[],[],10,right,4000,30,0.0026544222211549416,0,0,-1,10,512.6607457399834,512.8770665000193,510.62519930000417,510.9566271000076,511.6053048999747,511.9273802000098,512.6026524000335,512.9032602000516,right,1,2.5947507000528276,510.6579309999943,None,513.1541399999987,None,up,13.0271739999298,497.10756120004226,None,497.10756120004226,None,wfoooa,001,0,fr,2022-05-04_10h56.16.460,3-AFC_adaptive_staircase_mess,2022.1.1,35.895171741209495,
,,,,,4,0,4,0,1,0,1,0,,,,,,,,,,,,,,,,left,4000,30,0.0026544222211549416,0,0,-1,10,514.800578040001,None,514.7423255000031,515.0655712999869,None,None,None,None,left,1,0.7565083999652416,514.8014754999895,None,None,None,,,,,,,wfoooa,001,0,fr,2022-05-04_10h56.16.460,3-AFC_adaptive_staircase_mess,2022.1.1,35.895171741209495,
,,,,,4,0,4,0,2,0,2,0,,,,,,,,,,,,,,,,left,4000,10,0.00026544222211549425,-1,0,-1,-10,517.0936232400593,517.31267080002,517.0356213999912,517.3408857000759,None,None,None,None,left,1,0.5406539000105113,517.0969901999924,None,None,None,,,,,,,wfoooa,001,0,fr,2022-05-04_10h56.16.460,3-AFC_adaptive_staircase_mess,2022.1.1,35.895171741209495,
,,,,,4,0,4,0,3,0,3,0,,,,,,,,,,,,,,,,left,4000,10,0.00026544222211549425,-1,0,-1,-10,519.160748440004,519.3759693000466,519.1002039000159,519.4085834000725,None,None,None,None,left,1,0.5899438000051305,519.1595012000762,None,None,None,,,,,,,wfoooa,001,0,fr,2022-05-04_10h56.16.460,3-AFC_adaptive_staircase_mess,2022.1.1,35.895171741209495,
,,,,,4,0,4,0,4,0,4,0,,,,,,,,,,,,,,,,up,4000,0,8.394020090612804e-05,-1,0,-1,-10,522.2698667400284,522.4865577999735,521.2580918000313,521.5618714999873,522.2413513000356,522.5435399999842,None,None,up,1,1.5847254999680445,521.2850530999713,None,None,None,,,,,,,wfoooa,001,0,fr,2022-05-04_10h56.16.460,3-AFC_adaptive_staircase_mess,2022.1.1,35.895171741209495,
,,,,,4,0,4,0,5,0,5,0,,,,,,,,,,,,,,,,right,4000,0,8.394020090612804e-05,-1,0,-1,-10,526.4014535400086,526.6194805999985,524.3356393000577,524.6628950000741,525.3386746000033,525.670446800068,526.3405623000581,526.6504666999681,right,1,2.523083599982783,524.3950122999959,None,526.8879656000063,None,,,,,,,wfoooa,001,0,fr,2022-05-04_10h56.16.460,3-AFC_adaptive_staircase_mess,2022.1.1,35.895171741209495,
,,,,,4,0,4,0,6,0,6,0,,,,,,,,,,,,,,,,up,4000,-10,2.6544222211549425e-05,-1,0,-1,-10,529.4395897400566,529.6637448000256,528.3758257000009,528.6765886000358,529.3810828999849,529.6893177999882,530.3962067000102,530.6951823000563,right,0,3.709640400018543,528.4393812000053,None,530.9319049000042,None,,,,,,,wfoooa,001,0,fr,2022-05-04_10h56.16.460,3-AFC_adaptive_staircase_mess,2022.1.1,35.895171741209495,
,,,,,4,0,4,0,7,0,7,0,,,,,,,,,,,,,,,,up,4000,-5,4.720304381429618e-05,1,1,1,5,534.6532522399677,None,533.6130268999841,533.9414893999929,534.6247367999749,534.9571439999854,535.6184227999765,535.9506669000257,up,1,2.542534700012766,533.6716708000749,None,536.1544752999907,None,,,,,,,wfoooa,001,0,fr,2022-05-04_10h56.16.460,3-AFC_adaptive_staircase_mess,2022.1.1,35.895171741209495,
,,,,,4,0,4,0,8,0,8,0,,,,,,,,,,,,,,,,right,4000,-5,4.720304381429618e-05,1,1,1,5,539.7523612400284,539.9663542000344,537.7019205000252,538.0286177999806,538.6838980000466,539.009063799982,539.6910821000347,539.9986177000683,right,1,2.563537700101733,537.7613387000747,None,540.2342574000359,None,,,,,,,wfoooa,001,0,fr,2022-05-04_10h56.16.460,3-AFC_adaptive_staircase_mess,2022.1.1,35.895171741209495,
,,,,,4,0,4,0,9,0,9,0,,,,,,,,,,,,,,,,right,4000,-15,1.4926913094589802e-05,-1,2,-1,-5.0,543.8545284399763,544.075017599971,541.789930799976,542.1222237000475,542.79138900002,543.1213665000396,543.7957931000274,544.1023176000454,left,0,2.9687923999736086,541.8521943000378,None,544.3373818000546,None,,,,,,,wfoooa,001,0,fr,2022-05-04_10h56.16.460,3-AFC_adaptive_staircase_mess,2022.1.1,35.895171741209495,
,,,,,4,0,4,0,10,0,10,0,,,,,,,,,,,,,,,,up,4000,-12.5,1.9905358527674868e-05,1,3,1,2.5,547.3380654399982,None,546.2891621000599,546.5967461999971,547.3095500000054,547.6326704999665,548.2840562000638,548.6064985999838,left,0,2.6178624000167474,546.3471636000322,None,548.8433355999878,None,,,,,,,wfoooa,001,0,fr,2022-05-04_10h56.16.460,3-AFC_adaptive_staircase_mess,2022.1.1,35.895171741209495,
,,,,,4,0,4,0,11,0,11,0,,,,,,,,,,,,,,,,up,4000,-10.0,2.6544222211549425e-05,1,3,1,2.5,551.4964362399653,551.7208408999722,550.4308006999781,550.7655087000458,551.4387721000239,551.7497450000374,552.4242529000621,552.7517567999894,right,0,2.891133700031787,550.4909195000073,None,552.9899783000583,None,,,,,,,wfoooa,001,0,fr,2022-05-04_10h56.16.460,3-AFC_adaptive_staircase_mess,2022.1.1,35.895171741209495,
,,,,,4,0,4,0,12,0,12,0,,,,,,,,,,,,,,,,up,4000,-7.5,3.53972892192069e-05,1,3,1,2.5,555.937441639998,556.1595110000344,554.8707097000442,555.2004621999804,555.8805600999622,556.1880526000168,556.8895047999686,557.2043555000564,up,1,2.6892620000289753,554.9331090999767,None,557.440528200008,None,,,,,,,wfoooa,001,0,fr,2022-05-04_10h56.16.460,3-AFC_adaptive_staircase_mess,2022.1.1,35.895171741209495,
,,,,,4,0,4,0,13,0,13,0,,,,,,,,,,,,,,,,right,4000,-7.5,3.53972892192069e-05,1,3,1,2.5,561.1549977399875,561.3769300000276,559.1232390999794,559.4467166999821,560.121226200019,560.4478104000445,561.1264822999947,561.4329628000269,left,0,2.8727542998967692,559.1801397000672,None,561.6672105999896,None,,,,,,,wfoooa,001,0,fr,2022-05-04_10h56.16.460,3-AFC_adaptive_staircase_mess,2022.1.1,35.895171741209495,
,,,,,4,0,4,0,14,0,14,0,,,,,,,,,,,,,,,,right,4000,-5.0,4.720304381429618e-05,1,3,1,2.5,565.5971840400482,None,563.5447396000382,563.8695183000527,564.5560072000371,564.8828279000008,565.5398418999976,565.8613290999783,right,1,2.578587200026959,563.6026119000744,None,566.100946099963,None,,,,,,,wfoooa,001,0,fr,2022-05-04_10h56.16.460,3-AFC_adaptive_staircase_mess,2022.1.1,35.895171741209495,
,,,,,4,0,4,0,15,0,15,0,,,,,,,,,,,,,,,,left,4000,-5.0,4.720304381429618e-05,1,3,1,2.5,567.7230859400472,None,567.6644520000555,567.9877312000608,568.6666592999827,568.9680098000681,569.6533672000514,569.9573096999666,left,1,2.3946360999252647,567.722732400056,None,None,None,,,,,,,wfoooa,001,0,fr,2022-05-04_10h56.16.460,3-AFC_adaptive_staircase_mess,2022.1.1,35.895171741209495,
,,,,,4,0,4,0,16,0,16,0,,,,,,,,,,,,,,,,up,4000,-10.0,2.6544222211549425e-05,-1,4,-1,-5.0,572.6528858399718,None,571.6119666000595,571.9373499000212,572.5946739000501,572.9127911999822,573.6045763000147,573.9233009000309,left,0,2.3964887000620365,571.640854199999,None,None,None,,,,,,,wfoooa,001,0,fr,2022-05-04_10h56.16.460,3-AFC_adaptive_staircase_mess,2022.1.1,35.895171741209495,
,,,,,4,0,4,0,17,0,17,0,,,,,,,,,,,,,,,,up,4000,-7.5,3.53972892192069e-05,1,5,1,2.5,576.5574809400598,None,575.5152795000467,575.8160742999753,576.4989270999795,576.82510919997,577.5154739000136,577.8382083000615,up,1,3.70831800007727,575.5447513000108,None,578.0489452000475,None,,,,,,,wfoooa,001,0,fr,2022-05-04_10h56.16.460,3-AFC_adaptive_staircase_mess,2022.1.1,35.895171741209495,
,,,,,4,0,4,0,18,0,18,0,,,,,,,,,,,,,,,,up,4000,-7.5,3.53972892192069e-05,1,5,1,2.5,581.7853424400557,582.0128976000706,580.7296987000154,581.0329131999752,581.7289428999647,582.0437969999621,582.74268330005,583.0715244000312,left,0,2.38602690002881,580.78756289999,None,None,None,,,,,,,wfoooa,001,0,fr,2022-05-04_10h56.16.460,3-AFC_adaptive_staircase_mess,2022.1.1,35.895171741209495,
,,,,,4,0,4,0,19,0,19,0,,,,,,,,,,,,,,,,left,4000,-5.0,4.720304381429618e-05,1,5,1,2.5,584.6863302400336,584.9125708000502,584.6578148000408,584.9730059000431,585.652088599978,585.9684766000137,586.6667899000458,586.9707123000408,left,1,2.4817331000231206,584.6916191000491,None,587.1879484000383,None,,,,,,,wfoooa,001,0,fr,2022-05-04_10h56.16.460,3-AFC_adaptive_staircase_mess,2022.1.1,35.895171741209495,
,,,,,4,0,4,0,20,0,20,0,,,,,,,,,,,,,,,,up,4000,-5.0,4.720304381429618e-05,1,5,1,2.5,589.7034983400256,None,588.6625164999859,588.9704838000471,589.6456599000376,589.9716581000248,None,None,up,1,1.7142540001077577,588.6917343999958,None,None,None,,,,,,,wfoooa,001,0,fr,2022-05-04_10h56.16.460,3-AFC_adaptive_staircase_mess,2022.1.1,35.895171741209495,
,,,,,4,0,4,0,21,0,21,0,,,,,,,,,,,,,,,,right,4000,-10.0,2.6544222211549425e-05,-1,6,-1,-5.0,593.9270948400256,None,591.8703545000171,592.1781544999685,592.87772400002,593.2069048000267,593.8671021000482,594.1889807999833,left,0,2.267595099983737,591.9296599000227,None,None,None,,,,,,,wfoooa,001,0,fr,2022-05-04_10h56.16.460,3-AFC_adaptive_staircase_mess,2022.1.1,35.895171741209495,
,,,,,5,0,5,0,0,0,0,0,,,,,,,,,,,,,[],[],10,right,6000,30,0.003664122665694519,0,0,-1,10,609.569467140059,None,607.4984599000309,607.8230638999958,608.5145455000456,608.8153870999813,609.5117708999896,609.8340141000226,right,1,2.4778935000067577,607.5597980000312,None,610.0503859000746,None,up,11.785163399996236,595.2602507000556,None,595.2602507000556,None,wfoooa,001,0,fr,2022-05-04_10h56.16.460,3-AFC_adaptive_staircase_mess,2022.1.1,35.895171741209495,
,,,,,5,0,5,0,1,0,1,0,,,,,,,,,,,,,,,,right,6000,30,0.003664122665694519,0,0,-1,10,613.5965056400048,613.810736100073,611.5473766999785,611.8629084000131,612.5271474000765,612.8372565000318,613.5345689000096,613.8422606000677,right,1,2.4446485999505967,611.5774003000697,None,None,None,,,,,,,wfoooa,001,0,fr,2022-05-04_10h56.16.460,3-AFC_adaptive_staircase_mess,2022.1.1,35.895171741209495,
,,,,,5,0,5,0,2,0,2,0,,,,,,,,,,,,,,,,left,6000,10,0.00036641226656945183,-1,0,-1,-10,615.5616265399615,None,615.5008884000126,615.8219005999854,None,None,None,None,left,1,0.6959080001106486,615.5657823999645,None,None,None,,,,,,,wfoooa,001,0,fr,2022-05-04_10h56.16.460,3-AFC_adaptive_staircase_mess,2022.1.1,35.895171741209495,
,,,,,5,0,5,0,3,0,3,0,,,,,,,,,,,,,,,,left,6000,10,0.00036641226656945183,-1,0,-1,-10,617.7950327400351,618.0144832000369,617.7336900000228,618.0469296000665,None,None,None,None,left,1,0.4013642000500113,617.7970591000048,None,None,None,,,,,,,wfoooa,001,0,fr,2022-05-04_10h56.16.460,3-AFC_adaptive_staircase_mess,2022.1.1,35.895171741209495,
,,,,,5,0,5,0,4,0,4,0,,,,,,,,,,,,,,,,right,6000,0,0.00011586973249842387,-1,0,-1,-10,621.7371335400269,None,619.6718228000682,619.9824556000531,620.6758612999693,621.0055117000593,621.6794319000328,622.0036843999987,right,1,2.4295546000357717,619.7365747999866,None,622.2136937400094,None,,,,,,,wfoooa,001,0,fr,2022-05-04_10h56.16.460,3-AFC_adaptive_staircase_mess,2022.1.1,35.895171741209495,
,,,,,5,0,5,0,5,0,5,0,,,,,,,,,,,,,,,,left,6000,0,0.00011586973249842387,-1,0,-1,-10,623.7070498400601,None,623.644875500002,623.9736690999707,None,None,None,None,left,1,0.741661399952136,623.711118999985,None,None,None,,,,,,,wfoooa,001,0,fr,2022-05-04_10h56.16.460,3-AFC_adaptive_staircase_mess,2022.1.1,35.895171741209495,
,,,,,5,0,5,0,6,0,6,0,,,,,,,,,,,,,,,,up,6000,-10,3.664122665694518e-05,-1,0,-1,-10,626.9728712400422,None,625.9372581000207,626.2443784000352,626.909903599997,627.2425160000566,627.9305049000541,628.2466238000197,left,0,2.647129600052722,625.9658809000393,None,628.46581720002,None,,,,,,,wfoooa,001,0,fr,2022-05-04_10h56.16.460,3-AFC_adaptive_staircase_mess,2022.1.1,35.895171741209495,
,,,,,5,0,5,0,7,0,7,0,,,,,,,,,,,,,,,,right,6000,-5,6.515833892261494e-05,1,1,1,5,632.1570541400463,None,630.0920946999686,630.4092252000701,631.1131938999752,631.418327899999,632.1007132000523,632.420906699961,left,0,4.111808099900372,630.1491521999706,None,632.6509528000606,None,,,,,,,wfoooa,001,0,fr,2022-05-04_10h56.16.460,3-AFC_adaptive_staircase_mess,2022.1.1,35.895171741209495,
,,,,,5,0,5,0,8,0,8,0,,,,,,,,,,,,,,,,left,6000,0,0.00011586973249842387,1,1,1,5,635.7837199400412,None,635.7223192000529,636.0512618999928,None,None,None,None,left,1,0.6646773000247777,635.78793640004,None,None,None,,,,,,,wfoooa,001,0,fr,2022-05-04_10h56.16.460,3-AFC_adaptive_staircase_mess,2022.1.1,35.895171741209495,
,,,,,5,0,5,0,9,0,9,0,,,,,,,,,,,,,,,,left,6000,0,0.00011586973249842387,1,1,1,5,638.0163029400167,None,637.9532268000767,638.2659545000643,None,None,None,None,left,1,0.5129824999021366,638.0204373999732,None,None,None,,,,,,,wfoooa,001,0,fr,2022-05-04_10h56.16.460,3-AFC_adaptive_staircase_mess,2022.1.1,35.895171741209495,
,,,,,5,0,5,0,10,0,10,0,,,,,,,,,,,,,,,,left,6000,-10,3.664122665694518e-05,-1,2,-1,-5.0,640.065677439957,None,640.006271100021,640.3285925000673,641.0230567000108,641.329233400058,642.0311830000719,642.3637686000438,left,1,3.108018600032665,640.0658791000023,None,642.5651662000455,None,,,,,,,wfoooa,001,0,fr,2022-05-04_10h56.16.460,3-AFC_adaptive_staircase_mess,2022.1.1,35.895171741209495,
,,,,,5,0,5,0,11,0,11,0,,,,,,,,,,,,,,,,right,6000,-10,3.664122665694518e-05,-1,2,-1,-5.0,646.7243923399831,None,644.663854900049,644.9919979000697,645.6637725000037,645.9876525000436,646.6639437000267,646.9822947999928,up,0,2.619619600009173,644.7290465000551,None,647.225157000008,None,,,,,,,wfoooa,001,0,fr,2022-05-04_10h56.16.460,3-AFC_adaptive_staircase_mess,2022.1.1,35.895171741209495,
,,,,,5,0,5,0,12,0,12,0,,,,,,,,,,,,,,,,up,6000,-7.5,4.886186104779051e-05,1,3,1,2.5,649.8956884399988,None,648.8375290000113,649.164980600006,649.8340170000447,650.1576618000399,650.8382563999621,651.1684990000213,right,0,4.159164100070484,648.9024250999792,None,651.3820105000632,None,,,,,,,wfoooa,001,0,fr,2022-05-04_10h56.16.460,3-AFC_adaptive_staircase_mess,2022.1.1,35.895171741209495,
,,,,,5,0,5,0,13,0,13,0,,,,,,,,,,,,,,,,left,6000,-5.0,6.515833892261494e-05,1,3,1,2.5,654.5954167399789,654.8183274000185,654.5362394000404,654.8508317000233,655.5395526000066,655.8480106999632,656.5569010999752,656.8744349000044,left,1,2.3845424000173807,654.5967778000049,None,None,None,,,,,,,wfoooa,001,0,fr,2022-05-04_10h56.16.460,3-AFC_adaptive_staircase_mess,2022.1.1,35.895171741209495,
,,,,,5,0,5,0,14,0,14,0,,,,,,,,,,,,,,,,left,6000,-5.0,6.515833892261494e-05,1,3,1,2.5,658.5381173399976,658.7546550000552,658.4763137999689,658.7884306999622,659.4746882000472,659.7819285000442,660.4828074000543,660.8114116999786,up,0,2.614008400007151,658.5425191000104,None,661.028465499985,None,,,,,,,wfoooa,001,0,fr,2022-05-04_10h56.16.460,3-AFC_adaptive_staircase_mess,2022.1.1,35.895171741209495,
,,,,,5,0,5,0,15,0,15,0,,,,,,,,,,,,,,,,right,6000,-2.5,8.689004143746872e-05,1,3,1,2.5,664.7071739399573,664.9277789000189,662.6832307999721,663.0119130000239,663.6800824999809,663.9871890000068,664.6786584999645,664.9891251999652,right,1,2.7123595000011846,662.7166077999864,None,665.2127479000483,None,,,,,,,wfoooa,001,0,fr,2022-05-04_10h56.16.460,3-AFC_adaptive_staircase_mess,2022.1.1,35.895171741209495,
,,,,,5,0,5,0,16,0,16,0,,,,,,,,,,,,,,,,right,6000,-2.5,8.689004143746872e-05,1,3,1,2.5,668.973350739968,669.1997368000448,666.9150249999948,667.2208665000508,667.9205430999864,668.2495980999665,668.9134225000162,669.2326652000193,right,1,2.6098815000150353,666.9797947000479,None,669.4688266000012,None,,,,,,,wfoooa,001,0,fr,2022-05-04_10h56.16.460,3-AFC_adaptive_staircase_mess,2022.1.1,35.895171741209495,
,,,,,5,0,5,0,17,0,17,0,,,,,,,,,,,,,,,,right,6000,-7.5,4.886186104779051e-05,-1,4,-1,-5.0,673.1142743400299,673.3361003000755,671.0605936000356,671.3859130999772,672.0583780000452,672.3860560000176,673.0561283000279,673.3660084999865,left,0,2.994602999999188,671.1226948000258,None,673.6132186000468,None,,,,,,,wfoooa,001,0,fr,2022-05-04_10h56.16.460,3-AFC_adaptive_staircase_mess,2022.1.1,35.895171741209495,
,,,,,5,0,5,0,18,0,18,0,,,,,,,,,,,,,,,,left,6000,-5.0,6.515833892261494e-05,1,5,1,2.5,675.6553161399672,None,675.6268006999744,675.9542683999753,676.618854100001,676.9489788999781,677.6140082000056,677.9147025999846,left,1,2.5376750000286847,675.659434900037,None,678.1571179999737,None,,,,,,,wfoooa,001,0,fr,2022-05-04_10h56.16.460,3-AFC_adaptive_staircase_mess,2022.1.1,35.895171741209495,
,,,,,5,0,5,0,19,0,19,0,,,,,,,,,,,,,,,,left,6000,-5.0,6.515833892261494e-05,1,5,1,2.5,679.7573342400603,679.9728622999974,679.6955535999732,680.0060556000099,680.7033129000338,681.0271107000299,681.7142422000179,682.0233325000154,left,1,2.467659799964167,679.7616982000181,None,682.2592685400043,None,,,,,,,wfoooa,001,0,fr,2022-05-04_10h56.16.460,3-AFC_adaptive_staircase_mess,2022.1.1,35.895171741209495,
,,,,,5,0,5,0,20,0,20,0,,,,,,,,,,,,,,,,left,6000,-10.0,3.664122665694518e-05,-1,6,-1,-5.0,683.7517464400037,None,683.7232310000109,684.0426568000112,684.7287621999858,685.0358109000372,685.7188602000242,686.0183776000049,left,1,2.4922466999851167,683.7532659000717,None,686.2555508000078,None,,,,,,,wfoooa,001,0,fr,2022-05-04_10h56.16.460,3-AFC_adaptive_staircase_mess,2022.1.1,35.895171741209495,
,,,,,6,0,6,0,0,0,0,0,,,,,,,,,,,,,[],[],10,left,8000,30,0.005740768107484416,0,0,-1,10,694.2930610400392,None,694.2343667000532,694.5532719000475,None,None,None,None,left,1,0.639413999975659,694.2947572000558,None,None,None,up,6.434898299979977,687.3310831000563,None,687.3310831000563,None,wfoooa,001,0,fr,2022-05-04_10h56.16.460,3-AFC_adaptive_staircase_mess,2022.1.1,35.895171741209495,
,,,,,6,0,6,0,1,0,1,0,,,,,,,,,,,,,,,,up,8000,30,0.005740768107484416,0,0,-1,10,697.4670642400627,697.6900350999786,696.4288829000434,696.7299770000391,697.4113536999794,697.7222090000287,None,None,up,1,1.4681633000727743,696.4571118999738,None,None,None,,,,,,,wfoooa,001,0,fr,2022-05-04_10h56.16.460,3-AFC_adaptive_staircase_mess,2022.1.1,35.895171741209495,
,,,,,6,0,6,0,2,0,2,0,,,,,,,,,,,,,,,,right,8000,10,0.0005740768107484417,-1,0,-1,-10,701.4493379400112,None,699.4057419999735,699.7240153000457,700.4100039000623,700.7142944000661,701.4208225000184,701.7436239999952,right,1,2.49019129993394,699.4672159999609,None,701.9568833999801,None,,,,,,,wfoooa,001,0,fr,2022-05-04_10h56.16.460,3-AFC_adaptive_staircase_mess,2022.1.1,35.895171741209495,
,,,,,6,0,6,0,3,0,3,0,,,,,,,,,,,,,,,,left,8000,10,0.0005740768107484417,-1,0,-1,-10,703.5134012400406,703.7342641999712,703.4547100999625,703.767129200045,None,None,None,None,left,1,0.5880966000258923,703.5138868000358,None,None,None,,,,,,,wfoooa,001,0,fr,2022-05-04_10h56.16.460,3-AFC_adaptive_staircase_mess,2022.1.1,35.895171741209495,
,,,,,6,0,6,0,4,0,4,0,,,,,,,,,,,,,,,,left,8000,0,0.0001815390273850507,-1,0,-1,-10,705.6362236399902,None,705.6077081999974,705.927049400052,None,None,None,None,left,1,0.6081452999496832,705.6376064000651,None,None,None,,,,,,,wfoooa,001,0,fr,2022-05-04_10h56.16.460,3-AFC_adaptive_staircase_mess,2022.1.1,35.895171741209495,
,,,,,6,0,6,0,5,0,5,0,,,,,,,,,,,,,,,,up,8000,0,0.0001815390273850507,-1,0,-1,-10,708.7572438399541,708.9681319000665,707.7335720000556,708.0368291999912,708.7287283999613,709.0308834000025,None,None,up,1,1.488846999942325,707.7647116000298,None,None,None,,,,,,,wfoooa,001,0,fr,2022-05-04_10h56.16.460,3-AFC_adaptive_staircase_mess,2022.1.1,35.895171741209495,
,,,,,6,0,6,0,6,0,6,0,,,,,,,,,,,,,,,,left,8000,-10,5.740768107484415e-05,-1,0,-1,-10,710.7972758400022,None,710.7396502000047,711.051442499971,711.7302977000363,712.0312115000561,712.7423282000236,713.0459447000176,left,1,3.7977187999058515,710.7998066999717,None,713.2818505000323,None,,,,,,,wfoooa,001,0,fr,2022-05-04_10h56.16.460,3-AFC_adaptive_staircase_mess,2022.1.1,35.895171741209495,
,,,,,6,0,6,0,7,0,7,0,,,,,,,,,,,,,,,,up,8000,-10,5.740768107484415e-05,-1,0,-1,-10,717.1374362400268,None,716.0909423000412,716.3937233000761,717.0790953000542,717.3901379000163,718.0963767999783,718.3965074999724,up,1,2.5397042999975383,716.1531897999812,None,718.636675399961,None,,,,,,,wfoooa,001,0,fr,2022-05-04_10h56.16.460,3-AFC_adaptive_staircase_mess,2022.1.1,35.895171741209495,
,,,,,6,0,6,0,8,0,8,0,,,,,,,,,,,,,,,,left,8000,-20,1.815390273850507e-05,-1,0,-1,-10,720.2500778399874,None,720.1906434000703,720.5088941999711,721.1886892999755,721.495949300006,722.1800280000316,722.4805463000666,right,0,2.9068732999730855,720.2497223999817,None,722.7285820000106,None,,,,,,,wfoooa,001,0,fr,2022-05-04_10h56.16.460,3-AFC_adaptive_staircase_mess,2022.1.1,35.895171741209495,
,,,,,6,0,6,0,9,0,9,0,,,,,,,,,,,,,,,,right,8000,-15,3.228271145173278e-05,1,1,1,5,726.692837739992,726.9203663000371,724.6431521000341,724.9462117999792,725.655987199978,725.9572613000637,726.6643222999992,726.9806258999743,right,1,2.6909061999758705,724.6897966000251,None,727.1914554999676,None,,,,,,,wfoooa,001,0,fr,2022-05-04_10h56.16.460,3-AFC_adaptive_staircase_mess,2022.1.1,35.895171741209495,
,,,,,6,0,6,0,10,0,10,0,,,,,,,,,,,,,,,,right,8000,-15,3.228271145173278e-05,1,1,1,5,730.908571939962,None,728.8761209000368,729.176832200028,729.8638312000548,730.1620481000282,730.8800564999692,731.2077152000275,left,0,2.6838720999658108,728.9054645000724,None,731.4167917000595,None,,,,,,,wfoooa,001,0,fr,2022-05-04_10h56.16.460,3-AFC_adaptive_staircase_mess,2022.1.1,35.895171741209495,
,,,,,6,0,6,0,11,0,11,0,,,,,,,,,,,,,,,,up,8000,-10,5.740768107484415e-05,1,1,1,5,734.1280401399592,None,733.0839099000441,733.4112732000649,734.0995246999664,734.4208403000375,735.1081111000385,735.4324338000733,up,1,2.431933999992907,733.1419088999974,None,None,None,,,,,,,wfoooa,001,0,fr,2022-05-04_10h56.16.460,3-AFC_adaptive_staircase_mess,2022.1.1,35.895171741209495,
,,,,,6,0,6,0,12,0,12,0,,,,,,,,,,,,,,,,up,8000,-10,5.740768107484415e-05,1,1,1,5,738.1094728400233,738.3342193000717,737.0533423000015,737.3729610000737,738.0507968000602,738.3623707999941,739.0652665999951,739.3694630999817,up,1,3.7525823999894783,737.115856599994,None,739.6166584000457,None,,,,,,,wfoooa,001,0,fr,2022-05-04_10h56.16.460,3-AFC_adaptive_staircase_mess,2022.1.1,35.895171741209495,
,,,,,6,0,6,0,13,0,13,0,,,,,,,,,,,,,,,,left,8000,-20,1.815390273850507e-05,-1,2,-1,-5.0,742.3974724399625,None,742.3689569999697,742.6905691999709,743.362484900048,743.6864165000152,744.3630970000522,744.6904206000036,right,0,2.758280499954708,742.3995424000314,None,744.9185691999737,None,,,,,,,wfoooa,001,0,fr,2022-05-04_10h56.16.460,3-AFC_adaptive_staircase_mess,2022.1.1,35.895171741209495,
,,,,,6,0,6,0,14,0,14,0,,,,,,,,,,,,,,,,right,8000,-17.5,2.420861837920497e-05,1,3,1,2.5,748.6959427400027,None,746.6240399000235,746.9245254000416,747.6295165000483,747.9450025999686,748.6376336000394,748.95988390001,right,1,2.5898451999528334,746.678635600023,None,749.1728018000722,None,,,,,,,wfoooa,001,0,fr,2022-05-04_10h56.16.460,3-AFC_adaptive_staircase_mess,2022.1.1,35.895171741209495,
,,,,,6,0,6,0,15,0,15,0,,,,,,,,,,,,,,,,left,8000,-17.5,2.420861837920497e-05,1,3,1,2.5,750.8042589399731,751.0227202000096,750.7757434999803,751.0819607999874,751.7468833000166,752.0477983000455,752.7617262999993,753.0844244000036,right,0,2.7989040999673307,750.8062575999647,None,753.3308801000239,None,,,,,,,wfoooa,001,0,fr,2022-05-04_10h56.16.460,3-AFC_adaptive_staircase_mess,2022.1.1,35.895171741209495,
,,,,,6,0,6,0,16,0,16,0,,,,,,,,,,,,,,,,left,8000,-15.0,3.228271145173278e-05,1,3,1,2.5,755.1472094400553,755.3757017999887,755.1186940000625,755.4405939000426,756.1161293999758,756.443021700019,757.0935211000033,757.402455399977,left,1,2.793695900007151,755.1466361000203,None,757.6473691000137,None,,,,,,,wfoooa,001,0,fr,2022-05-04_10h56.16.460,3-AFC_adaptive_staircase_mess,2022.1.1,35.895171741209495,
,,,,,6,0,6,0,17,0,17,0,,,,,,,,,,,,,,,,right,8000,-15.0,3.228271145173278e-05,1,3,1,2.5,761.482779440051,None,759.4454206000082,759.7706029000692,760.4487405000255,760.7476114999736,761.4542640000582,761.7615111999912,up,0,2.4368232999695465,759.503614300047,None,761.9975386399776,None,,,,,,,wfoooa,001,0,fr,2022-05-04_10h56.16.460,3-AFC_adaptive_staircase_mess,2022.1.1,35.895171741209495,
,,,,,6,0,6,0,18,0,18,0,,,,,,,,,,,,,,,,up,8000,-12.5,4.304968760923004e-05,1,3,1,2.5,764.4675074400614,764.6886437999783,763.4386247000657,763.7616486999905,764.4389920000685,764.7511337000178,765.4281456000172,765.7552485000342,up,1,2.6189193000318483,763.4661134000635,None,765.9636667000595,None,,,,,,,wfoooa,001,0,fr,2022-05-04_10h56.16.460,3-AFC_adaptive_staircase_mess,2022.1.1,35.895171741209495,
,,,,,6,0,6,0,19,0,19,0,,,,,,,,,,,,,,,,up,8000,-12.5,4.304968760923004e-05,1,3,1,2.5,768.6159567400348,None,767.5648884000257,767.8700987000484,768.557182700024,768.8540173000656,769.5476853,769.852939400007,left,0,2.4270858000963926,767.5949586000061,None,None,None,,,,,,,wfoooa,001,0,fr,2022-05-04_10h56.16.460,3-AFC_adaptive_staircase_mess,2022.1.1,35.895171741209495,
,,,,,6,0,6,0,20,0,20,0,,,,,,,,,,,,,,,,left,8000,-10.0,5.740768107484415e-05,1,3,1,2.5,771.5494277399732,771.769646700006,771.4918864000356,771.7997334999964,772.476014600019,772.7816400000593,773.4863131999737,773.8173226000508,right,0,4.310705100069754,771.5495220000157,None,774.0553179000271,None,,,,,,,wfoooa,001,0,fr,2022-05-04_10h56.16.460,3-AFC_adaptive_staircase_mess,2022.1.1,35.895171741209495,
,,,,,6,0,6,0,21,0,21,0,,,,,,,,,,,,,,,,right,8000,-7.5,7.655437308410152e-05,1,3,1,2.5,779.4026545399568,None,777.3383856000146,777.6577572000679,778.3388229999691,778.6667965999804,779.3442125000292,779.6505138999783,right,1,2.5447755999630317,777.396445899969,None,779.8922868999653,None,,,,,,,wfoooa,001,0,fr,2022-05-04_10h56.16.460,3-AFC_adaptive_staircase_mess,2022.1.1,35.895171741209495,
,,,,,6,0,6,0,22,0,22,0,,,,,,,,,,,,,,,,left,8000,-7.5,7.655437308410152e-05,1,3,1,2.5,781.5030979400501,None,781.4434906999813,781.7532887000125,None,None,None,None,left,1,0.7397001000354066,781.5051057999954,None,None,None,,,,,,,wfoooa,001,0,fr,2022-05-04_10h56.16.460,3-AFC_adaptive_staircase_mess,2022.1.1,35.895171741209495,
,,,,,6,0,6,0,23,0,23,0,,,,,,,,,,,,,,,,up,8000,-12.5,4.304968760923004e-05,-1,4,-1,-5.0,784.7866620399757,785.0091340000508,783.7458559999941,784.0721631000051,784.7153083999874,785.0411034000572,785.7500991000561,786.0775401999708,up,1,2.630858999909833,783.7748987000668,None,786.285032600048,None,,,,,,,wfoooa,001,0,fr,2022-05-04_10h56.16.460,3-AFC_adaptive_staircase_mess,2022.1.1,35.895171741209495,
,,,,,6,0,6,0,24,0,24,0,,,,,,,,,,,,,,,,left,8000,-12.5,4.304968760923004e-05,-1,4,-1,-5.0,787.9273381400155,788.146619600011,787.8668768999632,788.1773603999754,788.8681367000099,789.1986674000509,789.8704100999748,790.1855953000486,left,1,5.210252300021239,787.9309018000495,None,790.4222060000757,None,,,,,,,wfoooa,001,0,fr,2022-05-04_10h56.16.460,3-AFC_adaptive_staircase_mess,2022.1.1,35.895171741209495,
,,,,,6,0,6,0,25,0,25,0,,,,,,,,,,,,,,,,right,8000,-17.5,2.420861837920497e-05,-1,4,-1,-5.0,796.6750314400299,796.8962173999753,794.6274421999697,794.9314444999909,795.6073304000311,795.93808360002,796.6182422999991,796.9242749999976,up,0,2.548906199983321,794.6572749000043,None,797.1586202000035,None,,,,,,,wfoooa,001,0,fr,2022-05-04_10h56.16.460,3-AFC_adaptive_staircase_mess,2022.1.1,35.895171741209495,
,,,,,6,0,6,0,26,0,26,0,,,,,,,,,,,,,,,,left,8000,-15.0,3.228271145173278e-05,1,5,1,2.5,798.7431000400568,None,798.6854097000323,798.9889293999877,799.6985870000208,800.0139341000468,800.6963157000719,800.9948682000395,up,0,2.9398373001022264,798.7455306999618,None,801.2569589000195,None,,,,,,,wfoooa,001,0,fr,2022-05-04_10h56.16.460,3-AFC_adaptive_staircase_mess,2022.1.1,35.895171741209495,
,,,,,6,0,6,0,27,0,27,0,,,,,,,,,,,,,,,,right,8000,-12.5,4.304968760923004e-05,1,5,1,2.5,805.2283439400373,805.446122399997,803.1815851000138,803.5172857000725,804.1927612000145,804.5192910999758,805.170477900072,805.4748620999744,right,1,3.1173978000879288,803.2398476999952,None,805.7389925000025,None,,,,,,,wfoooa,001,0,fr,2022-05-04_10h56.16.460,3-AFC_adaptive_staircase_mess,2022.1.1,35.895171741209495,
,,,,,6,0,6,0,28,0,28,0,,,,,,,,,,,,,,,,left,8000,-12.5,4.304968760923004e-05,1,5,1,2.5,807.8934471400455,808.1124656000175,807.836089599994,808.1288339999737,808.8230413000565,809.1430231999839,809.8425498000579,810.168848500005,up,0,2.894758000038564,807.894897500053,None,810.3769586000126,None,,,,,,,wfoooa,001,0,fr,2022-05-04_10h56.16.460,3-AFC_adaptive_staircase_mess,2022.1.1,35.895171741209495,
,,,,,6,0,6,0,29,0,29,0,,,,,,,,,,,,,,,,left,8000,-10.0,5.740768107484415e-05,1,5,1,2.5,812.3312042400241,None,812.2697065999964,812.5860721999779,813.2589490000391,813.5944755000528,814.2821850000182,814.5946442000568,up,0,2.5695460999850184,812.3312014000257,None,814.8287444000598,None,,,,,,,wfoooa,001,0,fr,2022-05-04_10h56.16.460,3-AFC_adaptive_staircase_mess,2022.1.1,35.895171741209495,
,,,,,6,0,6,0,30,0,30,0,,,,,,,,,,,,,,,,left,8000,-7.5,7.655437308410152e-05,1,5,1,2.5,816.4481905400055,816.6618307000026,816.4196751000127,816.7472863000585,None,None,None,None,left,1,0.5966930000577122,816.4488340000389,None,None,None,,,,,,,wfoooa,001,0,fr,2022-05-04_10h56.16.460,3-AFC_adaptive_staircase_mess,2022.1.1,35.895171741209495,
,,,,,6,0,6,0,31,0,31,0,,,,,,,,,,,,,,,,left,8000,-7.5,7.655437308410152e-05,1,5,1,2.5,818.5914799400373,818.8124025000725,818.5323051000014,818.8438187000575,819.519343300024,819.8518840000033,820.5365023000631,820.8394273000304,right,0,2.598682099953294,818.5904986000387,None,821.1033404000336,None,,,,,,,wfoooa,001,0,fr,2022-05-04_10h56.16.460,3-AFC_adaptive_staircase_mess,2022.1.1,35.895171741209495,
,,,,,6,0,6,0,32,0,32,0,,,,,,,,,,,,,,,,right,8000,-5.0,0.00010208689723347648,1,5,1,2.5,824.7113507399802,None,822.6684370000148,822.9960552999983,823.670523900073,824.0016073000152,824.6559522000607,824.9761059000157,right,1,2.4622472999617457,822.7267809000332,None,825.2257673399756,None,,,,,,,wfoooa,001,0,fr,2022-05-04_10h56.16.460,3-AFC_adaptive_staircase_mess,2022.1.1,35.895171741209495,
,,,,,6,0,6,0,33,0,33,0,,,,,,,,,,,,,,,,right,8000,-5.0,0.00010208689723347648,1,5,1,2.5,828.7424626399763,None,826.6750957000768,827.0080717999954,827.6957294000313,828.0235207000514,828.6806195999961,829.0029223000165,right,1,2.49944789998699,826.7377482000738,None,829.2457092000404,None,,,,,,,wfoooa,001,0,fr,2022-05-04_10h56.16.460,3-AFC_adaptive_staircase_mess,2022.1.1,35.895171741209495,
,,,,,6,0,6,0,34,0,34,0,,,,,,,,,,,,,,,,left,8000,-10.0,5.740768107484415e-05,-1,6,-1,-5.0,830.7777780399658,830.9995641000569,830.7213508000132,831.0278462000424,831.7178145999787,None,None,None,left,1,0.9856711000902578,830.7788956000004,None,None,None,,,,,,,wfoooa,001,0,fr,2022-05-04_10h56.16.460,3-AFC_adaptive_staircase_mess,2022.1.1,35.895171741209495,
,,,,,7,0,7,0,0,0,0,0,,,,,,,,,,,,,[],[],10,left,750,30,0.0012851978913844323,0,0,-1,10,836.501426740014,836.7318731000414,836.4729113000212,836.7924835999729,None,None,None,None,left,1,0.6381832000333816,836.5039490000345,None,None,None,up,3.156800299999304,832.8477845999878,None,832.8477845999878,None,wfoooa,001,0,fr,2022-05-04_10h56.16.460,3-AFC_adaptive_staircase_mess,2022.1.1,35.895171741209495,
,,,,,7,0,7,0,1,0,1,0,,,,,,,,,,,,,,,,right,750,30,0.0012851978913844323,0,0,-1,10,840.6848886399996,840.9045729000354,838.6283813000191,838.9526652999921,839.6253407000331,839.9536179000279,840.6268407000462,840.9324780000607,right,1,2.4235412999987602,838.6855413999874,None,None,None,,,,,,,wfoooa,001,0,fr,2022-05-04_10h56.16.460,3-AFC_adaptive_staircase_mess,2022.1.1,35.895171741209495,
,,,,,7,0,7,0,2,0,2,0,,,,,,,,,,,,,,,,right,750,10,0.00012851978913844324,-1,0,-1,-10,844.6291062400444,None,842.5670888000168,842.894213099964,843.5711228,843.8932504999684,844.5706779999891,844.8659709000494,right,1,2.405114599969238,842.6242921999656,None,None,None,,,,,,,wfoooa,001,0,fr,2022-05-04_10h56.16.460,3-AFC_adaptive_staircase_mess,2022.1.1,35.895171741209495,
,,,,,7,0,7,0,3,0,3,0,,,,,,,,,,,,,,,,right,750,10,0.00012851978913844324,-1,0,-1,-10,848.5580808399711,848.7754380999831,846.506408700021,846.831568100024,847.5048585999757,847.8276290000649,848.4977853000164,848.8071982000256,right,1,2.4157362000551075,846.565026700031,None,None,None,,,,,,,wfoooa,001,0,fr,2022-05-04_10h56.16.460,3-AFC_adaptive_staircase_mess,2022.1.1,35.895171741209495,
,,,,,7,0,7,0,4,0,4,0,,,,,,,,,,,,,,,,right,750,0,4.064152580820497e-05,-1,0,-1,-10,852.5162815399701,852.7336478000507,850.453250200022,850.777336900006,851.4620138000464,851.7860783999786,852.4555496000685,852.7611776000122,right,1,2.5647497999016196,850.511463599978,None,853.0239740000106,None,,,,,,,wfoooa,001,0,fr,2022-05-04_10h56.16.460,3-AFC_adaptive_staircase_mess,2022.1.1,35.895171741209495,
,,,,,7,0,7,0,5,0,5,0,,,,,,,,,,,,,,,,right,750,0,4.064152580820497e-05,-1,0,-1,-10,856.5866674400634,None,854.5661381999962,854.8891067999648,855.5596456000349,855.8825474000769,856.5581520000705,856.8637471999973,right,1,2.4006959999678656,854.5960070000729,None,None,None,,,,,,,wfoooa,001,0,fr,2022-05-04_10h56.16.460,3-AFC_adaptive_staircase_mess,2022.1.1,35.895171741209495,
,,,,,7,0,7,0,6,0,6,0,,,,,,,,,,,,,,,,up,750,-10,1.2851978913844322e-05,-1,0,-1,-10,859.5396296399879,None,858.4836825999664,858.8073312999913,859.4786335000535,859.7955075000646,860.498488400015,860.7996669000713,left,0,2.584889500052668,858.5405279999832,None,861.0351198000135,None,,,,,,,wfoooa,001,0,fr,2022-05-04_10h56.16.460,3-AFC_adaptive_staircase_mess,2022.1.1,35.895171741209495,
,,,,,7,0,7,0,7,0,7,0,,,,,,,,,,,,,,,,up,750,-5,2.285440948074376e-05,1,1,1,5,863.6310310400324,863.8594278000528,862.6018584000412,862.926378400065,863.5742962000659,863.8910169000737,864.6017430999782,864.9262658000225,up,1,2.6856901000719517,862.6308430000208,None,865.1342893000692,None,,,,,,,wfoooa,001,0,fr,2022-05-04_10h56.16.460,3-AFC_adaptive_staircase_mess,2022.1.1,35.895171741209495,
,,,,,7,0,7,0,8,0,8,0,,,,,,,,,,,,,,,,left,750,-5,2.285440948074376e-05,1,1,1,5,866.8653474400519,None,866.8368320000591,867.155604199972,867.8303528999677,868.1504271000158,868.8203986000735,869.139117600047,left,1,2.3727924999548122,866.8649024000624,None,None,None,,,,,,,wfoooa,001,0,fr,2022-05-04_10h56.16.460,3-AFC_adaptive_staircase_mess,2022.1.1,35.895171741209495,
,,,,,7,0,7,0,9,0,9,0,,,,,,,,,,,,,,,,up,750,-15,7.22719885372964e-06,-1,2,-1,-5.0,871.786816939991,872.0055875000544,870.7356490000384,871.0578208999941,871.7295759000117,872.0346799000399,872.7348283000756,873.0616880999878,right,0,4.791981299989857,870.7654714999953,None,873.2664230000228,None,,,,,,,wfoooa,001,0,fr,2022-05-04_10h56.16.460,3-AFC_adaptive_staircase_mess,2022.1.1,35.895171741209495,
,,,,,7,0,7,0,10,0,10,0,,,,,,,,,,,,,,,,left,750,-12.5,9.637624565954684e-06,1,3,1,2.5,877.095666240016,None,877.0376432000194,877.3603653999744,878.0179652000079,878.3253969000652,879.0340081000468,879.3378968000179,up,0,3.085320599959232,877.0963129000738,None,879.5775830000639,None,,,,,,,wfoooa,001,0,fr,2022-05-04_10h56.16.460,3-AFC_adaptive_staircase_mess,2022.1.1,35.895171741209495,
,,,,,7,0,7,0,11,0,11,0,,,,,,,,,,,,,,,,right,750,-10.0,1.2851978913844322e-05,1,3,1,2.5,883.7023113400676,None,881.6626569000073,881.9924603999825,882.6626471000491,882.9655229999917,883.6737959000748,883.9989036000334,up,0,3.126985299983062,881.7260080999695,None,884.2082635000115,None,,,,,,,wfoooa,001,0,fr,2022-05-04_10h56.16.460,3-AFC_adaptive_staircase_mess,2022.1.1,35.895171741209495,
,,,,,7,0,7,0,12,0,12,0,,,,,,,,,,,,,,,,left,750,-7.5,1.7138389327322525e-05,1,3,1,2.5,886.3962746400387,886.610462200013,886.3356036000187,886.6425261000404,887.3475047000684,887.6579599999823,888.3379374999786,888.6696265999926,left,1,2.5966251000063494,886.4007579999743,None,888.9045759000583,None,,,,,,,wfoooa,001,0,fr,2022-05-04_10h56.16.460,3-AFC_adaptive_staircase_mess,2022.1.1,35.895171741209495,
,,,,,7,0,7,0,13,0,13,0,,,,,,,,,,,,,,,,right,750,-7.5,1.7138389327322525e-05,1,3,1,2.5,892.5395747400355,None,890.4684661000501,890.795744300005,891.473532199976,891.8065073000034,892.4783424000489,892.7981366000604,right,1,2.7083915999392048,890.5279131999705,None,893.0381561999675,None,,,,,,,wfoooa,001,0,fr,2022-05-04_10h56.16.460,3-AFC_adaptive_staircase_mess,2022.1.1,35.895171741209495,
,,,,,7,0,7,0,14,0,14,0,,,,,,,,,,,,,,,,left,750,-12.5,9.637624565954684e-06,-1,4,-1,-5.0,894.7622921399773,None,894.7059019000735,895.0219245000044,895.7264165000524,896.0342328000115,896.7145934000146,897.0181964000221,left,1,2.98290459997952,894.7656064999755,None,897.2585952000227,None,,,,,,,wfoooa,001,0,fr,2022-05-04_10h56.16.460,3-AFC_adaptive_staircase_mess,2022.1.1,35.895171741209495,
,,,,,7,0,7,0,15,0,15,0,,,,,,,,,,,,,,,,up,750,-12.5,9.637624565954684e-06,-1,4,-1,-5.0,900.2797348399647,None,899.237372100004,899.5443897000514,900.2218939000741,900.5392837000545,901.2121680000564,901.5133165000007,right,0,2.673874199972488,899.2675573000452,None,901.780217200052,None,,,,,,,wfoooa,001,0,fr,2022-05-04_10h56.16.460,3-AFC_adaptive_staircase_mess,2022.1.1,35.895171741209495,
,,,,,7,0,7,0,16,0,16,0,,,,,,,,,,,,,,,,left,750,-10.0,1.2851978913844322e-05,1,5,1,2.5,903.4824078400154,None,903.4538924000226,903.7594813000178,904.4386624000035,904.7525032999692,905.4299736999674,905.7536919000559,right,0,2.4068330000154674,903.4864294000436,None,None,None,,,,,,,wfoooa,001,0,fr,2022-05-04_10h56.16.460,3-AFC_adaptive_staircase_mess,2022.1.1,35.895171741209495,
,,,,,7,0,7,0,17,0,17,0,,,,,,,,,,,,,,,,right,750,-7.5,1.7138389327322525e-05,1,5,1,2.5,909.4355503400323,None,907.3888370000059,907.72196850006,908.3874206000473,908.7223615000257,909.3773617000552,909.6839484999655,left,0,2.246893599978648,907.4216824000468,None,None,None,,,,,,,wfoooa,001,0,fr,2022-05-04_10h56.16.460,3-AFC_adaptive_staircase_mess,2022.1.1,35.895171741209495,
,,,,,7,0,7,0,18,0,18,0,,,,,,,,,,,,,,,,up,750,-5.0,2.285440948074376e-05,1,5,1,2.5,912.2181640400552,912.4417363000102,911.1787017000606,911.4778262000764,912.1593867000192,912.4739099000581,913.163719400065,913.47102669999,right,0,2.605132899945602,911.2081039999612,None,913.7333828000119,None,,,,,,,wfoooa,001,0,fr,2022-05-04_10h56.16.460,3-AFC_adaptive_staircase_mess,2022.1.1,35.895171741209495,
,,,,,7,0,7,0,19,0,19,0,,,,,,,,,,,,,,,,right,750,-2.5,3.0476844862008466e-05,1,5,1,2.5,917.3806836400647,None,915.3289093000349,915.6628892000299,916.3267078000354,916.632506599999,917.3226627999684,917.6443999999901,right,1,2.6947198999114335,915.3591567999683,None,917.8793977000751,None,,,,,,,wfoooa,001,0,fr,2022-05-04_10h56.16.460,3-AFC_adaptive_staircase_mess,2022.1.1,35.895171741209495,
,,,,,7,0,7,0,20,0,20,0,,,,,,,,,,,,,,,,right,750,-2.5,3.0476844862008466e-05,1,5,1,2.5,921.5994867400034,None,919.5536133999703,919.85947939998,920.5487894000253,920.8680634000339,921.5374609000282,921.8552095000632,right,1,2.5173935999628156,919.5832932000048,None,922.088433100027,None,,,,,,,wfoooa,001,0,fr,2022-05-04_10h56.16.460,3-AFC_adaptive_staircase_mess,2022.1.1,35.895171741209495,
,,,,,7,0,7,0,21,0,21,0,,,,,,,,,,,,,,,,up,750,-7.5,1.7138389327322525e-05,-1,6,-1,-5.0,924.6410316400463,None,923.5969629000174,923.9047200999921,924.5838898000075,924.9078190000728,925.5753328000428,925.8823857000098,left,0,2.7463780000107363,923.6259488000069,None,926.1213469000068,None,,,,,,,wfoooa,001,0,fr,2022-05-04_10h56.16.460,3-AFC_adaptive_staircase_mess,2022.1.1,35.895171741209495,
,,,,,8,0,8,0,0,0,0,0,,,,,,,,,,,,,[],[],10,right,500,30,0.002259279721874612,0,0,-1,10,934.3098884399981,934.5296099999687,932.2799112000503,932.6145936000394,933.2523572000209,933.5778751999605,934.2813730000053,934.5904946000082,right,1,2.4757100000279024,932.3129278999986,None,934.8091441000579,None,up,4.360192600055598,927.4376197999809,None,927.4376197999809,None,wfoooa,001,0,fr,2022-05-04_10h56.16.460,3-AFC_adaptive_staircase_mess,2022.1.1,35.895171741209495,
,,,,,8,0,8,0,1,0,1,0,,,,,,,,,,,,,,,,up,500,30,0.002259279721874612,0,0,-1,10,937.351422039955,None,936.2837173000444,936.6181266000494,937.2905741999857,937.6176826000446,None,None,up,1,1.4988981999922544,936.3468955999706,None,None,None,,,,,,,wfoooa,001,0,fr,2022-05-04_10h56.16.460,3-AFC_adaptive_staircase_mess,2022.1.1,35.895171741209495,
,,,,,8,0,8,0,2,0,2,0,,,,,,,,,,,,,,,,right,500,10,0.0002259279721874612,-1,0,-1,-10,941.3875547399978,None,939.323914000066,939.6290585000534,940.32393459999,940.6342899000738,941.3266896000132,941.6444307999918,right,1,2.520698400097899,939.3882841999875,None,941.8863582999911,None,,,,,,,wfoooa,001,0,fr,2022-05-04_10h56.16.460,3-AFC_adaptive_staircase_mess,2022.1.1,35.895171741209495,
,,,,,8,0,8,0,3,0,3,0,,,,,,,,,,,,,,,,left,500,10,0.0002259279721874612,-1,0,-1,-10,943.4156769400463,943.6388366000028,943.3871615000535,943.7020575000206,None,None,None,None,left,1,0.5730441999621689,943.4161315000383,None,None,None,,,,,,,wfoooa,001,0,fr,2022-05-04_10h56.16.460,3-AFC_adaptive_staircase_mess,2022.1.1,35.895171741209495,
,,,,,8,0,8,0,4,0,4,0,,,,,,,,,,,,,,,,right,500,0,7.144469792555515e-05,-1,0,-1,-10,947.5272900399752,947.7458981999662,945.4666885000188,945.7934797999915,946.4907384000253,946.7952888000291,947.4987745999824,947.8098549999995,right,1,2.9698597000679,945.5316953000147,None,948.0327154999832,None,,,,,,,wfoooa,001,0,fr,2022-05-04_10h56.16.460,3-AFC_adaptive_staircase_mess,2022.1.1,35.895171741209495,
,,,,,8,0,8,0,5,0,5,0,,,,,,,,,,,,,,,,right,500,0,7.144469792555515e-05,-1,0,-1,-10,952.0315563399811,None,949.9614161000354,950.2661473000189,950.9676418000599,951.2755115000764,951.9698356000008,952.2920682000695,right,1,2.546523900004104,950.0194668000331,None,952.5370975000551,None,,,,,,,wfoooa,001,0,fr,2022-05-04_10h56.16.460,3-AFC_adaptive_staircase_mess,2022.1.1,35.895171741209495,
,,,,,8,0,8,0,6,0,6,0,,,,,,,,,,,,,,,,left,500,-10,2.259279721874613e-05,-1,0,-1,-10,954.0975353400456,954.3162134999875,954.035457800026,954.3483607000671,955.0540048000403,955.3692603000673,956.0379055000376,956.341196399997,right,0,2.9944674000144005,954.0994981999975,None,956.5893796000164,None,,,,,,,wfoooa,001,0,fr,2022-05-04_10h56.16.460,3-AFC_adaptive_staircase_mess,2022.1.1,35.895171741209495,
,,,,,8,0,8,0,7,0,7,0,,,,,,,,,,,,,,,,left,500,-5,4.017630610928089e-05,1,1,1,5,958.6216643399559,None,958.5931488999631,958.9148515000707,959.5822523999959,959.910566000035,960.581768300035,960.8926864999812,right,0,2.837606400018558,958.6233043000102,None,961.1448201000458,None,,,,,,,wfoooa,001,0,fr,2022-05-04_10h56.16.460,3-AFC_adaptive_staircase_mess,2022.1.1,35.895171741209495,
,,,,,8,0,8,0,8,0,8,0,,,,,,,,,,,,,,,,right,500,0,7.144469792555515e-05,1,1,1,5,965.0074535400374,None,962.9544422000181,963.27347070002,963.9602584000677,964.2806216999888,964.9461098000174,965.2602035000455,right,1,2.6390782000962645,963.0141822000733,None,965.5146291999845,None,,,,,,,wfoooa,001,0,fr,2022-05-04_10h56.16.460,3-AFC_adaptive_staircase_mess,2022.1.1,35.895171741209495,
,,,,,8,0,8,0,9,0,9,0,,,,,,,,,,,,,,,,right,500,0,7.144469792555515e-05,1,1,1,5,969.1792143399828,None,967.1310370999854,967.4446782000596,968.1120432000607,968.4147552000359,969.1180451000109,969.4342673000647,right,1,2.637694300035946,967.1595114000374,None,969.6848844999913,None,,,,,,,wfoooa,001,0,fr,2022-05-04_10h56.16.460,3-AFC_adaptive_staircase_mess,2022.1.1,35.895171741209495,
,,,,,8,0,8,0,10,0,10,0,,,,,,,,,,,,,,,,up,500,-10,2.259279721874613e-05,-1,2,-1,-5.0,972.3260943399976,None,971.2948894000147,971.6247875000117,972.2975789000047,972.6043030000292,973.2911604000255,973.5956512000412,left,0,3.207326599978842,971.3576791000087,None,973.8421271999832,None,,,,,,,wfoooa,001,0,fr,2022-05-04_10h56.16.460,3-AFC_adaptive_staircase_mess,2022.1.1,35.895171741209495,
,,,,,8,0,8,0,11,0,11,0,,,,,,,,,,,,,,,,up,500,-7.5,3.0127979303717903e-05,1,3,1,2.5,977.1049838400679,None,976.0628173999721,976.3922217000509,977.0474013000494,977.3696256000549,978.0545533000259,978.3582363000605,left,0,2.6007407000288367,976.0916259000078,None,978.595063899993,None,,,,,,,wfoooa,001,0,fr,2022-05-04_10h56.16.460,3-AFC_adaptive_staircase_mess,2022.1.1,35.895171741209495,
,,,,,8,0,8,0,12,0,12,0,,,,,,,,,,,,,,,,right,500,-5.0,4.017630610928089e-05,1,3,1,2.5,982.2359114400344,None,980.1539246999891,980.4600206000032,981.1704259000253,981.4813793000067,982.1718812000472,982.500824399991,up,0,2.638955100090243,980.2134919000091,None,982.7323627000442,None,,,,,,,wfoooa,001,0,fr,2022-05-04_10h56.16.460,3-AFC_adaptive_staircase_mess,2022.1.1,35.895171741209495,
,,,,,8,0,8,0,13,0,13,0,,,,,,,,,,,,,,,,up,500,-2.5,5.357596526188033e-05,1,3,1,2.5,985.3971066399711,None,984.3368472000584,984.6596530000679,985.338145100046,985.6534613000695,986.3383483999642,986.6585169000318,up,1,2.6419040000764653,984.4023065000074,None,986.9029252000619,None,,,,,,,wfoooa,001,0,fr,2022-05-04_10h56.16.460,3-AFC_adaptive_staircase_mess,2022.1.1,35.895171741209495,
,,,,,8,0,8,0,14,0,14,0,,,,,,,,,,,,,,,,up,500,-2.5,5.357596526188033e-05,1,3,1,2.5,989.6079500400695,None,988.5436213000212,988.8748476000037,989.5468050000491,989.8607907000696,990.5382021999685,990.8613838000456,up,1,2.4412408999633044,988.6034810000565,None,991.0978989400203,None,,,,,,,wfoooa,001,0,fr,2022-05-04_10h56.16.460,3-AFC_adaptive_staircase_mess,2022.1.1,35.895171741209495,
,,,,,8,0,8,0,15,0,15,0,,,,,,,,,,,,,,,,left,500,-7.5,3.0127979303717903e-05,-1,4,-1,-5.0,992.5832276400645,None,992.5250500000548,992.8423149000155,993.5255947000114,993.8513148999773,994.5347933999728,994.8390002000378,left,1,2.5581659000599757,992.5827310000313,None,995.0778072000248,None,,,,,,,wfoooa,001,0,fr,2022-05-04_10h56.16.460,3-AFC_adaptive_staircase_mess,2022.1.1,35.895171741209495,
,,,,,8,0,8,0,16,0,16,0,,,,,,,,,,,,,,,,up,500,-7.5,3.0127979303717903e-05,-1,4,-1,-5.0,997.6796587399906,997.9035240999656,996.6450833000708,996.9591949000023,997.6209611999802,997.9306210000068,998.6430907000322,998.9423840000527,up,1,4.836300399969332,996.6733445000136,None,999.1777757999953,None,,,,,,,wfoooa,001,0,fr,2022-05-04_10h56.16.460,3-AFC_adaptive_staircase_mess,2022.1.1,35.895171741209495,
,,,,,8,0,8,0,17,0,17,0,,,,,,,,,,,,,,,,up,500,-12.5,1.6942207806960138e-05,-1,4,-1,-5.0,1004.0640979400371,1004.2806297000498,1002.9934771000408,1003.293728300021,1004.005116000073,1004.3097418000689,1004.997653300059,1005.298718300066,left,0,3.0613401000155136,1003.0567360999994,None,1005.5438946000068,None,,,,,,,wfoooa,001,0,fr,2022-05-04_10h56.16.460,3-AFC_adaptive_staircase_mess,2022.1.1,35.895171741209495,
,,,,,8,0,8,0,18,0,18,0,,,,,,,,,,,,,,,,up,500,-10.0,2.259279721874613e-05,1,5,1,2.5,1008.6524691400584,1008.8708323000465,1007.5882969000377,1007.9156153000658,1008.5943400000688,1008.9023911000695,1009.582178600016,1009.9122701999731,up,1,2.5022072000429034,1007.6474934000289,None,1010.1451897000661,None,,,,,,,wfoooa,001,0,fr,2022-05-04_10h56.16.460,3-AFC_adaptive_staircase_mess,2022.1.1,35.895171741209495,
,,,,,8,0,8,0,19,0,19,0,,,,,,,,,,,,,,,,up,500,-10.0,2.259279721874613e-05,1,5,1,2.5,1012.6752731400077,1012.8908969999757,1011.6352544999681,1011.937798500061,1012.6467577000149,1012.9492801000597,1013.6293324000435,1013.945254500024,up,1,2.6756362000014633,1011.6977575999917,None,1014.1919452999718,None,,,,,,,wfoooa,001,0,fr,2022-05-04_10h56.16.460,3-AFC_adaptive_staircase_mess,2022.1.1,35.895171741209495,
,,,,,8,0,8,0,20,0,20,0,,,,,,,,,,,,,,,,up,500,-15.0,1.2704863527746532e-05,-1,6,-1,-5.0,1016.9155269400683,None,1015.8543345000362,1016.1809886000119,1016.8554404000752,1017.1770104999887,1017.8511598999612,1018.1819507000037,left,0,2.3946860999567434,1015.9144406999694,None,None,None,,,,,,,wfoooa,001,0,fr,2022-05-04_10h56.16.460,3-AFC_adaptive_staircase_mess,2022.1.1,35.895171741209495,
,,,,,9,0,9,0,0,0,0,0,,,,,,,,,,,,,[],[],10,right,250,30,0.005296268625886445,0,0,-1,10,1026.19562394002,None,1024.121523900074,1024.4199276000727,1025.1378650000552,1025.441628600005,1026.1369663999649,1026.4470101000043,right,1,2.4685377000132576,1024.1915550000267,None,1026.6838204000378,None,up,4.304049599915743,1019.3813573999796,None,1019.3813573999796,None,wfoooa,001,0,fr,2022-05-04_10h56.16.460,3-AFC_adaptive_staircase_mess,2022.1.1,35.895171741209495,
,,,,,9,0,9,0,1,0,1,0,,,,,,,,,,,,,,,,left,250,30,0.005296268625886445,0,0,-1,10,1028.2100576400292,1028.4252055999823,1028.1522238999605,1028.4521754999878,None,None,None,None,left,1,0.5939552000490949,1028.2111403000308,None,None,None,,,,,,,wfoooa,001,0,fr,2022-05-04_10h56.16.460,3-AFC_adaptive_staircase_mess,2022.1.1,35.895171741209495,
,,,,,9,0,9,0,2,0,2,0,,,,,,,,,,,,,,,,left,250,10,0.0005296268625886444,-1,0,-1,-10,1030.3542838399765,None,1030.3050575000234,1030.6143974000588,None,None,None,None,left,1,0.4876162000000477,1030.3654174000258,None,None,None,,,,,,,wfoooa,001,0,fr,2022-05-04_10h56.16.460,3-AFC_adaptive_staircase_mess,2022.1.1,35.895171741209495,
,,,,,9,0,9,0,3,0,3,0,,,,,,,,,,,,,,,,left,250,10,0.0005296268625886444,-1,0,-1,-10,1032.4281227400527,None,1032.3996073000599,1032.7264011000516,None,None,None,None,left,1,0.6325473999604583,1032.427850099979,None,None,None,,,,,,,wfoooa,001,0,fr,2022-05-04_10h56.16.460,3-AFC_adaptive_staircase_mess,2022.1.1,35.895171741209495,
,,,,,9,0,9,0,4,0,4,0,,,,,,,,,,,,,,,,right,250,0,0.0001674827195789138,-1,0,-1,-10,1036.5875191400294,1036.8040720999707,1034.5681169000454,1034.8897702000104,1035.5328862000024,1035.8561632999917,1036.5289424000075,1036.8293495000107,right,1,2.511904099956155,1034.596445400035,None,1037.093762399978,None,,,,,,,wfoooa,001,0,fr,2022-05-04_10h56.16.460,3-AFC_adaptive_staircase_mess,2022.1.1,35.895171741209495,
,,,,,9,0,9,0,5,0,5,0,,,,,,,,,,,,,,,,right,250,0,0.0001674827195789138,-1,0,-1,-10,1040.6252399400576,1040.8368794000708,1038.5796849000035,1038.9105291999876,1039.5733250000048,1039.8983010000084,1040.5967245000647,1040.920452899998,right,1,2.515530400094576,1038.6416717000538,None,1041.1265026000328,None,,,,,,,wfoooa,001,0,fr,2022-05-04_10h56.16.460,3-AFC_adaptive_staircase_mess,2022.1.1,35.895171741209495,
,,,,,9,0,9,0,6,0,6,0,,,,,,,,,,,,,,,,left,250,-10,5.296268625886443e-05,-1,0,-1,-10,1042.683460939955,None,1042.6207937999861,1042.9571548000677,1043.6292657000013,1043.9549921000144,1044.6242079000222,1044.9588372000726,left,1,2.4033797000302,1042.6892169000348,None,None,None,,,,,,,wfoooa,001,0,fr,2022-05-04_10h56.16.460,3-AFC_adaptive_staircase_mess,2022.1.1,35.895171741209495,
,,,,,9,0,9,0,7,0,7,0,,,,,,,,,,,,,,,,up,250,-10,5.296268625886443e-05,-1,0,-1,-10,1047.660113940062,None,1046.593411799986,1046.9278490999714,1047.5954673000379,1047.9292683000676,1048.596834899974,1048.9298385999864,up,1,2.559740100055933,1046.66052949999,None,1049.1618610000005,None,,,,,,,wfoooa,001,0,fr,2022-05-04_10h56.16.460,3-AFC_adaptive_staircase_mess,2022.1.1,35.895171741209495,
,,,,,9,0,9,0,8,0,8,0,,,,,,,,,,,,,,,,right,250,-20,1.674827195789138e-05,-1,0,-1,-10,1052.7404566400685,None,1050.683648700011,1051.0095429000212,1051.6826294000493,1052.0053382000187,1052.6857274000067,1052.9886337000644,left,0,2.8940575999440625,1050.7429612000706,None,1053.2531437000725,None,,,,,,,wfoooa,001,0,fr,2022-05-04_10h56.16.460,3-AFC_adaptive_staircase_mess,2022.1.1,35.895171741209495,
,,,,,9,0,9,0,9,0,9,0,,,,,,,,,,,,,,,,up,250,-15,2.9783107176450517e-05,1,1,1,5,1056.1813849399798,None,1055.1162657999666,1055.4200224999804,1056.1244339999976,1056.4265342999715,1057.1568273999728,1057.481669300003,right,0,2.5608651000075042,1055.1874870000174,None,1057.6982033000095,None,,,,,,,wfoooa,001,0,fr,2022-05-04_10h56.16.460,3-AFC_adaptive_staircase_mess,2022.1.1,35.895171741209495,
,,,,,9,0,9,0,10,0,10,0,,,,,,,,,,,,,,,,right,250,-10,5.296268625886443e-05,1,1,1,5,1061.2865498400527,1061.5037226000568,1059.2486347999657,1059.5719397000503,1060.2561213000445,1060.582871700055,1061.2291644000215,1061.5312799999956,left,0,3.289489100105129,1059.3069951999933,None,1061.797623499995,None,,,,,,,wfoooa,001,0,fr,2022-05-04_10h56.16.460,3-AFC_adaptive_staircase_mess,2022.1.1,35.895171741209495,
,,,,,9,0,9,0,11,0,11,0,,,,,,,,,,,,,,,,right,250,-5,9.418245447449e-05,1,1,1,5,1066.1251703399932,None,1064.0933664999902,1064.416401800001,1065.0788864999777,1065.38115869998,1066.0762011000188,1066.3854637000477,left,0,2.7768208000343293,1064.124646799988,None,1066.6205248000333,None,,,,,,,wfoooa,001,0,fr,2022-05-04_10h56.16.460,3-AFC_adaptive_staircase_mess,2022.1.1,35.895171741209495,
,,,,,9,0,9,0,12,0,12,0,,,,,,,,,,,,,,,,left,250,0,0.0001674827195789138,1,1,1,5,1068.4341444400372,1068.662909500068,1068.3629296000581,1068.6924988999963,1069.367070300039,1069.6798999999883,1070.3670496999985,1070.7043155999854,left,1,2.2576743999961764,1068.4350688999984,None,None,None,,,,,,,wfoooa,001,0,fr,2022-05-04_10h56.16.460,3-AFC_adaptive_staircase_mess,2022.1.1,35.895171741209495,
,,,,,9,0,9,0,13,0,13,0,,,,,,,,,,,,,,,,up,250,0,0.0001674827195789138,1,1,1,5,1073.2282945400104,1073.4475840000669,1072.1648256999906,1072.4664463000372,1073.1698729000054,1073.4748512000078,1074.162431600038,1074.4685856000287,up,1,2.486540999962017,1072.2233636999736,None,1074.734812400071,None,,,,,,,wfoooa,001,0,fr,2022-05-04_10h56.16.460,3-AFC_adaptive_staircase_mess,2022.1.1,35.895171741209495,
,,,,,9,0,9,0,14,0,14,0,,,,,,,,,,,,,,,,up,250,-10,5.296268625886443e-05,-1,2,-1,-5.0,1077.259980040067,None,1076.223106999998,1076.5295627000742,1077.202396000037,1077.525066500064,1078.200308999978,1078.5058291000314,up,1,2.661231099977158,1076.2559664000291,None,1078.770743799978,None,,,,,,,wfoooa,001,0,fr,2022-05-04_10h56.16.460,3-AFC_adaptive_staircase_mess,2022.1.1,35.895171741209495,
,,,,,9,0,9,0,15,0,15,0,,,,,,,,,,,,,,,,left,250,-10,5.296268625886443e-05,-1,2,-1,-5.0,1080.4357258399716,1080.662071299972,1080.4072103999788,1080.7182031000266,1081.3785898999777,1081.6881186000537,1082.4068220000481,1082.7305145000573,left,1,2.5787321000825614,1080.4344600000186,None,1082.937041600002,None,,,,,,,wfoooa,001,0,fr,2022-05-04_10h56.16.460,3-AFC_adaptive_staircase_mess,2022.1.1,35.895171741209495,
,,,,,9,0,9,0,16,0,16,0,,,,,,,,,,,,,,,,left,250,-15.0,2.9783107176450517e-05,-1,2,-1,-5.0,1084.5478140400257,None,1084.4916733000427,1084.7850938000483,1085.5062653999776,1085.806749899988,1086.5083840000443,1086.8144551999867,left,1,4.159977999981493,1084.548041400034,None,1087.054220900056,None,,,,,,,wfoooa,001,0,fr,2022-05-04_10h56.16.460,3-AFC_adaptive_staircase_mess,2022.1.1,35.895171741209495,
,,,,,9,0,9,0,17,0,17,0,,,,,,,,,,,,,,,,left,250,-15.0,2.9783107176450517e-05,-1,2,-1,-5.0,1090.2516691399971,1090.47803940007,1090.2231537000043,1090.539510200033,1091.194786200067,1091.5213945000432,1092.2176463999785,1092.5239966000663,left,1,2.596598600037396,1090.2562869000249,None,1092.7650950000389,None,,,,,,,wfoooa,001,0,fr,2022-05-04_10h56.16.460,3-AFC_adaptive_staircase_mess,2022.1.1,35.895171741209495,
,,,,,9,0,9,0,18,0,18,0,,,,,,,,,,,,,,,,left,250,-20.0,1.674827195789138e-05,-1,2,-1,-5.0,1094.3901880400256,1094.6209892999614,1094.3616726000328,1094.68177809997,1095.3269799000118,1095.6524764000205,1096.3315227000276,1096.642076899996,up,0,2.475698299938813,1094.3929425000679,None,1096.9016571400455,None,,,,,,,wfoooa,001,0,fr,2022-05-04_10h56.16.460,3-AFC_adaptive_staircase_mess,2022.1.1,35.895171741209495,
,,,,,9,0,9,0,19,0,19,0,,,,,,,,,,,,,,,,up,250,-17.5,2.2334179607548154e-05,1,3,1,2.5,1099.3888800399611,None,1098.3293400000548,1098.6567261000164,1099.3319699000567,1099.6527234000387,1100.3514785000589,None,left,0,2.0328743999125436,1098.387485400075,None,None,None,,,,,,,wfoooa,001,0,fr,2022-05-04_10h56.16.460,3-AFC_adaptive_staircase_mess,2022.1.1,35.895171741209495,
,,,,,9,0,9,0,20,0,20,0,,,,,,,,,,,,,,,,right,250,-15.0,2.9783107176450517e-05,1,3,1,2.5,1103.9489484399558,None,1101.8940195000032,1102.2233648999827,1102.8966203000164,1103.2196114000399,1103.8916578000644,1104.1933034000685,right,1,2.6456327999476343,1101.952082599979,None,1104.4531290000305,None,,,,,,,wfoooa,001,0,fr,2022-05-04_10h56.16.460,3-AFC_adaptive_staircase_mess,2022.1.1,35.895171741209495,
,,,,,9,0,9,0,21,0,21,0,,,,,,,,,,,,,,,,right,250,-15.0,2.9783107176450517e-05,1,3,1,2.5,1108.1698059400544,1108.3876213000622,1106.1052519000368,1106.4301610999973,1107.1063476999989,1107.4067696999991,1108.1094948999817,1108.4137831999687,up,0,2.7688382000196725,1106.163929900038,None,1108.6788023000117,None,,,,,,,wfoooa,001,0,fr,2022-05-04_10h56.16.460,3-AFC_adaptive_staircase_mess,2022.1.1,35.895171741209495,
,,,,,9,0,9,0,22,0,22,0,,,,,,,,,,,,,,,,up,250,-12.5,3.971641173621407e-05,1,3,1,2.5,1111.4879329400603,None,1110.4569060000358,1110.7905405999627,1111.4312987000449,1111.7388106000144,1112.4401658000425,1112.7591284000082,up,1,2.490172200021334,1110.4906974000623,None,1112.9955754000694,None,,,,,,,wfoooa,001,0,fr,2022-05-04_10h56.16.460,3-AFC_adaptive_staircase_mess,2022.1.1,35.895171741209495,
,,,,,9,0,9,0,23,0,23,0,,,,,,,,,,,,,,,,right,250,-12.5,3.971641173621407e-05,1,3,1,2.5,1116.5037906399696,1116.7176837000297,1114.4454299999634,1114.7500072000548,1115.4494885000167,1115.77502010006,1116.4752751999767,1116.802030700026,left,0,2.786128900013864,1114.5151868000394,None,1117.0090155999642,None,,,,,,,wfoooa,001,0,fr,2022-05-04_10h56.16.460,3-AFC_adaptive_staircase_mess,2022.1.1,35.895171741209495,
,,,,,9,0,9,0,24,0,24,0,,,,,,,,,,,,,,,,up,250,-10.0,5.296268625886443e-05,1,3,1,2.5,1119.8013695399743,None,1118.7855687000556,1119.0856326000066,1119.7728540999815,1120.1065192000242,1120.7502135999966,1121.0778077000286,up,1,2.645488000009209,1118.8150979999918,None,1121.3125450999942,None,,,,,,,wfoooa,001,0,fr,2022-05-04_10h56.16.460,3-AFC_adaptive_staircase_mess,2022.1.1,35.895171741209495,
,,,,,9,0,9,0,25,0,25,0,,,,,,,,,,,,,,,,left,250,-10.0,5.296268625886443e-05,1,3,1,2.5,1122.9844163400587,1123.2021219000453,1122.924390600063,1123.2299439000199,1123.9335148000391,1124.2559451999841,1124.9390070000663,1125.2697667999892,left,1,5.580468000029214,1122.9843196000438,None,1125.4744312000694,None,,,,,,,wfoooa,001,0,fr,2022-05-04_10h56.16.460,3-AFC_adaptive_staircase_mess,2022.1.1,35.895171741209495,
,,,,,9,0,9,0,26,0,26,0,,,,,,,,,,,,,,,,left,250,-15.0,2.9783107176450517e-05,-1,4,-1,-5.0,1130.0997635400156,1130.317805300001,1130.0402560000075,1130.3339797999943,1131.0450317000505,1131.3458612000104,1132.046043700073,1132.374707799987,up,0,3.0094665999058634,1130.0994330999674,None,1132.6073591000168,None,,,,,,,wfoooa,001,0,fr,2022-05-04_10h56.16.460,3-AFC_adaptive_staircase_mess,2022.1.1,35.895171741209495,
,,,,,9,0,9,0,27,0,27,0,,,,,,,,,,,,,,,,up,250,-12.5,3.971641173621407e-05,1,5,1,2.5,1135.651961540035,1135.863417100045,1134.579112000065,1134.886596400058,1135.5884283999912,1135.8937893999973,1136.597478599986,1136.9135189000517,left,0,2.2479049999965355,1134.6374111999758,None,None,None,,,,,,,wfoooa,001,0,fr,2022-05-04_10h56.16.460,3-AFC_adaptive_staircase_mess,2022.1.1,35.895171741209495,
,,,,,9,0,9,0,28,0,28,0,,,,,,,,,,,,,,,,up,250,-10.0,5.296268625886443e-05,1,5,1,2.5,1139.430037739966,1139.6516260000644,1138.3734291000292,1138.6989839000162,1139.3735154999886,1139.678917100071,1140.3877384000225,1140.7167682000436,up,1,2.9976778000127524,1138.431775700068,None,1140.9217981999973,None,,,,,,,wfoooa,001,0,fr,2022-05-04_10h56.16.460,3-AFC_adaptive_staircase_mess,2022.1.1,35.895171741209495,
,,,,,9,0,9,0,29,0,29,0,,,,,,,,,,,,,,,,right,250,-10.0,5.296268625886443e-05,1,5,1,2.5,1144.986325740046,1145.2033602000447,1142.9113012000453,1143.231742599979,1143.9343549000332,1144.2575942999683,1144.9258575000567,1145.2357911000727,right,1,2.718366099987179,1142.966721200035,None,1145.469896399998,None,,,,,,,wfoooa,001,0,fr,2022-05-04_10h56.16.460,3-AFC_adaptive_staircase_mess,2022.1.1,35.895171741209495,
,,,,,9,0,9,0,30,0,30,0,,,,,,,,,,,,,,,,up,250,-15.0,2.9783107176450517e-05,-1,6,-1,-5.0,1148.2101564399666,1148.4286966000218,1147.153552700067,1147.4804464000044,1148.1522000000114,1148.456174400053,1149.1565757000353,1149.478796100011,left,0,2.4246236999752,1147.212058700039,None,None,None,,,,,,,wfoooa,001,0,fr,2022-05-04_10h56.16.460,3-AFC_adaptive_staircase_mess,2022.1.1,35.895171741209495,
,,,,,10,0,10,0,0,0,0,0,,,,,,,,,,,,,[],[],10,right,125,30,0.02285440948074376,0,0,-1,10,1158.2110754399794,1158.4243291000603,1156.154159000027,1156.4776422000723,1157.1545477999607,1157.4805065999972,1158.1524778000312,1158.4503834999632,right,1,2.5572898000245914,1156.1832544000354,None,1158.6899427999742,None,up,4.9643536999356,1150.720806700061,None,1150.720806700061,None,wfoooa,001,0,fr,2022-05-04_10h56.16.460,3-AFC_adaptive_staircase_mess,2022.1.1,35.895171741209495,
,,,,,10,0,10,0,1,0,1,0,,,,,,,,,,,,,,,,left,125,30,0.02285440948074376,0,0,-1,10,1160.2890653399984,1160.5075466000708,1160.2284852999728,1160.5345287000528,None,None,None,None,left,1,0.5503331000218168,1160.2868440999882,None,None,None,,,,,,,wfoooa,001,0,fr,2022-05-04_10h56.16.460,3-AFC_adaptive_staircase_mess,2022.1.1,35.895171741209495,
,,,,,10,0,10,0,2,0,2,0,,,,,,,,,,,,,,,,up,125,10,0.002285440948074376,-1,0,-1,-10,1163.3872830400244,None,1162.338341900031,1162.6605094000697,1163.3292937000515,1163.6363214000594,1164.3259069999913,None,up,1,2.1833485000533983,1162.3974476000294,None,None,None,,,,,,,wfoooa,001,0,fr,2022-05-04_10h56.16.460,3-AFC_adaptive_staircase_mess,2022.1.1,35.895171741209495,
,,,,,10,0,10,0,3,0,3,0,,,,,,,,,,,,,,,,left,125,10,0.002285440948074376,-1,0,-1,-10,1166.1172897400568,None,1166.0593273000559,1166.382705600001,None,None,None,None,left,1,0.5911261000437662,1166.1170559000457,None,None,None,,,,,,,wfoooa,001,0,fr,2022-05-04_10h56.16.460,3-AFC_adaptive_staircase_mess,2022.1.1,35.895171741209495,
,,,,,10,0,10,0,4,0,4,0,,,,,,,,,,,,,,,,left,125,0,0.000722719885372964,-1,0,-1,-10,1168.2447748400039,1168.4706798000261,1168.1842368000653,1168.4982765000314,None,None,None,None,left,1,0.6033073000144213,1168.2488923000637,None,None,None,,,,,,,wfoooa,001,0,fr,2022-05-04_10h56.16.460,3-AFC_adaptive_staircase_mess,2022.1.1,35.895171741209495,
,,,,,10,0,10,0,5,0,5,0,,,,,,,,,,,,,,,,right,125,0,0.000722719885372964,-1,0,-1,-10,1172.4160723400303,1172.6331423000665,1170.3481948999688,1170.6508869000245,1171.350001099985,1171.6854701000266,1172.3585076000309,1172.6645633999724,right,1,2.6542478000046685,1170.4071585000493,None,1172.9010403000284,None,,,,,,,wfoooa,001,0,fr,2022-05-04_10h56.16.460,3-AFC_adaptive_staircase_mess,2022.1.1,35.895171741209495,
,,,,,10,0,10,0,6,0,6,0,,,,,,,,,,,,,,,,up,125,-10,0.0002285440948074376,-1,0,-1,-10,1175.5848599400372,1175.7988199000247,1174.544253900065,1174.8434921000153,1175.5238555000396,1175.830922299996,1176.547150600003,1176.8700611999957,left,0,3.110858600004576,1174.573624700075,None,1177.0831615000498,None,,,,,,,wfoooa,001,0,fr,2022-05-04_10h56.16.460,3-AFC_adaptive_staircase_mess,2022.1.1,35.895171741209495,
,,,,,10,0,10,0,7,0,7,0,,,,,,,,,,,,,,,,right,125,-5,0.00040641525808204974,1,1,1,5,1181.236778640002,None,1179.1783389999764,1179.499986300012,1180.1775711000664,1180.483634800068,1181.1730494999792,1181.5009526000358,left,0,2.7014745000051335,1179.207278200076,None,1181.7344411000377,None,,,,,,,wfoooa,001,0,fr,2022-05-04_10h56.16.460,3-AFC_adaptive_staircase_mess,2022.1.1,35.895171741209495,
