frequencies,training_trials.thisRepN,training_trials.thisTrialN,training_trials.thisN,training_trials.thisIndex,frequencies.thisRepN,frequencies.thisTrialN,frequencies.thisN,frequencies.thisIndex,trials.thisRepN,trials.thisTrialN,trials.thisN,trials.thisIndex,tFrequency,tLevel,tCorrect,Tprobe.started,Tprobe.stopped,tTriangle_cue.started,tTriangle_cue.stopped,Tfeedback.keys,Tfeedback.corr,Tfeedback.rt,Tfeedback.started,Tfeedback.stopped,reversals_nTrials.routineEndVal,track_dir.routineEndVal,step_up.routineEndVal,Correct,Frequency,Level,Psychopy_Level,Direction,Reversals,Track_dir,Step,probe.started,probe.stopped,cross_cue.started,cross_cue.stopped,circle_cue.started,circle_cue.stopped,triangle_cue.started,triangle_cue.stopped,feedback.keys,feedback.corr,feedback.rt,feedback.started,feedback.stopped,memo.started,memo.stopped,key_resp.keys,key_resp.rt,key_resp.started,key_resp.stopped,text.started,text.stopped,participant,session,skip_training,language (english or french),date,expName,psychopyVersion,frameRate,
1300,0,0,0,3,,,,,,,,,1300,30,left,102.36028881997336,102.5828453998547,None,None,left,1,0.8906452001538128,101.86884339991957,None,,,,,,,,,,,,,,,,,,,,,,,,,,,,,,,,,nunamh,001,0,fr,2022-05-17_10h55.11.857,3-AFC_adaptive_staircase_mess,2022.1.1,36.37645407459936,
450,0,1,1,1,,,,,,,,,450,30,right,109.4167518198723,None,109.35625539999455,109.69127810001373,right,1,3.3392837001010776,106.94785119988956,None,,,,,,,,,,,,,,,,,,,,,,,,,,,,,,,,,nunamh,001,0,fr,2022-05-17_10h55.11.857,3-AFC_adaptive_staircase_mess,2022.1.1,36.37645407459936,
850,0,2,2,2,,,,,,,,,850,30,right,117.16604561985005,117.37937979982235,117.10938619985245,117.4323711998295,right,1,2.7245700999628752,114.72373089985922,None,,,,,,,,,,,,,,,,,,,,,,,,,,,,,,,,,nunamh,001,0,fr,2022-05-17_10h55.11.857,3-AFC_adaptive_staircase_mess,2022.1.1,36.37645407459936,
5000,0,3,3,4,,,,,,,,,5000,30,right,123.68882221982349,123.9006285998039,123.66150169982575,123.98344350000843,right,1,2.8047796001192182,121.2342842000071,None,,,,,,,,,,,,,,,,,,,,,,,,,,,,,,,,,nunamh,001,0,fr,2022-05-17_10h55.11.857,3-AFC_adaptive_staircase_mess,2022.1.1,36.37645407459936,
200,0,4,4,0,,,,,,,,,200,30,up,127.93328671993223,128.1531853999477,None,None,up,1,1.7807391001842916,126.4666035999544,None,,,,,,,,,,,,,,,,,,,,,,,,,,,,,,,,,nunamh,001,0,fr,2022-05-17_10h55.11.857,3-AFC_adaptive_staircase_mess,2022.1.1,36.37645407459936,
,,,,,0,0,0,0,0,0,0,0,,,,,,,,,,,,,[],[],10,right,1000,30,0.0013930605843148849,0,0,-1,10,139.41339681993705,139.63256369996816,137.33649489982054,137.64095939998515,138.34997979993932,138.6712723998353,139.35754759982228,139.6622694998514,right,1,2.338393600191921,137.40460389992222,None,None,None,,,,,,,nunamh,001,0,fr,2022-05-17_10h55.11.857,3-AFC_adaptive_staircase_mess,2022.1.1,36.37645407459936,
,,,,,0,0,0,0,1,0,1,0,,,,,,,,,,,,,,,,up,1000,30,0.0013930605843148849,0,0,-1,10,142.31016372002196,None,141.27491159993224,141.59449179982767,142.24146039993502,142.54160969983786,None,None,up,1,1.2561503001488745,141.3032853999175,None,None,None,,,,,,,nunamh,001,0,fr,2022-05-17_10h55.11.857,3-AFC_adaptive_staircase_mess,2022.1.1,36.37645407459936,
,,,,,0,0,0,0,2,0,2,0,,,,,,,,,,,,,,,,up,1000,10,0.00013930605843148847,-1,0,-1,-10,145.09106162001845,145.30824179993942,144.03262649988756,144.34855739981867,145.03525279997848,145.3344779999461,None,None,up,1,1.2628853002097458,144.08871729997918,None,None,None,,,,,,,nunamh,001,0,fr,2022-05-17_10h55.11.857,3-AFC_adaptive_staircase_mess,2022.1.1,36.37645407459936,
,,,,,0,0,0,0,3,0,3,0,,,,,,,,,,,,,,,,right,1000,10,0.00013930605843148847,-1,0,-1,-10,148.8933343200246,149.11081799981184,146.84246399998665,147.1625447999686,147.84491209988482,148.16316489991732,148.8388183999341,149.1376332999207,right,1,2.248838300118223,146.90265179984272,None,None,None,,,,,,,nunamh,001,0,fr,2022-05-17_10h55.11.857,3-AFC_adaptive_staircase_mess,2022.1.1,36.37645407459936,
,,,,,0,0,0,0,4,0,4,0,,,,,,,,,,,,,,,,left,1000,0,4.405244365040069e-05,-1,0,-1,-10,150.66358831988182,None,150.63626779988408,150.9518240999896,None,None,None,None,left,1,0.4853897001594305,150.6652321999427,None,None,None,,,,,,,nunamh,001,0,fr,2022-05-17_10h55.11.857,3-AFC_adaptive_staircase_mess,2022.1.1,36.37645407459936,
,,,,,0,0,0,0,5,0,5,0,,,,,,,,,,,,,,,,right,1000,0,4.405244365040069e-05,-1,0,-1,-10,154.6829918198986,154.89423520001583,152.64096269989386,152.9607376998756,153.64503929996863,153.95153289986774,154.65567129990086,154.97557849995792,right,1,2.325684000039473,152.69750949996524,None,None,None,,,,,,,nunamh,001,0,fr,2022-05-17_10h55.11.857,3-AFC_adaptive_staircase_mess,2022.1.1,36.37645407459936,
,,,,,0,0,0,0,6,0,6,0,,,,,,,,,,,,,,,,left,1000,-10,1.3930605843148848e-05,-1,0,-1,-10,156.52856771994848,156.7490236000158,156.50124719995074,156.80663479981013,157.49848189996555,157.81548839993775,158.50749579980038,158.83109949994832,left,1,2.782937800278887,156.52008919999935,None,159.0615844000131,None,,,,,,,nunamh,001,0,fr,2022-05-17_10h55.11.857,3-AFC_adaptive_staircase_mess,2022.1.1,36.37645407459936,
,,,,,0,0,0,0,7,0,7,0,,,,,,,,,,,,,,,,right,1000,-10,1.3930605843148848e-05,-1,0,-1,-10,162.8222104198998,163.03438299987465,160.78361689997837,161.1043020999059,161.78184930002317,162.1016141998116,162.76395039982162,163.08749850001186,up,0,2.831375500187278,160.83983820001595,None,163.31781079992652,None,,,,,,,nunamh,001,0,fr,2022-05-17_10h55.11.857,3-AFC_adaptive_staircase_mess,2022.1.1,36.37645407459936,
,,,,,0,0,0,0,8,0,8,0,,,,,,,,,,,,,,,,left,1000,-5,2.4772509540239506e-05,1,1,1,5,165.2320344198728,None,165.1437658998184,165.46578520000912,None,None,None,None,left,1,0.5754182001110166,165.2320206000004,None,None,None,,,,,,,nunamh,001,0,fr,2022-05-17_10h55.11.857,3-AFC_adaptive_staircase_mess,2022.1.1,36.37645407459936,
,,,,,0,0,0,0,9,0,9,0,,,,,,,,,,,,,,,,up,1000,-5,2.4772509540239506e-05,1,1,1,5,168.35093971991446,None,167.28129119984806,167.60084520000964,168.28711409983225,168.60382770001888,169.29189879982732,169.61344609991647,up,1,2.6052344001363963,167.33822779986076,None,169.8375438998919,None,,,,,,,nunamh,001,0,fr,2022-05-17_10h55.11.857,3-AFC_adaptive_staircase_mess,2022.1.1,36.37645407459936,
,,,,,0,0,0,0,10,0,10,0,,,,,,,,,,,,,,,,right,1000,-15,7.833755350540743e-06,-1,2,-1,-5.0,None,None,171.42811039998196,171.74841389991343,172.40820039995015,None,None,None,left,0,0.9682817000430077,171.455463899998,None,None,None,,,,,,,nunamh,001,0,fr,2022-05-17_10h55.11.857,3-AFC_adaptive_staircase_mess,2022.1.1,36.37645407459936,
,,,,,0,0,0,0,11,0,11,0,,,,,,,,,,,,,,,,left,1000,-12.5,1.0446480654270193e-05,1,3,1,2.5,173.96122882000637,174.1725452998653,173.90445379982702,174.22694059996866,174.9154538998846,175.22616790002212,None,None,up,0,1.6763385001104325,173.96261289995164,None,None,None,,,,,,,nunamh,001,0,fr,2022-05-17_10h55.11.857,3-AFC_adaptive_staircase_mess,2022.1.1,36.37645407459936,
,,,,,0,0,0,0,12,0,12,0,,,,,,,,,,,,,,,,up,1000,-10.0,1.3930605843148848e-05,1,3,1,2.5,178.16375491998625,178.38118419982493,177.10664549982175,177.42199259996414,178.11083609983325,178.43673640000634,179.12067539989948,179.43239199998789,up,1,2.5480391001328826,177.16334849991836,None,179.68605699995533,None,,,,,,,nunamh,001,0,fr,2022-05-17_10h55.11.857,3-AFC_adaptive_staircase_mess,2022.1.1,36.37645407459936,
,,,,,0,0,0,0,13,0,13,0,,,,,,,,,,,,,,,,up,1000,-10.0,1.3930605843148848e-05,1,3,1,2.5,182.25753741988447,182.4750739999581,181.2012577999849,181.53198569989763,182.20146249979734,182.50623789988458,183.21835629991256,183.53462819987908,right,0,2.4408897003158927,181.26192399999127,None,None,None,,,,,,,nunamh,001,0,fr,2022-05-17_10h55.11.857,3-AFC_adaptive_staircase_mess,2022.1.1,36.37645407459936,
,,,,,0,0,0,0,14,0,14,0,,,,,,,,,,,,,,,,right,1000,-7.5,1.8576761454858622e-05,1,3,1,2.5,None,None,185.18851229990833,185.50774139980786,186.19594220002182,None,None,None,left,0,0.9833339001052082,185.2481717998162,None,None,None,,,,,,,nunamh,001,0,fr,2022-05-17_10h55.11.857,3-AFC_adaptive_staircase_mess,2022.1.1,36.37645407459936,
,,,,,0,0,0,0,15,0,15,0,,,,,,,,,,,,,,,,left,1000,-5.0,2.4772509540239506e-05,1,3,1,2.5,187.7560880200239,None,187.72876750002615,188.04199249995872,188.68898650002666,189.01462739985436,189.72515019983985,190.03741639992222,left,1,2.6343504001852125,187.75617860001512,None,190.27022910001688,None,,,,,,,nunamh,001,0,fr,2022-05-17_10h55.11.857,3-AFC_adaptive_staircase_mess,2022.1.1,36.37645407459936,
,,,,,0,0,0,0,16,0,16,0,,,,,,,,,,,,,,,,left,1000,-5.0,2.4772509540239506e-05,1,3,1,2.5,191.9155017200159,192.13080829987302,191.88818120001815,192.21116559999064,None,None,None,None,left,1,0.5619451999664307,191.9174716998823,None,None,None,,,,,,,nunamh,001,0,fr,2022-05-17_10h55.11.857,3-AFC_adaptive_staircase_mess,2022.1.1,36.37645407459936,
,,,,,0,0,0,0,17,0,17,0,,,,,,,,,,,,,,,,right,1000,-10.0,1.3930605843148848e-05,-1,4,-1,-5.0,196.0092669198988,196.22682079998776,193.97461799997836,194.29108219989575,194.94702959991992,195.27112329984084,195.95468339999206,196.25293069984764,up,0,2.8137552002444863,193.993624499999,None,196.508797199931,None,,,,,,,nunamh,001,0,fr,2022-05-17_10h55.11.857,3-AFC_adaptive_staircase_mess,2022.1.1,36.37645407459936,
,,,,,0,0,0,0,18,0,18,0,,,,,,,,,,,,,,,,up,1000,-7.5,1.8576761454858622e-05,1,5,1,2.5,199.36824542002287,None,198.31312890001573,198.63354529999197,199.29975569993258,199.60137139982544,200.28778629982844,200.6046909999568,right,0,2.4757010000757873,198.33211639989167,None,200.85834391994868,None,,,,,,,nunamh,001,0,fr,2022-05-17_10h55.11.857,3-AFC_adaptive_staircase_mess,2022.1.1,36.37645407459936,
,,,,,0,0,0,0,19,0,19,0,,,,,,,,,,,,,,,,left,1000,-5.0,2.4772509540239506e-05,1,5,1,2.5,202.3319892198546,202.53988689999096,202.30466869985685,202.621760699898,203.2700108999852,203.57210109988227,204.28576299990527,204.60466780001298,up,0,2.686133700190112,202.3364082998596,None,204.83615370001644,None,,,,,,,nunamh,001,0,fr,2022-05-17_10h55.11.857,3-AFC_adaptive_staircase_mess,2022.1.1,36.37645407459936,
,,,,,0,0,0,0,20,0,20,0,,,,,,,,,,,,,,,,left,1000,-2.5,3.303467240037979e-05,1,5,1,2.5,206.5194706199458,206.73710649996065,206.49215009994805,206.79535709996708,207.47637269995175,207.79290229990147,208.47279219981283,208.7923133999575,right,0,2.7260588000062853,206.52159339981154,None,209.0258108000271,None,,,,,,,nunamh,001,0,fr,2022-05-17_10h55.11.857,3-AFC_adaptive_staircase_mess,2022.1.1,36.37645407459936,
,,,,,0,0,0,0,21,0,21,0,,,,,,,,,,,,,,,,left,1000,0.0,4.405244365040069e-05,1,5,1,2.5,210.7716889199568,None,210.72552979993634,211.03336080000736,None,None,None,None,left,1,0.6048153000883758,210.78613229980692,None,None,None,,,,,,,nunamh,001,0,fr,2022-05-17_10h55.11.857,3-AFC_adaptive_staircase_mess,2022.1.1,36.37645407459936,
,,,,,0,0,0,0,22,0,22,0,,,,,,,,,,,,,,,,up,1000,0.0,4.405244365040069e-05,1,5,1,2.5,213.93332491999027,214.14692859980278,212.90579869993962,213.22444129991345,213.90600439999253,214.2338941998314,None,None,up,1,1.4824813001323491,212.93312219996005,None,None,None,,,,,,,nunamh,001,0,fr,2022-05-17_10h55.11.857,3-AFC_adaptive_staircase_mess,2022.1.1,36.37645407459936,
,,,,,0,0,0,0,23,0,23,0,,,,,,,,,,,,,,,,up,1000,-5.0,2.4772509540239506e-05,-1,6,-1,-5.0,216.94351181990933,217.15341099980287,215.91369719989598,216.23313449998386,216.9161912999116,217.2356398999691,217.92050359980203,218.23506749980152,right,0,2.5366483002435416,215.94261489994824,None,218.46771109988913,None,,,,,,,nunamh,001,0,fr,2022-05-17_10h55.11.857,3-AFC_adaptive_staircase_mess,2022.1.1,36.37645407459936,
,,,,,1,0,1,0,0,0,0,0,,,,,,,,,,,,,[],[],10,up,1500,30,0.001527460556607757,0,0,-1,10,222.62990021982696,222.8401955999434,221.5887372000143,221.9162171999924,222.60257969982922,222.92265149997547,None,None,up,1,1.3492884000297636,221.65758539992385,None,None,None,space,1.578221300151199,219.54192469990812,None,219.54192469990812,None,nunamh,001,0,fr,2022-05-17_10h55.11.857,3-AFC_adaptive_staircase_mess,2022.1.1,36.37645407459936,
,,,,,1,0,1,0,1,0,1,0,,,,,,,,,,,,,,,,right,1500,30,0.001527460556607757,0,0,-1,10,226.54767961984035,226.75903269997798,224.51146660000086,224.83077629981562,225.51272519980557,225.8368106998969,226.49424219992943,226.81425349996425,right,1,2.2592172001022846,224.53993059997447,None,None,None,,,,,,,nunamh,001,0,fr,2022-05-17_10h55.11.857,3-AFC_adaptive_staircase_mess,2022.1.1,36.37645407459936,
,,,,,1,0,1,0,2,0,2,0,,,,,,,,,,,,,,,,right,1500,10,0.0001527460556607757,-1,0,-1,-10,230.31796721995343,230.53463259991258,228.27622689981945,228.5911642999854,229.2760981998872,229.59123239992186,230.26234010001644,230.56260249996558,right,1,2.3555193000938743,228.33118029986508,None,None,None,,,,,,,nunamh,001,0,fr,2022-05-17_10h55.11.857,3-AFC_adaptive_staircase_mess,2022.1.1,36.37645407459936,
,,,,,1,0,1,0,3,0,3,0,,,,,,,,,,,,,,,,up,1500,10,0.0001527460556607757,-1,0,-1,-10,233.2020540199941,233.41830369993113,232.1683368999511,232.48285949998535,233.17473349999636,233.50270089996047,None,None,up,1,1.4688603000249714,232.22593239997514,None,None,None,,,,,,,nunamh,001,0,fr,2022-05-17_10h55.11.857,3-AFC_adaptive_staircase_mess,2022.1.1,36.37645407459936,
,,,,,1,0,1,0,4,0,4,0,,,,,,,,,,,,,,,,right,1500,0,4.830254394949071e-05,-1,0,-1,-10,237.19633311985527,237.40574770001695,235.16544499993324,235.48331559984945,236.16319969994947,236.48468089988455,237.16901259985752,237.48778359987773,left,0,2.7791313002817333,235.19610229996033,None,237.720072099939,None,,,,,,,nunamh,001,0,fr,2022-05-17_10h55.11.857,3-AFC_adaptive_staircase_mess,2022.1.1,36.37645407459936,
,,,,,1,0,1,0,5,0,5,0,,,,,,,,,,,,,,,,right,1500,5,8.589541935787943e-05,1,1,1,5,241.52927201983985,241.7471411000006,239.466956499964,239.78592109982856,240.46796559984796,240.78894719993696,241.47295049997047,241.77377550001256,right,1,2.5392483002506196,239.52330669993535,None,242.02990629989654,None,,,,,,,nunamh,001,0,fr,2022-05-17_10h55.11.857,3-AFC_adaptive_staircase_mess,2022.1.1,36.37645407459936,
,,,,,1,0,1,0,6,0,6,0,,,,,,,,,,,,,,,,left,1500,5,8.589541935787943e-05,1,1,1,5,243.62231781983283,243.83384380000643,243.56581549998373,243.89595059980638,244.55700499983504,244.87403039983474,245.56061449996196,245.88323949999176,up,0,2.7080668001435697,243.62670070002787,None,246.1103417999111,None,,,,,,,nunamh,001,0,fr,2022-05-17_10h55.11.857,3-AFC_adaptive_staircase_mess,2022.1.1,36.37645407459936,
,,,,,1,0,1,0,7,0,7,0,,,,,,,,,,,,,,,,up,1500,10,0.0001527460556607757,1,1,1,5,248.89762711988297,249.10807439987548,247.8356119999662,248.15968379983678,248.84195139980875,249.16720169992186,None,None,up,1,1.7532657000701874,247.89383979979903,None,None,None,,,,,,,nunamh,001,0,fr,2022-05-17_10h55.11.857,3-AFC_adaptive_staircase_mess,2022.1.1,36.37645407459936,
,,,,,1,0,1,0,8,0,8,0,,,,,,,,,,,,,,,,up,1500,10,0.0001527460556607757,1,1,1,5,252.16855781988707,252.38099199999124,251.1353156999685,251.45556119992398,252.11415849998593,252.43714509997517,None,None,up,1,1.4884571000002325,251.16716640000232,None,None,None,,,,,,,nunamh,001,0,fr,2022-05-17_10h55.11.857,3-AFC_adaptive_staircase_mess,2022.1.1,36.37645407459936,
,,,,,1,0,1,0,9,0,9,0,,,,,,,,,,,,,,,,left,1500,0,4.830254394949071e-05,-1,2,-1,-5.0,254.20273641983513,254.41786089981906,254.14683560002595,254.47678999998607,255.15991859999485,255.4759833998978,256.16417719982564,256.481955899857,right,0,2.769776100292802,254.20507619995624,None,256.7141240998171,None,,,,,,,nunamh,001,0,fr,2022-05-17_10h55.11.857,3-AFC_adaptive_staircase_mess,2022.1.1,36.37645407459936,
,,,,,1,0,1,0,10,0,10,0,,,,,,,,,,,,,,,,left,1500,2.5,6.441247758465671e-05,1,3,1,2.5,258.52232391990253,258.73438909999095,258.464092399925,258.78755289991386,None,None,None,None,left,1,0.5587033000774682,258.5207691998221,None,None,None,,,,,,,nunamh,001,0,fr,2022-05-17_10h55.11.857,3-AFC_adaptive_staircase_mess,2022.1.1,36.37645407459936,
,,,,,1,0,1,0,11,0,11,0,,,,,,,,,,,,,,,,left,1500,2.5,6.441247758465671e-05,1,3,1,2.5,260.61696281980255,260.8339322998654,260.58964229980484,260.9155774998944,261.573810899863,261.8923879999202,262.584823400015,262.9113820998464,left,1,2.4371327001135796,260.6179143998306,None,None,None,,,,,,,nunamh,001,0,fr,2022-05-17_10h55.11.857,3-AFC_adaptive_staircase_mess,2022.1.1,36.37645407459936,
,,,,,1,0,1,0,12,0,12,0,,,,,,,,,,,,,,,,right,1500,-2.5,3.622179800374953e-05,-1,4,-1,-5.0,266.61009751979725,266.8260295998771,264.57169110001996,264.88791259983554,265.5745267998427,265.89242949988693,266.551853899844,266.85712469997816,right,1,2.83230539993383,264.59899679990485,None,267.11658659996465,None,,,,,,,nunamh,001,0,fr,2022-05-17_10h55.11.857,3-AFC_adaptive_staircase_mess,2022.1.1,36.37645407459936,
,,,,,1,0,1,0,13,0,13,0,,,,,,,,,,,,,,,,right,1500,-2.5,3.622179800374953e-05,-1,4,-1,-5.0,270.9818571198033,271.20162449986674,268.90662029990926,269.2231661998667,269.91407299996354,270.23816179996356,270.9230406000279,271.2333364998922,left,0,2.5872615000698715,268.9639233998023,None,271.46243559988216,None,,,,,,,nunamh,001,0,fr,2022-05-17_10h55.11.857,3-AFC_adaptive_staircase_mess,2022.1.1,36.37645407459936,
,,,,,1,0,1,0,14,0,14,0,,,,,,,,,,,,,,,,up,1500,0.0,4.830254394949071e-05,1,5,1,2.5,274.09880391994955,274.31482969992794,273.0355622000061,273.35357599984854,274.04276679991744,274.34102649986744,275.0526153999381,275.3769994999748,up,1,2.45979980006814,273.091956499964,None,275.60180641987824,None,,,,,,,nunamh,001,0,fr,2022-05-17_10h55.11.857,3-AFC_adaptive_staircase_mess,2022.1.1,36.37645407459936,
,,,,,1,0,1,0,15,0,15,0,,,,,,,,,,,,,,,,up,1500,0.0,4.830254394949071e-05,1,5,1,2.5,278.0977096198825,278.310629399959,277.04491579998285,277.3662174998317,278.0703890998848,278.3736030999571,279.07092659990303,279.40614989981987,left,0,2.5151166999712586,277.10076109995134,None,279.6041072998196,None,,,,,,,nunamh,001,0,fr,2022-05-17_10h55.11.857,3-AFC_adaptive_staircase_mess,2022.1.1,36.37645407459936,
,,,,,1,0,1,0,16,0,16,0,,,,,,,,,,,,,,,,up,1500,2.5,6.441247758465671e-05,1,5,1,2.5,282.16754201983565,282.3841569998767,281.1369926999323,281.43808689992875,282.1061736999545,282.4154570000246,283.14040829986334,283.47526460001245,right,0,2.436084399931133,281.1713000999298,None,None,None,,,,,,,nunamh,001,0,fr,2022-05-17_10h55.11.857,3-AFC_adaptive_staircase_mess,2022.1.1,36.37645407459936,
,,,,,1,0,1,0,17,0,17,0,,,,,,,,,,,,,,,,left,1500,5.0,8.589541935787943e-05,1,5,1,2.5,285.1350945199141,285.351543399971,285.1077739999164,285.412987699965,286.08001639996655,286.41014419985004,287.07749489997514,287.4092505997978,left,1,2.6166833001188934,285.1425792998634,None,287.6473629998509,None,,,,,,,nunamh,001,0,fr,2022-05-17_10h55.11.857,3-AFC_adaptive_staircase_mess,2022.1.1,36.37645407459936,
,,,,,1,0,1,0,18,0,18,0,,,,,,,,,,,,,,,,right,1500,5.0,8.589541935787943e-05,1,5,1,2.5,291.29297832001464,None,289.2765812999569,289.58286580001004,290.282196899876,290.6140663998667,291.2656578000169,291.5873781000264,right,1,2.5288078002631664,289.3100934999529,None,291.82088799984194,None,,,,,,,nunamh,001,0,fr,2022-05-17_10h55.11.857,3-AFC_adaptive_staircase_mess,2022.1.1,36.37645407459936,
,,,,,1,0,1,0,19,0,19,0,,,,,,,,,,,,,,,,left,1500,0.0,4.830254394949071e-05,-1,6,-1,-5.0,293.37647211991714,293.5941232999321,293.3491515999194,293.6566675999202,294.34737149998546,294.6830857999157,295.3409100000281,295.65021559991874,left,1,2.624140100320801,293.38407419994473,None,295.88734339992516,None,,,,,,,nunamh,001,0,fr,2022-05-17_10h55.11.857,3-AFC_adaptive_staircase_mess,2022.1.1,36.37645407459936,
,,,,,2,0,2,0,0,0,0,0,,,,,,,,,,,,,[],[],10,right,2000,30,0.0023657562948074026,0,0,-1,10,301.3138470200123,301.53476049983874,299.28873999998905,299.5919782000128,300.2932354998775,300.6192234000191,301.2865265000146,301.598456799984,right,1,2.4357237003277987,299.3226122998167,None,301.8164446200011,None,space,1.7158036001492292,297.0832220998127,None,297.0832220998127,None,nunamh,001,0,fr,2022-05-17_10h55.11.857,3-AFC_adaptive_staircase_mess,2022.1.1,36.37645407459936,
,,,,,2,0,2,0,1,0,1,0,,,,,,,,,,,,,,,,up,2000,30,0.0023657562948074026,0,0,-1,10,304.31496201988773,304.5365102000069,303.2848408999853,303.5951970999595,304.28764149989,304.5983441998251,None,None,up,1,1.4777906001545489,303.31252049980685,None,None,None,,,,,,,nunamh,001,0,fr,2022-05-17_10h55.11.857,3-AFC_adaptive_staircase_mess,2022.1.1,36.37645407459936,
,,,,,2,0,2,0,2,0,2,0,,,,,,,,,,,,,,,,up,2000,10,0.00023657562948074026,-1,0,-1,-10,307.35570251985916,307.57492879987694,306.2971991999075,306.6022412998136,307.32838199986145,307.63785779988393,None,None,up,1,1.322610700270161,306.36467299982905,None,None,None,,,,,,,nunamh,001,0,fr,2022-05-17_10h55.11.857,3-AFC_adaptive_staircase_mess,2022.1.1,36.37645407459936,
,,,,,2,0,2,0,3,0,3,0,,,,,,,,,,,,,,,,up,2000,10,0.00023657562948074026,-1,0,-1,-10,310.2147545199608,None,309.1692206999287,309.4989515999332,310.1874339999631,310.5022378999274,None,None,up,1,1.2738346999976784,309.2298220999073,None,None,None,,,,,,,nunamh,001,0,fr,2022-05-17_10h55.11.857,3-AFC_adaptive_staircase_mess,2022.1.1,36.37645407459936,
,,,,,2,0,2,0,4,0,4,0,,,,,,,,,,,,,,,,right,2000,0,7.481178280472168e-05,-1,0,-1,-10,314.055656519928,314.2788783998694,312.0190520999022,312.34012870001607,313.0027307998389,313.32744539994746,314.0283359999303,314.34122099983506,right,1,2.666250499896705,312.07796209980734,None,314.5686663999222,None,,,,,,,nunamh,001,0,fr,2022-05-17_10h55.11.857,3-AFC_adaptive_staircase_mess,2022.1.1,36.37645407459936,
,,,,,2,0,2,0,5,0,5,0,,,,,,,,,,,,,,,,left,2000,0,7.481178280472168e-05,-1,0,-1,-10,316.26676281981634,316.48992559988983,316.2087671000045,316.517684899969,317.2164081998635,317.5511707998812,318.23957799980417,318.54935289989226,left,1,2.588644400238991,316.27392419986427,None,318.78046299982816,None,,,,,,,nunamh,001,0,fr,2022-05-17_10h55.11.857,3-AFC_adaptive_staircase_mess,2022.1.1,36.37645407459936,
,,,,,2,0,2,0,6,0,6,0,,,,,,,,,,,,,,,,up,2000,-10,2.3657562948074015e-05,-1,0,-1,-10,321.41090701983774,321.6344920999836,320.3788761999458,320.72116939979605,321.35272639989853,321.6524937998038,322.3863272999879,322.72159500001,up,1,2.4951936001889408,320.4156590998173,None,322.9162055000197,None,,,,,,,nunamh,001,0,fr,2022-05-17_10h55.11.857,3-AFC_adaptive_staircase_mess,2022.1.1,36.37645407459936,
,,,,,2,0,2,0,7,0,7,0,,,,,,,,,,,,,,,,right,2000,-10,2.3657562948074015e-05,-1,0,-1,-10,326.4447332198964,None,324.40794109995477,324.74235469987616,325.40901229996234,325.74699679994956,326.38386269984767,326.7102629998699,right,1,2.590916900197044,324.4403542999644,None,326.9524579998106,None,,,,,,,nunamh,001,0,fr,2022-05-17_10h55.11.857,3-AFC_adaptive_staircase_mess,2022.1.1,36.37645407459936,
,,,,,2,0,2,0,8,0,8,0,,,,,,,,,,,,,,,,left,2000,-20,7.481178280472164e-06,-1,0,-1,-10,328.5779910199111,None,328.5209288999904,328.847213299945,329.53332709986717,329.8483529998921,330.5242051000241,330.8586545998696,left,1,2.450694700004533,328.58138839993626,None,331.0839024199871,None,,,,,,,nunamh,001,0,fr,2022-05-17_10h55.11.857,3-AFC_adaptive_staircase_mess,2022.1.1,36.37645407459936,
,,,,,2,0,2,0,9,0,9,0,,,,,,,,,,,,,,,,up,2000,-20,7.481178280472164e-06,-1,0,-1,-10,333.5808111198479,None,332.55143260001205,332.86289969994687,333.5534905998502,None,None,None,left,0,0.9837470999918878,332.5839064999018,None,None,None,,,,,,,nunamh,001,0,fr,2022-05-17_10h55.11.857,3-AFC_adaptive_staircase_mess,2022.1.1,36.37645407459936,
,,,,,2,0,2,0,10,0,10,0,,,,,,,,,,,,,,,,up,2000,-15,1.3303625298994042e-05,1,1,1,5,336.1195354198338,None,335.0571985999122,335.38396889995784,336.0581651998218,336.3791116999928,337.0577078999486,337.3753965999931,right,0,2.7788034002296627,335.1245531998575,None,337.6130658998154,None,,,,,,,nunamh,001,0,fr,2022-05-17_10h55.11.857,3-AFC_adaptive_staircase_mess,2022.1.1,36.37645407459936,
,,,,,2,0,2,0,11,0,11,0,,,,,,,,,,,,,,,,right,2000,-10,2.3657562948074015e-05,1,1,1,5,None,None,339.3968773998786,339.7052154999692,None,None,None,None,left,0,0.8275762000121176,339.46740159997717,None,None,None,,,,,,,nunamh,001,0,fr,2022-05-17_10h55.11.857,3-AFC_adaptive_staircase_mess,2022.1.1,36.37645407459936,
,,,,,2,0,2,0,12,0,12,0,,,,,,,,,,,,,,,,right,2000,-5,4.206975708225974e-05,1,1,1,5,343.8245065198047,344.04099679994397,341.7690977999009,342.0930246999487,342.781807199819,343.09534509992227,343.79718599980697,344.1036592000164,up,0,3.234660099959001,341.83599870000035,None,344.31516969995573,None,,,,,,,nunamh,001,0,fr,2022-05-17_10h55.11.857,3-AFC_adaptive_staircase_mess,2022.1.1,36.37645407459936,
,,,,,2,0,2,0,13,0,13,0,,,,,,,,,,,,,,,,right,2000,0,7.481178280472168e-05,1,1,1,5,348.5942488198401,None,346.56976619991474,346.8891049998347,347.56850069994107,347.9041953999549,348.53444799990393,348.8494902998209,right,1,2.4679370999801904,346.60293799987994,None,349.096484699985,None,,,,,,,nunamh,001,0,fr,2022-05-17_10h55.11.857,3-AFC_adaptive_staircase_mess,2022.1.1,36.37645407459936,
,,,,,2,0,2,0,14,0,14,0,,,,,,,,,,,,,,,,up,2000,0,7.481178280472168e-05,1,1,1,5,351.63681621986905,None,350.58796859998256,350.8948768998962,351.5791246998124,351.89657579991035,352.58736419980414,352.9091582999099,up,1,2.6132692000828683,350.6179690998979,None,353.13084959983826,None,,,,,,,nunamh,001,0,fr,2022-05-17_10h55.11.857,3-AFC_adaptive_staircase_mess,2022.1.1,36.37645407459936,
,,,,,2,0,2,0,15,0,15,0,,,,,,,,,,,,,,,,up,2000,-10,2.3657562948074015e-05,-1,2,-1,-5.0,355.7931575199822,356.0058577999007,354.7193517999258,355.0403777998872,355.73479139991105,356.058764499845,356.7257546999026,357.04810919985175,left,0,2.646359900245443,354.77675399999134,None,357.2894835998304,None,,,,,,,nunamh,001,0,fr,2022-05-17_10h55.11.857,3-AFC_adaptive_staircase_mess,2022.1.1,36.37645407459936,
,,,,,2,0,2,0,16,0,16,0,,,,,,,,,,,,,,,,up,2000,-7.5,3.154786722400965e-05,1,3,1,2.5,359.94251351987475,360.16503019980155,358.8934647999704,359.21863439981826,359.91519299987704,360.2196016998496,360.9022365999408,361.22737320000306,right,0,2.4154090001247823,358.9529958998319,None,None,None,,,,,,,nunamh,001,0,fr,2022-05-17_10h55.11.857,3-AFC_adaptive_staircase_mess,2022.1.1,36.37645407459936,
,,,,,2,0,2,0,17,0,17,0,,,,,,,,,,,,,,,,right,2000,-5.0,4.206975708225974e-05,1,3,1,2.5,364.9070655198069,365.1301126999315,362.83940269984305,363.1620626999065,363.83492799988016,364.1555280999746,364.8482341999188,365.16147529985756,left,0,2.5661291000433266,362.8974782999139,None,365.39784869994037,None,,,,,,,nunamh,001,0,fr,2022-05-17_10h55.11.857,3-AFC_adaptive_staircase_mess,2022.1.1,36.37645407459936,
,,,,,2,0,2,0,18,0,18,0,,,,,,,,,,,,,,,,right,2000,-2.5,5.610092271509818e-05,1,3,1,2.5,369.02926161999346,369.24727569986135,366.96916249999776,367.2909858999774,367.98539419984445,368.3176243000198,368.9730851999484,369.27370589994825,up,0,2.5575326001271605,367.025318400003,None,369.52803079993464,None,,,,,,,nunamh,001,0,fr,2022-05-17_10h55.11.857,3-AFC_adaptive_staircase_mess,2022.1.1,36.37645407459936,
,,,,,2,0,2,0,19,0,19,0,,,,,,,,,,,,,,,,right,2000,0.0,7.481178280472168e-05,1,3,1,2.5,373.12559081984216,373.33889249991626,371.0598603999242,371.3846397998277,372.082900499925,372.403299999889,373.06676029996015,373.3665344999172,left,0,2.5266502001322806,371.1200843998231,None,373.6239797999151,None,,,,,,,nunamh,001,0,fr,2022-05-17_10h55.11.857,3-AFC_adaptive_staircase_mess,2022.1.1,36.37645407459936,
,,,,,2,0,2,0,20,0,20,0,,,,,,,,,,,,,,,,right,2000,2.5,9.976311574844399e-05,1,3,1,2.5,377.1895828197943,377.40868319990113,375.15164769999683,375.46738059981726,376.13431809982285,376.4558521998115,377.1328693998512,377.43639269983396,right,1,2.5345340000931174,375.1769073000178,None,377.7017981999088,None,,,,,,,nunamh,001,0,fr,2022-05-17_10h55.11.857,3-AFC_adaptive_staircase_mess,2022.1.1,36.37645407459936,
,,,,,2,0,2,0,21,0,21,0,,,,,,,,,,,,,,,,up,2000,2.5,9.976311574844399e-05,1,3,1,2.5,380.2693457198096,380.48768649995327,379.1979853999801,379.52132399985567,380.21332459989935,380.513831499964,None,None,up,1,1.7458063003141433,379.26108859991655,None,None,None,,,,,,,nunamh,001,0,fr,2022-05-17_10h55.11.857,3-AFC_adaptive_staircase_mess,2022.1.1,36.37645407459936,
,,,,,2,0,2,0,22,0,22,0,,,,,,,,,,,,,,,,up,2000,-2.5,5.610092271509818e-05,-1,4,-1,-5.0,383.56540802002417,383.780353799928,382.50200939993374,382.8293408998288,383.5091260999907,383.8427615999244,384.5122271999717,384.8345319998916,right,0,2.5620886001270264,382.5649576999713,None,385.07525509991683,None,,,,,,,nunamh,001,0,fr,2022-05-17_10h55.11.857,3-AFC_adaptive_staircase_mess,2022.1.1,36.37645407459936,
,,,,,2,0,2,0,23,0,23,0,,,,,,,,,,,,,,,,right,2000,0.0,7.481178280472168e-05,1,5,1,2.5,388.6521521198796,388.8680813999381,386.62826599995606,386.9456515999045,387.6138559000101,387.93202599999495,388.6248315998819,388.9504079998005,left,0,2.420130900107324,386.6581509998068,None,None,None,,,,,,,nunamh,001,0,fr,2022-05-17_10h55.11.857,3-AFC_adaptive_staircase_mess,2022.1.1,36.37645407459936,
,,,,,2,0,2,0,24,0,24,0,,,,,,,,,,,,,,,,right,2000,2.5,9.976311574844399e-05,1,5,1,2.5,392.60506382000165,392.8243451998569,390.58515109983273,390.90918539999984,391.5740422999952,391.894504299853,392.57774330000393,None,up,0,2.2235608000773937,390.6156826999504,None,None,None,,,,,,,nunamh,001,0,fr,2022-05-17_10h55.11.857,3-AFC_adaptive_staircase_mess,2022.1.1,36.37645407459936,
,,,,,2,0,2,0,25,0,25,0,,,,,,,,,,,,,,,,up,2000,5.0,0.0001330362529899405,1,5,1,2.5,395.38366131994405,395.5950481998734,394.3075011000037,394.63225859985687,395.3246949999593,395.6512243999168,None,None,up,1,1.5463460001628846,394.3658493999392,None,None,None,,,,,,,nunamh,001,0,fr,2022-05-17_10h55.11.857,3-AFC_adaptive_staircase_mess,2022.1.1,36.37645407459936,
,,,,,2,0,2,0,26,0,26,0,,,,,,,,,,,,,,,,left,2000,5.0,0.0001330362529899405,1,5,1,2.5,397.4531372198602,397.6674762999173,397.39783009979874,397.7242101000156,None,None,None,None,left,1,0.6158624000381678,397.45456899981946,None,None,None,,,,,,,nunamh,001,0,fr,2022-05-17_10h55.11.857,3-AFC_adaptive_staircase_mess,2022.1.1,36.37645407459936,
,,,,,2,0,2,0,27,0,27,0,,,,,,,,,,,,,,,,right,2000,0.0,7.481178280472168e-05,-1,6,-1,-5.0,401.6324377199402,401.8483953999821,399.5598044998478,399.8811313000042,400.56938479980454,400.8900891998783,401.5686547998339,401.8749791998416,right,1,2.756483200006187,399.61813989980146,None,402.12751729995944,None,,,,,,,nunamh,001,0,fr,2022-05-17_10h55.11.857,3-AFC_adaptive_staircase_mess,2022.1.1,36.37645407459936,
,,,,,3,0,3,0,0,0,0,0,,,,,,,,,,,,,[],[],10,right,3000,30,0.001733684252262658,0,0,-1,10,407.3885702199535,407.60544039984234,405.315260599833,405.6386270998046,406.3267769999802,406.63447669986635,407.33210499980487,407.63646039995365,right,1,2.3108651000075042,405.37601849995553,None,None,None,space,1.443963099969551,403.4351309000049,None,403.4351309000049,None,nunamh,001,0,fr,2022-05-17_10h55.11.857,3-AFC_adaptive_staircase_mess,2022.1.1,36.37645407459936,
,,,,,3,0,3,0,1,0,1,0,,,,,,,,,,,,,,,,right,3000,30,0.001733684252262658,0,0,-1,10,411.2006263199495,None,409.15489019989036,409.4717816999182,410.1547133999411,410.47702829982154,411.1539563999977,411.46266199997626,right,1,2.235089200315997,409.2120615998283,None,None,None,,,,,,,nunamh,001,0,fr,2022-05-17_10h55.11.857,3-AFC_adaptive_staircase_mess,2022.1.1,36.37645407459936,
,,,,,3,0,3,0,2,0,2,0,,,,,,,,,,,,,,,,left,3000,10,0.00017336842522626576,-1,0,-1,-10,412.9629357198486,None,412.9356151998509,413.2630109998863,None,None,None,None,left,1,0.38513320009224117,412.96547699999064,None,None,None,,,,,,,nunamh,001,0,fr,2022-05-17_10h55.11.857,3-AFC_adaptive_staircase_mess,2022.1.1,36.37645407459936,
,,,,,3,0,3,0,3,0,3,0,,,,,,,,,,,,,,,,left,3000,10,0.00017336842522626576,-1,0,-1,-10,414.91802611991295,415.1397641999647,414.8617502998095,415.17143939994276,None,None,None,None,left,1,0.34477720013819635,414.9096573998686,None,None,None,,,,,,,nunamh,001,0,fr,2022-05-17_10h55.11.857,3-AFC_adaptive_staircase_mess,2022.1.1,36.37645407459936,
,,,,,3,0,3,0,4,0,4,0,,,,,,,,,,,,,,,,right,3000,0,5.482390980715923e-05,-1,0,-1,-10,418.80726981998885,419.02618609997444,416.75048309983686,417.0775748998858,417.7619180998299,418.0836692999583,418.7610702998936,419.0814345998224,right,1,2.4571093001868576,416.81396709987894,None,419.3103159200167,None,,,,,,,nunamh,001,0,fr,2022-05-17_10h55.11.857,3-AFC_adaptive_staircase_mess,2022.1.1,36.37645407459936,
,,,,,3,0,3,0,5,0,5,0,,,,,,,,,,,,,,,,up,3000,0,5.482390980715923e-05,-1,0,-1,-10,421.8267271199496,422.0409102998674,420.7710537998937,421.08559349994175,421.7696400999557,422.10041489987634,422.75457199988887,423.07233330002055,up,1,2.7167509000282735,420.82727719983086,None,423.3225298000034,None,,,,,,,nunamh,001,0,fr,2022-05-17_10h55.11.857,3-AFC_adaptive_staircase_mess,2022.1.1,36.37645407459936,
,,,,,3,0,3,0,6,0,6,0,,,,,,,,,,,,,,,,right,3000,-10,1.7336842522626584e-05,-1,0,-1,-10,427.08360921985,427.3037076999899,425.0226017998066,425.3387354000006,426.0472006998025,426.35544009995647,427.02472499990836,427.32968809991144,left,0,2.5595108000561595,425.07964529981837,None,427.588485899847,None,,,,,,,nunamh,001,0,fr,2022-05-17_10h55.11.857,3-AFC_adaptive_staircase_mess,2022.1.1,36.37645407459936,
,,,,,3,0,3,0,7,0,7,0,,,,,,,,,,,,,,,,right,3000,-5,3.082975009307411e-05,1,1,1,5,431.1968116198899,431.409187000012,429.1567100000102,429.4772772998549,430.1377344999928,430.45583889982663,431.12779299984686,431.43549629999325,right,1,2.461724900174886,429.185095399851,None,431.6900565200252,None,,,,,,,nunamh,001,0,fr,2022-05-17_10h55.11.857,3-AFC_adaptive_staircase_mess,2022.1.1,36.37645407459936,
,,,,,3,0,3,0,8,0,8,0,,,,,,,,,,,,,,,,up,3000,-5,3.082975009307411e-05,1,1,1,5,434.1984132199781,None,433.1296386998147,433.45500710001215,434.12912629987113,None,None,None,left,0,1.1608746000565588,433.19817769993097,None,None,None,,,,,,,nunamh,001,0,fr,2022-05-17_10h55.11.857,3-AFC_adaptive_staircase_mess,2022.1.1,36.37645407459936,
,,,,,3,0,3,0,9,0,9,0,,,,,,,,,,,,,,,,up,3000,0,5.482390980715923e-05,1,1,1,5,436.90937501981387,437.12913869996555,435.8515825998038,436.167729599867,436.85264719999395,437.15885029989295,437.8359638999682,438.1362252999097,up,1,2.4429313002619892,435.90029179980047,None,438.391521119955,None,,,,,,,nunamh,001,0,fr,2022-05-17_10h55.11.857,3-AFC_adaptive_staircase_mess,2022.1.1,36.37645407459936,
,,,,,3,0,3,0,10,0,10,0,,,,,,,,,,,,,,,,up,3000,0,5.482390980715923e-05,1,1,1,5,440.9155683198245,441.1350397998467,439.86483009997755,440.1793353999965,440.8595501999371,441.16123239998706,441.87596359988675,442.18858890002593,left,0,2.556086900178343,439.8916529000271,None,442.40699879988097,None,,,,,,,nunamh,001,0,fr,2022-05-17_10h55.11.857,3-AFC_adaptive_staircase_mess,2022.1.1,36.37645407459936,
,,,,,3,0,3,0,11,0,11,0,,,,,,,,,,,,,,,,up,3000,5,9.749222998790222e-05,1,1,1,5,444.971783119929,None,443.91210319986567,444.2313941998873,444.9444625999313,445.2444308998529,None,None,up,1,1.5321639000903815,443.9711501998827,None,None,None,,,,,,,nunamh,001,0,fr,2022-05-17_10h55.11.857,3-AFC_adaptive_staircase_mess,2022.1.1,36.37645407459936,
,,,,,3,0,3,0,12,0,12,0,,,,,,,,,,,,,,,,right,3000,5,9.749222998790222e-05,1,1,1,5,449.0499345198972,None,446.97911729989573,447.2964097999502,448.0138802998699,448.33148179994896,448.980502899969,449.30855319998227,right,1,2.3569877000991255,447.0358557999134,None,None,None,,,,,,,nunamh,001,0,fr,2022-05-17_10h55.11.857,3-AFC_adaptive_staircase_mess,2022.1.1,36.37645407459936,
,,,,,3,0,3,0,13,0,13,0,,,,,,,,,,,,,,,,left,3000,-5,3.082975009307411e-05,-1,2,-1,-5.0,450.92721221989484,451.1448685999494,450.87229769979604,451.1707212999463,451.8753874998074,452.20234989980236,452.8945908998139,453.20520959980786,up,0,2.638386000180617,450.92867339984514,None,453.4284892999567,None,,,,,,,nunamh,001,0,fr,2022-05-17_10h55.11.857,3-AFC_adaptive_staircase_mess,2022.1.1,36.37645407459936,
,,,,,3,0,3,0,14,0,14,0,,,,,,,,,,,,,,,,right,3000,-2.5,4.1112132497353565e-05,1,3,1,2.5,457.09676951982544,457.3089876999147,455.0661378998775,455.3811995999422,456.05336529994383,456.35571149992757,457.0694489998277,457.4035038999282,left,0,2.616207400104031,455.09433049988,None,457.6105192999821,None,,,,,,,nunamh,001,0,fr,2022-05-17_10h55.11.857,3-AFC_adaptive_staircase_mess,2022.1.1,36.37645407459936,
,,,,,3,0,3,0,15,0,15,0,,,,,,,,,,,,,,,,right,3000,0.0,5.482390980715923e-05,1,3,1,2.5,461.2685505198082,461.4858202999458,459.21176169998944,459.5250692998525,460.2264353998471,460.52623209985904,461.2119886998553,461.51647459995,left,0,2.488093700259924,459.27048369986005,None,461.76160579989664,None,,,,,,,nunamh,001,0,fr,2022-05-17_10h55.11.857,3-AFC_adaptive_staircase_mess,2022.1.1,36.37645407459936,
,,,,,3,0,3,0,16,0,16,0,,,,,,,,,,,,,,,,right,3000,2.5,7.310885872283589e-05,1,3,1,2.5,465.26934312002265,465.48653589980677,463.2419036999345,463.56278109992854,464.2225608997978,464.5434563998133,465.24202260002494,465.54968409985304,right,1,2.520532499998808,463.27006849995814,None,465.7954835998826,None,,,,,,,nunamh,001,0,fr,2022-05-17_10h55.11.857,3-AFC_adaptive_staircase_mess,2022.1.1,36.37645407459936,
,,,,,3,0,3,0,17,0,17,0,,,,,,,,,,,,,,,,right,3000,2.5,7.310885872283589e-05,1,3,1,2.5,469.3251766199013,469.5433229999617,467.2632587000262,467.5835476999637,468.27009229990654,468.5835633999668,469.27210539998487,469.5984823999461,right,1,2.468470900086686,467.322475399822,None,469.8246317198267,None,,,,,,,nunamh,001,0,fr,2022-05-17_10h55.11.857,3-AFC_adaptive_staircase_mess,2022.1.1,36.37645407459936,
,,,,,3,0,3,0,18,0,18,0,,,,,,,,,,,,,,,,up,3000,-2.5,4.1112132497353565e-05,-1,4,-1,-5.0,472.29968081994446,None,471.2665738998912,471.5842776999343,472.24087829981,472.5548463999294,473.2652556998655,473.5862178998068,left,0,2.7130398000590503,471.29482259997167,None,473.8222334999591,None,,,,,,,nunamh,001,0,fr,2022-05-17_10h55.11.857,3-AFC_adaptive_staircase_mess,2022.1.1,36.37645407459936,
,,,,,3,0,3,0,19,0,19,0,,,,,,,,,,,,,,,,right,3000,0.0,5.482390980715923e-05,1,5,1,2.5,477.55969761984886,477.77755709993653,475.4927953998558,475.8139539998956,476.49769559991546,476.8092397998553,477.5034844998736,477.8034235998057,up,0,2.7204017001204193,475.5418964999262,None,478.0609315999318,None,,,,,,,nunamh,001,0,fr,2022-05-17_10h55.11.857,3-AFC_adaptive_staircase_mess,2022.1.1,36.37645407459936,
,,,,,3,0,3,0,20,0,20,0,,,,,,,,,,,,,,,,left,3000,2.5,7.310885872283589e-05,1,5,1,2.5,479.7977892199764,480.0096020998899,479.77046869997866,480.0923589998856,None,None,None,None,left,1,0.7437228001654148,479.79914379981346,None,None,None,,,,,,,nunamh,001,0,fr,2022-05-17_10h55.11.857,3-AFC_adaptive_staircase_mess,2022.1.1,36.37645407459936,
,,,,,3,0,3,0,21,0,21,0,,,,,,,,,,,,,,,,left,3000,2.5,7.310885872283589e-05,1,5,1,2.5,482.0561755199218,482.27720689983107,482.0288549999241,482.3356991999317,None,None,None,None,left,1,0.49404470017179847,482.04864169983193,None,None,None,,,,,,,nunamh,001,0,fr,2022-05-17_10h55.11.857,3-AFC_adaptive_staircase_mess,2022.1.1,36.37645407459936,
,,,,,3,0,3,0,22,0,22,0,,,,,,,,,,,,,,,,up,3000,-2.5,4.1112132497353565e-05,-1,6,-1,-5.0,485.06977842000776,485.28632549988106,484.0411925998051,484.3619018997997,485.04245790001005,485.3413996999152,486.0530832000077,486.36914639989845,up,1,2.737722200108692,484.06840289989486,None,486.5776874998119,None,,,,,,,nunamh,001,0,fr,2022-05-17_10h55.11.857,3-AFC_adaptive_staircase_mess,2022.1.1,36.37645407459936,
,,,,,4,0,4,0,0,0,0,0,,,,,,,,,,,,,[],[],10,up,4000,30,0.0026544222211549416,0,0,-1,10,490.89209322000386,491.10527459997684,489.8567720998544,490.1791895998176,490.82295079994947,491.1312619999517,None,None,up,1,1.4335243001114577,489.8856361999642,None,None,None,space,1.4740928001701832,487.9090705998242,None,487.9090705998242,None,nunamh,001,0,fr,2022-05-17_10h55.11.857,3-AFC_adaptive_staircase_mess,2022.1.1,36.37645407459936,
,,,,,4,0,4,0,1,0,1,0,,,,,,,,,,,,,,,,up,4000,30,0.0026544222211549416,0,0,-1,10,493.8561792198801,494.07259300001897,492.82779729994945,493.14333629980683,493.8288586998824,None,None,None,up,1,1.2463156001176685,492.8562931998167,None,None,None,,,,,,,nunamh,001,0,fr,2022-05-17_10h55.11.857,3-AFC_adaptive_staircase_mess,2022.1.1,36.37645407459936,
,,,,,4,0,4,0,2,0,2,0,,,,,,,,,,,,,,,,up,4000,10,0.00026544222211549425,-1,0,-1,-10,496.66357961993197,496.8779266998172,495.61817749985494,495.9321657998953,496.609124599956,496.9315657999832,None,None,up,1,1.259743900038302,495.67496560001746,None,None,None,,,,,,,nunamh,001,0,fr,2022-05-17_10h55.11.857,3-AFC_adaptive_staircase_mess,2022.1.1,36.37645407459936,
,,,,,4,0,4,0,3,0,3,0,,,,,,,,,,,,,,,,up,4000,10,0.00026544222211549425,-1,0,-1,-10,499.48033951988907,499.69862039992586,498.4280113999266,498.7444916998502,499.4244337999262,499.72488039988093,None,None,up,1,1.2590558000374585,498.48384319990873,None,None,None,,,,,,,nunamh,001,0,fr,2022-05-17_10h55.11.857,3-AFC_adaptive_staircase_mess,2022.1.1,36.37645407459936,
,,,,,4,0,4,0,4,0,4,0,,,,,,,,,,,,,,,,right,4000,0,8.394020090612804e-05,-1,0,-1,-10,503.26529691994654,503.47464069980197,501.2370403998066,501.5520073999651,502.2375289998017,502.55158229987137,503.2379763999488,503.5552035998553,right,1,2.2905038001481444,501.2685736999847,None,None,None,,,,,,,nunamh,001,0,fr,2022-05-17_10h55.11.857,3-AFC_adaptive_staircase_mess,2022.1.1,36.37645407459936,
,,,,,4,0,4,0,5,0,5,0,,,,,,,,,,,,,,,,up,4000,0,8.394020090612804e-05,-1,0,-1,-10,506.11898011991286,506.3386313999072,505.06415420002304,505.3705612998456,506.0642551998608,506.36485569993965,None,None,up,1,1.5904518000315875,505.1197901000269,None,None,None,,,,,,,nunamh,001,0,fr,2022-05-17_10h55.11.857,3-AFC_adaptive_staircase_mess,2022.1.1,36.37645407459936,
,,,,,4,0,4,0,6,0,6,0,,,,,,,,,,,,,,,,left,4000,-10,2.6544222211549425e-05,-1,0,-1,-10,508.23143371983895,508.4467064999044,508.20411319984123,508.52675059996545,509.1841237999033,509.49845549999736,510.21206999989226,510.5277017999906,left,1,2.621562500251457,508.2331412998028,None,510.7594349998981,None,,,,,,,nunamh,001,0,fr,2022-05-17_10h55.11.857,3-AFC_adaptive_staircase_mess,2022.1.1,36.37645407459936,
,,,,,4,0,4,0,7,0,7,0,,,,,,,,,,,,,,,,up,4000,-10,2.6544222211549425e-05,-1,0,-1,-10,513.386111619859,513.5945466998965,512.3274108998012,512.6445194999687,513.3285075000022,513.650017599808,514.3350592998322,514.6554993998725,right,0,2.747799300123006,512.3871366998646,None,514.8840493999887,None,,,,,,,nunamh,001,0,fr,2022-05-17_10h55.11.857,3-AFC_adaptive_staircase_mess,2022.1.1,36.37645407459936,
,,,,,4,0,4,0,8,0,8,0,,,,,,,,,,,,,,,,left,4000,-5,4.720304381429618e-05,1,1,1,5,516.655619419855,516.8776322999038,516.6282988998573,516.9367513998877,None,None,None,None,left,1,0.8684221000876278,516.6579404999502,None,None,None,,,,,,,nunamh,001,0,fr,2022-05-17_10h55.11.857,3-AFC_adaptive_staircase_mess,2022.1.1,36.37645407459936,
,,,,,4,0,4,0,9,0,9,0,,,,,,,,,,,,,,,,left,4000,-5,4.720304381429618e-05,1,1,1,5,519.0436747199623,519.2527881998103,519.0163541999646,519.3350569999311,None,None,None,None,left,1,0.5612484000157565,519.045448299963,None,None,None,,,,,,,nunamh,001,0,fr,2022-05-17_10h55.11.857,3-AFC_adaptive_staircase_mess,2022.1.1,36.37645407459936,
,,,,,4,0,4,0,10,0,10,0,,,,,,,,,,,,,,,,right,4000,-15,1.4926913094589802e-05,-1,2,-1,-5.0,523.1290274199331,523.353864699835,521.0895279999822,521.4180273998063,522.0888916000258,522.418148299912,523.1017068999354,523.4119098000228,right,1,2.5952797001227736,521.1475998000242,None,523.6406574998982,None,,,,,,,nunamh,001,0,fr,2022-05-17_10h55.11.857,3-AFC_adaptive_staircase_mess,2022.1.1,36.37645407459936,
,,,,,4,0,4,0,11,0,11,0,,,,,,,,,,,,,,,,right,4000,-15,1.4926913094589802e-05,-1,2,-1,-5.0,None,None,525.2515980999451,None,None,None,None,None,right,1,-1.460511399898678,525.3076288998127,None,None,None,,,,,,,nunamh,001,0,fr,2022-05-17_10h55.11.857,3-AFC_adaptive_staircase_mess,2022.1.1,36.37645407459936,
,,,,,4,0,4,0,12,0,12,0,,,,,,,,,,,,,,,,right,4000,-20.0,8.394020090612804e-06,-1,2,-1,-5.0,528.8372026199708,529.0531812999398,526.7743263999,527.0943989998195,527.7767169999424,528.0985816998873,528.7814914998598,529.085538599873,up,0,2.6919495000038296,526.8341605998576,None,529.3452537998091,None,,,,,,,nunamh,001,0,fr,2022-05-17_10h55.11.857,3-AFC_adaptive_staircase_mess,2022.1.1,36.37645407459936,
,,,,,4,0,4,0,13,0,13,0,,,,,,,,,,,,,,,,right,4000,-17.5,1.11936056928417e-05,1,3,1,2.5,533.0589495198568,533.2752039998304,531.026825199835,531.3457223998848,532.0251474999823,532.3476585999597,533.0028067999519,533.2910988000222,right,1,2.566296000033617,531.0561520999763,None,533.5585101998877,None,,,,,,,nunamh,001,0,fr,2022-05-17_10h55.11.857,3-AFC_adaptive_staircase_mess,2022.1.1,36.37645407459936,
,,,,,4,0,4,0,14,0,14,0,,,,,,,,,,,,,,,,left,4000,-17.5,1.11936056928417e-05,1,3,1,2.5,535.1607227199478,535.3738015999552,535.1334021999501,535.4554285998456,536.1025282000192,536.4054246998858,537.1198052999098,537.4394353998359,right,0,3.491706400178373,535.1627756999806,None,537.6712220998015,None,,,,,,,nunamh,001,0,fr,2022-05-17_10h55.11.857,3-AFC_adaptive_staircase_mess,2022.1.1,36.37645407459936,
,,,,,4,0,4,0,15,0,15,0,,,,,,,,,,,,,,,,up,4000,-15.0,1.4926913094589802e-05,1,3,1,2.5,541.1805448198924,541.4052360998467,540.1538281999528,540.4711080999114,541.1532242998946,541.4640830999706,542.1256655999459,542.4455221998505,left,0,2.2537584002129734,540.1846162998118,None,None,None,,,,,,,nunamh,001,0,fr,2022-05-17_10h55.11.857,3-AFC_adaptive_staircase_mess,2022.1.1,36.37645407459936,
,,,,,4,0,4,0,16,0,16,0,,,,,,,,,,,,,,,,right,4000,-12.5,1.9905358527674868e-05,1,3,1,2.5,545.9557136199204,546.1689086998813,543.8928433998954,544.2130976999179,544.8941945999395,545.2155369999819,545.9000806999393,546.2305593998171,right,1,2.4465858000330627,543.9519737998489,None,None,None,,,,,,,nunamh,001,0,fr,2022-05-17_10h55.11.857,3-AFC_adaptive_staircase_mess,2022.1.1,36.37645407459936,
,,,,,4,0,4,0,17,0,17,0,,,,,,,,,,,,,,,,right,4000,-12.5,1.9905358527674868e-05,1,3,1,2.5,549.9126423198962,550.1211974998005,547.8641919000074,548.1931870998815,548.8766077999026,549.1980645000003,549.8853217998985,550.2031469999347,up,0,2.5373039001133293,547.9257042999379,None,550.4346165999305,None,,,,,,,nunamh,001,0,fr,2022-05-17_10h55.11.857,3-AFC_adaptive_staircase_mess,2022.1.1,36.37645407459936,
,,,,,4,0,4,0,18,0,18,0,,,,,,,,,,,,,,,,left,4000,-10.0,2.6544222211549425e-05,1,3,1,2.5,551.9826085199369,552.1912505999207,551.9273343000095,552.2456786998082,None,None,None,None,left,1,0.6710056001320481,551.9837164999917,None,None,None,,,,,,,nunamh,001,0,fr,2022-05-17_10h55.11.857,3-AFC_adaptive_staircase_mess,2022.1.1,36.37645407459936,
,,,,,4,0,4,0,19,0,19,0,,,,,,,,,,,,,,,,right,4000,-10.0,2.6544222211549425e-05,1,3,1,2.5,556.2015796198742,556.4154498998541,554.1327795998659,554.4599797998089,555.1435510998126,555.4645111998543,556.1452792999335,556.475098699797,up,0,2.6315966001711786,554.1906588999555,None,556.7086310000159,None,,,,,,,nunamh,001,0,fr,2022-05-17_10h55.11.857,3-AFC_adaptive_staircase_mess,2022.1.1,36.37645407459936,
,,,,,4,0,4,0,20,0,20,0,,,,,,,,,,,,,,,,left,4000,-7.5,3.53972892192069e-05,1,3,1,2.5,558.3677893199259,558.5820961999707,558.3102273999248,558.6127020998392,None,None,None,None,left,1,0.43633430008776486,558.3699739999138,None,None,None,,,,,,,nunamh,001,0,fr,2022-05-17_10h55.11.857,3-AFC_adaptive_staircase_mess,2022.1.1,36.37645407459936,
,,,,,4,0,4,0,21,0,21,0,,,,,,,,,,,,,,,,up,4000,-7.5,3.53972892192069e-05,1,3,1,2.5,561.3373881198698,561.5582944999915,560.2728398998734,560.5938555998728,561.2779955998994,561.5889105999377,562.276809199946,562.596070199972,up,1,2.643883400131017,560.3311844000127,None,562.8255629998166,None,,,,,,,nunamh,001,0,fr,2022-05-17_10h55.11.857,3-AFC_adaptive_staircase_mess,2022.1.1,36.37645407459936,
,,,,,4,0,4,0,22,0,22,0,,,,,,,,,,,,,,,,left,4000,-12.5,1.9905358527674868e-05,-1,4,-1,-5.0,564.5087509199278,564.7229191998485,564.4531342999544,564.7851750999689,565.4549042999279,565.7811006000265,566.4670396000147,566.7964160998818,right,0,2.7832941999658942,564.5117763997987,None,567.0255559999496,None,,,,,,,nunamh,001,0,fr,2022-05-17_10h55.11.857,3-AFC_adaptive_staircase_mess,2022.1.1,36.37645407459936,
,,,,,4,0,4,0,23,0,23,0,,,,,,,,,,,,,,,,left,4000,-10.0,2.6544222211549425e-05,1,5,1,2.5,568.8487994197989,569.064588499954,568.7928408998996,569.0952297998592,569.8072740000207,570.1239779999014,570.787641099887,571.1148887998424,left,1,2.3234842002857476,568.8516422000248,None,None,None,,,,,,,nunamh,001,0,fr,2022-05-17_10h55.11.857,3-AFC_adaptive_staircase_mess,2022.1.1,36.37645407459936,
,,,,,4,0,4,0,24,0,24,0,,,,,,,,,,,,,,,,right,4000,-10.0,2.6544222211549425e-05,1,5,1,2.5,574.7023948197951,574.9243455999531,572.6568688999396,572.9795432998799,573.6652249998879,573.9871688999701,574.6750742997974,574.9801635998301,right,1,2.4430687001440674,572.7159040998667,None,575.2093071199255,None,,,,,,,nunamh,001,0,fr,2022-05-17_10h55.11.857,3-AFC_adaptive_staircase_mess,2022.1.1,36.37645407459936,
,,,,,4,0,4,0,25,0,25,0,,,,,,,,,,,,,,,,up,4000,-15.0,1.4926913094589802e-05,-1,6,-1,-5.0,577.673648219998,577.8961151998956,576.6296013998799,576.9592652998399,577.6463277000003,577.9505407998804,578.6343568000011,578.9612551999744,left,0,2.4984919000416994,576.6922420999035,None,579.1908884998411,None,,,,,,,nunamh,001,0,fr,2022-05-17_10h55.11.857,3-AFC_adaptive_staircase_mess,2022.1.1,36.37645407459936,
,,,,,5,0,5,0,0,0,0,0,,,,,,,,,,,,,[],[],10,left,6000,30,0.003664122665694519,0,0,-1,10,581.9284852198092,582.1429967998993,581.9011646998115,582.2011845000088,None,None,None,None,left,1,0.4903712999075651,581.9324602999259,None,None,None,space,1.1857806001789868,580.2446420998313,None,580.2446420998313,None,nunamh,001,0,fr,2022-05-17_10h55.11.857,3-AFC_adaptive_staircase_mess,2022.1.1,36.37645407459936,
,,,,,5,0,5,0,1,0,1,0,,,,,,,,,,,,,,,,right,6000,30,0.003664122665694519,0,0,-1,10,585.9751265200088,586.1932064997964,583.9179846998304,584.2395043999422,584.9150298999157,585.2310976998415,585.918883399805,586.2200996999163,right,1,2.25654560001567,583.974480799865,None,None,None,,,,,,,nunamh,001,0,fr,2022-05-17_10h55.11.857,3-AFC_adaptive_staircase_mess,2022.1.1,36.37645407459936,
,,,,,5,0,5,0,2,0,2,0,,,,,,,,,,,,,,,,left,6000,10,0.00036641226656945183,-1,0,-1,-10,587.768497819989,None,587.7136059999466,588.0212385000195,None,None,None,None,left,1,0.3139950002077967,587.7729372999165,None,None,None,,,,,,,nunamh,001,0,fr,2022-05-17_10h55.11.857,3-AFC_adaptive_staircase_mess,2022.1.1,36.37645407459936,
,,,,,5,0,5,0,3,0,3,0,,,,,,,,,,,,,,,,right,6000,10,0.00036641226656945183,-1,0,-1,-10,591.6351173198549,None,589.5808079999406,589.9056853000075,590.5716442000121,590.8956455998123,591.5761338998564,None,right,1,2.205011200159788,589.6092202998698,None,None,None,,,,,,,nunamh,001,0,fr,2022-05-17_10h55.11.857,3-AFC_adaptive_staircase_mess,2022.1.1,36.37645407459936,
,,,,,5,0,5,0,4,0,4,0,,,,,,,,,,,,,,,,up,6000,0,0.00011586973249842387,-1,0,-1,-10,None,None,593.3170373998582,593.6394470999949,None,None,None,None,left,0,0.3086814000271261,593.3454062999226,None,None,None,,,,,,,nunamh,001,0,fr,2022-05-17_10h55.11.857,3-AFC_adaptive_staircase_mess,2022.1.1,36.37645407459936,
,,,,,5,0,5,0,5,0,5,0,,,,,,,,,,,,,,,,up,6000,5,0.000206048759548665,1,1,1,5,None,None,595.1485357999336,595.4764297998045,None,None,None,None,left,0,0.3067690001334995,595.179680599831,None,None,None,,,,,,,nunamh,001,0,fr,2022-05-17_10h55.11.857,3-AFC_adaptive_staircase_mess,2022.1.1,36.37645407459936,
,,,,,5,0,5,0,6,0,6,0,,,,,,,,,,,,,,,,up,6000,10,0.00036641226656945183,1,1,1,5,598.0327808200149,598.2511570998468,596.9617274999619,597.2890428998508,597.9744739998132,598.2772515998222,None,None,up,1,1.64508070028387,597.0180221998598,None,None,None,,,,,,,nunamh,001,0,fr,2022-05-17_10h55.11.857,3-AFC_adaptive_staircase_mess,2022.1.1,36.37645407459936,
,,,,,5,0,5,0,7,0,7,0,,,,,,,,,,,,,,,,up,6000,10,0.00036641226656945183,1,1,1,5,601.2138520199572,None,600.1404347999487,600.4675097998697,601.1553269999567,601.4640012998134,None,None,up,1,1.241437700111419,600.1971815999132,None,None,None,,,,,,,nunamh,001,0,fr,2022-05-17_10h55.11.857,3-AFC_adaptive_staircase_mess,2022.1.1,36.37645407459936,
,,,,,5,0,5,0,8,0,8,0,,,,,,,,,,,,,,,,right,6000,0,0.00011586973249842387,-1,2,-1,-5.0,604.982215019851,605.202295599971,602.9236620999873,603.2521640998311,603.9386271999683,604.2628106998745,604.9234724999405,None,right,1,2.213583000237122,602.9854899998754,None,None,None,,,,,,,nunamh,001,0,fr,2022-05-17_10h55.11.857,3-AFC_adaptive_staircase_mess,2022.1.1,36.37645407459936,
,,,,,5,0,5,0,9,0,9,0,,,,,,,,,,,,,,,,left,6000,0,0.00011586973249842387,-1,2,-1,-5.0,606.7411062197992,606.9585176999681,606.6857234998606,606.9848884998355,None,None,None,None,left,1,0.44045080011710525,606.7423512998503,None,None,None,,,,,,,nunamh,001,0,fr,2022-05-17_10h55.11.857,3-AFC_adaptive_staircase_mess,2022.1.1,36.37645407459936,
,,,,,5,0,5,0,10,0,10,0,,,,,,,,,,,,,,,,right,6000,-5.0,6.515833892261494e-05,-1,2,-1,-5.0,610.7001530199544,610.9173520999029,608.6422717999667,608.9610648998059,609.6510216998868,609.954124599928,610.6440788998734,610.9462576999795,right,1,2.251125100068748,608.6994443999138,None,None,None,,,,,,,nunamh,001,0,fr,2022-05-17_10h55.11.857,3-AFC_adaptive_staircase_mess,2022.1.1,36.37645407459936,
,,,,,5,0,5,0,11,0,11,0,,,,,,,,,,,,,,,,up,6000,-5.0,6.515833892261494e-05,-1,2,-1,-5.0,613.4900996198179,613.7106712998357,612.4477073999587,612.7663920000196,613.4627790998202,613.7711734999903,None,None,up,1,1.2945765000768006,612.5044575999491,None,None,None,,,,,,,nunamh,001,0,fr,2022-05-17_10h55.11.857,3-AFC_adaptive_staircase_mess,2022.1.1,36.37645407459936,
,,,,,5,0,5,0,12,0,12,0,,,,,,,,,,,,,,,,left,6000,-10.0,3.664122665694518e-05,-1,2,-1,-5.0,615.3041911199456,None,615.2768705999479,615.589223699877,None,None,None,None,left,1,0.4377357002813369,615.3045082997996,None,None,None,,,,,,,nunamh,001,0,fr,2022-05-17_10h55.11.857,3-AFC_adaptive_staircase_mess,2022.1.1,36.37645407459936,
,,,,,5,0,5,0,13,0,13,0,,,,,,,,,,,,,,,,up,6000,-10.0,3.664122665694518e-05,-1,2,-1,-5.0,618.2804231198737,None,617.2507040000055,617.5773111998569,618.253102599876,618.5561785998289,None,None,up,1,1.3006437001749873,617.281930499943,None,None,None,,,,,,,nunamh,001,0,fr,2022-05-17_10h55.11.857,3-AFC_adaptive_staircase_mess,2022.1.1,36.37645407459936,
,,,,,5,0,5,0,14,0,14,0,,,,,,,,,,,,,,,,right,6000,-15.0,2.0604875954866497e-05,-1,2,-1,-5.0,622.1186552198836,None,620.0546947999392,620.3713856998365,621.0665157998446,621.3901167998556,622.0625818998087,None,right,1,2.2079904000274837,620.1103242998943,None,None,None,,,,,,,nunamh,001,0,fr,2022-05-17_10h55.11.857,3-AFC_adaptive_staircase_mess,2022.1.1,36.37645407459936,
,,,,,5,0,5,0,15,0,15,0,,,,,,,,,,,,,,,,right,6000,-15.0,2.0604875954866497e-05,-1,2,-1,-5.0,None,None,623.7791158999316,624.1077048999723,None,None,None,None,left,0,0.2545679002068937,623.8402205999009,None,None,None,,,,,,,nunamh,001,0,fr,2022-05-17_10h55.11.857,3-AFC_adaptive_staircase_mess,2022.1.1,36.37645407459936,
,,,,,5,0,5,0,16,0,16,0,,,,,,,,,,,,,,,,up,6000,-12.5,2.7477043692881217e-05,1,3,1,2.5,626.6400110199814,626.8576386999339,625.6002715998329,625.9166808999144,626.5839865999296,626.8852367999498,None,None,up,1,1.420248300069943,625.6264545000158,None,None,None,,,,,,,nunamh,001,0,fr,2022-05-17_10h55.11.857,3-AFC_adaptive_staircase_mess,2022.1.1,36.37645407459936,
,,,,,5,0,5,0,17,0,17,0,,,,,,,,,,,,,,,,right,6000,-12.5,2.7477043692881217e-05,1,3,1,2.5,630.6125242199981,None,628.5656766998582,628.8873351998627,629.5496886000037,629.8500875998288,630.5530556999147,None,right,1,2.221391500206664,628.5932076999452,None,None,None,,,,,,,nunamh,001,0,fr,2022-05-17_10h55.11.857,3-AFC_adaptive_staircase_mess,2022.1.1,36.37645407459936,
,,,,,5,0,5,0,18,0,18,0,,,,,,,,,,,,,,,,right,6000,-17.5,1.5451477162567947e-05,-1,4,-1,-5.0,634.3527337198378,634.5718650999479,632.3126026999671,632.6414397999179,633.3151532998309,633.636702499818,634.2972310998011,634.5977246998809,right,1,2.437953800195828,632.3690417998005,None,634.8521337199257,None,,,,,,,nunamh,001,0,fr,2022-05-17_10h55.11.857,3-AFC_adaptive_staircase_mess,2022.1.1,36.37645407459936,
,,,,,5,0,5,0,19,0,19,0,,,,,,,,,,,,,,,,left,6000,-17.5,1.5451477162567947e-05,-1,4,-1,-5.0,636.353919720021,None,636.2991330998484,636.6038401999976,637.3131111999974,637.6289415999781,638.292965499917,638.6215666998178,left,1,2.5128451001364738,636.3578672998119,None,638.8547847999725,None,,,,,,,nunamh,001,0,fr,2022-05-17_10h55.11.857,3-AFC_adaptive_staircase_mess,2022.1.1,36.37645407459936,
,,,,,5,0,5,0,20,0,20,0,,,,,,,,,,,,,,,,right,6000,-22.5,8.689004143746873e-06,-1,4,-1,-5.0,642.3929960198933,None,640.3488741000183,640.6770813998301,641.3526832999196,641.6562955998816,642.3656754998956,642.6701658000238,left,0,2.780924200313166,640.4030618998222,None,642.9023909999523,None,,,,,,,nunamh,001,0,fr,2022-05-17_10h55.11.857,3-AFC_adaptive_staircase_mess,2022.1.1,36.37645407459936,
,,,,,5,0,5,0,21,0,21,0,,,,,,,,,,,,,,,,right,6000,-20.0,1.1586973249842387e-05,1,5,1,2.5,646.7153835198609,None,644.6541492999531,644.9551126998849,645.6628500998486,645.9909605998546,646.6566315998789,646.9749938999303,up,0,2.4104716000147164,644.7082312998828,None,None,None,,,,,,,nunamh,001,0,fr,2022-05-17_10h55.11.857,3-AFC_adaptive_staircase_mess,2022.1.1,36.37645407459936,
,,,,,5,0,5,0,22,0,22,0,,,,,,,,,,,,,,,,left,6000,-17.5,1.5451477162567947e-05,1,5,1,2.5,648.663396419934,648.8786947999615,648.6047369998414,648.9103424998466,649.6111345000099,649.912341499934,650.5955680999905,650.9107476000208,right,0,2.260074800113216,648.6660336998757,None,None,None,,,,,,,nunamh,001,0,fr,2022-05-17_10h55.11.857,3-AFC_adaptive_staircase_mess,2022.1.1,36.37645407459936,
,,,,,5,0,5,0,23,0,23,0,,,,,,,,,,,,,,,,up,6000,-15.0,2.0604875954866497e-05,1,5,1,2.5,653.4607652199687,653.68387790001,652.4089847998694,652.736311199842,653.4048164000269,653.7166618998162,None,None,up,1,1.655193000100553,652.4711873999331,None,None,None,,,,,,,nunamh,001,0,fr,2022-05-17_10h55.11.857,3-AFC_adaptive_staircase_mess,2022.1.1,36.37645407459936,
,,,,,5,0,5,0,24,0,24,0,,,,,,,,,,,,,,,,right,6000,-15.0,2.0604875954866497e-05,1,5,1,2.5,657.6656508198706,657.889247899875,655.6225713999011,655.9445270998403,656.6117181999143,656.9367205000017,657.6069029998034,657.9171157998499,right,1,2.3870823001489043,655.6513539999723,None,None,None,,,,,,,nunamh,001,0,fr,2022-05-17_10h55.11.857,3-AFC_adaptive_staircase_mess,2022.1.1,36.37645407459936,
,,,,,5,0,5,0,25,0,25,0,,,,,,,,,,,,,,,,left,6000,-20.0,1.1586973249842387e-05,-1,6,-1,-5.0,659.5805647198343,659.799040599959,659.5259208998177,659.825301299803,660.542632299941,660.8662344999611,661.5388056000229,661.8645371999592,up,0,2.6084971001837403,659.5817964000162,None,662.0899904998951,None,,,,,,,nunamh,001,0,fr,2022-05-17_10h55.11.857,3-AFC_adaptive_staircase_mess,2022.1.1,36.37645407459936,
,,,,,6,0,6,0,0,0,0,0,,,,,,,,,,,,,[],[],10,right,8000,30,0.005740768107484416,0,0,-1,10,666.8173738198587,667.0349222999066,664.7837542998604,665.1048551998101,665.7716545998119,666.0919420998544,666.758403299842,667.0658881999552,right,1,2.403443100163713,664.81292629987,None,None,None,space,1.0172359999269247,663.2860222000163,None,663.2860222000163,None,nunamh,001,0,fr,2022-05-17_10h55.11.857,3-AFC_adaptive_staircase_mess,2022.1.1,36.37645407459936,
,,,,,6,0,6,0,1,0,1,0,,,,,,,,,,,,,,,,left,8000,30,0.005740768107484416,0,0,-1,10,668.7467610200168,668.9653905997984,668.6867620998528,668.993400799809,None,None,None,None,left,1,0.2431648001074791,668.7471727000084,None,None,None,,,,,,,nunamh,001,0,fr,2022-05-17_10h55.11.857,3-AFC_adaptive_staircase_mess,2022.1.1,36.37645407459936,
,,,,,6,0,6,0,2,0,2,0,,,,,,,,,,,,,,,,up,8000,10,0.0005740768107484417,-1,0,-1,-10,671.4945632198127,671.7073597998824,670.467347299913,670.7925304998644,671.467242699815,None,None,None,up,1,1.2542358001228422,670.4963316000067,None,None,None,,,,,,,nunamh,001,0,fr,2022-05-17_10h55.11.857,3-AFC_adaptive_staircase_mess,2022.1.1,36.37645407459936,
,,,,,6,0,6,0,3,0,3,0,,,,,,,,,,,,,,,,up,8000,10,0.0005740768107484417,-1,0,-1,-10,674.2921847200254,674.5142514999025,673.2202532999218,673.5382697000168,674.2327663998585,674.5409037999343,None,None,up,1,1.2429834001231939,673.2761228999589,None,None,None,,,,,,,nunamh,001,0,fr,2022-05-17_10h55.11.857,3-AFC_adaptive_staircase_mess,2022.1.1,36.37645407459936,
,,,,,6,0,6,0,4,0,4,0,,,,,,,,,,,,,,,,up,8000,0,0.0001815390273850507,-1,0,-1,-10,677.0450791199459,677.2553679000121,675.998936199816,676.3231785998214,677.0177585999481,677.3372724999208,None,None,up,1,1.2850141001399606,676.0581807999406,None,None,None,,,,,,,nunamh,001,0,fr,2022-05-17_10h55.11.857,3-AFC_adaptive_staircase_mess,2022.1.1,36.37645407459936,
,,,,,6,0,6,0,5,0,5,0,,,,,,,,,,,,,,,,right,8000,0,0.0001815390273850507,-1,0,-1,-10,680.8970212198095,None,678.8376886998303,679.1615098998882,679.8451649998315,680.1513139000162,680.8383935999591,None,right,1,2.141257500043139,678.8986046998762,None,None,None,,,,,,,nunamh,001,0,fr,2022-05-17_10h55.11.857,3-AFC_adaptive_staircase_mess,2022.1.1,36.37645407459936,
,,,,,6,0,6,0,6,0,6,0,,,,,,,,,,,,,,,,left,8000,-10,5.740768107484415e-05,-1,0,-1,-10,682.5677770199021,682.7789377998561,682.5112461999524,682.8409162999596,683.5189105998725,683.8391594998538,684.5195734999143,None,right,0,2.134195800172165,682.5686303998809,None,None,None,,,,,,,nunamh,001,0,fr,2022-05-17_10h55.11.857,3-AFC_adaptive_staircase_mess,2022.1.1,36.37645407459936,
,,,,,6,0,6,0,7,0,7,0,,,,,,,,,,,,,,,,right,8000,-5,0.00010208689723347648,1,1,1,5,None,None,686.1754780998453,686.4952357998118,687.1806890999433,687.4857109999284,None,None,up,0,1.2550526999402791,686.2322876998223,None,None,None,,,,,,,nunamh,001,0,fr,2022-05-17_10h55.11.857,3-AFC_adaptive_staircase_mess,2022.1.1,36.37645407459936,
,,,,,6,0,6,0,8,0,8,0,,,,,,,,,,,,,,,,left,8000,0,0.0001815390273850507,1,1,1,5,689.0521948199952,None,688.988276500022,689.3173456999939,690.0038178998511,None,None,None,left,1,1.0062997001223266,689.0566012000199,None,None,None,,,,,,,nunamh,001,0,fr,2022-05-17_10h55.11.857,3-AFC_adaptive_staircase_mess,2022.1.1,36.37645407459936,
,,,,,6,0,6,0,9,0,9,0,,,,,,,,,,,,,,,,right,8000,0,0.0001815390273850507,1,1,1,5,693.5779528198531,693.7911765999161,691.5492696999572,691.8567532999441,692.5384196999948,692.8632763000205,693.5506322998554,693.8537998998072,right,1,2.2779772002249956,691.5774556000251,None,None,None,,,,,,,nunamh,001,0,fr,2022-05-17_10h55.11.857,3-AFC_adaptive_staircase_mess,2022.1.1,36.37645407459936,
,,,,,6,0,6,0,10,0,10,0,,,,,,,,,,,,,,,,right,8000,-10,5.740768107484415e-05,-1,2,-1,-5.0,697.4270454200217,697.6442543999292,695.3518232998904,695.6619348998647,696.3594992000144,696.6829188999254,697.3686154999305,697.6705827999394,right,1,2.486537199933082,695.4078257998917,None,697.9246526199626,None,,,,,,,nunamh,001,0,fr,2022-05-17_10h55.11.857,3-AFC_adaptive_staircase_mess,2022.1.1,36.37645407459936,
,,,,,6,0,6,0,11,0,11,0,,,,,,,,,,,,,,,,up,8000,-10,5.740768107484415e-05,-1,2,-1,-5.0,700.4294344198191,None,699.3572570998222,699.6776117999107,700.3693805998191,700.698579199845,701.3589812000282,701.6661171999294,up,1,2.492617700016126,699.4187828998547,None,701.9373651000205,None,,,,,,,nunamh,001,0,fr,2022-05-17_10h55.11.857,3-AFC_adaptive_staircase_mess,2022.1.1,36.37645407459936,
,,,,,6,0,6,0,12,0,12,0,,,,,,,,,,,,,,,,right,8000,-15.0,3.228271145173278e-05,-1,2,-1,-5.0,705.44679371987,None,703.397073399974,703.7140550999902,704.4046889999881,704.7188064998481,705.4194731998723,None,left,0,2.092725400114432,703.4509542998858,None,None,None,,,,,,,nunamh,001,0,fr,2022-05-17_10h55.11.857,3-AFC_adaptive_staircase_mess,2022.1.1,36.37645407459936,
,,,,,6,0,6,0,13,0,13,0,,,,,,,,,,,,,,,,up,8000,-12.5,4.304968760923004e-05,1,3,1,2.5,708.0962481198134,708.3102302998304,707.0644708999898,707.3729506998789,708.0689275998157,708.3919295999222,None,None,up,1,1.5770968000870198,707.0936202998273,None,None,None,,,,,,,nunamh,001,0,fr,2022-05-17_10h55.11.857,3-AFC_adaptive_staircase_mess,2022.1.1,36.37645407459936,
,,,,,6,0,6,0,14,0,14,0,,,,,,,,,,,,,,,,left,8000,-12.5,4.304968760923004e-05,1,3,1,2.5,710.1790595198748,None,710.1517389998771,710.4675573999994,711.1412645999808,711.4418997999746,712.1286853000056,712.4478174999822,right,0,2.2600563000887632,710.1707303000148,None,None,None,,,,,,,nunamh,001,0,fr,2022-05-17_10h55.11.857,3-AFC_adaptive_staircase_mess,2022.1.1,36.37645407459936,
,,,,,6,0,6,0,15,0,15,0,,,,,,,,,,,,,,,,up,8000,-10.0,5.740768107484415e-05,1,3,1,2.5,714.9631096198922,715.1792945999186,713.9037477998063,714.213444699999,714.9100905000232,715.2320945998654,715.9115831998643,716.2304328000173,up,1,2.6453979001380503,713.9616089998744,None,716.4611013999674,None,,,,,,,nunamh,001,0,fr,2022-05-17_10h55.11.857,3-AFC_adaptive_staircase_mess,2022.1.1,36.37645407459936,
,,,,,6,0,6,0,16,0,16,0,,,,,,,,,,,,,,,,up,8000,-10.0,5.740768107484415e-05,1,3,1,2.5,719.1284871198935,719.3445845998358,718.0940525999758,718.4131234998349,719.0728438999504,719.3705504999962,None,None,up,1,1.5644531000871211,718.1136415000074,None,None,None,,,,,,,nunamh,001,0,fr,2022-05-17_10h55.11.857,3-AFC_adaptive_staircase_mess,2022.1.1,36.37645407459936,
,,,,,6,0,6,0,17,0,17,0,,,,,,,,,,,,,,,,left,8000,-15.0,3.228271145173278e-05,-1,4,-1,-5.0,721.2189177199965,None,721.1493110998999,721.4518583000172,722.1524314999115,722.4540622998029,723.1385406998452,723.4612639998086,up,0,2.396113800117746,721.2187667000107,None,None,None,,,,,,,nunamh,001,0,fr,2022-05-17_10h55.11.857,3-AFC_adaptive_staircase_mess,2022.1.1,36.37645407459936,
,,,,,6,0,6,0,18,0,18,0,,,,,,,,,,,,,,,,up,8000,-12.5,4.304968760923004e-05,1,5,1,2.5,726.1500310199102,726.3587362999097,725.1127910998184,725.4222616998013,726.0901823998429,726.4113487999421,727.0902852998115,727.3948386998381,right,0,2.4413713000249118,725.1412461998407,None,None,None,,,,,,,nunamh,001,0,fr,2022-05-17_10h55.11.857,3-AFC_adaptive_staircase_mess,2022.1.1,36.37645407459936,
,,,,,6,0,6,0,19,0,19,0,,,,,,,,,,,,,,,,right,8000,-10.0,5.740768107484415e-05,1,5,1,2.5,731.129701819946,None,729.0862916999031,729.3945863000117,730.0832688999362,730.4111889000051,731.0608357999008,731.3630337999202,left,0,2.2843174000736326,729.114790200023,None,None,None,,,,,,,nunamh,001,0,fr,2022-05-17_10h55.11.857,3-AFC_adaptive_staircase_mess,2022.1.1,36.37645407459936,
,,,,,6,0,6,0,20,0,20,0,,,,,,,,,,,,,,,,left,8000,-7.5,7.655437308410152e-05,1,5,1,2.5,732.9483388198772,733.1597021999769,732.8917311998084,733.2151357999537,733.9055746998638,734.2253707000054,734.9048144000117,None,up,0,2.2343534999527037,732.9481308998074,None,None,None,,,,,,,nunamh,001,0,fr,2022-05-17_10h55.11.857,3-AFC_adaptive_staircase_mess,2022.1.1,36.37645407459936,
,,,,,6,0,6,0,21,0,21,0,,,,,,,,,,,,,,,,right,8000,-5.0,0.00010208689723347648,1,5,1,2.5,738.7303809199715,738.9448325999547,736.6915305999573,736.9978429998737,737.6922980998643,737.9997185999528,738.6715559000149,738.9699895998929,right,1,2.246019800193608,736.7204387998208,None,None,None,,,,,,,nunamh,001,0,fr,2022-05-17_10h55.11.857,3-AFC_adaptive_staircase_mess,2022.1.1,36.37645407459936,
,,,,,6,0,6,0,22,0,22,0,,,,,,,,,,,,,,,,left,8000,-5.0,0.00010208689723347648,1,5,1,2.5,740.4830328200245,740.7007647999562,740.4285126000177,740.7271476997994,741.4392657999415,741.7541592000052,742.4353061998263,742.7422813999001,right,0,2.322046800283715,740.4843980998266,None,None,None,,,,,,,nunamh,001,0,fr,2022-05-17_10h55.11.857,3-AFC_adaptive_staircase_mess,2022.1.1,36.37645407459936,
,,,,,6,0,6,0,23,0,23,0,,,,,,,,,,,,,,,,left,8000,-2.5,0.00013613506540389563,1,5,1,2.5,744.3515710199484,744.5697333998978,744.290902899811,744.6001275000162,None,None,None,None,left,1,0.41215849993750453,744.3540894999169,None,None,None,,,,,,,nunamh,001,0,fr,2022-05-17_10h55.11.857,3-AFC_adaptive_staircase_mess,2022.1.1,36.37645407459936,
,,,,,6,0,6,0,24,0,24,0,,,,,,,,,,,,,,,,left,8000,-2.5,0.00013613506540389563,1,5,1,2.5,746.2920359198237,746.5073675999884,746.2358301999047,746.5620563998818,None,None,None,None,left,1,0.32938210014253855,746.2927461999934,None,None,None,,,,,,,nunamh,001,0,fr,2022-05-17_10h55.11.857,3-AFC_adaptive_staircase_mess,2022.1.1,36.37645407459936,
,,,,,6,0,6,0,25,0,25,0,,,,,,,,,,,,,,,,up,8000,-7.5,7.655437308410152e-05,-1,6,-1,-5.0,749.1586525200167,749.3793120998889,748.0936398999766,748.3960906998254,749.0968347999733,749.409746499965,750.1327762999572,750.465510699898,up,1,2.3385604000650346,748.1883476998191,None,None,None,,,,,,,nunamh,001,0,fr,2022-05-17_10h55.11.857,3-AFC_adaptive_staircase_mess,2022.1.1,36.37645407459936,
,,,,,7,0,7,0,0,0,0,0,,,,,,,,,,,,,[],[],10,right,750,30,0.0012851978913844323,0,0,-1,10,755.4048306199023,755.6171959999483,753.3420138999354,753.6488388997968,754.3525429000147,754.6652978998609,755.3492658999749,None,right,1,2.2069334001280367,753.3990691998042,None,None,None,space,1.2983802000526339,751.5876543999184,None,751.5876543999184,None,nunamh,001,0,fr,2022-05-17_10h55.11.857,3-AFC_adaptive_staircase_mess,2022.1.1,36.37645407459936,
,,,,,7,0,7,0,1,0,1,0,,,,,,,,,,,,,,,,left,750,30,0.0012851978913844323,0,0,-1,10,757.1154827198246,None,757.0690456999,757.3757569999434,None,None,None,None,left,1,0.3089212002232671,757.1302535999566,None,None,None,,,,,,,nunamh,001,0,fr,2022-05-17_10h55.11.857,3-AFC_adaptive_staircase_mess,2022.1.1,36.37645407459936,
,,,,,7,0,7,0,2,0,2,0,,,,,,,,,,,,,,,,up,750,10,0.00012851978913844324,-1,0,-1,-10,759.9927291199332,760.20546499989,758.9319920998532,759.2484773998149,759.9237259000074,760.23214979982,None,None,up,1,1.5151207002345473,758.9879608999472,None,None,None,,,,,,,nunamh,001,0,fr,2022-05-17_10h55.11.857,3-AFC_adaptive_staircase_mess,2022.1.1,36.37645407459936,
,,,,,7,0,7,0,3,0,3,0,,,,,,,,,,,,,,,,right,750,10,0.00012851978913844324,-1,0,-1,-10,764.0557749198982,None,762.003964799922,762.3081724999938,763.0206033999566,763.3267347998917,763.9974807999097,None,right,1,2.0597726001869887,762.0663948999718,None,None,None,,,,,,,nunamh,001,0,fr,2022-05-17_10h55.11.857,3-AFC_adaptive_staircase_mess,2022.1.1,36.37645407459936,
,,,,,7,0,7,0,4,0,4,0,,,,,,,,,,,,,,,,right,750,0,4.064152580820497e-05,-1,0,-1,-10,767.6845262199407,767.8961402999703,765.6318922999781,765.9469941998832,766.6565077998675,766.971523599932,767.657205699943,None,right,1,2.221028200117871,765.6897489000112,None,None,None,,,,,,,nunamh,001,0,fr,2022-05-17_10h55.11.857,3-AFC_adaptive_staircase_mess,2022.1.1,36.37645407459936,
,,,,,7,0,7,0,5,0,5,0,,,,,,,,,,,,,,,,left,750,0,4.064152580820497e-05,-1,0,-1,-10,769.4250587199116,None,769.3688448998146,769.6746765999123,None,None,None,None,left,1,0.6843681000173092,769.4262188000139,None,None,None,,,,,,,nunamh,001,0,fr,2022-05-17_10h55.11.857,3-AFC_adaptive_staircase_mess,2022.1.1,36.37645407459936,
,,,,,7,0,7,0,6,0,6,0,,,,,,,,,,,,,,,,up,750,-10,1.2851978913844322e-05,-1,0,-1,-10,None,None,771.5988926999271,771.9169554000255,None,None,None,None,left,0,0.34641580004245043,771.6278169997968,None,None,None,,,,,,,nunamh,001,0,fr,2022-05-17_10h55.11.857,3-AFC_adaptive_staircase_mess,2022.1.1,36.37645407459936,
,,,,,7,0,7,0,7,0,7,0,,,,,,,,,,,,,,,,left,750,-5,2.285440948074376e-05,1,1,1,5,773.4814468198223,773.6993296998553,773.4255581998732,773.7299077999778,None,None,None,None,up,0,0.873040100093931,773.4855208999943,None,None,None,,,,,,,nunamh,001,0,fr,2022-05-17_10h55.11.857,3-AFC_adaptive_staircase_mess,2022.1.1,36.37645407459936,
,,,,,7,0,7,0,8,0,8,0,,,,,,,,,,,,,,,,left,750,0,4.064152580820497e-05,1,1,1,5,775.8826253199717,776.1053325999528,775.855304799974,776.1649876998272,None,None,None,None,left,1,0.6436540998984128,775.8747173999436,None,None,None,,,,,,,nunamh,001,0,fr,2022-05-17_10h55.11.857,3-AFC_adaptive_staircase_mess,2022.1.1,36.37645407459936,
,,,,,7,0,7,0,9,0,9,0,,,,,,,,,,,,,,,,right,750,0,4.064152580820497e-05,1,1,1,5,780.0776833200129,None,778.0237940999214,778.3353527998552,779.0322167000268,779.3570975998882,780.0162829998881,780.3461945999879,right,1,2.387628700118512,778.0428647999652,None,None,None,,,,,,,nunamh,001,0,fr,2022-05-17_10h55.11.857,3-AFC_adaptive_staircase_mess,2022.1.1,36.37645407459936,
,,,,,7,0,7,0,10,0,10,0,,,,,,,,,,,,,,,,right,750,-10,1.2851978913844322e-05,-1,2,-1,-5.0,783.9620625199517,784.1906822000165,781.9107576999813,782.2273508999497,782.9070890999865,783.2350645000115,783.901660699863,784.2184133999981,right,1,2.266785900108516,781.9717571998481,None,None,None,,,,,,,nunamh,001,0,fr,2022-05-17_10h55.11.857,3-AFC_adaptive_staircase_mess,2022.1.1,36.37645407459936,
,,,,,7,0,7,0,11,0,11,0,,,,,,,,,,,,,,,,right,750,-10,1.2851978913844322e-05,-1,2,-1,-5.0,None,None,785.71058669989,786.039773499826,None,None,None,None,left,0,0.2579787999857217,785.7722839999478,None,None,None,,,,,,,nunamh,001,0,fr,2022-05-17_10h55.11.857,3-AFC_adaptive_staircase_mess,2022.1.1,36.37645407459936,
,,,,,7,0,7,0,12,0,12,0,,,,,,,,,,,,,,,,up,750,-7.5,1.7138389327322525e-05,1,3,1,2.5,788.5680496198823,788.7871186998673,787.5423936999869,787.8766027998645,788.5407290998846,788.8487877999432,789.5422829999588,789.8764345999807,up,1,2.5652841001283377,787.5773014000151,None,790.0784173000138,None,,,,,,,nunamh,001,0,fr,2022-05-17_10h55.11.857,3-AFC_adaptive_staircase_mess,2022.1.1,36.37645407459936,
,,,,,7,0,7,0,13,0,13,0,,,,,,,,,,,,,,,,right,750,-7.5,1.7138389327322525e-05,1,3,1,2.5,793.6750797198387,None,791.6291890998837,791.9430018998682,792.6484103000257,792.9832399999723,793.6128664999269,793.9472496998496,up,0,2.9084320003166795,791.6902584999334,None,794.1828609998338,None,,,,,,,nunamh,001,0,fr,2022-05-17_10h55.11.857,3-AFC_adaptive_staircase_mess,2022.1.1,36.37645407459936,
,,,,,7,0,7,0,14,0,14,0,,,,,,,,,,,,,,,,right,750,-5.0,2.285440948074376e-05,1,3,1,2.5,798.1628832199843,None,796.1120942998677,796.4493680999149,797.1179131998215,797.4491824998986,798.1018052999862,None,left,0,2.212011800147593,796.1459488999099,None,None,None,,,,,,,nunamh,001,0,fr,2022-05-17_10h55.11.857,3-AFC_adaptive_staircase_mess,2022.1.1,36.37645407459936,
,,,,,7,0,7,0,15,0,15,0,,,,,,,,,,,,,,,,right,750,-2.5,3.0476844862008466e-05,1,3,1,2.5,801.8889905200107,None,799.852705599973,800.1899550999515,800.8515065999236,801.1888728998601,801.861670000013,None,right,1,1.9888875000178814,799.9213631998282,None,None,None,,,,,,,nunamh,001,0,fr,2022-05-17_10h55.11.857,3-AFC_adaptive_staircase_mess,2022.1.1,36.37645407459936,
,,,,,7,0,7,0,16,0,16,0,,,,,,,,,,,,,,,,right,750,-2.5,3.0476844862008466e-05,1,3,1,2.5,805.4544228198705,None,803.3936850999016,803.7223700999748,804.425555099966,804.7587648998015,805.391772700008,None,left,0,2.0565751001704484,803.4542688999791,None,None,None,,,,,,,nunamh,001,0,fr,2022-05-17_10h55.11.857,3-AFC_adaptive_staircase_mess,2022.1.1,36.37645407459936,
,,,,,7,0,7,0,17,0,17,0,,,,,,,,,,,,,,,,up,750,0.0,4.064152580820497e-05,1,3,1,2.5,808.0877423200058,808.31323469989,807.0295074998867,807.3644675998949,808.028810299933,808.3312964998186,809.0310179998633,None,right,0,1.9928760002367198,807.0936341998167,None,None,None,,,,,,,nunamh,001,0,fr,2022-05-17_10h55.11.857,3-AFC_adaptive_staircase_mess,2022.1.1,36.37645407459936,
,,,,,7,0,7,0,18,0,18,0,,,,,,,,,,,,,,,,left,750,2.5,5.419634570106019e-05,1,3,1,2.5,810.6257925198646,810.8382093999535,810.5660013000015,810.8704393999651,None,None,None,None,left,1,0.6333073002751917,810.6294110999443,None,None,None,,,,,,,nunamh,001,0,fr,2022-05-17_10h55.11.857,3-AFC_adaptive_staircase_mess,2022.1.1,36.37645407459936,
,,,,,7,0,7,0,19,0,19,0,,,,,,,,,,,,,,,,right,750,2.5,5.419634570106019e-05,1,3,1,2.5,814.799198619998,None,812.73709900002,813.0684569999576,813.7691293000244,814.1042736999225,814.7718781000003,815.1015587998554,right,1,2.3250244001392275,812.8016339999158,None,None,None,,,,,,,nunamh,001,0,fr,2022-05-17_10h55.11.857,3-AFC_adaptive_staircase_mess,2022.1.1,36.37645407459936,
,,,,,7,0,7,0,20,0,20,0,,,,,,,,,,,,,,,,left,750,-2.5,3.0476844862008466e-05,-1,4,-1,-5.0,816.6639688198687,816.8777870999184,816.6068799998611,816.9416889999993,None,None,None,None,left,1,0.5848471999634057,816.6706267998088,None,None,None,,,,,,,nunamh,001,0,fr,2022-05-17_10h55.11.857,3-AFC_adaptive_staircase_mess,2022.1.1,36.37645407459936,
,,,,,7,0,7,0,21,0,21,0,,,,,,,,,,,,,,,,left,750,-2.5,3.0476844862008466e-05,-1,4,-1,-5.0,818.8039857200114,None,818.7425445998088,819.0749116998632,819.7405115999281,820.0715573998168,820.7433425998315,821.0742241998669,left,1,2.480266700265929,818.8066531999502,None,821.3121255999431,None,,,,,,,nunamh,001,0,fr,2022-05-17_10h55.11.857,3-AFC_adaptive_staircase_mess,2022.1.1,36.37645407459936,
,,,,,7,0,7,0,22,0,22,0,,,,,,,,,,,,,,,,up,750,-7.5,1.7138389327322525e-05,-1,4,-1,-5.0,823.8392670198576,824.0571311998647,822.8098271000199,823.1437289000023,823.8119464998599,824.1199578999076,None,None,up,1,1.6273862002417445,822.8441180998925,None,None,None,,,,,,,nunamh,001,0,fr,2022-05-17_10h55.11.857,3-AFC_adaptive_staircase_mess,2022.1.1,36.37645407459936,
,,,,,7,0,7,0,23,0,23,0,,,,,,,,,,,,,,,,right,750,-7.5,1.7138389327322525e-05,-1,4,-1,-5.0,828.0104910200229,None,825.9465858999174,826.2842458998784,826.9529442999046,827.2858771998435,827.9487020999659,828.2817251998931,right,1,2.5594375000800937,826.0146276999731,None,828.5186948999763,None,,,,,,,nunamh,001,0,fr,2022-05-17_10h55.11.857,3-AFC_adaptive_staircase_mess,2022.1.1,36.37645407459936,
,,,,,7,0,7,0,24,0,24,0,,,,,,,,,,,,,,,,right,750,-12.5,9.637624565954684e-06,-1,4,-1,-5.0,832.118112619943,832.3342319999356,830.0531432998832,830.3868421998341,831.0516450998839,831.3856748000253,832.0549961999059,832.3617721998598,right,1,2.5032213001977652,830.1206617997959,None,832.6242782999761,None,,,,,,,nunamh,001,0,fr,2022-05-17_10h55.11.857,3-AFC_adaptive_staircase_mess,2022.1.1,36.37645407459936,
,,,,,7,0,7,0,25,0,25,0,,,,,,,,,,,,,,,,left,750,-12.5,9.637624565954684e-06,-1,4,-1,-5.0,834.1529730199603,834.3686551998835,834.0909796999767,834.3989415999968,835.1228554998524,835.4602423999459,836.127291899873,836.4592672998551,right,0,2.4753972000908107,834.155565999914,None,836.6588763999753,None,,,,,,,nunamh,001,0,fr,2022-05-17_10h55.11.857,3-AFC_adaptive_staircase_mess,2022.1.1,36.37645407459936,
,,,,,7,0,7,0,26,0,26,0,,,,,,,,,,,,,,,,left,750,-10.0,1.2851978913844322e-05,1,5,1,2.5,838.1891427198192,838.4074535998516,838.1618221998215,838.4655029999558,839.161286199931,839.4955219000112,840.1686247999314,None,up,0,2.2497395002283156,838.1965258999262,None,None,None,,,,,,,nunamh,001,0,fr,2022-05-17_10h55.11.857,3-AFC_adaptive_staircase_mess,2022.1.1,36.37645407459936,
,,,,,7,0,7,0,27,0,27,0,,,,,,,,,,,,,,,,right,750,-7.5,1.7138389327322525e-05,1,5,1,2.5,843.9906408199807,844.2101847999729,841.9324832998682,842.2643581000157,842.93102979986,843.2665681999642,843.9331106999889,844.2421318998095,right,1,2.4909065002575517,841.9962945999578,None,844.5019224998541,None,,,,,,,nunamh,001,0,fr,2022-05-17_10h55.11.857,3-AFC_adaptive_staircase_mess,2022.1.1,36.37645407459936,
,,,,,7,0,7,0,28,0,28,0,,,,,,,,,,,,,,,,right,750,-7.5,1.7138389327322525e-05,1,5,1,2.5,848.030198819912,848.24756599986,846.002301099943,846.3341999999247,846.9766644998454,847.304028699873,847.9688179998193,848.2792426999658,left,0,2.52887130016461,846.0372684998438,None,848.5395669999998,None,,,,,,,nunamh,001,0,fr,2022-05-17_10h55.11.857,3-AFC_adaptive_staircase_mess,2022.1.1,36.37645407459936,
,,,,,7,0,7,0,29,0,29,0,,,,,,,,,,,,,,,,left,750,-5.0,2.285440948074376e-05,1,5,1,2.5,850.0987258199369,None,850.0714052999392,850.4073405999225,851.0427904999815,851.375894199824,852.0748770998325,852.4094100999646,left,1,2.2905722002033144,850.1074369999114,None,None,None,,,,,,,nunamh,001,0,fr,2022-05-17_10h55.11.857,3-AFC_adaptive_staircase_mess,2022.1.1,36.37645407459936,
,,,,,7,0,7,0,30,0,30,0,,,,,,,,,,,,,,,,up,750,-5.0,2.285440948074376e-05,1,5,1,2.5,None,None,853.9064539999235,854.2097727998625,854.9042505200254,None,None,None,left,0,0.9295743000693619,853.941125900019,None,None,None,,,,,,,nunamh,001,0,fr,2022-05-17_10h55.11.857,3-AFC_adaptive_staircase_mess,2022.1.1,36.37645407459936,
,,,,,7,0,7,0,31,0,31,0,,,,,,,,,,,,,,,,up,750,-2.5,3.0476844862008466e-05,1,5,1,2.5,857.4080584198003,857.6289969999343,856.378786199959,856.7150981999002,857.3506149998866,857.6586347999983,None,None,up,1,1.6488463000860065,856.413074699929,None,None,None,,,,,,,nunamh,001,0,fr,2022-05-17_10h55.11.857,3-AFC_adaptive_staircase_mess,2022.1.1,36.37645407459936,
,,,,,7,0,7,0,32,0,32,0,,,,,,,,,,,,,,,,right,750,-2.5,3.0476844862008466e-05,1,5,1,2.5,861.6152284198673,None,859.5833784998395,859.9161931998096,860.5846284998115,860.9175744999666,861.5537578999065,861.8850600000005,right,1,2.4456939001102,859.6170593998395,None,862.115344719938,None,,,,,,,nunamh,001,0,fr,2022-05-17_10h55.11.857,3-AFC_adaptive_staircase_mess,2022.1.1,36.37645407459936,
,,,,,7,0,7,0,33,0,33,0,,,,,,,,,,,,,,,,right,750,-7.5,1.7138389327322525e-05,-1,6,-1,-5.0,865.6165571198566,865.8326627998613,863.5862741000019,863.9213694999926,864.557059600018,864.8903784998693,865.5553947999142,865.8646700999234,right,1,2.489477700088173,863.6211575998459,None,866.1275681999978,None,,,,,,,nunamh,001,0,fr,2022-05-17_10h55.11.857,3-AFC_adaptive_staircase_mess,2022.1.1,36.37645407459936,
,,,,,8,0,8,0,0,0,0,0,,,,,,,,,,,,,[],[],10,right,500,30,0.002259279721874612,0,0,-1,10,870.9229698199546,None,868.8899385998957,869.1934777998831,869.896512700012,870.2253888999112,870.8956492999569,None,right,1,2.258473000023514,868.9242155998945,None,None,None,space,1.2032435000874102,867.1961151999421,None,867.1961151999421,None,nunamh,001,0,fr,2022-05-17_10h55.11.857,3-AFC_adaptive_staircase_mess,2022.1.1,36.37645407459936,
,,,,,8,0,8,0,1,0,1,0,,,,,,,,,,,,,,,,up,500,30,0.002259279721874612,0,0,-1,10,873.7259309198474,873.9461929998361,872.6973747999873,873.0294941000175,873.6689424000215,873.9776428998448,None,None,up,1,1.337545100133866,872.7330794997979,None,None,None,,,,,,,nunamh,001,0,fr,2022-05-17_10h55.11.857,3-AFC_adaptive_staircase_mess,2022.1.1,36.37645407459936,
,,,,,8,0,8,0,2,0,2,0,,,,,,,,,,,,,,,,left,500,10,0.0002259279721874612,-1,0,-1,-10,875.6301421199227,None,875.5680068999063,875.9020589999855,None,None,None,None,left,1,0.30850810022093356,875.6337911998853,None,None,None,,,,,,,nunamh,001,0,fr,2022-05-17_10h55.11.857,3-AFC_adaptive_staircase_mess,2022.1.1,36.37645407459936,
,,,,,8,0,8,0,3,0,3,0,,,,,,,,,,,,,,,,up,500,10,0.0002259279721874612,-1,0,-1,-10,878.4990056198789,878.7174668998923,877.4652813998982,877.8017396999057,878.4369749999605,878.7479612999596,None,None,up,1,1.4751024001743644,877.499407999916,None,None,None,,,,,,,nunamh,001,0,fr,2022-05-17_10h55.11.857,3-AFC_adaptive_staircase_mess,2022.1.1,36.37645407459936,
,,,,,8,0,8,0,4,0,4,0,,,,,,,,,,,,,,,,left,500,0,7.144469792555515e-05,-1,0,-1,-10,880.5317895198008,880.7483665999025,880.5044689998031,880.8108842999209,None,None,None,None,left,1,0.476753500290215,880.5381893999875,None,None,None,,,,,,,nunamh,001,0,fr,2022-05-17_10h55.11.857,3-AFC_adaptive_staircase_mess,2022.1.1,36.37645407459936,
,,,,,8,0,8,0,5,0,5,0,,,,,,,,,,,,,,,,left,500,0,7.144469792555515e-05,-1,0,-1,-10,882.56440141981,882.7814372999128,882.5370808998123,882.8419514999259,None,None,None,None,left,1,0.4833545002620667,882.5706308998633,None,None,None,,,,,,,nunamh,001,0,fr,2022-05-17_10h55.11.857,3-AFC_adaptive_staircase_mess,2022.1.1,36.37645407459936,
,,,,,8,0,8,0,6,0,6,0,,,,,,,,,,,,,,,,right,500,-10,2.259279721874613e-05,-1,0,-1,-10,None,None,884.5419617998414,884.8760043999646,None,None,None,None,left,0,0.3062677001580596,884.6119080998469,None,None,None,,,,,,,nunamh,001,0,fr,2022-05-17_10h55.11.857,3-AFC_adaptive_staircase_mess,2022.1.1,36.37645407459936,
,,,,,8,0,8,0,7,0,7,0,,,,,,,,,,,,,,,,left,500,-5,4.017630610928089e-05,1,1,1,5,886.4714235199848,886.6853724999819,886.4441029999871,886.750359099824,887.4124682999682,887.7427287998144,888.4453598998953,888.7799799998756,right,0,2.7114773001521826,886.4787750998512,None,888.9822930998635,None,,,,,,,nunamh,001,0,fr,2022-05-17_10h55.11.857,3-AFC_adaptive_staircase_mess,2022.1.1,36.37645407459936,
,,,,,8,0,8,0,8,0,8,0,,,,,,,,,,,,,,,,right,500,0,7.144469792555515e-05,1,1,1,5,892.7466268199263,None,890.7130264998414,891.0482727999333,891.6852996000089,892.0168061999138,892.684058799874,None,up,0,2.123813500162214,890.7470692999195,None,None,None,,,,,,,nunamh,001,0,fr,2022-05-17_10h55.11.857,3-AFC_adaptive_staircase_mess,2022.1.1,36.37645407459936,
,,,,,8,0,8,0,9,0,9,0,,,,,,,,,,,,,,,,left,500,5,0.00012704863527746526,1,1,1,5,894.4135171198053,894.6285589998588,894.3861965998076,894.6917598999571,None,None,None,None,left,1,0.5859727002680302,894.420148300007,None,None,None,,,,,,,nunamh,001,0,fr,2022-05-17_10h55.11.857,3-AFC_adaptive_staircase_mess,2022.1.1,36.37645407459936,
,,,,,8,0,8,0,10,0,10,0,,,,,,,,,,,,,,,,right,500,5,0.00012704863527746526,1,1,1,5,898.5514075199375,898.7756617998239,896.5239391999785,896.8562015998177,897.523092399817,897.8581948999781,898.4893633997999,898.793846399989,right,1,2.254973100265488,896.5593719999306,None,None,None,,,,,,,nunamh,001,0,fr,2022-05-17_10h55.11.857,3-AFC_adaptive_staircase_mess,2022.1.1,36.37645407459936,
,,,,,8,0,8,0,11,0,11,0,,,,,,,,,,,,,,,,right,500,-5,4.017630610928089e-05,-1,2,-1,-5.0,902.3553312199423,902.5659626999404,900.302285999991,900.6079813998658,901.3012280999683,901.6372801000252,902.3280106999446,902.6301197998691,right,1,2.421963100321591,900.3686005999334,None,None,None,,,,,,,nunamh,001,0,fr,2022-05-17_10h55.11.857,3-AFC_adaptive_staircase_mess,2022.1.1,36.37645407459936,
,,,,,8,0,8,0,12,0,12,0,,,,,,,,,,,,,,,,up,500,-5,4.017630610928089e-05,-1,2,-1,-5.0,905.3256999198114,None,904.300477999961,904.6300825998187,905.2983793998137,905.6275433998089,906.2966853999533,906.6024716999382,up,1,2.4678415001835674,904.3302358000074,None,906.827992499806,None,,,,,,,nunamh,001,0,fr,2022-05-17_10h55.11.857,3-AFC_adaptive_staircase_mess,2022.1.1,36.37645407459936,
,,,,,8,0,8,0,13,0,13,0,,,,,,,,,,,,,,,,left,500,-10.0,2.259279721874613e-05,-1,2,-1,-5.0,908.3555715200258,908.5716136000119,908.2952373998705,908.6037698998116,909.2937607998028,909.6281804000027,910.2960139999632,910.6283245999366,up,0,2.5409159001428634,908.3614212998655,None,910.8708772999234,None,,,,,,,nunamh,001,0,fr,2022-05-17_10h55.11.857,3-AFC_adaptive_staircase_mess,2022.1.1,36.37645407459936,
,,,,,8,0,8,0,14,0,14,0,,,,,,,,,,,,,,,,left,500,-7.5,3.0127979303717903e-05,1,3,1,2.5,912.4611568199238,912.6768445000052,912.4047484998591,912.7093598998617,913.4058824998792,913.7355513998773,914.410423599882,None,left,1,2.0609747001435608,912.4654457999859,None,None,None,,,,,,,nunamh,001,0,fr,2022-05-17_10h55.11.857,3-AFC_adaptive_staircase_mess,2022.1.1,36.37645407459936,
,,,,,8,0,8,0,15,0,15,0,,,,,,,,,,,,,,,,up,500,-7.5,3.0127979303717903e-05,1,3,1,2.5,917.0760617200052,None,916.0456779999658,916.3813989998307,917.0487412000075,917.3808279000223,918.0444783999119,None,right,0,2.1003849001135677,916.0818801999558,None,None,None,,,,,,,nunamh,001,0,fr,2022-05-17_10h55.11.857,3-AFC_adaptive_staircase_mess,2022.1.1,36.37645407459936,
,,,,,8,0,8,0,16,0,16,0,,,,,,,,,,,,,,,,left,500,-5.0,4.017630610928089e-05,1,3,1,2.5,919.7274942199932,919.9504531999119,919.7001736999955,920.0121351999696,920.7113536999095,921.0169600998051,921.6812823999207,None,left,1,2.1103264002595097,919.7284440998919,None,None,None,,,,,,,nunamh,001,0,fr,2022-05-17_10h55.11.857,3-AFC_adaptive_staircase_mess,2022.1.1,36.37645407459936,
,,,,,8,0,8,0,17,0,17,0,,,,,,,,,,,,,,,,up,500,-5.0,4.017630610928089e-05,1,3,1,2.5,924.3748803199036,924.5969603999984,923.310591599904,923.6432463999372,924.3155058999546,924.6253058998846,925.3247628000099,None,right,0,2.024949600221589,923.3813159000129,None,None,None,,,,,,,nunamh,001,0,fr,2022-05-17_10h55.11.857,3-AFC_adaptive_staircase_mess,2022.1.1,36.37645407459936,
,,,,,8,0,8,0,18,0,18,0,,,,,,,,,,,,,,,,right,500,-2.5,5.357596526188033e-05,1,3,1,2.5,None,None,926.8789391999599,927.206274600001,927.9012851999141,None,None,None,up,0,1.0530075002461672,926.9378009999637,None,None,None,,,,,,,nunamh,001,0,fr,2022-05-17_10h55.11.857,3-AFC_adaptive_staircase_mess,2022.1.1,36.37645407459936,
,,,,,8,0,8,0,19,0,19,0,,,,,,,,,,,,,,,,left,500,0.0,7.144469792555515e-05,1,3,1,2.5,929.5445278198225,929.7636289999355,929.4858486999292,929.797329199966,None,None,None,None,left,1,0.8540400001220405,929.5520426000003,None,None,None,,,,,,,nunamh,001,0,fr,2022-05-17_10h55.11.857,3-AFC_adaptive_staircase_mess,2022.1.1,36.37645407459936,
,,,,,8,0,8,0,20,0,20,0,,,,,,,,,,,,,,,,left,500,0.0,7.144469792555515e-05,1,3,1,2.5,931.9545286199776,932.1728876999114,931.8938787998632,932.2048986000009,None,None,None,None,left,1,0.4817817001603544,931.9560837999452,None,None,None,,,,,,,nunamh,001,0,fr,2022-05-17_10h55.11.857,3-AFC_adaptive_staircase_mess,2022.1.1,36.37645407459936,
,,,,,8,0,8,0,21,0,21,0,,,,,,,,,,,,,,,,up,500,-5.0,4.017630610928089e-05,-1,4,-1,-5.0,934.9930433199974,None,933.9280365000013,934.2595189998392,934.9349801999051,935.2562392998952,935.9452101998031,None,right,0,2.18593390006572,933.9965805998072,None,None,None,,,,,,,nunamh,001,0,fr,2022-05-17_10h55.11.857,3-AFC_adaptive_staircase_mess,2022.1.1,36.37645407459936,
,,,,,8,0,8,0,22,0,22,0,,,,,,,,,,,,,,,,up,500,-2.5,5.357596526188033e-05,1,5,1,2.5,938.7132146199932,938.9356540997978,937.6832296999637,938.0083687999286,938.6559726998676,938.9637794999871,None,None,up,1,1.6230126002337784,937.712067999877,None,None,None,,,,,,,nunamh,001,0,fr,2022-05-17_10h55.11.857,3-AFC_adaptive_staircase_mess,2022.1.1,36.37645407459936,
,,,,,8,0,8,0,23,0,23,0,,,,,,,,,,,,,,,,up,500,-2.5,5.357596526188033e-05,1,5,1,2.5,941.8795602197991,None,940.8523535998538,941.1590401998255,941.8522396998014,942.1671655999962,None,None,up,1,1.5232908001635224,940.8832980999723,None,None,None,,,,,,,nunamh,001,0,fr,2022-05-17_10h55.11.857,3-AFC_adaptive_staircase_mess,2022.1.1,36.37645407459936,
,,,,,8,0,8,0,24,0,24,0,,,,,,,,,,,,,,,,up,500,-7.5,3.0127979303717903e-05,-1,6,-1,-5.0,944.9213201198494,None,943.8829395999201,944.1940299000125,944.8939995998517,945.2048400999047,945.8776783999056,None,right,0,2.2141581000760198,943.912245699903,None,None,None,,,,,,,nunamh,001,0,fr,2022-05-17_10h55.11.857,3-AFC_adaptive_staircase_mess,2022.1.1,36.37645407459936,
,,,,,9,0,9,0,0,0,0,0,,,,,,,,,,,,,[],[],10,right,250,30,0.005296268625886445,0,0,-1,10,950.7489646197995,None,948.7044754999224,949.0338041000068,949.6986916000023,950.0179728998337,950.6909776998218,None,right,1,2.2323859001044184,948.7343948998023,None,None,None,space,1.0210547999013215,947.2088876999915,None,947.2088876999915,None,nunamh,001,0,fr,2022-05-17_10h55.11.857,3-AFC_adaptive_staircase_mess,2022.1.1,36.37645407459936,
,,,,,9,0,9,0,1,0,1,0,,,,,,,,,,,,,,,,right,250,30,0.005296268625886445,0,0,-1,10,None,None,952.4548543000128,952.7698367999401,953.4531854998786,953.7638952999841,954.4543095999397,None,right,1,1.9457286999095231,952.4850364997983,None,None,None,,,,,,,nunamh,001,0,fr,2022-05-17_10h55.11.857,3-AFC_adaptive_staircase_mess,2022.1.1,36.37645407459936,
,,,,,9,0,9,0,2,0,2,0,,,,,,,,,,,,,,,,right,250,10,0.0005296268625886444,-1,0,-1,-10,957.9595053198049,None,955.9307154000271,956.2338733000215,956.9414162000176,957.2707367998082,957.9321847998071,None,up,0,2.16529310005717,955.9610653999262,None,None,None,,,,,,,nunamh,001,0,fr,2022-05-17_10h55.11.857,3-AFC_adaptive_staircase_mess,2022.1.1,36.37645407459936,
,,,,,9,0,9,0,3,0,3,0,,,,,,,,,,,,,,,,up,250,15,0.0009418245447449003,1,1,1,5,960.680869119917,None,959.6426772000268,959.9452106999233,960.6535485999193,960.9765906999819,None,None,up,1,1.5630044001154602,959.7072896999307,None,None,None,,,,,,,nunamh,001,0,fr,2022-05-17_10h55.11.857,3-AFC_adaptive_staircase_mess,2022.1.1,36.37645407459936,
,,,,,9,0,9,0,4,0,4,0,,,,,,,,,,,,,,,,left,250,15,0.0009418245447449003,1,1,1,5,962.7981878199847,None,962.770867299987,963.0848342999816,None,None,None,None,left,1,0.3884010002948344,962.8017169998493,None,None,None,,,,,,,nunamh,001,0,fr,2022-05-17_10h55.11.857,3-AFC_adaptive_staircase_mess,2022.1.1,36.37645407459936,
,,,,,9,0,9,0,5,0,5,0,,,,,,,,,,,,,,,,up,250,5,0.0002978310717645052,-1,2,-1,-5.0,965.7157318198355,None,964.680063799955,964.987655099947,965.6578027999494,965.9811390999239,None,None,up,1,1.4196965999435633,964.7145605999976,None,None,None,,,,,,,nunamh,001,0,fr,2022-05-17_10h55.11.857,3-AFC_adaptive_staircase_mess,2022.1.1,36.37645407459936,
,,,,,9,0,9,0,6,0,6,0,,,,,,,,,,,,,,,,right,250,5,0.0002978310717645052,-1,2,-1,-5.0,969.6914816198172,None,967.6490892998409,967.9801533999853,968.6409759998787,968.950781499967,969.6304071999621,969.9513869998045,right,1,2.2700539000798017,967.6799923998769,None,None,None,,,,,,,nunamh,001,0,fr,2022-05-17_10h55.11.857,3-AFC_adaptive_staircase_mess,2022.1.1,36.37645407459936,
,,,,,9,0,9,0,7,0,7,0,,,,,,,,,,,,,,,,up,250,0.0,0.0001674827195789138,-1,2,-1,-5.0,972.4850965200225,972.702563099796,971.4135058999527,971.720434299903,972.421303199837,972.7315896998625,973.4324866998941,973.7630859999917,left,0,2.8870949000120163,971.4723653998226,None,973.9786141000222,None,,,,,,,nunamh,001,0,fr,2022-05-17_10h55.11.857,3-AFC_adaptive_staircase_mess,2022.1.1,36.37645407459936,
,,,,,9,0,9,0,8,0,8,0,,,,,,,,,,,,,,,,right,250,2.5,0.0002233417960754815,1,3,1,2.5,977.8957679199287,978.1078309000004,975.8070351998322,976.118338199798,976.8348598999437,977.1582742999308,977.8366599997971,978.1677435999736,up,0,2.44555880012922,975.8803161999676,None,978.3700705198338,None,,,,,,,nunamh,001,0,fr,2022-05-17_10h55.11.857,3-AFC_adaptive_staircase_mess,2022.1.1,36.37645407459936,
,,,,,9,0,9,0,9,0,9,0,,,,,,,,,,,,,,,,up,250,5.0,0.0002978310717645052,1,3,1,2.5,None,None,979.7995696999133,None,None,None,None,None,right,0,-1.4218510997015983,979.8599046999589,None,None,None,,,,,,,nunamh,001,0,fr,2022-05-17_10h55.11.857,3-AFC_adaptive_staircase_mess,2022.1.1,36.37645407459936,
,,,,,9,0,9,0,10,0,10,0,,,,,,,,,,,,,,,,left,250,7.5,0.0003971641173621407,1,3,1,2.5,981.3779723199317,981.5985434998292,981.350651799934,981.6544369999319,None,None,None,None,left,1,0.8075337000191212,981.382528899936,None,None,None,,,,,,,nunamh,001,0,fr,2022-05-17_10h55.11.857,3-AFC_adaptive_staircase_mess,2022.1.1,36.37645407459936,
,,,,,9,0,9,0,11,0,11,0,,,,,,,,,,,,,,,,right,250,7.5,0.0003971641173621407,1,3,1,2.5,985.7387903199764,None,983.6748478999361,983.9761785999872,984.6919561999384,985.0232591999229,985.679976799991,985.9925781998318,right,1,2.2521968001965433,983.7379595998209,None,None,None,,,,,,,nunamh,001,0,fr,2022-05-17_10h55.11.857,3-AFC_adaptive_staircase_mess,2022.1.1,36.37645407459936,
,,,,,9,0,9,0,12,0,12,0,,,,,,,,,,,,,,,,right,250,2.5,0.0002233417960754815,-1,4,-1,-5.0,989.5115172199206,989.7345984999556,987.4529374998529,987.7899374999106,988.4509097998962,988.7770526998211,989.453155499883,989.7600596998818,right,1,2.265303400112316,987.5249336999841,None,None,None,,,,,,,nunamh,001,0,fr,2022-05-17_10h55.11.857,3-AFC_adaptive_staircase_mess,2022.1.1,36.37645407459936,
,,,,,9,0,9,0,13,0,13,0,,,,,,,,,,,,,,,,right,250,2.5,0.0002233417960754815,-1,4,-1,-5.0,993.3367701198207,None,991.2953786000144,991.5901040998287,992.3003624000121,992.63231359981,993.2803937999997,993.5912051999476,right,1,2.2105042999610305,991.3559428998269,None,None,None,,,,,,,nunamh,001,0,fr,2022-05-17_10h55.11.857,3-AFC_adaptive_staircase_mess,2022.1.1,36.37645407459936,
,,,,,9,0,9,0,14,0,14,0,,,,,,,,,,,,,,,,left,250,-2.5,0.00012559432157547898,-1,4,-1,-5.0,995.0961378200212,None,995.0688173000235,995.3826299998909,996.0630738998298,996.3750061998144,997.0700651998632,997.400222599972,left,1,2.3629111000336707,995.0989204000216,None,None,None,,,,,,,nunamh,001,0,fr,2022-05-17_10h55.11.857,3-AFC_adaptive_staircase_mess,2022.1.1,36.37645407459936,
,,,,,9,0,9,0,15,0,15,0,,,,,,,,,,,,,,,,right,250,-2.5,0.00012559432157547898,-1,4,-1,-5.0,1000.9977887198096,1001.2238332999405,998.967940100003,999.2696185999084,999.9547941999044,1000.2802170999348,1000.9704681998119,1001.284875900019,up,0,2.3288786001503468,998.9976703999564,None,None,None,,,,,,,nunamh,001,0,fr,2022-05-17_10h55.11.857,3-AFC_adaptive_staircase_mess,2022.1.1,36.37645407459936,
,,,,,9,0,9,0,16,0,16,0,,,,,,,,,,,,,,,,right,250,0.0,0.0001674827195789138,1,5,1,2.5,None,None,1002.7977332000155,1003.1246736999601,1003.8027846999466,1004.1264130999334,1004.8067216000054,None,right,1,1.933317200280726,1002.8565567999613,None,None,None,,,,,,,nunamh,001,0,fr,2022-05-17_10h55.11.857,3-AFC_adaptive_staircase_mess,2022.1.1,36.37645407459936,
,,,,,9,0,9,0,17,0,17,0,,,,,,,,,,,,,,,,right,250,0.0,0.0001674827195789138,1,5,1,2.5,1008.3284224199364,1008.5499249999411,1006.3027376998216,1006.63419409981,1007.3039220999926,1007.6088711998891,1008.3011018999387,1008.6054148999974,right,1,2.4106451000552624,1006.3317779998761,None,None,None,,,,,,,nunamh,001,0,fr,2022-05-17_10h55.11.857,3-AFC_adaptive_staircase_mess,2022.1.1,36.37645407459936,
,,,,,9,0,9,0,18,0,18,0,,,,,,,,,,,,,,,,up,250,-5.0,9.418245447449e-05,-1,6,-1,-5.0,1011.2984090198064,None,1010.2508708999958,1010.573578499956,1011.2414624998346,1011.5634575998411,1012.2380852999631,1012.5433930999134,up,1,2.506624100031331,1010.3070620999206,None,1012.8191684000194,None,,,,,,,nunamh,001,0,fr,2022-05-17_10h55.11.857,3-AFC_adaptive_staircase_mess,2022.1.1,36.37645407459936,
,,,,,10,0,10,0,0,0,0,0,,,,,,,,,,,,,[],[],10,right,125,30,0.02285440948074376,0,0,-1,10,1020.3262713199714,1020.5457698998507,1018.2487160000019,1018.5634693999309,1019.2787870999891,1019.5966901998036,1020.2689117998816,1020.5763734998181,right,1,2.2472730001900345,1018.3194444000255,None,None,None,space,3.911234100116417,1013.887534199981,None,1013.887534199981,None,nunamh,001,0,fr,2022-05-17_10h55.11.857,3-AFC_adaptive_staircase_mess,2022.1.1,36.37645407459936,
,,,,,10,0,10,0,1,0,1,0,,,,,,,,,,,,,,,,up,125,30,0.02285440948074376,0,0,-1,10,1023.0956013200106,None,1022.063798799878,1022.3995564999059,1023.0682808000129,1023.3826363999397,None,None,up,1,1.2466777001973242,1022.1200528999325,None,None,None,,,,,,,nunamh,001,0,fr,2022-05-17_10h55.11.857,3-AFC_adaptive_staircase_mess,2022.1.1,36.37645407459936,
,,,,,10,0,10,0,2,0,2,0,,,,,,,,,,,,,,,,up,125,10,0.002285440948074376,-1,0,-1,-10,1025.8966938198778,1026.1200054998044,1024.8734082998708,1025.204914999893,1025.8406535999384,1026.1466247998178,None,None,up,1,1.2910856001544744,1024.907177399844,None,None,None,,,,,,,nunamh,001,0,fr,2022-05-17_10h55.11.857,3-AFC_adaptive_staircase_mess,2022.1.1,36.37645407459936,
,,,,,10,0,10,0,3,0,3,0,,,,,,,,,,,,,,,,right,125,10,0.002285440948074376,-1,0,-1,-10,1029.7199244198623,None,1027.6562695999164,1027.9611281999387,1028.6592551998328,1028.9736022998113,1029.6728403999005,None,right,1,2.2065828000195324,1027.727136499947,None,None,None,,,,,,,nunamh,001,0,fr,2022-05-17_10h55.11.857,3-AFC_adaptive_staircase_mess,2022.1.1,36.37645407459936,
,,,,,10,0,10,0,4,0,4,0,,,,,,,,,,,,,,,,left,125,0,0.000722719885372964,-1,0,-1,-10,1031.4713618198643,1031.6938491999172,1031.4107337999158,1031.723583499901,1032.415308599826,1032.7404926999006,1033.4154256000184,None,right,0,2.025446099927649,1031.4769335999154,None,None,None,,,,,,,nunamh,001,0,fr,2022-05-17_10h55.11.857,3-AFC_adaptive_staircase_mess,2022.1.1,36.37645407459936,
,,,,,10,0,10,0,5,0,5,0,,,,,,,,,,,,,,,,up,125,5,0.0012851978913844323,1,1,1,5,None,None,1034.9880684998352,1035.316009099828,1035.9989352198086,None,None,None,up,1,0.9187172001693398,1035.0472079999745,None,None,None,,,,,,,nunamh,001,0,fr,2022-05-17_10h55.11.857,3-AFC_adaptive_staircase_mess,2022.1.1,36.37645407459936,
,,,,,10,0,10,0,6,0,6,0,,,,,,,,,,,,,,,,up,125,5,0.0012851978913844323,1,1,1,5,1038.5112185198582,1038.7272405999247,1037.4753485999536,1037.7872405999806,1038.451751000015,1038.7566862998065,None,None,up,1,1.4068242001812905,1037.504810999846,None,None,None,,,,,,,nunamh,001,0,fr,2022-05-17_10h55.11.857,3-AFC_adaptive_staircase_mess,2022.1.1,36.37645407459936,
