sweeps.thisRepN,sweeps.thisTrialN,sweeps.thisN,sweeps.thisIndex,trials.thisRepN,trials.thisTrialN,trials.thisN,trials.thisIndex,instructions.started,instructions.stopped,blank_text.started,blank_text.stopped,,text.started,text.stopped,Delay,Prediction,Frequency,Volume,Psychopy_level,isCatchTrial,len(y),finished_audiograms,probe.started,probe.stopped,feedback.keys,feedback.started,feedback.stopped,ISI.started,ISI.stopped,text_2.started,text_2.stopped,feedback.rt,break_txt.started,break_txt.stopped,Intervals,participant,session,language (english or french),Resume previous experiment,date,expName,psychopyVersion,frameRate,
0,0,0,0,0,0,0,0,20.112044899957255,None,44.48095909995027,None,0.16666666666666666,46.33188379998319,None,2.899725163425523,frequency,151.0,-7.473204052796261,0.00020779706828381894,0,26,[],0.024998469976708293,None,None,47.34031060000416,None,0.23391087003983557,3.1336360334653586,47.55468800000381,None,,,,,moiern,001,fr,0,2022-07-08_14h22.59.036,Continuous,2022.1.1,None,
0,0,0,0,1,0,1,0,,,,,,,,2.5387537514998657,frequency,169.0,-4.2392064027169525,0.00023223409906123396,0,27,[],0.025460770004428923,None,None,50.47507909999695,50.47507909999695,0.232684770016931,2.7714385215167967,50.693141900002956,50.47507909999695,,,,,moiern,001,fr,0,2022-07-08_14h22.59.036,Continuous,2022.1.1,None,
0,0,0,0,2,0,2,0,,,,,,,,2.7747489971474346,frequency,190.0,-4.2700120005437245,0.00018463236895345338,0,28,[],0.024492170079611242,None,None,53.253687000018544,53.253687000018544,0.22649517003446817,3.001244167181903,53.47444819996599,53.253687000018544,,,,,moiern,001,fr,0,2022-07-08_14h22.59.036,Continuous,2022.1.1,None,
0,0,0,0,3,0,3,0,,,,,,,,1.2583976661624445,frequency,213.0,-1.262547074002737,0.00020750787229167775,0,29,[],0.025795469991862774,None,None,56.27222109993454,56.27222109993454,0.230251369997859,1.4886490361603035,56.49246099998709,56.27222109993454,,,,,moiern,001,fr,0,2022-07-08_14h22.59.036,Continuous,2022.1.1,None,
0,0,0,0,4,0,4,0,,,,,,,,1.7597407905697426,frequency,239.0,-6.904235960158857,8.53744050036046e-05,0,30,[],0.023493270040489733,None,['space'],57.77435939991847,57.77435939991847,0.22974146995693445,1.989482260526677,57.99028029991314,57.77435939991847,[-1.0566053999355063],,,,moiern,001,fr,0,2022-07-08_14h22.59.036,Continuous,2022.1.1,None,
0,0,0,0,5,0,5,0,,,,,,,,2.8521284516605134,frequency,268.0,-6.058500855954693,7.388358314169628e-05,0,31,[],0.025076970108784735,None,['space'],59.77598539995961,59.77598539995961,0.22936447011306882,3.0814929217735822,59.996004199958406,59.77598539995961,[-1.3378160999855027],,,,moiern,001,fr,0,2022-07-08_14h22.59.036,Continuous,2022.1.1,None,
0,0,0,0,6,0,6,0,,,,,,,,1.558788985757248,frequency,301.0,1.4927140651743533,0.00013472592080318143,0,32,[],0.025340070016682148,None,['space'],62.86627309990581,62.86627309990581,0.2326518699992448,1.7914408557564927,63.08335550001357,62.86627309990581,[-2.50034169992432],,,,moiern,001,fr,0,2022-07-08_14h22.59.036,Continuous,2022.1.1,None,
0,0,0,0,7,0,7,0,,,,,,,,1.0892394992746208,frequency,338.0,-2.6814545483171965,6.804141024191804e-05,0,33,[],0.01800287002697587,0.21290227002464235,['space'],64.66936239995994,64.66936239995994,0.21290227002464235,1.3021417692992632,64.8856457999209,64.66936239995994,[-0.5508466999744996],,,,moiern,001,fr,0,2022-07-08_14h22.59.036,Continuous,2022.1.1,None,
0,0,0,0,8,0,8,0,,,,,,,,1.756400919349425,frequency,379.0,-8.0,3.264724102951903e-05,0,34,[],0.025506470003165305,None,['space'],65.99924469995312,65.99924469995312,0.23189297004137188,1.9882938893907969,66.21795039996505,65.99924469995312,[0.007000899990089238],,,,moiern,001,fr,0,2022-07-08_14h22.59.036,Continuous,2022.1.1,None,
0,0,0,0,9,0,9,0,,,,,,,,1.5021671726388486,frequency,425.0,-4.571624579511757,4.447140088025205e-05,0,35,[],0.02549666992854327,None,None,67.99175970000215,67.99175970000215,0.234379870002158,1.7365470426410066,68.20693430001847,67.99175970000215,,,,,moiern,001,fr,0,2022-07-08_14h22.59.036,Continuous,2022.1.1,None,
0,0,0,0,10,0,10,0,,,,,,,,2.1819149455299156,frequency,477.0,-0.09254733766712864,7.185027231638422e-05,0,36,[],0.02301827003248036,None,None,69.7367862999672,69.7367862999672,0.22320817003492266,2.4051231155648383,69.9566842999775,69.7367862999672,,,,,moiern,001,fr,0,2022-07-08_14h22.59.036,Continuous,2022.1.1,None,
0,0,0,0,11,0,11,0,,,,,,,,1.044382555124073,frequency,535.0,-3.3541449602747435,4.484725843215159e-05,0,37,[],0.022196670062839985,None,None,72.15826039994135,72.15826039994135,0.227100370102562,1.271482925226635,72.37795919994824,72.15826039994135,,,,,moiern,001,fr,0,2022-07-08_14h22.59.036,Continuous,2022.1.1,None,
0,0,0,0,12,0,12,0,,,,,,,,2.9527160267483317,frequency,,,,1,37,[],0.025510570034384727,None,['space'],73.45066279999446,73.45066279999446,0.23239707003813237,3.185113096786464,73.66203549993224,73.45066279999446,[-0.7571373999817297],,,,moiern,001,fr,0,2022-07-08_14h22.59.036,Continuous,2022.1.1,None,
0,0,0,0,13,0,13,0,,,,,,,,1.5316943200138124,frequency,675.0,-2.4361136257653224,3.5670262448086384e-05,0,38,[],0.02643957012332976,None,None,76.63586479995865,76.63586479995865,0.2334642701316625,1.765158590145475,76.85364360001404,76.63586479995865,,,,,moiern,001,fr,0,2022-07-08_14h22.59.036,Continuous,2022.1.1,None,
0,0,0,0,14,0,14,0,,,,,,,,2.64865744236928,frequency,758.0,-6.377076858358929,1.932909913306589e-05,0,39,[],0.0252505699172616,None,None,78.40764429990668,78.40764429990668,0.23259317001793534,2.8812506123872152,78.62237270001788,78.40764429990668,,,,,moiern,001,fr,0,2022-07-08_14h22.59.036,Continuous,2022.1.1,None,
1,0,1,0,0,0,0,0,,,,,0.16666666666666666,112.66589810000733,None,2.8438443744428037,frequency,1954.0,2.683471618339039,9.906391139701323e-05,0,40,[],0.026604369981214404,None,None,113.68011839990504,None,0.23218117002397776,3.0760255444667814,113.89079380000476,None,,81.2934721999336,None,,moiern,001,fr,0,2022-07-08_14h22.59.036,Continuous,2022.1.1,None,
1,0,1,0,1,0,1,0,,,,,,,,1.0980824638078988,frequency,2193.0,1.1007370246521155,8.977569832892554e-05,0,41,[],0.016874970053322613,None,['space'],116.75814149994403,116.75814149994403,0.21329127007629722,1.311373733884196,116.97572260000743,116.75814149994403,[-0.19932749995496124],,,,moiern,001,fr,0,2022-07-08_14h22.59.036,Continuous,2022.1.1,None,
1,0,1,0,2,0,2,0,,,,,,,,1.1408665795715778,frequency,2462.0,-0.35418736364944947,8.165458767217077e-05,0,42,[],0.024737170082516968,None,['space'],118.10370999993756,118.10370999993756,0.2331821700790897,1.3740487496506675,118.32519599993248,118.10370999993756,[-0.6260290999198332],,,,moiern,001,fr,0,2022-07-08_14h22.59.036,Continuous,2022.1.1,None,
1,0,1,0,3,0,3,0,,,,,,,,2.5508399018175734,frequency,2764.0,-0.03416180530861612,6.921689461471531e-05,0,43,[],0.02484616998117417,None,['space'],119.4868183999788,119.4868183999788,0.23206646996550262,2.782906371783076,119.69985709991306,119.4868183999788,[-0.9608687000581995],,,,moiern,001,fr,0,2022-07-08_14h22.59.036,Continuous,2022.1.1,None,
1,0,1,0,4,0,4,0,,,,,,,,1.7158197019622667,frequency,3103.0,-1.1931416906783954,5.6283719739391793e-05,0,44,[],0.025029269978404045,None,['space'],122.27559169998858,122.27559169998858,0.22963886999059469,1.9454585719528614,122.4937131999759,122.27559169998858,[-2.4211219999706373],,,,moiern,001,fr,0,2022-07-08_14h22.59.036,Continuous,2022.1.1,None,
1,0,1,0,5,0,5,0,,,,,,,,2.888219826307531,frequency,,,,1,44,[],0.018265870166942477,None,['space'],124.23052709992044,124.23052709992044,0.2187253701267764,3.1069451964343076,124.45065649994649,124.23052709992044,[-1.5043251999886706],,,,moiern,001,fr,0,2022-07-08_14h22.59.036,Continuous,2022.1.1,None,
1,0,1,0,6,0,6,0,,,,,,,,2.6526890919931168,frequency,3909.0,0.47194883625076445,8.69406642491357e-05,0,45,[],0.023043769993819296,None,['space'],127.36525059991982,127.36525059991982,0.22154757007956505,2.874236662072682,127.5862010999117,127.36525059991982,[-0.6545132999308407],,,,moiern,001,fr,0,2022-07-08_14h22.59.036,Continuous,2022.1.1,None,
1,0,1,0,7,0,7,0,,,,,,,,1.9019631191798085,frequency,4388.0,-0.8441754996592366,0.00010039015292329976,0,46,[],0.024793970049358904,None,['space'],130.26677079999354,130.26677079999354,0.2298230699962005,2.131786189176009,130.48173989995848,130.26677079999354,[-2.436923100030981],,,,moiern,001,fr,0,2022-07-08_14h22.59.036,Continuous,2022.1.1,None,
1,0,1,0,8,0,8,0,,,,,,,,2.3689075967239983,frequency,4925.0,1.0,0.0001655937853633201,0,47,[],0.024734069942496717,None,['space'],132.40243389992975,132.40243389992975,0.22969566995743662,2.598603266681435,132.61909829999786,132.40243389992975,[-1.7645868000108749],,,,moiern,001,fr,0,2022-07-08_14h22.59.036,Continuous,2022.1.1,None,
1,0,1,0,9,0,9,0,,,,,,,,2.5830419232799517,frequency,5528.0,1.0,0.00014953741009252546,0,48,[],0.017239370150491595,0.21463557006791234,['space'],135.00997639994603,135.00997639994603,0.21463557006791234,2.797677493347864,135.22698689997196,135.00997639994603,[-2.2042377999750897],,,,moiern,001,fr,0,2022-07-08_14h22.59.036,Continuous,2022.1.1,None,
1,0,1,0,10,0,10,0,,,,,,,,2.9601737820888863,frequency,6205.0,1.2317254166609637,0.0001446561157161856,0,49,[],0.024555770098231733,None,['space'],137.83996899996419,137.83996899996419,0.23152837005909532,3.1917021521479816,138.05879309994634,137.83996899996419,[-2.3540260000154376],,,,moiern,001,fr,0,2022-07-08_14h22.59.036,Continuous,2022.1.1,None,
1,0,1,0,11,0,11,0,,,,,,,,2.7229404284772585,frequency,6965.0,1.0711103021830013,0.0001698737582265305,0,50,[],0.024410770158283412,None,['space'],141.03942950000055,141.03942950000055,0.23634907009545714,2.9592894985727156,141.25916309992317,141.03942950000055,[-2.7857449000002816],,,,moiern,001,fr,0,2022-07-08_14h22.59.036,Continuous,2022.1.1,None,
1,0,1,0,12,0,12,0,,,,,,,,1.9981488553319713,frequency,7818.0,2.3638993518694313,0.00023107999412806223,0,51,[],0.02445397002156824,None,None,144.0034236999927,144.0034236999927,0.22988286998588592,2.228031725317857,144.2220924999565,144.0034236999927,,,,,moiern,001,fr,0,2022-07-08_14h22.59.036,Continuous,2022.1.1,None,
2,0,2,0,0,0,0,0,,,,,,147.8140587999951,None,1.8510333060858668,time,1202.0,2.458919866658995,6.968156443280521e-05,0,26,[],0.02636247011832893,None,None,148.82432519993745,None,0.22396247007418424,2.0749957761600513,149.03346870001405,None,,146.24043040000834,None,"[0.3333333333333333, 0.5833333333333334, 0.5833333333333334, 0.16666666666666666, 0.16666666666666666, 0.5833333333333334, 0.3333333333333333, 0.3333333333333333, 0.16666666666666666, 0.16666666666666666, 0.3333333333333333, 0.5833333333333334, 0.5833333333333334, 0.16666666666666666, 0.5833333333333334]",moiern,001,fr,0,2022-07-08_14h22.59.036,Continuous,2022.1.1,None,
2,0,2,0,1,0,1,0,,,,,,,,1.8510333060858668,time,425.0,-2.563979176731226,5.6035477926663835e-05,0,27,[],0.024025070131756365,None,['space'],150.9131374999415,150.9131374999415,0.2309674700954929,2.08200077618136,151.1256687999703,150.9131374999415,[-1.5872916999505833],,,,moiern,001,fr,0,2022-07-08_14h22.59.036,Continuous,2022.1.1,None,
2,0,2,0,2,0,2,0,,,,,,,,1.8510333060858668,time,802.0,-7.672627959777644,1.5884792759631614e-05,0,28,[],0.024168370058760047,None,['space'],153.00006059999578,153.00006059999578,0.23104487010277808,2.082078176188645,153.21401669993065,153.00006059999578,[-1.6254392000846565],,,,moiern,001,fr,0,2022-07-08_14h22.59.036,Continuous,2022.1.1,None,
2,0,2,0,3,0,3,0,,,,,,,,1.8510333060858668,time,127.0,1.3593963383594443,0.0008243394971580409,0,29,[],0.02340746996924281,None,None,155.09359079995193,155.09359079995193,0.22567546996288002,2.076708776048747,155.31414449994918,155.09359079995193,,,,,moiern,001,fr,0,2022-07-08_14h22.59.036,Continuous,2022.1.1,None,
2,0,2,0,4,0,4,0,,,,,,,,1.8510333060858668,time,,,,1,29,[],0.024299370008520782,None,['space'],157.19471650000196,157.19471650000196,0.23061037005390972,2.0816436761397767,157.40710279997438,157.19471650000196,[-1.6846089999889955],,,,moiern,001,fr,0,2022-07-08_14h22.59.036,Continuous,2022.1.1,None,
2,0,2,0,5,0,5,0,,,,,,,,1.8510333060858668,time,535.0,-5.414900366925649,3.537513687327568e-05,0,30,[],0.02514857007190585,None,None,159.28110229992308,159.28110229992308,0.23209027014672756,2.0831235762325946,159.5008182999445,159.28110229992308,,,,,moiern,001,fr,0,2022-07-08_14h22.59.036,Continuous,2022.1.1,None,
2,0,2,0,6,0,6,0,,,,,,,,1.8510333060858668,time,338.0,1.1339422698805515,0.0001055706382615537,0,31,[],0.016533470014110208,None,None,161.37390329991467,161.37390329991467,0.21789007005281746,2.0689233761386845,161.59021299995948,161.37390329991467,,,,,moiern,001,fr,0,2022-07-08_14h22.59.036,Continuous,2022.1.1,None,
2,0,2,0,7,0,7,0,,,,,,,,1.8510333060858668,time,268.0,-3.847347131168865,9.530279454449276e-05,0,32,[],0.017548670060932636,None,['space'],163.4730445999885,163.4730445999885,0.21515737008303404,2.066190676168901,163.69144470000174,163.4730445999885,[-1.3391182000050321],,,,moiern,001,fr,0,2022-07-08_14h22.59.036,Continuous,2022.1.1,None,
2,0,2,0,8,0,8,0,,,,,,,,1.8510333060858668,time,1349.0,-4.45181926365788,3.1177499233512945e-05,0,33,[],0.019870770047418773,None,None,165.5908881999785,165.5908881999785,0.23022916994523257,2.0812624760310996,165.81061559997033,165.5908881999785,,,,,moiern,001,fr,0,2022-07-08_14h22.59.036,Continuous,2022.1.1,None,
2,0,2,0,9,0,9,0,,,,,,,,1.8510333060858668,time,2021.0,0.5814684394177441,8.048916646699273e-05,0,34,[],0.02338386990595609,None,['space'],167.68429729994386,167.68429729994386,0.24360286991577595,2.094636176001643,167.9086923999712,167.68429729994386,[-1.5496656000614166],,,,moiern,001,fr,0,2022-07-08_14h22.59.036,Continuous,2022.1.1,None,
2,0,2,0,10,0,10,0,,,,,,,,1.8510333060858668,time,379.0,-8.0,3.264724102951903e-05,0,35,[],0.01907556992955506,None,['space'],169.77819280000404,169.77819280000404,0.22179867001250386,2.072831976098371,169.99866309994832,169.77819280000404,[-1.7321504999417812],,,,moiern,001,fr,0,2022-07-08_14h22.59.036,Continuous,2022.1.1,None,
2,0,2,0,11,0,11,0,,,,,,,,1.8510333060858668,time,142.0,-5.190046086064363,0.0003143523126487904,0,36,[],0.019897370133548975,None,None,171.87972009996884,171.87972009996884,0.22031167009845376,2.071344976184321,172.0995032999199,171.87972009996884,,,,,moiern,001,fr,0,2022-07-08_14h22.59.036,Continuous,2022.1.1,None,
3,0,3,0,0,0,0,0,,,,,,175.55529789999127,None,2.181678295817838,none,804.0,-4.993488163669424,2.1656114521990484e-05,0,26,[],0.026181870140135288,None,None,176.58386149990838,None,0.22557347011752427,2.4072517659353623,176.79466059990227,None,,173.97974400001112,None,"[0.5833333333333334, 0.3333333333333333, 0.3333333333333333, 0.16666666666666666, 0.16666666666666666, 0.5833333333333334, 0.3333333333333333, 0.16666666666666666, 0.16666666666666666, 0.5833333333333334, 0.16666666666666666, 0.3333333333333333, 0.5833333333333334, 0.3333333333333333, 0.16666666666666666]",moiern,001,fr,0,2022-07-08_14h22.59.036,Continuous,2022.1.1,None,
3,0,3,0,1,0,1,0,,,,,,,,2.8632827324062093,none,638.0,-0.953746092168625,4.521543263199415e-05,0,27,[],0.02344626991543919,None,None,179.00325820001308,179.00325820001308,0.229982869932428,3.0932656023386373,179.2152015999891,179.00325820001308,,,,,moiern,001,fr,0,2022-07-08_14h22.59.036,Continuous,2022.1.1,None,
3,0,3,0,2,0,2,0,,,,,,,,2.0196666628211917,none,338.0,-5.27873410950379,5.045559456823236e-05,0,28,[],0.023583270027302206,None,['space'],182.10280009999406,182.10280009999406,0.23002147010993212,2.249688132931124,182.31309810001403,182.10280009999406,[-2.144222000031732],,,,moiern,001,fr,0,2022-07-08_14h22.59.036,Continuous,2022.1.1,None,
3,0,3,0,3,0,3,0,,,,,,,,2.0595925226069975,none,301.0,3.1682444997961174,0.00016339083125220083,0,29,[],0.02265107014682144,None,None,184.35780929995235,184.35780929995235,0.22545817017089576,2.2850506927778933,184.57421659992542,184.35780929995235,,,,,moiern,001,fr,0,2022-07-08_14h22.59.036,Continuous,2022.1.1,None,
3,0,3,0,4,0,4,0,,,,,,,,1.5838022836077257,none,143.0,-1.1006296948952081,0.0004955269270932633,0,30,[],0.02341947006061673,None,None,186.65923899994232,186.65923899994232,0.23201777006033808,1.8158200536680638,186.87479939998593,186.65923899994232,,,,,moiern,001,fr,0,2022-07-08_14h22.59.036,Continuous,2022.1.1,None,
3,0,3,0,5,0,5,0,,,,,,,,1.067576260490563,none,1704.0,-0.6277386430677314,5.7162335133825306e-05,0,31,[],0.020178270060569048,None,['space'],188.4793006000109,188.4793006000109,0.224387270049192,1.291963530539755,188.69742929993663,188.4793006000109,[-1.3533720000414178],,,,moiern,001,fr,0,2022-07-08_14h22.59.036,Continuous,2022.1.1,None,
3,0,3,0,6,0,6,0,,,,,,,,2.6942377269722955,none,,,,1,31,[],0.02248217014130205,None,None,189.79669559991453,189.79669559991453,0.22412057011388242,2.918358297086178,190.01867709995713,189.79669559991453,,,,,moiern,001,fr,0,2022-07-08_14h22.59.036,Continuous,2022.1.1,None,
3,0,3,0,7,0,7,0,,,,,,,,2.6130814730374885,none,568.0,-4.388771574005412,3.670513911586932e-05,0,32,[],0.024870670051313937,None,None,192.73235289996956,192.73235289996956,0.23154527007136494,2.8446267431088534,192.94675469992217,192.73235289996956,,,,,moiern,001,fr,0,2022-07-08_14h22.59.036,Continuous,2022.1.1,None,
3,0,3,0,8,0,8,0,,,,,,,,2.505721524820008,none,160.0,-3.7520753306935335,0.00026691085581642606,0,33,[],0.023439870099537075,None,['space'],195.58457099995576,195.58457099995576,0.2305828700773418,2.73630439489735,195.7948175999336,195.58457099995576,[-2.3945709000108764],,,,moiern,001,fr,0,2022-07-08_14h22.59.036,Continuous,2022.1.1,None,
3,0,3,0,9,0,9,0,,,,,,,,1.060271911490561,none,1205.0,-1.6057966312296497,4.37440325051301e-05,0,34,[],0.022411870071664453,None,['space'],198.3227734999964,198.3227734999964,0.2245378700317815,1.2848097815223425,198.54272329993546,198.3227734999964,[-1.3804293998982757],,,,moiern,001,fr,0,2022-07-08_14h22.59.036,Continuous,2022.1.1,None,
3,0,3,0,10,0,10,0,,,,,,,,2.271014570131767,none,127.0,-0.012578440105587951,0.0007038941730789396,0,35,[],0.02304487011861056,None,['space'],199.63153689994942,199.63153689994942,0.22950047010090202,2.5005150402326692,199.8531702000182,199.63153689994942,[-0.7213387000374496],,,,moiern,001,fr,0,2022-07-08_14h22.59.036,Continuous,2022.1.1,None,
3,0,3,0,11,0,11,0,,,,,,,,2.0466703518405494,none,379.0,-8.0,3.264724102951903e-05,0,36,[],0.023088570102117956,None,['space'],202.15242299996316,202.15242299996316,0.2257778700441122,2.2724482218846616,202.3668865999207,202.15242299996316,[-2.0905059999786317],,,,moiern,001,fr,0,2022-07-08_14h22.59.036,Continuous,2022.1.1,None,
3,0,3,0,12,0,12,0,,,,,,,,2.1125149644445496,none,1518.0,4.25869102123948,8.135158591828562e-05,0,37,[],0.023178869974799454,None,None,204.44513020000886,204.44513020000886,0.23129096999764442,2.343805934442194,204.66290319990367,204.44513020000886,,,,,moiern,001,fr,0,2022-07-08_14h22.59.036,Continuous,2022.1.1,None,
4,0,4,0,0,0,0,0,,,,,,209.9009148000041,None,1.2827239865608726,none,181.0,0.7431527097635295,0.00036453163398032963,0,38,[],0.02654907014220953,None,None,210.91865569993388,None,0.22600687015801668,1.5087308567188893,211.12859699991532,None,,206.79769599996507,None,"[0.3333333333333333, 0.5833333333333334, 0.16666666666666666, 0.16666666666666666, 0.3333333333333333, 0.16666666666666666, 0.3333333333333333, 0.5833333333333334, 0.16666666666666666, 0.16666666666666666, 0.3333333333333333, 0.5833333333333334, 0.3333333333333333, 0.3333333333333333, 0.3333333333333333]",moiern,001,fr,0,2022-07-08_14h22.59.036,Continuous,2022.1.1,None,
4,0,4,0,1,0,1,0,,,,,,,,1.5648254764704,none,203.0,-1.0,0.00023133723956864972,0,39,[],0.016458970145322382,None,None,212.44245289999526,212.44245289999526,0.21494977013207972,1.7797752466024797,212.65467700001318,212.44245289999526,,,,,moiern,001,fr,0,2022-07-08_14h22.59.036,Continuous,2022.1.1,None,
4,0,4,0,2,0,2,0,,,,,,,,1.78065605035454,none,430.0,0.07876670401043273,7.570488567432291e-05,0,40,[],0.02329677005764097,None,['space'],214.25073229998816,214.25073229998816,0.229560170089826,2.010216220444366,214.461453899974,214.25073229998816,[-1.276467000017874],,,,moiern,001,fr,0,2022-07-08_14h22.59.036,Continuous,2022.1.1,None,
4,0,4,0,3,0,3,0,,,,,,,,1.7683582026900637,none,228.0,0.16487410532104207,0.00021462036718987822,0,41,[],0.022984870010986924,None,['space'],216.2680396999931,216.2680396999931,0.22833307005930692,1.9966912727493706,216.47873869992327,216.2680396999931,[-1.4299570000730455],,,,moiern,001,fr,0,2022-07-08_14h22.59.036,Continuous,2022.1.1,None,
4,0,4,0,4,0,4,0,,,,,,,,1.6481477918099832,none,683.0,-0.5500437336241479,4.3662532267523015e-05,0,42,[],0.0230892701074481,None,['space'],218.27648569992743,218.27648569992743,0.2279067700728774,1.8760545618828606,218.49678359995596,218.27648569992743,[-1.582734000054188],,,,moiern,001,fr,0,2022-07-08_14h22.59.036,Continuous,2022.1.1,None,
4,0,4,0,5,0,5,0,,,,,,,,2.415105860913316,none,287.0,3.0426812026786196,0.00018209941195802083,0,43,[],0.017058370052836835,None,['space'],220.16568139998708,220.16568139998708,0.21652387001086026,2.631629730924176,220.3858977999771,220.16568139998708,[-1.3196745000313967],,,,moiern,001,fr,0,2022-07-08_14h22.59.036,Continuous,2022.1.1,None,
4,0,4,0,6,0,6,0,,,,,,,,2.1958472381759426,none,,,,1,43,[],0.021691370056942105,None,['space'],222.83111049991567,222.83111049991567,0.225655070040375,2.4215023082163176,223.05195779993664,222.83111049991567,[-2.2898691999725997],,,,moiern,001,fr,0,2022-07-08_14h22.59.036,Continuous,2022.1.1,None,
4,0,4,0,7,0,7,0,,,,,,,,2.3111753024449593,none,542.0,-0.6983394868624467,5.987958084056935e-05,0,44,[],0.020940269925631583,None,None,225.2684484999627,225.2684484999627,0.2196578698931262,2.5308331723380855,225.48729139997158,225.2684484999627,,,,,moiern,001,fr,0,2022-07-08_14h22.59.036,Continuous,2022.1.1,None,
5,0,5,0,0,0,0,0,,,,,0.3333333333333333,229.38592949998565,None,1.1591046446977051,both,151.0,-6.3621243881092315,0.00023615296311550353,0,26,[],0.02662897005211562,None,None,230.39669620001223,None,0.23422707011923194,1.393331714816937,230.61420119996183,None,,227.82786849990953,None,,moiern,001,fr,0,2022-07-08_14h22.59.036,Continuous,2022.1.1,None,
5,0,5,0,1,0,1,0,,,,,,,,1.1591046446977051,both,190.0,-7.543896700702415,0.00012665245340584213,0,27,[],0.01828256994485855,0.21453547000419348,None,231.79235249990597,231.79235249990597,0.21453547000419348,1.3736401147018986,232.0112672999967,231.79235249990597,,,,,moiern,001,fr,0,2022-07-08_14h22.59.036,Continuous,2022.1.1,None,
5,0,5,0,2,0,2,0,,,,,,,,1.1591046446977051,both,239.0,-3.350380305795946,0.00012853472499784109,0,28,[],0.019549170043319464,None,['space'],233.19295169995166,233.19295169995166,0.22373237006831914,1.3828370147660243,233.40823489998002,233.19295169995166,[-0.9071291000582278],,,,moiern,001,fr,0,2022-07-08_14h22.59.036,Continuous,2022.1.1,None,
5,0,5,0,3,0,3,0,,,,,,,,1.1591046446977051,both,301.0,-5.840910457389009,5.791218278959512e-05,0,29,[],0.02216617006342858,None,None,234.59392559994012,234.59392559994012,0.226715570082888,1.3858202147805931,234.8106166999787,234.59392559994012,,,,,moiern,001,fr,0,2022-07-08_14h22.59.036,Continuous,2022.1.1,None,
5,0,5,0,4,0,4,0,,,,,,,,1.1591046446977051,both,379.0,-8.0,3.264724102951903e-05,0,30,[],0.022741770138964057,None,None,235.99437649990432,235.99437649990432,0.23044307006057352,1.3895477147582787,236.2105583999073,235.99437649990432,,,,,moiern,001,fr,0,2022-07-08_14h22.59.036,Continuous,2022.1.1,None,
5,0,5,0,5,0,5,0,,,,,,,,1.1591046446977051,both,478.0,-7.0684170697074835,3.2160977965761254e-05,0,31,[],0.022584770107641816,None,None,237.39158189995214,237.39158189995214,0.2272912700427696,1.3863959147404747,237.60185889992863,237.39158189995214,,,,,moiern,001,fr,0,2022-07-08_14h22.59.036,Continuous,2022.1.1,None,
5,0,5,0,6,0,6,0,,,,,,,,1.1591046446977051,both,,,,1,31,[],0.022864570026285946,None,None,238.79346279997844,238.79346279997844,0.2313500699819997,1.3904547146797048,239.01085189997684,238.79346279997844,,,,,moiern,001,fr,0,2022-07-08_14h22.59.036,Continuous,2022.1.1,None,
5,0,5,0,7,0,7,0,,,,,,,,1.1591046446977051,both,758.0,-6.007897364155802,2.01683601562469e-05,0,32,[],0.023692770046181977,None,None,240.19303119997494,240.19303119997494,0.22676677000708878,1.385871414704794,240.40467610000633,240.19303119997494,,,,,moiern,001,fr,0,2022-07-08_14h22.59.036,Continuous,2022.1.1,None,
5,0,5,0,8,0,8,0,,,,,,,,1.1591046446977051,both,955.0,-4.583886585161622,2.523364907321734e-05,0,33,[],0.02247277006972581,None,None,241.59440149995498,241.59440149995498,0.2319665701361373,1.3910712148338424,241.80910199997015,241.59440149995498,,,,,moiern,001,fr,0,2022-07-08_14h22.59.036,Continuous,2022.1.1,None,
5,0,5,0,9,0,9,0,,,,,,,,1.1591046446977051,both,1203.0,5.590144165262165,0.00010000574861026266,0,34,[],0.02230087004136294,None,None,242.99388829991221,242.99388829991221,0.228996769990772,1.3881014146884771,243.20718349993695,242.99388829991221,,,,,moiern,001,fr,0,2022-07-08_14h22.59.036,Continuous,2022.1.1,None,
5,0,5,0,10,0,10,0,,,,,,,,1.1591046446977051,both,1516.0,3.6040885197256505,7.519009269129837e-05,0,35,[],0.02230387006420642,None,['space'],244.3953790999949,244.3953790999949,0.23345667007379234,1.3925613147714975,244.6092605999438,244.3953790999949,[-1.0453580000903457],,,,moiern,001,fr,0,2022-07-08_14h22.59.036,Continuous,2022.1.1,None,
6,0,6,0,0,0,0,0,,,,,0.3333333333333333,248.93793789995834,None,1.7934568983687538,both,274.0,3.958930715129732,0.00022408298567041555,0,36,[],0.02375757007393986,None,None,249.94694569997955,None,0.2339877700433135,2.027444668412067,250.16771680000238,None,,245.79194899997674,None,,moiern,001,fr,0,2022-07-08_14h22.59.036,Continuous,2022.1.1,None,
6,0,6,0,1,0,1,0,,,,,,,,1.7934568983687538,both,345.0,3.911892945860563,0.0001425074834020574,0,37,[],0.02176917006727308,None,None,251.98858150001615,251.98858150001615,0.22754157008603215,2.0209984684547857,252.2034637000179,251.98858150001615,,,,,moiern,001,fr,0,2022-07-08_14h22.59.036,Continuous,2022.1.1,None,
6,0,6,0,2,0,2,0,,,,,,,,1.7934568983687538,both,435.0,2.1622417416839683,9.589945889105108e-05,0,38,[],0.02210107014980167,None,None,254.03101109992713,254.03101109992713,0.22817027010023594,2.0216271684689895,254.25161839998327,254.03101109992713,,,,,moiern,001,fr,0,2022-07-08_14h22.59.036,Continuous,2022.1.1,None,
6,0,6,0,3,0,3,0,,,,,,,,1.7934568983687538,both,548.0,3.892131445593798,0.00010011346300918215,0,39,[],0.01761037006508559,0.21413397009018809,['space'],256.06858769990504,256.06858769990504,0.21413397009018809,2.0075908684589416,256.2868086999515,256.06858769990504,[-1.5578257000306621],,,,moiern,001,fr,0,2022-07-08_14h22.59.036,Continuous,2022.1.1,None,
6,0,6,0,4,0,4,0,,,,,,,,1.7934568983687538,both,691.0,1.6328688965076106,5.529105543725111e-05,0,40,[],0.021798470057547092,None,['space'],258.11055420001503,258.11055420001503,0.22772067005280405,2.0211775684215576,258.3237940999679,258.11055420001503,[-1.6647548999171704],,,,moiern,001,fr,0,2022-07-08_14h22.59.036,Continuous,2022.1.1,None,
6,0,6,0,5,0,5,0,,,,,,,,1.7934568983687538,both,871.0,1.8903127253451313,5.0204974603526784e-05,0,41,[],0.021849970100447536,None,['space'],260.14885729993694,260.14885729993694,0.2291940700961277,2.0226509684648812,260.3713065999327,260.14885729993694,[-1.5831142000388354],,,,moiern,001,fr,0,2022-07-08_14h22.59.036,Continuous,2022.1.1,None,
6,0,6,0,6,0,6,0,,,,,,,,1.7934568983687538,both,1097.0,4.082456810144028,7.697598600073988e-05,0,42,[],0.0218712700298056,None,['space'],262.1887586999219,262.1887586999219,0.22737227007746696,2.0208291684462205,262.4098353999434,262.1887586999219,[-1.6542245999444276],,,,moiern,001,fr,0,2022-07-08_14h22.59.036,Continuous,2022.1.1,None,
6,0,6,0,7,0,7,0,,,,,,,,1.7934568983687538,both,1382.0,5.728290662499934,9.907330879212416e-05,0,43,[],0.017273470060899854,None,['space'],264.2282167999074,264.2282167999074,0.21328457002528012,2.0067414683940337,264.4458694999339,264.2282167999074,[-1.718384200008586],,,,moiern,001,fr,0,2022-07-08_14h22.59.036,Continuous,2022.1.1,None,
6,0,6,0,8,0,8,0,,,,,,,,1.7934568983687538,both,1741.0,4.0,0.00010003390743958118,0,44,[],0.0217822699341923,None,['space'],266.2705966999056,266.2705966999056,0.23013726994395256,2.023594168312706,266.48772819992155,266.2705966999056,[-1.760836600093171],,,,moiern,001,fr,0,2022-07-08_14h22.59.036,Continuous,2022.1.1,None,
6,0,6,0,9,0,9,0,,,,,,,,1.7934568983687538,both,2194.0,3.2086875628005695,0.00011446640028255272,0,45,[],0.021797569934278727,None,['space'],268.310956900008,268.310956900008,0.22947966994252056,2.022936568311274,268.5330416999059,268.310956900008,[-1.7367170999059454],,,,moiern,001,fr,0,2022-07-08_14h22.59.036,Continuous,2022.1.1,None,
6,0,6,0,10,0,10,0,,,,,,,,1.7934568983687538,both,2764.0,-0.2286354763883458,6.768437569125228e-05,0,46,[],0.020705870119854808,None,['space'],270.3492072999943,270.3492072999943,0.2242739701177925,2.017730868486546,270.5703598000109,270.3492072999943,[-1.638800699962303],,,,moiern,001,fr,0,2022-07-08_14h22.59.036,Continuous,2022.1.1,None,
6,0,6,0,11,0,11,0,,,,,,,,1.7934568983687538,both,3482.0,3.095057220786981,0.00010688783410933014,0,47,[],0.014104369911365211,None,['space'],272.3930818999652,272.3930818999652,0.21104306995403022,2.0044999683227838,272.6095798999304,272.3930818999652,[-1.7236719999928027],,,,moiern,001,fr,0,2022-07-08_14h22.59.036,Continuous,2022.1.1,None,
6,0,6,0,12,0,12,0,,,,,,,,1.7934568983687538,both,,,,1,47,[],0.008183570113033056,None,['space'],274.44475789996795,274.44475789996795,0.2076968700857833,2.001153768454537,274.66038839996327,274.44475789996795,[-1.7676106999861076],,,,moiern,001,fr,0,2022-07-08_14h22.59.036,Continuous,2022.1.1,None,
6,0,6,0,13,0,13,0,,,,,,,,1.7934568983687538,both,5527.0,1.5861318809665248,0.0001600208592910641,0,48,[],0.022611770080402493,None,None,276.487303199945,276.487303199945,0.22869687003549188,2.0221537684042454,276.70408809999935,276.487303199945,,,,,moiern,001,fr,0,2022-07-08_14h22.59.036,Continuous,2022.1.1,None,
,,,,,,,,,,,,,,,1.7934568983687538,both,6964.0,2.9276924097869528,0.00021031377807434362,0,49,[],,,,,,,,,,,,,,,,,,,,,,
