sweeps.thisRepN,sweeps.thisTrialN,sweeps.thisN,sweeps.thisIndex,trials.thisRepN,trials.thisTrialN,trials.thisN,trials.thisIndex,instructions.started,instructions.stopped,blank_text.started,blank_text.stopped,Intervals,text.started,text.stopped,Delay,Prediction,Frequency,Volume,Psychopy_level,isCatchTrial,len(y),finished_audiograms,probe.started,probe.stopped,feedback.keys,feedback.started,feedback.stopped,ISI.started,ISI.stopped,text_2.started,text_2.stopped,feedback.rt,break_txt.started,break_txt.stopped,,Audiogram_none,Audiogram_frequency,Audiogram_time,Audiogram_both,end_txt.started,end_txt.stopped,participant,session,language (english or french),Resume previous experiment,date,expName,psychopyVersion,frameRate,
0,0,0,0,0,0,0,0,51.64441589999478,None,58.93980049993843,None,"[0.5833333333333334, 0.5833333333333334, 0.3333333333333333, 0.5833333333333334, 0.5833333333333334, 0.5833333333333334, 0.5833333333333334, 0.16666666666666666, 0.5833333333333334, 0.5833333333333334, 0.5833333333333334, 0.5833333333333334, 0.5833333333333334, 0.3333333333333333, 0.3333333333333333]",63.36978189996444,None,2.085596609909964,none,4925.0,0.0,0.00014758561655417712,0,45,[],0.02220012992620468,0.2174966299207881,None,64.38077339995652,None,0.2174966299207881,2.303093239830752,64.58980610000435,None,,,,,,,,,,,moiern,001,fr,1,2022-07-08_14h28.56.466,Continuous,2022.1.1,35.9595814257947,
0,0,0,0,1,0,1,0,,,,,,,,2.879688583143951,none,1304.0,0.8340444172191006,5.8527139074198105e-05,0,46,[],0.022859330056235194,None,['space'],66.66689559991937,66.66689559991937,0.2315801300574094,3.1112687132013606,66.88712949992623,66.66689559991937,[-0.9599722999846563],,,,,,,,,,moiern,001,fr,1,2022-07-08_14h28.56.466,Continuous,2022.1.1,35.9595814257947,
0,0,0,0,2,0,2,0,,,,,,,,2.506529848963762,none,3287.0,-0.8462756336281476,6.479345658040391e-05,0,47,[],0.022620429983362556,None,['space'],69.76326119992882,69.76326119992882,0.22844622994307429,2.7349760789068362,69.97658949997276,69.76326119992882,[-2.7036324000218883],,,,,,,,,,moiern,001,fr,1,2022-07-08_14h28.56.466,Continuous,2022.1.1,35.9595814257947,
0,0,0,0,3,0,3,0,,,,,,,,2.341801456703219,none,1954.0,3.3068255349904616,0.00010643468209332193,0,48,[],0.022898429888300598,None,['space'],72.47396400000434,72.47396400000434,0.23036262998357415,2.572164086686793,72.6947640000144,72.47396400000434,[-2.2958861000370234],,,,,,,,,,moiern,001,fr,1,2022-07-08_14h28.56.466,Continuous,2022.1.1,35.9595814257947,
0,0,0,0,4,0,4,0,,,,,,,,2.5534540732105757,none,461.0,0.09617134219242052,7.425509891809718e-05,0,49,[],0.022538830060511827,None,['space'],75.0383008000208,75.0383008000208,0.2455035300226882,2.798957603233264,75.26472520001698,75.0383008000208,[-2.1878352999920025],,,,,,,,,,moiern,001,fr,1,2022-07-08_14h28.56.466,Continuous,2022.1.1,35.9595814257947,
0,0,0,0,5,0,5,0,,,,,,,,1.472040686037381,none,581.0,-0.7537979989140835,5.3920193445561794e-05,0,50,[],0.021179530071094632,None,['space'],77.80807489994913,77.80807489994913,0.2377487301127985,1.7097894161501794,78.02884479996283,77.80807489994913,[-2.3974821999436244],,,,,,,,,,moiern,001,fr,1,2022-07-08_14h28.56.466,Continuous,2022.1.1,35.9595814257947,
0,0,0,0,6,0,6,0,,,,,,,,2.9229581815948826,none,870.0,1.4412465929758027,4.7641749452058396e-05,0,51,[],0.014007130055688322,None,['space'],79.49850520002656,79.49850520002656,0.22877713001798838,3.151735311612871,79.72503560001496,79.49850520002656,[-1.2873554000398144],,,,,,,,,,moiern,001,fr,1,2022-07-08_14h28.56.466,Continuous,2022.1.1,35.9595814257947,
0,0,0,0,7,0,7,0,,,,,,,,1.3697972845169482,none,,,,1,51,[],0.022439630003646016,0.21694742992985994,['space'],82.64688739995472,82.64688739995472,0.21694742992985994,1.586744714446808,82.85261729999911,82.64688739995472,[-2.7484438000246882],,,,,,,,,,moiern,001,fr,1,2022-07-08_14h28.56.466,Continuous,2022.1.1,35.9595814257947,
0,0,0,0,8,0,8,0,,,,,,,,1.064318738273899,none,308.0,0.5940980152861153,0.00011354351407904464,0,52,[],0.02397103002294898,None,None,84.2240275000222,84.2240275000222,0.22121752996463329,1.2855362682385323,84.43931089993566,84.2240275000222,,,,,,,,,,,moiern,001,fr,1,2022-07-08_14h28.56.466,Continuous,2022.1.1,35.9595814257947,
0,0,0,0,9,0,9,0,,,,,,,,1.9467985221563067,none,7379.0,0.5142878816681296,0.0001726402620863514,0,53,[],0.021670729969628155,0.21536083007231355,None,85.50099520001095,85.50099520001095,0.21536083007231355,2.1621593522286204,85.7033774999436,85.50099520001095,,,,,,,,,,,moiern,001,fr,1,2022-07-08_14h28.56.466,Continuous,2022.1.1,35.9595814257947,
0,0,0,0,10,0,10,0,,,,,,,,1.2260893441999297,none,2928.0,-1.9211368521916796,4.7531850285616584e-05,0,54,[],0.02161533001344651,None,['space'],87.6522901999997,87.6522901999997,0.24315663008019328,1.469245974280123,87.87640880001709,87.6522901999997,[-1.6975970999337733],,,,,,,,,,moiern,001,fr,1,2022-07-08_14h28.56.466,Continuous,2022.1.1,35.9595814257947,
1,0,1,0,0,0,0,0,,,,,"[0.3333333333333333, 0.16666666666666666, 0.3333333333333333, 0.16666666666666666, 0.3333333333333333, 0.16666666666666666, 0.3333333333333333, 0.16666666666666666, 0.16666666666666666, 0.16666666666666666, 0.3333333333333333, 0.5833333333333334, 0.5833333333333334, 0.3333333333333333, 0.3333333333333333]",91.52193759998772,None,2.005513058583646,time,893.0,2.0,5.163017546782835e-05,0,37,[],0.020068129990249872,None,None,92.54610219993629,None,0.24487752991262823,2.2503905884962743,92.7777489,None,,89.09320649993606,None,,,,,,,,moiern,001,fr,1,2022-07-08_14h28.56.466,Continuous,2022.1.1,35.9595814257947,
1,0,1,0,1,0,1,0,,,,,,,,2.005513058583646,time,158.0,1.8604645715605115,0.0005313816707997017,0,38,[],0.0213207300985232,None,['space'],94.77713409997523,94.77713409997523,0.2453980300342664,2.2509110886179124,95.00313560001086,94.77713409997523,[-0.6066659999778494],,,,,,,,,,moiern,001,fr,1,2022-07-08_14h28.56.466,Continuous,2022.1.1,35.9595814257947,
1,0,1,0,2,0,2,0,,,,,,,,2.005513058583646,time,709.0,1.522500582502479,5.2712058184324945e-05,0,39,[],0.021997930016368628,None,['space'],97.00434809993021,97.00434809993021,0.24526582995895296,2.250778888542599,97.2341992999427,97.00434809993021,[-1.7855574999703094],,,,,,,,,,moiern,001,fr,1,2022-07-08_14h28.56.466,Continuous,2022.1.1,35.9595814257947,
1,0,1,0,3,0,3,0,,,,,,,,2.005513058583646,time,177.0,2.0,0.0004396264554036418,0,40,[],0.012716430006548762,0.20064282999373972,['space'],99.23765489994548,99.23765489994548,0.20064282999373972,2.2061558885773858,99.44720890000463,99.23765489994548,[-1.866521899937652],,,,,,,,,,moiern,001,fr,1,2022-07-08_14h28.56.466,Continuous,2022.1.1,35.9595814257947,
1,0,1,0,4,0,4,0,,,,,,,,2.005513058583646,time,,,,1,40,[],0.021815629908815026,0.21515102998819202,['space'],101.4487607999472,101.4487607999472,0.21515102998819202,2.220664088571838,101.65622999996413,101.4487607999472,[-1.8057470000348985],,,,,,,,,,moiern,001,fr,1,2022-07-08_14h28.56.466,Continuous,2022.1.1,35.9595814257947,
1,0,1,0,5,0,5,0,,,,,,,,2.005513058583646,time,563.0,0.05434198574965199,6.200337855431677e-05,0,41,[],0.02353113004937768,None,None,103.65542760002427,103.65542760002427,0.21698522998485714,2.222498288568503,103.86544939992018,103.65542760002427,,,,,,,,,,,moiern,001,fr,1,2022-07-08_14h28.56.466,Continuous,2022.1.1,35.9595814257947,
1,0,1,0,6,0,6,0,,,,,,,,2.005513058583646,time,376.0,2.7582750608674544,0.00011372746191832964,0,42,[],0.012926730094477534,None,['space'],105.8778020000318,105.8778020000318,0.230900930124335,2.236413988707981,106.10910759994294,105.8778020000318,[-1.2196516999974847],,,,,,,,,,moiern,001,fr,1,2022-07-08_14h28.56.466,Continuous,2022.1.1,35.9595814257947,
1,0,1,0,7,0,7,0,,,,,,,,2.005513058583646,time,199.0,1.9375133378971827,0.00033632865005663265,0,43,[],0.020430029835551977,0.21340212982613593,['space'],108.10725649993401,108.10725649993401,0.21340212982613593,2.218915188409782,108.31401089997962,108.10725649993401,[-1.8403469999320805],,,,,,,,,,moiern,001,fr,1,2022-07-08_14h28.56.466,Continuous,2022.1.1,35.9595814257947,
1,0,1,0,8,0,8,0,,,,,,,,2.005513058583646,time,141.0,1.7426820473375044,0.0007091985431239338,0,44,[],0.021941830054856837,None,['space'],110.31743709999137,110.31743709999137,0.2159494300140068,2.221462488597653,110.52798339992296,110.31743709999137,[-1.7945078000193462],,,,,,,,,,moiern,001,fr,1,2022-07-08_14h28.56.466,Continuous,2022.1.1,35.9595814257947,
2,0,2,0,0,0,0,0,,,,,"[0.16666666666666666, 0.3333333333333333, 0.3333333333333333, 0.5833333333333334, 0.3333333333333333, 0.3333333333333333, 0.16666666666666666, 0.16666666666666666, 0.3333333333333333, 0.3333333333333333, 0.16666666666666666, 0.5833333333333334, 0.5833333333333334, 0.16666666666666666, 0.16666666666666666]",116.46462059998885,None,2.011770568732481,none,8000.0,4.0,0.0002877199686685786,0,55,[],0.023715729941613972,None,None,117.48090720002074,None,0.2383795299101621,2.250150098642643,117.69932599994354,None,,112.53795769996941,None,,,,,,,,moiern,001,fr,1,2022-07-08_14h28.56.466,Continuous,2022.1.1,35.9595814257947,
2,0,2,0,1,0,1,0,,,,,,,,1.9185000015781817,none,1335.0,6.141106276617344,0.00010626198508237051,0,56,[],0.016340230009518564,None,None,119.70222420000937,119.70222420000937,0.22862722992431372,2.1471272315024956,119.93043169996236,119.70222420000937,,,,,,,,,,,moiern,001,fr,1,2022-07-08_14h28.56.466,Continuous,2022.1.1,35.9595814257947,
2,0,2,0,2,0,2,0,,,,,,,,1.3350618488573052,none,5657.0,1.6034376878822356,0.00015457415994065576,0,57,[],0.02212783007416874,None,['space'],121.84447040001396,121.84447040001396,0.22762243007309735,1.5626842789304025,122.05714519997127,121.84447040001396,[-1.7935902000172064],,,,,,,,,,moiern,001,fr,1,2022-07-08_14h28.56.466,Continuous,2022.1.1,35.9595814257947,
2,0,2,0,3,0,3,0,,,,,,,,1.7775432633118613,none,2119.0,3.282141858021644,0.00011301257414576535,0,58,[],0.021976030082441866,None,['space'],123.39303069992457,123.39303069992457,0.22729183011688292,2.004835093428744,123.6158102999907,123.39303069992457,[-1.1739426999120042],,,,,,,,,,moiern,001,fr,1,2022-07-08_14h28.56.466,Continuous,2022.1.1,35.9595814257947,
2,0,2,0,4,0,4,0,,,,,,,,2.653757632884426,none,3175.0,3.065338798623095,9.885294798136187e-05,0,59,[],0.02191313006915152,None,['space'],125.38290919992141,125.38290919992141,0.23027783003635705,2.884035462920783,125.6009443999501,125.38290919992141,[-1.2916051999200135],,,,,,,,,,moiern,001,fr,1,2022-07-08_14h28.56.466,Continuous,2022.1.1,35.9595814257947,
2,0,2,0,5,0,5,0,,,,,,,,2.713468454614972,none,5040.0,0.7971269497431637,0.0001658105016416014,0,60,[],0.021609629970043898,None,['space'],128.2522199000232,128.2522199000232,0.2274392299586907,2.940907684573663,128.46422189997975,128.2522199000232,[-2.529486000072211],,,,,,,,,,moiern,001,fr,1,2022-07-08_14h28.56.466,Continuous,2022.1.1,35.9595814257947,
2,0,2,0,6,0,6,0,,,,,,,,1.3938930318124123,none,1682.0,4.386693949045954,0.00010017359053553782,0,61,[],0.01009453006554395,None,['space'],131.1855719999876,131.1855719999876,0.2126151300035417,1.606508161815954,131.40327220002655,131.1855719999876,[-2.5351637999992818],,,,,,,,,,moiern,001,fr,1,2022-07-08_14h28.56.466,Continuous,2022.1.1,35.9595814257947,
2,0,2,0,7,0,7,0,,,,,,,,1.2857178486569192,none,6350.0,3.29734725912133,0.00019225207750114741,0,62,[],0.018653729930520058,None,['space'],132.79873609996866,132.79873609996866,0.22659022989682853,1.5123080785537477,133.0177357000066,132.79873609996866,[-1.1326929000206292],,,,,,,,,,moiern,001,fr,1,2022-07-08_14h28.56.466,Continuous,2022.1.1,35.9595814257947,
2,0,2,0,8,0,8,0,,,,,,,,2.8379374166826725,none,4000.0,-0.026699366594255647,8.368257511251103e-05,0,63,[],0.01870332984253764,None,['space'],134.29990679991897,134.29990679991897,0.22227092983666807,3.0602083465193406,134.51892770000268,134.29990679991897,[-1.0810063999379054],,,,,,,,,,moiern,001,fr,1,2022-07-08_14h28.56.466,Continuous,2022.1.1,35.9595814257947,
2,0,2,0,9,0,9,0,,,,,,,,2.446546417726921,none,,,,1,63,[],0.020007129991427064,None,['space'],137.3518780999584,137.3518780999584,0.22272882994730026,2.6692752476742214,137.57336229993962,137.3518780999584,[-2.6453631999902427],,,,,,,,,,moiern,001,fr,1,2022-07-08_14h28.56.466,Continuous,2022.1.1,35.9595814257947,
3,0,3,0,0,0,0,0,,,,,"[0.16666666666666666, 0.16666666666666666, 0.5833333333333334, 0.5833333333333334, 0.16666666666666666, 0.16666666666666666, 0.5833333333333334, 0.3333333333333333, 0.16666666666666666, 0.16666666666666666, 0.5833333333333334, 0.3333333333333333, 0.3333333333333333, 0.16666666666666666, 0.16666666666666666]",142.14783469995018,None,1.3164604254108718,time,2071.0,1.7170985965318901,9.308222601897682e-05,0,45,[],0.02387312997598201,None,None,143.16102150001097,None,0.2518565299687907,1.5683169553796625,143.39387699996587,None,,140.02063659997657,None,,,,,,,,moiern,001,fr,1,2022-07-08_14h28.56.466,Continuous,2022.1.1,35.9595814257947,
3,0,3,0,1,0,1,0,,,,,,,,1.3164604254108718,time,822.0,0.5366265805209213,4.147839408644989e-05,0,46,[],0.021228529862128198,None,['space'],144.70293519995175,144.70293519995175,0.22214682993944734,1.5386072553503192,144.91395970003214,144.70293519995175,[-0.9717768999980763],,,,,,,,,,moiern,001,fr,1,2022-07-08_14h28.56.466,Continuous,2022.1.1,35.9595814257947,
3,0,3,0,2,0,2,0,,,,,,,,1.3164604254108718,time,3483.0,-0.3306312184251876,7.20685358972387e-05,0,47,[],0.01637462992221117,0.21597952989395708,None,146.23245230002794,146.23245230002794,0.21597952989395708,1.532439955304829,146.44817699992564,146.23245230002794,,,,,,,,,,,moiern,001,fr,1,2022-07-08_14h28.56.466,Continuous,2022.1.1,35.9595814257947,
3,0,3,0,3,0,3,0,,,,,,,,1.3164604254108718,time,732.0,0.004152202954544985,4.2240182051388107e-05,0,48,[],0.017969129839912057,None,['space'],147.76470319996588,147.76470319996588,0.2198007298866287,1.5362611552975005,147.98221679998096,147.76470319996588,[-1.0655850000912324],,,,,,,,,,moiern,001,fr,1,2022-07-08_14h28.56.466,Continuous,2022.1.1,35.9595814257947,
3,0,3,0,4,0,4,0,,,,,,,,1.3164604254108718,time,2325.0,0.6423581540620458,8.831150139007573e-05,0,49,[],0.015094330068677664,None,['space'],149.30194929998834,149.30194929998834,0.21172683010809124,1.528187255518963,149.5181146999821,149.30194929998834,[-0.9548634000821039],,,,,,,,,,moiern,001,fr,1,2022-07-08_14h28.56.466,Continuous,2022.1.1,35.9595814257947,
3,0,3,0,5,0,5,0,,,,,,,,1.3164604254108718,time,4388.0,-0.07218180543893893,0.00010972126360148362,0,50,[],0.021399429999291897,None,['space'],150.8333054999821,150.8333054999821,0.2315612300299108,1.5480216554407826,151.05317540001124,150.8333054999821,[-1.0537381999893114],,,,,,,,,,moiern,001,fr,1,2022-07-08_14h28.56.466,Continuous,2022.1.1,35.9595814257947,
3,0,3,0,6,0,6,0,,,,,,,,1.3164604254108718,time,1231.0,0.1330688693079951,5.454375785413442e-05,0,51,[],0.021268230048008263,None,['space'],152.3619457000168,152.3619457000168,0.2272074300562963,1.5436678554671681,152.57646509993356,152.3619457000168,[-1.1675362000241876],,,,,,,,,,moiern,001,fr,1,2022-07-08_14h28.56.466,Continuous,2022.1.1,35.9595814257947,
3,0,3,0,7,0,7,0,,,,,,,,1.3164604254108718,time,1845.0,1.401257699937148,7.968492581271064e-05,0,52,[],0.021140330005437136,None,['space'],153.8921889999183,153.8921889999183,0.22743973007891327,1.543900155489785,154.1107707999181,153.8921889999183,[-1.2256527999415994],,,,,,,,,,moiern,001,fr,1,2022-07-08_14h28.56.466,Continuous,2022.1.1,35.9595814257947,
3,0,3,0,8,0,8,0,,,,,,,,1.3164604254108718,time,4925.0,0.0,0.00014758561655417712,0,53,[],0.021294230013154447,None,['space'],155.42295149993151,155.42295149993151,0.22673193004447967,1.5431923554553515,155.64164759998675,155.42295149993151,[-1.1875255999621004],,,,,,,,,,moiern,001,fr,1,2022-07-08_14h28.56.466,Continuous,2022.1.1,35.9595814257947,
3,0,3,0,9,0,9,0,,,,,,,,1.3164604254108718,time,5528.0,0.38680596387694066,0.00013934460307865208,0,54,[],0.02124142984393984,None,['space'],156.9530307999812,156.9530307999812,0.2287345299264416,1.5451949553373134,157.1660326999845,156.9530307999812,[-1.190139799960889],,,,,,,,,,moiern,001,fr,1,2022-07-08_14h28.56.466,Continuous,2022.1.1,35.9595814257947,
3,0,3,0,10,0,10,0,,,,,,,,1.3164604254108718,time,,,,1,54,[],0.014299829839728773,None,None,158.48108669999056,158.48108669999056,0.21876312990207225,1.535223555312944,158.6991960000014,158.48108669999056,,,,,,,,,,,moiern,001,fr,1,2022-07-08_14h28.56.466,Continuous,2022.1.1,35.9595814257947,
4,0,4,0,0,0,0,0,,,,,"[0.16666666666666666, 0.3333333333333333, 0.16666666666666666, 0.3333333333333333, 0.16666666666666666, 0.16666666666666666, 0.16666666666666666, 0.16666666666666666, 0.3333333333333333, 0.16666666666666666, 0.16666666666666666, 0.3333333333333333, 0.16666666666666666, 0.16666666666666666, 0.3333333333333333]",163.89594149996992,None,1.4481121612408148,none,1741.0,-10.423033409578782,1.9010588562099945e-05,0,64,[],0.023056229925714433,None,['space'],164.91711189993657,None,0.2218402299331501,1.6699523911739649,165.12444609997328,None,[-1.8904149999143556],160.01698159996886,None,,,,,,,,moiern,001,fr,1,2022-07-08_14h28.56.466,Continuous,2022.1.1,35.9595814257947,
4,0,4,0,1,0,1,0,,,,,,,,2.4528322838978864,none,691.0,-4.070726323414084,2.8673131017974012e-05,0,65,[],0.020105629926547408,None,['space'],166.57235699996818,166.57235699996818,0.22573352989275008,2.6785658137906365,166.79119999997783,166.57235699996818,[-0.9295298999641091],,,,,,,,,,moiern,001,fr,1,2022-07-08_14h28.56.466,Continuous,2022.1.1,35.9595814257947,
4,0,4,0,2,0,2,0,,,,,,,,1.6989741149905297,none,4924.0,-1.3944078145075276,0.00012563803162570316,0,66,[],0.019581629894673824,None,['space'],169.23609070002567,169.23609070002567,0.2226366299437359,1.9216107449342656,169.45584039995447,169.23609070002567,[-2.177074500010349],,,,,,,,,,moiern,001,fr,1,2022-07-08_14h28.56.466,Continuous,2022.1.1,35.9595814257947,
4,0,4,0,3,0,3,0,,,,,,,,2.172271432626763,none,870.0,-4.281593932817435,2.4651631919657692e-05,0,67,[],0.018550729961134493,None,['space'],171.15426779992413,171.15426779992413,0.22482262994162738,2.3970940625683905,171.37163900001906,171.15426779992413,[-1.4711267999373376],,,,,,,,,,moiern,001,fr,1,2022-07-08_14h28.56.466,Continuous,2022.1.1,35.9595814257947,
4,0,4,0,4,0,4,0,,,,,,,,2.113421082227313,none,1954.0,-9.276898244721743,2.499752309705361e-05,0,68,[],0.020779729820787907,None,['space'],173.54804329993203,173.54804329993203,0.22825332987122238,2.3416744120985356,173.76174989994615,173.54804329993203,[-2.001126099959947],,,,,,,,,,moiern,001,fr,1,2022-07-08_14h28.56.466,Continuous,2022.1.1,35.9595814257947,
4,0,4,0,5,0,5,0,,,,,,,,2.0521020441655837,none,1551.0,-5.104418160529059,2.9231818470030593e-05,0,69,[],0.01876763009931892,None,None,175.87684849998914,175.87684849998914,0.2197986301034689,2.2719006742690526,176.09351189993322,175.87684849998914,,,,,,,,,,,moiern,001,fr,1,2022-07-08_14h28.56.466,Continuous,2022.1.1,35.9595814257947,
4,0,4,0,6,0,6,0,,,,,,,,2.1292417472708696,none,3102.0,-6.90034308285016,2.9133036714440387e-05,0,70,[],0.015986430109478533,None,None,178.14703330001794,178.14703330001794,0.22083383006975055,2.35007557734062,178.36816670000553,178.14703330001794,,,,,,,,,,,moiern,001,fr,1,2022-07-08_14h28.56.466,Continuous,2022.1.1,35.9595814257947,
4,0,4,0,7,0,7,0,,,,,,,,2.0307432397688503,none,3908.0,-4.107656978505022,5.130386322143865e-05,0,71,[],0.01797192997764796,None,None,180.4979140999494,180.4979140999494,0.21854662988334894,2.2492898696521992,180.71683369996026,180.4979140999494,,,,,,,,,,,moiern,001,fr,1,2022-07-08_14h28.56.466,Continuous,2022.1.1,35.9595814257947,
4,0,4,0,8,0,8,0,,,,,,,,1.6158486744426772,none,4387.0,-5.257931325257705,6.0357764979376e-05,0,72,[],0.02068173000589013,None,['space'],182.7421898000175,182.7421898000175,0.22730723000131547,1.8431559044439927,182.9537645999808,182.7421898000175,[-1.723117099958472],,,,,,,,,,moiern,001,fr,1,2022-07-08_14h28.56.466,Continuous,2022.1.1,35.9595814257947,
4,0,4,0,9,0,9,0,,,,,,,,2.906225390803794,none,1382.0,-0.1063948710057474,5.060837479429465e-05,0,73,[],0.012067030067555606,0.20686472998932004,['space'],184.5705649999436,184.5705649999436,0.20686472998932004,3.113090120793114,184.78981009998824,184.5705649999436,[-1.0391255000140518],,,,,,,,,,moiern,001,fr,1,2022-07-08_14h28.56.466,Continuous,2022.1.1,35.9595814257947,
4,0,4,0,10,0,10,0,,,,,,,,1.7270476125693908,none,2462.0,-12.0,2.136436348573885e-05,0,74,[],0.012553130043670535,None,['space'],187.69654439995065,187.69654439995065,0.21236802998464555,1.9394156425540363,187.91403799992986,187.69654439995065,[-2.5813281000591815],,,,,,,,,,moiern,001,fr,1,2022-07-08_14h28.56.466,Continuous,2022.1.1,35.9595814257947,
4,0,4,0,11,0,11,0,,,,,,,,2.2003854183492697,none,,,,1,74,[],0.020497129997238517,None,None,189.63988509995397,189.63988509995397,0.22563852998428047,2.42602394833355,189.85557319992222,189.63988509995397,,,,,,,,,,,moiern,001,fr,1,2022-07-08_14h28.56.466,Continuous,2022.1.1,35.9595814257947,
4,0,4,0,12,0,12,0,,,,,,,,1.278735505086105,none,1231.0,-5.818708984694528,2.7488824156270063e-05,0,75,[],0.02087483007926494,None,None,192.0513824999798,192.0513824999798,0.22320723009761423,1.5019427351837191,192.26356410002336,192.0513824999798,,,,,,,,,,,moiern,001,fr,1,2022-07-08_14h28.56.466,Continuous,2022.1.1,35.9595814257947,
4,0,4,0,13,0,13,0,,,,,,,,2.011123005087869,none,2764.0,-2.5734862530487304,5.167088363564449e-05,0,76,[],0.020356729859486222,None,['space'],193.5445366000058,193.5445366000058,0.23115892987698317,2.242281934964852,193.75523489993066,193.5445366000058,[-0.9812049000756815],,,,,,,,,,moiern,001,fr,1,2022-07-08_14h28.56.466,Continuous,2022.1.1,35.9595814257947,
4,0,4,0,14,0,14,0,,,,,,,,1.1810516518148602,none,977.0,-4.502119288487661,2.584468053899953e-05,0,77,[],0.018467229907400906,None,None,195.76353609992657,195.76353609992657,0.2202048299368471,1.4012564817517073,195.98545479995664,195.76353609992657,,,,,,,,,,,moiern,001,fr,1,2022-07-08_14h28.56.466,Continuous,2022.1.1,35.9595814257947,
5,0,5,0,0,0,0,0,,,,,"[0.3333333333333333, 0.3333333333333333, 0.3333333333333333, 0.5833333333333334, 0.3333333333333333, 0.5833333333333334, 0.5833333333333334, 0.3333333333333333, 0.3333333333333333, 0.5833333333333334, 0.3333333333333333, 0.3333333333333333, 0.5833333333333334, 0.16666666666666666, 0.5833333333333334]",201.41710730001796,None,2.984451911293837,time,2245.0,0.20023630380835722,8.211409273790883e-05,0,55,[],0.023802830022759736,None,None,202.45133319997694,None,0.22426603001076728,3.208717941304604,202.66255010000896,None,,197.16513560002204,None,,,,,,,,moiern,001,fr,1,2022-07-08_14h28.56.466,Continuous,2022.1.1,35.9595814257947,
5,0,5,0,1,0,1,0,,,,,,,,2.984451911293837,time,8000.0,0.0,0.0001815390273850507,0,56,[],0.01969093002844602,None,None,205.65257079992443,205.65257079992443,0.24162143003195524,3.226073341325792,205.8770609999774,205.65257079992443,,,,,,,,,,,moiern,001,fr,1,2022-07-08_14h28.56.466,Continuous,2022.1.1,35.9595814257947,
5,0,5,0,2,0,2,0,,,,,,,,2.984451911293837,time,3364.0,-1.4430223278581165,6.163619491776618e-05,0,57,[],0.020181229920126498,None,None,208.86047930002678,208.86047930002678,0.2272422299720347,3.2116941412658715,209.07592779991683,208.86047930002678,,,,,,,,,,,moiern,001,fr,1,2022-07-08_14h28.56.466,Continuous,2022.1.1,35.9595814257947,
5,0,5,0,3,0,3,0,,,,,,,,2.984451911293837,time,749.0,0.21040856737046,4.1727897747157066e-05,0,58,[],0.020236630109138787,None,['space'],212.05531139997765,212.05531139997765,0.22695503011345863,3.2114069414072954,212.27193179994356,212.05531139997765,[-2.4598728999262676],,,,,,,,,,moiern,001,fr,1,2022-07-08_14h28.56.466,Continuous,2022.1.1,35.9595814257947,
5,0,5,0,4,0,4,0,,,,,,,,2.984451911293837,time,1189.0,2.2176473817682476,6.707070521051189e-05,0,59,[],0.010404829983599484,None,['space'],215.2604651999427,215.2604651999427,0.2075694300001487,3.1920213412939855,215.47737370000686,215.2604651999427,[-1.449642900028266],,,,,,,,,,moiern,001,fr,1,2022-07-08_14h28.56.466,Continuous,2022.1.1,35.9595814257947,
5,0,5,0,5,0,5,0,,,,,,,,2.984451911293837,time,5040.0,0.0,0.0001512710027342816,0,60,[],0.020045230048708618,None,['space'],218.46370029996615,218.46370029996615,0.22509882994927466,3.2095507412431115,218.67932470003143,218.46370029996615,[-2.8049179000081494],,,,,,,,,,moiern,001,fr,1,2022-07-08_14h28.56.466,Continuous,2022.1.1,35.9595814257947,
5,0,5,0,6,0,6,0,,,,,,,,2.984451911293837,time,944.0,1.8761575162766992,5.2698257549087474e-05,0,61,[],0.019889829913154244,None,['space'],221.66569679998793,221.66569679998793,0.22493562998715788,3.2093875412809947,221.8813995999517,221.66569679998793,[-2.8395426999777555],,,,,,,,,,moiern,001,fr,1,2022-07-08_14h28.56.466,Continuous,2022.1.1,35.9595814257947,
5,0,5,0,7,0,7,0,,,,,,,,2.984451911293837,time,6350.0,0.6447046887173067,0.0001416572847249725,0,62,[],0.01528132997918874,None,['space'],224.86356939992402,224.86356939992402,0.2127448299434036,3.1971967412372404,225.08168309996836,224.86356939992402,[-2.7240898000309244],,,,,,,,,,moiern,001,fr,1,2022-07-08_14h28.56.466,Continuous,2022.1.1,35.9595814257947,
5,0,5,0,8,0,8,0,,,,,,,,2.984451911293837,time,,,,1,62,[],0.016945529845543206,None,['space'],228.06539659993723,228.06539659993723,0.22093072987627238,3.205382641170109,228.28194849996362,228.06539659993723,[-2.6793635999783874],,,,,,,,,,moiern,001,fr,1,2022-07-08_14h28.56.466,Continuous,2022.1.1,35.9595814257947,
5,0,5,0,9,0,9,0,,,,,,,,2.984451911293837,time,1782.0,4.169110222097266,0.00010499236582900149,0,63,[],0.01622342981863767,None,None,231.27103279996663,231.27103279996663,0.21127052989322692,3.1957224411870637,231.4879100000253,231.27103279996663,,,,,,,,,,,moiern,001,fr,1,2022-07-08_14h28.56.466,Continuous,2022.1.1,35.9595814257947,
6,0,6,0,0,0,0,0,,,,,"[0.3333333333333333, 0.5833333333333334, 0.3333333333333333, 0.5833333333333334, 0.3333333333333333, 0.16666666666666666, 0.5833333333333334, 0.5833333333333334, 0.3333333333333333, 0.16666666666666666, 0.16666666666666666, 0.16666666666666666, 0.5833333333333334, 0.16666666666666666, 0.16666666666666666]",239.7854248000076,None,2.0195003931809783,none,512.0,-9.530560846625239,2.322259642358343e-05,0,78,[],0.023631329997442663,None,None,240.79290080000646,None,0.23968402994796634,2.2591844231289446,241.01834509999026,None,,234.47084590001032,None,,,,,,,,moiern,001,fr,1,2022-07-08_14h28.56.466,Continuous,2022.1.1,35.9595814257947,
6,0,6,0,1,0,1,0,,,,,,,,1.745895985615188,none,1087.0,-7.679512937079881,1.969991969794677e-05,0,79,[],0.019341630046255887,None,None,243.03067579993512,243.03067579993512,0.22586063004564494,1.971756615660833,243.24500719993375,243.03067579993512,,,,,,,,,,,moiern,001,fr,1,2022-07-08_14h28.56.466,Continuous,2022.1.1,35.9595814257947,
6,0,6,0,2,0,2,0,,,,,,,,2.1199415276755262,none,575.0,-10.558105345000165,1.7717151537805822e-05,0,80,[],0.014912629849277437,None,None,244.98409049992915,244.98409049992915,0.21579552988987416,2.3357370575654004,245.20290329994168,244.98409049992915,,,,,,,,,,,moiern,001,fr,1,2022-07-08_14h28.56.466,Continuous,2022.1.1,35.9595814257947,
6,0,6,0,3,0,3,0,,,,,,,,1.4295967056925476,none,968.0,-3.8662502735652815,2.7643769906700103e-05,0,81,[],0.019604029948823154,None,None,247.3281368999742,247.3281368999742,0.22869712999090552,1.6582938356834531,247.54165539995302,247.3281368999742,,,,,,,,,,,moiern,001,fr,1,2022-07-08_14h28.56.466,Continuous,2022.1.1,35.9595814257947,
6,0,6,0,4,0,4,0,,,,,,,,2.4801196438558026,none,,,,1,81,[],0.018430129857733846,None,['space'],248.96984999999404,248.96984999999404,0.2207549299346283,2.700874573790431,249.19011790002696,248.96984999999404,[-0.8627412000205368],,,,,,,,,,moiern,001,fr,1,2022-07-08_14h28.56.466,Continuous,2022.1.1,35.9595814257947,
6,0,6,0,5,0,5,0,,,,,,,,2.9038401497140733,none,215.0,-12.462514314469809,5.621941621575763e-05,0,82,[],0.020746129914186895,None,None,251.67124019993935,251.67124019993935,0.22725612996146083,3.131096279675534,251.8929983000271,251.67124019993935,,,,,,,,,,,moiern,001,fr,1,2022-07-08_14h28.56.466,Continuous,2022.1.1,35.9595814257947,
6,0,6,0,6,0,6,0,,,,,,,,1.6972983468448029,none,143.0,-11.37666329750353,0.00015179783552722194,0,83,[],0.017577129998244345,None,None,254.7925472999923,254.7925472999923,0.2233956300187856,1.9206939768635884,255.01388490002137,254.7925472999923,,,,,,,,,,,moiern,001,fr,1,2022-07-08_14h28.56.466,Continuous,2022.1.1,35.9595814257947,
6,0,6,0,7,0,7,0,,,,,,,,2.270315128752238,none,456.0,-13.441839983862657,1.5679563646521994e-05,0,84,[],0.019411529996432364,None,['space'],256.70533749996684,256.70533749996684,0.22669452999252826,2.497009658744766,256.9183813999407,256.70533749996684,[-0.029607900069095194],,,,,,,,,,moiern,001,fr,1,2022-07-08_14h28.56.466,Continuous,2022.1.1,35.9595814257947,
6,0,6,0,8,0,8,0,,,,,,,,1.6831132708173042,none,322.0,-9.902472947280817,3.0957728699601984e-05,0,85,[],0.013107629958540201,None,None,259.18686190003064,259.18686190003064,0.2115526299457997,1.894665900763104,259.4035697999643,259.18686190003064,,,,,,,,,,,moiern,001,fr,1,2022-07-08_14h28.56.466,Continuous,2022.1.1,35.9595814257947,
6,0,6,0,9,0,9,0,,,,,,,,1.4844475299524675,none,406.0,-17.0,1.0770286970621464e-05,0,86,[],0.019422929966822267,None,None,261.09250929998234,261.09250929998234,0.22533112997189164,1.7097786599243592,261.3047256999416,261.09250929998234,,,,,,,,,,,moiern,001,fr,1,2022-07-08_14h28.56.466,Continuous,2022.1.1,35.9595814257947,
7,0,7,0,0,0,0,0,,,,,"[0.5833333333333334, 0.16666666666666666, 0.3333333333333333, 0.5833333333333334, 0.3333333333333333, 0.3333333333333333, 0.5833333333333334, 0.16666666666666666, 0.16666666666666666, 0.16666666666666666, 0.3333333333333333, 0.16666666666666666, 0.5833333333333334, 0.5833333333333334, 0.16666666666666666]",267.8914644999895,None,1.9236593528506116,time,168.0,-8.513591608104733,0.0001433399676762517,0,64,[],0.023937930003739893,None,None,268.9274270000169,None,0.22126762999687344,2.144926982847485,269.1320730999578,None,,262.7930884999223,None,,,,,,,,moiern,001,fr,1,2022-07-08_14h28.56.466,Continuous,2022.1.1,35.9595814257947,
7,0,7,0,1,0,1,0,,,,,,,,1.9236593528506116,time,189.0,-12.0,7.673912905831528e-05,0,65,[],0.01617163000628352,None,['space'],271.0612935000099,271.0612935000099,0.21542813000269234,2.139087482853304,271.2805821999209,271.0612935000099,[-0.45045189990196377],,,,,,,,,,moiern,001,fr,1,2022-07-08_14h28.56.466,Continuous,2022.1.1,35.9595814257947,
7,0,7,0,2,0,2,0,,,,,,,,1.9236593528506116,time,150.0,-0.5642604336845374,0.00046869120531497973,0,66,[],0.012635230086743832,None,['space'],273.20220820000395,273.20220820000395,0.21367173013277352,2.137331082983385,273.41241689992603,273.20220820000395,[-1.0235189000377432],,,,,,,,,,moiern,001,fr,1,2022-07-08_14h28.56.466,Continuous,2022.1.1,35.9595814257947,
7,0,7,0,3,0,3,0,,,,,,,,1.9236593528506116,time,212.0,-10.812951884134543,6.966996886687274e-05,0,67,[],0.018943230039440095,None,['space'],275.34079109993763,275.34079109993763,0.22162683005444705,2.1452861829050587,275.5528158999514,275.34079109993763,[-1.681343000032939],,,,,,,,,,moiern,001,fr,1,2022-07-08_14h28.56.466,Continuous,2022.1.1,35.9595814257947,
7,0,7,0,4,0,4,0,,,,,,,,1.9236593528506116,time,449.0,-1.9375712718833826,5.924479585882183e-05,0,68,[],0.01892192999366671,None,None,277.4828693999443,277.4828693999443,0.23503102990798652,2.158690382758598,277.7031187999528,277.4828693999443,,,,,,,,,,,moiern,001,fr,1,2022-07-08_14h28.56.466,Continuous,2022.1.1,35.9595814257947,
7,0,7,0,5,0,5,0,,,,,,,,1.9236593528506116,time,,,,1,68,[],0.017063430044800043,None,['space'],279.6186050999677,279.6186050999677,0.22459143004380167,2.1482507828944133,279.83889349992387,279.6186050999677,[-1.686898700078018],,,,,,,,,,moiern,001,fr,1,2022-07-08_14h28.56.466,Continuous,2022.1.1,35.9595814257947,
7,0,7,0,6,0,6,0,,,,,,,,1.9236593528506116,time,300.0,-8.323333000375925,4.392233082467981e-05,0,69,[],0.014662030036561191,0.2096013299888,None,281.76069429994095,281.76069429994095,0.2096013299888,2.1332606828394116,281.97487309994176,281.76069429994095,,,,,,,,,,,moiern,001,fr,1,2022-07-08_14h28.56.466,Continuous,2022.1.1,35.9595814257947,
7,0,7,0,7,0,7,0,,,,,,,,1.9236593528506116,time,755.0,-0.299844786160003,3.9042852439977184e-05,0,70,[],0.018576230038888752,None,None,283.9013167999219,283.9013167999219,0.2248179300222546,2.148477282872866,284.11719489993993,283.9013167999219,,,,,,,,,,,moiern,001,fr,1,2022-07-08_14h28.56.466,Continuous,2022.1.1,35.9595814257947,
7,0,7,0,8,0,8,0,,,,,,,,1.9236593528506116,time,267.0,0.1305162886047948,0.00015173574070256199,0,71,[],0.01884722989052534,None,['space'],286.04146440001205,286.04146440001205,0.22471212991513312,2.1483714827657447,286.2616439999547,286.04146440001205,[-1.6228038999252021],,,,,,,,,,moiern,001,fr,1,2022-07-08_14h28.56.466,Continuous,2022.1.1,35.9595814257947,
8,0,8,0,0,0,0,0,,,,,,291.5629298000131,None,2.1286513809314127,frequency,181.0,12.587022855046133,0.001425373661610054,0,52,[],0.019079930032603443,None,None,292.5954165000003,None,0.22941662999801338,2.358068010929426,292.80560560000595,None,,288.1802584999241,None,0.3333333333333333,,,,,,,moiern,001,fr,1,2022-07-08_14h28.56.466,Continuous,2022.1.1,35.9595814257947,
8,0,8,0,1,0,1,0,,,,,,,,2.7456381253236373,frequency,228.0,12.667044949381053,0.0009052728085276706,0,53,[],0.01847402995917946,None,['space'],294.9341434999369,294.9341434999369,0.22343272995203733,2.9690708552756746,295.14743429992814,294.9341434999369,[-1.8513582999585196],,,,,,,,,,moiern,001,fr,1,2022-07-08_14h28.56.466,Continuous,2022.1.1,35.9595814257947,
8,0,8,0,2,0,2,0,,,,,,,,2.8558401491135132,frequency,287.0,12.68297547531159,0.0005524885182426981,0,54,[],0.007600829936563969,None,['space'],297.8952719999943,297.8952719999943,0.20762372994795442,3.0634638790614677,298.11137870000675,297.8952719999943,[-2.5164803999941796],,,,,,,,,,moiern,001,fr,1,2022-07-08_14h28.56.466,Continuous,2022.1.1,35.9595814257947,
8,0,8,0,3,0,3,0,,,,,,,,1.9349876822583365,frequency,362.0,12.231314603661536,0.0003533275910027242,0,55,[],0.015896030003204942,None,['space'],300.9760209999513,300.9760209999513,0.22834713000338525,2.1633348122617218,301.19253779994324,300.9760209999513,[-2.670095599954948],,,,,,,,,,moiern,001,fr,1,2022-07-08_14h28.56.466,Continuous,2022.1.1,35.9595814257947,
8,0,8,0,4,0,4,0,,,,,,,,2.2540437911833306,frequency,456.0,6.610500090769346,0.00015774331962184484,0,56,[],0.01171383005566895,None,['space'],303.135038599954,303.135038599954,0.21181572997011244,2.465859521153443,303.35110520001035,303.135038599954,[-1.7559439999749884],,,,,,,,,,moiern,001,fr,1,2022-07-08_14h28.56.466,Continuous,2022.1.1,35.9595814257947,
8,0,8,0,5,0,5,0,,,,,,,,2.6514597828667,frequency,575.0,4.901592327587859,0.00010504582189671443,0,57,[],0.018189430003985763,None,['space'],305.6120218000142,305.6120218000142,0.22386382997501642,2.8753236128417163,305.8285831999965,305.6120218000142,[-1.9208673000102863],,,,,,,,,,moiern,001,fr,1,2022-07-08_14h28.56.466,Continuous,2022.1.1,35.9595814257947,
8,0,8,0,6,0,6,0,,,,,,,,2.6433634511349426,frequency,724.0,0.2683268085317311,4.4268172685867366e-05,0,58,[],0.01842982997186482,None,['space'],308.4756822999334,308.4756822999334,0.22844043001532555,2.871803881150268,308.69341409998015,308.4756822999334,[-2.408916699932888],,,,,,,,,,moiern,001,fr,1,2022-07-08_14h28.56.466,Continuous,2022.1.1,35.9595814257947,
8,0,8,0,7,0,7,0,,,,,,,,1.250152574024871,frequency,912.0,4.686849228711769,7.127337084555555e-05,0,59,[],0.013001329964026809,None,['space'],311.338432700024,311.338432700024,0.21564132999628782,1.4657939040211587,311.5591618999606,311.338432700024,[-2.0154044999508187],,,,,,,,,,moiern,001,fr,1,2022-07-08_14h28.56.466,Continuous,2022.1.1,35.9595814257947,
8,0,8,0,8,0,8,0,,,,,,,,2.5369316477551456,frequency,1149.0,13.0,0.00022461343774149428,0,60,[],0.018343430012464523,None,['space'],312.81493059999775,312.81493059999775,0.23371463001240045,2.770646277767546,313.0330230999971,312.81493059999775,[-1.0444184000371024],,,,,,,,,,moiern,001,fr,1,2022-07-08_14h28.56.466,Continuous,2022.1.1,35.9595814257947,
8,0,8,0,9,0,9,0,,,,,,,,2.6797755989759886,frequency,1448.0,7.695388611655325,0.00012028029466324688,0,61,[],0.018305529956705868,None,['space'],315.5704977000132,315.5704977000132,0.2249190299771726,2.904694628953161,315.7843213999877,315.5704977000132,[-2.3444924999494106],,,,,,,,,,moiern,001,fr,1,2022-07-08_14h28.56.466,Continuous,2022.1.1,35.9595814257947,
8,0,8,0,10,0,10,0,,,,,,,,2.4535452381887604,frequency,1824.0,8.146276717720642,0.00017080934278715336,0,62,[],0.013804829912260175,None,['space'],318.46265140001196,318.46265140001196,0.20876982994377613,2.6623150681325365,318.6809691999806,318.46265140001196,[-2.571386499912478],,,,,,,,,,moiern,001,fr,1,2022-07-08_14h28.56.466,Continuous,2022.1.1,35.9595814257947,
8,0,8,0,11,0,11,0,,,,,,,,2.825610205174579,frequency,2298.0,8.613193138041376,0.00021947149105888675,0,63,[],0.01803743001073599,None,['space'],321.1402742000064,321.1402742000064,0.22486143000423908,3.050471635178818,321.35461449995637,321.1402742000064,[-2.2497065999777988],,,,,,,,,,moiern,001,fr,1,2022-07-08_14h28.56.466,Continuous,2022.1.1,35.9595814257947,
8,0,8,0,12,0,12,0,,,,,,,,2.8465266652788035,frequency,2895.0,3.3166219454627437,8.987482695798308e-05,0,64,[],0.01789782999549061,None,['space'],324.1811781999422,324.1811781999422,0.22556182998232543,3.072088495261129,324.39365300000645,324.1811781999422,[-2.6828425999265164],,,,,,,,,,moiern,001,fr,1,2022-07-08_14h28.56.466,Continuous,2022.1.1,35.9595814257947,
8,0,8,0,13,0,13,0,,,,,,,,1.3439188897442582,frequency,,,,1,64,[],0.013999429997056723,None,['space'],327.23721309995744,327.23721309995744,0.2129391300259158,1.556858019770174,327.4556412999518,327.23721309995744,[-2.658519000047818],,,,,,,,,,moiern,001,fr,1,2022-07-08_14h28.56.466,Continuous,2022.1.1,35.9595814257947,
8,0,8,0,14,0,14,0,,,,,,,,1.9340593433956113,frequency,4595.0,3.498530175378877,0.00018681782069684586,0,65,[],0.01922413008287549,None,None,328.79680060001556,328.79680060001556,0.2306497300742194,2.1647090734698304,329.01743649994023,328.79680060001556,,,,,,,,,,,moiern,001,fr,1,2022-07-08_14h28.56.466,Continuous,2022.1.1,35.9595814257947,
9,0,9,0,0,0,0,0,,,,,,333.89613729994744,None,1.4080964748261984,frequency,131.0,3.587269371344924,0.0010115473886249762,0,66,[],0.023767029982991517,None,None,334.91646360000595,None,0.24999952991493046,1.6580960047411288,335.14698049996514,None,,330.94942329998594,None,0.16666666666666666,,,,,,,moiern,001,fr,1,2022-07-08_14h28.56.466,Continuous,2022.1.1,35.9595814257947,
9,0,9,0,1,0,1,0,,,,,,,,2.795789313225075,frequency,147.0,5.35758871232138,0.0009762767785099465,0,67,[],0.013106629950925708,None,['space'],336.5475108999526,336.5475108999526,0.21270502998959273,3.0084943432146676,336.7674456000095,336.5475108999526,[-0.8962238000240177],,,,,,,,,,moiern,001,fr,1,2022-07-08_14h28.56.466,Continuous,2022.1.1,35.9595814257947,
9,0,9,0,2,0,2,0,,,,,,,,2.114326812390347,frequency,165.0,16.0,0.0024791035697878465,0,68,[],0.013277129968628287,None,['space'],339.56732639996335,339.56732639996335,0.2117111299885437,2.326037942378891,339.7871890999377,339.56732639996335,[-2.5810039000352845],,,,,,,,,,moiern,001,fr,1,2022-07-08_14h28.56.466,Continuous,2022.1.1,35.9595814257947,
9,0,9,0,3,0,3,0,,,,,,,,2.5539631903408146,frequency,185.0,2.5351929404755884,0.00042855560102366633,0,69,[],0.013492629979737103,None,['space'],341.9054479999468,341.9054479999468,0.21176303003448993,2.7657262203753046,342.1169411999872,341.9054479999468,[-1.88655309996102],,,,,,,,,,moiern,001,fr,1,2022-07-08_14h28.56.466,Continuous,2022.1.1,35.9595814257947,
9,0,9,0,4,0,4,0,,,,,,,,2.2429221006875246,frequency,208.0,15.90111389286409,0.001558094200462834,0,70,[],0.013703829958103597,0.2117233299650252,['space'],344.6741059999913,344.6741059999913,0.2117233299650252,2.45464543065255,344.8914266999345,344.6741059999913,[-2.4312201000284404],,,,,,,,,,moiern,001,fr,1,2022-07-08_14h28.56.466,Continuous,2022.1.1,35.9595814257947,
9,0,9,0,5,0,5,0,,,,,,,,2.2384418922097957,frequency,233.0,11.438141222695995,0.0007492847105379399,0,71,[],0.017795929918065667,None,['space'],347.1397628999548,347.1397628999548,0.22458842990454286,2.4630303221143386,347.35836690000724,347.1397628999548,[-2.0171770999440923],,,,,,,,,,moiern,001,fr,1,2022-07-08_14h28.56.466,Continuous,2022.1.1,35.9595814257947,
9,0,9,0,6,0,6,0,,,,,,,,2.0109882842390583,frequency,262.0,11.695518308754881,0.0005949249331317521,0,72,[],0.017245330032892525,None,['space'],349.5923802999314,349.5923802999314,0.22206533001735806,2.2330536142564164,349.81218389992137,349.5923802999314,[-2.0288242999231443],,,,,,,,,,moiern,001,fr,1,2022-07-08_14h28.56.466,Continuous,2022.1.1,35.9595814257947,
9,0,9,0,7,0,7,0,,,,,,,,2.8527976734384697,frequency,294.0,15.194523662398641,0.0006950885336619626,0,73,[],0.017629030044190586,None,['space'],351.82730270002503,351.82730270002503,0.22563443006947637,3.078432103507946,352.0468252999708,351.82730270002503,[-1.7935253999894485],,,,,,,,,,moiern,001,fr,1,2022-07-08_14h28.56.466,Continuous,2022.1.1,35.9595814257947,
9,0,9,0,8,0,8,0,,,,,,,,2.4938835550931646,frequency,,,,1,73,[],0.017686729901470244,None,['space'],354.89725239994004,354.89725239994004,0.2247765299398452,2.71866008503301,355.11194510001224,354.89725239994004,[-2.6624956999439746],,,,,,,,,,moiern,001,fr,1,2022-07-08_14h28.56.466,Continuous,2022.1.1,35.9595814257947,
10,0,10,0,0,0,0,0,,,,,,362.6446737999795,None,1.2087160853107564,frequency,131.0,-9.466404860986247,0.00022506218021897136,0,74,[],0.023848830023780465,None,None,363.6522199999308,None,0.23285123007372022,1.4415673153844766,363.8683644999983,None,,357.6009680000134,None,0.16666666666666666,,,,,,,moiern,001,fr,1,2022-07-08_14h28.56.466,Continuous,2022.1.1,35.9595814257947,
10,0,10,0,1,0,1,0,,,,,,,,2.0908885280396747,frequency,147.0,-12.43429900908384,0.00012588633020825898,0,75,[],0.013564129825681448,0.21084492979571223,None,365.0769378999248,365.0769378999248,0.21084492979571223,2.301733457835387,365.2922638999298,365.0769378999248,,,,,,,,,,,moiern,001,fr,1,2022-07-08_14h28.56.466,Continuous,2022.1.1,35.9595814257947,
10,0,10,0,2,0,2,0,,,,,,,,1.112373774489516,frequency,165.0,-9.304563814961021,0.00013460663884530387,0,76,[],0.014211730100214481,None,None,367.37861819996033,367.37861819996033,0.2132769301533699,1.3256507046428858,367.59881060000043,367.37861819996033,,,,,,,,,,,moiern,001,fr,1,2022-07-08_14h28.56.466,Continuous,2022.1.1,35.9595814257947,
10,0,10,0,3,0,3,0,,,,,,,,2.830817060165307,frequency,,,,1,76,[],0.013552329852245748,0.21186152985319495,None,368.7142687999876,368.7142687999876,0.21186152985319495,3.042678590018502,368.93556589994114,368.7142687999876,,,,,,,,,,,moiern,001,fr,1,2022-07-08_14h28.56.466,Continuous,2022.1.1,35.9595814257947,
10,0,10,0,4,0,4,0,,,,,,,,1.9004373347259058,frequency,208.0,-7.617076496556642,0.00010391642359496516,0,77,[],0.018570229993201792,None,None,371.76529369992204,371.76529369992204,0.2225319299614057,2.1229692646873115,371.9812216999708,371.76529369992204,,,,,,,,,,,moiern,001,fr,1,2022-07-08_14h28.56.466,Continuous,2022.1.1,35.9595814257947,
10,0,10,0,5,0,5,0,,,,,,,,1.4916209106006135,frequency,233.0,-7.297924738372769,8.666496634012022e-05,0,78,[],0.016803629812784493,None,None,373.8841815999476,373.8841815999476,0.22216372983530164,1.7137846404359152,374.1047659999458,373.8841815999476,,,,,,,,,,,moiern,001,fr,1,2022-07-08_14h28.56.466,Continuous,2022.1.1,35.9595814257947,
10,0,10,0,6,0,6,0,,,,,,,,1.096261422302816,frequency,262.0,-8.343702845762643,5.9224460430587666e-05,0,79,[],0.011032929993234575,None,None,375.5949537999695,375.5949537999695,0.21117542998399585,1.3074368522868118,375.813993299962,375.5949537999695,,,,,,,,,,,moiern,001,fr,1,2022-07-08_14h28.56.466,Continuous,2022.1.1,35.9595814257947,
10,0,10,0,7,0,7,0,,,,,,,,1.7093689464053077,frequency,294.0,-1.6748096150244756,9.967206601797864e-05,0,80,[],0.01708883000537753,None,None,376.91906590003055,376.91906590003055,0.22361563006415963,1.9329845764694673,377.1318095999304,376.91906590003055,,,,,,,,,,,moiern,001,fr,1,2022-07-08_14h28.56.466,Continuous,2022.1.1,35.9595814257947,
10,0,10,0,8,0,8,0,,,,,,,,2.9317109565461905,frequency,330.0,-14.0,1.8900521736310403e-05,0,81,[],0.016056629945524037,None,['space'],378.84043139999267,378.84043139999267,0.21806572994682938,3.14977668649302,379.061385900015,378.84043139999267,[-1.3971476000733674],,,,,,,,,,moiern,001,fr,1,2022-07-08_14h28.56.466,Continuous,2022.1.1,35.9595814257947,
10,0,10,0,9,0,9,0,,,,,,,,2.815019350643825,frequency,370.0,-11.868915049398852,2.150807052126519e-05,0,82,[],0.012799430056475103,None,['space'],381.9947659999598,381.9947659999598,0.20887713006231934,3.0238964807061444,382.213944899966,381.9947659999598,[-0.6559233000734821],,,,,,,,,,moiern,001,fr,1,2022-07-08_14h28.56.466,Continuous,2022.1.1,35.9595814257947,
10,0,10,0,10,0,10,0,,,,,,,,1.6347007910213345,frequency,415.0,-5.075724910435072,4.22487391745245e-05,0,83,[],0.01268873002845794,None,None,385.03230359999,385.03230359999,0.21094552997965366,1.8456463210009881,385.25149189995136,385.03230359999,,,,,,,,,,,moiern,001,fr,1,2022-07-08_14h28.56.466,Continuous,2022.1.1,35.9595814257947,
10,0,10,0,11,0,11,0,,,,,,,,2.6901737207689074,frequency,466.0,-11.970508512540393,1.844500487180701e-05,0,84,[],0.01717022992670536,None,None,386.8926336999284,386.8926336999284,0.22581512993201613,2.9159888507009235,387.10911999992095,386.8926336999284,,,,,,,,,,,moiern,001,fr,1,2022-07-08_14h28.56.466,Continuous,2022.1.1,35.9595814257947,
10,0,10,0,12,0,12,0,,,,,,,,2.7093234700656135,frequency,523.0,-11.635824782349687,1.7774665157573616e-05,0,85,[],0.017063030041754246,None,None,389.80052699998487,389.80052699998487,0.22226193000096828,2.9315854000665817,390.02176029991824,389.80052699998487,,,,,,,,,,,moiern,001,fr,1,2022-07-08_14h28.56.466,Continuous,2022.1.1,35.9595814257947,
10,0,10,0,13,0,13,0,,,,,,,,1.4301590639373047,frequency,587.0,-13.57495315027964,1.2126230766502145e-05,0,86,[],0.01248703000601381,None,None,392.72395080002025,392.72395080002025,0.21308242995291948,1.6432414938902242,392.9424340999685,392.72395080002025,,,,,,,,,,,moiern,001,fr,1,2022-07-08_14h28.56.466,Continuous,2022.1.1,35.9595814257947,
10,0,10,0,14,0,14,0,,,,,,,,2.38968131567239,frequency,659.0,-11.990799582871674,1.222612753849663e-05,0,87,[],0.013049329980276525,None,None,394.37724299996626,394.37724299996626,0.2117276298813522,2.601408945553742,394.5904134999728,394.37724299996626,,,,,,,,,,,moiern,001,fr,1,2022-07-08_14h28.56.466,Continuous,2022.1.1,35.9595814257947,
11,0,11,0,0,0,0,0,,,,,"[0.16666666666666666, 0.5833333333333334, 0.3333333333333333, 0.3333333333333333, 0.5833333333333334, 0.5833333333333334, 0.5833333333333334, 0.16666666666666666, 0.3333333333333333, 0.3333333333333333, 0.5833333333333334, 0.3333333333333333, 0.5833333333333334, 0.5833333333333334, 0.16666666666666666]",405.63851389999036,None,1.6635259486877554,none,1682.0,7.925293116614387,0.00015055084551219238,0,87,[],0.023435130016878247,None,None,406.6569932999555,None,0.21791413007304072,1.881440078760796,406.86697650002316,None,,396.9907551999204,None,,,,,,,,moiern,001,fr,1,2022-07-08_14h28.56.466,Continuous,2022.1.1,35.9595814257947,
11,0,11,0,1,0,1,0,,,,,,,,1.497517055734386,none,707.0,1.5879015439289577,5.3321021117708256e-05,0,88,[],0.008431329973973334,None,None,408.532388899941,408.532388899941,0.20557442994322628,1.7030914856776123,408.74938379996456,408.532388899941,,,,,,,,,,,moiern,001,fr,1,2022-07-08_14h28.56.466,Continuous,2022.1.1,35.9595814257947,
11,0,11,0,2,0,2,0,,,,,,,,1.9278752686542397,none,6350.0,7.194026866482503,0.00030109602487143254,0,89,[],0.016526430030353367,None,['space'],410.2561832999345,410.2561832999345,0.22233123006299138,2.150206498717231,410.4764384999871,410.2561832999345,[-1.3656481999205425],,,,,,,,,,moiern,001,fr,1,2022-07-08_14h28.56.466,Continuous,2022.1.1,35.9595814257947,
11,0,11,0,3,0,3,0,,,,,,,,1.4707418067666356,none,5657.0,2.9754195167918702,0.00018102392885491856,0,90,[],0.01562952995300293,None,['space'],412.4087599000195,412.4087599000195,0.21841192990541458,1.6891537366720502,412.6283747999696,412.4087599000195,[-1.7255312000634149],,,,,,,,,,moiern,001,fr,1,2022-07-08_14h28.56.466,Continuous,2022.1.1,35.9595814257947,
11,0,11,0,4,0,4,0,,,,,,,,2.595178413649701,none,8000.0,8.0,0.00045600541967795504,0,91,[],0.012048729811795056,None,['space'],414.09640229993965,414.09640229993965,0.2064870297908783,2.801665443440579,414.3146257000044,414.09640229993965,[-1.3257020999444649],,,,,,,,,,moiern,001,fr,1,2022-07-08_14h28.56.466,Continuous,2022.1.1,35.9595814257947,
11,0,11,0,5,0,5,0,,,,,,,,1.5093324190016157,none,2520.0,7.532379793448589,0.00020149259061222718,0,92,[],0.012583429925143719,None,['space'],416.914932899992,416.914932899992,0.20895462995395064,1.7182870489555664,417.1340681000147,416.914932899992,[-2.4729475000640377],,,,,,,,,,moiern,001,fr,1,2022-07-08_14h28.56.466,Continuous,2022.1.1,35.9595814257947,
11,0,11,0,6,0,6,0,,,,,,,,2.772699495610657,none,,,,1,92,[],0.016507530002854764,None,['space'],418.64861089992337,418.64861089992337,0.2206219300860539,2.993321425696711,418.86450100003276,418.64861089992337,[-1.3499808999476954],,,,,,,,,,moiern,001,fr,1,2022-07-08_14h28.56.466,Continuous,2022.1.1,35.9595814257947,
11,0,11,0,7,0,7,0,,,,,,,,1.9731110543914225,none,3776.0,4.01824605413674,0.00012707091612443902,0,93,[],0.0139288300415501,None,['space'],421.636482300004,421.636482300004,0.21074223006144166,2.183853284452864,421.85561939992476,421.636482300004,[-0.5851438000099733],,,,,,,,,,moiern,001,fr,1,2022-07-08_14h28.56.466,Continuous,2022.1.1,35.9595814257947,
11,0,11,0,8,0,8,0,,,,,,,,2.5699692537169145,none,1060.0,6.883898651841291,0.00010285542951531663,0,94,[],0.01637892995495349,None,['space'],423.8346550000133,423.8346550000133,0.22159183002077043,2.791561083737685,424.0459765000269,423.8346550000133,[-1.3922567000845447],,,,,,,,,,moiern,001,fr,1,2022-07-08_14h28.56.466,Continuous,2022.1.1,35.9595814257947,
12,0,12,0,0,0,0,0,,,,,"[0.5833333333333334, 0.3333333333333333, 0.16666666666666666, 0.3333333333333333, 0.5833333333333334, 0.3333333333333333, 0.3333333333333333, 0.3333333333333333, 0.16666666666666666, 0.16666666666666666, 0.3333333333333333, 0.16666666666666666, 0.16666666666666666, 0.3333333333333333, 0.16666666666666666]",430.8658581000054,None,2.07442910190189,time,7127.0,2.821269010004923,0.00021458972904999312,0,72,[],0.0227030300302431,None,None,431.8891527999658,None,0.24315763008780777,2.3175867319896977,432.1145917000249,None,,426.61647769995034,None,,,,,,,,moiern,001,fr,1,2022-07-08_14h28.56.466,Continuous,2022.1.1,35.9595814257947,
12,0,12,0,1,0,1,0,,,,,,,,2.07442910190189,time,1335.0,4.969997388287441,9.28586745443369e-05,0,73,[],0.011501229950226843,None,None,434.1835125000216,434.1835125000216,0.21028732997365296,2.284716431875543,434.4026259999955,434.1835125000216,,,,,,,,,,,moiern,001,fr,1,2022-07-08_14h28.56.466,Continuous,2022.1.1,35.9595814257947,
12,0,12,0,2,0,2,0,,,,,,,,2.07442910190189,time,2379.0,2.2224444837497783,0.00010747670403038436,0,74,[],0.015380129916593432,None,['space'],436.4839804000221,436.4839804000221,0.21914392989128828,2.293573031793178,436.70349919993896,436.4839804000221,[-1.8573843000922352],,,,,,,,,,moiern,001,fr,1,2022-07-08_14h28.56.466,Continuous,2022.1.1,35.9595814257947,
12,0,12,0,3,0,3,0,,,,,,,,2.07442910190189,time,8000.0,4.0,0.0002877199686685786,0,75,[],0.016173529904335737,None,['space'],438.78485960001126,438.78485960001126,0.223195229889825,2.297624331791715,438.9959547999315,438.78485960001126,[-1.9181464000139385],,,,,,,,,,moiern,001,fr,1,2022-07-08_14h28.56.466,Continuous,2022.1.1,35.9595814257947,
12,0,12,0,4,0,4,0,,,,,,,,2.07442910190189,time,,,,1,75,[],0.016303630080074072,None,['space'],441.07278709998354,441.07278709998354,0.2285625300137326,2.3029916319156225,441.29051229998004,441.07278709998354,[-1.91007039998658],,,,,,,,,,moiern,001,fr,1,2022-07-08_14h28.56.466,Continuous,2022.1.1,35.9595814257947,
12,0,12,0,5,0,5,0,,,,,,,,2.07442910190189,time,1888.0,4.286432292176199,0.00011426012251778671,0,76,[],0.014015029883012176,0.2127763299504295,None,443.3596369000152,443.3596369000152,0.2127763299504295,2.2872054318523194,443.5786206999328,443.3596369000152,,,,,,,,,,,moiern,001,fr,1,2022-07-08_14h28.56.466,Continuous,2022.1.1,35.9595814257947,
12,0,12,0,6,0,6,0,,,,,,,,2.07442910190189,time,4490.0,1.313088448730488,0.00013685638623066792,0,77,[],0.012071329983882606,0.2076460300013423,['space'],445.64714889996685,445.64714889996685,0.2076460300013423,2.282075131903232,445.8638746999204,445.64714889996685,[-1.811926900059916],,,,,,,,,,moiern,001,fr,1,2022-07-08_14h28.56.466,Continuous,2022.1.1,35.9595814257947,
12,0,12,0,7,0,7,0,,,,,,,,2.07442910190189,time,1682.0,4.804893222560532,0.00010511463926053236,0,78,[],0.015961829922161996,None,['space'],447.94483009993564,447.94483009993564,0.2233261299552396,2.2977552318571295,448.1565266000107,447.94483009993564,[-1.8541073999367654],,,,,,,,,,moiern,001,fr,1,2022-07-08_14h28.56.466,Continuous,2022.1.1,35.9595814257947,
12,0,12,0,8,0,8,0,,,,,,,,2.07442910190189,time,5657.0,1.4799623042989012,0.00015239233579230138,0,79,[],0.016086829942651093,None,['space'],450.23280769994017,450.23280769994017,0.22232503001578152,2.2967541319176714,450.4511079000076,450.23280769994017,[-1.9340094999643043],,,,,,,,,,moiern,001,fr,1,2022-07-08_14h28.56.466,Continuous,2022.1.1,35.9595814257947,
13,0,13,0,0,0,0,0,,,,,"[0.3333333333333333, 0.16666666666666666, 0.3333333333333333, 0.3333333333333333, 0.3333333333333333, 0.5833333333333334, 0.3333333333333333, 0.16666666666666666, 0.3333333333333333, 0.16666666666666666, 0.5833333333333334, 0.5833333333333334, 0.3333333333333333, 0.5833333333333334, 0.16666666666666666]",459.1342221000232,None,2.04718778656822,none,199.0,1.4824670109223734,0.00031916227184745525,0,95,[],0.023821629816666245,None,None,460.14858329994604,None,0.2480199298588559,2.295207716427076,460.3768254999304,None,,452.518786599976,None,,,,,,,,moiern,001,fr,1,2022-07-08_14h28.56.466,Continuous,2022.1.1,35.9595814257947,
13,0,13,0,1,0,1,0,,,,,,,,1.108020458145264,none,125.0,2.1032046575133165,0.0009207256396448328,0,96,['none'],0.011107129859738052,None,None,462.4188618999906,462.4188618999906,0.2124783298932016,1.3204987880384655,462.6348087999504,462.4188618999906,,,,,"{'estimation': [[125.0, 1.013315201352631], [133.9716828170366, 1.2138303282746299], [143.5872943746293, 1.3558331045798138], [153.89305166811442, 1.464002854347421], [164.93848884661162, 1.5886611802648427], [176.77669529663666, 1.795111492075753], [184.26412802967334, 2.0], [189.46457081379947, 2.136854709385757], [203.0630990890585, 2.612490264350466], [213.86491178928813, 3.0], [217.6376408240306, 3.129907440047492], [233.25824788420132, 3.488649895343172], [249.99999999999937, 3.408310237299089], [258.88189728065254, 3.0], [267.94336563407256, 2.604127441510119], [274.54363174715354, 2.0], [285.9552004518574, 1.0], [287.1745887492579, 0.897047069600171], [294.1673720278858, 0.0], [302.12908153374684, -1.0], [307.78610333622805, -1.6828654796794966], [309.9719707405025, -2.0], [316.83138481264854, -3.0], [323.78267223399985, -4.0], [329.87697769322244, -4.844610292195648], [331.01108470807065, -5.0], [338.25325865998303, -6.0], [345.52967014946677, -7.0], [353.04785666893173, -8.0], [353.55339059327247, -8.065627660846308], [362.35996408156853, -9.0], [371.90305136919096, -10.0], [378.929141627598, -10.713274011002634], [383.94840685959474, -11.0], [401.9503648569735, -12.0], [406.12619817811606, -12.22447419357543], [435.2752816480601, -12.276509788857666], [441.290982273302, -12.0], [464.0319646715624, -11.0], [466.5164957684015, -10.895343591741154], [478.4622136061415, -10.0], [492.18614861515283, -9.0], [499.9999999999975, -8.453936239954984], [505.4818726910494, -8.0], [517.6108924092057, -7.0], [530.0995809608942, -6.0], [535.8867312681438, -5.554072214825238], [543.5978060163121, -5.0], [557.6086260111488, -4.0], [572.1098049033196, -3.0], [574.3491774985143, -2.850111829699106], [591.6180804034793, -2.0], [612.550964078677, -1.0], [615.5722066724546, -0.859582187458221], [652.4205108824875, 0.0], [659.7539553864432, 0.1656399927451062], [707.1067811865431, 0.27510944849445873], [734.0171061302254, 0.0], [757.8582832551941, -0.23586793120134697], [812.2523963562301, -0.9397468491939617], [819.416811395042, -1.0], [870.5505632961181, -1.4146915262951065], [933.0329915368008, -1.3526918775141128], [965.2846225819411, -1.0], [999.9999999999926, -0.6326931762696512], [1034.7088744749335, 0.0], [1071.773462536285, 0.6537006291496902], [1088.317713115868, 1.0], [1137.36494135676, 2.0], [1148.698354997026, 2.2239975173161453], [1192.6355235359322, 3.0], [1231.1444133449063, 3.654294457253167], [1267.6947876349811, 4.0], [1319.5079107728832, 4.471175876325924], [1414.2135623730828, 4.256005202345555], [1431.0986111906434, 4.0], [1498.9334681149214, 3.0], [1515.7165665103828, 2.7608795453948978], [1545.194719967406, 2.0], [1584.1713607573424, 1.0], [1624.4972105064903, 0.0], [1624.5047927124563, -0.00018357699915604007], [1655.5785693934913, -1.0], [1686.3284918782012, -2.0], [1717.6442072956793, -2.9999999999999996], [1741.1011265922318, -3.7208932185111747], [1749.6709219385784, -4.0], [1779.7350173117065, -5.0], [1809.4469321371755, -6.0], [1839.6489355600252, -7.0], [1866.065983073597, -7.840981516494939], [1871.7109220017962, -8.0], [1906.5578473070816, -9.0], [1941.010777197015, -10.0], [1975.9973081349326, -11.0], [1999.9999999999802, -11.664942664095507], [2016.794086229782, -12.0], [2066.475977452988, -13.0], [2116.6339943144976, -13.999999999999998], [2143.5469250725646, -14.525322889893866], [2194.126954076233, -15.0], [2297.396709994046, -15.949822285826807], [2462.2888266898062, -15.784243567426223], [2548.6210830015475, -15.0], [2639.015821545763, -14.217664113422774], [2654.9079721103226, -13.999999999999998], [2729.216001102271, -13.0], [2806.568498304468, -12.0], [2828.427124746159, -11.728491962495237], [2880.1111146946164, -11.0], [2952.3008900038913, -10.0], [3027.693054758293, -9.0], [3031.4331330207615, -8.952004471471543], [3114.433567217846, -8.0], [3203.891754313812, -7.0], [3249.0095854249043, -6.514066494093273], [3320.52844282226, -6.000000000000001], [3463.970671497252, -5.0], [3482.2022531844555, -4.876667452953808], [3732.13196614718, -4.247484071360947], [3999.9999999999504, -4.547134511530193], [4139.869318876101, -5.0], [4287.093850145118, -5.462541303653773], [4438.234796377667, -6.0], [4594.793419988081, -6.541152720329261], [4788.457409672305, -7.0], [4924.577653379601, -7.3146181288675525], [5278.0316430915, -7.410172768817132], [5474.710087558164, -7.0], [5656.854249492303, -6.631414499080243], [5810.75375687009, -6.0], [6060.505854138012, -5.0], [6062.866266041508, -4.990761686865904], [6247.497749590252, -4.0], [6437.987704826066, -3.0], [6498.019170849792, -2.693755023894576], [6618.679148542439, -2.0], [6795.042963225963, -1.0], [6964.404506368902, -0.07473627229302832], [6978.688419263434, 0.0], [7170.863822491268, 1.0], [7367.1217421708, 2.0], [7464.2639322943505, 2.479480647608442], [7595.497608527328, 3.0], [7845.204931165812, 4.0], [7999.999999999872, 4.617690316006638]], 'plus_line': [[125.0, -7.585199275920984], [133.9716828170366, -7.00789784511576], [135.27319563229878, -7.0], [143.5872943746293, -6.953607774933668], [148.4992180129825, -7.0], [153.89305166811442, -7.052874630177839], [164.93848884661162, -7.061624539250197], [168.67223131544685, -7.0], [176.77669529663666, -6.876002159274041], [189.46457081379947, -6.4899096648045], [201.6686073131237, -6.0], [203.0630990890585, -5.947412032239888], [217.6376408240306, -5.385386043454872], [231.90696139713847, -5.0], [233.25824788420132, -4.9659682881629745], [249.99999999999937, -4.961330753108788], [250.97080300194756, -5.0], [267.94336563407256, -5.655818535225173], [271.8657515903827, -6.0], [283.8816659087782, -7.0], [287.1745887492579, -7.259322169618803], [292.7806687851996, -8.0], [300.7625744152992, -9.0], [307.78610333622805, -9.806269694880358], [309.0313034642835, -10.0], [315.4159115104792, -11.0], [322.1860286988965, -12.0], [329.6423519223096, -13.0], [329.87697769322244, -13.030600905110333], [336.2477136539411, -14.0], [343.1007841928121, -15.0], [350.5337153746114, -16.0], [353.55339059327247, -16.384895278591248], [358.89596523695906, -17.0], [367.84384285615795, -18.0], [377.57141972192966, -19.0], [378.929141627598, -19.135269221834314], [393.894667904638, -20.0], [406.12619817811606, -20.662667228666166], [435.2752816480601, -20.617159524898838], [447.5002554893468, -20.0], [466.5164957684015, -19.06140395839571], [467.30693412312957, -19.0], [480.27492120605956, -18.0], [492.9221244888062, -17.0], [499.9999999999975, -16.451217412467628], [505.5165730448257, -16.0], [517.4635878527685, -15.0], [529.0728671901853, -14.0], [535.8867312681438, -13.423833659601708], [541.9333708413046, -13.0], [555.9019883062724, -12.0], [569.5005578242401, -11.0], [574.3491774985143, -10.65195963587579], [587.8246543474067, -10.0], [608.1777054558715, -9.0], [615.5722066724546, -8.642534843282487], [643.2977454855486, -8.0], [659.7539553864432, -7.630945202812217], [707.1067811865431, -7.556208740859459], [748.306587533048, -8.0], [757.8582832551941, -8.103190699185589], [812.2523963562301, -8.839747284767004], [831.2791792890066, -9.0], [870.5505632961181, -9.330554024526613], [933.0329915368008, -9.26680414714699], [956.9019722008914, -9.0], [999.9999999999926, -8.544079312677834], [1029.7980955019707, -8.0], [1071.773462536285, -7.248568158473593], [1083.648645211439, -7.0], [1131.9482459642552, -6.0], [1148.698354997026, -5.6594805999780755], [1185.420595790923, -5.0], [1231.1444133449063, -4.189066285851284], [1249.8229119827126, -4.0], [1319.5079107728848, -3.3293040698113385], [1414.2135623730828, -3.517148421153024], [1445.6155803113888, -4.0], [1514.3210360362586, -5.0], [1515.7165665103846, -5.0198182457963885], [1550.8754029434078, -6.0], [1588.751095961784, -7.0], [1624.5047927124563, -7.8676504799863505], [1628.2695506557425, -8.0], [1655.989409007267, -9.0], [1684.5988852438875, -10.0], [1715.3589788218665, -11.0], [1741.101126592234, -11.768605753802412], [1747.3598142289507, -12.0], [1773.633836211309, -13.0], [1800.5110500904827, -14.0], [1829.0847600819739, -15.000000000000002], [1860.4770887863833, -16.0], [1866.065983073597, -16.17139775939359], [1890.9760864837685, -17.0], [1921.2487101955028, -18.0], [1953.0090460356578, -19.0], [1987.3935918453387, -20.0], [1999.9999999999802, -20.350176563709105], [2027.849911876261, -21.0], [2071.3392072982883, -22.0], [2117.475236640203, -23.0], [2143.5469250725646, -23.538245638942886], [2186.476256100145, -24.0], [2282.8047721501453, -25.0], [2297.396709994046, -25.148258325418404], [2423.849619333952, -25.0], [2462.2888266898062, -24.958661819724554], [2557.2384686338237, -24.0], [2639.01582154576, -23.186172765612298], [2651.6639867337044, -23.0], [2720.0446860462253, -22.0], [2787.393298881977, -21.0], [2828.427124746159, -20.403546736546488], [2855.7783443842504, -20.0], [2922.8968045151432, -19.0], [2988.722123564243, -18.0], [3031.4331330207615, -17.36358664522538], [3062.0914638556064, -17.0], [3145.9545603278857, -16.0], [3228.5709347122825, -15.0], [3249.0095854249043, -14.759931940635216], [3352.688483176719, -14.0], [3482.2022531844555, -13.05202808610084], [3501.7839074461463, -13.0], [3732.1319661471844, -12.42421189767347], [3999.9999999999504, -12.762228521402507], [4067.415692283842, -13.0], [4287.093850145118, -13.76020076406557], [4347.965213266893, -14.0], [4594.793419988081, -14.947471613440616], [4614.073672827734, -15.0], [4924.577653379601, -15.838065667324239], [5240.276127849053, -16.0], [5278.031643091506, -16.019996842657843], [5288.044941194343, -16.0], [5656.854249492303, -15.298305988911375], [5729.766224050282, -15.0], [5976.177492684444, -14.0], [6062.866266041508, -13.653172876194015], [6183.312228036696, -13.0], [6364.940672129852, -12.0], [6498.019170849792, -11.268108234132153], [6543.575630088354, -10.999999999999998], [6712.934331620122, -10.0], [6878.615103106024, -9.0], [6964.404506368894, -8.492135989740603], [7058.473010371648, -8.0], [7246.968326421633, -7.0], [7432.698448190521, -6.0], [7464.2639322943505, -5.835110791214994], [7706.285731215598, -5.0], [7985.100877535791, -4.0], [7999.999999999882, -3.9471092708781184]], 'minus_line': [[125.0, 9.739902431187266], [133.9716828170366, 9.673544044341721], [143.5872943746292, 9.981787673173704], [144.0997521126522, 10.0], [153.89305166811442, 10.36021648266436], [164.93848884661162, 10.638819874661017], [176.77669529663677, 10.84850274514744], [184.41837805851173, 11.0], [189.46457081379947, 11.099811748135558], [203.0630990890585, 11.465120818121537], [217.6376408240306, 11.874101715615591], [225.21711966806077, 12.0], [233.25824788420132, 12.132965236578013], [243.73379163820616, 12.0], [249.99999999999937, 11.927913004353968], [267.35071902252054, 11.0], [267.94336563407256, 10.970067298286708], [277.972257747418, 10.0], [287.1745887492579, 9.113332505817056], [288.0617277908859, 9.0], [295.88334843587273, 8.0], [303.4600001440205, 7.0], [307.78610333622805, 6.436797342799929], [310.9632902476297, 6.0], [318.0199783559302, 5.0], [324.7951479322971, 4.0], [329.87697769322244, 3.2526979927612105], [331.8560753258197, 3.0], [339.5160872469056, 2.0], [346.8000197477737, 1.0], [353.55339059327247, 0.06313442194345131], [354.18299793100255, 0.0], [364.1232723350231, -1.0], [373.66452528774147, -2.0], [378.929141627598, -2.548059007319895], [386.85876610680805, -3.0], [404.5455774161038, -4.0], [406.12619817811606, -4.0868739235826546], [435.2752816480601, -4.217936598367257], [440.3721573658758, -4.0], [465.0264871620411, -3.0], [466.5164957684015, -2.942006964110696], [479.00512993679894, -2.0], [493.35037264523476, -1.0], [499.9999999999975, -0.5651227655637002], [506.55728908385083, 0.0], [518.4799629416719, 1.0], [531.507272237194, 2.0], [535.8867312681438, 2.318427352788095], [544.8791693424752, 3.0], [558.5962603043822, 4.0], [573.6889589549738, 5.0], [574.3491774985143, 5.04251268807491], [592.9189573822899, 6.0], [614.055360385654, 7.0], [615.5722066724546, 7.069741587787667], [654.5193812787237, 8.0], [659.7539553864432, 8.120799407505785], [707.1067811865431, 8.242736395836205], [730.3562772207052, 8.0], [757.8582832551941, 7.731976255807198], [812.2523963562301, 7.015543638799204], [814.0342465335092, 7.0], [870.5505632961181, 6.541310848002541], [933.0329915368008, 6.608594235692255], [967.9206091900676, 7.0], [999.9999999999926, 7.355217901728151], [1034.0381479093014, 8.0], [1071.773462536285, 8.681731693607112], [1086.4850317285095, 9.0], [1134.4947740797036, 10.0], [1148.698354997026, 10.282731744993598], [1188.7954970119506, 11.0], [1231.1444133449063, 11.713458175412573], [1262.9665400013093, 12.0], [1319.5079107728832, 12.496713414857318], [1414.2135623730828, 12.218723748476892], [1428.1316786729267, 12.0], [1492.9651508451682, 11.0], [1515.7165665103846, 10.657347846715059], [1541.9096118357095, 10.0], [1580.5078140935389, 9.0], [1618.355320881086, 8.0], [1624.5047927124563, 7.842471727745627], [1652.7420919399387, 7.0], [1684.2283669824085, 6.0], [1714.4924323912971, 5.0], [1741.1011265922318, 4.125560209329919], [1745.3831525954292, 4.0], [1778.6366890010827, 3.0], [1809.45854389074, 2.0], [1839.1046229182944, 1.0], [1866.065983073597, 0.09673391318650038], [1869.9241951764393, 0.0], [1908.9448703564422, -1.0], [1945.279486531036, -2.0], [1980.4208730928558, -3.0], [1999.9999999999802, -3.548459104095682], [2025.292855640723, -4.0], [2079.5650981957897, -5.0], [2131.92967113662, -6.0], [2143.5469250725646, -6.218408445375809], [2235.57232119638, -7.0], [2297.396709994046, -7.520755200023083], [2462.2888266898062, -7.365308318820457], [2505.186949595555, -7.0], [2629.8879017235763, -6.0], [2639.01582154576, -5.929768911799917], [2710.1930135065963, -5.0], [2793.257795220063, -4.0], [2828.427124746159, -3.6029688958601134], [2871.4133047831046, -3.0], [2945.5203954104795, -2.0], [3027.320176151541, -1.0], [3031.4331330207615, -0.9514210036506647], [3112.7721883195018, 0.0], [3204.655040452758, 1.0], [3249.0095854249043, 1.454030300650023], [3323.5810493099907, 2.0], [3468.1136978149702, 3.0], [3482.2022531844555, 3.0944771355302723], [3732.1319661471844, 3.734244611954245], [3999.9999999999504, 3.425976874375846], [4128.421294618765, 3.0], [4287.093850145118, 2.4976529670515886], [4426.234213060813, 2.0], [4594.793419988081, 1.4190165677585629], [4773.002410469071, 1.0], [4924.577653379601, 0.6616620630751735], [5278.031643091513, 0.6014807137176554], [5457.281583627777, 1.0], [5656.854249492303, 1.4357286000490157], [5787.132296655046, 2.0], [6029.282231024421, 3.0], [6062.866266041501, 3.1345978960457743], [6216.626390922834, 4.0], [6404.755860237601, 5.0], [6498.019170849792, 5.4691098300128935], [6587.504008499608, 6.0], [6760.707564931367, 7.0], [6949.611189886798, 8.0], [6964.404506368894, 8.075977950045186], [7131.631561435009, 9.0], [7322.747304643343, 10.0], [7464.2639322943505, 10.691431337888474], [7528.652696552357, 11.0], [7735.452606135576, 12.0], [7951.884082370797, 13.0], [7999.999999999882, 13.218124480351303]]}",,,,,,moiern,001,fr,1,2022-07-08_14h28.56.466,Continuous,2022.1.1,35.9595814257947,
13,0,13,0,2,0,2,0,,,,,,,,2.9843523174767355,none,945.0,2.915601612167249,5.9437298957917484e-05,0,97,['none'],0.009289929876103997,None,['space'],463.7518496999983,463.7518496999983,0.20934112998656929,3.1936934474633047,463.9667522999225,463.7518496999983,[-0.5408294999506325],,,,,,,,,,moiern,001,fr,1,2022-07-08_14h28.56.466,Continuous,2022.1.1,35.9595814257947,
13,0,13,0,3,0,3,0,,,,,,,,2.52591512316605,none,177.0,3.0,0.0004932689959622452,0,98,['none'],0.0070474299136549234,None,['space'],466.962001399952,466.962001399952,0.2063235299428925,2.7322386531089426,467.17541060002986,466.962001399952,[-2.7272702999180183],,,,,,,,,,moiern,001,fr,1,2022-07-08_14h28.56.466,Continuous,2022.1.1,35.9595814257947,
13,0,13,0,4,0,4,0,,,,,,,,1.5447796507780422,none,140.0,1.8917662015807695,0.0007325454419027664,0,99,['none'],0.026889259926974773,None,"['space', 'space']",469.71921499993186,469.71921499993186,0.2330036599887535,1.7777833107667957,469.9395720999455,469.71921499993186,"[-2.3558461999055, -0.4682995999464765]",,,,,,,,,,moiern,001,fr,1,2022-07-08_14h28.56.466,Continuous,2022.1.1,35.9595814257947,
13,0,13,0,5,0,5,0,,,,,,,,1.2646275730671217,none,446.0,1.4579578706422602,8.776568701459594e-05,0,100,['none'],0.0005982299335300922,None,['space'],471.49953979998827,471.49953979998827,0.19840073003433645,1.4630283031014581,471.7143153999932,471.49953979998827,[-1.247973300050944],,,,,,,,,,moiern,001,fr,1,2022-07-08_14h28.56.466,Continuous,2022.1.1,35.9595814257947,
13,0,13,0,6,0,6,0,,,,,,,,2.857911127385546,none,,,,1,100,['none'],0.014763829996809363,None,['space'],472.9897641999414,472.9897641999414,0.2219009300461039,3.07981205743165,473.2029632999329,472.9897641999414,[-0.9947221999755129],,,,,,,,,,moiern,001,fr,1,2022-07-08_14h28.56.466,Continuous,2022.1.1,35.9595814257947,
13,0,13,0,7,0,7,0,,,,,,,,1.1537233391608235,none,562.0,0.5278935233212293,6.564340249607333e-05,0,101,['none'],0.011631130008026958,None,None,476.0603639999172,476.0603639999172,0.2100894299801439,1.3638127691409674,476.27947860001586,476.0603639999172,,,,,,,,,,,moiern,001,fr,1,2022-07-08_14h28.56.466,Continuous,2022.1.1,35.9595814257947,
13,0,13,0,8,0,8,0,,,,,,,,2.506072051400782,none,298.0,3.4622275984226913,0.00017375035934729047,0,102,['none'],0.014700029976665974,None,['space'],477.4416322999168,477.4416322999168,0.2232212299713865,2.7292932813721684,477.6648665999528,477.4416322999168,[-0.8309849000070244],,,,,,,,,,moiern,001,fr,1,2022-07-08_14h28.56.466,Continuous,2022.1.1,35.9595814257947,
14,0,14,0,0,0,0,0,,,,,,484.4800489000045,None,2.8555575730801075,both,140.0,1.7060388874022439,0.0007170479601890141,0,50,['none'],0.022398230037651956,None,None,485.5078427999979,None,0.22318473004270345,3.078742303122811,485.7225298000267,None,,480.17109660001006,None,0.3333333333333333,,,,,,,moiern,001,fr,1,2022-07-08_14h28.56.466,Continuous,2022.1.1,35.9595814257947,
14,0,14,0,1,0,1,0,,,,,,,,2.8555575730801075,both,177.0,0.0,0.00034920770625886783,0,51,['none'],0.01038582983892411,None,None,488.57942580000963,488.57942580000963,0.22155222983565181,3.0771098029157593,488.8058963000076,488.57942580000963,,,,,,,,,,,moiern,001,fr,1,2022-07-08_14h28.56.466,Continuous,2022.1.1,35.9595814257947,
14,0,14,0,2,0,2,0,,,,,,,,2.8555575730801075,both,223.0,0.6345323016487658,0.00023708303093343417,0,52,['none'],0.010927230003289878,None,['space'],491.6598526999587,491.6598526999587,0.21063822996802628,3.0661958030481338,491.8797867000103,491.6598526999587,[-2.6486935999710113],,,,,,,,,,moiern,001,fr,1,2022-07-08_14h28.56.466,Continuous,2022.1.1,35.9595814257947,
14,0,14,0,3,0,3,0,,,,,,,,2.8555575730801075,both,,,,1,52,['none'],0.014274229994043708,None,['space'],494.7443094999762,494.7443094999762,0.22071532998234034,3.076272903062448,494.96117849997245,494.7443094999762,[-2.7093324000015855],,,,,,,,,,moiern,001,fr,1,2022-07-08_14h28.56.466,Continuous,2022.1.1,35.9595814257947,
14,0,14,0,4,0,4,0,,,,,,,,2.8555575730801075,both,354.0,1.322402568332394,0.00010304944705137596,0,53,['none'],0.011120630078949034,None,None,497.818007200025,497.818007200025,0.21028883010149002,3.0658464031815975,498.0375434999587,497.818007200025,,,,,,,,,,,moiern,001,fr,1,2022-07-08_14h28.56.466,Continuous,2022.1.1,35.9595814257947,
14,0,14,0,5,0,5,0,,,,,,,,2.8555575730801075,both,446.0,0.3799500467589878,7.752189235707238e-05,0,54,['none'],0.013623330043628812,None,['space'],500.9017219999805,500.9017219999805,0.21620173007249832,3.071759303152606,501.12198279995937,500.9017219999805,[-2.651179200038314],,,,,,,,,,moiern,001,fr,1,2022-07-08_14h28.56.466,Continuous,2022.1.1,35.9595814257947,
14,0,14,0,6,0,6,0,,,,,,,,2.8555575730801075,both,562.0,-0.7045483130043834,5.6959870329028296e-05,0,55,['none'],0.010263429954648018,None,['space'],503.9795983999502,503.9795983999502,0.20899392990395427,3.0645515029840618,504.19734259997495,503.9795983999502,[-2.7051580999977887],,,,,,,,,,moiern,001,fr,1,2022-07-08_14h28.56.466,Continuous,2022.1.1,35.9595814257947,
14,0,14,0,7,0,7,0,,,,,,,,2.8555575730801075,both,708.0,0.01790640312710797,4.4416090850705495e-05,0,56,['none'],0.009280130034312606,None,['space'],507.0609907999169,507.0609907999169,0.2105163299711421,3.0660739030512496,507.2744483000133,507.0609907999169,[-2.7302021000068635],,,,,,,,,,moiern,001,fr,1,2022-07-08_14h28.56.466,Continuous,2022.1.1,35.9595814257947,
14,0,14,0,8,0,8,0,,,,,,,,2.8555575730801075,both,892.0,1.1159744702528032,4.66016445937229e-05,0,57,['none'],0.009802129934541881,None,['space'],510.1359394999454,510.1359394999454,0.21080362994689494,3.0663612030270024,510.35141280002426,510.1359394999454,[-2.692780999932438],,,,,,,,,,moiern,001,fr,1,2022-07-08_14h28.56.466,Continuous,2022.1.1,35.9595814257947,
14,0,14,0,9,0,9,0,,,,,,,,2.8555575730801075,both,1124.0,1.1941566727832313,5.649592448131334e-05,0,58,['none'],0.009752830024808645,None,['space'],513.2166528999805,513.2166528999805,0.20894873002544045,3.064506303105548,513.4353892999934,513.2166528999805,[-2.7183784000808373],,,,,,,,,,moiern,001,fr,1,2022-07-08_14h28.56.466,Continuous,2022.1.1,35.9595814257947,
14,0,14,0,10,0,10,0,,,,,,,,2.8555575730801075,both,1416.0,0.2310256484266331,5.174618124400196e-05,0,59,['none'],0.012702729902230203,None,['space'],516.3012565999525,516.3012565999525,0.21801243000663817,3.0735700030867457,516.5210576999234,516.3012565999525,[-2.626563600031659],,,,,,,,,,moiern,001,fr,1,2022-07-08_14h28.56.466,Continuous,2022.1.1,35.9595814257947,
14,0,14,0,11,0,11,0,,,,,,,,2.8555575730801075,both,1784.0,4.993838398363078,0.00011561052723345488,0,60,['none'],0.009149830089882016,0.2040803300915286,['space'],519.3753465999616,519.3753465999616,0.2040803300915286,3.059637903171636,519.5918565000175,519.3753465999616,[-2.588819200056605],,,,,,,,,,moiern,001,fr,1,2022-07-08_14h28.56.466,Continuous,2022.1.1,35.9595814257947,
14,0,14,0,12,0,12,0,,,,,,,,2.8555575730801075,both,2248.0,0.2182726313545047,8.235297469811642e-05,0,61,['none'],0.010028230026364326,None,['space'],522.4487067000009,522.4487067000009,0.21046643005684018,3.0660240031369477,522.6625550999306,522.4487067000009,[-2.6457198000280187],,,,,,,,,,moiern,001,fr,1,2022-07-08_14h28.56.466,Continuous,2022.1.1,35.9595814257947,
14,0,14,0,13,0,13,0,,,,,,,,2.8555575730801075,both,2832.0,-1.1334191060152508,5.727990823632179e-05,0,62,['none'],0.012191829970106483,None,['space'],525.5280281000305,525.5280281000305,0.21370562992524356,3.069263203005351,525.7491181999212,525.5280281000305,[-2.717270299908705],,,,,,,,,,moiern,001,fr,1,2022-07-08_14h28.56.466,Continuous,2022.1.1,35.9595814257947,
14,0,14,0,14,0,14,0,,,,,,,,2.8555575730801075,both,3568.0,-0.3886037872707899,7.30159417958249e-05,0,63,['none'],0.006034029996953905,None,['space'],528.6115381999407,528.6115381999407,0.20349772996269166,3.059055303042799,528.8310915000038,528.6115381999407,[-2.6416829999070615],,,,,,,,,,moiern,001,fr,1,2022-07-08_14h28.56.466,Continuous,2022.1.1,35.9595814257947,
15,0,15,0,0,0,0,0,,,,,"[0.5833333333333334, 0.3333333333333333, 0.16666666666666666, 0.3333333333333333, 0.16666666666666666, 0.3333333333333333, 0.5833333333333334, 0.16666666666666666, 0.16666666666666666, 0.5833333333333334, 0.16666666666666666, 0.3333333333333333, 0.16666666666666666, 0.16666666666666666, 0.3333333333333333]",538.0758874999592,None,1.8775426690402455,time,3909.0,-2.89653418633345,5.899277189567223e-05,0,80,['none'],0.01828193000983447,None,None,539.0828863999341,None,0.22451142990030348,2.102054098940549,539.299740199931,None,,531.699863399961,None,,,,,,,,moiern,001,fr,1,2022-07-08_14h28.56.466,Continuous,2022.1.1,35.9595814257947,
15,0,15,0,1,0,1,0,,,,,,,,1.8775426690402455,time,1304.0,-3.1882347384775978,3.6833529618038124e-05,0,81,['none'],0.009415530017577112,None,['space'],541.1877836999483,541.1877836999483,0.20867862994782627,2.0862212989880717,541.4019730000291,541.1877836999483,[-1.041896399925463],,,,,,,,,,moiern,001,fr,1,2022-07-08_14h28.56.466,Continuous,2022.1.1,35.9595814257947,
15,0,15,0,2,0,2,0,,,,,,,,1.8775426690402455,time,1464.0,0.7667243901442733,5.373641797532326e-05,0,82,['none'],0.009629330015741289,None,None,543.286742300028,543.286742300028,0.2080753300106153,2.0856179990508608,543.5026427999837,543.286742300028,,,,,,,,,,,moiern,001,fr,1,2022-07-08_14h28.56.466,Continuous,2022.1.1,35.9595814257947,
15,0,15,0,3,0,3,0,,,,,,,,1.8775426690402455,time,1035.0,-1.2254638818546528,3.9527071957319114e-05,0,83,['none'],0.00991912989411503,None,['space'],545.3866894999519,545.3866894999519,0.20353972993325442,2.0810823989735,545.6045029999223,545.3866894999519,[-1.656258900067769],,,,,,,,,,moiern,001,fr,1,2022-07-08_14h28.56.466,Continuous,2022.1.1,35.9595814257947,
15,0,15,0,4,0,4,0,,,,,,,,1.8775426690402455,time,,,,1,83,['none'],0.00926473003346473,None,['space'],547.4864201999735,547.4864201999735,0.20696793007664382,2.0845105991168893,547.7053466999205,547.4864201999735,[-1.4192079999484122],,,,,,,,,,moiern,001,fr,1,2022-07-08_14h28.56.466,Continuous,2022.1.1,35.9595814257947,
15,0,15,0,5,0,5,0,,,,,,,,1.8775426690402455,time,4388.0,-4.204223926308137,6.818497639010528e-05,0,84,['none'],0.012667129863984883,None,None,549.5872469999595,549.5872469999595,0.21302552986890078,2.0905681989091462,549.8071768999798,549.5872469999595,,,,,,,,,,,moiern,001,fr,1,2022-07-08_14h28.56.466,Continuous,2022.1.1,35.9595814257947,
15,0,15,0,6,0,6,0,,,,,,,,1.8775426690402455,time,2609.0,-10.056246783350439,2.4859018972496412e-05,0,85,['none'],0.011479430017061532,None,None,551.6893219000194,551.6893219000194,0.21731962997000664,2.094862299010252,551.9102391999913,551.6893219000194,,,,,,,,,,,moiern,001,fr,1,2022-07-08_14h28.56.466,Continuous,2022.1.1,35.9595814257947,
15,0,15,0,7,0,7,0,,,,,,,,1.8775426690402455,time,1845.0,2.142324925281264,8.67819758497697e-05,0,86,['none'],0.0064205300295725465,None,None,553.7862633999903,553.7862633999903,0.20425993006210774,2.081802599102353,553.9992343999911,553.7862633999903,,,,,,,,,,,moiern,001,fr,1,2022-07-08_14h28.56.466,Continuous,2022.1.1,35.9595814257947,
15,0,15,0,8,0,8,0,,,,,,,,1.8775426690402455,time,2071.0,1.9979833467364574,9.614152313228261e-05,0,87,['none'],0.006930930074304342,None,['space'],555.8882116000168,555.8882116000168,0.2069144300185144,2.08445709905876,556.1093546999618,555.8882116000168,[-1.6938320000190288],,,,,,,,,,moiern,001,fr,1,2022-07-08_14h28.56.466,Continuous,2022.1.1,35.9595814257947,
15,0,15,0,9,0,9,0,,,,,,,,1.8775426690402455,time,4925.0,-12.0,3.707183077084134e-05,0,88,['none'],0.011921330005861819,None,['space'],557.9955832000123,557.9955832000123,0.22170832997653633,2.099250999016782,558.2163769999752,557.9955832000123,[-1.6092632000800222],,,,,,,,,,moiern,001,fr,1,2022-07-08_14h28.56.466,Continuous,2022.1.1,35.9595814257947,
16,0,16,0,0,0,0,0,,,,,"[0.5833333333333334, 0.3333333333333333, 0.3333333333333333, 0.16666666666666666, 0.5833333333333334, 0.3333333333333333, 0.16666666666666666, 0.5833333333333334, 0.5833333333333334, 0.16666666666666666, 0.3333333333333333, 0.3333333333333333, 0.3333333333333333, 0.3333333333333333, 0.3333333333333333]",576.3675095000071,None,1.9719220838419453,time,456.0,-8.182498316448436,2.8727713154164453e-05,0,89,['none'],0.023588229902088642,None,None,577.392428799998,None,0.23054172995034605,2.202463813792291,577.6041319000069,None,,560.0961838000221,None,,,,,,,,moiern,001,fr,1,2022-07-08_14h28.56.466,Continuous,2022.1.1,35.9595814257947,
16,0,16,0,1,0,1,0,,,,,,,,1.9719220838419453,time,135.0,-16.794016952758287,9.165943766732507e-05,0,90,['none'],0.012789829983375967,None,None,579.5850545000285,579.5850545000285,0.2182558299973607,2.190177913839306,579.7951986999251,579.5850545000285,,,,,,,,,,,moiern,001,fr,1,2022-07-08_14h28.56.466,Continuous,2022.1.1,35.9595814257947,
16,0,16,0,2,0,2,0,,,,,,,,1.9719220838419453,time,228.0,-13.625223051305928,4.38698425514553e-05,0,91,['none'],0.013078429969027638,None,None,581.770090200007,581.770090200007,0.21763952996116132,2.1895616138031064,581.9802631000057,581.770090200007,,,,,,,,,,,moiern,001,fr,1,2022-07-08_14h28.56.466,Continuous,2022.1.1,35.9595814257947,
16,0,16,0,3,0,3,0,,,,,,,,1.9719220838419453,time,203.0,-18.0,3.2677253636010644e-05,0,92,['none'],0.011439729947596788,None,None,583.9564257999882,583.9564257999882,0.21375562995672226,2.1856777137986674,584.1767226000084,583.9564257999882,,,,,,,,,,,moiern,001,fr,1,2022-07-08_14h28.56.466,Continuous,2022.1.1,35.9595814257947,
16,0,16,0,4,0,4,0,,,,,,,,1.9719220838419453,time,287.0,-0.061242193002238654,0.0001273832642212022,0,93,['none'],0.009607829852029681,None,None,586.1479955000104,586.1479955000104,0.20809222990646958,2.1800143137484147,586.3661242999369,586.1479955000104,,,,,,,,,,,moiern,001,fr,1,2022-07-08_14h28.56.466,Continuous,2022.1.1,35.9595814257947,
16,0,16,0,5,0,5,0,,,,,,,,1.9719220838419453,time,575.0,-4.488111706462166,3.5636380035007514e-05,0,94,['none'],0.003920129965990782,None,['space'],588.3590836999938,588.3590836999938,0.20705002988688648,2.1789721137288316,588.5841445999686,588.3590836999938,[-1.812264300067909],,,,,,,,,,moiern,001,fr,1,2022-07-08_14h28.56.466,Continuous,2022.1.1,35.9595814257947,
16,0,16,0,6,0,6,0,,,,,,,,1.9719220838419453,time,724.0,-0.9263895874398496,3.857942723206966e-05,0,95,['none'],0.004989030072465539,None,None,590.5606731999433,590.5606731999433,0.2042100300313905,2.1761321138733356,590.7833506999305,590.5606731999433,,,,,,,,,,,moiern,001,fr,1,2022-07-08_14h28.56.466,Continuous,2022.1.1,35.9595814257947,
16,0,16,0,7,0,7,0,,,,,,,,1.9719220838419453,time,,,,1,95,['none'],0.00826023006811738,None,None,592.7584321999457,592.7584321999457,0.20583803008776158,2.1777601139297067,592.9742537999991,592.7584321999457,,,,,,,,,,,moiern,001,fr,1,2022-07-08_14h28.56.466,Continuous,2022.1.1,35.9595814257947,
17,0,17,0,0,0,0,0,,,,,,598.9914579999167,None,2.1405449820871056,frequency,455.0,2.83141509858394,0.00010216396754926371,0,88,['none'],0.02186712995171547,None,None,600.0230811999645,None,0.22571072995197028,2.366255712039076,600.2393177999184,None,,594.9628987000324,None,0.16666666666666666,,,,,,,moiern,001,fr,1,2022-07-08_14h28.56.466,Continuous,2022.1.1,35.9595814257947,
17,0,17,0,1,0,1,0,,,,,,,,2.319916275462265,frequency,511.0,2.905952007630138,9.743368551471582e-05,0,89,['none'],0.007886630017310381,0.20643562998156995,['space'],602.3863934000256,602.3863934000256,0.20643562998156995,2.526351905443835,602.5986393999774,602.3863934000256,[-1.8079157000174746],,,,,,,,,,moiern,001,fr,1,2022-07-08_14h28.56.466,Continuous,2022.1.1,35.9595814257947,
17,0,17,0,2,0,2,0,,,,,,,,2.8473119531176323,frequency,574.0,3.412268968666666,8.872482094955241e-05,0,90,['none'],0.011325729894451797,None,None,604.9289369999897,604.9289369999897,0.22541902994271368,3.072730983060346,605.1499962999951,604.9289369999897,,,,,,,,,,,moiern,001,fr,1,2022-07-08_14h28.56.466,Continuous,2022.1.1,35.9595814257947,
17,0,17,0,3,0,3,0,,,,,,,,2.6807003057554546,frequency,644.0,1.2571467980934332,5.771376002164959e-05,0,91,['none'],0.008220229996368289,None,['space'],608.0003565999214,608.0003565999214,0.2068947299849242,2.887595035740379,608.2188162999228,608.0003565999214,[-2.61442569992505],,,,,,,,,,moiern,001,fr,1,2022-07-08_14h28.56.466,Continuous,2022.1.1,35.9595814257947,
17,0,17,0,4,0,4,0,,,,,,,,2.019819334100104,frequency,723.0,2.509586532973812,5.741706390901366e-05,0,92,['none'],0.008083829889073968,None,['space'],610.9076213999651,610.9076213999651,0.20611372985877097,2.225933063958875,611.122385900002,610.9076213999651,[-2.4563954999903217],,,,,,,,,,moiern,001,fr,1,2022-07-08_14h28.56.466,Continuous,2022.1.1,35.9595814257947,
17,0,17,0,5,0,5,0,,,,,,,,2.398540954901611,frequency,812.0,2.12915351599544,4.946194162781947e-05,0,93,['none'],0.010634129983372986,None,['space'],613.1537481999258,613.1537481999258,0.21326263004448265,2.6118035849460934,613.3743054999504,613.1537481999258,[-1.8309098999015987],,,,,,,,,,moiern,001,fr,1,2022-07-08_14h28.56.466,Continuous,2022.1.1,35.9595814257947,
17,0,17,0,6,0,6,0,,,,,,,,2.7491375938001346,frequency,912.0,2.232038273366369,5.3726277547802226e-05,0,94,['none'],0.011417630012147129,None,None,615.7729757999768,615.7729757999768,0.21372563007753342,2.962863223877668,615.988150899997,615.7729757999768,,,,,,,,,,,moiern,001,fr,1,2022-07-08_14h28.56.466,Continuous,2022.1.1,35.9595814257947,
17,0,17,0,7,0,7,0,,,,,,,,1.73873785682343,frequency,1024.0,3.4109591925717004,6.672728161726827e-05,0,95,['none'],0.010732430033385754,None,['space'],618.7428542999551,618.7428542999551,0.21210233005695045,1.9508401868803804,618.962932699942,618.7428542999551,[-2.5083140999777243],,,,,,,,,,moiern,001,fr,1,2022-07-08_14h28.56.466,Continuous,2022.1.1,35.9595814257947,
