frequencies,training_trials.thisRepN,training_trials.thisTrialN,training_trials.thisN,training_trials.thisIndex,frequencies.thisRepN,frequencies.thisTrialN,frequencies.thisN,frequencies.thisIndex,trials.thisRepN,trials.thisTrialN,trials.thisN,trials.thisIndex,tFrequency,tLevel,tCorrect,Tprobe.started,Tprobe.stopped,tTriangle_cue.started,tTriangle_cue.stopped,Tfeedback.keys,Tfeedback.corr,Tfeedback.rt,Tfeedback.started,Tfeedback.stopped,reversals_nTrials.routineEndVal,track_dir.routineEndVal,step_up.routineEndVal,Correct,Frequency,Level,Psychopy_Level,Direction,Reversals,Track_dir,Step,probe.started,probe.stopped,cross_cue.started,cross_cue.stopped,circle_cue.started,circle_cue.stopped,triangle_cue.started,triangle_cue.stopped,feedback.keys,feedback.corr,feedback.rt,feedback.started,feedback.stopped,memo.started,memo.stopped,key_resp.keys,key_resp.rt,key_resp.started,key_resp.stopped,text.started,text.stopped,participant,session,skip_training,language (english or french),date,expName,psychopyVersion,frameRate,
450,0,0,0,1,,,,,,,,,450,30,up,79.76454386668435,None,80.71342319995165,81.04060429998208,up,1,10.19499150000047,78.26019669999368,None,,,,,,,,,,,,,,,,,,,,,,,,,,,,,,,,,bihhjl,001,0,fr,2022-06-23_11h41.43.173,3-AFC_adaptive_staircase_mess,2022.1.1,33.65663900886416,
200,0,1,1,0,,,,,,,,,200,30,up,91.20863626670713,None,None,None,left,0,1.4591784999938682,89.7236856999807,None,,,,,,,,,,,,,,,,,,,,,,,,,,,,,,,,,bihhjl,001,0,fr,2022-06-23_11h41.43.173,3-AFC_adaptive_staircase_mess,2022.1.1,33.65663900886416,
850,0,2,2,2,,,,,,,,,850,30,left,93.37151786667916,None,None,None,left,1,1.3874487000284716,92.9233825999545,None,,,,,,,,,,,,,,,,,,,,,,,,,,,,,,,,,bihhjl,001,0,fr,2022-06-23_11h41.43.173,3-AFC_adaptive_staircase_mess,2022.1.1,33.65663900886416,
1300,0,3,3,3,,,,,,,,,1300,30,right,None,None,None,None,left,0,1.080485700047575,99.88681559998076,None,,,,,,,,,,,,,,,,,,,,,,,,,,,,,,,,,bihhjl,001,0,fr,2022-06-23_11h41.43.173,3-AFC_adaptive_staircase_mess,2022.1.1,33.65663900886416,
5000,0,4,4,4,,,,,,,,,5000,30,up,None,None,None,None,left,0,1.0674383000005037,104.36316619999707,None,,,,,,,,,,,,,,,,,,,,,,,,,,,,,,,,,bihhjl,001,0,fr,2022-06-23_11h41.43.173,3-AFC_adaptive_staircase_mess,2022.1.1,33.65663900886416,
,,,,,0,0,0,0,0,0,0,0,,,,,,,,,,,,,[],[],10,up,1000,30,0.0013930605843148849,0,0,1,10,153.18932526669622,None,152.18235969997477,152.51765039993916,153.17265860002954,153.49176050000824,154.15415930002928,154.48882760002743,right,0,9.123870500014164,152.21944809996057,None,154.72468420001678,None,,,,,,,bihhjl,001,0,fr,2022-06-23_11h41.43.173,3-AFC_adaptive_staircase_mess,2022.1.1,33.65663900886416,
,,,,,0,0,0,0,1,0,1,0,,,,,,,,,,,,,,,,up,1000,40,0.004405244365040069,1,0,1,10,None,None,162.86298279999755,None,None,None,None,None,left,0,-1.4002501999493688,162.9274396999972,None,None,None,,,,,,,bihhjl,001,0,fr,2022-06-23_11h41.43.173,3-AFC_adaptive_staircase_mess,2022.1.1,33.65663900886416,
,,,,,0,0,0,0,2,0,2,0,,,,,,,,,,,,,,,,left,1000,50,0.013930605843148852,1,0,1,10,164.48214456666418,None,164.43120019999333,164.76387080003042,None,None,None,None,left,1,0.5201408999273553,164.49581600003876,None,None,None,,,,,,,bihhjl,001,0,fr,2022-06-23_11h41.43.173,3-AFC_adaptive_staircase_mess,2022.1.1,33.65663900886416,
,,,,,0,0,0,0,3,0,3,0,,,,,,,,,,,,,,,,left,1000,50,0.013930605843148852,1,0,1,10,166.55409496667951,None,166.53742830001283,166.87024880002718,None,None,None,None,left,1,0.5107302999822423,166.56874609994702,None,None,None,,,,,,,bihhjl,001,0,fr,2022-06-23_11h41.43.173,3-AFC_adaptive_staircase_mess,2022.1.1,33.65663900886416,
,,,,,0,0,0,0,4,0,4,0,,,,,,,,,,,,,,,,up,1000,30,0.0013930605843148849,-1,1,-1,-10,None,None,168.601639600005,168.93401540000923,None,None,None,None,left,0,0.431711700046435,168.6714341000188,None,None,None,,,,,,,bihhjl,001,0,fr,2022-06-23_11h41.43.173,3-AFC_adaptive_staircase_mess,2022.1.1,33.65663900886416,
,,,,,0,0,0,0,5,0,5,0,,,,,,,,,,,,,,,,left,1000,35,0.002477250954023951,1,2,1,2.5,170.65533966670435,None,170.63867300003767,170.97043779992964,171.6345153999282,171.97001809999347,172.63725569995586,172.97100230003707,right,0,14.11489279998932,170.67605170002207,None,173.19052469998132,None,,,,,,,bihhjl,001,0,fr,2022-06-23_11h41.43.173,3-AFC_adaptive_staircase_mess,2022.1.1,33.65663900886416,
,,,,,0,0,0,0,6,0,6,0,,,,,,,,,,,,,,,,up,1000,37.5,0.0033034672400379795,1,2,1,2.5,187.35513506661326,None,186.3168108999962,186.65048880001996,187.30354480003007,187.62718239997048,None,None,up,1,1.588309200014919,186.3542103000218,None,None,None,,,,,,,bihhjl,001,0,fr,2022-06-23_11h41.43.173,3-AFC_adaptive_staircase_mess,2022.1.1,33.65663900886416,
,,,,,0,0,0,0,7,0,7,0,,,,,,,,,,,,,,,,up,1000,37.5,0.0033034672400379795,1,2,1,2.5,190.4860577666589,None,189.45958369993605,189.78855079994537,190.4693910999922,190.7877126999665,None,None,up,1,1.740960199967958,189.52267330000177,None,None,None,,,,,,,bihhjl,001,0,fr,2022-06-23_11h41.43.173,3-AFC_adaptive_staircase_mess,2022.1.1,33.65663900886416,
,,,,,0,0,0,0,8,0,8,0,,,,,,,,,,,,,,,,up,1000,32.5,0.0018576761454858627,-1,3,-1,-5.0,193.87667536660254,194.1044035999803,192.8260622000089,193.15037269995082,193.83032529999036,194.16732799995225,194.82888879999518,195.1586386000272,up,1,4.688372200005688,192.88635919999797,None,195.39329149993137,None,,,,,,,bihhjl,001,0,fr,2022-06-23_11h41.43.173,3-AFC_adaptive_staircase_mess,2022.1.1,33.65663900886416,
,,,,,0,0,0,0,9,0,9,0,,,,,,,,,,,,,,,,left,1000,32.5,0.0018576761454858627,-1,3,-1,-5.0,199.11659946659736,199.35026410000864,199.09993279993068,199.43892600003164,200.09120220004115,200.4192650000332,201.09731590002775,201.43072439997923,right,0,6.618230399908498,199.13371800002642,None,201.64281370001845,None,,,,,,,bihhjl,001,0,fr,2022-06-23_11h41.43.173,3-AFC_adaptive_staircase_mess,2022.1.1,33.65663900886416,
,,,,,0,0,0,0,10,0,10,0,,,,,,,,,,,,,,,,left,1000,35.0,0.002477250954023951,1,4,1,2.5,207.30176846665952,None,207.25668739993125,207.5896509999875,None,None,None,None,left,1,0.8852993999607861,207.31333070003893,None,None,None,,,,,,,bihhjl,001,0,fr,2022-06-23_11h41.43.173,3-AFC_adaptive_staircase_mess,2022.1.1,33.65663900886416,
,,,,,0,0,0,0,11,0,11,0,,,,,,,,,,,,,,,,right,1000,35.0,0.002477250954023951,1,4,1,2.5,211.75773086661164,211.98729349998757,209.71304339997005,210.04582210001536,210.7215449999785,211.04947740002535,211.70705209998414,212.05167399998754,right,1,2.489707099972293,209.77275669993833,None,212.2831391999498,None,,,,,,,bihhjl,001,0,fr,2022-06-23_11h41.43.173,3-AFC_adaptive_staircase_mess,2022.1.1,33.65663900886416,
,,,,,0,0,0,0,12,0,12,0,,,,,,,,,,,,,,,,left,1000,30.0,0.0013930605843148849,-1,5,-1,-5.0,213.80229026667465,None,213.78562360000797,214.10070079995785,214.78001210000366,215.11377649998758,215.77988269994967,216.11914730002172,up,0,4.338206799933687,213.82109600002877,None,216.34822199994233,None,,,,,,,bihhjl,001,0,fr,2022-06-23_11h41.43.173,3-AFC_adaptive_staircase_mess,2022.1.1,33.65663900886416,
,,,,,0,0,0,0,13,0,13,0,,,,,,,,,,,,,,,,left,1000,32.5,0.0018576761454858627,1,6,1,2.5,219.73025536659796,None,219.6807757000206,None,None,None,None,None,right,0,-1.3897343999706209,219.7418975000037,None,None,None,,,,,,,bihhjl,001,0,fr,2022-06-23_11h41.43.173,3-AFC_adaptive_staircase_mess,2022.1.1,33.65663900886416,
,,,,,1,0,1,0,0,0,0,0,,,,,,,,,,,,,[],[],10,left,1500,30,0.001527460556607757,0,0,1,10,225.64959986665443,None,225.63293319998775,225.9581435000291,226.63356220000423,226.95713470003102,227.6343252999941,227.9568134000292,up,0,4.169851899961941,225.6614525000332,None,228.1704964999808,None,space,4.298639100044966,220.82009579997975,None,220.82009579997975,None,bihhjl,001,0,fr,2022-06-23_11h41.43.173,3-AFC_adaptive_staircase_mess,2022.1.1,33.65663900886416,
,,,,,1,0,1,0,1,0,1,0,,,,,,,,,,,,,,,,up,1500,40,0.004830254394949068,1,0,1,10,None,None,231.32618620002177,None,None,None,None,None,right,0,-1.5496625000378117,231.39656539994758,None,None,None,,,,,,,bihhjl,001,0,fr,2022-06-23_11h41.43.173,3-AFC_adaptive_staircase_mess,2022.1.1,33.65663900886416,
,,,,,1,0,1,0,2,0,2,0,,,,,,,,,,,,,,,,left,1500,50,0.01527460556607757,1,0,1,10,232.98049266665865,233.2083386000013,232.92975410004146,233.27233069995418,None,None,None,None,left,1,0.5133703999454156,232.99768499995116,None,None,None,,,,,,,bihhjl,001,0,fr,2022-06-23_11h41.43.173,3-AFC_adaptive_staircase_mess,2022.1.1,33.65663900886416,
,,,,,1,0,1,0,3,0,3,0,,,,,,,,,,,,,,,,right,1500,50,0.01527460556607757,1,0,1,10,237.08498106670257,None,235.0358022999717,235.36728669994045,236.03143199998885,236.3720095999306,237.03499960002955,237.37242959998548,right,1,2.3424597999546677,235.1044243000215,None,None,None,,,,,,,bihhjl,001,0,fr,2022-06-23_11h41.43.173,3-AFC_adaptive_staircase_mess,2022.1.1,33.65663900886416,
,,,,,1,0,1,0,4,0,4,0,,,,,,,,,,,,,,,,up,1500,30,0.001527460556607757,-1,1,-1,-10,240.02743906662025,240.2496778999921,238.9735983000137,239.3074832999846,239.97679290000815,240.31455260002986,240.97871659998782,241.30572329997085,up,1,3.920348500018008,239.03899199992884,None,241.53981320001185,None,,,,,,,bihhjl,001,0,fr,2022-06-23_11h41.43.173,3-AFC_adaptive_staircase_mess,2022.1.1,33.65663900886416,
,,,,,1,0,1,0,5,0,5,0,,,,,,,,,,,,,,,,up,1500,30,0.001527460556607757,-1,1,-1,-10,245.4999909666988,None,244.4790451999288,244.81093149993103,245.4833243000321,245.814436799963,246.47879500000272,246.81454489997122,up,1,3.8957832999294624,244.5513595000375,None,247.04827070003375,None,,,,,,,bihhjl,001,0,fr,2022-06-23_11h41.43.173,3-AFC_adaptive_staircase_mess,2022.1.1,33.65663900886416,
,,,,,1,0,1,0,6,0,6,0,,,,,,,,,,,,,,,,left,1500,20,0.00048302543949490677,-1,1,-1,-10,249.9995826666166,None,249.94828589993995,None,None,None,None,None,left,1,-1.5518087999662384,250.01473669998813,None,None,None,,,,,,,bihhjl,001,0,fr,2022-06-23_11h41.43.173,3-AFC_adaptive_staircase_mess,2022.1.1,33.65663900886416,
,,,,,1,0,1,0,7,0,7,0,,,,,,,,,,,,,,,,up,1500,20,0.00048302543949490677,-1,1,-1,-10,252.596935666694,None,251.5450224999804,251.88636030000634,252.54554079996888,252.8859651000239,253.55600989994127,253.88342550001107,left,0,8.926890700007789,251.60799839999527,None,254.11784770002123,None,,,,,,,bihhjl,001,0,fr,2022-06-23_11h41.43.173,3-AFC_adaptive_staircase_mess,2022.1.1,33.65663900886416,
,,,,,1,0,1,0,8,0,8,0,,,,,,,,,,,,,,,,right,1500,25,0.0008589541935787943,1,2,1,2.5,264.09279786661887,None,262.0723230999429,262.39152890001424,263.0619186999975,263.396214999957,264.0761311999522,264.39851400000043,up,0,5.17474119993858,262.1039000999881,None,264.633341299952,None,,,,,,,bihhjl,001,0,fr,2022-06-23_11h41.43.173,3-AFC_adaptive_staircase_mess,2022.1.1,33.65663900886416,
,,,,,1,0,1,0,9,0,9,0,,,,,,,,,,,,,,,,up,1500,27.5,0.0011454338263838868,1,2,1,2.5,None,None,268.78856060002,None,None,None,None,None,left,0,-1.522156700026244,268.8488672999665,None,None,None,,,,,,,bihhjl,001,0,fr,2022-06-23_11h41.43.173,3-AFC_adaptive_staircase_mess,2022.1.1,33.65663900886416,
,,,,,1,0,1,0,10,0,10,0,,,,,,,,,,,,,,,,left,1500,30.0,0.001527460556607757,1,2,1,2.5,270.41129366663904,None,270.3652094999561,270.7096644999692,271.36267179995775,271.70052800001577,272.3711549999425,272.6976163999643,up,0,9.279281400027685,270.42341920000035,None,272.9038950999966,None,,,,,,,bihhjl,001,0,fr,2022-06-23_11h41.43.173,3-AFC_adaptive_staircase_mess,2022.1.1,33.65663900886416,
,,,,,1,0,1,0,11,0,11,0,,,,,,,,,,,,,,,,left,1500,32.5,0.0020369013890205647,1,2,1,2.5,281.2624976667032,None,281.2139399999287,281.55284140002914,282.2110983999446,282.5486051000189,283.1977329000365,283.54400200000964,left,1,5.348899700096808,281.28162579995114,None,283.77103539998643,None,,,,,,,bihhjl,001,0,fr,2022-06-23_11h41.43.173,3-AFC_adaptive_staircase_mess,2022.1.1,33.65663900886416,
,,,,,1,0,1,0,12,0,12,0,,,,,,,,,,,,,,,,left,1500,32.5,0.0020369013890205647,1,2,1,2.5,288.1886432666254,None,288.141753599979,288.46118189999834,289.1659568999894,289.48642710002605,290.15462169994134,290.4861311999848,left,1,6.349412799929269,288.20152749994304,None,290.70128119993024,None,,,,,,,bihhjl,001,0,fr,2022-06-23_11h41.43.173,3-AFC_adaptive_staircase_mess,2022.1.1,33.65663900886416,
,,,,,1,0,1,0,13,0,13,0,,,,,,,,,,,,,,,,right,1500,27.5,0.0011454338263838868,-1,3,-1,-5.0,298.1126545667105,298.3417536999332,296.05187219998334,296.3909566999646,297.05427630001213,297.39076640002895,298.06332389998715,298.4052404999966,left,0,4.864251199993305,296.1108586000046,None,298.63083369995,None,,,,,,,bihhjl,001,0,fr,2022-06-23_11h41.43.173,3-AFC_adaptive_staircase_mess,2022.1.1,33.65663900886416,
,,,,,1,0,1,0,14,0,14,0,,,,,,,,,,,,,,,,up,1500,30.0,0.001527460556607757,1,4,1,2.5,303.51668396668197,None,302.4971166999312,302.83246790000703,303.5000173000153,303.8425696999766,304.47570109996013,304.7909929000307,up,1,3.133672299911268,302.5294843999436,None,305.036338099977,None,,,,,,,bihhjl,001,0,fr,2022-06-23_11h41.43.173,3-AFC_adaptive_staircase_mess,2022.1.1,33.65663900886416,
,,,,,1,0,1,0,15,0,15,0,,,,,,,,,,,,,,,,up,1500,30.0,0.001527460556607757,1,4,1,2.5,308.2361429666091,None,307.2011977999937,307.5232801999664,308.186651899945,308.50230229995213,309.20351300004404,309.53604819998145,up,1,3.8120922000380233,307.234464499983,None,309.75144409993663,None,,,,,,,bihhjl,001,0,fr,2022-06-23_11h41.43.173,3-AFC_adaptive_staircase_mess,2022.1.1,33.65663900886416,
,,,,,1,0,1,0,16,0,16,0,,,,,,,,,,,,,,,,right,1500,25.0,0.0008589541935787943,-1,5,-1,-5.0,314.60068596661245,None,312.5598150999285,312.89922539994586,313.56515979999676,313.9043747000396,314.556715899962,314.8668621999677,up,0,3.0283710000803694,312.61820959998295,None,315.1069605000084,None,,,,,,,bihhjl,001,0,fr,2022-06-23_11h41.43.173,3-AFC_adaptive_staircase_mess,2022.1.1,33.65663900886416,
,,,,,1,0,1,0,17,0,17,0,,,,,,,,,,,,,,,,up,1500,27.5,0.0011454338263838868,1,6,1,2.5,None,None,317.1845994000323,None,None,None,None,None,left,0,-1.531484599923715,317.2514782999642,None,None,None,,,,,,,bihhjl,001,0,fr,2022-06-23_11h41.43.173,3-AFC_adaptive_staircase_mess,2022.1.1,33.65663900886416,
,,,,,2,0,2,0,0,0,0,0,,,,,,,,,,,,,[],[],10,left,2000,30,0.0023657562948074026,0,0,1,10,320.39258646668554,None,320.3474290999584,320.69362619996537,321.37219989998266,321.7154452999821,322.353307900019,322.68490839994047,up,0,3.5694907000288367,320.40571640001144,None,322.908805700019,None,space,1.5493068000068888,318.3137358999811,None,318.3137358999811,None,bihhjl,001,0,fr,2022-06-23_11h41.43.173,3-AFC_adaptive_staircase_mess,2022.1.1,33.65663900886416,
,,,,,2,0,2,0,1,0,1,0,,,,,,,,,,,,,,,,up,2000,40,0.007481178280472167,1,0,1,10,None,None,325.49969430000056,None,None,None,None,None,right,0,-1.564814299927093,325.56377440004144,None,None,None,,,,,,,bihhjl,001,0,fr,2022-06-23_11h41.43.173,3-AFC_adaptive_staircase_mess,2022.1.1,33.65663900886416,
,,,,,2,0,2,0,2,0,2,0,,,,,,,,,,,,,,,,left,2000,50,0.02365756294807403,1,0,1,10,327.1069741666472,None,327.06013999995776,327.3948988999473,None,None,None,None,left,1,0.6374441999942064,327.1216802999843,None,None,None,,,,,,,bihhjl,001,0,fr,2022-06-23_11h41.43.173,3-AFC_adaptive_staircase_mess,2022.1.1,33.65663900886416,
,,,,,2,0,2,0,3,0,3,0,,,,,,,,,,,,,,,,up,2000,50,0.02365756294807403,1,0,1,10,330.3221583666202,330.54252619994804,329.2933441000059,329.6099274000153,330.27344409993384,330.60605880001094,None,None,up,1,1.6255216000135988,329.3253671999555,None,None,None,,,,,,,bihhjl,001,0,fr,2022-06-23_11h41.43.173,3-AFC_adaptive_staircase_mess,2022.1.1,33.65663900886416,
,,,,,2,0,2,0,4,0,4,0,,,,,,,,,,,,,,,,right,2000,30,0.0023657562948074026,-1,1,-1,-10,334.5292556665993,None,332.4709264000412,332.79528580000624,333.47474019997753,333.81178759993054,334.48223990004044,334.8099551999476,right,1,4.1119659000542015,332.5353430999676,None,335.0381855999585,None,,,,,,,bihhjl,001,0,fr,2022-06-23_11h41.43.173,3-AFC_adaptive_staircase_mess,2022.1.1,33.65663900886416,
,,,,,2,0,2,0,5,0,5,0,,,,,,,,,,,,,,,,up,2000,30,0.0023657562948074026,-1,1,-1,-10,339.2275947665951,None,338.17564289993607,338.4919051999459,339.1785234999843,339.49544450000394,340.17362409993075,340.48929009994026,up,1,4.179970400058664,338.24336069996934,None,340.7220960999839,None,,,,,,,bihhjl,001,0,fr,2022-06-23_11h41.43.173,3-AFC_adaptive_staircase_mess,2022.1.1,33.65663900886416,
,,,,,2,0,2,0,6,0,6,0,,,,,,,,,,,,,,,,up,2000,20,0.0007481178280472167,-1,1,-1,-10,None,None,343.9424420000287,None,None,None,None,None,left,0,-1.5712783999042585,344.01141819998156,None,None,None,,,,,,,bihhjl,001,0,fr,2022-06-23_11h41.43.173,3-AFC_adaptive_staircase_mess,2022.1.1,33.65663900886416,
,,,,,2,0,2,0,7,0,7,0,,,,,,,,,,,,,,,,left,2000,25,0.0013303625298994048,1,2,1,2.5,345.57128926663813,None,345.5207614999963,345.8591529999394,346.53574449999724,346.8526915999828,347.5220842999406,347.85217269998975,left,1,3.279526999918744,345.5920732000377,None,348.0730629999889,None,,,,,,,bihhjl,001,0,fr,2022-06-23_11h41.43.173,3-AFC_adaptive_staircase_mess,2022.1.1,33.65663900886416,
,,,,,2,0,2,0,8,0,8,0,,,,,,,,,,,,,,,,up,2000,25,0.0013303625298994048,1,2,1,2.5,None,None,350.4105150999967,None,None,None,None,None,right,0,-1.4687634999863803,350.47554869996384,None,None,None,,,,,,,bihhjl,001,0,fr,2022-06-23_11h41.43.173,3-AFC_adaptive_staircase_mess,2022.1.1,33.65663900886416,
,,,,,2,0,2,0,9,0,9,0,,,,,,,,,,,,,,,,right,2000,27.5,0.0017740669461678775,1,2,1,2.5,354.0039844666064,None,351.9558301999932,352.2691150000319,352.9632877999684,353.2757134999847,353.9483206999721,354.26827290002257,up,0,3.7402640999061987,352.0189755000174,None,354.5143420000095,None,,,,,,,bihhjl,001,0,fr,2022-06-23_11h41.43.173,3-AFC_adaptive_staircase_mess,2022.1.1,33.65663900886416,
,,,,,2,0,2,0,10,0,10,0,,,,,,,,,,,,,,,,right,2000,30.0,0.0023657562948074026,1,2,1,2.5,None,None,357.2810499999905,None,None,None,None,None,left,0,-1.5263017000397667,357.349331800011,None,None,None,,,,,,,bihhjl,001,0,fr,2022-06-23_11h41.43.173,3-AFC_adaptive_staircase_mess,2022.1.1,33.65663900886416,
,,,,,2,0,2,0,11,0,11,0,,,,,,,,,,,,,,,,left,2000,32.5,0.0031547867224009664,1,2,1,2.5,358.87707686663293,None,358.8604101999663,359.1891609999584,359.8504069999326,360.1716213999316,360.8545285,361.17197040002793,up,0,4.9458257999503985,358.8923977999948,None,361.3963037999347,None,,,,,,,bihhjl,001,0,fr,2022-06-23_11h41.43.173,3-AFC_adaptive_staircase_mess,2022.1.1,33.65663900886416,
,,,,,2,0,2,0,12,0,12,0,,,,,,,,,,,,,,,,up,2000,35.0,0.004206975708225976,1,2,1,2.5,366.42854346667104,None,365.3918722999515,365.723196499981,366.3942598999711,366.7282834999496,367.4250926999375,367.7564289999427,up,1,3.5910103999776766,365.4634587999899,None,367.9445384000428,None,,,,,,,bihhjl,001,0,fr,2022-06-23_11h41.43.173,3-AFC_adaptive_staircase_mess,2022.1.1,33.65663900886416,
,,,,,2,0,2,0,13,0,13,0,,,,,,,,,,,,,,,,left,2000,35.0,0.004206975708225976,1,2,1,2.5,370.61329606670574,370.8433796999743,370.55054460000247,370.8716175999725,371.5662372999359,371.88469410000835,372.56568330002483,372.90159849997144,up,0,3.9917084999615327,370.6316239000298,None,373.1048122999491,None,,,,,,,bihhjl,001,0,fr,2022-06-23_11h41.43.173,3-AFC_adaptive_staircase_mess,2022.1.1,33.65663900886416,
,,,,,2,0,2,0,14,0,14,0,,,,,,,,,,,,,,,,left,2000,37.5,0.005610092271509817,1,2,1,2.5,376.18464476667964,376.41074970003683,376.13287370000035,376.47390209999867,377.141651700018,377.47215339995455,378.14109809999354,378.48082459997386,up,0,3.170932100038044,376.20371219993103,None,378.68760800000746,None,,,,,,,bihhjl,001,0,fr,2022-06-23_11h41.43.173,3-AFC_adaptive_staircase_mess,2022.1.1,33.65663900886416,
,,,,,2,0,2,0,15,0,15,0,,,,,,,,,,,,,,,,up,2000,40.0,0.007481178280472167,1,2,1,2.5,None,None,380.8748296999838,None,None,None,None,None,left,0,-1.5268189000198618,380.9413579000393,None,None,None,,,,,,,bihhjl,001,0,fr,2022-06-23_11h41.43.173,3-AFC_adaptive_staircase_mess,2022.1.1,33.65663900886416,
,,,,,2,0,2,0,16,0,16,0,,,,,,,,,,,,,,,,right,2000,42.5,0.009976311574844398,1,2,1,2.5,384.5011018666594,None,382.4419603999704,382.7821454999503,383.4535142999375,383.78355880000163,384.44950630003586,384.78428469994105,right,1,2.622565400088206,382.49654560000636,None,385.0132506999653,None,,,,,,,bihhjl,001,0,fr,2022-06-23_11h41.43.173,3-AFC_adaptive_staircase_mess,2022.1.1,33.65663900886416,
,,,,,2,0,2,0,17,0,17,0,,,,,,,,,,,,,,,,up,2000,42.5,0.009976311574844398,1,2,1,2.5,387.70234656666094,387.9274707000004,386.6487088999711,386.9812386999838,387.65347579994705,387.9886824999703,388.64955119998194,388.9880308000138,up,1,5.399416500004008,386.71158749994356,None,389.2231340999715,None,,,,,,,bihhjl,001,0,fr,2022-06-23_11h41.43.173,3-AFC_adaptive_staircase_mess,2022.1.1,33.65663900886416,
,,,,,2,0,2,0,18,0,18,0,,,,,,,,,,,,,,,,right,2000,37.5,0.005610092271509817,-1,3,-1,-5.0,None,None,393.65417130000424,None,None,None,None,None,right,1,-1.540576900006272,393.6906882999465,None,None,None,,,,,,,bihhjl,001,0,fr,2022-06-23_11h41.43.173,3-AFC_adaptive_staircase_mess,2022.1.1,33.65663900886416,
,,,,,2,0,2,0,19,0,19,0,,,,,,,,,,,,,,,,right,2000,37.5,0.005610092271509817,-1,3,-1,-5.0,397.21317106666197,None,395.19376489997376,395.5243776999414,396.195635400014,396.53004079998937,397.1965043999953,397.52595709997695,left,0,3.459029100020416,395.22836670000106,None,397.7284348999383,None,,,,,,,bihhjl,001,0,fr,2022-06-23_11h41.43.173,3-AFC_adaptive_staircase_mess,2022.1.1,33.65663900886416,
,,,,,2,0,2,0,20,0,20,0,,,,,,,,,,,,,,,,up,2000,40.0,0.007481178280472167,1,4,1,2.5,401.2366095666696,None,400.2184826999437,400.56763139995746,401.21994290000293,401.56890389998443,402.21477379999124,402.55880500003695,left,0,3.321758499951102,400.25285980000626,None,402.7689598000143,None,,,,,,,bihhjl,001,0,fr,2022-06-23_11h41.43.173,3-AFC_adaptive_staircase_mess,2022.1.1,33.65663900886416,
,,,,,2,0,2,0,21,0,21,0,,,,,,,,,,,,,,,,up,2000,42.5,0.009976311574844398,1,4,1,2.5,406.1259543667004,None,405.0876581999473,405.4281868999824,406.10928770003375,406.42672160000075,407.10750319994986,407.45064549997915,up,1,3.1242906000697985,405.1547317999648,None,407.65639419993386,None,,,,,,,bihhjl,001,0,fr,2022-06-23_11h41.43.173,3-AFC_adaptive_staircase_mess,2022.1.1,33.65663900886416,
,,,,,2,0,2,0,22,0,22,0,,,,,,,,,,,,,,,,right,2000,42.5,0.009976311574844398,1,4,1,2.5,None,None,409.7901034000097,None,None,None,None,None,left,0,-1.5145022000651807,409.8573237999808,None,None,None,,,,,,,bihhjl,001,0,fr,2022-06-23_11h41.43.173,3-AFC_adaptive_staircase_mess,2022.1.1,33.65663900886416,
,,,,,2,0,2,0,23,0,23,0,,,,,,,,,,,,,,,,up,2000,45.0,0.01330362529899405,1,4,1,2.5,412.40627846663506,None,411.36379049997777,411.69820440001786,412.3557209999999,412.66785319999326,413.3557639999781,413.68635500001255,left,0,3.6957734000170603,411.4307899000123,None,413.9161730000051,None,,,,,,,bihhjl,001,0,fr,2022-06-23_11h41.43.173,3-AFC_adaptive_staircase_mess,2022.1.1,33.65663900886416,
,,,,,2,0,2,0,24,0,24,0,,,,,,,,,,,,,,,,left,2000,47.5,0.017740669461678776,1,4,1,2.5,416.6881524666135,None,416.6714857999468,417.0152510999469,None,None,None,None,left,1,0.614412400056608,416.70467470004223,None,None,None,,,,,,,bihhjl,001,0,fr,2022-06-23_11h41.43.173,3-AFC_adaptive_staircase_mess,2022.1.1,33.65663900886416,
,,,,,2,0,2,0,25,0,25,0,,,,,,,,,,,,,,,,right,2000,47.5,0.017740669461678776,1,4,1,2.5,420.8963365666025,None,418.8531052999897,419.1937844000058,419.8708941999357,420.20652070001233,420.84506680001505,421.1882939999923,right,1,2.502408599946648,418.9201333000092,None,421.3913151000161,None,,,,,,,bihhjl,001,0,fr,2022-06-23_11h41.43.173,3-AFC_adaptive_staircase_mess,2022.1.1,33.65663900886416,
,,,,,2,0,2,0,26,0,26,0,,,,,,,,,,,,,,,,up,2000,42.5,0.009976311574844398,-1,5,-1,-5.0,423.96322266670563,None,422.9450751999393,423.28495230001863,423.946556000039,424.28632139996625,424.9149536000332,425.25187539996114,up,1,4.156309899990447,422.9793043000391,None,425.48618879995774,None,,,,,,,bihhjl,001,0,fr,2022-06-23_11h41.43.173,3-AFC_adaptive_staircase_mess,2022.1.1,33.65663900886416,
,,,,,2,0,2,0,27,0,27,0,,,,,,,,,,,,,,,,right,2000,42.5,0.009976311574844398,-1,5,-1,-5.0,None,None,428.6399078000104,None,None,None,None,None,left,0,-1.5007105000549927,428.7072113000322,None,None,None,,,,,,,bihhjl,001,0,fr,2022-06-23_11h41.43.173,3-AFC_adaptive_staircase_mess,2022.1.1,33.65663900886416,
,,,,,2,0,2,0,28,0,28,0,,,,,,,,,,,,,,,,right,2000,45.0,0.01330362529899405,1,6,1,2.5,432.23683056660616,None,430.2081909000408,430.5422475000378,431.21374139992986,431.55349329998717,432.2201638999395,432.56505740003195,right,1,3.009774500038475,430.2768441999797,None,432.7664963999996,None,,,,,,,bihhjl,001,0,fr,2022-06-23_11h41.43.173,3-AFC_adaptive_staircase_mess,2022.1.1,33.65663900886416,
,,,,,3,0,3,0,0,0,0,0,,,,,,,,,,,,,[],[],10,left,3000,30,0.001733684252262658,0,0,1,10,441.1921426666124,None,441.14042309997603,441.47346280002967,442.1451740999473,442.47777610004414,443.1422193000326,443.4749389999779,up,0,3.614541199989617,441.2079946999438,None,443.71334170002956,None,space,6.291901499964297,434.3556460000109,None,434.3556460000109,None,bihhjl,001,0,fr,2022-06-23_11h41.43.173,3-AFC_adaptive_staircase_mess,2022.1.1,33.65663900886416,
,,,,,3,0,3,0,1,0,1,0,,,,,,,,,,,,,,,,left,3000,40,0.005482390980715924,1,0,1,10,446.39632136660316,None,446.3446048999904,None,None,None,None,None,left,1,-1.5575091000646353,446.41235679993406,None,None,None,,,,,,,bihhjl,001,0,fr,2022-06-23_11h41.43.173,3-AFC_adaptive_staircase_mess,2022.1.1,33.65663900886416,
,,,,,3,0,3,0,2,0,2,0,,,,,,,,,,,,,,,,up,3000,40,0.005482390980715924,1,0,1,10,448.99457996670776,None,447.9485596999293,448.2848553999793,448.94544429995585,449.2903149999911,None,None,up,1,1.7627069000154734,448.0115971999476,None,None,None,,,,,,,bihhjl,001,0,fr,2022-06-23_11h41.43.173,3-AFC_adaptive_staircase_mess,2022.1.1,33.65663900886416,
,,,,,3,0,3,0,3,0,3,0,,,,,,,,,,,,,,,,left,3000,20,0.0005482390980715922,-1,1,-1,-10,451.3354475666458,None,451.283451700001,451.6167263999814,452.28135389997624,452.6187742999755,453.2869973999914,453.6210713000037,up,0,4.672820899984799,451.3501405999996,None,453.8554757999955,None,,,,,,,bihhjl,001,0,fr,2022-06-23_11h41.43.173,3-AFC_adaptive_staircase_mess,2022.1.1,33.65663900886416,
,,,,,3,0,3,0,4,0,4,0,,,,,,,,,,,,,,,,right,3000,25,0.0009749222998790222,1,2,1,2.5,None,None,457.5303667000262,None,None,None,None,None,left,0,-1.4707752000540495,457.5655267999973,None,None,None,,,,,,,bihhjl,001,0,fr,2022-06-23_11h41.43.173,3-AFC_adaptive_staircase_mess,2022.1.1,33.65663900886416,
,,,,,3,0,3,0,5,0,5,0,,,,,,,,,,,,,,,,right,3000,27.5,0.0013000797815826354,1,2,1,2.5,461.1136105666558,461.334367500036,459.0887264999328,459.43007160001434,460.0968940999592,460.4272716999985,461.0969438999891,461.4293648999883,up,0,3.4677133000222966,459.1623641999904,None,461.64871680003125,None,,,,,,,bihhjl,001,0,fr,2022-06-23_11h41.43.173,3-AFC_adaptive_staircase_mess,2022.1.1,33.65663900886416,
,,,,,3,0,3,0,6,0,6,0,,,,,,,,,,,,,,,,left,3000,30.0,0.001733684252262658,1,2,1,2.5,464.2134570666278,None,464.16605839994736,464.5043260999955,465.1651602999773,465.49777220003307,466.16522980004083,466.50314879999496,up,0,2.5297787999734282,464.22873410000466,None,466.7401915999362,None,,,,,,,bihhjl,001,0,fr,2022-06-23_11h41.43.173,3-AFC_adaptive_staircase_mess,2022.1.1,33.65663900886416,
,,,,,3,0,3,0,7,0,7,0,,,,,,,,,,,,,,,,left,3000,32.5,0.002311905106996301,1,2,1,2.5,468.31823656667643,468.5461302000331,468.2718925999943,468.60786180000287,469.2719306999352,469.60441299993545,470.2753911999753,470.6037589999614,up,0,3.7526705999625847,468.33358299999963,None,470.84067649999633,None,,,,,,,bihhjl,001,0,fr,2022-06-23_11h41.43.173,3-AFC_adaptive_staircase_mess,2022.1.1,33.65663900886416,
,,,,,3,0,3,0,8,0,8,0,,,,,,,,,,,,,,,,up,3000,35.0,0.00308297500930741,1,2,1,2.5,None,None,473.64070430002175,None,None,None,None,None,right,0,-1.4027639999985695,473.70626430003904,None,None,None,,,,,,,bihhjl,001,0,fr,2022-06-23_11h41.43.173,3-AFC_adaptive_staircase_mess,2022.1.1,33.65663900886416,
,,,,,3,0,3,0,9,0,9,0,,,,,,,,,,,,,,,,up,3000,37.5,0.004111213249735355,1,2,1,2.5,476.2580245666361,476.4828094999539,475.2099592000013,475.5378314999398,476.2103094999911,476.54757599998266,None,None,up,1,1.6269227999728173,475.2757367999293,None,None,None,,,,,,,bihhjl,001,0,fr,2022-06-23_11h41.43.173,3-AFC_adaptive_staircase_mess,2022.1.1,33.65663900886416,
,,,,,3,0,3,0,10,0,10,0,,,,,,,,,,,,,,,,up,3000,37.5,0.004111213249735355,1,2,1,2.5,479.433930766598,None,478.4107500000391,478.74626749998424,479.41726409993134,479.75687289994676,None,None,up,1,1.3882285000290722,478.48266390000936,None,None,None,,,,,,,bihhjl,001,0,fr,2022-06-23_11h41.43.173,3-AFC_adaptive_staircase_mess,2022.1.1,33.65663900886416,
,,,,,3,0,3,0,11,0,11,0,,,,,,,,,,,,,,,,up,3000,32.5,0.002311905106996301,-1,3,-1,-5.0,482.43232006667336,None,481.38567210000474,481.71221010002773,482.3803418999305,482.7244292999385,483.3879132999573,483.7215544999344,left,0,3.286483500036411,481.44871509994846,None,483.9551014000317,None,,,,,,,bihhjl,001,0,fr,2022-06-23_11h41.43.173,3-AFC_adaptive_staircase_mess,2022.1.1,33.65663900886416,
,,,,,3,0,3,0,12,0,12,0,,,,,,,,,,,,,,,,left,3000,35.0,0.00308297500930741,1,4,1,2.5,486.30410326662627,None,486.2530018000398,None,None,None,None,None,right,0,-1.5722346999682486,486.3225260999752,None,None,None,,,,,,,bihhjl,001,0,fr,2022-06-23_11h41.43.173,3-AFC_adaptive_staircase_mess,2022.1.1,33.65663900886416,
,,,,,3,0,3,0,13,0,13,0,,,,,,,,,,,,,,,,left,3000,37.5,0.004111213249735355,1,4,1,2.5,487.90598586661895,None,487.8550769999856,488.18586259998847,None,None,None,None,left,1,0.6912495999131352,487.92428030003794,None,None,None,,,,,,,bihhjl,001,0,fr,2022-06-23_11h41.43.173,3-AFC_adaptive_staircase_mess,2022.1.1,33.65663900886416,
,,,,,3,0,3,0,14,0,14,0,,,,,,,,,,,,,,,,left,3000,37.5,0.004111213249735355,1,4,1,2.5,490.1724890666703,490.40360570000485,490.1245009000413,490.46317609993275,491.13008639996406,491.45874389994424,492.12861499993596,492.46043310000096,left,1,3.6594965000404045,490.1873734999681,None,492.6991438999539,None,,,,,,,bihhjl,001,0,fr,2022-06-23_11h41.43.173,3-AFC_adaptive_staircase_mess,2022.1.1,33.65663900886416,
,,,,,3,0,3,0,15,0,15,0,,,,,,,,,,,,,,,,up,3000,32.5,0.002311905106996301,-1,5,-1,-5.0,496.4133506667024,None,495.3605695000151,495.70151709998026,496.361735100043,496.69974099996034,497.36428840004373,497.6976419000421,up,1,3.4220633000368252,495.4324390999973,None,497.9343944999855,None,,,,,,,bihhjl,001,0,fr,2022-06-23_11h41.43.173,3-AFC_adaptive_staircase_mess,2022.1.1,33.65663900886416,
,,,,,3,0,3,0,16,0,16,0,,,,,,,,,,,,,,,,up,3000,32.5,0.002311905106996301,-1,5,-1,-5.0,None,None,500.4043765999377,None,None,None,None,None,left,0,-1.3682312000310048,500.44059549993835,None,None,None,,,,,,,bihhjl,001,0,fr,2022-06-23_11h41.43.173,3-AFC_adaptive_staircase_mess,2022.1.1,33.65663900886416,
,,,,,3,0,3,0,17,0,17,0,,,,,,,,,,,,,,,,left,3000,35.0,0.00308297500930741,1,6,1,2.5,501.98819976667096,None,501.93509889999405,502.2724403999746,None,None,None,None,left,1,0.5305896999780089,502.00495630002115,None,None,None,,,,,,,bihhjl,001,0,fr,2022-06-23_11h41.43.173,3-AFC_adaptive_staircase_mess,2022.1.1,33.65663900886416,
,,,,,4,0,4,0,0,0,0,0,,,,,,,,,,,,,[],[],10,up,4000,30,0.0026544222211549416,0,0,1,10,510.33327706664954,None,509.2730795999523,509.613363499986,510.28442359995097,510.6139248999534,511.2806023999583,511.613698799978,left,0,3.9519147000974044,509.34288989997003,None,511.85214560001623,None,space,5.179970000055619,503.6030805000337,None,503.6030805000337,None,bihhjl,001,0,fr,2022-06-23_11h41.43.173,3-AFC_adaptive_staircase_mess,2022.1.1,33.65663900886416,
,,,,,4,0,4,0,1,0,1,0,,,,,,,,,,,,,,,,right,4000,40,0.008394020090612802,1,0,1,10,None,None,514.8185825999826,None,None,None,None,None,right,1,-1.3490822000894696,514.8533137999475,None,None,None,,,,,,,bihhjl,001,0,fr,2022-06-23_11h41.43.173,3-AFC_adaptive_staircase_mess,2022.1.1,33.65663900886416,
,,,,,4,0,4,0,2,0,2,0,,,,,,,,,,,,,,,,left,4000,40,0.008394020090612802,1,0,1,10,516.4038485666426,None,516.3508054999402,516.6879167000297,517.3569967999356,517.6849519000389,518.3579628999578,518.686185700004,up,0,4.951803399948403,516.4236176999984,None,518.9268631000305,None,,,,,,,bihhjl,001,0,fr,2022-06-23_11h41.43.173,3-AFC_adaptive_staircase_mess,2022.1.1,33.65663900886416,
,,,,,4,0,4,0,3,0,3,0,,,,,,,,,,,,,,,,left,4000,50,0.02654422221154942,1,0,1,10,522.974643066704,None,522.9229564999696,None,None,None,None,None,right,0,-1.3770129999611527,522.9922493000049,None,None,None,,,,,,,bihhjl,001,0,fr,2022-06-23_11h41.43.173,3-AFC_adaptive_staircase_mess,2022.1.1,33.65663900886416,
,,,,,4,0,4,0,4,0,4,0,,,,,,,,,,,,,,,,left,4000,60,0.08394020090612804,1,0,1,10,524.5751154666689,None,524.5231847999385,None,None,None,None,None,left,1,-0.952289400040172,524.5911398000317,None,None,None,,,,,,,bihhjl,001,0,fr,2022-06-23_11h41.43.173,3-AFC_adaptive_staircase_mess,2022.1.1,33.65663900886416,
,,,,,4,0,4,0,5,0,5,0,,,,,,,,,,,,,,,,right,4000,60,0.08394020090612804,1,0,1,10,None,None,526.1297150999308,None,None,None,None,None,left,0,-1.025296299951151,526.2001477000304,None,None,None,,,,,,,bihhjl,001,0,fr,2022-06-23_11h41.43.173,3-AFC_adaptive_staircase_mess,2022.1.1,33.65663900886416,
,,,,,4,0,4,0,6,0,6,0,,,,,,,,,,,,,,,,left,4000,70,0.26544222211549423,1,0,1,10,527.7489630666716,None,527.6970492999535,527.99872709997,None,None,None,None,left,1,0.3992695000488311,527.767344999942,None,None,None,,,,,,,bihhjl,001,0,fr,2022-06-23_11h41.43.173,3-AFC_adaptive_staircase_mess,2022.1.1,33.65663900886416,
,,,,,4,0,4,0,7,0,7,0,,,,,,,,,,,,,,,,right,4000,70,0.26544222211549423,1,0,1,10,531.7225853666353,None,529.6707188000437,530.0004911000142,530.670995799941,531.0044776999857,531.6729601999978,532.0028114999877,right,1,2.6568987000500783,529.7337206000229,None,532.2389733999735,None,,,,,,,bihhjl,001,0,fr,2022-06-23_11h41.43.173,3-AFC_adaptive_staircase_mess,2022.1.1,33.65663900886416,
,,,,,4,0,4,0,8,0,8,0,,,,,,,,,,,,,,,,up,4000,50,0.02654422221154942,-1,1,-1,-10,534.9598129667031,None,533.9046210999368,534.2340902000433,534.9068551999517,535.2392390000168,None,None,up,1,1.6411550999619067,533.9670074000023,None,None,None,,,,,,,bihhjl,001,0,fr,2022-06-23_11h41.43.173,3-AFC_adaptive_staircase_mess,2022.1.1,33.65663900886416,
,,,,,4,0,4,0,9,0,9,0,,,,,,,,,,,,,,,,up,4000,50,0.02654422221154942,-1,1,-1,-10,538.1574350667108,None,537.1104334000265,537.4428793999832,538.1083566999296,538.4473313000053,None,None,up,1,1.659161000046879,537.1400522999465,None,None,None,,,,,,,bihhjl,001,0,fr,2022-06-23_11h41.43.173,3-AFC_adaptive_staircase_mess,2022.1.1,33.65663900886416,
,,,,,4,0,4,0,10,0,10,0,,,,,,,,,,,,,,,,right,4000,40,0.008394020090612802,-1,1,-1,-10,None,None,540.3138585999841,None,None,None,None,None,up,0,-1.3766279999399558,540.3753751999466,None,None,None,,,,,,,bihhjl,001,0,fr,2022-06-23_11h41.43.173,3-AFC_adaptive_staircase_mess,2022.1.1,33.65663900886416,
,,,,,4,0,4,0,11,0,11,0,,,,,,,,,,,,,,,,right,4000,45,0.014926913094589798,1,2,1,2.5,543.9030098666592,None,541.8826262999792,542.2171339000342,542.8815723999869,543.2134469000157,543.8863431999926,544.220973599935,right,1,2.532980200019665,541.9460881999694,None,544.450998299988,None,,,,,,,bihhjl,001,0,fr,2022-06-23_11h41.43.173,3-AFC_adaptive_staircase_mess,2022.1.1,33.65663900886416,
,,,,,4,0,4,0,12,0,12,0,,,,,,,,,,,,,,,,left,4000,45,0.014926913094589798,1,2,1,2.5,546.0323863666893,None,545.9811666000169,546.2845190999797,None,None,None,None,left,1,0.7873891999479383,546.0513003999367,None,None,None,,,,,,,bihhjl,001,0,fr,2022-06-23_11h41.43.173,3-AFC_adaptive_staircase_mess,2022.1.1,33.65663900886416,
,,,,,4,0,4,0,13,0,13,0,,,,,,,,,,,,,,,,right,4000,40.0,0.008394020090612802,-1,3,-1,-5.0,550.4049482666344,None,548.3495963999303,548.6886215000413,549.3557430999354,549.6854299999541,550.3565241999459,550.693829099997,left,0,4.2030370000284165,548.4203547999496,None,550.9257033999311,None,,,,,,,bihhjl,001,0,fr,2022-06-23_11h41.43.173,3-AFC_adaptive_staircase_mess,2022.1.1,33.65663900886416,
,,,,,4,0,4,0,14,0,14,0,,,,,,,,,,,,,,,,right,4000,42.5,0.011193605692841698,1,4,1,2.5,None,None,554.1289501000429,None,None,None,None,None,up,0,-1.476052499958314,554.1631187000312,None,None,None,,,,,,,bihhjl,001,0,fr,2022-06-23_11h41.43.173,3-AFC_adaptive_staircase_mess,2022.1.1,33.65663900886416,
,,,,,4,0,4,0,15,0,15,0,,,,,,,,,,,,,,,,left,4000,45.0,0.014926913094589798,1,4,1,2.5,555.710113866666,555.9388194000348,555.6631615000078,555.9989678999409,None,None,None,None,left,1,0.4326146999374032,555.726225499995,None,None,None,,,,,,,bihhjl,001,0,fr,2022-06-23_11h41.43.173,3-AFC_adaptive_staircase_mess,2022.1.1,33.65663900886416,
,,,,,4,0,4,0,16,0,16,0,,,,,,,,,,,,,,,,left,4000,45.0,0.014926913094589798,1,4,1,2.5,557.7165868667109,None,557.6665192999644,558.0076913000084,None,None,None,None,left,1,0.48594599997159094,557.7305524999974,None,None,None,,,,,,,bihhjl,001,0,fr,2022-06-23_11h41.43.173,3-AFC_adaptive_staircase_mess,2022.1.1,33.65663900886416,
,,,,,4,0,4,0,17,0,17,0,,,,,,,,,,,,,,,,left,4000,40.0,0.008394020090612802,-1,5,-1,-5.0,559.7777675666769,None,559.7286396999843,560.0437983999727,None,None,None,None,left,1,0.4192785999039188,559.7969431999372,None,None,None,,,,,,,bihhjl,001,0,fr,2022-06-23_11h41.43.173,3-AFC_adaptive_staircase_mess,2022.1.1,33.65663900886416,
,,,,,4,0,4,0,18,0,18,0,,,,,,,,,,,,,,,,up,4000,40.0,0.008394020090612802,-1,5,-1,-5.0,562.7564990666617,None,561.72798039997,562.0686356000369,562.7398323999951,563.0728481999831,563.7417747,564.0602072000038,left,0,3.305799499968998,561.7969800999854,None,564.3060306999832,None,,,,,,,bihhjl,001,0,fr,2022-06-23_11h41.43.173,3-AFC_adaptive_staircase_mess,2022.1.1,33.65663900886416,
,,,,,4,0,4,0,19,0,19,0,,,,,,,,,,,,,,,,up,4000,42.5,0.011193605692841698,1,6,1,2.5,567.6234549666444,None,566.5904100999469,566.9366887999931,567.6067882999778,567.9377692999551,None,None,up,1,1.622741000028327,566.6492003999883,None,None,None,,,,,,,bihhjl,001,0,fr,2022-06-23_11h41.43.173,3-AFC_adaptive_staircase_mess,2022.1.1,33.65663900886416,
,,,,,5,0,5,0,0,0,0,0,,,,,,,,,,,,,[],[],10,left,6000,30,0.003664122665694519,0,0,1,10,571.3239400666828,None,571.2768608999904,571.6144347999943,572.2808183999732,572.6117873999756,573.2875373000279,573.6115124999778,up,0,3.41769219993148,571.3410470000235,None,573.8506644000299,None,space,1.4199356000171974,569.3795142000308,None,569.3795142000308,None,bihhjl,001,0,fr,2022-06-23_11h41.43.173,3-AFC_adaptive_staircase_mess,2022.1.1,33.65663900886416,
,,,,,5,0,5,0,1,0,1,0,,,,,,,,,,,,,,,,left,6000,40,0.01158697324984239,1,0,1,10,576.3457535666569,None,576.2984958000015,None,None,None,None,None,right,0,-1.5461018999340013,576.3603674999904,None,None,None,,,,,,,bihhjl,001,0,fr,2022-06-23_11h41.43.173,3-AFC_adaptive_staircase_mess,2022.1.1,33.65663900886416,
,,,,,5,0,5,0,2,0,2,0,,,,,,,,,,,,,,,,right,6000,50,0.03664122665694519,1,0,1,10,None,None,577.8839748000028,None,None,None,None,None,left,0,-0.19932440004777163,577.9185465000337,None,None,None,,,,,,,bihhjl,001,0,fr,2022-06-23_11h41.43.173,3-AFC_adaptive_staircase_mess,2022.1.1,33.65663900886416,
,,,,,5,0,5,0,3,0,3,0,,,,,,,,,,,,,,,,right,6000,60,0.11586973249842387,1,0,1,10,581.4672178666262,None,579.4169475999661,579.7524766999995,580.4158387000207,580.7530460000271,581.418733999948,581.7584358999738,right,1,2.380386900040321,579.4833328999812,None,None,None,,,,,,,bihhjl,001,0,fr,2022-06-23_11h41.43.173,3-AFC_adaptive_staircase_mess,2022.1.1,33.65663900886416,
,,,,,5,0,5,0,4,0,4,0,,,,,,,,,,,,,,,,up,6000,60,0.11586973249842387,1,0,1,10,584.4402138667103,None,583.3877601999557,583.7264074999839,584.3883815000299,584.7285306999693,None,None,up,1,1.545285000000149,583.4535314999521,None,None,None,,,,,,,bihhjl,001,0,fr,2022-06-23_11h41.43.173,3-AFC_adaptive_staircase_mess,2022.1.1,33.65663900886416,
,,,,,5,0,5,0,5,0,5,0,,,,,,,,,,,,,,,,up,6000,40,0.01158697324984239,-1,1,-1,-10,587.5675916666553,None,586.5224416999845,586.8596857000375,587.5173570000334,587.8573246999877,None,None,up,1,1.5844469999428838,586.5905615999363,None,None,None,,,,,,,bihhjl,001,0,fr,2022-06-23_11h41.43.173,3-AFC_adaptive_staircase_mess,2022.1.1,33.65663900886416,
,,,,,5,0,5,0,6,0,6,0,,,,,,,,,,,,,,,,left,6000,40,0.01158697324984239,-1,1,-1,-10,589.721467166619,None,589.6747504000086,589.99108539999,None,None,None,None,left,1,0.5439296000404283,589.7348440999631,None,None,None,,,,,,,bihhjl,001,0,fr,2022-06-23_11h41.43.173,3-AFC_adaptive_staircase_mess,2022.1.1,33.65663900886416,
,,,,,5,0,5,0,7,0,7,0,,,,,,,,,,,,,,,,left,6000,30,0.003664122665694519,-1,1,-1,-10,591.8394457667057,None,591.7883883999893,592.1297714000102,592.7881657000398,593.123285699985,593.7952989999903,594.1293524999637,up,0,3.614195100031793,591.8564841999905,None,594.3622197000077,None,,,,,,,bihhjl,001,0,fr,2022-06-23_11h41.43.173,3-AFC_adaptive_staircase_mess,2022.1.1,33.65663900886416,
,,,,,5,0,5,0,8,0,8,0,,,,,,,,,,,,,,,,up,6000,35,0.006515833892261494,1,2,1,2.5,None,None,596.9962794999592,None,None,None,None,None,right,0,-1.3784065999789163,597.0585976999719,None,None,None,,,,,,,bihhjl,001,0,fr,2022-06-23_11h41.43.173,3-AFC_adaptive_staircase_mess,2022.1.1,33.65663900886416,
,,,,,5,0,5,0,9,0,9,0,,,,,,,,,,,,,,,,up,6000,37.5,0.008689004143746874,1,2,1,2.5,599.6167481666819,None,598.566466899938,598.9057018000167,599.565419999999,599.8989056999562,None,None,up,1,1.467361200018786,598.6270733999554,None,None,None,,,,,,,bihhjl,001,0,fr,2022-06-23_11h41.43.173,3-AFC_adaptive_staircase_mess,2022.1.1,33.65663900886416,
,,,,,5,0,5,0,10,0,10,0,,,,,,,,,,,,,,,,left,6000,37.5,0.008689004143746874,1,2,1,2.5,601.6794990666133,None,601.6296293999767,601.9733571000397,None,None,None,None,left,1,0.6628941000672057,601.6963293999434,None,None,None,,,,,,,bihhjl,001,0,fr,2022-06-23_11h41.43.173,3-AFC_adaptive_staircase_mess,2022.1.1,33.65663900886416,
,,,,,5,0,5,0,11,0,11,0,,,,,,,,,,,,,,,,up,6000,32.5,0.004886186104779052,-1,3,-1,-5.0,604.914809266633,None,603.8816262999317,604.1982530000387,604.8666321999626,605.2076667000074,605.8684118000092,606.1952224000124,up,1,3.814179699984379,603.9125157999806,None,606.4090797000099,None,,,,,,,bihhjl,001,0,fr,2022-06-23_11h41.43.173,3-AFC_adaptive_staircase_mess,2022.1.1,33.65663900886416,
,,,,,5,0,5,0,12,0,12,0,,,,,,,,,,,,,,,,left,6000,32.5,0.004886186104779052,-1,3,-1,-5.0,609.2876710666499,None,609.2363151999889,609.5481219999492,610.2398783999961,610.577364900033,611.2368726000423,611.5817419999512,up,0,3.220980399986729,609.3056041999953,None,611.8127119999845,None,,,,,,,bihhjl,001,0,fr,2022-06-23_11h41.43.173,3-AFC_adaptive_staircase_mess,2022.1.1,33.65663900886416,
,,,,,5,0,5,0,13,0,13,0,,,,,,,,,,,,,,,,left,6000,35.0,0.006515833892261494,1,4,1,2.5,614.1007763666023,None,614.0544029999292,None,None,None,None,None,left,1,-1.5322182000381872,614.1168553000316,None,None,None,,,,,,,bihhjl,001,0,fr,2022-06-23_11h41.43.173,3-AFC_adaptive_staircase_mess,2022.1.1,33.65663900886416,
,,,,,5,0,5,0,14,0,14,0,,,,,,,,,,,,,,,,right,6000,35.0,0.006515833892261494,1,4,1,2.5,617.6956830666788,None,615.6394567999523,615.9787569999462,616.6561246999772,616.9778297999874,617.6457471000031,617.9880365999416,up,0,3.0771901999833062,615.6973576999735,None,618.2072033999721,None,,,,,,,bihhjl,001,0,fr,2022-06-23_11h41.43.173,3-AFC_adaptive_staircase_mess,2022.1.1,33.65663900886416,
,,,,,5,0,5,0,15,0,15,0,,,,,,,,,,,,,,,,right,6000,37.5,0.008689004143746874,1,4,1,2.5,None,None,620.2823579999385,None,None,None,None,None,left,0,-1.517355400021188,620.3478034000145,None,None,None,,,,,,,bihhjl,001,0,fr,2022-06-23_11h41.43.173,3-AFC_adaptive_staircase_mess,2022.1.1,33.65663900886416,
,,,,,5,0,5,0,16,0,16,0,,,,,,,,,,,,,,,,up,6000,40.0,0.01158697324984239,1,4,1,2.5,622.9051097667,None,621.852428299957,622.1852994000074,622.8519978999393,623.1836088999407,None,None,up,1,1.4774543000385165,621.9209504999453,None,None,None,,,,,,,bihhjl,001,0,fr,2022-06-23_11h41.43.173,3-AFC_adaptive_staircase_mess,2022.1.1,33.65663900886416,
,,,,,5,0,5,0,17,0,17,0,,,,,,,,,,,,,,,,left,6000,40.0,0.01158697324984239,1,4,1,2.5,624.961671466652,None,624.9174212999642,625.2540885999333,None,None,None,None,left,1,0.574474300025031,624.9761291999603,None,None,None,,,,,,,bihhjl,001,0,fr,2022-06-23_11h41.43.173,3-AFC_adaptive_staircase_mess,2022.1.1,33.65663900886416,
,,,,,5,0,5,0,18,0,18,0,,,,,,,,,,,,,,,,up,6000,35.0,0.006515833892261494,-1,5,-1,-5.0,628.1011549666912,None,627.0576748999301,627.3980605000397,628.0510415999452,628.3683853000402,629.0461558999959,629.3857478999998,left,0,2.983110500033945,627.0877491999418,None,629.5940723000094,None,,,,,,,bihhjl,001,0,fr,2022-06-23_11h41.43.173,3-AFC_adaptive_staircase_mess,2022.1.1,33.65663900886416,
,,,,,5,0,5,0,19,0,19,0,,,,,,,,,,,,,,,,left,6000,37.5,0.008689004143746874,1,6,1,2.5,631.6347606667007,None,631.5898730999324,None,None,None,None,None,up,0,-1.566071099950932,631.6447736000409,None,None,None,,,,,,,bihhjl,001,0,fr,2022-06-23_11h41.43.173,3-AFC_adaptive_staircase_mess,2022.1.1,33.65663900886416,
,,,,,6,0,6,0,0,0,0,0,,,,,,,,,,,,,[],[],10,up,8000,30,0.005740768107484416,0,0,1,10,635.5653491666928,None,634.5307678999379,634.8717911000131,635.5187774000224,635.8389779999852,636.5144302999834,636.8574161999859,left,0,2.9571378000546247,634.5608756999718,None,637.0669423999498,None,space,1.3020180999301374,632.7383239000337,None,632.7383239000337,None,bihhjl,001,0,fr,2022-06-23_11h41.43.173,3-AFC_adaptive_staircase_mess,2022.1.1,33.65663900886416,
,,,,,6,0,6,0,1,0,1,0,,,,,,,,,,,,,,,,up,8000,40,0.018153902738505076,1,0,1,10,None,None,639.0545873999363,None,None,None,None,None,up,1,-1.55626049998682,639.1141746999929,None,None,None,,,,,,,bihhjl,001,0,fr,2022-06-23_11h41.43.173,3-AFC_adaptive_staircase_mess,2022.1.1,33.65663900886416,
,,,,,6,0,6,0,2,0,2,0,,,,,,,,,,,,,,,,right,8000,40,0.018153902738505076,1,0,1,10,642.6627930666475,None,640.625743099954,640.9596526999958,641.6308584000217,641.9666866000043,642.613325699931,642.931611499982,left,0,3.366346099996008,640.6569289999316,None,643.1732625999721,None,,,,,,,bihhjl,001,0,fr,2022-06-23_11h41.43.173,3-AFC_adaptive_staircase_mess,2022.1.1,33.65663900886416,
,,,,,6,0,6,0,3,0,3,0,,,,,,,,,,,,,,,,up,8000,50,0.05740768107484415,1,0,1,10,None,None,645.5590658000438,None,None,None,None,None,up,1,-1.5672108000144362,645.6233576999512,None,None,None,,,,,,,bihhjl,001,0,fr,2022-06-23_11h41.43.173,3-AFC_adaptive_staircase_mess,2022.1.1,33.65663900886416,
,,,,,6,0,6,0,4,0,4,0,,,,,,,,,,,,,,,,right,8000,50,0.05740768107484415,1,0,1,10,649.1646743666536,None,647.135920300032,647.4810896000126,648.1248028000118,648.4242260999745,649.1480076999869,649.4652138999663,right,1,2.5618715999880806,647.1970705999993,None,649.6796974999597,None,,,,,,,bihhjl,001,0,fr,2022-06-23_11h41.43.173,3-AFC_adaptive_staircase_mess,2022.1.1,33.65663900886416,
,,,,,6,0,6,0,5,0,5,0,,,,,,,,,,,,,,,,left,8000,30,0.005740768107484416,-1,1,-1,-10,651.2957929666775,651.5176131000044,651.2477683000034,651.5807077999925,652.282933200011,652.613314999966,653.2661883999826,653.5978587999707,up,0,3.302821799996309,651.311541800038,None,653.8111046999693,None,,,,,,,bihhjl,001,0,fr,2022-06-23_11h41.43.173,3-AFC_adaptive_staircase_mess,2022.1.1,33.65663900886416,
,,,,,6,0,6,0,6,0,6,0,,,,,,,,,,,,,,,,left,8000,35,0.01020868972334765,1,2,1,2.5,656.1969619666381,None,656.1467766000424,None,None,None,None,None,right,0,-1.3991113000083715,656.2172812999925,None,None,None,,,,,,,bihhjl,001,0,fr,2022-06-23_11h41.43.173,3-AFC_adaptive_staircase_mess,2022.1.1,33.65663900886416,
,,,,,6,0,6,0,7,0,7,0,,,,,,,,,,,,,,,,left,8000,37.5,0.013613506540389566,1,2,1,2.5,657.7726704666313,None,657.7228916999884,658.0498472999316,658.7477108000312,659.087490499951,659.7545804999536,660.0993966000387,up,0,3.8465933999978006,657.7848427999998,None,660.2858898999402,None,,,,,,,bihhjl,001,0,fr,2022-06-23_11h41.43.173,3-AFC_adaptive_staircase_mess,2022.1.1,33.65663900886416,
,,,,,6,0,6,0,8,0,8,0,,,,,,,,,,,,,,,,right,8000,40.0,0.018153902738505076,1,2,1,2.5,None,None,663.1879424999934,None,None,None,None,None,left,0,-1.5943301999941468,663.2562915999442,None,None,None,,,,,,,bihhjl,001,0,fr,2022-06-23_11h41.43.173,3-AFC_adaptive_staircase_mess,2022.1.1,33.65663900886416,
,,,,,6,0,6,0,9,0,9,0,,,,,,,,,,,,,,,,up,8000,42.5,0.024208618379204978,1,2,1,2.5,665.8073746666234,None,664.7574419999728,665.0761185999727,665.7573376999935,666.0708140999777,None,None,up,1,1.534368499997072,664.8239905999508,None,None,None,,,,,,,bihhjl,001,0,fr,2022-06-23_11h41.43.173,3-AFC_adaptive_staircase_mess,2022.1.1,33.65663900886416,
,,,,,6,0,6,0,10,0,10,0,,,,,,,,,,,,,,,,right,8000,42.5,0.024208618379204978,1,2,1,2.5,669.9126624667008,None,667.8931880999589,668.2142088999972,668.895198800019,669.2278655000264,669.8959958000341,670.2291869999608,right,1,3.3466580000240356,667.9478400000371,None,670.4297198000131,None,,,,,,,bihhjl,001,0,fr,2022-06-23_11h41.43.173,3-AFC_adaptive_staircase_mess,2022.1.1,33.65663900886416,
,,,,,6,0,6,0,11,0,11,0,,,,,,,,,,,,,,,,up,8000,37.5,0.013613506540389566,-1,3,-1,-5.0,673.8508381666072,None,672.7888087999308,673.1306233999785,673.7997898999602,674.1325413000304,674.8004861000227,675.1340953999897,left,0,4.228647600044496,672.8500981000252,None,675.3697402999969,None,,,,,,,bihhjl,001,0,fr,2022-06-23_11h41.43.173,3-AFC_adaptive_staircase_mess,2022.1.1,33.65663900886416,
,,,,,6,0,6,0,12,0,12,0,,,,,,,,,,,,,,,,up,8000,40.0,0.018153902738505076,1,4,1,2.5,None,None,678.6011611999711,None,None,None,None,None,right,0,-1.4205968000460416,678.668841799954,None,None,None,,,,,,,bihhjl,001,0,fr,2022-06-23_11h41.43.173,3-AFC_adaptive_staircase_mess,2022.1.1,33.65663900886416,
,,,,,6,0,6,0,13,0,13,0,,,,,,,,,,,,,,,,right,8000,42.5,0.024208618379204978,1,4,1,2.5,682.227667466683,None,680.174201100017,680.5046571999555,681.1758446999593,681.5092095000437,682.1789267000277,682.5178590000141,right,1,4.607759200036526,680.2386671999702,None,682.7458221999696,None,,,,,,,bihhjl,001,0,fr,2022-06-23_11h41.43.173,3-AFC_adaptive_staircase_mess,2022.1.1,33.65663900886416,
,,,,,6,0,6,0,14,0,14,0,,,,,,,,,,,,,,,,left,8000,42.5,0.024208618379204978,1,4,1,2.5,686.4292710666234,686.6613647999475,686.3821180999512,686.7201469000429,687.3673300000373,687.7138172000414,688.3934676999925,688.7132114999695,left,1,3.0754829000215977,686.4430140999611,None,688.9504754999653,None,,,,,,,bihhjl,001,0,fr,2022-06-23_11h41.43.173,3-AFC_adaptive_staircase_mess,2022.1.1,33.65663900886416,
,,,,,6,0,6,0,15,0,15,0,,,,,,,,,,,,,,,,left,8000,37.5,0.013613506540389566,-1,5,-1,-5.0,691.0665874666922,None,691.0152340999339,691.3287791999755,692.0185277999844,692.3533227000153,693.006505999947,693.3532912000082,left,1,3.4357041000621393,691.0835498999804,None,693.558253300027,None,,,,,,,bihhjl,001,0,fr,2022-06-23_11h41.43.173,3-AFC_adaptive_staircase_mess,2022.1.1,33.65663900886416,
,,,,,6,0,6,0,16,0,16,0,,,,,,,,,,,,,,,,right,8000,37.5,0.013613506540389566,-1,5,-1,-5.0,None,None,696.0237633000361,None,None,None,None,None,up,0,-1.5572923000436276,696.0912224999629,None,None,None,,,,,,,bihhjl,001,0,fr,2022-06-23_11h41.43.173,3-AFC_adaptive_staircase_mess,2022.1.1,33.65663900886416,
,,,,,6,0,6,0,17,0,17,0,,,,,,,,,,,,,,,,right,8000,40.0,0.018153902738505076,1,6,1,2.5,699.6457532667011,None,697.5919500000309,697.9242265999783,698.5916172999423,698.928204099997,699.5941579999635,699.9359675999731,right,1,3.387972299940884,697.6587922000326,None,700.1608397000236,None,,,,,,,bihhjl,001,0,fr,2022-06-23_11h41.43.173,3-AFC_adaptive_staircase_mess,2022.1.1,33.65663900886416,
,,,,,7,0,7,0,0,0,0,0,,,,,,,,,,,,,[],[],10,left,750,30,0.0012851978913844323,0,0,-1,10,704.2851942666496,None,704.2685275999829,704.605544299935,None,None,None,None,left,1,0.7904834999935701,704.3044711999828,None,None,None,space,1.6303281999425963,702.1294643000001,None,702.1294643000001,None,bihhjl,001,0,fr,2022-06-23_11h41.43.173,3-AFC_adaptive_staircase_mess,2022.1.1,33.65663900886416,
,,,,,7,0,7,0,1,0,1,0,,,,,,,,,,,,,,,,up,750,30,0.0012851978913844323,0,0,-1,10,707.6566693667012,None,706.6029830999905,706.9404207000043,707.6027961999644,707.9353223999497,None,None,up,1,1.5277237999252975,706.6715571000241,None,None,None,,,,,,,bihhjl,001,0,fr,2022-06-23_11h41.43.173,3-AFC_adaptive_staircase_mess,2022.1.1,33.65663900886416,
,,,,,7,0,7,0,2,0,2,0,,,,,,,,,,,,,,,,left,750,10,0.00012851978913844324,-1,0,-1,-10,709.7600869666242,709.9860300000291,709.7102106999373,710.0529410999734,710.7100828000112,711.0452256000135,711.7143939000089,712.0424520999659,up,0,4.016486800042912,709.7741428000154,None,712.2463739999803,None,,,,,,,bihhjl,001,0,fr,2022-06-23_11h41.43.173,3-AFC_adaptive_staircase_mess,2022.1.1,33.65663900886416,
,,,,,7,0,7,0,3,0,3,0,,,,,,,,,,,,,,,,left,750,15,0.0002285440948074376,1,1,1,5,715.3638756666953,None,715.3112265999662,None,None,None,None,None,left,1,-1.567610100028105,715.382875100011,None,None,None,,,,,,,bihhjl,001,0,fr,2022-06-23_11h41.43.173,3-AFC_adaptive_staircase_mess,2022.1.1,33.65663900886416,
,,,,,7,0,7,0,4,0,4,0,,,,,,,,,,,,,,,,up,750,15,0.0002285440948074376,1,1,1,5,717.9689659666658,None,716.913706399966,717.2448639000067,717.9163353999611,718.250047700014,718.9195707000326,719.2457248000428,left,0,3.644602100015618,716.9784906000132,None,719.486897099996,None,,,,,,,bihhjl,001,0,fr,2022-06-23_11h41.43.173,3-AFC_adaptive_staircase_mess,2022.1.1,33.65663900886416,
,,,,,7,0,7,0,5,0,5,0,,,,,,,,,,,,,,,,right,750,20,0.00040641525808204974,1,1,1,5,None,None,722.1531335000182,None,None,None,None,None,up,0,-1.5839217000175267,722.2227913000388,None,None,None,,,,,,,bihhjl,001,0,fr,2022-06-23_11h41.43.173,3-AFC_adaptive_staircase_mess,2022.1.1,33.65663900886416,
,,,,,7,0,7,0,6,0,6,0,,,,,,,,,,,,,,,,right,750,25,0.000722719885372964,1,1,1,5,725.7772422666351,None,723.7203822999727,724.0538066999288,724.723311800044,725.0569283999503,725.7252893999685,726.0572563000023,up,0,3.503308399929665,723.7911168000428,None,726.2907006000169,None,,,,,,,bihhjl,001,0,fr,2022-06-23_11h41.43.173,3-AFC_adaptive_staircase_mess,2022.1.1,33.65663900886416,
,,,,,7,0,7,0,7,0,7,0,,,,,,,,,,,,,,,,up,750,30,0.0012851978913844323,1,1,1,5,None,None,728.8293018999975,None,None,None,None,None,right,0,-1.5287383999675512,728.863696299959,None,None,None,,,,,,,bihhjl,001,0,fr,2022-06-23_11h41.43.173,3-AFC_adaptive_staircase_mess,2022.1.1,33.65663900886416,
,,,,,7,0,7,0,8,0,8,0,,,,,,,,,,,,,,,,right,750,35,0.002285440948074376,1,1,1,5,732.4131367667035,None,730.3613246999448,730.6955862999894,731.3619192999322,731.6960660000332,732.3599879000103,732.6745953999925,right,1,2.6171236000955105,730.4295908999629,None,732.9299628000008,None,,,,,,,bihhjl,001,0,fr,2022-06-23_11h41.43.173,3-AFC_adaptive_staircase_mess,2022.1.1,33.65663900886416,
,,,,,7,0,7,0,9,0,9,0,,,,,,,,,,,,,,,,left,750,35,0.002285440948074376,1,1,1,5,734.6148053666732,None,734.5626063999953,734.8776841999497,None,None,None,None,left,1,0.6915728999301791,734.6351141999476,None,None,None,,,,,,,bihhjl,001,0,fr,2022-06-23_11h41.43.173,3-AFC_adaptive_staircase_mess,2022.1.1,33.65663900886416,
,,,,,7,0,7,0,10,0,10,0,,,,,,,,,,,,,,,,left,750,25,0.000722719885372964,-1,2,-1,-5.0,736.8888353666446,None,736.8378946000012,None,None,None,None,None,right,0,-1.4091534999897704,736.9044332000194,None,None,None,,,,,,,bihhjl,001,0,fr,2022-06-23_11h41.43.173,3-AFC_adaptive_staircase_mess,2022.1.1,33.65663900886416,
,,,,,7,0,7,0,11,0,11,0,,,,,,,,,,,,,,,,right,750,27.5,0.0009637624565954683,1,3,1,2.5,740.4898153666329,None,738.4391324999742,738.7732005999424,739.4356089000357,739.7720079999417,740.4410242999438,740.7809358999366,right,1,2.559021099936217,738.5045450000325,None,741.0102319000289,None,,,,,,,bihhjl,001,0,fr,2022-06-23_11h41.43.173,3-AFC_adaptive_staircase_mess,2022.1.1,33.65663900886416,
,,,,,7,0,7,0,12,0,12,0,,,,,,,,,,,,,,,,left,750,27.5,0.0009637624565954683,1,3,1,2.5,742.6265336666877,None,742.5739340999862,742.9059153000126,None,None,None,None,left,1,0.7313391000498086,742.6438299999572,None,None,None,,,,,,,bihhjl,001,0,fr,2022-06-23_11h41.43.173,3-AFC_adaptive_staircase_mess,2022.1.1,33.65663900886416,
,,,,,7,0,7,0,13,0,13,0,,,,,,,,,,,,,,,,right,750,22.5,0.000541963457010602,-1,4,-1,-5.0,746.9317126667049,None,744.8756057999562,745.2117917999858,745.8796629999997,746.21037049999,746.8821841999888,747.222623999929,right,1,3.072016999940388,744.9425432999851,None,747.4423952000216,None,,,,,,,bihhjl,001,0,fr,2022-06-23_11h41.43.173,3-AFC_adaptive_staircase_mess,2022.1.1,33.65663900886416,
,,,,,7,0,7,0,14,0,14,0,,,,,,,,,,,,,,,,up,750,22.5,0.000541963457010602,-1,4,-1,-5.0,None,None,749.5129726999439,None,None,None,None,None,left,0,-1.359091299935244,749.5829323999351,None,None,None,,,,,,,bihhjl,001,0,fr,2022-06-23_11h41.43.173,3-AFC_adaptive_staircase_mess,2022.1.1,33.65663900886416,
,,,,,7,0,7,0,15,0,15,0,,,,,,,,,,,,,,,,left,750,25.0,0.000722719885372964,1,5,1,2.5,751.1367426666586,None,751.0842009999324,751.416662100004,752.082234099973,752.4185529999668,753.083753200015,753.4168375999434,left,1,3.4466895000077784,751.1525522000156,None,753.6537806999404,None,,,,,,,bihhjl,001,0,fr,2022-06-23_11h41.43.173,3-AFC_adaptive_staircase_mess,2022.1.1,33.65663900886416,
,,,,,7,0,7,0,16,0,16,0,,,,,,,,,,,,,,,,left,750,25.0,0.000722719885372964,1,5,1,2.5,756.1723252667036,756.4013972999528,756.1217073999578,756.463322399999,None,None,None,None,left,1,0.8021931999828666,756.1902788999723,None,None,None,,,,,,,bihhjl,001,0,fr,2022-06-23_11h41.43.173,3-AFC_adaptive_staircase_mess,2022.1.1,33.65663900886416,
,,,,,7,0,7,0,17,0,17,0,,,,,,,,,,,,,,,,left,750,20.0,0.00040641525808204974,-1,6,-1,-5.0,758.5450518666223,None,758.5283851999557,758.8577826999826,759.5132829999784,759.8540286000352,760.5249395000283,760.860739100026,left,1,3.823381500085816,758.5585922999308,None,761.0908038000343,None,,,,,,,bihhjl,001,0,fr,2022-06-23_11h41.43.173,3-AFC_adaptive_staircase_mess,2022.1.1,33.65663900886416,
,,,,,8,0,8,0,0,0,0,0,,,,,,,,,,,,,[],[],10,left,500,30,0.002259279721874612,0,0,-1,10,765.2127090666365,765.4425976999337,765.1607388999546,765.5047901000362,766.1687362999655,766.5104204999516,767.1660777999787,767.4985666000284,left,1,3.0741918000858277,765.2290660999715,None,767.7359960000031,None,space,1.2356705000856891,763.4589874999365,None,763.4589874999365,None,bihhjl,001,0,fr,2022-06-23_11h41.43.173,3-AFC_adaptive_staircase_mess,2022.1.1,33.65663900886416,
,,,,,8,0,8,0,1,0,1,0,,,,,,,,,,,,,,,,right,500,30,0.002259279721874612,0,1,-1,10,None,None,769.8342319999356,None,None,None,None,None,up,0,-1.5443323999643326,769.9026251999894,None,None,None,,,,,,,bihhjl,001,0,fr,2022-06-23_11h41.43.173,3-AFC_adaptive_staircase_mess,2022.1.1,33.65663900886416,
,,,,,8,0,8,0,2,0,2,0,,,,,,,,,,,,,,,,right,500,40,0.007144469792555516,1,2,1,2.5,773.4542025667072,773.6830102000386,771.3991136000259,771.735651499941,772.4004928999348,772.7373283000197,773.4038187999977,773.7439037000295,right,1,2.4361817999742925,771.466477500042,None,None,None,,,,,,,bihhjl,001,0,fr,2022-06-23_11h41.43.173,3-AFC_adaptive_staircase_mess,2022.1.1,33.65663900886416,
,,,,,8,0,8,0,3,0,3,0,,,,,,,,,,,,,,,,left,500,40,0.007144469792555516,1,2,1,2.5,775.4228341666205,775.6505736999679,775.4061674999539,775.7427606999408,None,None,None,None,left,1,0.6066022999584675,775.4406100999331,None,None,None,,,,,,,bihhjl,001,0,fr,2022-06-23_11h41.43.173,3-AFC_adaptive_staircase_mess,2022.1.1,33.65663900886416,
,,,,,8,0,8,0,4,0,4,0,,,,,,,,,,,,,,,,right,500,35.0,0.004017630610928087,-1,3,-1,-10,779.6278244666212,None,777.5742399999872,777.9090636000037,778.5750632999698,778.911446299986,779.576104799984,779.8908296999289,right,1,2.3197507000295445,777.6406107000075,None,None,None,,,,,,,bihhjl,001,0,fr,2022-06-23_11h41.43.173,3-AFC_adaptive_staircase_mess,2022.1.1,33.65663900886416,
,,,,,8,0,8,0,5,0,5,0,,,,,,,,,,,,,,,,left,500,35.0,0.004017630610928087,-1,3,-1,-10,781.5286394666803,None,781.4776817000238,781.8195958000142,None,None,None,None,left,1,0.5019404999911785,781.5451354000252,None,None,None,,,,,,,bihhjl,001,0,fr,2022-06-23_11h41.43.173,3-AFC_adaptive_staircase_mess,2022.1.1,33.65663900886416,
,,,,,8,0,8,0,6,0,6,0,,,,,,,,,,,,,,,,left,500,25.0,0.0012704863527746527,-1,3,-1,-10,783.6308351666123,None,783.5812306000153,783.9217700000154,None,None,None,None,left,1,0.598876699921675,783.6476891000057,None,None,None,,,,,,,bihhjl,001,0,fr,2022-06-23_11h41.43.173,3-AFC_adaptive_staircase_mess,2022.1.1,33.65663900886416,
,,,,,8,0,8,0,7,0,7,0,,,,,,,,,,,,,,,,right,500,25.0,0.0012704863527746527,-1,3,-1,-10,787.8030177666262,None,785.7510588000296,786.0829691999825,786.7565060999477,787.0850866000401,787.7520880999509,788.0834367999341,right,1,2.3566814999794587,785.8179671999533,None,None,None,,,,,,,bihhjl,001,0,fr,2022-06-23_11h41.43.173,3-AFC_adaptive_staircase_mess,2022.1.1,33.65663900886416,
,,,,,8,0,8,0,8,0,8,0,,,,,,,,,,,,,,,,up,500,15.0,0.0004017630610928086,-1,3,-1,-10,790.7418431667068,790.9688947999384,789.6773541000439,790.021086600027,790.6907657999545,791.0294680999359,791.6893522000173,792.0249978000065,up,1,3.095816000015475,789.7348161999835,None,792.2588346999837,None,,,,,,,bihhjl,001,0,fr,2022-06-23_11h41.43.173,3-AFC_adaptive_staircase_mess,2022.1.1,33.65663900886416,
,,,,,8,0,8,0,9,0,9,0,,,,,,,,,,,,,,,,left,500,15.0,0.0004017630610928086,-1,3,-1,-10,794.4102136666809,None,794.3604984999401,None,None,None,None,None,right,0,-1.4445879999548197,794.4287013999419,None,None,None,,,,,,,bihhjl,001,0,fr,2022-06-23_11h41.43.173,3-AFC_adaptive_staircase_mess,2022.1.1,33.65663900886416,
,,,,,8,0,8,0,10,0,10,0,,,,,,,,,,,,,,,,right,500,20.0,0.0007144469792555515,1,4,1,5,798.0159214666967,None,795.973073399975,796.2954095000168,796.964926399989,797.2956462999573,797.9656730999704,798.3051879999693,right,1,2.433184599969536,796.0051722000353,None,None,None,,,,,,,bihhjl,001,0,fr,2022-06-23_11h41.43.173,3-AFC_adaptive_staircase_mess,2022.1.1,33.65663900886416,
,,,,,8,0,8,0,11,0,11,0,,,,,,,,,,,,,,,,up,500,20.0,0.0007144469792555515,1,4,1,5,801.0182027666053,None,799.9665859999368,800.3026355999755,800.967908999999,801.2806029999629,801.9775046999566,None,up,1,1.9566695000976324,800.034196499968,None,None,None,,,,,,,bihhjl,001,0,fr,2022-06-23_11h41.43.173,3-AFC_adaptive_staircase_mess,2022.1.1,33.65663900886416,
,,,,,8,0,8,0,12,0,12,0,,,,,,,,,,,,,,,,left,500,10.0,0.0002259279721874612,-1,5,-1,-10,803.5504106666815,803.7783650000347,803.4999656999717,803.8415449999738,804.5032665999606,804.8362025000388,805.503696299973,805.8407383000012,up,0,3.0956773000070825,803.5675019000191,None,806.0731379999779,None,,,,,,,bihhjl,001,0,fr,2022-06-23_11h41.43.173,3-AFC_adaptive_staircase_mess,2022.1.1,33.65663900886416,
,,,,,8,0,8,0,13,0,13,0,,,,,,,,,,,,,,,,right,500,15.0,0.0004017630610928086,1,6,1,5,None,None,808.1725721999537,None,None,None,None,None,left,0,-1.5637967000948265,808.2427216999931,None,None,None,,,,,,,bihhjl,001,0,fr,2022-06-23_11h41.43.173,3-AFC_adaptive_staircase_mess,2022.1.1,33.65663900886416,
,,,,,9,0,9,0,0,0,0,0,,,,,,,,,,,,,[],[],10,left,250,30,0.005296268625886445,0,0,-1,10,815.1438353666492,None,815.1271686999826,815.446908300044,None,None,None,None,left,1,0.8110096999444067,815.1559003000148,None,None,None,space,5.338194999960251,809.3089999000076,None,809.3089999000076,None,bihhjl,001,0,fr,2022-06-23_11h41.43.173,3-AFC_adaptive_staircase_mess,2022.1.1,33.65663900886416,
,,,,,9,0,9,0,1,0,1,0,,,,,,,,,,,,,,,,right,250,30,0.005296268625886445,0,0,-1,10,819.5348571666439,None,817.481587599963,817.8153668999439,818.4818665999919,818.8194987999741,819.4843542999588,819.8255487999413,right,1,2.3994442999828607,817.5507444000104,None,None,None,,,,,,,bihhjl,001,0,fr,2022-06-23_11h41.43.173,3-AFC_adaptive_staircase_mess,2022.1.1,33.65663900886416,
,,,,,9,0,9,0,2,0,2,0,,,,,,,,,,,,,,,,up,250,10,0.0005296268625886444,-1,0,-1,-10,822.5402426666735,None,821.4837822000263,821.821366499993,822.4900725999614,822.8274964999873,823.4917854999658,823.825154399965,up,1,3.5441480999579653,821.5512306999881,None,824.0599397999467,None,,,,,,,bihhjl,001,0,fr,2022-06-23_11h41.43.173,3-AFC_adaptive_staircase_mess,2022.1.1,33.65663900886416,
,,,,,9,0,9,0,3,0,3,0,,,,,,,,,,,,,,,,up,250,10,0.0005296268625886444,-1,0,-1,-10,None,None,826.6272962000221,None,None,None,None,None,right,0,-1.4219826000044122,826.695247799973,None,None,None,,,,,,,bihhjl,001,0,fr,2022-06-23_11h41.43.173,3-AFC_adaptive_staircase_mess,2022.1.1,33.65663900886416,
,,,,,9,0,9,0,4,0,4,0,,,,,,,,,,,,,,,,up,250,15,0.0009418245447449003,1,1,1,5,829.2488404666694,829.4748018999817,828.1950362999924,828.5314742999617,829.1982014999958,829.5304137000348,None,None,up,1,1.55195090000052,828.2627993000206,None,None,None,,,,,,,bihhjl,001,0,fr,2022-06-23_11h41.43.173,3-AFC_adaptive_staircase_mess,2022.1.1,33.65663900886416,
,,,,,9,0,9,0,5,0,5,0,,,,,,,,,,,,,,,,up,250,15,0.0009418245447449003,1,1,1,5,832.3506665666976,832.5770488999551,831.3268413000042,831.6652695999946,832.3339999000309,832.6669340999797,None,None,up,1,1.4435253998963162,831.3949102000333,None,None,None,,,,,,,bihhjl,001,0,fr,2022-06-23_11h41.43.173,3-AFC_adaptive_staircase_mess,2022.1.1,33.65663900886416,
,,,,,9,0,9,0,6,0,6,0,,,,,,,,,,,,,,,,left,250,5,0.0002978310717645052,-1,2,-1,-5.0,834.412551266669,None,834.3623196999542,834.7046743000392,835.365983900032,835.7030268999515,836.364441499929,836.7010141999926,up,0,3.2974852999905124,834.4294699999737,None,836.9113751000259,None,,,,,,,bihhjl,001,0,fr,2022-06-23_11h41.43.173,3-AFC_adaptive_staircase_mess,2022.1.1,33.65663900886416,
,,,,,9,0,9,0,7,0,7,0,,,,,,,,,,,,,,,,right,250,7.5,0.0003971641173621407,1,3,1,2.5,None,None,839.2396414999384,None,None,None,None,None,right,1,-1.355976500082761,839.3072345999535,None,None,None,,,,,,,bihhjl,001,0,fr,2022-06-23_11h41.43.173,3-AFC_adaptive_staircase_mess,2022.1.1,33.65663900886416,
,,,,,9,0,9,0,8,0,8,0,,,,,,,,,,,,,,,,left,250,7.5,0.0003971641173621407,1,3,1,2.5,840.8575389666405,None,840.8075935000088,841.1440566999372,841.8117743999464,842.1458778999513,842.8089639999671,843.1406334999483,left,1,3.521544300019741,840.8767467000289,None,843.3816737999441,None,,,,,,,bihhjl,001,0,fr,2022-06-23_11h41.43.173,3-AFC_adaptive_staircase_mess,2022.1.1,33.65663900886416,
,,,,,9,0,9,0,9,0,9,0,,,,,,,,,,,,,,,,left,250,2.5,0.0002233417960754815,-1,4,-1,-5.0,845.9644792666115,846.1882503000088,845.9146433999995,846.2509540999308,846.9146866999799,847.2473926999373,847.9169291999424,848.25172629999,right,0,3.617625799961388,845.9813960000174,None,848.4832486000378,None,,,,,,,bihhjl,001,0,fr,2022-06-23_11h41.43.173,3-AFC_adaptive_staircase_mess,2022.1.1,33.65663900886416,
,,,,,9,0,9,0,10,0,10,0,,,,,,,,,,,,,,,,up,250,5.0,0.0002978310717645052,1,5,1,2.5,852.1710847666875,None,851.1168555000331,851.4513821,852.1191027000314,852.4531299000373,853.1221283000195,853.4554963000119,up,1,3.164794099982828,851.1862534999382,None,853.6604000999359,None,,,,,,,bihhjl,001,0,fr,2022-06-23_11h41.43.173,3-AFC_adaptive_staircase_mess,2022.1.1,33.65663900886416,
,,,,,9,0,9,0,11,0,11,0,,,,,,,,,,,,,,,,up,250,5.0,0.0002978310717645052,1,5,1,2.5,None,None,855.8575527999783,None,None,None,None,None,left,0,-1.5244865999557078,855.8903211000143,None,None,None,,,,,,,bihhjl,001,0,fr,2022-06-23_11h41.43.173,3-AFC_adaptive_staircase_mess,2022.1.1,33.65663900886416,
,,,,,9,0,9,0,12,0,12,0,,,,,,,,,,,,,,,,left,250,7.5,0.0003971641173621407,1,5,1,2.5,857.4409443666848,None,857.3905991000356,857.727387299994,858.3976816999493,858.7348201000132,859.3982292000437,859.7272138999542,up,0,3.107051800005138,857.4597064999398,None,859.9654433999676,None,,,,,,,bihhjl,001,0,fr,2022-06-23_11h41.43.173,3-AFC_adaptive_staircase_mess,2022.1.1,33.65663900886416,
,,,,,9,0,9,0,13,0,13,0,,,,,,,,,,,,,,,,left,250,10.0,0.0005296268625886444,1,5,1,2.5,862.1176702666019,None,862.1010035999352,862.4430090000387,863.0973371999571,863.4371628999943,864.1027190999594,864.4318221999565,left,1,3.092107900069095,862.1313274999848,None,864.6382019999437,None,,,,,,,bihhjl,001,0,fr,2022-06-23_11h41.43.173,3-AFC_adaptive_staircase_mess,2022.1.1,33.65663900886416,
,,,,,9,0,9,0,14,0,14,0,,,,,,,,,,,,,,,,right,250,10.0,0.0005296268625886444,1,5,1,2.5,868.7855643666737,None,866.7431273999391,867.0703984999564,867.7402323000133,868.0701244999655,868.7322229000274,869.0494866999798,up,0,3.5525811000261456,866.8059094999917,None,869.3080416999292,None,,,,,,,bihhjl,001,0,fr,2022-06-23_11h41.43.173,3-AFC_adaptive_staircase_mess,2022.1.1,33.65663900886416,
,,,,,9,0,9,0,15,0,15,0,,,,,,,,,,,,,,,,right,250,12.5,0.0007062687723113773,1,5,1,2.5,873.923417166636,None,871.8742578999372,872.2084315000102,872.8779383000219,873.2082872999599,873.8739356000442,874.2118013999425,up,0,3.5612034000223503,871.9415256000357,None,874.4420087999897,None,,,,,,,bihhjl,001,0,fr,2022-06-23_11h41.43.173,3-AFC_adaptive_staircase_mess,2022.1.1,33.65663900886416,
,,,,,9,0,9,0,16,0,16,0,,,,,,,,,,,,,,,,right,250,15.0,0.0009418245447449003,1,5,1,2.5,None,None,877.0254625999369,None,None,None,None,None,left,0,-1.5426424000179395,877.053283700021,None,None,None,,,,,,,bihhjl,001,0,fr,2022-06-23_11h41.43.173,3-AFC_adaptive_staircase_mess,2022.1.1,33.65663900886416,
,,,,,9,0,9,0,17,0,17,0,,,,,,,,,,,,,,,,left,250,17.5,0.0012559432157547902,1,5,1,2.5,878.5888004666815,None,878.539283299935,878.882264600019,879.5536821000278,None,None,None,left,1,0.9368347999406978,878.6053609999362,None,None,None,,,,,,,bihhjl,001,0,fr,2022-06-23_11h41.43.173,3-AFC_adaptive_staircase_mess,2022.1.1,33.65663900886416,
,,,,,9,0,9,0,18,0,18,0,,,,,,,,,,,,,,,,right,250,17.5,0.0012559432157547902,1,5,1,2.5,883.0704397666889,None,881.0474757000338,881.3820820000255,882.0486456999788,882.388679799973,883.0537731000222,883.4002928000409,right,1,2.5075905000558123,881.115123800002,None,883.5896207999904,None,,,,,,,bihhjl,001,0,fr,2022-06-23_11h41.43.173,3-AFC_adaptive_staircase_mess,2022.1.1,33.65663900886416,
,,,,,9,0,9,0,19,0,19,0,,,,,,,,,,,,,,,,left,250,12.5,0.0007062687723113773,-1,6,-1,-5.0,885.1688460666376,None,885.116587699973,885.4601917000255,886.1171739000129,886.451974799973,887.121665099985,887.4558065999299,up,0,3.419864800060168,885.1865455999505,None,887.6842370999511,None,,,,,,,bihhjl,001,0,fr,2022-06-23_11h41.43.173,3-AFC_adaptive_staircase_mess,2022.1.1,33.65663900886416,
,,,,,10,0,10,0,0,0,0,0,,,,,,,,,,,,,[],[],10,right,125,30,0.02285440948074376,0,0,-1,10,893.8421827667082,None,891.7917020999594,892.1231726999395,892.7917574000312,893.1204283999978,893.7918783000205,894.1287993999431,right,1,2.613901300006546,891.8566949999658,None,894.3628186000278,None,space,1.624268800020218,889.686769300024,None,889.686769300024,None,bihhjl,001,0,fr,2022-06-23_11h41.43.173,3-AFC_adaptive_staircase_mess,2022.1.1,33.65663900886416,
,,,,,10,0,10,0,1,0,1,0,,,,,,,,,,,,,,,,left,125,30,0.02285440948074376,0,0,-1,10,896.0145017665966,None,895.99783509993,896.3277140000137,None,None,None,None,left,1,0.6382865000050515,896.0330113000236,None,None,None,,,,,,,bihhjl,001,0,fr,2022-06-23_11h41.43.173,3-AFC_adaptive_staircase_mess,2022.1.1,33.65663900886416,
,,,,,10,0,10,0,2,0,2,0,,,,,,,,,,,,,,,,up,125,10,0.002285440948074376,-1,0,-1,-10,899.2143038666729,None,898.1921612999868,898.529406699934,899.1976372000063,899.5280610999325,900.1956661000149,900.5298871999839,up,1,3.46589110000059,898.261049099965,None,900.7669883000199,None,,,,,,,bihhjl,001,0,fr,2022-06-23_11h41.43.173,3-AFC_adaptive_staircase_mess,2022.1.1,33.65663900886416,
,,,,,10,0,10,0,3,0,3,0,,,,,,,,,,,,,,,,left,125,10,0.002285440948074376,-1,0,-1,-10,903.2746981667044,None,903.2249785999302,903.5409561999841,904.2412561000092,904.5711741000414,905.227399699972,905.5444243999664,up,0,3.399352699983865,903.2869898999343,None,905.7750550999772,None,,,,,,,bihhjl,001,0,fr,2022-06-23_11h41.43.173,3-AFC_adaptive_staircase_mess,2022.1.1,33.65663900886416,
,,,,,10,0,10,0,4,0,4,0,,,,,,,,,,,,,,,,right,125,15,0.004064152580820497,1,1,1,5,910.2528941666862,None,908.199961700011,908.5370544999605,909.2045267999638,909.5306774999481,910.1998951999703,910.5151154999621,right,1,2.616392800002359,908.2627140999539,None,910.761998699978,None,,,,,,,bihhjl,001,0,fr,2022-06-23_11h41.43.173,3-AFC_adaptive_staircase_mess,2022.1.1,33.65663900886416,
,,,,,10,0,10,0,5,0,5,0,,,,,,,,,,,,,,,,left,125,15,0.004064152580820497,1,1,1,5,912.4622974666456,None,912.4141082999995,912.7382103999844,913.4016585999634,913.7487920999993,914.419294500025,914.7558666999685,up,0,3.547222699970007,912.4753191999625,None,914.976100299973,None,,,,,,,bihhjl,001,0,fr,2022-06-23_11h41.43.173,3-AFC_adaptive_staircase_mess,2022.1.1,33.65663900886416,
,,,,,10,0,10,0,6,0,6,0,,,,,,,,,,,,,,,,left,125,20,0.00722719885372964,1,1,1,5,917.5957590666987,None,917.5469645999838,None,None,None,None,None,right,0,-1.4038308999734,917.6098492000019,None,None,None,,,,,,,bihhjl,001,0,fr,2022-06-23_11h41.43.173,3-AFC_adaptive_staircase_mess,2022.1.1,33.65663900886416,
,,,,,10,0,10,0,7,0,7,0,,,,,,,,,,,,,,,,left,125,25,0.012851978913844325,1,1,1,5,919.1442863667073,None,919.1276197000407,919.4510092999553,None,None,None,None,left,1,0.642274699988775,919.1576683999738,None,None,None,,,,,,,bihhjl,001,0,fr,2022-06-23_11h41.43.173,3-AFC_adaptive_staircase_mess,2022.1.1,33.65663900886416,
,,,,,10,0,10,0,8,0,8,0,,,,,,,,,,,,,,,,up,125,25,0.012851978913844325,1,1,1,5,922.347365066704,None,921.3239250000333,921.6393053999636,922.3306984000374,922.6451710000401,None,None,up,1,1.5954513000324368,921.3872092999518,None,None,None,,,,,,,bihhjl,001,0,fr,2022-06-23_11h41.43.173,3-AFC_adaptive_staircase_mess,2022.1.1,33.65663900886416,
,,,,,10,0,10,0,9,0,9,0,,,,,,,,,,,,,,,,left,125,15,0.004064152580820497,-1,2,-1,-5.0,924.528414366596,None,924.4666727000149,924.7984906999627,925.4753892000299,925.7930669999914,926.4960736000212,926.8354198000161,left,1,2.983956199954264,924.5423983000219,None,927.0515882000327,None,,,,,,,bihhjl,001,0,fr,2022-06-23_11h41.43.173,3-AFC_adaptive_staircase_mess,2022.1.1,33.65663900886416,
,,,,,10,0,10,0,10,0,10,0,,,,,,,,,,,,,,,,left,125,15,0.004064152580820497,-1,2,-1,-5.0,929.0839508666579,None,929.0336390000302,929.3493148999987,930.0483088999754,930.386636100011,931.0524484999478,931.3905812000157,right,0,3.74605210009031,929.1005486999638,None,931.6020529000089,None,,,,,,,bihhjl,001,0,fr,2022-06-23_11h41.43.173,3-AFC_adaptive_staircase_mess,2022.1.1,33.65663900886416,
,,,,,10,0,10,0,11,0,11,0,,,,,,,,,,,,,,,,right,125,17.5,0.005419634570106019,1,3,1,2.5,None,None,934.3500647000037,None,None,None,None,None,up,0,-1.540917900041677,934.4111171000404,None,None,None,,,,,,,bihhjl,001,0,fr,2022-06-23_11h41.43.173,3-AFC_adaptive_staircase_mess,2022.1.1,33.65663900886416,
,,,,,10,0,10,0,12,0,12,0,,,,,,,,,,,,,,,,right,125,20.0,0.00722719885372964,1,3,1,2.5,937.9644367666372,None,935.9397182000102,936.2790927999886,936.9443735999521,937.2663505999371,937.9477700999705,938.2863248999929,right,1,2.6083443000679836,935.9744180999696,None,938.4814178999513,None,,,,,,,bihhjl,001,0,fr,2022-06-23_11h41.43.173,3-AFC_adaptive_staircase_mess,2022.1.1,33.65663900886416,
,,,,,10,0,10,0,13,0,13,0,,,,,,,,,,,,,,,,right,125,20.0,0.00722719885372964,1,3,1,2.5,942.1533662666955,None,940.1266578999348,940.4462454000022,941.1138144000433,941.4489000999602,942.1366996000288,942.455509899999,right,1,2.424348199972883,940.1582279000431,None,None,None,,,,,,,bihhjl,001,0,fr,2022-06-23_11h41.43.173,3-AFC_adaptive_staircase_mess,2022.1.1,33.65663900886416,
,,,,,10,0,10,0,14,0,14,0,,,,,,,,,,,,,,,,up,125,15.0,0.004064152580820497,-1,4,-1,-5.0,945.1438806666449,None,944.1279088000301,944.450427499949,945.1272139999783,945.4522162999492,946.122232099995,946.4230583999306,up,1,3.008720500045456,944.1594146999996,None,946.6796791999368,None,,,,,,,bihhjl,001,0,fr,2022-06-23_11h41.43.173,3-AFC_adaptive_staircase_mess,2022.1.1,33.65663900886416,
,,,,,10,0,10,0,15,0,15,0,,,,,,,,,,,,,,,,up,125,15.0,0.004064152580820497,-1,4,-1,-5.0,949.7563242666113,None,948.7053163000382,949.0381875999738,949.7062828999478,950.0264317999827,None,None,up,1,1.5621057000244036,948.7729539000429,None,None,None,,,,,,,bihhjl,001,0,fr,2022-06-23_11h41.43.173,3-AFC_adaptive_staircase_mess,2022.1.1,33.65663900886416,
,,,,,10,0,10,0,16,0,16,0,,,,,,,,,,,,,,,,left,125,10.0,0.002285440948074376,-1,4,-1,-5.0,951.8808068666297,None,951.864140199963,952.213307900005,952.8306298999814,953.177801999962,953.834903699928,954.1766224999446,left,1,3.0965202000224963,951.8942916999804,None,954.4141714000143,None,,,,,,,bihhjl,001,0,fr,2022-06-23_11h41.43.173,3-AFC_adaptive_staircase_mess,2022.1.1,33.65663900886416,
,,,,,10,0,10,0,17,0,17,0,,,,,,,,,,,,,,,,up,125,10.0,0.002285440948074376,-1,4,-1,-5.0,957.5594228666198,None,956.5146641000174,956.8535974000115,957.5001084000105,957.8209636999527,958.5173776999582,958.8528730999678,right,0,3.41510829993058,956.5672717000125,None,959.0839368000161,None,,,,,,,bihhjl,001,0,fr,2022-06-23_11h41.43.173,3-AFC_adaptive_staircase_mess,2022.1.1,33.65663900886416,
,,,,,10,0,10,0,18,0,18,0,,,,,,,,,,,,,,,,right,125,12.5,0.0030476844862008467,1,5,1,2.5,963.5386047666582,963.7670305999927,961.4857666000025,961.8200782999629,962.4867124999873,962.80744340003,963.4885843000375,963.8273438999895,right,1,2.7662731999298558,961.5526784999529,None,964.0560351000167,None,,,,,,,bihhjl,001,0,fr,2022-06-23_11h41.43.173,3-AFC_adaptive_staircase_mess,2022.1.1,33.65663900886416,
,,,,,10,0,10,0,19,0,19,0,,,,,,,,,,,,,,,,left,125,12.5,0.0030476844862008467,1,5,1,2.5,965.8731565667006,None,965.8218926000409,966.1599634999875,966.8247192000272,967.1571282999357,967.8273112999741,968.144890399999,left,1,3.244657599949278,965.890880699968,None,968.3729281999404,None,,,,,,,bihhjl,001,0,fr,2022-06-23_11h41.43.173,3-AFC_adaptive_staircase_mess,2022.1.1,33.65663900886416,
,,,,,10,0,10,0,20,0,20,0,,,,,,,,,,,,,,,,right,125,7.5,0.0017138389327322524,-1,6,-1,-5.0,972.7134854666112,None,970.6607000000076,970.9963304999983,971.6733080999693,971.9949966999702,972.6637285000179,972.9823260999983,right,1,2.964755600085482,970.7297528999625,None,973.2271605000133,None,,,,,,,bihhjl,001,0,fr,2022-06-23_11h41.43.173,3-AFC_adaptive_staircase_mess,2022.1.1,33.65663900886416,
,,,,,,,,,,,,,,,,,,,,,,,,,,,,,,,,,,,,,,,,,,,,,,,,,,,space,1.6045700999675319,974.7532131000189,None,974.7532131000189,None,,,,,,,,,
