practice.thisRepN,practice.thisTrialN,practice.thisN,practice.thisIndex,trials.thisRepN,trials.thisTrialN,trials.thisN,trials.thisIndex,blank_txt.started,blank_txt.stopped,practice_frequency,practice_level,psychopy_volume,tProbe.started,tProbe.stopped,tFeedback.keys,tFeedback.corr,tFeedback.rt,tFeedback.started,tFeedback.stopped,tToo_early.keys,tToo_early.corr,tToo_early.started,tToo_early.stopped,tToo_late.keys,tToo_late.corr,tToo_late.started,tToo_late.stopped,you_done_goofed.started,you_done_goofed.stopped,Init_phase,Frequency,Level,Psychopy_Volume,Catch trial,probe.started,probe.stopped,feedback.keys,feedback.corr,feedback.rt,feedback.started,feedback.stopped,too_late.keys,too_late.corr,too_late.started,too_late.stopped,too_late.rt,Audiogram,participant,session,Language (english or french),Tone duration (ms),date,expName,psychopyVersion,frameRate,
0,0,0,0,,,,,155.46976690000156,None,567,40,0.006099267302654233,1.018181466643,None,['space'],1,[0.33642950002104044],157.48393460002262,158.4854472000152,None,1,156.4715238000208,157.48393460002262,None,1,158.4854472000152,None,159.52024400001392,None,,,,,,,,,,,,,,,,,,,gtyzck,001,fr,200,2022-04-27_10h40.42.940,Bayesian,2022.1.1,None,
1,0,1,0,,,,,,,234,40,0.019882976039061955,1.0130618666298687,None,['space'],1,[0.3627851999772247],161.88879900000757,162.89027930001612,None,1,160.89082490000874,161.88879900000757,None,1,162.89027930001612,None,163.91501940001035,None,,,,,,,,,,,,,,,,,,,gtyzck,001,fr,200,2022-04-27_10h40.42.940,Bayesian,2022.1.1,None,
2,0,2,0,,,,,,,2345,40,0.008245949202640053,1.0041913666354958,None,['space'],1,[0.30798179999692366],165.68743150000228,166.68804350000573,None,1,164.71669890001067,165.72735930001363,None,1,166.68804350000573,None,167.71751260000747,None,,,,,,,,,,,,,,,,,,,gtyzck,001,fr,200,2022-04-27_10h40.42.940,Bayesian,2022.1.1,None,
,,,,0,0,0,0,171.2007018000004,None,,,,,,,,,,,,,,,,,,,,,"{'x': [], 'y': [], 'is_init_phase': True, 'is_exam_finished': False, 'threshold_uncertainty_db': 6}",1000,60,0.0440524436504007,False,1.2700038496404886e-05,None,['space'],1,[0.4154648999974597],172.29947759999777,173.31742840001243,None,1,173.31742840001243,None,,,gtyzck,001,fr,200,2022-04-27_10h40.42.940,Bayesian,2022.1.1,None,
,,,,1,0,1,0,,,,,,,,,,,,,,,,,,,,,,,"{'x': [[1000, 60]], 'y': [[1]], 'audiogram': {}, 'is_init_phase': True, 'is_exam_finished': False, 'threshold_uncertainty_db': 6}",1000,40,0.004405244365040069,False,0.009544200001982972,None,['space'],1,[0.42559100000653416],176.37030960002448,177.3662142000103,None,1,177.3662142000103,176.37030960002448,,,gtyzck,001,fr,200,2022-04-27_10h40.42.940,Bayesian,2022.1.1,None,
,,,,2,0,2,0,,,,,,,,,,,,,,,,,,,,,,,"{'x': [[1000, 60], [1000, 40]], 'y': [[1], [1]], 'audiogram': {}, 'is_init_phase': True, 'is_exam_finished': False, 'threshold_uncertainty_db': 6}",1000,20,0.0004405244365040069,False,0.010510599968256429,0.20704569996451028,['space'],1,[0.4505504000117071],178.52110360001097,179.53351259999909,None,1,179.53351259999909,178.52110360001097,,,gtyzck,001,fr,200,2022-04-27_10h40.42.940,Bayesian,2022.1.1,None,
,,,,3,0,3,0,,,,,,,,,,,,,,,,,,,,,,,"{'x': [[1000, 60], [1000, 40], [1000, 20]], 'y': [[1], [1], [1]], 'audiogram': {}, 'is_init_phase': True, 'is_exam_finished': False, 'threshold_uncertainty_db': 6}",,,,True,0.011258233338594437,None,['space'],1,[0.20503460001782514],181.4381067000213,182.46573460000218,None,1,182.46573460000218,181.4381067000213,,,gtyzck,001,fr,200,2022-04-27_10h40.42.940,Bayesian,2022.1.1,None,
,,,,4,0,4,0,,,,,,,,,,,,,,,,,,,,,,,"{'x': [[1000, 60], [1000, 40], [1000, 20]], 'y': [[1], [1], [1]], 'audiogram': {}, 'is_init_phase': True, 'is_exam_finished': False, 'threshold_uncertainty_db': 6}",1000,0,4.405244365040069e-05,False,0.009163200011244044,None,None,0,,184.46982740002568,185.47543260001112,None,1,185.47543260001112,184.46982740002568,,,gtyzck,001,fr,200,2022-04-27_10h40.42.940,Bayesian,2022.1.1,None,
,,,,5,0,5,0,,,,,,,,,,,,,,,,,,,,,,,"{'x': [[1000, 60], [1000, 40], [1000, 20], [1000, 0]], 'y': [[1], [1], [1], [-1]], 'audiogram': {}, 'is_init_phase': True, 'is_exam_finished': False, 'threshold_uncertainty_db': 6}",1500,10,0.0001527460556607757,False,0.012682900007348508,None,['space'],1,[0.44221800001105294],187.69689300001482,188.71697999999742,None,1,188.71697999999742,187.69689300001482,,,gtyzck,001,fr,200,2022-04-27_10h40.42.940,Bayesian,2022.1.1,None,
,,,,6,0,6,0,,,,,,,,,,,,,,,,,,,,,,,"{'x': [[1000, 60], [1000, 40], [1000, 20], [1000, 0], [1500, 10]], 'y': [[1], [1], [1], [-1], [1]], 'audiogram': {}, 'is_init_phase': True, 'is_exam_finished': False, 'threshold_uncertainty_db': 6}",1500,-10,1.527460556607758e-05,False,0.010827900026924908,None,None,0,,190.26932810002472,191.27201240000431,None,1,191.27201240000431,190.26932810002472,,,gtyzck,001,fr,200,2022-04-27_10h40.42.940,Bayesian,2022.1.1,None,
,,,,7,0,7,0,,,,,,,,,,,,,,,,,,,,,,,"{'x': [[1000, 60], [1000, 40], [1000, 20], [1000, 0], [1500, 10], [1500, -10]], 'y': [[1], [1], [1], [-1], [1], [-1]], 'audiogram': {}, 'is_init_phase': True, 'is_exam_finished': False, 'threshold_uncertainty_db': 6}",2000,10,0.00023657562948074026,False,0.0022455999860540032,None,['space'],1,[0.4097450000117533],193.21796259999974,194.2220520999981,None,1,194.2220520999981,193.21796259999974,,,gtyzck,001,fr,200,2022-04-27_10h40.42.940,Bayesian,2022.1.1,None,
,,,,8,0,8,0,,,,,,,,,,,,,,,,,,,,,,,"{'x': [[1000, 60], [1000, 40], [1000, 20], [1000, 0], [1500, 10], [1500, -10], [2000, 10]], 'y': [[1], [1], [1], [-1], [1], [-1], [1]], 'audiogram': {}, 'is_init_phase': True, 'is_exam_finished': False, 'threshold_uncertainty_db': 6}",2000,-10,2.3657562948074015e-05,False,0.005384700023569167,None,None,0,,195.71872420000727,196.72331719999784,None,1,196.72331719999784,195.71872420000727,,,gtyzck,001,fr,200,2022-04-27_10h40.42.940,Bayesian,2022.1.1,None,
,,,,9,0,9,0,,,,,,,,,,,,,,,,,,,,,,,"{'x': [[1000, 60], [1000, 40], [1000, 20], [1000, 0], [1500, 10], [1500, -10], [2000, 10], [2000, -10]], 'y': [[1], [1], [1], [-1], [1], [-1], [1], [-1]], 'audiogram': {}, 'is_init_phase': True, 'is_exam_finished': False, 'threshold_uncertainty_db': 6}",3000,10,0.00017336842522626576,False,0.01042450001114048,None,['space'],1,[0.3786924000014551],197.95348770002602,198.98195960000157,None,1,198.98195960000157,197.95348770002602,,,gtyzck,001,fr,200,2022-04-27_10h40.42.940,Bayesian,2022.1.1,None,
,,,,10,0,10,0,,,,,,,,,,,,,,,,,,,,,,,"{'x': [[1000, 60], [1000, 40], [1000, 20], [1000, 0], [1500, 10], [1500, -10], [2000, 10], [2000, -10], [3000, 10]], 'y': [[1], [1], [1], [-1], [1], [-1], [1], [-1], [1]], 'audiogram': {}, 'is_init_phase': True, 'is_exam_finished': False, 'threshold_uncertainty_db': 6}",,,,True,0.014521433331537992,None,None,0,,200.11177760001738,201.1143281000259,None,1,201.1143281000259,200.11177760001738,,,gtyzck,001,fr,200,2022-04-27_10h40.42.940,Bayesian,2022.1.1,None,
,,,,11,0,11,0,,,,,,,,,,,,,,,,,,,,,,,"{'x': [[1000, 60], [1000, 40], [1000, 20], [1000, 0], [1500, 10], [1500, -10], [2000, 10], [2000, -10], [3000, 10]], 'y': [[1], [1], [1], [-1], [1], [-1], [1], [-1], [1]], 'audiogram': {}, 'is_init_phase': True, 'is_exam_finished': False, 'threshold_uncertainty_db': 6}",3000,-10,1.7336842522626584e-05,False,0.004677799995988607,None,None,0,,203.62185290001798,204.63309149999986,None,1,204.63309149999986,203.62185290001798,,,gtyzck,001,fr,200,2022-04-27_10h40.42.940,Bayesian,2022.1.1,None,
,,,,12,0,12,0,,,,,,,,,,,,,,,,,,,,,,,"{'x': [[1000, 60], [1000, 40], [1000, 20], [1000, 0], [1500, 10], [1500, -10], [2000, 10], [2000, -10], [3000, 10], [3000, -10]], 'y': [[1], [1], [1], [-1], [1], [-1], [1], [-1], [1], [-1]], 'audiogram': {}, 'is_init_phase': True, 'is_exam_finished': False, 'threshold_uncertainty_db': 6}",4000,10,0.00026544222211549425,False,0.011256800004048273,None,['space'],1,[0.3692303999850992],206.29890670001623,207.30555200000526,None,1,207.30555200000526,206.29890670001623,,,gtyzck,001,fr,200,2022-04-27_10h40.42.940,Bayesian,2022.1.1,None,
,,,,13,0,13,0,,,,,,,,,,,,,,,,,,,,,,,"{'x': [[1000, 60], [1000, 40], [1000, 20], [1000, 0], [1500, 10], [1500, -10], [2000, 10], [2000, -10], [3000, 10], [3000, -10], [4000, 10]], 'y': [[1], [1], [1], [-1], [1], [-1], [1], [-1], [1], [-1], [1]], 'audiogram': {}, 'is_init_phase': True, 'is_exam_finished': False, 'threshold_uncertainty_db': 6}",4000,-10,2.6544222211549425e-05,False,0.009453900041989982,None,None,0,,208.7266093000071,209.7405027000059,None,1,209.7405027000059,208.7266093000071,,,gtyzck,001,fr,200,2022-04-27_10h40.42.940,Bayesian,2022.1.1,None,
,,,,14,0,14,0,,,,,,,,,,,,,,,,,,,,,,,"{'x': [[1000, 60], [1000, 40], [1000, 20], [1000, 0], [1500, 10], [1500, -10], [2000, 10], [2000, -10], [3000, 10], [3000, -10], [4000, 10], [4000, -10]], 'y': [[1], [1], [1], [-1], [1], [-1], [1], [-1], [1], [-1], [1], [-1]], 'audiogram': {}, 'is_init_phase': True, 'is_exam_finished': False, 'threshold_uncertainty_db': 6}",6000,10,0.00036641226656945183,False,0.007968500023707747,None,['space'],1,[0.38099809997947887],212.67084040000918,213.67733659999794,None,1,213.67733659999794,212.67084040000918,,,gtyzck,001,fr,200,2022-04-27_10h40.42.940,Bayesian,2022.1.1,None,
,,,,15,0,15,0,,,,,,,,,,,,,,,,,,,,,,,"{'x': [[1000, 60], [1000, 40], [1000, 20], [1000, 0], [1500, 10], [1500, -10], [2000, 10], [2000, -10], [3000, 10], [3000, -10], [4000, 10], [4000, -10], [6000, 10]], 'y': [[1], [1], [1], [-1], [1], [-1], [1], [-1], [1], [-1], [1], [-1], [1]], 'audiogram': {}, 'is_init_phase': True, 'is_exam_finished': False, 'threshold_uncertainty_db': 6}",6000,-10,3.664122665694518e-05,False,0.008722900005523115,None,['space'],1,[0.5971513999975286],215.30237960000522,216.3126717999985,None,1,216.3126717999985,215.30237960000522,,,gtyzck,001,fr,200,2022-04-27_10h40.42.940,Bayesian,2022.1.1,None,
,,,,16,0,16,0,,,,,,,,,,,,,,,,,,,,,,,"{'x': [[1000, 60], [1000, 40], [1000, 20], [1000, 0], [1500, 10], [1500, -10], [2000, 10], [2000, -10], [3000, 10], [3000, -10], [4000, 10], [4000, -10], [6000, 10], [6000, -10]], 'y': [[1], [1], [1], [-1], [1], [-1], [1], [-1], [1], [-1], [1], [-1], [1], [1]], 'audiogram': {}, 'is_init_phase': True, 'is_exam_finished': False, 'threshold_uncertainty_db': 6}",8000,-10,5.740768107484415e-05,False,0.006125999992946163,None,None,0,,218.10626310002408,219.11855840001954,None,1,219.11855840001954,218.10626310002408,,,gtyzck,001,fr,200,2022-04-27_10h40.42.940,Bayesian,2022.1.1,None,
,,,,17,0,17,0,,,,,,,,,,,,,,,,,,,,,,,"{'x': [[1000, 60], [1000, 40], [1000, 20], [1000, 0], [1500, 10], [1500, -10], [2000, 10], [2000, -10], [3000, 10], [3000, -10], [4000, 10], [4000, -10], [6000, 10], [6000, -10], [8000, -10]], 'y': [[1], [1], [1], [-1], [1], [-1], [1], [-1], [1], [-1], [1], [-1], [1], [1], [-1]], 'audiogram': {}, 'is_init_phase': True, 'is_exam_finished': False, 'threshold_uncertainty_db': 6}",,,,True,0.010984033317072317,None,None,0,,221.74547390002408,222.7516253000067,None,1,222.7516253000067,221.74547390002408,,,gtyzck,001,fr,200,2022-04-27_10h40.42.940,Bayesian,2022.1.1,None,
,,,,18,0,18,0,,,,,,,,,,,,,,,,,,,,,,,"{'x': [[1000, 60], [1000, 40], [1000, 20], [1000, 0], [1500, 10], [1500, -10], [2000, 10], [2000, -10], [3000, 10], [3000, -10], [4000, 10], [4000, -10], [6000, 10], [6000, -10], [8000, -10]], 'y': [[1], [1], [1], [-1], [1], [-1], [1], [-1], [1], [-1], [1], [-1], [1], [1], [-1]], 'audiogram': {}, 'is_init_phase': True, 'is_exam_finished': False, 'threshold_uncertainty_db': 6}",8000,0,0.0001815390273850507,False,0.016166599991265684,None,None,0,,224.71284030002425,225.72371690001455,None,1,225.72371690001455,224.71284030002425,,,gtyzck,001,fr,200,2022-04-27_10h40.42.940,Bayesian,2022.1.1,None,
,,,,19,0,19,0,,,,,,,,,,,,,,,,,,,,,,,"{'x': [[1000, 60], [1000, 40], [1000, 20], [1000, 0], [1500, 10], [1500, -10], [2000, 10], [2000, -10], [3000, 10], [3000, -10], [4000, 10], [4000, -10], [6000, 10], [6000, -10], [8000, -10], [8000, 0]], 'y': [[1], [1], [1], [-1], [1], [-1], [1], [-1], [1], [-1], [1], [-1], [1], [1], [-1], [-1]], 'audiogram': {}, 'is_init_phase': True, 'is_exam_finished': False, 'threshold_uncertainty_db': 6}",8000,10,0.0005740768107484417,False,0.01304260001052171,None,['space'],1,[0.47049259999766946],228.5165538000001,229.5212298000115,None,1,229.5212298000115,228.5165538000001,,,gtyzck,001,fr,200,2022-04-27_10h40.42.940,Bayesian,2022.1.1,None,
,,,,20,0,20,0,,,,,,,,,,,,,,,,,,,,,,,"{'x': [[1000, 60], [1000, 40], [1000, 20], [1000, 0], [1500, 10], [1500, -10], [2000, 10], [2000, -10], [3000, 10], [3000, -10], [4000, 10], [4000, -10], [6000, 10], [6000, -10], [8000, -10], [8000, 0], [8000, 10]], 'y': [[1], [1], [1], [-1], [1], [-1], [1], [-1], [1], [-1], [1], [-1], [1], [1], [-1], [-1], [1]], 'audiogram': {}, 'is_init_phase': True, 'is_exam_finished': False, 'threshold_uncertainty_db': 6}",750,10,0.00012851978913844324,False,0.011814100027550012,None,['space'],1,[0.5908120000094641],231.70954370000982,232.7204630000051,None,1,232.7204630000051,231.70954370000982,,,gtyzck,001,fr,200,2022-04-27_10h40.42.940,Bayesian,2022.1.1,None,
,,,,21,0,21,0,,,,,,,,,,,,,,,,,,,,,,,"{'x': [[1000, 60], [1000, 40], [1000, 20], [1000, 0], [1500, 10], [1500, -10], [2000, 10], [2000, -10], [3000, 10], [3000, -10], [4000, 10], [4000, -10], [6000, 10], [6000, -10], [8000, -10], [8000, 0], [8000, 10], [750, 10]], 'y': [[1], [1], [1], [-1], [1], [-1], [1], [-1], [1], [-1], [1], [-1], [1], [1], [-1], [-1], [1], [1]], 'audiogram': {}, 'is_init_phase': True, 'is_exam_finished': False, 'threshold_uncertainty_db': 6}",,,,True,0.013704533339478076,None,None,0,,234.5278695000161,235.55314450000878,None,1,235.55314450000878,234.5278695000161,,,gtyzck,001,fr,200,2022-04-27_10h40.42.940,Bayesian,2022.1.1,None,
,,,,22,0,22,0,,,,,,,,,,,,,,,,,,,,,,,"{'x': [[1000, 60], [1000, 40], [1000, 20], [1000, 0], [1500, 10], [1500, -10], [2000, 10], [2000, -10], [3000, 10], [3000, -10], [4000, 10], [4000, -10], [6000, 10], [6000, -10], [8000, -10], [8000, 0], [8000, 10], [750, 10]], 'y': [[1], [1], [1], [-1], [1], [-1], [1], [-1], [1], [-1], [1], [-1], [1], [1], [-1], [-1], [1], [1]], 'audiogram': {}, 'is_init_phase': True, 'is_exam_finished': False, 'threshold_uncertainty_db': 6}",750,-10,1.2851978913844322e-05,False,0.012019500019960105,None,None,0,,236.6717666000186,237.6904935000057,None,1,237.6904935000057,236.6717666000186,,,gtyzck,001,fr,200,2022-04-27_10h40.42.940,Bayesian,2022.1.1,None,
,,,,23,0,23,0,,,,,,,,,,,,,,,,,,,,,,,"{'x': [[1000, 60], [1000, 40], [1000, 20], [1000, 0], [1500, 10], [1500, -10], [2000, 10], [2000, -10], [3000, 10], [3000, -10], [4000, 10], [4000, -10], [6000, 10], [6000, -10], [8000, -10], [8000, 0], [8000, 10], [750, 10], [750, -10]], 'y': [[1], [1], [1], [-1], [1], [-1], [1], [-1], [1], [-1], [1], [-1], [1], [1], [-1], [-1], [1], [1], [-1]], 'audiogram': {}, 'is_init_phase': True, 'is_exam_finished': False, 'threshold_uncertainty_db': 6}",500,10,0.0002259279721874612,False,0.014567000005627051,None,['space'],1,[0.5416244000080042],240.28546040001675,241.28987810001126,None,1,241.28987810001126,240.28546040001675,,,gtyzck,001,fr,200,2022-04-27_10h40.42.940,Bayesian,2022.1.1,None,
,,,,24,0,24,0,,,,,,,,,,,,,,,,,,,,,,,"{'x': [[1000, 60], [1000, 40], [1000, 20], [1000, 0], [1500, 10], [1500, -10], [2000, 10], [2000, -10], [3000, 10], [3000, -10], [4000, 10], [4000, -10], [6000, 10], [6000, -10], [8000, -10], [8000, 0], [8000, 10], [750, 10], [750, -10], [500, 10]], 'y': [[1], [1], [1], [-1], [1], [-1], [1], [-1], [1], [-1], [1], [-1], [1], [1], [-1], [-1], [1], [1], [-1], [1]], 'audiogram': {}, 'is_init_phase': True, 'is_exam_finished': False, 'threshold_uncertainty_db': 6}",500,-10,2.259279721874613e-05,False,0.0037108999968040735,None,None,0,,244.16978880000534,245.175592900021,None,1,245.175592900021,244.16978880000534,,,gtyzck,001,fr,200,2022-04-27_10h40.42.940,Bayesian,2022.1.1,None,
,,,,25,0,25,0,,,,,,,,,,,,,,,,,,,,,,,"{'x': [[1000, 60], [1000, 40], [1000, 20], [1000, 0], [1500, 10], [1500, -10], [2000, 10], [2000, -10], [3000, 10], [3000, -10], [4000, 10], [4000, -10], [6000, 10], [6000, -10], [8000, -10], [8000, 0], [8000, 10], [750, 10], [750, -10], [500, 10], [500, -10]], 'y': [[1], [1], [1], [-1], [1], [-1], [1], [-1], [1], [-1], [1], [-1], [1], [1], [-1], [-1], [1], [1], [-1], [1], [-1]], 'audiogram': {}, 'is_init_phase': True, 'is_exam_finished': False, 'threshold_uncertainty_db': 6}",250,10,0.0005296268625886444,False,0.009490966680459678,None,['space'],1,[0.49895370000740513],246.53679560002638,247.55401100000017,None,1,247.55401100000017,246.53679560002638,,,gtyzck,001,fr,200,2022-04-27_10h40.42.940,Bayesian,2022.1.1,None,
,,,,26,0,26,0,,,,,,,,,,,,,,,,,,,,,,,"{'x': [[1000, 60], [1000, 40], [1000, 20], [1000, 0], [1500, 10], [1500, -10], [2000, 10], [2000, -10], [3000, 10], [3000, -10], [4000, 10], [4000, -10], [6000, 10], [6000, -10], [8000, -10], [8000, 0], [8000, 10], [750, 10], [750, -10], [500, 10], [500, -10], [250, 10]], 'y': [[1], [1], [1], [-1], [1], [-1], [1], [-1], [1], [-1], [1], [-1], [1], [1], [-1], [-1], [1], [1], [-1], [1], [-1], [1]], 'audiogram': {}, 'is_init_phase': True, 'is_exam_finished': False, 'threshold_uncertainty_db': 6}",,,,True,0.01131649999297224,None,None,0,,249.1529370000062,250.14618280000286,None,1,250.14618280000286,249.1529370000062,,,gtyzck,001,fr,200,2022-04-27_10h40.42.940,Bayesian,2022.1.1,None,
,,,,27,0,27,0,,,,,,,,,,,,,,,,,,,,,,,"{'x': [[1000, 60], [1000, 40], [1000, 20], [1000, 0], [1500, 10], [1500, -10], [2000, 10], [2000, -10], [3000, 10], [3000, -10], [4000, 10], [4000, -10], [6000, 10], [6000, -10], [8000, -10], [8000, 0], [8000, 10], [750, 10], [750, -10], [500, 10], [500, -10], [250, 10]], 'y': [[1], [1], [1], [-1], [1], [-1], [1], [-1], [1], [-1], [1], [-1], [1], [1], [-1], [-1], [1], [1], [-1], [1], [-1], [1]], 'audiogram': {}, 'is_init_phase': True, 'is_exam_finished': False, 'threshold_uncertainty_db': 6}",250,-10,5.296268625886443e-05,False,0.010504200006835163,0.2052894000080414,None,0,,251.83543550001923,252.83627820000402,None,1,252.83627820000402,251.83543550001923,,,gtyzck,001,fr,200,2022-04-27_10h40.42.940,Bayesian,2022.1.1,None,
,,,,28,0,28,0,,,,,,,,,,,,,,,,,,,,,,,"{'x': [[1000, 60], [1000, 40], [1000, 20], [1000, 0], [1500, 10], [1500, -10], [2000, 10], [2000, -10], [3000, 10], [3000, -10], [4000, 10], [4000, -10], [6000, 10], [6000, -10], [8000, -10], [8000, 0], [8000, 10], [750, 10], [750, -10], [500, 10], [500, -10], [250, 10], [250, -10]], 'y': [[1], [1], [1], [-1], [1], [-1], [1], [-1], [1], [-1], [1], [-1], [1], [1], [-1], [-1], [1], [1], [-1], [1], [-1], [1], [-1]], 'audiogram': {}, 'is_init_phase': True, 'is_exam_finished': False, 'threshold_uncertainty_db': 6}",125,10,0.002285440948074376,False,0.01237290003336966,None,['space'],1,[0.4986784000066109],255.5453656000027,256.5535352000152,None,1,256.5535352000152,255.5453656000027,,,gtyzck,001,fr,200,2022-04-27_10h40.42.940,Bayesian,2022.1.1,None,
,,,,29,0,29,0,,,,,,,,,,,,,,,,,,,,,,,"{'x': [[1000, 60], [1000, 40], [1000, 20], [1000, 0], [1500, 10], [1500, -10], [2000, 10], [2000, -10], [3000, 10], [3000, -10], [4000, 10], [4000, -10], [6000, 10], [6000, -10], [8000, -10], [8000, 0], [8000, 10], [750, 10], [750, -10], [500, 10], [500, -10], [250, 10], [250, -10], [125, 10]], 'y': [[1], [1], [1], [-1], [1], [-1], [1], [-1], [1], [-1], [1], [-1], [1], [1], [-1], [-1], [1], [1], [-1], [1], [-1], [1], [-1], [1]], 'audiogram': {}, 'is_init_phase': True, 'is_exam_finished': False, 'threshold_uncertainty_db': 6}",125,-10,0.0002285440948074376,False,0.011589400004595518,None,None,0,,258.21501330001047,259.2155532000179,None,1,259.2155532000179,258.21501330001047,,,gtyzck,001,fr,200,2022-04-27_10h40.42.940,Bayesian,2022.1.1,None,
,,,,30,0,30,0,,,,,,,,,,,,,,,,,,,,,,,"{'x': [[1000, 60], [1000, 40], [1000, 20], [1000, 0], [1500, 10], [1500, -10], [2000, 10], [2000, -10], [3000, 10], [3000, -10], [4000, 10], [4000, -10], [6000, 10], [6000, -10], [8000, -10], [8000, 0], [8000, 10], [750, 10], [750, -10], [500, 10], [500, -10], [250, 10], [250, -10], [125, 10], [125, -10]], 'y': [[1], [1], [1], [-1], [1], [-1], [1], [-1], [1], [-1], [1], [-1], [1], [1], [-1], [-1], [1], [1], [-1], [1], [-1], [1], [-1], [1], [-1]], 'audiogram': {}, 'is_init_phase': True, 'is_exam_finished': False, 'threshold_uncertainty_db': 6}",,,,True,0.014183333347318694,None,None,0,,261.6419081000204,262.65130170001066,None,1,262.65130170001066,261.6419081000204,,,gtyzck,001,fr,200,2022-04-27_10h40.42.940,Bayesian,2022.1.1,None,
,,,,31,0,31,0,,,,,,,,,,,,,,,,,,,,,,,"{'x': [[1000, 60], [1000, 40], [1000, 20], [1000, 0], [1500, 10], [1500, -10], [2000, 10], [2000, -10], [3000, 10], [3000, -10], [4000, 10], [4000, -10], [6000, 10], [6000, -10], [8000, -10], [8000, 0], [8000, 10], [750, 10], [750, -10], [500, 10], [500, -10], [250, 10], [250, -10], [125, 10], [125, -10]], 'y': [[1], [1], [1], [-1], [1], [-1], [1], [-1], [1], [-1], [1], [-1], [1], [1], [-1], [-1], [1], [1], [-1], [1], [-1], [1], [-1], [1], [-1]], 'audiogram': {}, 'is_init_phase': True, 'is_exam_finished': False, 'threshold_uncertainty_db': 6}",353.5533905932738,1.0,9.942466977099573e-05,False,0.01164646667893976,0.20670606670319103,None,0,,266.034307599999,267.0406581000134,None,1,267.0406581000134,266.034307599999,,,gtyzck,001,fr,200,2022-04-27_10h40.42.940,Bayesian,2022.1.1,None,
,,,,32,0,32,0,,,,,,,,,,,,,,,,,,,,,,,,176.7766952966369,2.0,0.00044065030258128913,False,0.007065366662573069,None,['space'],1,[0.13768300000810996],270.21041580001474,271.2293973000196,None,1,271.2293973000196,270.21041580001474,,,gtyzck,001,fr,200,2022-04-27_10h40.42.940,Bayesian,2022.1.1,None,
,,,,33,0,33,0,,,,,,,,,,,,,,,,,,,,,,,,5278.031643091578,-7.0,6.364940612116406e-05,False,0.0053833333076909184,0.1938767333049327,['space'],1,[0.46122600001399405],275.2463603000215,276.25007020001067,None,1,276.25007020001067,275.2463603000215,,,gtyzck,001,fr,200,2022-04-27_10h40.42.940,Bayesian,2022.1.1,None,
,,,,34,0,34,0,,,,,,,,,,,,,,,,,,,,,,,,,,,True,0.013004933338379487,None,None,0,,278.79417580002337,279.80609040000127,None,1,279.80609040000127,278.79417580002337,,,gtyzck,001,fr,200,2022-04-27_10h40.42.940,Bayesian,2022.1.1,None,
,,,,35,0,35,0,,,,,,,,,,,,,,,,,,,,,,,,2462.2888266898335,1.0,9.543828998156852e-05,False,0.00919253335450776,None,None,0,,282.51766520002275,283.53714440000476,None,1,283.53714440000476,282.51766520002275,,,gtyzck,001,fr,200,2022-04-27_10h40.42.940,Bayesian,2022.1.1,None,
,,,,36,0,36,0,,,,,,,,,,,,,,,,,,,,,,,,125.0,-1.0,0.000644124775846567,False,0.015650699991965666,None,None,0,,286.5029158000252,287.51941570002236,None,1,287.51941570002236,286.5029158000252,,,gtyzck,001,fr,200,2022-04-27_10h40.42.940,Bayesian,2022.1.1,None,
,,,,37,0,37,0,,,,,,,,,,,,,,,,,,,,,,,,615.5722066724584,1.0,5.99330541482996e-05,False,0.014312333340058103,None,None,0,,291.50970550000784,292.5338515000185,None,1,292.5338515000185,291.50970550000784,,,gtyzck,001,fr,200,2022-04-27_10h40.42.940,Bayesian,2022.1.1,None,
,,,,38,0,38,0,,,,,,,,,,,,,,,,,,,,,,,,1319.5079107728945,3.0,7.455877576898718e-05,False,0.009721733309561387,None,['space'],1,[0.4944740000064485],296.71709350001765,297.72275960000115,None,1,297.72275960000115,296.71709350001765,,,gtyzck,001,fr,200,2022-04-27_10h40.42.940,Bayesian,2022.1.1,None,
,,,,39,0,39,0,,,,,,,,,,,,,,,,,,,,,,,,250.0,1.0,0.00018791870214422208,False,0.003995766659500077,None,None,0,,300.42920870002126,301.44331290002447,None,1,301.44331290002447,300.42920870002126,,,gtyzck,001,fr,200,2022-04-27_10h40.42.940,Bayesian,2022.1.1,None,
,,,,40,0,40,0,,,,,,,,,,,,,,,,,,,,,,,,378.9291416275994,7.0,0.0001836301101713295,False,0.009540933300741017,None,None,0,,305.60829210001975,306.6281891000108,None,1,306.6281891000108,305.60829210001975,,,gtyzck,001,fr,200,2022-04-27_10h40.42.940,Bayesian,2022.1.1,None,
,,,,41,0,41,0,,,,,,,,,,,,,,,,,,,,,,,,,,,True,0.012919833301566541,None,None,0,,309.1956400000199,310.2164844000072,None,1,310.2164844000072,309.1956400000199,,,gtyzck,001,fr,200,2022-04-27_10h40.42.940,Bayesian,2022.1.1,None,
,,,,42,0,42,0,,,,,,,,,,,,,,,,,,,,,,,,1741.101126592249,1.0,7.082370640515016e-05,False,0.004306100046960637,None,None,0,,314.33352860002196,315.35553820000496,None,1,315.35553820000496,314.33352860002196,,,gtyzck,001,fr,200,2022-04-27_10h40.42.940,Bayesian,2022.1.1,None,
,,,,43,0,43,0,,,,,,,,,,,,,,,,,,,,,,,,3482.202253184498,0.0,7.485072584861476e-05,False,0.003583833313314244,None,['space'],1,[0.544942100008484],319.0828838000016,320.0934669999988,None,1,320.0934669999988,319.0828838000016,,,gtyzck,001,fr,200,2022-04-27_10h40.42.940,Bayesian,2022.1.1,None,
,,,,44,0,44,0,,,,,,,,,,,,,,,,,,,,,,,,8000.0,1.0,0.0002036901389020564,False,0.010681566694984213,None,None,0,,323.3927918000263,324.4009084000136,None,1,324.4009084000136,323.3927918000263,,,gtyzck,001,fr,200,2022-04-27_10h40.42.940,Bayesian,2022.1.1,None,
,,,,45,0,45,0,,,,,,,,,,,,,,,,,,,,,,,,,,,True,0.015976933325873688,None,None,0,,327.2873207000084,328.2957770000212,['space'],0,328.2957770000212,327.2873207000084,[0.787302600016119],,gtyzck,001,fr,200,2022-04-27_10h40.42.940,Bayesian,2022.1.1,None,
,,,,46,0,46,0,,,,,,,,,,,,,,,,,,,,,,,,329.87697769322364,10.0,0.0002996540782015946,False,0.004029166680993512,None,None,0,,331.05773540001246,332.0522061000229,None,1,332.0522061000229,331.05773540001246,,,gtyzck,001,fr,200,2022-04-27_10h40.42.940,Bayesian,2022.1.1,None,
,,,,47,0,47,0,,,,,,,,,,,,,,,,,,,,,,,,176.7766952966369,-2.0,0.0002780315447610839,False,0.008226933336118236,None,None,0,,335.17993890002253,336.19841790001374,None,1,336.19841790001374,335.17993890002253,,,gtyzck,001,fr,200,2022-04-27_10h40.42.940,Bayesian,2022.1.1,None,
,,,,48,0,48,0,,,,,,,,,,,,,,,,,,,,,,,,125.0,3.0,0.001020868972334765,False,0.01152046665083617,None,['space'],1,[0.6376355999964289],340.36651340001845,341.3624758000078,None,1,341.3624758000078,340.36651340001845,,,gtyzck,001,fr,200,2022-04-27_10h40.42.940,Bayesian,2022.1.1,None,
,,,,49,0,49,0,,,,,,,,,,,,,,,,,,,,,,,,812.2523963562351,5.0,6.884841724244588e-05,False,0.010748733329819515,None,None,0,,345.42035640001995,346.4367975000059,['space'],0,346.4367975000059,345.42035640001995,[0.6621115999878384],,gtyzck,001,fr,200,2022-04-27_10h40.42.940,Bayesian,2022.1.1,None,
,,,,50,0,50,0,,,,,,,,,,,,,,,,,,,,,,,,5656.85424949238,-11.0,3.622289631277776e-05,False,0.01552966664894484,None,None,0,,349.50218840001617,350.512610100006,None,1,350.512610100006,349.50218840001617,,,gtyzck,001,fr,200,2022-04-27_10h40.42.940,Bayesian,2022.1.1,None,
,,,,51,0,51,0,,,,,,,,,,,,,,,,,,,,,,,,2639.015821545789,4.0,0.00012244339047642582,False,0.007803333370247856,None,['space'],1,[0.5210477000218816],354.1622193000221,355.18000480000046,None,1,355.18000480000046,354.1622193000221,,,gtyzck,001,fr,200,2022-04-27_10h40.42.940,Bayesian,2022.1.1,None,
,,,,52,0,52,0,,,,,,,,,,,,,,,,,,,,,,,,,,,True,0.011537933314684778,None,None,0,,357.28590690001147,358.27967190000345,None,1,358.27967190000345,357.28590690001147,,,gtyzck,001,fr,200,2022-04-27_10h40.42.940,Bayesian,2022.1.1,None,
,,,,53,0,53,0,,,,,,,,,,,,,,,,,,,,,,,,500.0,7.0,0.00015994475548456992,False,0.015260133339324966,None,['space'],1,[0.5755989000026602],361.580572100007,362.58589930000016,None,1,362.58589930000016,361.580572100007,,,gtyzck,001,fr,200,2022-04-27_10h40.42.940,Bayesian,2022.1.1,None,
,,,,54,0,54,0,,,,,,,,,,,,,,,,,,,,,,,,1071.7734625362941,4.0,7.457639025921729e-05,False,0.0029513666522689164,0.19541046666563489,None,0,,365.4284935000178,366.42188030001125,None,1,366.42188030001125,365.4284935000178,,,gtyzck,001,fr,200,2022-04-27_10h40.42.940,Bayesian,2022.1.1,None,
,,,,55,0,55,0,,,,,,,,,,,,,,,,,,,,,,,,250.0,7.0,0.00037494710466622793,False,0.0044606000010389835,None,['space'],1,[0.619624200015096],369.11928070001886,370.12689510002383,None,1,370.12689510002383,369.11928070001886,,,gtyzck,001,fr,200,2022-04-27_10h40.42.940,Bayesian,2022.1.1,None,
,,,,56,0,56,0,,,,,,,,,,,,,,,,,,,,,,,,3732.1319661472303,-5.0,4.455881194060064e-05,False,0.002994133363245055,None,['space'],1,[0.6219356000074185],373.7571064000076,374.78728210000554,None,1,374.78728210000554,373.7571064000076,,,gtyzck,001,fr,200,2022-04-27_10h40.42.940,Bayesian,2022.1.1,None,
,,,,57,0,57,0,,,,,,,,,,,,,,,,,,,,,,,,1866.0659830736151,4.0,0.00010898398547837883,False,0.007881533325416967,None,None,0,,378.05088620001334,379.07094940001843,None,1,379.07094940001843,378.05088620001334,,,gtyzck,001,fr,200,2022-04-27_10h40.42.940,Bayesian,2022.1.1,None,
,,,,58,0,58,0,,,,,,,,,,,,,,,,,,,,,,,,,,,True,0.010607933334540576,None,None,0,,381.7125722000201,382.7269811000151,None,1,382.7269811000151,381.7125722000201,,,gtyzck,001,fr,200,2022-04-27_10h40.42.940,Bayesian,2022.1.1,None,
,,,,59,0,59,0,,,,,,,,,,,,,,,,,,,,,,,,8000.0,4.0,0.0002877199686685786,False,0.015849300049012527,None,['space'],1,[0.6462813999969512],387.2048150000046,388.2354459000053,None,1,388.2354459000053,387.2048150000046,,,gtyzck,001,fr,200,2022-04-27_10h40.42.940,Bayesian,2022.1.1,None,
,,,,60,0,60,0,,,,,,,,,,,,,,,,,,,,,,,,406.12619817811805,9.0,0.0002148773033123642,False,0.012108599999919534,0.2072319000144489,None,0,,392.4664804000058,393.47358180000447,None,1,393.47358180000447,392.4664804000058,,,gtyzck,001,fr,200,2022-04-27_10h40.42.940,Bayesian,2022.1.1,None,
,,,,61,0,61,0,,,,,,,,,,,,,,,,,,,,,,,,933.0329915368076,8.0,0.00010587379673694803,False,0.009478199965087697,None,None,0,,397.4432854000188,398.47481929999776,None,1,398.47481929999776,397.4432854000188,,,gtyzck,001,fr,200,2022-04-27_10h40.42.940,Bayesian,2022.1.1,None,
,,,,62,0,62,0,,,,,,,,,,,,,,,,,,,,,,,,1319.5079107728945,4.0,8.36563223429657e-05,False,0.01508333333185874,None,None,0,,402.048331900005,403.08515140000964,None,1,403.08515140000964,402.048331900005,,,gtyzck,001,fr,200,2022-04-27_10h40.42.940,Bayesian,2022.1.1,None,
,,,,63,0,63,0,,,,,,,,,,,,,,,,,,,,,,,,615.5722066724584,4.0,8.465768914838171e-05,False,0.0076336000056471676,0.20518109999829903,None,0,,407.29207190001034,408.32387430002564,None,1,408.32387430002564,407.29207190001034,,,gtyzck,001,fr,200,2022-04-27_10h40.42.940,Bayesian,2022.1.1,None,
,,,,64,0,64,0,,,,,,,,,,,,,,,,,,,,,,,,,,,True,0.01433353332686238,None,None,0,,410.9933334000234,412.007426199998,None,1,412.007426199998,410.9933334000234,,,gtyzck,001,fr,200,2022-04-27_10h40.42.940,Bayesian,2022.1.1,None,
,,,,65,0,65,0,,,,,,,,,,,,,,,,,,,,,,,,125.0,1.0,0.0008109050486794653,False,0.0037446666974574327,None,None,0,,415.04239660000894,416.0564469000092,None,1,416.0564469000092,415.04239660000894,,,gtyzck,001,fr,200,2022-04-27_10h40.42.940,Bayesian,2022.1.1,None,
,,,,66,0,66,0,,,,,,,,,,,,,,,,,,,,,,,,329.87697769322364,12.0,0.00037724213379574414,False,0.005705066665541381,None,['space'],1,[0.6777840000286233],419.57349470001645,420.57251590001397,None,1,420.57251590001397,419.57349470001645,,,gtyzck,001,fr,200,2022-04-27_10h40.42.940,Bayesian,2022.1.1,None,
,,,,67,0,67,0,,,,,,,,,,,,,,,,,,,,,,,,3031.4331330207992,-2.0,4.591105636927482e-05,False,0.007388866652036086,None,None,0,,423.8067250000022,424.83260630001314,None,1,424.83260630001314,423.8067250000022,,,gtyzck,001,fr,200,2022-04-27_10h40.42.940,Bayesian,2022.1.1,None,
,,,,68,0,68,0,,,,,,,,,,,,,,,,,,,,,,,,,,,True,0.016452533309347928,None,None,0,,427.03654830000596,428.04710260001593,None,1,428.04710260001593,427.03654830000596,,,gtyzck,001,fr,200,2022-04-27_10h40.42.940,Bayesian,2022.1.1,None,
,,,,69,0,69,0,,,,,,,,,,,,,,,,,,,,,,,,1071.7734625362941,8.0,0.00011819561324015676,False,0.01465009996900335,0.21291059997747652,['space'],1,[0.6940963999950327],433.0607947000244,434.083407099999,None,1,434.083407099999,433.0607947000244,,,gtyzck,001,fr,200,2022-04-27_10h40.42.940,Bayesian,2022.1.1,None,
,,,,70,0,70,0,,,,,,,,,,,,,,,,,,,,,,,,5656.85424949238,-9.0,4.560192465694118e-05,False,0.008896933315554634,None,None,0,,438.9707799000025,439.96807460000855,None,1,439.96807460000855,438.9707799000025,,,gtyzck,001,fr,200,2022-04-27_10h40.42.940,Bayesian,2022.1.1,None,
,,,,71,0,71,0,,,,,,,,,,,,,,,,,,,,,,,,203.0630990890589,1.0,0.0002910976221793013,False,0.0009924000187311321,0.18883980001555756,None,0,,443.61960130001535,444.62977359999786,None,1,444.62977359999786,443.61960130001535,,,gtyzck,001,fr,200,2022-04-27_10h40.42.940,Bayesian,2022.1.1,None,
,,,,72,0,72,0,,,,,,,,,,,,,,,,,,,,,,,,203.0630990890589,1.0,0.0002910976221793013,False,None,None,None,0,,None,None,None,1,None,None,,"{'estimation': [[125.0, 2.4384006065404575], [132.46175789471803, 2.0], [133.9716828170366, 1.9145180150117735], [143.5872943746293, 1.3800252127100887], [151.47671646771218, 1.0], [153.89305166811442, 0.8836725856316137], [164.93848884661162, 0.514133550478365], [176.77669529663666, 0.3554415058480893], [189.46457081379947, 0.49242116550403814], [203.06309908905865, 0.9988534582188637], [203.08087467698462, 1.0], [217.6376408240306, 1.9023672276089407], [218.79444650479505, 2.0], [230.8749118860657, 3.0], [233.25824788420132, 3.1873453416110324], [241.73029127772537, 4.0], [249.99999999999937, 4.7560416008215105], [252.50350481106722, 5.0], [262.7314356907078, 6.0], [267.94336563407256, 6.470443348652893], [273.93565711530977, 7.0], [285.56669592483297, 8.0], [287.1745887492579, 8.127790192476375], [299.8294207704816, 9.0], [307.78610333622805, 9.513778059941245], [319.0085362406268, 10.0], [329.87697769322244, 10.448735850642809], [353.55339059327247, 10.808184194933794], [378.929141627598, 10.581933006357279], [400.4552834790872, 10.0], [406.12619817811606, 9.849944632408539], [429.5944979918465, 9.0], [435.2752816480601, 8.799841735560463], [457.1456882403564, 8.0], [466.5164957684015, 7.667846502120748], [489.27289930834866, 7.0], [499.9999999999975, 6.693760051509344], [535.8867312681438, 6.0733532745574585], [551.8166321999414, 6.0], [574.3491774985151, 5.898771489811134], [589.2653687580864, 6.0], [615.5722066724546, 6.173910035084843], [659.7539553864432, 6.77469882689207], [673.5196720586255, 7.0], [707.1067811865431, 7.529967651613133], [741.2529791743256, 8.0], [757.8582832551941, 8.221370611295878], [812.2523963562301, 8.653733467188017], [870.5505632961181, 8.707874122736042], [933.0329915368008, 8.351265054659425], [965.0205352810301, 8.0], [999.9999999999926, 7.6362762698195255], [1048.8864429431235, 7.0], [1071.773462536285, 6.714371882770156], [1129.5046281811738, 6.0], [1148.698354997026, 5.770115939218243], [1229.9483937838932, 5.0], [1231.1444133449077, 4.988817863437872], [1319.5079107728832, 4.503785622989126], [1414.2135623730828, 4.376196147230005], [1515.7165665103846, 4.571815435531626], [1624.504792712458, 4.987398880831252], [1627.4705542783465, 5.0], [1741.1011265922318, 5.466217611438429], [1866.065983073597, 5.832745505899075], [1999.9999999999802, 5.948081623836477], [2143.5469250725646, 5.710482821000682], [2297.396709994046, 5.081347530293748], [2310.0799870589567, 5.0], [2462.2888266898062, 4.070353108031792], [2471.297606122631, 4.0], [2601.843382278747, 3.0], [2639.0158215457564, 2.732089957422551], [2724.996557020231, 2.0], [2828.427124746159, 1.154805188637976], [2846.433813502368, 1.0], [2960.3119851742094, 0.0], [3031.4331330207615, -0.5830117236589984], [3081.616709152444, -1.0], [3199.475106704135, -2.0], [3249.0095854249043, -2.387838042539487], [3328.800650866192, -3.0], [3458.5424734917806, -4.0], [3482.2022531844555, -4.169489969489155], [3605.2353955348917, -5.0], [3732.1319661471844, -5.837147026704223], [3761.8467913880227, -6.0], [3941.590961154628, -7.000000000000001], [3999.999999999946, -7.31123409020815], [4167.296384817748, -8.0], [4287.093850145118, -8.480049901770784], [4493.082570721632, -9.0], [4594.793419988076, -9.248489753213747], [4924.577653379601, -9.513043538912708], [5278.031643091506, -9.2067318485953], [5361.208104759933, -9.0], [5656.854249492303, -8.293277012180223], [5736.629961557184, -8.0], [6006.525298445742, -7.0], [6062.866266041501, -6.801536386970039], [6239.786612827144, -6.0], [6459.843233881931, -5.0], [6498.019170849792, -4.839947474263907], [6668.9505624017565, -4.0], [6868.210363719252, -3.0], [6964.404506368894, -2.569663458898008], [7084.904219087495, -2.0], [7284.483435419008, -1.0], [7464.2639322943505, -0.19744019135944538], [7513.041839030564, 0.0], [7742.704515697133, 1.0], [7982.321622236916, 2.0], [7999.999999999882, 2.067512769768274]], 'plus_line': [[125.0, -0.2743353799513967], [133.9716828170366, -0.7710757328881239], [137.56554998407142, -1.0], [143.5872943746293, -1.4066151548815495], [153.89305166811442, -1.970370119490009], [154.6787600205206, -2.0], [164.93848884661162, -2.4121081233812025], [176.77669529663666, -2.59404830372754], [189.46457081379947, -2.4764870175447307], [202.1996420159208, -2.0], [203.0630990890585, -1.9705597877529475], [217.6376408240306, -1.0761296280802233], [218.54638833809065, -1.0], [230.52173677902638, 0.0], [233.25824788420132, 0.22373585690380504], [241.4581108498437, 1.0], [249.99999999999937, 1.8527019883657696], [251.54276638789437, 2.0], [261.62589242876476, 3.0], [267.94336563407256, 3.635169972174941], [272.11698164766943, 4.0], [282.8745770572011, 5.0], [287.1745887492579, 5.3796288566798935], [295.9707173745811, 6.0], [307.78610333622805, 6.8505210752366565], [310.9591038797843, 7.000000000000001], [329.87697769322244, 7.836665321243463], [339.02607119302576, 8.0], [353.55339059327247, 8.221961923080372], [378.43396886524926, 8.0], [378.929141627598, 7.995039174721853], [406.12619817811606, 7.2237490592904186], [412.0387823698863, 7.0], [435.2752816480601, 6.143927724164843], [439.0579817973094, 6.0], [466.191436057803, 5.0], [466.5164957684015, 4.988386284569852], [499.5963813894555, 4.0], [499.9999999999975, 3.988194522384891], [535.8867312681438, 3.3225636641536953], [574.3491774985143, 3.134912647810115], [615.5722066724546, 3.3768430992850362], [659.7539553864424, 3.994334174494123], [660.0785217396649, 4.0], [707.1067811865431, 4.743850489697997], [724.0197914883792, 5.0], [757.8582832551941, 5.462969432986334], [812.2523963562301, 5.958314199745374], [832.9681654335371, 6.0], [870.5505632961181, 6.062044227254977], [882.6536701051227, 6.0], [933.0329915368008, 5.728230080959721], [999.9999999999926, 5.061106432052465], [1004.6706271335534, 5.0], [1071.773462536285, 4.145001862403182], [1083.207602716272, 4.0], [1148.698354997026, 3.1869439084160867], [1167.4809976045826, 3.0], [1231.1444133449063, 2.3625170731875857], [1292.9965916083522, 2.0], [1319.5079107728848, 1.8323877111175044], [1414.2135623730828, 1.6404357707466686], [1515.7165665103828, 1.794784912113375], [1569.6153568596694, 2.0], [1624.5047927124563, 2.1838309108762908], [1741.101126592234, 2.6345366886668558], [1859.3562357578473, 3.0], [1866.065983073597, 3.018439394854567], [1999.9999999999802, 3.1301481061535683], [2084.4770513710264, 3.0], [2143.5469250725646, 2.9008267997884354], [2297.396709994046, 2.284427632060691], [2343.759707583501, 2.0], [2462.2888266898062, 1.3010629507099787], [2501.2004618326187, 1.0], [2639.01582154576, 0.009965929249625471], [2640.1778164099874, 0.0], [2753.494929548276, -1.0], [2828.427124746159, -1.5676391149014244], [2876.3782730699595, -2.0], [2992.786364412415, -3.0000000000000004], [3031.4331330207615, -3.290448024045369], [3110.7002063941914, -4.0], [3237.7414068873104, -5.0], [3249.0095854249043, -5.08075397182044], [3358.2471675895267, -6.0], [3482.2022531844555, -6.880497987612579], [3499.1654566979087, -7.0], [3635.5613466350615, -8.0], [3732.1319661471844, -8.605191133886024], [3799.139976492365, -9.0], [3978.1064061782477, -10.0], [3999.9999999999554, -10.113789507933323], [4206.2423564380115, -11.0], [4287.093850145118, -11.324819271769869], [4565.727220684986, -12.000000000000002], [4594.793419988081, -12.071584666446192], [4924.577653379601, -12.315372964394983], [5228.033437922651, -12.0], [5278.031643091506, -11.955093650386242], [5656.854249492303, -11.041463492188116], [5668.766060008703, -11.0], [5950.772508768729, -10.0], [6062.866266041508, -9.593272246238755], [6206.044665907725, -9.0], [6417.098082157636, -8.0], [6498.019170849792, -7.63491285933038], [6640.9940131141275, -7.0], [6830.8503529671225, -6.0], [6964.404506368894, -5.318032470998844], [7039.643091875801, -5.0], [7245.614326098679, -4.0], [7433.166732935279, -3.0], [7464.2639322943505, -2.859686749560455], [7690.860281054546, -2.0], [7909.180670166215, -1.0], [7999.999999999892, -0.6226512260294712]], 'minus_line': [[125.0, 5.223770373994918], [128.34176998022141, 5.0], [133.9716828170366, 4.66997910660131], [143.5872943746293, 4.20232712915201], [148.19537316094215, 4.0], [153.89305166811442, 3.776550264967259], [164.93848884661162, 3.4432752626886094], [176.77669529663666, 3.2795596694739864], [189.46457081379947, 3.4144680359977047], [203.0630990890585, 3.9036904038674494], [204.57632801151084, 4.0], [217.6376408240306, 4.808008591011006], [219.91356035756323, 5.000000000000001], [232.40233190507684, 6.0], [233.25824788420132, 6.064346658199844], [242.81418611170184, 7.0], [249.99999999999937, 7.609414112641623], [253.95272714412044, 8.0], [264.64024350301355, 9.0], [267.94336563407256, 9.272179855107634], [276.04535056918496, 10.0], [287.1745887492579, 10.867576096822091], [289.0998145969895, 11.0], [304.0649109343998, 12.0], [307.78610333622805, 12.225521464087784], [326.6526726002134, 13.0], [329.87697769322244, 13.130426749416994], [353.55339059327247, 13.499837767114558], [378.929141627598, 13.27751616776036], [388.887661344357, 13.0], [406.12619817811606, 12.561021052257058], [421.5933012337148, 12.0], [435.2752816480601, 11.518186231647189], [449.4770578628443, 11.0], [466.5164957684015, 10.387456525108583], [479.57176417260814, 10.0], [499.9999999999975, 9.419236517733165], [523.7253416707872, 9.0], [535.8867312681438, 8.803588020709778], [574.3491774985143, 8.672744291884737], [615.5722066724546, 8.971901126684076], [617.5040444888185, 9.0], [659.753955386444, 9.63147313644825], [682.4326430267585, 10.0], [707.1067811865431, 10.407862303159897], [752.1582379418514, 11.0], [757.8582832551941, 11.077690010430988], [812.2523963562301, 11.498177739692377], [870.550563296117, 11.503704160372836], [933.0329915368008, 11.069056840165182], [938.5809365291776, 11.0], [999.9999999999926, 10.317647180970422], [1022.7602738585606, 10.0], [1071.773462536285, 9.358104234159093], [1099.550219829979, 9.0], [1148.698354997026, 8.39984663288553], [1189.925308625972, 8.0], [1231.1444133449063, 7.628903753516431], [1319.5079107728832, 7.184686127427168], [1414.2135623730828, 7.11583238214534], [1515.7165665103846, 7.393179231925143], [1624.5047927124563, 7.853317020329979], [1658.1483864634004, 8.0], [1741.1011265922318, 8.382893288627555], [1866.065983073597, 8.765664585467041], [1999.9999999999802, 8.878570798986162], [2143.5469250725646, 8.636788475196072], [2286.0616304462083, 8.0], [2297.396709994046, 7.953789819406391], [2445.2817478372585, 7.0], [2462.2888266898062, 6.895581501979348], [2577.288236838971, 6.0], [2639.01582154576, 5.520800525165614], [2701.6395355550753, 5.0], [2813.650147105668, 4.0], [2828.427124746159, 3.877848499056594], [2933.6048373914928, 3.0], [3031.4331330207615, 2.1110219240897696], [3045.800114849538, 2.0], [3168.140775983414, 1.0], [3249.0095854249043, 0.3051081618492604], [3292.2784100157305, 0.0], [3421.77601721271, -1.0], [3482.2022531844555, -1.4638091537798297], [3568.7756287728203, -2.0], [3714.4595175195386, -3.0], [3732.131966147189, -3.114172280598815], [3903.030573590315, -4.0], [3999.9999999999504, -4.5234385558717225], [4119.740488334299, -5.0], [4287.093850145118, -5.666693453625491], [4413.1488848470935, -6.0], [4594.7934199880865, -6.444021657118968], [4924.577653379601, -6.754815965285683], [5278.031643091506, -6.482466167667914], [5476.891478258156, -6.0], [5656.854249492303, -5.572220368548132], [5803.021425348681, -5.0], [6062.866266041508, -4.074604866724552], [6078.931974407627, -4.0], [6278.286598025309, -3.0], [6498.019170849792, -2.0931061629086827], [6516.880228250642, -2.0], [6700.132808414023, -1.0], [6922.310712345554, 0.0], [6964.404506368894, 0.16466293818420774], [7123.7299482713215, 1.0], [7331.072031744221, 2.0], [7464.2639322943505, 2.512965110181991], [7571.205618111294, 3.0], [7781.553797252197, 4.0], [7999.999999999882, 4.8211186994410555]]}",gtyzck,001,fr,200,2022-04-27_10h40.42.940,Bayesian,2022.1.1,None,
