frequencies,training_trials.thisRepN,training_trials.thisTrialN,training_trials.thisN,training_trials.thisIndex,frequencies.thisRepN,frequencies.thisTrialN,frequencies.thisN,frequencies.thisIndex,trials.thisRepN,trials.thisTrialN,trials.thisN,trials.thisIndex,tFrequency,tLevel,tCorrect,Tprobe.started,Tprobe.stopped,tTriangle_cue.started,tTriangle_cue.stopped,Tfeedback.keys,Tfeedback.corr,Tfeedback.rt,Tfeedback.started,Tfeedback.stopped,reversals_nTrials.routineEndVal,track_dir.routineEndVal,step_up.routineEndVal,Correct,Frequency,Level,Psychopy_Level,Direction,Reversals,Track_dir,Step,probe.started,probe.stopped,cross_cue.started,cross_cue.stopped,circle_cue.started,circle_cue.stopped,triangle_cue.started,triangle_cue.stopped,feedback.keys,feedback.corr,feedback.rt,feedback.started,feedback.stopped,memo.started,memo.stopped,key_resp.keys,key_resp.rt,key_resp.started,key_resp.stopped,text.started,text.stopped,participant,session,skip_training,language (english or french),date,expName,psychopyVersion,frameRate,
850,0,0,0,2,,,,,,,,,850,30,up,58.621753166491786,58.844517999794334,None,None,left,0,2.030272100120783,57.14307949994691,None,,,,,,,,,,,,,,,,,,,,,,,,,,,,,,,,,luctew,001,0,fr,2022-05-12_14h32.56.232,3-AFC_adaptive_staircase_mess,2022.1.1,34.76647702883622,
450,0,1,1,1,,,,,,,,,450,30,left,63.88474286656516,None,None,None,left,1,1.6345148000400513,63.40337059996091,None,,,,,,,,,,,,,,,,,,,,,,,,,,,,,,,,,luctew,001,0,fr,2022-05-12_14h32.56.232,3-AFC_adaptive_staircase_mess,2022.1.1,34.76647702883622,
1300,0,2,2,3,,,,,,,,,1300,30,left,69.09197446663553,None,None,None,left,1,1.07012420007959,68.63878159993328,None,,,,,,,,,,,,,,,,,,,,,,,,,,,,,,,,,luctew,001,0,fr,2022-05-12_14h32.56.232,3-AFC_adaptive_staircase_mess,2022.1.1,34.76647702883622,
5000,0,3,3,4,,,,,,,,,5000,30,up,73.59768196667234,None,None,None,up,1,2.031814099987969,72.11788429995067,None,,,,,,,,,,,,,,,,,,,,,,,,,,,,,,,,,luctew,001,0,fr,2022-05-12_14h32.56.232,3-AFC_adaptive_staircase_mess,2022.1.1,34.76647702883622,
200,0,4,4,0,,,,,,,,,200,30,right,78.69947796647126,None,78.6828112998046,79.02310459990986,right,1,3.1186554001178592,76.23828379996121,None,,,,,,,,,,,,,,,,,,,,,,,,,,,,,,,,,luctew,001,0,fr,2022-05-12_14h32.56.232,3-AFC_adaptive_staircase_mess,2022.1.1,34.76647702883622,
,,,,,0,0,0,0,0,0,0,0,,,,,,,,,,,,,[],[],10,right,1000,30,0.0013930605843148849,0,0,-1,10,97.07416726655016,None,95.0344115998596,95.34691169997677,96.04344099992886,96.36764969979413,97.02729639993049,97.36782659986056,right,1,2.801739700138569,95.06692819995806,None,97.57960409997031,None,,,,,,,luctew,001,0,fr,2022-05-12_14h32.56.232,3-AFC_adaptive_staircase_mess,2022.1.1,34.76647702883622,
,,,,,0,0,0,0,1,0,1,0,,,,,,,,,,,,,,,,up,1000,30,0.0013930605843148849,0,0,-1,10,100.4055653666767,None,99.3726729999762,99.70355219999328,100.38889870001003,100.73561129998416,None,None,up,1,1.5993821998126805,99.43910039984621,None,None,None,,,,,,,luctew,001,0,fr,2022-05-12_14h32.56.232,3-AFC_adaptive_staircase_mess,2022.1.1,34.76647702883622,
,,,,,0,0,0,0,2,0,2,0,,,,,,,,,,,,,,,,left,1000,10,0.00013930605843148847,-1,0,-1,-10,102.61080006655926,None,102.5941333998926,102.92063759989105,103.58924789982848,103.91995399980806,104.59723499999382,104.93993299989961,right,0,3.9654411000665277,102.62427479983307,None,105.1235901999753,None,,,,,,,luctew,001,0,fr,2022-05-12_14h32.56.232,3-AFC_adaptive_staircase_mess,2022.1.1,34.76647702883622,
,,,,,0,0,0,0,3,0,3,0,,,,,,,,,,,,,,,,left,1000,15,0.000247725095402395,1,1,1,5,108.13509586645911,None,108.08766219997779,108.43043879978359,109.09252019994892,109.40469729993492,110.09586779982783,110.42401059996337,left,1,2.857035599881783,108.14830349991098,None,110.65960779995658,None,,,,,,,luctew,001,0,fr,2022-05-12_14h32.56.232,3-AFC_adaptive_staircase_mess,2022.1.1,34.76647702883622,
,,,,,0,0,0,0,4,0,4,0,,,,,,,,,,,,,,,,left,1000,15,0.000247725095402395,1,1,1,5,112.55270616646546,None,112.53603949979879,112.87826979998499,113.5401754998602,113.8748503997922,114.53730009985156,114.8651742998045,left,1,2.8153782000299543,112.56573949987069,None,115.08379979990423,None,,,,,,,luctew,001,0,fr,2022-05-12_14h32.56.232,3-AFC_adaptive_staircase_mess,2022.1.1,34.76647702883622,
,,,,,0,0,0,0,5,0,5,0,,,,,,,,,,,,,,,,right,1000,5,7.833755350540742e-05,-1,2,-1,-5.0,118.94072826655271,None,116.91211109980941,117.2465415999759,117.9033079999499,118.23502909997478,118.89385679992847,119.23750379984267,left,0,3.087005899986252,116.9426819998771,None,119.44554320001043,None,,,,,,,luctew,001,0,fr,2022-05-12_14h32.56.232,3-AFC_adaptive_staircase_mess,2022.1.1,34.76647702883622,
,,,,,0,0,0,0,6,0,6,0,,,,,,,,,,,,,,,,left,1000,7.5,0.00010446480654270194,1,3,1,2.5,121.58487976651328,None,121.53579599992372,121.87469919980504,122.52798839984462,122.86320509994403,123.54307899996638,123.87722759996541,right,0,3.19115660013631,121.59874449996278,None,124.09070139983669,None,,,,,,,luctew,001,0,fr,2022-05-12_14h32.56.232,3-AFC_adaptive_staircase_mess,2022.1.1,34.76647702883622,
,,,,,0,0,0,0,7,0,7,0,,,,,,,,,,,,,,,,left,1000,10.0,0.00013930605843148847,1,3,1,2.5,126.33837806649196,None,126.32171139982529,126.65661019994877,127.30221679992974,127.63456549984403,128.31773659982719,128.649500799831,up,0,3.56341139995493,126.35304229985923,None,128.86333189997822,None,,,,,,,luctew,001,0,fr,2022-05-12_14h32.56.232,3-AFC_adaptive_staircase_mess,2022.1.1,34.76647702883622,
,,,,,0,0,0,0,8,0,8,0,,,,,,,,,,,,,,,,up,1000,12.5,0.0001857676145485862,1,3,1,2.5,132.49310586654272,None,131.45588259981014,131.78789779986255,132.44579199980944,132.77925359993242,133.42969329981133,None,up,1,2.0706426999531686,131.48727459996007,None,None,None,,,,,,,luctew,001,0,fr,2022-05-12_14h32.56.232,3-AFC_adaptive_staircase_mess,2022.1.1,34.76647702883622,
,,,,,0,0,0,0,9,0,9,0,,,,,,,,,,,,,,,,up,1000,12.5,0.0001857676145485862,1,3,1,2.5,136.11361146654625,None,135.09840399981476,135.42941099987365,136.09694479987957,136.44031219999306,137.09698779997416,137.42500289995223,left,0,2.957365599926561,135.12753659998998,None,137.63203099998645,None,,,,,,,luctew,001,0,fr,2022-05-12_14h32.56.232,3-AFC_adaptive_staircase_mess,2022.1.1,34.76647702883622,
,,,,,0,0,0,0,10,0,10,0,,,,,,,,,,,,,,,,right,1000,15.0,0.000247725095402395,1,3,1,2.5,141.63588496653054,None,139.5952153999824,139.9308312998619,140.57794989994727,140.9109781999141,141.58879399998114,141.92385689984076,right,1,2.648311800090596,139.62900779978372,None,142.1346423998475,None,,,,,,,luctew,001,0,fr,2022-05-12_14h32.56.232,3-AFC_adaptive_staircase_mess,2022.1.1,34.76647702883622,
,,,,,0,0,0,0,11,0,11,0,,,,,,,,,,,,,,,,right,1000,15.0,0.000247725095402395,1,3,1,2.5,145.83571476658497,None,143.8057476999238,144.12566419993527,144.80153399985284,145.14099929993972,145.78983339993283,146.12801339989528,right,1,2.5301757999695837,143.86717260000296,None,146.36947759985924,None,,,,,,,luctew,001,0,fr,2022-05-12_14h32.56.232,3-AFC_adaptive_staircase_mess,2022.1.1,34.76647702883622,
,,,,,0,0,0,0,12,0,12,0,,,,,,,,,,,,,,,,left,1000,10.0,0.00013930605843148847,-1,4,-1,-5.0,147.96075706655782,None,147.89982749987394,148.2189053997863,148.89788679988123,149.21605059993453,149.91037559998222,150.23889659997076,left,1,3.0306980998720974,147.97499419981614,None,150.4512429998722,None,,,,,,,luctew,001,0,fr,2022-05-12_14h32.56.232,3-AFC_adaptive_staircase_mess,2022.1.1,34.76647702883622,
,,,,,0,0,0,0,13,0,13,0,,,,,,,,,,,,,,,,up,1000,10.0,0.00013930605843148847,-1,4,-1,-5.0,153.58825806650955,None,152.57902199984528,152.9068605999928,153.5387897999026,153.87776699988171,154.553362299921,154.87459059990942,up,1,3.2181991999968886,152.61014000000432,None,155.0917706999462,None,,,,,,,luctew,001,0,fr,2022-05-12_14h32.56.232,3-AFC_adaptive_staircase_mess,2022.1.1,34.76647702883622,
,,,,,0,0,0,0,14,0,14,0,,,,,,,,,,,,,,,,left,1000,5.0,7.833755350540742e-05,-1,4,-1,-5.0,157.39856946660828,None,157.3819027999416,157.72219399991445,158.3698851999361,158.69174869987182,159.38385169999674,159.72637209994718,right,0,2.931164399953559,157.41031239996664,None,159.9117822998669,None,,,,,,,luctew,001,0,fr,2022-05-12_14h32.56.232,3-AFC_adaptive_staircase_mess,2022.1.1,34.76647702883622,
,,,,,0,0,0,0,15,0,15,0,,,,,,,,,,,,,,,,right,1000,7.5,0.00010446480654270194,1,5,1,2.5,163.89955986646626,None,161.87540159979835,162.20378699991852,162.86257899994962,163.19678989984095,163.85053699999116,164.19756609993055,right,1,2.8761122999712825,161.9048571998719,None,164.41109889978543,None,,,,,,,luctew,001,0,fr,2022-05-12_14h32.56.232,3-AFC_adaptive_staircase_mess,2022.1.1,34.76647702883622,
,,,,,0,0,0,0,16,0,16,0,,,,,,,,,,,,,,,,right,1000,7.5,0.00010446480654270194,1,5,1,2.5,168.35267126659554,None,166.320319699822,166.666108999867,167.3170754997991,167.64653889997862,168.3025934000034,168.61507850000635,right,1,3.015390400076285,166.34985549980775,None,168.85404869983904,None,,,,,,,luctew,001,0,fr,2022-05-12_14h32.56.232,3-AFC_adaptive_staircase_mess,2022.1.1,34.76647702883622,
,,,,,0,0,0,0,17,0,17,0,,,,,,,,,,,,,,,,left,1000,2.5,5.874487774697646e-05,-1,6,-1,-5.0,170.92855716665898,None,170.88104319991544,171.22178989998065,171.87280949996784,172.20655209990218,172.87338119978085,173.20638989983127,left,1,3.049677300034091,170.9399979999289,None,173.42523949989118,None,,,,,,,luctew,001,0,fr,2022-05-12_14h32.56.232,3-AFC_adaptive_staircase_mess,2022.1.1,34.76647702883622,
,,,,,1,0,1,0,0,0,0,0,,,,,,,,,,,,,[],[],10,left,1500,30,0.001527460556607757,0,0,-1,10,177.9619205664533,178.18836469994858,177.91248599998653,178.25002689985558,178.91176589997485,179.24503379990347,None,None,left,1,1.691273899981752,177.97951019997708,None,None,None,space,2.342058999929577,175.0786462998949,None,175.0786462998949,None,luctew,001,0,fr,2022-05-12_14h32.56.232,3-AFC_adaptive_staircase_mess,2022.1.1,34.76647702883622,
,,,,,1,0,1,0,1,0,1,0,,,,,,,,,,,,,,,,right,1500,30,0.001527460556607757,0,0,-1,10,183.2615696665055,None,181.20465719979256,181.5342643999029,182.21931359986775,182.55280329985544,183.20384949981235,183.52273069997318,right,1,2.7022059001028538,181.2630552998744,None,183.76965809985995,None,,,,,,,luctew,001,0,fr,2022-05-12_14h32.56.232,3-AFC_adaptive_staircase_mess,2022.1.1,34.76647702883622,
,,,,,1,0,1,0,2,0,2,0,,,,,,,,,,,,,,,,up,1500,10,0.0001527460556607757,-1,0,-1,-10,186.52861266659264,None,185.4937953997869,185.81874789996073,186.51194599992596,186.82275139982812,187.49418999999762,None,up,1,2.125802000053227,185.55147399986163,None,None,None,,,,,,,luctew,001,0,fr,2022-05-12_14h32.56.232,3-AFC_adaptive_staircase_mess,2022.1.1,34.76647702883622,
,,,,,1,0,1,0,3,0,3,0,,,,,,,,,,,,,,,,right,1500,10,0.0001527460556607757,-1,0,-1,-10,191.21238386660505,None,189.1961804998573,189.524186699884,190.1869557998143,190.52607819996774,191.19571719993837,191.52869869978167,right,1,2.9325570000801235,189.2251461998094,None,191.73980999994092,None,,,,,,,luctew,001,0,fr,2022-05-12_14h32.56.232,3-AFC_adaptive_staircase_mess,2022.1.1,34.76647702883622,
,,,,,1,0,1,0,4,0,4,0,,,,,,,,,,,,,,,,up,1500,0,4.830254394949071e-05,-1,0,-1,-10,194.69707146665704,None,193.67584609985352,194.00384219991975,194.64746109978296,194.9830882998649,195.66561889997683,195.99642949993722,up,1,2.85484980000183,193.70286089996807,None,196.21033309982158,None,,,,,,,luctew,001,0,fr,2022-05-12_14h32.56.232,3-AFC_adaptive_staircase_mess,2022.1.1,34.76647702883622,
,,,,,1,0,1,0,5,0,5,0,,,,,,,,,,,,,,,,right,1500,0,4.830254394949071e-05,-1,0,-1,-10,200.12656306667876,None,198.0680314998608,198.39909469988197,199.07977139996365,199.3994081998244,200.0789647998754,200.41027689981274,right,1,3.0153914000838995,198.13388879993,None,200.62259469996206,None,,,,,,,luctew,001,0,fr,2022-05-12_14h32.56.232,3-AFC_adaptive_staircase_mess,2022.1.1,34.76647702883622,
,,,,,1,0,1,0,6,0,6,0,,,,,,,,,,,,,,,,up,1500,-10,1.527460556607758e-05,-1,0,-1,-10,203.7207527666508,None,202.67112670000643,202.99030269985087,203.67146889981814,203.98437849991024,204.65813379990868,204.9925219998695,up,1,2.9165543001145124,202.73699909984134,None,205.24557739985175,None,,,,,,,luctew,001,0,fr,2022-05-12_14h32.56.232,3-AFC_adaptive_staircase_mess,2022.1.1,34.76647702883622,
,,,,,1,0,1,0,7,0,7,0,,,,,,,,,,,,,,,,right,1500,-10,1.527460556607758e-05,-1,0,-1,-10,209.22915186646085,209.4571406999603,207.183044699952,207.50943350000307,208.18590949987993,208.5193329998292,209.1794338999316,209.51991769997403,right,1,3.1381791001185775,207.2116062999703,None,209.73288129991852,None,,,,,,,luctew,001,0,fr,2022-05-12_14h32.56.232,3-AFC_adaptive_staircase_mess,2022.1.1,34.76647702883622,
,,,,,1,0,1,0,8,0,8,0,,,,,,,,,,,,,,,,up,1500,-20,4.8302543949490704e-06,-1,0,-1,-10,212.900014366551,213.1290078999009,211.8612875000108,212.18348619993776,212.8481557997875,213.18947579991072,213.85116849979386,214.18328639981337,up,1,4.590854899957776,211.91827289992943,None,214.40276919980533,None,,,,,,,luctew,001,0,fr,2022-05-12_14h32.56.232,3-AFC_adaptive_staircase_mess,2022.1.1,34.76647702883622,
,,,,,1,0,1,0,9,0,9,0,,,,,,,,,,,,,,,,up,1500,-20,4.8302543949490704e-06,-1,0,-1,-10,219.0802141666102,None,218.045391399879,218.38616929994896,219.03311660001054,219.35901649994776,220.0215321998112,220.35477390000597,right,0,3.818787300027907,218.0747374999337,None,220.59137319982983,None,,,,,,,luctew,001,0,fr,2022-05-12_14h32.56.232,3-AFC_adaptive_staircase_mess,2022.1.1,34.76647702883622,
,,,,,1,0,1,0,10,0,10,0,,,,,,,,,,,,,,,,up,1500,-15,8.589541935787946e-06,1,1,1,5,224.43948656652745,None,223.40545239998028,223.72702279989608,224.39252469991334,224.73337149992585,225.3956085999962,225.72762299980968,left,0,3.474318299908191,223.43492229981348,None,225.96394859999418,None,,,,,,,luctew,001,0,fr,2022-05-12_14h32.56.232,3-AFC_adaptive_staircase_mess,2022.1.1,34.76647702883622,
,,,,,1,0,1,0,11,0,11,0,,,,,,,,,,,,,,,,left,1500,-10,1.527460556607758e-05,1,1,1,5,228.47576106648583,None,228.42853219993412,228.7694801997859,229.44125389982946,229.77135229995474,230.4471752999816,230.7745089000091,right,0,3.292663599830121,228.48826009989716,None,230.98598150000907,None,,,,,,,luctew,001,0,fr,2022-05-12_14h32.56.232,3-AFC_adaptive_staircase_mess,2022.1.1,34.76647702883622,
,,,,,1,0,1,0,12,0,12,0,,,,,,,,,,,,,,,,up,1500,-5,2.716251657462168e-05,1,1,1,5,234.35637816653278,None,233.32257119985297,233.65057719987817,234.31074259988964,234.64658589987084,235.3249976998195,235.67174209980294,left,0,2.9525647999253124,233.38143899990246,None,235.8852043999359,None,,,,,,,luctew,001,0,fr,2022-05-12_14h32.56.232,3-AFC_adaptive_staircase_mess,2022.1.1,34.76647702883622,
,,,,,1,0,1,0,13,0,13,0,,,,,,,,,,,,,,,,right,1500,0,4.830254394949071e-05,1,1,1,5,239.87747766665805,None,237.8599707998801,238.20716929994524,238.86249009985477,239.1769270999357,239.86081099999137,240.1756595999468,right,1,5.0672508999705315,237.8888500998728,None,240.4104534999933,None,,,,,,,luctew,001,0,fr,2022-05-12_14h32.56.232,3-AFC_adaptive_staircase_mess,2022.1.1,34.76647702883622,
,,,,,1,0,1,0,14,0,14,0,,,,,,,,,,,,,,,,up,1500,0,4.830254394949071e-05,1,1,1,5,245.52995926660176,None,244.47865539998747,244.8019705999177,245.48066409979947,245.82359379995614,246.47589409979992,246.79979249997996,left,0,3.381984200095758,244.53485059994273,None,247.0373905999586,None,,,,,,,luctew,001,0,fr,2022-05-12_14h32.56.232,3-AFC_adaptive_staircase_mess,2022.1.1,34.76647702883622,
,,,,,1,0,1,0,15,0,15,0,,,,,,,,,,,,,,,,up,1500,5,8.589541935787943e-05,1,1,1,5,250.46703236649435,None,249.43483309983276,249.76139319990762,250.41990649979562,250.73595259990543,251.4339967998676,251.76456129993312,up,1,2.8447510001715273,249.4645676999353,None,251.97132149990648,None,,,,,,,luctew,001,0,fr,2022-05-12_14h32.56.232,3-AFC_adaptive_staircase_mess,2022.1.1,34.76647702883622,
,,,,,1,0,1,0,16,0,16,0,,,,,,,,,,,,,,,,up,1500,5,8.589541935787943e-05,1,1,1,5,254.87750486663234,None,253.8323307998944,254.16332569997758,254.82750519993715,255.16685869987123,255.81178499991074,256.1282644998282,up,1,2.9120180997997522,253.86079939990304,None,256.3722716998309,None,,,,,,,luctew,001,0,fr,2022-05-12_14h32.56.232,3-AFC_adaptive_staircase_mess,2022.1.1,34.76647702883622,
,,,,,1,0,1,0,17,0,17,0,,,,,,,,,,,,,,,,left,1500,-5,2.716251657462168e-05,-1,2,-1,-5.0,258.3398953665203,None,258.2894735999871,258.61062209983356,259.28917749994434,259.6347264999058,260.3061791998334,260.6380296999123,left,1,3.3376613000873476,258.35518740001135,None,260.84074189979583,None,,,,,,,luctew,001,0,fr,2022-05-12_14h32.56.232,3-AFC_adaptive_staircase_mess,2022.1.1,34.76647702883622,
,,,,,1,0,1,0,18,0,18,0,,,,,,,,,,,,,,,,left,1500,-5,2.716251657462168e-05,-1,2,-1,-5.0,263.2553189665234,263.4775642999448,263.2046217999887,263.54173469985835,264.20274759992026,264.51655599987134,265.1918656998314,265.5187252999749,right,0,4.669881399953738,263.27104879985563,None,265.7569867998827,None,,,,,,,luctew,001,0,fr,2022-05-12_14h32.56.232,3-AFC_adaptive_staircase_mess,2022.1.1,34.76647702883622,
,,,,,1,0,1,0,19,0,19,0,,,,,,,,,,,,,,,,left,1500,-2.5,3.622179800374953e-05,1,3,1,2.5,269.49801896658414,None,269.4472955998499,269.7841960999649,270.4529303999152,270.78964549978264,271.4473503998015,271.7819869997911,up,0,3.790322999935597,269.5108172998298,None,272.018462699838,None,,,,,,,luctew,001,0,fr,2022-05-12_14h32.56.232,3-AFC_adaptive_staircase_mess,2022.1.1,34.76647702883622,
,,,,,1,0,1,0,20,0,20,0,,,,,,,,,,,,,,,,right,1500,0.0,4.830254394949071e-05,1,3,1,2.5,276.87359016650976,None,274.82027399982326,275.1540748998523,275.8256284999661,276.16472729993984,276.8205346998293,277.14821059978567,up,0,2.809427100000903,274.89083439996466,None,277.3657509998884,None,,,,,,,luctew,001,0,fr,2022-05-12_14h32.56.232,3-AFC_adaptive_staircase_mess,2022.1.1,34.76647702883622,
,,,,,1,0,1,0,21,0,21,0,,,,,,,,,,,,,,,,up,1500,2.5,6.441247758465671e-05,1,3,1,2.5,280.2785371665998,None,279.22921679983847,279.54305469989777,280.23020669980906,280.55552329984494,281.24249569978565,281.57591559994034,right,0,4.199112699832767,279.2937134997919,None,281.784796099877,None,,,,,,,luctew,001,0,fr,2022-05-12_14h32.56.232,3-AFC_adaptive_staircase_mess,2022.1.1,34.76647702883622,
,,,,,1,0,1,0,22,0,22,0,,,,,,,,,,,,,,,,up,1500,5.0,8.589541935787943e-05,1,3,1,2.5,286.07414756651656,None,285.0291883999016,285.35917979991063,286.0574808998499,286.39039399987087,287.0295388000086,287.3666906999424,left,0,3.064809300005436,285.09366439981386,None,287.59891689987853,None,,,,,,,luctew,001,0,fr,2022-05-12_14h32.56.232,3-AFC_adaptive_staircase_mess,2022.1.1,34.76647702883622,
,,,,,1,0,1,0,23,0,23,0,,,,,,,,,,,,,,,,up,1500,7.5,0.00011454338263838867,1,3,1,2.5,290.71634906653003,None,289.66554019995965,289.9993031998165,290.66995639982633,291.009009399917,291.66244739992544,291.9995389999822,left,0,2.6158073998522013,289.7330369998235,None,292.21157199982554,None,,,,,,,luctew,001,0,fr,2022-05-12_14h32.56.232,3-AFC_adaptive_staircase_mess,2022.1.1,34.76647702883622,
,,,,,1,0,1,0,24,0,24,0,,,,,,,,,,,,,,,,up,1500,10.0,0.0001527460556607757,1,3,1,2.5,294.9215222665264,295.1433234999422,293.88322889991105,294.2021999999415,294.8707114998251,295.20808489993215,295.87523070001043,296.2083902999293,right,0,2.946698199957609,293.9137255998794,None,296.4401717998553,None,,,,,,,luctew,001,0,fr,2022-05-12_14h32.56.232,3-AFC_adaptive_staircase_mess,2022.1.1,34.76647702883622,
,,,,,1,0,1,0,25,0,25,0,,,,,,,,,,,,,,,,left,1500,12.5,0.0002036901389020564,1,3,1,2.5,298.4082635665002,None,298.35951549978927,298.67509259982035,299.36901079979725,299.7040232999716,300.37270989990793,300.70526399998926,left,1,2.8246803998481482,298.4201275999658,None,300.9176449999213,None,,,,,,,luctew,001,0,fr,2022-05-12_14h32.56.232,3-AFC_adaptive_staircase_mess,2022.1.1,34.76647702883622,
,,,,,1,0,1,0,26,0,26,0,,,,,,,,,,,,,,,,right,1500,12.5,0.0002036901389020564,1,3,1,2.5,304.77965336648435,None,302.74236479983665,303.07547259982675,303.73258849978447,304.0768957999535,304.733470399864,305.08000809978694,right,1,2.70056359982118,302.8077882998623,None,305.3018238998484,None,,,,,,,luctew,001,0,fr,2022-05-12_14h32.56.232,3-AFC_adaptive_staircase_mess,2022.1.1,34.76647702883622,
,,,,,1,0,1,0,27,0,27,0,,,,,,,,,,,,,,,,left,1500,7.5,0.00011454338263838867,-1,4,-1,-5.0,307.09342896665135,None,307.0457323999144,307.3834996998776,308.04739309987053,308.3696577998344,309.06632360001095,309.3819697999861,up,0,3.0877111998852342,307.10992179997265,None,309.59839840000495,None,,,,,,,luctew,001,0,fr,2022-05-12_14h32.56.232,3-AFC_adaptive_staircase_mess,2022.1.1,34.76647702883622,
,,,,,1,0,1,0,28,0,28,0,,,,,,,,,,,,,,,,right,1500,10.0,0.0001527460556607757,1,5,1,2.5,313.75186366663934,None,311.71278800000437,312.0513591999188,312.71789239998907,313.0398768999148,313.70559589983895,314.05278959986754,right,1,2.986379599897191,311.7704519999679,None,314.273990099784,None,,,,,,,luctew,001,0,fr,2022-05-12_14h32.56.232,3-AFC_adaptive_staircase_mess,2022.1.1,34.76647702883622,
,,,,,1,0,1,0,29,0,29,0,,,,,,,,,,,,,,,,up,1500,10.0,0.0001527460556607757,1,5,1,2.5,317.288613466608,None,316.26623329985887,316.58647959982045,317.27194679994136,317.58827979979105,318.25178839988075,318.59237399999984,left,0,3.005525599932298,316.2944488998037,None,318.8124468999449,None,,,,,,,luctew,001,0,fr,2022-05-12_14h32.56.232,3-AFC_adaptive_staircase_mess,2022.1.1,34.76647702883622,
,,,,,1,0,1,0,30,0,30,0,,,,,,,,,,,,,,,,right,1500,12.5,0.0002036901389020564,1,5,1,2.5,322.87753236649246,None,320.824404399842,321.1399172998499,321.827368499944,322.1588234999217,322.82757609989494,323.1396554999519,right,1,2.7618552001658827,320.8916763998568,None,323.39701509987935,None,,,,,,,luctew,001,0,fr,2022-05-12_14h32.56.232,3-AFC_adaptive_staircase_mess,2022.1.1,34.76647702883622,
,,,,,1,0,1,0,31,0,31,0,,,,,,,,,,,,,,,,up,1500,12.5,0.0002036901389020564,1,5,1,2.5,326.21692346648,None,325.158681999892,325.49892379995435,326.16741209989414,326.49870979995467,327.149320866509,None,up,1,1.8910989998839796,325.2188156999182,None,None,None,,,,,,,luctew,001,0,fr,2022-05-12_14h32.56.232,3-AFC_adaptive_staircase_mess,2022.1.1,34.76647702883622,
,,,,,1,0,1,0,32,0,32,0,,,,,,,,,,,,,,,,left,1500,7.5,0.00011454338263838867,-1,6,-1,-5.0,328.68320596666695,None,328.63538379990496,328.9622519998811,329.6470795997884,329.9708007997833,330.62490849988535,330.969659099821,left,1,3.1053280998021364,328.699455199996,None,331.1966918997932,None,,,,,,,luctew,001,0,fr,2022-05-12_14h32.56.232,3-AFC_adaptive_staircase_mess,2022.1.1,34.76647702883622,
,,,,,2,0,2,0,0,0,0,0,,,,,,,,,,,,,[],[],10,left,2000,30,0.0023657562948074026,0,0,-1,10,338.8948995664871,339.1259587998502,338.8428909999784,339.15708859986626,None,None,None,None,left,1,0.7650657000485808,338.9123144999612,None,None,None,space,5.503004099940881,332.8701361999847,None,332.8701361999847,None,luctew,001,0,fr,2022-05-12_14h32.56.232,3-AFC_adaptive_staircase_mess,2022.1.1,34.76647702883622,
,,,,,2,0,2,0,1,0,1,0,,,,,,,,,,,,,,,,right,2000,30,0.0023657562948074026,0,0,-1,10,343.2062055664758,None,341.18319639982656,341.51334679988213,342.1899833998177,342.52481819991954,343.1895388998091,343.52593409991823,right,1,2.5091533998493105,341.215432099998,None,343.7287643000018,None,,,,,,,luctew,001,0,fr,2022-05-12_14h32.56.232,3-AFC_adaptive_staircase_mess,2022.1.1,34.76647702883622,
,,,,,2,0,2,0,2,0,2,0,,,,,,,,,,,,,,,,right,2000,10,0.00023657562948074026,-1,0,-1,-10,347.27576116664954,None,345.2235852999147,345.55721849994734,346.22588709997945,346.5594386998564,347.22494799993,347.5411531999707,right,1,2.9686827999539673,345.291807499947,None,347.79089259984903,None,,,,,,,luctew,001,0,fr,2022-05-12_14h32.56.232,3-AFC_adaptive_staircase_mess,2022.1.1,34.76647702883622,
,,,,,2,0,2,0,3,0,3,0,,,,,,,,,,,,,,,,right,2000,10,0.00023657562948074026,-1,0,-1,-10,351.8094795665859,None,349.7612433999311,350.09382849978283,350.75502479984425,351.08855669992045,351.7590028999839,352.10003809980117,right,1,2.8832461999263614,349.8261342998594,None,352.3264879998751,None,,,,,,,luctew,001,0,fr,2022-05-12_14h32.56.232,3-AFC_adaptive_staircase_mess,2022.1.1,34.76647702883622,
,,,,,2,0,2,0,4,0,4,0,,,,,,,,,,,,,,,,up,2000,0,7.481178280472168e-05,-1,0,-1,-10,355.28225616651275,None,354.226482299855,354.5572278997861,355.2328274999745,355.5688164997846,356.22669279994443,356.5672741997987,right,0,2.9349461998790503,354.2937882998958,None,356.78950269985944,None,,,,,,,luctew,001,0,fr,2022-05-12_14h32.56.232,3-AFC_adaptive_staircase_mess,2022.1.1,34.76647702883622,
,,,,,2,0,2,0,5,0,5,0,,,,,,,,,,,,,,,,right,2000,5,0.0001330362529899405,1,1,1,5,360.77861626662,None,358.7359852998052,359.06990689993836,359.7330396999605,360.07015169993974,360.7310869998764,361.07658869982697,right,1,2.8416402000002563,358.80292409984395,None,361.29227189999074,None,,,,,,,luctew,001,0,fr,2022-05-12_14h32.56.232,3-AFC_adaptive_staircase_mess,2022.1.1,34.76647702883622,
,,,,,2,0,2,0,6,0,6,0,,,,,,,,,,,,,,,,left,2000,5,0.0001330362529899405,1,1,1,5,363.22213806660534,None,363.2054713999387,363.5348954999354,364.1988494999241,364.5354580997955,365.2080422998406,365.5379129999783,left,1,3.110609000083059,363.23798349988647,None,365.7618438999634,None,,,,,,,luctew,001,0,fr,2022-05-12_14h32.56.232,3-AFC_adaptive_staircase_mess,2022.1.1,34.76647702883622,
,,,,,2,0,2,0,7,0,7,0,,,,,,,,,,,,,,,,left,2000,-5,4.206975708225974e-05,-1,2,-1,-5.0,367.92417406646223,368.1518134998623,367.8745716998819,368.2142909998074,368.874196899822,369.20978629984893,369.86709109996445,370.2158369999379,up,0,2.9429636001586914,367.9409751999192,None,370.43495239992626,None,,,,,,,luctew,001,0,fr,2022-05-12_14h32.56.232,3-AFC_adaptive_staircase_mess,2022.1.1,34.76647702883622,
,,,,,2,0,2,0,8,0,8,0,,,,,,,,,,,,,,,,left,2000,-2.5,5.610092271509818e-05,1,3,1,2.5,372.43308336666473,None,372.3834532999899,372.71226769988425,373.4084076997824,373.75159569992684,374.4037353999447,374.7523703998886,right,0,2.995805999962613,372.4501972999424,None,374.94235479994677,None,,,,,,,luctew,001,0,fr,2022-05-12_14h32.56.232,3-AFC_adaptive_staircase_mess,2022.1.1,34.76647702883622,
,,,,,2,0,2,0,9,0,9,0,,,,,,,,,,,,,,,,up,2000,0.0,7.481178280472168e-05,1,3,1,2.5,377.99231756647737,None,376.9500970998779,377.28319359989837,377.942151799798,378.25758639979176,378.9603009999264,379.2935525998473,left,0,3.3804058998357505,377.0173539998941,None,379.5092229999136,None,,,,,,,luctew,001,0,fr,2022-05-12_14h32.56.232,3-AFC_adaptive_staircase_mess,2022.1.1,34.76647702883622,
,,,,,2,0,2,0,10,0,10,0,,,,,,,,,,,,,,,,left,2000,2.5,9.976311574844399e-05,1,3,1,2.5,381.92424366652654,None,381.8773649998475,382.1968753999099,382.8878113999963,383.2201902999077,383.890859299805,384.22056689998135,right,0,2.9073059000074863,381.9378316998482,None,384.4318668998312,None,,,,,,,luctew,001,0,fr,2022-05-12_14h32.56.232,3-AFC_adaptive_staircase_mess,2022.1.1,34.76647702883622,
,,,,,2,0,2,0,11,0,11,0,,,,,,,,,,,,,,,,left,2000,5.0,0.0001330362529899405,1,3,1,2.5,386.4139911665736,None,386.3658645998221,386.69072559988126,387.3629655998666,387.6806231997907,388.3931392999366,388.7261324999854,left,1,3.8072325999382883,386.42891399981454,None,388.9368334999308,None,,,,,,,luctew,001,0,fr,2022-05-12_14h32.56.232,3-AFC_adaptive_staircase_mess,2022.1.1,34.76647702883622,
,,,,,2,0,2,0,12,0,12,0,,,,,,,,,,,,,,,,right,2000,5.0,0.0001330362529899405,1,3,1,2.5,393.81390546664284,None,391.77005209983326,392.10523059987463,392.77083069994114,393.10352379991673,393.763943299884,394.1149903999176,left,0,3.3764515998773277,391.8034410998225,None,394.3076180999633,None,,,,,,,luctew,001,0,fr,2022-05-12_14h32.56.232,3-AFC_adaptive_staircase_mess,2022.1.1,34.76647702883622,
,,,,,2,0,2,0,13,0,13,0,,,,,,,,,,,,,,,,up,2000,7.5,0.00017740669461678777,1,3,1,2.5,397.72032976645664,None,396.68324429984204,397.01935999980196,397.70366309979,398.02483359980397,398.6877958998084,399.026480600005,right,0,3.199656599899754,396.7418777998537,None,399.2421064998489,None,,,,,,,luctew,001,0,fr,2022-05-12_14h32.56.232,3-AFC_adaptive_staircase_mess,2022.1.1,34.76647702883622,
,,,,,2,0,2,0,14,0,14,0,,,,,,,,,,,,,,,,up,2000,10.0,0.00023657562948074026,1,3,1,2.5,402.476600866594,None,401.428045099834,401.7645757999271,402.4303474999033,402.7485207999125,403.4461908999365,403.78213319997303,up,1,2.9645849999506027,401.4876848999411,None,403.99633129988797,None,,,,,,,luctew,001,0,fr,2022-05-12_14h32.56.232,3-AFC_adaptive_staircase_mess,2022.1.1,34.76647702883622,
,,,,,2,0,2,0,15,0,15,0,,,,,,,,,,,,,,,,left,2000,10.0,0.00023657562948074026,1,3,1,2.5,406.0105271666,None,405.99386049993336,406.3064113999717,406.97308739996515,407.2893147999421,407.9803944998421,408.31431009992957,right,0,2.9286444999743253,406.0282571997959,None,408.5218384999316,None,,,,,,,luctew,001,0,fr,2022-05-12_14h32.56.232,3-AFC_adaptive_staircase_mess,2022.1.1,34.76647702883622,
,,,,,2,0,2,0,16,0,16,0,,,,,,,,,,,,,,,,right,2000,12.5,0.00031547867224009665,1,3,1,2.5,412.4910443665615,None,410.45518069993705,410.786064399872,411.47156659979373,411.8108297998551,412.47437769989483,412.81359559996054,right,1,2.8649607999250293,410.5164535997901,None,413.0293458998203,None,,,,,,,luctew,001,0,fr,2022-05-12_14h32.56.232,3-AFC_adaptive_staircase_mess,2022.1.1,34.76647702883622,
,,,,,2,0,2,0,17,0,17,0,,,,,,,,,,,,,,,,up,2000,12.5,0.00031547867224009665,1,3,1,2.5,415.9328010664942,None,414.9191109999083,415.2630782998167,415.91613439982757,416.2547685999889,None,None,up,1,1.6571567000355572,414.9476769999601,None,None,None,,,,,,,luctew,001,0,fr,2022-05-12_14h32.56.232,3-AFC_adaptive_staircase_mess,2022.1.1,34.76647702883622,
,,,,,2,0,2,0,18,0,18,0,,,,,,,,,,,,,,,,up,2000,7.5,0.00017740669461678777,-1,4,-1,-5.0,419.14831796667227,None,418.1180621997919,418.4483022999484,419.1024557999335,419.436093499884,420.0972786999773,420.4308958998881,up,1,2.8239096999168396,418.1497895999346,None,420.6681125999894,None,,,,,,,luctew,001,0,fr,2022-05-12_14h32.56.232,3-AFC_adaptive_staircase_mess,2022.1.1,34.76647702883622,
,,,,,2,0,2,0,19,0,19,0,,,,,,,,,,,,,,,,left,2000,7.5,0.00017740669461678777,-1,4,-1,-5.0,422.53659836651445,None,422.5199316998478,422.85831019980833,423.51420399989,423.8472781998571,424.50349879986607,424.84146709996276,up,0,2.9453865999821573,422.5554002998397,None,425.05585010000505,None,,,,,,,luctew,001,0,fr,2022-05-12_14h32.56.232,3-AFC_adaptive_staircase_mess,2022.1.1,34.76647702883622,
,,,,,2,0,2,0,20,0,20,0,,,,,,,,,,,,,,,,up,2000,10.0,0.00023657562948074026,1,5,1,2.5,428.05937016645134,None,427.01375239994377,427.3539408999495,428.0071894999128,428.3488961998373,None,None,up,1,1.7913661999627948,427.0855165999383,None,None,None,,,,,,,luctew,001,0,fr,2022-05-12_14h32.56.232,3-AFC_adaptive_staircase_mess,2022.1.1,34.76647702883622,
,,,,,2,0,2,0,21,0,21,0,,,,,,,,,,,,,,,,left,2000,10.0,0.00023657562948074026,1,5,1,2.5,430.41041966650323,None,430.3937529998366,430.7292864997871,None,None,None,None,left,1,0.7647716999053955,430.42505689989775,None,None,None,,,,,,,luctew,001,0,fr,2022-05-12_14h32.56.232,3-AFC_adaptive_staircase_mess,2022.1.1,34.76647702883622,
,,,,,2,0,2,0,22,0,22,0,,,,,,,,,,,,,,,,up,2000,5.0,0.0001330362529899405,-1,6,-1,-5.0,433.77340176661187,None,432.7372530999128,433.0715155999642,433.7265228999313,434.06273289979436,434.74888450000435,435.08332129986957,up,1,3.2472247001715004,432.7659658999182,None,435.2910670998972,None,,,,,,,luctew,001,0,fr,2022-05-12_14h32.56.232,3-AFC_adaptive_staircase_mess,2022.1.1,34.76647702883622,
,,,,,3,0,3,0,0,0,0,0,,,,,,,,,,,,,[],[],10,right,3000,30,0.001733684252262658,0,0,-1,10,443.84713986661905,None,441.8341676997952,442.17420729994774,442.8147185998969,443.1482549998909,443.8090115999803,444.1484718997963,right,1,2.6524507999420166,441.8652650997974,None,444.363585999934,None,space,4.207134800031781,437.09398969984613,None,437.09398969984613,None,luctew,001,0,fr,2022-05-12_14h32.56.232,3-AFC_adaptive_staircase_mess,2022.1.1,34.76647702883622,
,,,,,3,0,3,0,1,0,1,0,,,,,,,,,,,,,,,,up,3000,30,0.001733684252262658,0,0,-1,10,447.06911016657637,None,446.03884009993635,446.37544249999337,447.0202020998113,447.33184689981863,None,None,up,1,1.7336086998693645,446.07114149979316,None,None,None,,,,,,,luctew,001,0,fr,2022-05-12_14h32.56.232,3-AFC_adaptive_staircase_mess,2022.1.1,34.76647702883622,
,,,,,3,0,3,0,2,0,2,0,,,,,,,,,,,,,,,,up,3000,10,0.00017336842522626576,-1,0,-1,-10,450.3612715665406,None,449.3407803999726,449.6776097000111,450.34460489987396,450.664440699853,451.3397597000003,None,up,1,2.18614639993757,449.371333199786,None,None,None,,,,,,,luctew,001,0,fr,2022-05-12_14h32.56.232,3-AFC_adaptive_staircase_mess,2022.1.1,34.76647702883622,
,,,,,3,0,3,0,3,0,3,0,,,,,,,,,,,,,,,,up,3000,10,0.00017336842522626576,-1,0,-1,-10,454.1376635665695,454.36937639978714,453.1078382998239,453.4572272999212,454.0879727997817,454.429444699781,None,None,up,1,1.5881711998954415,453.1366762998514,None,None,None,,,,,,,luctew,001,0,fr,2022-05-12_14h32.56.232,3-AFC_adaptive_staircase_mess,2022.1.1,34.76647702883622,
,,,,,3,0,3,0,4,0,4,0,,,,,,,,,,,,,,,,up,3000,0,5.482390980715923e-05,-1,0,-1,-10,457.2705900665062,None,456.24822399998084,456.57409099978395,457.25392339983955,457.5895181999076,458.2585991998203,458.5910166997928,up,1,3.3308872000779957,456.3056853997987,None,458.8044556998648,None,,,,,,,luctew,001,0,fr,2022-05-12_14h32.56.232,3-AFC_adaptive_staircase_mess,2022.1.1,34.76647702883622,
,,,,,3,0,3,0,5,0,5,0,,,,,,,,,,,,,,,,left,3000,0,5.482390980715923e-05,-1,0,-1,-10,461.1791155664871,None,461.16244889982045,461.4959356999025,None,None,None,None,left,1,0.8851332000922412,461.1918848999776,None,None,None,,,,,,,luctew,001,0,fr,2022-05-12_14h32.56.232,3-AFC_adaptive_staircase_mess,2022.1.1,34.76647702883622,
,,,,,3,0,3,0,6,0,6,0,,,,,,,,,,,,,,,,right,3000,-10,1.7336842522626584e-05,-1,0,-1,-10,465.62747706665346,None,463.5873955998104,463.9258530999068,464.6005461998284,464.9322993999813,465.6108103999868,465.93216109997593,right,1,2.9965258999727666,463.6483285999857,None,466.1489967999514,None,,,,,,,luctew,001,0,fr,2022-05-12_14h32.56.232,3-AFC_adaptive_staircase_mess,2022.1.1,34.76647702883622,
,,,,,3,0,3,0,7,0,7,0,,,,,,,,,,,,,,,,up,3000,-10,1.7336842522626584e-05,-1,0,-1,-10,469.2202372665672,None,468.18214319995604,468.50979779986665,469.17017399985343,469.48271509981714,470.16859309980646,470.4898322999943,left,0,2.8728692999575287,468.21149669983424,None,470.7079564000014,None,,,,,,,luctew,001,0,fr,2022-05-12_14h32.56.232,3-AFC_adaptive_staircase_mess,2022.1.1,34.76647702883622,
,,,,,3,0,3,0,8,0,8,0,,,,,,,,,,,,,,,,up,3000,-5,3.082975009307411e-05,1,1,1,5,473.6353926666236,None,472.60936909983866,472.94918060000055,473.61872599995695,473.94283329998143,474.63106179982424,474.9754429999739,left,0,3.4213982000947,472.67925109993666,None,475.17627989989705,None,,,,,,,luctew,001,0,fr,2022-05-12_14h32.56.232,3-AFC_adaptive_staircase_mess,2022.1.1,34.76647702883622,
,,,,,3,0,3,0,9,0,9,0,,,,,,,,,,,,,,,,left,3000,0,5.482390980715923e-05,1,1,1,5,477.67903816659623,None,477.6304034998175,477.9460957997944,478.657397700008,478.98001349996775,479.65454739984125,479.9821752998978,left,1,2.873625800013542,477.69142709998414,None,480.21763779991306,None,,,,,,,luctew,001,0,fr,2022-05-12_14h32.56.232,3-AFC_adaptive_staircase_mess,2022.1.1,34.76647702883622,
,,,,,3,0,3,0,10,0,10,0,,,,,,,,,,,,,,,,up,3000,0,5.482390980715923e-05,1,1,1,5,483.13364146656045,None,482.0929898999166,482.4219354998786,483.08289699978195,483.4312792997807,484.08859439985827,484.41758929984644,right,0,2.9812280000187457,482.15146859991364,None,484.6335593999829,None,,,,,,,luctew,001,0,fr,2022-05-12_14h32.56.232,3-AFC_adaptive_staircase_mess,2022.1.1,34.76647702883622,
,,,,,3,0,3,0,11,0,11,0,,,,,,,,,,,,,,,,up,3000,5,9.749222998790222e-05,1,1,1,5,487.67763916665376,None,486.67791039985605,487.0214509998914,487.6609724999871,487.9914911999367,None,None,up,1,1.8894124999642372,486.70661349990405,None,None,None,,,,,,,luctew,001,0,fr,2022-05-12_14h32.56.232,3-AFC_adaptive_staircase_mess,2022.1.1,34.76647702883622,
,,,,,3,0,3,0,12,0,12,0,,,,,,,,,,,,,,,,left,3000,5,9.749222998790222e-05,1,1,1,5,490.1284818666211,None,490.08220389997587,490.39673519995995,491.09205209999345,None,None,None,left,1,1.0188420999329537,490.1387598000001,None,None,None,,,,,,,luctew,001,0,fr,2022-05-12_14h32.56.232,3-AFC_adaptive_staircase_mess,2022.1.1,34.76647702883622,
,,,,,3,0,3,0,13,0,13,0,,,,,,,,,,,,,,,,right,3000,-5,3.082975009307411e-05,-1,2,-1,-5.0,494.7155312665893,None,492.6739552000072,493.002571699908,493.67252889997326,494.0044658998959,494.66487989993766,494.9950261998456,right,1,3.1331419001799077,492.7034648999106,None,495.2145727998577,None,,,,,,,luctew,001,0,fr,2022-05-12_14h32.56.232,3-AFC_adaptive_staircase_mess,2022.1.1,34.76647702883622,
,,,,,3,0,3,0,14,0,14,0,,,,,,,,,,,,,,,,left,3000,-5,3.082975009307411e-05,-1,2,-1,-5.0,497.3660988666272,None,497.3494321999606,497.6658075999003,498.358097899938,498.70118470001034,499.354044099804,499.6660525999032,left,1,3.2091242000460625,497.3789866999723,None,499.904776299838,None,,,,,,,luctew,001,0,fr,2022-05-12_14h32.56.232,3-AFC_adaptive_staircase_mess,2022.1.1,34.76647702883622,
,,,,,3,0,3,0,15,0,15,0,,,,,,,,,,,,,,,,right,3000,-10.0,1.7336842522626584e-05,-1,2,-1,-5.0,504.1937993665381,None,502.13557319995016,502.46693199989386,503.14003049978055,503.48229799978435,504.1428936999291,504.4588363999501,left,0,3.3974568999838084,502.1989245999139,None,504.71354869985953,None,,,,,,,luctew,001,0,fr,2022-05-12_14h32.56.232,3-AFC_adaptive_staircase_mess,2022.1.1,34.76647702883622,
,,,,,3,0,3,0,16,0,16,0,,,,,,,,,,,,,,,,left,3000,-7.5,2.3119051069963017e-05,1,3,1,2.5,507.1680858666698,None,507.11472029984,507.45129429991357,508.12011579982936,508.45495659997687,509.12103229993954,509.45917859999463,left,1,2.8358058999292552,507.1842150997836,None,509.6863609999418,None,,,,,,,luctew,001,0,fr,2022-05-12_14h32.56.232,3-AFC_adaptive_staircase_mess,2022.1.1,34.76647702883622,
,,,,,3,0,3,0,17,0,17,0,,,,,,,,,,,,,,,,up,3000,-7.5,2.3119051069963017e-05,1,3,1,2.5,512.5696105666614,None,511.560051899869,511.9127470999956,512.5529438999947,512.8795941998251,513.5362377997953,513.8683271999471,up,1,2.922747900011018,511.59363539982587,None,514.1058878998738,None,,,,,,,luctew,001,0,fr,2022-05-12_14h32.56.232,3-AFC_adaptive_staircase_mess,2022.1.1,34.76647702883622,
,,,,,3,0,3,0,18,0,18,0,,,,,,,,,,,,,,,,right,3000,-12.5,1.300079781582636e-05,-1,4,-1,-5.0,518.0751712665117,None,516.01821010001,516.3583395997994,517.0436302998569,517.3790808999911,518.0253921998665,518.328151299851,left,0,4.214917700039223,516.09306069999,None,518.5677853999659,None,,,,,,,luctew,001,0,fr,2022-05-12_14h32.56.232,3-AFC_adaptive_staircase_mess,2022.1.1,34.76647702883622,
,,,,,3,0,3,0,19,0,19,0,,,,,,,,,,,,,,,,left,3000,-10.0,1.7336842522626584e-05,1,5,1,2.5,521.854857266477,None,521.8381905998103,522.1650625998154,522.8343840998132,523.1679249999579,523.8128531998955,524.1544203998055,right,0,3.6134049999527633,521.871625599917,None,524.3939668999519,None,,,,,,,luctew,001,0,fr,2022-05-12_14h32.56.232,3-AFC_adaptive_staircase_mess,2022.1.1,34.76647702883622,
,,,,,3,0,3,0,20,0,20,0,,,,,,,,,,,,,,,,left,3000,-7.5,2.3119051069963017e-05,1,5,1,2.5,527.0499365665639,None,526.9998913998716,527.3457531998865,528.0050288999919,528.3394376998767,529.0059667997994,529.3390496999491,right,0,3.135305400006473,527.0693043998908,None,529.5750798999798,None,,,,,,,luctew,001,0,fr,2022-05-12_14h32.56.232,3-AFC_adaptive_staircase_mess,2022.1.1,34.76647702883622,
,,,,,3,0,3,0,21,0,21,0,,,,,,,,,,,,,,,,left,3000,-5.0,3.082975009307411e-05,1,5,1,2.5,531.7597969666278,531.9896234998014,531.7082578998525,532.049011599971,532.7082658999134,533.0445108998101,533.7087960999925,534.043558599893,left,1,3.349830500083044,531.773932499811,None,534.2787355999462,None,,,,,,,luctew,001,0,fr,2022-05-12_14h32.56.232,3-AFC_adaptive_staircase_mess,2022.1.1,34.76647702883622,
,,,,,3,0,3,0,22,0,22,0,,,,,,,,,,,,,,,,right,3000,-5.0,3.082975009307411e-05,1,5,1,2.5,538.6972849665365,None,536.6444495997857,536.9786401998717,537.6502296999097,537.9833310998511,538.6494864998385,538.9903341999743,up,0,2.8356230999343097,536.7133814999834,None,539.2173440998886,None,,,,,,,luctew,001,0,fr,2022-05-12_14h32.56.232,3-AFC_adaptive_staircase_mess,2022.1.1,34.76647702883622,
,,,,,3,0,3,0,23,0,23,0,,,,,,,,,,,,,,,,right,3000,-2.5,4.1112132497353565e-05,1,5,1,2.5,543.1051611665791,None,541.0864144999068,541.4185128998943,542.0865466999821,542.419733399991,543.0884944999125,543.4179220998194,left,0,3.198324400000274,541.1186243998818,None,543.6215566999745,None,,,,,,,luctew,001,0,fr,2022-05-12_14h32.56.232,3-AFC_adaptive_staircase_mess,2022.1.1,34.76647702883622,
,,,,,3,0,3,0,24,0,24,0,,,,,,,,,,,,,,,,left,3000,0.0,5.482390980715923e-05,1,5,1,2.5,545.8726029666761,None,545.8243606998585,546.1633665999398,546.825564699946,547.1575699998066,547.8237190998625,None,left,1,1.9684101999737322,545.8920542998239,None,None,None,,,,,,,luctew,001,0,fr,2022-05-12_14h32.56.232,3-AFC_adaptive_staircase_mess,2022.1.1,34.76647702883622,
,,,,,3,0,3,0,25,0,25,0,,,,,,,,,,,,,,,,up,3000,0.0,5.482390980715923e-05,1,5,1,2.5,550.4458787665392,None,549.3935684999451,549.7290680999868,550.3926356998272,550.7266667999793,551.3965604999103,551.7297861999832,left,0,2.96989389997907,549.4597308998927,None,551.9655725997873,None,,,,,,,luctew,001,0,fr,2022-05-12_14h32.56.232,3-AFC_adaptive_staircase_mess,2022.1.1,34.76647702883622,
,,,,,3,0,3,0,26,0,26,0,,,,,,,,,,,,,,,,up,3000,2.5,7.310885872283589e-05,1,5,1,2.5,554.966830366586,555.1985839998815,553.9300913999323,554.261078499956,554.9501636999194,555.2968448998872,None,None,up,1,1.7738574999384582,553.9990402997937,None,None,None,,,,,,,luctew,001,0,fr,2022-05-12_14h32.56.232,3-AFC_adaptive_staircase_mess,2022.1.1,34.76647702883622,
,,,,,3,0,3,0,27,0,27,0,,,,,,,,,,,,,,,,up,3000,2.5,7.310885872283589e-05,1,5,1,2.5,558.3221431666209,None,557.3033298999071,557.6375572998077,558.3054764999542,558.646759999916,559.3041020999663,559.6414973998908,up,1,2.9470531998667866,557.3376374999061,None,559.8422552999109,None,,,,,,,luctew,001,0,fr,2022-05-12_14h32.56.232,3-AFC_adaptive_staircase_mess,2022.1.1,34.76647702883622,
,,,,,3,0,3,0,28,0,28,0,,,,,,,,,,,,,,,,left,3000,-2.5,4.1112132497353565e-05,-1,6,-1,-5.0,561.8586974666143,None,561.8420307999477,562.1817168998532,562.8389682997949,563.1803006997798,563.8419099999592,564.1766523998231,up,0,2.833143299911171,561.8749203998595,None,564.3794729998335,None,,,,,,,luctew,001,0,fr,2022-05-12_14h32.56.232,3-AFC_adaptive_staircase_mess,2022.1.1,34.76647702883622,
,,,,,4,0,4,0,0,0,0,0,,,,,,,,,,,,,[],[],10,right,4000,30,0.0026544222211549416,0,0,-1,10,577.5422082665066,None,575.5212964999955,575.8541426998563,576.4909180998802,576.8248449999373,577.4930545999669,577.8336695998441,right,1,2.625689100008458,575.5562906998675,None,578.0626329998486,None,space,9.226491500157863,565.7790957000107,None,565.7790957000107,None,luctew,001,0,fr,2022-05-12_14h32.56.232,3-AFC_adaptive_staircase_mess,2022.1.1,34.76647702883622,
,,,,,4,0,4,0,1,0,1,0,,,,,,,,,,,,,,,,left,4000,30,0.0026544222211549416,0,0,-1,10,579.7421538665114,None,579.6933988998644,580.035171699943,None,None,None,None,left,1,0.715730199823156,579.762260499876,None,None,None,,,,,,,luctew,001,0,fr,2022-05-12_14h32.56.232,3-AFC_adaptive_staircase_mess,2022.1.1,34.76647702883622,
,,,,,4,0,4,0,2,0,2,0,,,,,,,,,,,,,,,,left,4000,10,0.00026544222211549425,-1,0,-1,-10,582.0455915665409,None,581.9954323999118,582.3079936997965,None,None,None,None,left,1,0.5861041001044214,582.0659535999876,None,None,None,,,,,,,luctew,001,0,fr,2022-05-12_14h32.56.232,3-AFC_adaptive_staircase_mess,2022.1.1,34.76647702883622,
,,,,,4,0,4,0,3,0,3,0,,,,,,,,,,,,,,,,left,4000,10,0.00026544222211549425,-1,0,-1,-10,584.2173366665995,None,584.165790699888,584.5083011998795,None,None,None,None,left,1,0.5676448999438435,584.2368373998906,None,None,None,,,,,,,luctew,001,0,fr,2022-05-12_14h32.56.232,3-AFC_adaptive_staircase_mess,2022.1.1,34.76647702883622,
,,,,,4,0,4,0,4,0,4,0,,,,,,,,,,,,,,,,up,4000,0,8.394020090612804e-05,-1,0,-1,-10,None,None,586.3116494999267,586.6489307999145,None,None,None,None,left,0,0.7861909000203013,586.3779819000047,None,None,None,,,,,,,luctew,001,0,fr,2022-05-12_14h32.56.232,3-AFC_adaptive_staircase_mess,2022.1.1,34.76647702883622,
,,,,,4,0,4,0,5,0,5,0,,,,,,,,,,,,,,,,left,4000,5,0.00014926913094589803,1,1,1,5,588.7215296666293,None,588.6717493999749,589.0137724999804,None,None,None,None,left,1,0.6503353000152856,588.7380335999187,None,None,None,,,,,,,luctew,001,0,fr,2022-05-12_14h32.56.232,3-AFC_adaptive_staircase_mess,2022.1.1,34.76647702883622,
,,,,,4,0,4,0,6,0,6,0,,,,,,,,,,,,,,,,right,4000,5,0.00014926913094589803,1,1,1,5,None,None,590.9034901999403,591.2382125000004,591.8947585998103,None,None,None,left,0,0.9382242998108268,590.9696829000022,None,None,None,,,,,,,luctew,001,0,fr,2022-05-12_14h32.56.232,3-AFC_adaptive_staircase_mess,2022.1.1,34.76647702883622,
,,,,,4,0,4,0,7,0,7,0,,,,,,,,,,,,,,,,right,4000,10,0.00026544222211549425,1,1,1,5,595.4708079666054,None,593.4442258998752,593.7666521999054,594.4308053997811,594.7668480998836,595.4250354999676,595.7719052999746,right,1,2.914614300010726,593.4744913999457,None,596.0027983000036,None,,,,,,,luctew,001,0,fr,2022-05-12_14h32.56.232,3-AFC_adaptive_staircase_mess,2022.1.1,34.76647702883622,
,,,,,4,0,4,0,8,0,8,0,,,,,,,,,,,,,,,,right,4000,10,0.00026544222211549425,1,1,1,5,599.9467170665196,None,597.911241899943,598.2385110999458,598.8970359999221,599.2401567997877,599.9008660998661,600.2431638999842,right,1,2.936302399961278,597.9410152998753,None,600.4619721998461,None,,,,,,,luctew,001,0,fr,2022-05-12_14h32.56.232,3-AFC_adaptive_staircase_mess,2022.1.1,34.76647702883622,
,,,,,4,0,4,0,9,0,9,0,,,,,,,,,,,,,,,,right,4000,0,8.394020090612804e-05,-1,2,-1,-5.0,604.463193366599,604.6885761998128,602.4391089999117,602.7678976999596,603.438976699952,603.7798494999297,604.4102568000089,604.7502805998083,right,1,2.845077200094238,602.4721575998701,None,604.9804699998349,None,,,,,,,luctew,001,0,fr,2022-05-12_14h32.56.232,3-AFC_adaptive_staircase_mess,2022.1.1,34.76647702883622,
,,,,,4,0,4,0,10,0,10,0,,,,,,,,,,,,,,,,left,4000,0,8.394020090612804e-05,-1,2,-1,-5.0,606.8642683665423,None,606.8152649998665,607.1540014999919,607.8105554999784,None,None,None,left,1,1.1148389999289066,606.8822207998019,None,None,None,,,,,,,luctew,001,0,fr,2022-05-12_14h32.56.232,3-AFC_adaptive_staircase_mess,2022.1.1,34.76647702883622,
,,,,,4,0,4,0,11,0,11,0,,,,,,,,,,,,,,,,up,4000,-5.0,4.720304381429618e-05,-1,2,-1,-5.0,610.5683179665978,None,609.5252247999888,609.8511917998549,610.5180012998171,610.8580777999014,611.5165411999915,611.8526742998511,up,1,3.2645030999556184,609.5556995999068,None,612.08679319988,None,,,,,,,luctew,001,0,fr,2022-05-12_14h32.56.232,3-AFC_adaptive_staircase_mess,2022.1.1,34.76647702883622,
,,,,,4,0,4,0,12,0,12,0,,,,,,,,,,,,,,,,left,4000,-5.0,4.720304381429618e-05,-1,2,-1,-5.0,614.370541066459,None,614.3212089999579,614.6605524998158,615.31922999979,615.6309118999634,616.3188351998106,616.6535777999088,right,0,2.8338141997810453,614.3865414999891,None,616.8666204998735,None,,,,,,,luctew,001,0,fr,2022-05-12_14h32.56.232,3-AFC_adaptive_staircase_mess,2022.1.1,34.76647702883622,
,,,,,4,0,4,0,13,0,13,0,,,,,,,,,,,,,,,,right,4000,-2.5,6.294627058970837e-05,1,3,1,2.5,620.7763813664826,None,618.7222963999957,619.0369374998845,619.7261361998972,620.0640401998535,620.7266632998362,621.0676247999072,right,1,2.863591799978167,618.788438799791,None,621.2975565998349,None,,,,,,,luctew,001,0,fr,2022-05-12_14h32.56.232,3-AFC_adaptive_staircase_mess,2022.1.1,34.76647702883622,
,,,,,4,0,4,0,14,0,14,0,,,,,,,,,,,,,,,,up,4000,-2.5,6.294627058970837e-05,1,3,1,2.5,624.2171546666107,None,623.1655911998823,623.4981052998919,624.1673134998418,624.5043866999913,625.1672357998323,625.5014578998089,up,1,3.0013383999466896,623.2354152000044,None,625.7339008999988,None,,,,,,,luctew,001,0,fr,2022-05-12_14h32.56.232,3-AFC_adaptive_staircase_mess,2022.1.1,34.76647702883622,
,,,,,4,0,4,0,15,0,15,0,,,,,,,,,,,,,,,,left,4000,-7.5,3.53972892192069e-05,-1,4,-1,-5.0,627.7846541666115,628.0122207999229,627.7347819998395,628.0758553999476,628.736090199789,629.0739133998286,629.7457996997982,630.0757571998984,up,0,3.201442899880931,627.8026204998605,None,630.2729584998451,None,,,,,,,luctew,001,0,fr,2022-05-12_14h32.56.232,3-AFC_adaptive_staircase_mess,2022.1.1,34.76647702883622,
,,,,,4,0,4,0,16,0,16,0,,,,,,,,,,,,,,,,left,4000,-5.0,4.720304381429618e-05,1,5,1,2.5,632.5291785665943,None,632.5125118999276,632.8358696999494,633.508450599853,633.8447279999964,None,None,left,1,1.679505799897015,632.5414964999072,None,None,None,,,,,,,luctew,001,0,fr,2022-05-12_14h32.56.232,3-AFC_adaptive_staircase_mess,2022.1.1,34.76647702883622,
,,,,,4,0,4,0,17,0,17,0,,,,,,,,,,,,,,,,right,4000,-5.0,4.720304381429618e-05,1,5,1,2.5,637.7940783666602,None,635.7563278998714,636.0803689998575,636.7424021998886,637.0806820997968,637.7435760998633,638.0878084998112,left,0,3.0099957999773324,635.7870856998488,None,638.3071760998573,None,,,,,,,luctew,001,0,fr,2022-05-12_14h32.56.232,3-AFC_adaptive_staircase_mess,2022.1.1,34.76647702883622,
,,,,,4,0,4,0,18,0,18,0,,,,,,,,,,,,,,,,left,4000,-2.5,6.294627058970837e-05,1,5,1,2.5,640.3629774666081,640.5917934000026,640.313919799868,640.6578163998201,641.3139267999213,641.6506395000033,642.3084964998998,642.6522959999274,right,0,3.9682664999272674,640.3802092999686,None,642.8851279998198,None,,,,,,,luctew,001,0,fr,2022-05-12_14h32.56.232,3-AFC_adaptive_staircase_mess,2022.1.1,34.76647702883622,
,,,,,4,0,4,0,19,0,19,0,,,,,,,,,,,,,,,,up,4000,0.0,8.394020090612804e-05,1,5,1,2.5,646.9019476664873,None,645.8597296997905,646.1874165998306,646.8522502998821,647.1918473998085,647.8550924998708,648.191552599892,up,1,2.28583180019632,645.8943750998005,None,None,None,,,,,,,luctew,001,0,fr,2022-05-12_14h32.56.232,3-AFC_adaptive_staircase_mess,2022.1.1,34.76647702883622,
,,,,,4,0,4,0,20,0,20,0,,,,,,,,,,,,,,,,right,4000,0.0,8.394020090612804e-05,1,5,1,2.5,651.7084016665506,None,649.6882395998109,650.0212533997837,650.6880741999485,651.0207655997947,651.6917349998839,652.026234399993,right,1,2.8266413998790085,649.7544919999782,None,652.2579469999764,None,,,,,,,luctew,001,0,fr,2022-05-12_14h32.56.232,3-AFC_adaptive_staircase_mess,2022.1.1,34.76647702883622,
,,,,,4,0,4,0,21,0,21,0,,,,,,,,,,,,,,,,right,4000,-5.0,4.720304381429618e-05,-1,6,-1,-5.0,656.1347346665027,None,654.0982816999312,654.4294411998708,655.0996906999499,655.4313307998236,656.0855500998441,656.4029408998322,left,0,3.016768499976024,654.1646359998267,None,656.6638985997997,None,,,,,,,luctew,001,0,fr,2022-05-12_14h32.56.232,3-AFC_adaptive_staircase_mess,2022.1.1,34.76647702883622,
,,,,,5,0,5,0,0,0,0,0,,,,,,,,,,,,,[],[],10,up,6000,30,0.003664122665694519,0,0,-1,10,665.5193796666028,665.7493521999568,664.4710882999934,664.8045712998137,665.4701714999974,665.812220999971,None,None,up,1,1.7551313999574631,664.5375755999703,None,None,None,space,5.717489599948749,658.2632660998497,None,658.2632660998497,None,luctew,001,0,fr,2022-05-12_14h32.56.232,3-AFC_adaptive_staircase_mess,2022.1.1,34.76647702883622,
,,,,,5,0,5,0,1,0,1,0,,,,,,,,,,,,,,,,up,6000,30,0.003664122665694519,0,0,-1,10,668.8570916664942,None,667.8086756998673,668.1418835998047,668.8404249998275,669.178285599919,None,None,up,1,1.5054361999500543,667.8763714998495,None,None,None,,,,,,,luctew,001,0,fr,2022-05-12_14h32.56.232,3-AFC_adaptive_staircase_mess,2022.1.1,34.76647702883622,
,,,,,5,0,5,0,2,0,2,0,,,,,,,,,,,,,,,,left,6000,10,0.00036641226656945183,-1,0,-1,-10,670.9380713664616,None,670.921404699795,671.2493109998759,None,None,None,None,left,1,0.7080414998345077,670.9516160998028,None,None,None,,,,,,,luctew,001,0,fr,2022-05-12_14h32.56.232,3-AFC_adaptive_staircase_mess,2022.1.1,34.76647702883622,
,,,,,5,0,5,0,3,0,3,0,,,,,,,,,,,,,,,,left,6000,10,0.00036641226656945183,-1,0,-1,-10,673.2392084666683,None,673.1917274999432,673.519517699955,None,None,None,None,left,1,0.49533489998430014,673.2531540999189,None,None,None,,,,,,,luctew,001,0,fr,2022-05-12_14h32.56.232,3-AFC_adaptive_staircase_mess,2022.1.1,34.76647702883622,
,,,,,5,0,5,0,4,0,4,0,,,,,,,,,,,,,,,,left,6000,0,0.00011586973249842387,-1,0,-1,-10,675.3323759665402,None,675.2837513999548,675.6005800999701,676.287255599862,None,None,None,left,1,1.1023675000760704,675.3494261999149,None,None,None,,,,,,,luctew,001,0,fr,2022-05-12_14h32.56.232,3-AFC_adaptive_staircase_mess,2022.1.1,34.76647702883622,
,,,,,5,0,5,0,5,0,5,0,,,,,,,,,,,,,,,,left,6000,0,0.00011586973249842387,-1,0,-1,-10,678.0092976666676,None,677.992631000001,678.3242549998686,678.9924235998187,679.3239193998743,679.9787319998723,680.3176808999851,right,0,2.9141042998526245,678.0261395999696,None,680.5344230998307,None,,,,,,,luctew,001,0,fr,2022-05-12_14h32.56.232,3-AFC_adaptive_staircase_mess,2022.1.1,34.76647702883622,
,,,,,5,0,5,0,6,0,6,0,,,,,,,,,,,,,,,,up,6000,5,0.000206048759548665,1,1,1,5,683.5031617666284,683.7285919999704,682.440631999867,682.7738417999353,683.4533289999235,683.7918102999683,None,None,up,1,1.5994775998406112,682.5014982998837,None,None,None,,,,,,,luctew,001,0,fr,2022-05-12_14h32.56.232,3-AFC_adaptive_staircase_mess,2022.1.1,34.76647702883622,
,,,,,5,0,5,0,7,0,7,0,,,,,,,,,,,,,,,,left,6000,5,0.000206048759548665,1,1,1,5,685.6739049666251,None,685.6276328999083,685.9633541000076,None,None,None,None,left,1,0.6207094001583755,685.6875501999166,None,None,None,,,,,,,luctew,001,0,fr,2022-05-12_14h32.56.232,3-AFC_adaptive_staircase_mess,2022.1.1,34.76647702883622,
,,,,,5,0,5,0,8,0,8,0,,,,,,,,,,,,,,,,left,6000,-5,6.515833892261494e-05,-1,2,-1,-5.0,687.8685299666288,None,687.8217609999701,688.1605297999922,None,None,None,None,left,1,0.8746233000420034,687.8815993999597,None,None,None,,,,,,,luctew,001,0,fr,2022-05-12_14h32.56.232,3-AFC_adaptive_staircase_mess,2022.1.1,34.76647702883622,
,,,,,5,0,5,0,9,0,9,0,,,,,,,,,,,,,,,,left,6000,-5,6.515833892261494e-05,-1,2,-1,-5.0,690.3158565664819,None,690.2691298997961,690.610682199942,691.2814383998048,691.6274895998649,692.267607799964,692.6046143998392,right,0,2.9479765000287443,690.3294282997958,None,692.8180179998744,None,,,,,,,luctew,001,0,fr,2022-05-12_14h32.56.232,3-AFC_adaptive_staircase_mess,2022.1.1,34.76647702883622,
,,,,,5,0,5,0,10,0,10,0,,,,,,,,,,,,,,,,right,6000,-2.5,8.689004143746872e-05,1,3,1,2.5,696.8029532666008,None,694.7758902998175,695.0894974998664,695.7704597997945,696.1109341999982,696.7559485000093,697.0712121999823,right,1,3.055436599999666,694.8051214998122,None,697.312111799838,None,,,,,,,luctew,001,0,fr,2022-05-12_14h32.56.232,3-AFC_adaptive_staircase_mess,2022.1.1,34.76647702883622,
,,,,,5,0,5,0,11,0,11,0,,,,,,,,,,,,,,,,left,6000,-2.5,8.689004143746872e-05,1,3,1,2.5,699.4112900666116,None,699.3515071999282,699.6721902999561,700.3864988998976,700.7036756000016,701.3687613999937,701.7162990998477,left,1,2.83603010000661,699.4249220998026,None,701.9134568998124,None,,,,,,,luctew,001,0,fr,2022-05-12_14h32.56.232,3-AFC_adaptive_staircase_mess,2022.1.1,34.76647702883622,
,,,,,5,0,5,0,12,0,12,0,,,,,,,,,,,,,,,,left,6000,-7.5,4.886186104779051e-05,-1,4,-1,-5.0,703.8283237666512,None,703.7802001999225,704.1185737999622,704.7816176000051,705.1193128000014,705.7806920998264,706.1070469999686,left,1,2.963218600023538,703.8416756999213,None,706.3584775999188,None,,,,,,,luctew,001,0,fr,2022-05-12_14h32.56.232,3-AFC_adaptive_staircase_mess,2022.1.1,34.76647702883622,
,,,,,5,0,5,0,13,0,13,0,,,,,,,,,,,,,,,,up,6000,-7.5,4.886186104779051e-05,-1,4,-1,-5.0,709.3613259664892,None,708.342419099994,708.6796817998402,709.3134568999521,709.6537524999585,710.3137565997895,710.6443173999432,left,0,2.8693405999802053,708.3594377997797,None,710.8865912999026,None,,,,,,,luctew,001,0,fr,2022-05-12_14h32.56.232,3-AFC_adaptive_staircase_mess,2022.1.1,34.76647702883622,
,,,,,5,0,5,0,14,0,14,0,,,,,,,,,,,,,,,,left,6000,-5.0,6.515833892261494e-05,1,5,1,2.5,712.7508265665422,None,712.7341598998755,713.0748987998813,713.7191885998473,714.0383595000021,714.7297067998443,715.0544125998858,right,0,2.8960885999258608,712.7641280000098,None,715.2613790999167,None,,,,,,,luctew,001,0,fr,2022-05-12_14h32.56.232,3-AFC_adaptive_staircase_mess,2022.1.1,34.76647702883622,
,,,,,5,0,5,0,15,0,15,0,,,,,,,,,,,,,,,,up,6000,-2.5,8.689004143746872e-05,1,5,1,2.5,718.2059678666449,None,717.1592907998711,717.4922583999578,718.1591946999542,718.4924680998083,719.1838243999518,719.5240933999885,left,0,3.001384599832818,717.2189644998871,None,719.7193145998754,None,,,,,,,luctew,001,0,fr,2022-05-12_14h32.56.232,3-AFC_adaptive_staircase_mess,2022.1.1,34.76647702883622,
,,,,,5,0,5,0,16,0,16,0,,,,,,,,,,,,,,,,up,6000,0.0,0.00011586973249842387,1,5,1,2.5,722.8013496664973,None,721.754979299847,722.0920713997912,722.7546573998407,723.0669131998438,None,None,up,1,1.850960399955511,721.8171495997813,None,None,None,,,,,,,luctew,001,0,fr,2022-05-12_14h32.56.232,3-AFC_adaptive_staircase_mess,2022.1.1,34.76647702883622,
,,,,,5,0,5,0,17,0,17,0,,,,,,,,,,,,,,,,right,6000,0.0,0.00011586973249842387,1,5,1,2.5,727.226003166583,None,725.1965720998123,725.5267451999243,726.1882853999268,726.5235941999126,727.1803193998057,727.5215567999985,right,1,3.075615999987349,725.2256072999444,None,727.728725399822,None,,,,,,,luctew,001,0,fr,2022-05-12_14h32.56.232,3-AFC_adaptive_staircase_mess,2022.1.1,34.76647702883622,
,,,,,5,0,5,0,18,0,18,0,,,,,,,,,,,,,,,,left,6000,-5.0,6.515833892261494e-05,-1,6,-1,-5.0,729.8680154665528,None,729.8212114998605,730.1587497999426,730.82370790001,731.1548527998384,731.8181280998979,732.1542050999124,right,0,3.700202099978924,729.8804068998434,None,732.3624861999415,None,,,,,,,luctew,001,0,fr,2022-05-12_14h32.56.232,3-AFC_adaptive_staircase_mess,2022.1.1,34.76647702883622,
,,,,,6,0,6,0,0,0,0,0,,,,,,,,,,,,,[],[],10,right,8000,30,0.005740768107484416,0,0,-1,10,738.9563563664599,None,736.917467399966,737.2502812999301,737.9268730999902,738.2647847998887,738.9043715998996,739.218620199943,right,1,2.6795809001196176,736.9804246998392,None,739.4622413998004,None,space,1.7647186000831425,734.6477069999091,None,734.6477069999091,None,luctew,001,0,fr,2022-05-12_14h32.56.232,3-AFC_adaptive_staircase_mess,2022.1.1,34.76647702883622,
,,,,,6,0,6,0,1,0,1,0,,,,,,,,,,,,,,,,left,8000,30,0.005740768107484416,0,0,-1,10,741.2072895665808,None,741.1906228999142,741.5282844998874,None,None,None,None,left,1,0.5441586000379175,741.2207962998655,None,None,None,,,,,,,luctew,001,0,fr,2022-05-12_14h32.56.232,3-AFC_adaptive_staircase_mess,2022.1.1,34.76647702883622,
,,,,,6,0,6,0,2,0,2,0,,,,,,,,,,,,,,,,right,8000,10,0.0005740768107484417,-1,0,-1,-10,745.3137212666372,None,743.2810419998132,743.6138807998504,744.2886542999186,744.6181706998032,745.2752650999464,745.6118445999455,right,1,2.686350099975243,743.3101803997997,None,745.8454279999714,None,,,,,,,luctew,001,0,fr,2022-05-12_14h32.56.232,3-AFC_adaptive_staircase_mess,2022.1.1,34.76647702883622,
,,,,,6,0,6,0,3,0,3,0,,,,,,,,,,,,,,,,up,8000,10,0.0005740768107484417,-1,0,-1,-10,748.5425987665697,None,747.5279871998355,747.8625470998231,748.525932099903,748.8663189997897,None,None,up,1,1.5416290999855846,747.5585868000053,None,None,None,,,,,,,luctew,001,0,fr,2022-05-12_14h32.56.232,3-AFC_adaptive_staircase_mess,2022.1.1,34.76647702883622,
,,,,,6,0,6,0,4,0,4,0,,,,,,,,,,,,,,,,up,8000,0,0.0001815390273850507,-1,0,-1,-10,751.6341091665129,None,750.604979199823,750.9500057999976,751.6174424998462,751.9584043999203,None,None,up,1,1.5564060001634061,750.663823899813,None,None,None,,,,,,,luctew,001,0,fr,2022-05-12_14h32.56.232,3-AFC_adaptive_staircase_mess,2022.1.1,34.76647702883622,
,,,,,6,0,6,0,5,0,5,0,,,,,,,,,,,,,,,,left,8000,0,0.0001815390273850507,-1,0,-1,-10,753.7866664664509,None,753.739676799858,754.0885826000012,None,None,None,None,left,1,0.5887913000769913,753.8001987999305,None,None,None,,,,,,,luctew,001,0,fr,2022-05-12_14h32.56.232,3-AFC_adaptive_staircase_mess,2022.1.1,34.76647702883622,
,,,,,6,0,6,0,6,0,6,0,,,,,,,,,,,,,,,,right,8000,-10,5.740768107484415e-05,-1,0,-1,-10,757.9607830665229,None,755.9067062998656,756.2224066997878,756.9096930997912,757.2415584998671,757.9155546999536,758.259879199788,left,0,2.839699700009078,755.9810142999049,None,758.4939542999491,None,,,,,,,luctew,001,0,fr,2022-05-12_14h32.56.232,3-AFC_adaptive_staircase_mess,2022.1.1,34.76647702883622,
,,,,,6,0,6,0,7,0,7,0,,,,,,,,,,,,,,,,left,8000,-5,0.00010208689723347648,1,1,1,5,760.3601753665755,None,760.3148069998715,760.6614656997845,None,None,None,None,left,1,0.5826503001153469,760.373980099801,None,None,None,,,,,,,luctew,001,0,fr,2022-05-12_14h32.56.232,3-AFC_adaptive_staircase_mess,2022.1.1,34.76647702883622,
,,,,,6,0,6,0,8,0,8,0,,,,,,,,,,,,,,,,left,8000,-5,0.00010208689723347648,1,1,1,5,762.4985058664499,None,762.4608157000039,762.7821928998455,None,None,None,None,left,1,0.6352297998964787,762.513289099792,None,None,None,,,,,,,luctew,001,0,fr,2022-05-12_14h32.56.232,3-AFC_adaptive_staircase_mess,2022.1.1,34.76647702883622,
,,,,,6,0,6,0,9,0,9,0,,,,,,,,,,,,,,,,right,8000,-15,3.228271145173278e-05,-1,2,-1,-5.0,None,None,764.6654824998695,764.9973622998223,765.6651254664796,None,None,None,left,0,0.9293023999780416,764.716304600006,None,None,None,,,,,,,luctew,001,0,fr,2022-05-12_14h32.56.232,3-AFC_adaptive_staircase_mess,2022.1.1,34.76647702883622,
,,,,,6,0,6,0,10,0,10,0,,,,,,,,,,,,,,,,right,8000,-12.5,4.304968760923004e-05,1,3,1,2.5,769.2181958666226,None,767.16178580001,767.5011268998496,768.1575421998277,768.5029177998658,769.1678636998404,769.4885509999003,right,1,3.2718545000534505,767.2198687999044,None,769.7319614998996,None,,,,,,,luctew,001,0,fr,2022-05-12_14h32.56.232,3-AFC_adaptive_staircase_mess,2022.1.1,34.76647702883622,
,,,,,6,0,6,0,11,0,11,0,,,,,,,,,,,,,,,,right,8000,-12.5,4.304968760923004e-05,1,3,1,2.5,774.0606618666245,774.2910059997812,772.0041743998881,772.3402853999287,773.0052674999461,773.3432918998878,774.008778099902,774.3506728999782,right,1,2.931836500065401,772.0723319000099,None,774.5613819998689,None,,,,,,,luctew,001,0,fr,2022-05-12_14h32.56.232,3-AFC_adaptive_staircase_mess,2022.1.1,34.76647702883622,
,,,,,6,0,6,0,12,0,12,0,,,,,,,,,,,,,,,,left,8000,-17.5,2.420861837920497e-05,-1,4,-1,-5.0,776.5588266666202,776.793158199871,776.5131461999845,776.8527745997999,777.541884599952,777.8802777999081,778.5153572999407,778.8452922999859,left,1,3.676408800063655,776.5753324998077,None,779.0726212000009,None,,,,,,,luctew,001,0,fr,2022-05-12_14h32.56.232,3-AFC_adaptive_staircase_mess,2022.1.1,34.76647702883622,
,,,,,6,0,6,0,13,0,13,0,,,,,,,,,,,,,,,,up,8000,-17.5,2.420861837920497e-05,-1,4,-1,-5.0,782.7867449664666,None,781.7462829998694,782.0850812999997,782.741392799886,783.0891821999103,783.7364643998444,784.0541867997963,left,0,2.991569499950856,781.8050088998862,None,784.2896713998634,None,,,,,,,luctew,001,0,fr,2022-05-12_14h32.56.232,3-AFC_adaptive_staircase_mess,2022.1.1,34.76647702883622,
,,,,,6,0,6,0,14,0,14,0,,,,,,,,,,,,,,,,up,8000,-15.0,3.228271145173278e-05,1,5,1,2.5,787.3718862664575,787.6003444998059,786.3439065997954,786.6891104998067,787.3216178999282,787.6612612998579,788.3238201998174,788.6577146998607,up,1,2.95935619994998,786.3727388998959,None,788.8912346998695,None,,,,,,,luctew,001,0,fr,2022-05-12_14h32.56.232,3-AFC_adaptive_staircase_mess,2022.1.1,34.76647702883622,
,,,,,6,0,6,0,15,0,15,0,,,,,,,,,,,,,,,,up,8000,-15.0,3.228271145173278e-05,1,5,1,2.5,791.8771444664492,None,790.8624340000097,791.1934954999015,791.8604777997825,792.2005497999489,792.8514736997895,793.1956203998998,right,0,3.1225104997865856,790.890935299918,None,793.3963518999517,None,,,,,,,luctew,001,0,fr,2022-05-12_14h32.56.232,3-AFC_adaptive_staircase_mess,2022.1.1,34.76647702883622,
,,,,,6,0,6,0,16,0,16,0,,,,,,,,,,,,,,,,left,8000,-12.5,4.304968760923004e-05,1,5,1,2.5,795.5790541666249,None,795.5283387999516,795.8649039999582,796.531652599806,796.8694540997967,797.5299036998767,797.8665537999477,up,0,3.0818811000790447,795.594436999876,None,798.0958825999405,None,,,,,,,luctew,001,0,fr,2022-05-12_14h32.56.232,3-AFC_adaptive_staircase_mess,2022.1.1,34.76647702883622,
,,,,,6,0,6,0,17,0,17,0,,,,,,,,,,,,,,,,up,8000,-10.0,5.740768107484415e-05,1,5,1,2.5,801.2549176666109,None,800.2093831999227,800.5364558999427,801.2034305999987,801.5134783999529,802.2041803000029,802.5367249997798,up,1,2.3695907001383603,800.2426277999766,None,None,None,,,,,,,luctew,001,0,fr,2022-05-12_14h32.56.232,3-AFC_adaptive_staircase_mess,2022.1.1,34.76647702883622,
,,,,,6,0,6,0,18,0,18,0,,,,,,,,,,,,,,,,up,8000,-10.0,5.740768107484415e-05,1,5,1,2.5,805.1730294665942,None,804.1386241998989,804.4728977999184,805.1286764999386,805.4746942999773,806.149345099926,806.4760865999851,up,1,3.0059889000840485,804.2057856998872,None,806.709961099783,None,,,,,,,luctew,001,0,fr,2022-05-12_14h32.56.232,3-AFC_adaptive_staircase_mess,2022.1.1,34.76647702883622,
,,,,,6,0,6,0,19,0,19,0,,,,,,,,,,,,,,,,left,8000,-15.0,3.228271145173278e-05,-1,6,-1,-5.0,808.7688975665408,None,808.7215056999121,809.0620150999166,809.740867999848,810.0862123998813,810.7519131998997,811.0832573999651,left,1,3.0699600998777896,808.7824595998973,None,811.2836122999433,None,,,,,,,luctew,001,0,fr,2022-05-12_14h32.56.232,3-AFC_adaptive_staircase_mess,2022.1.1,34.76647702883622,
,,,,,7,0,7,0,0,0,0,0,,,,,,,,,,,,,[],[],10,up,750,30,0.0012851978913844323,0,0,-1,10,816.635368366555,None,815.582443199819,815.919904399896,816.5858556998428,816.9281261998694,None,None,up,1,1.6141918001230806,815.645810799906,None,None,None,space,2.155260599916801,812.9455946998205,None,812.9455946998205,None,luctew,001,0,fr,2022-05-12_14h32.56.232,3-AFC_adaptive_staircase_mess,2022.1.1,34.76647702883622,
,,,,,7,0,7,0,1,0,1,0,,,,,,,,,,,,,,,,left,750,30,0.0012851978913844323,0,0,-1,10,818.838006366572,819.068771999795,818.7879354998004,819.1303438998293,None,None,None,None,left,1,0.5172156000044197,818.8553907999303,None,None,None,,,,,,,luctew,001,0,fr,2022-05-12_14h32.56.232,3-AFC_adaptive_staircase_mess,2022.1.1,34.76647702883622,
,,,,,7,0,7,0,2,0,2,0,,,,,,,,,,,,,,,,left,750,10,0.00012851978913844324,-1,0,-1,-10,820.9344028665839,None,820.8859613998793,821.2234694999643,None,None,None,None,left,1,0.5700727000366896,820.946530399844,None,None,None,,,,,,,luctew,001,0,fr,2022-05-12_14h32.56.232,3-AFC_adaptive_staircase_mess,2022.1.1,34.76647702883622,
,,,,,7,0,7,0,3,0,3,0,,,,,,,,,,,,,,,,up,750,10,0.00012851978913844324,-1,0,-1,-10,824.0548516666206,None,823.0217045999598,823.3578861998394,824.038184999954,824.3588295998052,None,None,up,1,1.6032980000600219,823.0810467000119,None,None,None,,,,,,,luctew,001,0,fr,2022-05-12_14h32.56.232,3-AFC_adaptive_staircase_mess,2022.1.1,34.76647702883622,
,,,,,7,0,7,0,4,0,4,0,,,,,,,,,,,,,,,,left,750,0,4.064152580820497e-05,-1,0,-1,-10,826.2368539665515,None,826.1921570999548,826.5307748999912,827.1956460999791,827.5314593999647,828.19761929987,828.5106970998459,right,0,3.412387700052932,826.2484192999545,None,828.7499771998264,None,,,,,,,luctew,001,0,fr,2022-05-12_14h32.56.232,3-AFC_adaptive_staircase_mess,2022.1.1,34.76647702883622,
,,,,,7,0,7,0,5,0,5,0,,,,,,,,,,,,,,,,up,750,5,7.22719885372964e-05,1,1,1,5,832.1939690665497,None,831.1666357999202,831.5007348000072,832.147426399868,832.4702579998411,833.169352500001,833.5114269999322,right,0,2.908686799928546,831.1992166999262,None,833.6944149998017,None,,,,,,,luctew,001,0,fr,2022-05-12_14h32.56.232,3-AFC_adaptive_staircase_mess,2022.1.1,34.76647702883622,
,,,,,7,0,7,0,6,0,6,0,,,,,,,,,,,,,,,,right,750,10,0.00012851978913844324,1,1,1,5,837.6587876666492,None,835.63917079987,835.9696655999869,836.6244917998556,836.9741645997856,837.6421209999826,837.9740189998411,right,1,2.7400971001479775,835.7045453998726,None,838.1887952999678,None,,,,,,,luctew,001,0,fr,2022-05-12_14h32.56.232,3-AFC_adaptive_staircase_mess,2022.1.1,34.76647702883622,
,,,,,7,0,7,0,7,0,7,0,,,,,,,,,,,,,,,,right,750,10,0.00012851978913844324,1,1,1,5,841.9643547665949,None,839.9549255999736,840.2763822998386,840.9404938998632,841.2796069998294,841.9476880999282,842.2807300998829,right,1,2.7243536000605673,839.9841065998189,None,842.4921349999495,None,,,,,,,luctew,001,0,fr,2022-05-12_14h32.56.232,3-AFC_adaptive_staircase_mess,2022.1.1,34.76647702883622,
,,,,,7,0,7,0,8,0,8,0,,,,,,,,,,,,,,,,right,750,0,4.064152580820497e-05,-1,2,-1,-5.0,846.2564963666412,None,844.2133665999863,844.5480690998957,845.2113059998956,845.5489502998535,846.2111517000012,846.5511281997897,right,1,2.960933200083673,844.243613399798,None,846.7599415997975,None,,,,,,,luctew,001,0,fr,2022-05-12_14h32.56.232,3-AFC_adaptive_staircase_mess,2022.1.1,34.76647702883622,
,,,,,7,0,7,0,9,0,9,0,,,,,,,,,,,,,,,,up,750,0,4.064152580820497e-05,-1,2,-1,-5.0,849.7448435666195,None,848.7056616998743,849.0538375999313,849.7001124999952,850.0203436999582,850.720998799894,851.0569565999322,left,0,2.9261274999007583,848.7669794999529,None,851.2750326998066,None,,,,,,,luctew,001,0,fr,2022-05-12_14h32.56.232,3-AFC_adaptive_staircase_mess,2022.1.1,34.76647702883622,
,,,,,7,0,7,0,10,0,10,0,,,,,,,,,,,,,,,,up,750,2.5,5.419634570106019e-05,1,3,1,2.5,854.2272787665172,None,853.1867870998103,853.5220483997837,854.1811790999491,854.5253557998221,855.1923686999362,855.5062359999865,right,0,2.912644100142643,853.2437846998218,None,855.7456892000046,None,,,,,,,luctew,001,0,fr,2022-05-12_14h32.56.232,3-AFC_adaptive_staircase_mess,2022.1.1,34.76647702883622,
,,,,,7,0,7,0,11,0,11,0,,,,,,,,,,,,,,,,left,750,5.0,7.22719885372964e-05,1,3,1,2.5,857.7035130665793,None,857.6538772999775,857.9692111997865,858.6639513999689,858.9990296999458,859.6458357998636,859.9663679997902,left,1,3.057474199915305,857.7148891999386,None,860.2326349997893,None,,,,,,,luctew,001,0,fr,2022-05-12_14h32.56.232,3-AFC_adaptive_staircase_mess,2022.1.1,34.76647702883622,
,,,,,7,0,7,0,12,0,12,0,,,,,,,,,,,,,,,,up,750,5.0,7.22719885372964e-05,1,3,1,2.5,863.3470320664967,None,862.2900745999068,862.6339671998285,863.2982912999578,863.6397369999904,864.3133755999152,864.6335176997818,up,1,4.704860599944368,862.3487361997832,None,864.839749599807,None,,,,,,,luctew,001,0,fr,2022-05-12_14h32.56.232,3-AFC_adaptive_staircase_mess,2022.1.1,34.76647702883622,
,,,,,7,0,7,0,13,0,13,0,,,,,,,,,,,,,,,,up,750,0.0,4.064152580820497e-05,-1,4,-1,-5.0,869.6144060665431,None,868.565367099829,868.9065678999759,869.5693828999065,869.9083202998154,870.5743588998448,870.9082177998498,right,0,2.9621222999412566,868.6254162997939,None,871.1295143999159,None,,,,,,,luctew,001,0,fr,2022-05-12_14h32.56.232,3-AFC_adaptive_staircase_mess,2022.1.1,34.76647702883622,
,,,,,7,0,7,0,14,0,14,0,,,,,,,,,,,,,,,,right,750,2.5,5.419634570106019e-05,1,5,1,2.5,875.1284854666485,None,873.1133858999237,873.4458792000078,874.1149909999222,874.4280327998567,875.1118187999818,875.4456055997871,right,1,2.890596600016579,873.1454985998571,None,875.6565995998681,None,,,,,,,luctew,001,0,fr,2022-05-12_14h32.56.232,3-AFC_adaptive_staircase_mess,2022.1.1,34.76647702883622,
,,,,,7,0,7,0,15,0,15,0,,,,,,,,,,,,,,,,left,750,2.5,5.419634570106019e-05,1,5,1,2.5,877.5727339664629,None,877.5560672997963,877.8910456998274,878.5536735998467,878.8839307997841,879.5490085999481,879.8830049999524,up,0,3.0904906999785453,877.5856499997899,None,880.1043622998986,None,,,,,,,luctew,001,0,fr,2022-05-12_14h32.56.232,3-AFC_adaptive_staircase_mess,2022.1.1,34.76647702883622,
,,,,,7,0,7,0,16,0,16,0,,,,,,,,,,,,,,,,right,750,5.0,7.22719885372964e-05,1,5,1,2.5,884.2136721665195,None,882.1942207999527,882.53275569994,883.1787673998624,883.5205377999227,884.1970054998528,884.5181715998333,right,1,3.1168708000332117,882.2231320999563,None,884.755649099825,None,,,,,,,luctew,001,0,fr,2022-05-12_14h32.56.232,3-AFC_adaptive_staircase_mess,2022.1.1,34.76647702883622,
,,,,,7,0,7,0,17,0,17,0,,,,,,,,,,,,,,,,left,750,5.0,7.22719885372964e-05,1,5,1,2.5,886.9107392666085,887.1367088998668,886.8606953998096,887.1986445998773,887.8686183998361,888.1941561999265,888.8599060999695,889.195110199973,left,1,3.7407067001331598,886.927795099793,None,889.4229768998921,None,,,,,,,luctew,001,0,fr,2022-05-12_14h32.56.232,3-AFC_adaptive_staircase_mess,2022.1.1,34.76647702883622,
,,,,,7,0,7,0,18,0,18,0,,,,,,,,,,,,,,,,up,750,0.0,4.064152580820497e-05,-1,6,-1,-5.0,893.248495966491,None,892.1959936998319,892.5274851999711,893.1980113999452,893.538407899905,894.2091494998895,894.5335882999934,right,0,2.8937653000466526,892.2623791999649,None,894.7489665998146,None,,,,,,,luctew,001,0,fr,2022-05-12_14h32.56.232,3-AFC_adaptive_staircase_mess,2022.1.1,34.76647702883622,
,,,,,8,0,8,0,0,0,0,0,,,,,,,,,,,,,[],[],10,right,500,30,0.002259279721874612,0,0,-1,10,901.4670201666343,None,899.4359631999396,899.7712337998673,900.4375515999272,900.7651639999822,901.4207110998686,901.7446827997919,right,1,2.5510140999685973,899.4692954998463,None,901.9770275999326,None,space,2.691611200105399,896.232516199816,None,896.232516199816,None,luctew,001,0,fr,2022-05-12_14h32.56.232,3-AFC_adaptive_staircase_mess,2022.1.1,34.76647702883622,
,,,,,8,0,8,0,1,0,1,0,,,,,,,,,,,,,,,,left,500,30,0.002259279721874612,0,0,-1,10,903.5703258666365,None,903.5536591999698,903.8857972999103,None,None,None,None,left,1,0.5406534001231194,903.5836278998759,None,None,None,,,,,,,luctew,001,0,fr,2022-05-12_14h32.56.232,3-AFC_adaptive_staircase_mess,2022.1.1,34.76647702883622,
,,,,,8,0,8,0,2,0,2,0,,,,,,,,,,,,,,,,up,500,10,0.0002259279721874612,-1,0,-1,-10,906.7147981664787,None,905.6801056999248,906.0178149999119,906.6689931999426,906.9839275998529,None,None,up,1,1.617934999987483,905.7463930998929,None,None,None,,,,,,,luctew,001,0,fr,2022-05-12_14h32.56.232,3-AFC_adaptive_staircase_mess,2022.1.1,34.76647702883622,
,,,,,8,0,8,0,3,0,3,0,,,,,,,,,,,,,,,,left,500,10,0.0002259279721874612,-1,0,-1,-10,908.9073758666093,None,908.8907091999426,909.212037499994,None,None,None,None,left,1,0.6431081001646817,908.9209233999718,None,None,None,,,,,,,luctew,001,0,fr,2022-05-12_14h32.56.232,3-AFC_adaptive_staircase_mess,2022.1.1,34.76647702883622,
,,,,,8,0,8,0,4,0,4,0,,,,,,,,,,,,,,,,right,500,0,7.144469792555515e-05,-1,0,-1,-10,913.1395784665986,None,911.0848147999495,911.4156981999986,912.1088000999298,912.4519546998199,913.0944509999827,913.4199951000046,right,1,2.8121960998978466,911.1517140998039,None,913.6443807999603,None,,,,,,,luctew,001,0,fr,2022-05-12_14h32.56.232,3-AFC_adaptive_staircase_mess,2022.1.1,34.76647702883622,
,,,,,8,0,8,0,5,0,5,0,,,,,,,,,,,,,,,,right,500,0,7.144469792555515e-05,-1,0,-1,-10,917.5126054664763,None,915.4884028998204,915.8221537999343,916.4939836999401,916.8218763999175,917.4959387998097,917.8252101999242,right,1,2.9299713999498636,915.5538614999969,None,918.0584160999861,None,,,,,,,luctew,001,0,fr,2022-05-12_14h32.56.232,3-AFC_adaptive_staircase_mess,2022.1.1,34.76647702883622,
,,,,,8,0,8,0,6,0,6,0,,,,,,,,,,,,,,,,up,500,-10,2.259279721874613e-05,-1,0,-1,-10,921.0426246666505,None,919.9896744999569,920.3196440997999,920.9923378999811,921.3329868000001,921.9950939998962,922.3246876997873,up,1,3.410133400000632,920.0581391998567,None,922.5647076999303,None,,,,,,,luctew,001,0,fr,2022-05-12_14h32.56.232,3-AFC_adaptive_staircase_mess,2022.1.1,34.76647702883622,
,,,,,8,0,8,0,7,0,7,0,,,,,,,,,,,,,,,,left,500,-10,2.259279721874613e-05,-1,0,-1,-10,925.0498914665698,925.2755442999769,925.0033757998608,925.337825199822,926.0236345999874,926.3675102000125,927.0272477997933,927.3661528998055,right,0,3.113686199998483,925.0669811000116,None,927.5562531999312,None,,,,,,,luctew,001,0,fr,2022-05-12_14h32.56.232,3-AFC_adaptive_staircase_mess,2022.1.1,34.76647702883622,
,,,,,8,0,8,0,8,0,8,0,,,,,,,,,,,,,,,,left,500,-5,4.017630610928089e-05,1,1,1,5,929.7491049664716,929.9799432998989,929.6998783999588,930.0424773998093,930.7046564999036,931.0399127998389,931.7010617998894,932.015862399945,up,0,3.294915699865669,929.765535299899,None,932.2424023000058,None,,,,,,,luctew,001,0,fr,2022-05-12_14h32.56.232,3-AFC_adaptive_staircase_mess,2022.1.1,34.76647702883622,
,,,,,8,0,8,0,9,0,9,0,,,,,,,,,,,,,,,,right,500,0,7.144469792555515e-05,1,1,1,5,936.6136944664797,None,934.5825991998427,934.9069575998001,935.5624807998538,935.9073997999076,936.5683373999782,936.9162724998314,right,1,2.960076400078833,934.6122347000055,None,937.1443367998581,None,,,,,,,luctew,001,0,fr,2022-05-12_14h32.56.232,3-AFC_adaptive_staircase_mess,2022.1.1,34.76647702883622,
,,,,,8,0,8,0,10,0,10,0,,,,,,,,,,,,,,,,left,500,0,7.144469792555515e-05,1,1,1,5,939.0961664666577,None,939.079499799991,939.4149708999321,940.0807860998902,940.4105037997942,941.0651108999737,941.4109532998409,left,1,3.068124599987641,939.1122528999113,None,941.6261788997799,None,,,,,,,luctew,001,0,fr,2022-05-12_14h32.56.232,3-AFC_adaptive_staircase_mess,2022.1.1,34.76647702883622,
,,,,,8,0,8,0,11,0,11,0,,,,,,,,,,,,,,,,up,500,-10,2.259279721874613e-05,-1,2,-1,-5.0,944.7316087666588,None,943.6810697999317,944.012179199839,944.6819230997935,945.0220964998007,945.6734171998687,946.0211606998928,left,0,4.833206999814138,943.7471604999155,None,946.2403570997994,None,,,,,,,luctew,001,0,fr,2022-05-12_14h32.56.232,3-AFC_adaptive_staircase_mess,2022.1.1,34.76647702883622,
,,,,,8,0,8,0,12,0,12,0,,,,,,,,,,,,,,,,left,500,-7.5,3.0127979303717903e-05,1,3,1,2.5,950.1264578665762,None,950.080150899943,950.4252366998699,951.0913432999514,951.4211964998394,952.1111273998395,952.45786269987,up,0,2.8247386999428272,950.1391385998577,None,952.6482894998044,None,,,,,,,luctew,001,0,fr,2022-05-12_14h32.56.232,3-AFC_adaptive_staircase_mess,2022.1.1,34.76647702883622,
,,,,,8,0,8,0,13,0,13,0,,,,,,,,,,,,,,,,left,500,-5.0,4.017630610928089e-05,1,3,1,2.5,954.5151497666413,954.7383876999374,954.4661057000048,954.79975929996,955.4595404998399,955.7810003999621,956.462998899864,956.7977706999518,right,0,3.136935400078073,954.53156139981,None,957.0335417999886,None,,,,,,,luctew,001,0,fr,2022-05-12_14h32.56.232,3-AFC_adaptive_staircase_mess,2022.1.1,34.76647702883622,
,,,,,8,0,8,0,14,0,14,0,,,,,,,,,,,,,,,,up,500,-2.5,5.357596526188033e-05,1,3,1,2.5,960.1917708665753,None,959.1658167999703,959.4950238999445,960.1751041999087,960.5042363998946,961.165765899932,961.4827875997871,up,1,3.0206621000543237,959.2315532998182,None,961.7343568999786,None,,,,,,,luctew,001,0,fr,2022-05-12_14h32.56.232,3-AFC_adaptive_staircase_mess,2022.1.1,34.76647702883622,
,,,,,8,0,8,0,15,0,15,0,,,,,,,,,,,,,,,,left,500,-2.5,5.357596526188033e-05,1,3,1,2.5,963.8169838665674,964.0481494998094,963.7672128998674,964.1100170998834,964.7772170999087,965.1085162998643,965.7686958999839,966.0883829998784,right,0,3.057858800049871,963.8349844999611,None,966.3385630999692,None,,,,,,,luctew,001,0,fr,2022-05-12_14h32.56.232,3-AFC_adaptive_staircase_mess,2022.1.1,34.76647702883622,
,,,,,8,0,8,0,16,0,16,0,,,,,,,,,,,,,,,,left,500,0.0,7.144469792555515e-05,1,3,1,2.5,968.4684475665601,None,968.4218025999144,968.7597397000063,969.4374098000117,969.7742893998511,970.4114639998879,970.7278779000044,left,1,2.867209200048819,968.4809471999761,None,970.9745682999492,None,,,,,,,luctew,001,0,fr,2022-05-12_14h32.56.232,3-AFC_adaptive_staircase_mess,2022.1.1,34.76647702883622,
,,,,,8,0,8,0,17,0,17,0,,,,,,,,,,,,,,,,up,500,0.0,7.144469792555515e-05,1,3,1,2.5,973.8935431666362,None,972.8639808997978,973.2095383999404,973.8768764999695,974.2217024997808,974.8707943998743,975.2091021998785,right,0,2.904370700009167,972.9234914998524,None,975.4213407998905,None,,,,,,,luctew,001,0,fr,2022-05-12_14h32.56.232,3-AFC_adaptive_staircase_mess,2022.1.1,34.76647702883622,
,,,,,8,0,8,0,18,0,18,0,,,,,,,,,,,,,,,,up,500,2.5,9.527303589816237e-05,1,3,1,2.5,978.3967886665525,None,977.3394529998768,977.6792579998728,978.3491431998555,978.69134569983,979.3451069998555,979.6786807999015,up,1,2.7095915998797864,977.3987832998391,None,979.8938679997809,None,,,,,,,luctew,001,0,fr,2022-05-12_14h32.56.232,3-AFC_adaptive_staircase_mess,2022.1.1,34.76647702883622,
,,,,,8,0,8,0,19,0,19,0,,,,,,,,,,,,,,,,up,500,2.5,9.527303589816237e-05,1,3,1,2.5,982.6713283665633,None,981.647811899893,981.99238099996,982.6236192998476,982.9605078999884,983.6238651999738,983.9419383998029,left,0,3.0748606000561267,981.6809532998595,None,984.1901630999055,None,,,,,,,luctew,001,0,fr,2022-05-12_14h32.56.232,3-AFC_adaptive_staircase_mess,2022.1.1,34.76647702883622,
,,,,,8,0,8,0,20,0,20,0,,,,,,,,,,,,,,,,left,500,5.0,0.00012704863527746526,1,3,1,2.5,986.3404068665734,None,986.2913185998332,986.6331400999334,None,None,None,None,left,1,0.7189829999115318,986.3574556999374,None,None,None,,,,,,,luctew,001,0,fr,2022-05-12_14h32.56.232,3-AFC_adaptive_staircase_mess,2022.1.1,34.76647702883622,
,,,,,8,0,8,0,21,0,21,0,,,,,,,,,,,,,,,,left,500,5.0,0.00012704863527746526,1,3,1,2.5,988.6343708665265,None,988.6177041998599,988.9566543998662,None,None,None,None,left,1,0.6933374998625368,988.6472540998366,None,None,None,,,,,,,luctew,001,0,fr,2022-05-12_14h32.56.232,3-AFC_adaptive_staircase_mess,2022.1.1,34.76647702883622,
,,,,,8,0,8,0,22,0,22,0,,,,,,,,,,,,,,,,up,500,0.0,7.144469792555515e-05,-1,4,-1,-5.0,991.8960325664996,None,990.8566674999893,991.1942488998175,991.8498061997816,992.1656629999634,992.8342562665387,None,up,1,1.883372399955988,990.920839099912,None,None,None,,,,,,,luctew,001,0,fr,2022-05-12_14h32.56.232,3-AFC_adaptive_staircase_mess,2022.1.1,34.76647702883622,
,,,,,8,0,8,0,23,0,23,0,,,,,,,,,,,,,,,,up,500,0.0,7.144469792555515e-05,-1,4,-1,-5.0,995.3521288666564,None,994.3058915999718,994.6441747997887,995.3354621999897,995.6758139999583,996.3068413999863,996.6390304998495,right,0,4.17927600000985,994.3695101998746,None,996.8565274998546,None,,,,,,,luctew,001,0,fr,2022-05-12_14h32.56.232,3-AFC_adaptive_staircase_mess,2022.1.1,34.76647702883622,
,,,,,8,0,8,0,24,0,24,0,,,,,,,,,,,,,,,,right,500,2.5,9.527303589816237e-05,1,5,1,2.5,1002.0572112666598,None,1000.0378223999869,1000.3772286998574,1001.044345199829,1001.3775637999643,1002.0405445999932,1002.3810016999487,right,1,2.6541323999408633,1000.1026613998692,None,1002.579457799904,None,,,,,,,luctew,001,0,fr,2022-05-12_14h32.56.232,3-AFC_adaptive_staircase_mess,2022.1.1,34.76647702883622,
,,,,,8,0,8,0,25,0,25,0,,,,,,,,,,,,,,,,left,500,2.5,9.527303589816237e-05,1,5,1,2.5,1004.2981021665657,None,1004.2814354998991,1004.6035583999474,1005.2584294998087,1005.5877576998901,1006.2844228998292,1006.5954713998362,left,1,2.947572899982333,1004.313394199824,None,1006.8332205999177,None,,,,,,,luctew,001,0,fr,2022-05-12_14h32.56.232,3-AFC_adaptive_staircase_mess,2022.1.1,34.76647702883622,
,,,,,8,0,8,0,26,0,26,0,,,,,,,,,,,,,,,,up,500,-2.5,5.357596526188033e-05,-1,6,-1,-5.0,1009.8355990665189,None,1008.7991499998607,1009.1328791999258,1009.8189323998522,1010.1352185998112,1010.789183099987,1011.1232547999825,up,1,2.8799566999077797,1008.8599862998817,None,1011.3665631997865,None,,,,,,,luctew,001,0,fr,2022-05-12_14h32.56.232,3-AFC_adaptive_staircase_mess,2022.1.1,34.76647702883622,
,,,,,9,0,9,0,0,0,0,0,,,,,,,,,,,,,[],[],10,right,250,30,0.005296268625886445,0,0,-1,10,1016.9822861664618,1017.2123832998332,1014.9653594999108,1015.3119719999377,1015.9603472999297,1016.2945675998926,1016.9656194997951,1017.3015125999227,right,1,2.610779699869454,1014.9930570998695,None,1017.512646399904,None,space,1.6489220999646932,1012.827963499818,None,1012.827963499818,None,luctew,001,0,fr,2022-05-12_14h32.56.232,3-AFC_adaptive_staircase_mess,2022.1.1,34.76647702883622,
,,,,,9,0,9,0,1,0,1,0,,,,,,,,,,,,,,,,left,250,30,0.005296268625886445,0,0,-1,10,1019.1337472666676,None,1019.1170806000009,1019.4534086999483,None,None,None,None,left,1,0.506040700012818,1019.147045099875,None,None,None,,,,,,,luctew,001,0,fr,2022-05-12_14h32.56.232,3-AFC_adaptive_staircase_mess,2022.1.1,34.76647702883622,
,,,,,9,0,9,0,2,0,2,0,,,,,,,,,,,,,,,,right,250,10,0.0005296268625886444,-1,0,-1,-10,1023.2040756666722,None,1021.166658999864,1021.4992595999502,1022.1906561998185,1022.5216099999379,1023.1874090000056,1023.5317272997927,right,1,2.687986500095576,1021.2287129999604,None,1023.7414620998316,None,,,,,,,luctew,001,0,fr,2022-05-12_14h32.56.232,3-AFC_adaptive_staircase_mess,2022.1.1,34.76647702883622,
,,,,,9,0,9,0,3,0,3,0,,,,,,,,,,,,,,,,right,250,10,0.0005296268625886444,-1,0,-1,-10,1027.4947359664986,None,1025.453700899845,1025.7831095999572,1026.4462575998623,1026.7820867998526,1027.443622799823,1027.7869527998846,right,1,2.6241978998295963,1025.48393329978,None,1027.9984418000095,None,,,,,,,luctew,001,0,fr,2022-05-12_14h32.56.232,3-AFC_adaptive_staircase_mess,2022.1.1,34.76647702883622,
,,,,,9,0,9,0,4,0,4,0,,,,,,,,,,,,,,,,left,250,0,0.0001674827195789138,-1,0,-1,-10,1029.6469066665197,None,1029.630239999853,1029.9720228000078,1030.6027652998455,1030.9400719997939,1031.6219269998837,1031.9482111998368,right,0,3.033419500105083,1029.6593934998382,None,1032.1652014998253,None,,,,,,,luctew,001,0,fr,2022-05-12_14h32.56.232,3-AFC_adaptive_staircase_mess,2022.1.1,34.76647702883622,
,,,,,9,0,9,0,5,0,5,0,,,,,,,,,,,,,,,,right,250,5,0.0002978310717645052,1,1,1,5,1036.2647028666145,None,1034.2125864999834,1034.5445484998636,1035.2322851999197,1035.553400099976,1036.2186488998123,1036.555736299837,right,1,2.9248798000626266,1034.2722182997968,None,1036.7922386999708,None,,,,,,,luctew,001,0,fr,2022-05-12_14h32.56.232,3-AFC_adaptive_staircase_mess,2022.1.1,34.76647702883622,
,,,,,9,0,9,0,6,0,6,0,,,,,,,,,,,,,,,,right,250,5,0.0002978310717645052,1,1,1,5,1040.741181966678,None,1038.717173299985,1039.0540743998718,1039.7034085998312,1040.0421418999322,1040.6958273998462,1041.0424081999809,right,1,2.7621115997899324,1038.7468832999002,None,1041.2718083998188,None,,,,,,,luctew,001,0,fr,2022-05-12_14h32.56.232,3-AFC_adaptive_staircase_mess,2022.1.1,34.76647702883622,
,,,,,9,0,9,0,7,0,7,0,,,,,,,,,,,,,,,,up,250,-5,9.418245447449e-05,-1,2,-1,-5.0,1044.0651271665158,None,1043.040900199907,1043.3781291998457,1044.017424899852,1044.3433605998289,1045.0303417998366,None,up,1,1.993698799982667,1043.0744344999548,None,None,None,,,,,,,luctew,001,0,fr,2022-05-12_14h32.56.232,3-AFC_adaptive_staircase_mess,2022.1.1,34.76647702883622,
,,,,,9,0,9,0,8,0,8,0,,,,,,,,,,,,,,,,up,250,-5,9.418245447449e-05,-1,2,-1,-5.0,1047.6150639665468,None,1046.5771141999867,1046.9151283998508,1047.5983972998802,1047.9149222997949,1048.6085900999606,1048.946354799904,right,0,3.9715972000267357,1046.6403311998583,None,1049.129783499986,None,,,,,,,luctew,001,0,fr,2022-05-12_14h32.56.232,3-AFC_adaptive_staircase_mess,2022.1.1,34.76647702883622,
,,,,,9,0,9,0,9,0,9,0,,,,,,,,,,,,,,,,up,250,-2.5,0.00012559432157547898,1,3,1,2.5,1053.1684879665884,1053.4019571999088,1052.1456032998394,1052.4837838998064,1053.1518212999217,1053.4914300998207,1054.1387344999239,1054.4860374999698,up,1,3.3267667000181973,1052.1734091998078,None,1054.6998777999543,None,,,,,,,luctew,001,0,fr,2022-05-12_14h32.56.232,3-AFC_adaptive_staircase_mess,2022.1.1,34.76647702883622,
,,,,,9,0,9,0,10,0,10,0,,,,,,,,,,,,,,,,left,250,-2.5,0.00012559432157547898,1,3,1,2.5,1057.0466294666442,None,1056.999456499936,1057.3304231998045,1058.0223868999165,1058.357788699912,1059.0060157999396,1059.3254180999938,left,1,3.3829084001481533,1057.0609546999913,None,1059.5829330999404,None,,,,,,,luctew,001,0,fr,2022-05-12_14h32.56.232,3-AFC_adaptive_staircase_mess,2022.1.1,34.76647702883622,
,,,,,9,0,9,0,11,0,11,0,,,,,,,,,,,,,,,,right,250,-7.5,7.06268772311377e-05,-1,4,-1,-5.0,1063.9977874665676,None,1061.9747777997982,1062.3108890999574,1062.99151349999,1063.3273044999223,1063.981120799901,1064.296680299798,up,0,3.1280033998191357,1062.0369998000097,None,1064.5267033998389,None,,,,,,,luctew,001,0,fr,2022-05-12_14h32.56.232,3-AFC_adaptive_staircase_mess,2022.1.1,34.76647702883622,
,,,,,9,0,9,0,12,0,12,0,,,,,,,,,,,,,,,,up,250,-5.0,9.418245447449e-05,1,5,1,2.5,1067.694597066675,None,1066.6509779999033,1066.9674978998955,1067.6779304000083,1068.003082699841,1068.6540784998797,1068.9832933999132,right,0,3.4182879000436515,1066.7218301999383,None,1069.2257497999817,None,,,,,,,luctew,001,0,fr,2022-05-12_14h32.56.232,3-AFC_adaptive_staircase_mess,2022.1.1,34.76647702883622,
,,,,,9,0,9,0,13,0,13,0,,,,,,,,,,,,,,,,left,250,-2.5,0.00012559432157547898,1,5,1,2.5,1071.6777726666226,None,1071.6330797998235,1071.971332799876,1072.6369361998513,1072.973136199871,1073.6442644998897,1073.9728985999245,right,0,3.7942252999637276,1071.690033899853,None,1074.1928281998262,None,,,,,,,luctew,001,0,fr,2022-05-12_14h32.56.232,3-AFC_adaptive_staircase_mess,2022.1.1,34.76647702883622,
,,,,,9,0,9,0,14,0,14,0,,,,,,,,,,,,,,,,up,250,0.0,0.0001674827195789138,1,5,1,2.5,1078.0638656665726,None,1076.9958932998125,1077.3249070998281,1078.0115836998448,1078.3242628998123,1078.9973274997901,1079.3310474997852,left,0,3.1136710999999195,1077.0592572998721,None,1079.5712796999142,None,,,,,,,luctew,001,0,fr,2022-05-12_14h32.56.232,3-AFC_adaptive_staircase_mess,2022.1.1,34.76647702883622,
,,,,,9,0,9,0,15,0,15,0,,,,,,,,,,,,,,,,up,250,2.5,0.0002233417960754815,1,5,1,2.5,1082.710560166572,None,1081.6965175999794,1082.0132816999685,1082.6938934999052,1083.0178006999195,1083.683921399992,None,up,1,2.0789928000885993,1081.7259965999983,None,None,None,,,,,,,luctew,001,0,fr,2022-05-12_14h32.56.232,3-AFC_adaptive_staircase_mess,2022.1.1,34.76647702883622,
,,,,,9,0,9,0,16,0,16,0,,,,,,,,,,,,,,,,up,250,2.5,0.0002233417960754815,1,5,1,2.5,1086.3430061664587,None,1085.30025199987,1085.6171477998141,1086.326339499792,1086.6541386998724,1087.312073299894,1087.6563217998482,up,1,2.7804303001612425,1085.3596881998237,None,1087.850974699948,None,,,,,,,luctew,001,0,fr,2022-05-12_14h32.56.232,3-AFC_adaptive_staircase_mess,2022.1.1,34.76647702883622,
,,,,,9,0,9,0,17,0,17,0,,,,,,,,,,,,,,,,up,250,-2.5,0.00012559432157547898,-1,6,-1,-5.0,1090.6893785666364,None,1089.6794643998146,1090.0241360999644,1090.6425090997946,1090.9604065997992,1091.646736299852,1091.978238399839,right,0,3.33550289995037,1089.7086975998245,None,1092.212978999829,None,,,,,,,luctew,001,0,fr,2022-05-12_14h32.56.232,3-AFC_adaptive_staircase_mess,2022.1.1,34.76647702883622,
,,,,,10,0,10,0,0,0,0,0,,,,,,,,,,,,,[],[],10,up,125,30,0.02285440948074376,0,0,-1,10,1101.2510033664914,None,1100.2023743998725,1100.5359726999886,1101.2003316998016,1101.5138151999563,None,None,up,1,1.6792464000172913,1100.2688862998039,None,None,None,space,5.581060700118542,1094.135625099996,None,1094.135625099996,None,luctew,001,0,fr,2022-05-12_14h32.56.232,3-AFC_adaptive_staircase_mess,2022.1.1,34.76647702883622,
,,,,,10,0,10,0,1,0,1,0,,,,,,,,,,,,,,,,up,125,30,0.02285440948074376,0,0,-1,10,1104.5195918665888,None,1103.4711771998554,1103.804637499852,1104.4695069999434,1104.7856432998087,None,None,up,1,1.5073727001436055,1103.5367226998787,None,None,None,,,,,,,luctew,001,0,fr,2022-05-12_14h32.56.232,3-AFC_adaptive_staircase_mess,2022.1.1,34.76647702883622,
,,,,,10,0,10,0,2,0,2,0,,,,,,,,,,,,,,,,up,125,10,0.002285440948074376,-1,0,-1,-10,1107.5770155664688,None,1106.5605031999294,1106.9075558998156,1107.5319429999217,1107.8601346998475,None,None,up,1,1.6307127000764012,1106.588754199911,None,None,None,,,,,,,luctew,001,0,fr,2022-05-12_14h32.56.232,3-AFC_adaptive_staircase_mess,2022.1.1,34.76647702883622,
,,,,,10,0,10,0,3,0,3,0,,,,,,,,,,,,,,,,up,125,10,0.002285440948074376,-1,0,-1,-10,1110.777291066541,None,1109.744217199972,1110.0810434999876,1110.7305209999904,1111.0816366998479,None,None,up,1,1.5686120998580009,1109.8112009000033,None,None,None,,,,,,,luctew,001,0,fr,2022-05-12_14h32.56.232,3-AFC_adaptive_staircase_mess,2022.1.1,34.76647702883622,
,,,,,10,0,10,0,4,0,4,0,,,,,,,,,,,,,,,,left,125,0,0.000722719885372964,-1,0,-1,-10,1112.9616636664762,None,1112.9126991999801,1113.246146199992,1113.911917499965,1114.247768299887,1114.902248099912,1115.248978199903,up,0,4.010405500186607,1112.9766297999304,None,1115.4596040998586,None,,,,,,,luctew,001,0,fr,2022-05-12_14h32.56.232,3-AFC_adaptive_staircase_mess,2022.1.1,34.76647702883622,
,,,,,10,0,10,0,5,0,5,0,,,,,,,,,,,,,,,,left,125,5,0.0012851978913844323,1,1,1,5,1118.5630481665178,None,1118.5463814998511,1118.8915389999747,None,None,None,None,left,1,0.8208971999119967,1118.5754008998629,None,None,None,,,,,,,luctew,001,0,fr,2022-05-12_14h32.56.232,3-AFC_adaptive_staircase_mess,2022.1.1,34.76647702883622,
,,,,,10,0,10,0,6,0,6,0,,,,,,,,,,,,,,,,left,125,5,0.0012851978913844323,1,1,1,5,1120.9924936665377,None,1120.9467797998805,1121.2747922998387,None,None,None,None,left,1,0.587226799922064,1121.0081126999576,None,None,None,,,,,,,luctew,001,0,fr,2022-05-12_14h32.56.232,3-AFC_adaptive_staircase_mess,2022.1.1,34.76647702883622,
,,,,,10,0,10,0,7,0,7,0,,,,,,,,,,,,,,,,right,125,-5,0.00040641525808204974,-1,2,-1,-5.0,1125.1299518666385,None,1123.0879654998425,1123.4209255999885,1124.1016090000048,1124.4264872998465,1125.0843144999817,1125.428979899967,right,1,2.928626799955964,1123.1478510999586,None,1125.649433299899,None,,,,,,,luctew,001,0,fr,2022-05-12_14h32.56.232,3-AFC_adaptive_staircase_mess,2022.1.1,34.76647702883622,
,,,,,10,0,10,0,8,0,8,0,,,,,,,,,,,,,,,,right,125,-5,0.00040641525808204974,-1,2,-1,-5.0,1129.6373808666287,None,1127.5872661999892,1127.9286884998437,1128.5827643999364,1128.8980632999446,1129.5904015998822,1129.9195518000051,left,0,2.790842599933967,1127.645270699868,None,1130.165843699826,None,,,,,,,luctew,001,0,fr,2022-05-12_14h32.56.232,3-AFC_adaptive_staircase_mess,2022.1.1,34.76647702883622,
,,,,,10,0,10,0,9,0,9,0,,,,,,,,,,,,,,,,right,125,-2.5,0.000541963457010602,1,3,1,2.5,1133.9841357665757,None,1131.9370841998607,1132.258621999994,1132.943365499843,1133.2694220999256,1133.9349964999128,1134.2767929998226,right,1,2.7446207001339644,1132.0026270998642,None,1134.5016607998405,None,,,,,,,luctew,001,0,fr,2022-05-12_14h32.56.232,3-AFC_adaptive_staircase_mess,2022.1.1,34.76647702883622,
,,,,,10,0,10,0,10,0,10,0,,,,,,,,,,,,,,,,up,125,-2.5,0.000541963457010602,1,3,1,2.5,1137.2911096665232,1137.5197669998743,1136.2717591999099,1136.5976026998833,1137.2744429998565,1137.6109038998839,1138.269663799787,None,up,1,2.2443264999892563,1136.3042177997995,None,None,None,,,,,,,luctew,001,0,fr,2022-05-12_14h32.56.232,3-AFC_adaptive_staircase_mess,2022.1.1,34.76647702883622,
,,,,,10,0,10,0,11,0,11,0,,,,,,,,,,,,,,,,up,125,-7.5,0.0003047684486200847,-1,4,-1,-5.0,1141.1374405665013,None,1140.0842484999448,1140.4274606998079,1141.0872886998113,1141.4195649998728,1142.082761499798,1142.411357600009,up,1,3.6053020998369902,1140.1427749998402,None,1142.6503510999028,None,,,,,,,luctew,001,0,fr,2022-05-12_14h32.56.232,3-AFC_adaptive_staircase_mess,2022.1.1,34.76647702883622,
,,,,,10,0,10,0,12,0,12,0,,,,,,,,,,,,,,,,left,125,-7.5,0.0003047684486200847,-1,4,-1,-5.0,1145.3135208665083,None,1145.266726099886,1145.5838136000093,1146.285125499824,1146.6172600998543,1147.2699135998264,1147.6161754999775,right,0,3.20628449996002,1145.326164699858,None,1147.8266155999154,None,,,,,,,luctew,001,0,fr,2022-05-12_14h32.56.232,3-AFC_adaptive_staircase_mess,2022.1.1,34.76647702883622,
,,,,,10,0,10,0,13,0,13,0,,,,,,,,,,,,,,,,up,125,-5.0,0.00040641525808204974,1,5,1,2.5,1151.1039185666634,None,1150.0531516999472,1150.3881492000073,1151.0541975998785,1151.37027139985,1152.0552499999758,1152.38944910001,left,0,2.9188213001471013,1150.117927499814,None,1152.6105334998574,None,,,,,,,luctew,001,0,fr,2022-05-12_14h32.56.232,3-AFC_adaptive_staircase_mess,2022.1.1,34.76647702883622,
,,,,,10,0,10,0,14,0,14,0,,,,,,,,,,,,,,,,left,125,-2.5,0.000541963457010602,1,5,1,2.5,1154.6083398664525,None,1154.5587371999864,1154.8948274999857,1155.559660699917,1155.8915189998224,1156.5579859998543,1156.890545199858,up,0,3.7872750000096858,1154.6247933998238,None,1157.1005623999517,None,,,,,,,luctew,001,0,fr,2022-05-12_14h32.56.232,3-AFC_adaptive_staircase_mess,2022.1.1,34.76647702883622,
,,,,,10,0,10,0,15,0,15,0,,,,,,,,,,,,,,,,up,125,0.0,0.000722719885372964,1,5,1,2.5,1160.9631240666533,None,1159.9436222999357,1160.2751287999563,1160.9464573999867,1161.26511079981,1161.9334493998904,1162.2653133999556,up,1,2.933980700094253,1159.9734821999446,None,1162.4696559999138,None,,,,,,,luctew,001,0,fr,2022-05-12_14h32.56.232,3-AFC_adaptive_staircase_mess,2022.1.1,34.76647702883622,
,,,,,10,0,10,0,16,0,16,0,,,,,,,,,,,,,,,,left,125,0.0,0.000722719885372964,1,5,1,2.5,1164.486706066473,None,1164.4412331997883,1164.7763116999995,1165.43505729991,1165.7448406999465,1166.4481817998458,1166.7707819999196,up,0,2.924414899898693,1164.5032129997853,None,1167.0101091999095,None,,,,,,,luctew,001,0,fr,2022-05-12_14h32.56.232,3-AFC_adaptive_staircase_mess,2022.1.1,34.76647702883622,
,,,,,10,0,10,0,17,0,17,0,,,,,,,,,,,,,,,,up,125,2.5,0.0009637624565954683,1,5,1,2.5,1169.9645882666266,None,1168.9295514000114,1169.2642206999008,1169.94792159996,1170.2735669999383,1170.9410419999622,1171.2758845000062,left,0,2.9885109001770616,1168.9918315999676,None,1171.494169899961,None,,,,,,,luctew,001,0,fr,2022-05-12_14h32.56.232,3-AFC_adaptive_staircase_mess,2022.1.1,34.76647702883622,
,,,,,10,0,10,0,18,0,18,0,,,,,,,,,,,,,,,,left,125,5.0,0.0012851978913844323,1,5,1,2.5,1173.5164944665196,None,1173.471619799966,1173.8141388997901,1174.4736782999244,1174.8129229999613,1175.4871953998227,1175.8109685999807,left,1,4.033890199847519,1173.5305918999948,None,1176.0223246999085,None,,,,,,,luctew,001,0,fr,2022-05-12_14h32.56.232,3-AFC_adaptive_staircase_mess,2022.1.1,34.76647702883622,
,,,,,10,0,10,0,19,0,19,0,,,,,,,,,,,,,,,,right,125,5.0,0.0012851978913844323,1,5,1,2.5,1181.105410766617,None,1179.0799459998962,1179.4171225999016,1180.0711800998542,1180.416840699967,1181.0887440999504,1181.4214423999656,up,0,3.299022499937564,1179.136819300009,None,1181.645266099833,None,,,,,,,luctew,001,0,fr,2022-05-12_14h32.56.232,3-AFC_adaptive_staircase_mess,2022.1.1,34.76647702883622,
,,,,,10,0,10,0,20,0,20,0,,,,,,,,,,,,,,,,left,125,7.5,0.0017138389327322524,1,5,1,2.5,1184.0028088666188,None,1183.9527322999202,1184.2947503000032,1184.9566776999272,1185.2939121997915,1185.9628014999907,1186.2968021999113,up,0,2.984382800059393,1184.0197106997948,None,1186.494342799997,None,,,,,,,luctew,001,0,fr,2022-05-12_14h32.56.232,3-AFC_adaptive_staircase_mess,2022.1.1,34.76647702883622,
,,,,,10,0,10,0,21,0,21,0,,,,,,,,,,,,,,,,up,125,10.0,0.002285440948074376,1,5,1,2.5,1189.5822737664605,None,1188.5461248999927,1188.875672499882,1189.5309042998124,1189.8625795999542,None,None,up,1,1.7169007000047714,1188.5762266998645,None,None,None,,,,,,,luctew,001,0,fr,2022-05-12_14h32.56.232,3-AFC_adaptive_staircase_mess,2022.1.1,34.76647702883622,
,,,,,10,0,10,0,22,0,22,0,,,,,,,,,,,,,,,,left,125,10.0,0.002285440948074376,1,5,1,2.5,1191.845098266673,None,1191.7958407998085,1192.1364109998103,None,None,None,None,left,1,0.5992442998103797,1191.8610417000018,None,None,None,,,,,,,luctew,001,0,fr,2022-05-12_14h32.56.232,3-AFC_adaptive_staircase_mess,2022.1.1,34.76647702883622,
,,,,,10,0,10,0,23,0,23,0,,,,,,,,,,,,,,,,right,125,5.0,0.0012851978913844323,-1,6,-1,-5.0,1196.0026507664627,None,1193.9691379999276,1194.307606899878,1194.9791721999645,1195.2969460999593,1195.95621199999,1196.3002545000054,right,1,3.0741908999625593,1194.0415228998754,None,1196.513317399891,None,,,,,,,luctew,001,0,fr,2022-05-12_14h32.56.232,3-AFC_adaptive_staircase_mess,2022.1.1,34.76647702883622,
,,,,,,,,,,,,,,,,,,,,,,,,,,,,,,,,,,,,,,,,,,,,,,,,,,,space,7.246853000018746,1198.2059949999675,None,1198.2059949999675,None,,,,,,,,,
