tTrials.thisRepN,tTrials.thisTrialN,tTrials.thisN,tTrials.thisIndex,blocks.thisRepN,blocks.thisTrialN,blocks.thisN,blocks.thisIndex,trials.thisRepN,trials.thisTrialN,trials.thisN,trials.thisIndex,tStart_text.started,tStart_text.stopped,Prediction,practice_Frequency,practice_Level,practice_Psychopy_Level,practice_isCatchTrial,Practice_trial_detection,practice_Cue_Delays,practice_Cue_Frequencies,practice_Interval,practice_Cue_Intensities,tCue_visual_cue.started,tCue_visual_cue.stopped,tProbe_visual_cue.started,tProbe_visual_cue.stopped,tFeedback.keys,tFeedback.corr,tFeedback.started,tFeedback.stopped,tToo_late.keys,tToo_late.corr,tToo_early.keys,tToo_early.corr,more_instructions.started,more_instructions.stopped,readyy.keys,readyy.rt,readyy.started,readyy.stopped,txt_rhythm.started,txt_rhythm.stopped,sound_1.started,sound_1.stopped,sound_2.started,sound_2.stopped,sound_3.started,sound_3.stopped,sound_4.started,sound_4.stopped,cross.started,cross.stopped,sound_5.started,sound_5.stopped,circle.started,circle.stopped,rhythm_ready.keys,rhythm_ready.rt,rhythm_ready.started,rhythm_ready.stopped,rhytm_ready_txt.started,rhytm_ready_txt.stopped,txt_freq.started,txt_freq.stopped,sound_6.started,sound_6.stopped,sound_7.started,sound_7.stopped,sound_8.started,sound_8.stopped,sound_9.started,sound_9.stopped,cross_2.started,cross_2.stopped,sound_10.started,sound_10.stopped,circle_2.started,circle_2.stopped,freq_ready.keys,freq_ready.rt,freq_ready.started,freq_ready.stopped,freq_ready_txt.started,freq_ready_txt.stopped,txt_freq_2.started,txt_freq_2.stopped,sound_11.started,sound_11.stopped,sound_12.started,sound_12.stopped,sound_13.started,sound_13.stopped,sound_14.started,sound_14.stopped,cross_3.started,cross_3.stopped,sound_15.started,sound_15.stopped,circle_3.started,circle_3.stopped,freq_ready_2.keys,freq_ready_2.rt,freq_ready_2.started,freq_ready_2.stopped,freq_ready_txt_2.started,freq_ready_txt_2.stopped,txt_freq_3.started,txt_freq_3.stopped,sound_16.started,sound_16.stopped,sound_17.started,sound_17.stopped,sound_18.started,sound_18.stopped,sound_19.started,sound_19.stopped,cross_4.started,cross_4.stopped,sound_20.started,sound_20.stopped,circle_4.started,circle_4.stopped,freq_ready_txt_3.started,freq_ready_txt_3.stopped,tStart_text_2.started,tStart_text_2.stopped,this_trial_is.started,this_trial_is.stopped,API_start,API_stop,API_duration,Frequency,Level,Psychopy_Level,Real trial detection,Cue Delays,Cue Frequencies,Interval,Cue Intensities,Catch trial,cue_visual_cue.started,cue_visual_cue.stopped,probe_visual_cue.started,probe_visual_cue.stopped,feedback.keys,feedback.corr,feedback.rt,feedback.started,feedback.stopped,answer_too_late.keys,answer_too_late.corr,answer_too_early.keys,answer_too_early.corr,answer_too_early.rt,Catch trial answer,Audiogram_none,Audiogram_frequency,Audiogram_time,Audiogram_both,goodbye_text.started,goodbye_text.stopped,key_resp.keys,key_resp.rt,key_resp.started,key_resp.stopped,participant,session,Language (english or french),Skip training? (1 for yes),Resume previous experiment,date,expName,psychopyVersion,frameRate,
0,0,0,0,,,,,,,,,None,None,both,1000,30,0.0013930605843148849,False,0,"[0.5779952073766677, 0.5779952073766677, 0.5779952073766677, 0.5779952073766677]","[198.42513149602496, 297.3017787506803, 445.4493590701697, 667.4199270850172]",Perfect_5th,"[30, 30, 30, 30]",None,None,None,None,None,0,None,None,None,1,None,1,,,,,,,,,,,,,,,,,,,,,,,,,,,,,,,,,,,,,,,,,,,,,,,,,,,,,,,,,,,,,,,,,,,,,,,,,,,,,,,,,,,,,,,,,,,,,,,,,,,,,,,,,,,,,,,,,,,,,,,,,,,,,,,,,,,,eqdcwr,001,english,1,1,2022-04-21_14h24.15.215,Cluster,2022.1.1,None,
1,0,1,0,,,,,,,,,,,none,2500,30,0.002716251657462167,False,0,"[0.4488903100242338, 0.6470111582447101, 0.48933933258021656, 0.4059081878102553]","[1851.5797681648996, 3780.4887841746786, 1401.945878591294, 3590.1354771657693]",None,"[30, 30, 30, 30]",None,None,None,None,None,0,None,None,None,1,None,1,,,,,,,,,,,,,,,,,,,,,,,,,,,,,,,,,,,,,,,,,,,,,,,,,,,,,,,,,,,,,,,,,,,,,,,,,,,,,,,,,,,,,,,,,,,,,,,,,,,,,,,,,,,,,,,,,,,,,,,,,,,,,,,,,,,,eqdcwr,001,english,1,1,2022-04-21_14h24.15.215,Cluster,2022.1.1,None,
2,0,2,0,,,,,,,,,,,time,6000,30,0.003664122665694519,True,0,"[0.4753160406392443, 0.4753160406392443, 0.4753160406392443, 0.4753160406392443]","[7655.610438516332, 1159.5180589929444, 244.05642897883757, 514.2005952757909]",None,"[30, 30, 30, 30]",None,None,None,None,None,1,None,None,None,1,None,1,,,,,,,,,,,,,,,,,,,,,,,,,,,,,,,,,,,,,,,,,,,,,,,,,,,,,,,,,,,,,,,,,,,,,,,,,,,,,,,,,,,,,,,,,,,,,,,,,,,,,,,,,,,,,,,,,,,,,,,,,,,,,,,,,,,,eqdcwr,001,english,1,1,2022-04-21_14h24.15.215,Cluster,2022.1.1,None,
3,0,3,0,,,,,,,,,,,frequency,440,30,0.0023562289915021436,False,1,"[0.5028330861323488, 0.5851795678683369, 0.6341808995079738, 0.7399502936507614]","[174.614115716502, 220.00000000000006, 277.18263097687213, 349.2282314330039]",Major_3rd,"[30, 30, 30, 30]",None,None,None,None,None,0,None,None,None,1,None,1,,,,,,,,,,,,,,,,,,,,,,,,,,,,,,,,,,,,,,,,,,,,,,,,,,,,,,,,,,,,,,,,,,,,,,,,,,,,,,,,,,,,,,,,,,,,,,,,,,,,,,,,,,,,,,,,,,,,,,,,,,,,,,,,,,,,eqdcwr,001,english,1,1,2022-04-21_14h24.15.215,Cluster,2022.1.1,None,
4,0,4,0,,,,,,,,,,,time,250,30,0.005296268625886445,True,0,"[0.7641254855067168, 0.7641254855067168, 0.7641254855067168, 0.7641254855067168]","[6422.81532650037, 6353.273312049241, 254.41014555132793, 299.1683797136673]",None,"[30, 30, 30, 30]",None,None,None,None,None,1,None,None,None,1,None,1,,,,,,,,,,,,,,,,,,,,,,,,,,,,,,,,,,,,,,,,,,,,,,,,,,,,,,,,,,,,,,,,,,,,,,,,,,,,,,,,,,,,,,,,,,,,,,,,,,,,,,,,,,,,,,,,,,,,,,,,,,,,,,,,,,,,eqdcwr,001,english,1,1,2022-04-21_14h24.15.215,Cluster,2022.1.1,None,
,,,,,,,,,,,,,,,,,,,,,,,,,,,,,,,,,,,,59.64926379988901,None,space,29.29118230007589,59.64926379988901,None,,,,,,,,,,,,,,,,,,,,,,,,,,,,,,,,,,,,,,,,,,,,,,,,,,,,,,,,,,,,,,,,,,,,,,,,,,,,,,,,,,,,,,,,,,,,,,,,,,,,,,,,,,,,,,,,,,,,,,,,,,,,,,eqdcwr,001,english,1,1,2022-04-21_14h24.15.215,Cluster,2022.1.1,None,
,,,,,,,,,,,,,,,,,,,,,,,,,,,,,,,,,,,,,,,,,,88.97775169997476,90.00652099982835,90.45588406670528,90.68699219985865,90.94439976668606,None,91.45640316658343,91.68736510002054,91.95381166652466,None,90.37187569984235,92.1906844000332,92.44852246652978,None,92.1906844000332,93.00778109999374,space,1.014681200031191,93.17494249995798,None,,,,,,,,,,,,,,,,,,,,,,,,,,,,,,,,,,,,,,,,,,,,,,,,,,,,,,,,,,,,,,,,,,,,,,,,,,,,,,,,,,,,,,,,,,,,,,,,,,,,,,,,,,eqdcwr,001,english,1,1,2022-04-21_14h24.15.215,Cluster,2022.1.1,None,
,,,,,,,,,,,,,,,,,,,,,,,,,,,,,,,,,,,,,,,,,,,,,,,,,,,,,,,,,,,,,,93.17494249995798,None,94.25365389999934,95.27710329997353,95.71291166666585,None,96.01267636666695,None,96.72867696668642,96.95703239995055,97.12767886656026,97.3571185998153,95.6394575999584,97.46368939988315,97.72650296666349,None,97.46368939988315,98.28045809990726,space,0.4444073000922799,98.44945359998383,None,,,,,,,,,,,,,,,,,,,,,,,,,,,,,,,,,,,,,,,,,,,,,,,,,,,,,,,,,,,,,,,,,,,,,,,,,,,,,,,,,,,,eqdcwr,001,english,1,1,2022-04-21_14h24.15.215,Cluster,2022.1.1,None,
,,,,,,,,,,,,,,,,,,,,,,,,,,,,,,,,,,,,,,,,,,,,,,,,,,,,,,,,,,,,,,,,,,,,,,,,,,,,,,,,,,,,98.44945359998383,None,98.95471940003335,99.9828313998878,100.43982296652781,None,100.93437816651227,101.16440199990757,101.4336854664764,None,101.93440936651702,102.16506729996763,100.33453679992817,102.16506729996763,102.43908596650387,None,102.16506729996763,102.9919294998981,space,0.951442199992016,103.14202299993485,None,,,,,,,,,,,,,,,,,,,,,,,,,,,,,,,,,,,,,,,,,,,,,,,,,,,,,,,,,,,,,,eqdcwr,001,english,1,1,2022-04-21_14h24.15.215,Cluster,2022.1.1,None,
,,,,0,0,0,0,0,0,0,0,,,both,,,,,,,,,,,,,,,,,,,,,,,,,,,,,,,,,,,,,,,,,,,,,,,,,,,,,,,,,,,,,,,,,,,,,,,,,,,,,,,,,,,,,,,,,,,,103.14202299993485,None,104.15706709981896,105.18815439986065,105.63747396652276,105.86894940002821,105.91618686664539,None,106.63901786652083,106.86979809985496,107.0383589666492,None,105.55370629997924,107.32909130002372,107.61377016670691,None,107.32909130002372,108.15641049994156,108.34829699993134,None,None,None,109.39748129993677,None,1650543917.9959784,1650543920.0715382,2.0755598545074463,1231.1444133449168,5.0,9.553014735722362e-05,1,"[0.758383512023591, 0.758383512023591, 0.758383512023591, 0.758383512023591]","[3102.2895236674703, 2462.2888266898335, 1954.3199368684927, 1551.1447618337352]",Major_3rd,"[0.1755438318443634, 1.836466042985346, 6.0, 9.6570143092373]",False,112.45401269989088,115.7660505999811,115.7660505999811,117.00411299988627,['space'],1,[0.246828299947083],4.070121233351529,5.09978313324973,None,1,['space'],0,[-7.976711899973452],,,,,,,,,,,,eqdcwr,001,english,1,1,2022-04-21_14h24.15.215,Cluster,2022.1.1,None,
,,,,0,0,0,0,1,0,1,0,,,frequency,,,,,,,,,,,,,,,,,,,,,,,,,,,,,,,,,,,,,,,,,,,,,,,,,,,,,,,,,,,,,,,,,,,,,,,,,,,,,,,,,,,,,,,,,,,,,,,,,,,,,,,,,,,,,,,,,,118.60554519994184,None,1650543927.2532005,1650543929.7514315,2.4982309341430664,125.0,-3.0,0.0005116464961403772,1,"[0.5269703019085057, 0.7340152074709689, 0.41491431544469964, 0.7322345791936684]","[198.42513149602502, 176.77669529663694, 157.49013123685918, 140.30775603867164]",Tone,"[2.895042193204213, 3.1083421672832143, 3.6893224035748413, 4.014491229490316]",False,122.16851869993843,124.87753589986823,124.87753589986823,126.1098209999036,['space'],1,[0.017367100110277534],3.428681999910623,4.450533000053838,None,1,None,1,,,,,,,,,,,,,eqdcwr,001,english,1,1,2022-04-21_14h24.15.215,Cluster,2022.1.1,None,
,,,,0,0,0,0,2,0,2,0,,,frequency,,,,,,,,,,,,,,,,,,,,,,,,,,,,,,,,,,,,,,,,,,,,,,,,,,,,,,,,,,,,,,,,,,,,,,,,,,,,,,,,,,,,,,,,,,,,,,,,,,,,,,,,,,,,,,,,,,127.6735354999546,None,,,,140.31296616055388,1.721325347192102,0.000714914052624418,1,"[0.5212435129279908, 0.7651585731506785, 0.6902986236462731, 0.6941036759475858]","[222.73295008804163, 198.43249972105247, 176.78325963886888, 157.49597940093906]",Tone,"[3.0952451234517246, 2.895042193204213, 3.1083421672832143, 3.6893224035748413]",False,128.66915569989942,131.68311679991893,131.68311679991893,132.91324749984778,['space'],1,[0.6082804999314249],3.7145253664348274,4.744714266620576,None,1,None,1,,,,,,,,,,,,,eqdcwr,001,english,1,1,2022-04-21_14h24.15.215,Cluster,2022.1.1,None,
,,,,0,0,0,0,3,0,3,0,,,both,,,,,,,,,,,,,,,,,,,,,,,,,,,,,,,,,,,,,,,,,,,,,,,,,,,,,,,,,,,,,,,,,,,,,,,,,,,,,,,,,,,,,,,,,,,,,,,,,,,,,,,,,,,,,,,,,,134.44814019999467,None,,,,,,,,"[0.6734108945717119, 0.6734108945717119, 0.6734108945717119, 0.6734108945717119]","[491.14624586659596, 389.8230336794332, 309.4027468720835, 245.57312293329795]",Major_3rd,"[2.0, 5.0, 6.059135077977032, 4.0]",True,135.470975499833,138.52213129983284,138.52213129983284,139.74226959981024,None,1,,3.7197648666333407,4.750051366630942,None,1,None,1,,0,,,,,,,,,,,eqdcwr,001,english,1,1,2022-04-21_14h24.15.215,Cluster,2022.1.1,None,
,,,,0,0,0,0,4,0,4,0,,,time,,,,,,,,,,,,,,,,,,,,,,,,,,,,,,,,,,,,,,,,,,,,,,,,,,,,,,,,,,,,,,,,,,,,,,,,,,,,,,,,,,,,,,,,,,,,,,,,,,,,,,,,,,,,,,,,,,141.26463759993203,None,1650543949.9460998,1650543955.6399481,5.693848371505737,353.5533905932738,-4.0,5.591060055563459e-05,1,"[0.4938550854918229, 0.4938550854918229, 0.4938550854918229, 0.4938550854918229]","[6921.11429037052, 802.4033036135395, 2720.647345907033, 242.00851328751125]",None,"[4.774566040266244, 3.464680763121044, 0.9712394348077362, 4.0]",False,147.97033999999985,150.46843419992365,150.46843419992365,151.70318749989383,['space'],1,[0.06746549997478724],2.9929686000104994,4.030236800201237,None,1,None,1,,,,,,,,,,,,,eqdcwr,001,english,1,1,2022-04-21_14h24.15.215,Cluster,2022.1.1,None,
,,,,0,0,0,0,5,0,5,0,,,both,,,,,,,,,,,,,,,,,,,,,,,,,,,,,,,,,,,,,,,,,,,,,,,,,,,,,,,,,,,,,,,,,,,,,,,,,,,,,,,,,,,,,,,,,,,,,,,,,,,,,,,,,,,,,,,,,,153.03028950002044,None,,,,181.6254118816533,0.858204072736978,0.00036687797951625884,1,"[0.5839089499847174, 0.5839089499847174, 0.5839089499847174, 0.5839089499847174]","[457.66735925104285, 363.25082376330664, 288.312369885094, 228.8336796255214]",Major_3rd,"[3.0, 5.893201081980479, 5.596181116739962, 3.5253033140191206]",False,154.02893659984693,156.81122499983758,156.81122499983758,158.0451479998883,['space'],1,[0.29610769986175],3.3540997665841132,4.381416266551241,None,1,None,1,,,,,,,,,,,,,eqdcwr,001,english,1,1,2022-04-21_14h24.15.215,Cluster,2022.1.1,None,
,,,,0,0,0,0,6,0,6,0,,,frequency,,,,,,,,,,,,,,,,,,,,,,,,,,,,,,,,,,,,,,,,,,,,,,,,,,,,,,,,,,,,,,,,,,,,,,,,,,,,,,,,,,,,,,,,,,,,,,,,,,,,,,,,,,,,,,,,,,159.45097199990414,None,1650543968.157365,1650543970.8971152,2.7397501468658447,217.63764082403114,-3.0,0.0001634552883734765,1,"[0.6698861293981968, 0.5682928105745249, 0.7428734777221413, 0.6339825682169553]","[137.1031224618283, 153.8930516681146, 172.7391099959721, 193.89309522921693]",Tone,"[4.216895407745912, 3.6893224035748413, 3.1083421672832143, 2.9238165415902073]",False,163.2030956998933,166.2192997999955,166.2192997999955,167.45185339986347,['space'],1,[0.345093899872154],3.6429065002594143,4.660746700130403,None,1,None,1,,,,,,,,,,,,,eqdcwr,001,english,1,1,2022-04-21_14h24.15.215,Cluster,2022.1.1,None,
,,,,0,0,0,0,7,0,7,0,,,time,,,,,,,,,,,,,,,,,,,,,,,,,,,,,,,,,,,,,,,,,,,,,,,,,,,,,,,,,,,,,,,,,,,,,,,,,,,,,,,,,,,,,,,,,,,,,,,,,,,,,,,,,,,,,,,,,,168.89774699998088,None,,,,242.0152666901957,1.9908723620891844,0.0002303002498493763,1,"[0.7222787669758899, 0.7222787669758899, 0.7222787669758899, 0.7222787669758899]","[661.7221939481715, 1212.583180506002, 1630.187827980154, 127.41711575070893]",None,"[1.858479147960578, 8.0, 9.26681740728439, 4.2409982726429245]",False,169.90866169985384,173.09248049999587,173.09248049999587,174.32763589988463,['space'],1,[0.6039479000028223],3.919551466591656,4.952294766437262,None,1,None,1,,,,,,,,,,,,,eqdcwr,001,english,1,1,2022-04-21_14h24.15.215,Cluster,2022.1.1,None,
,,,,0,0,0,0,8,0,8,0,,,time,,,,,,,,,,,,,,,,,,,,,,,,,,,,,,,,,,,,,,,,,,,,,,,,,,,,,,,,,,,,,,,,,,,,,,,,,,,,,,,,,,,,,,,,,,,,,,,,,,,,,,,,,,,,,,,,,,175.87983979983255,None,,,,,,,,"[0.5537834625347335, 0.5537834625347335, 0.5537834625347335, 0.5537834625347335]","[141.31915322558558, 411.8621101951288, 1577.0828015677344, 5967.421009697293]",None,"[4.014491229490316, 4.450392872957826, 9.26681740728439, 3.8729078284856655]",True,176.8854563999921,179.5659288999159,179.5659288999159,180.80061079980806,['space'],0,[0.10154189984314144],3.252058966550976,4.276864166604355,None,1,None,1,,0,,,,,,,,,,,eqdcwr,001,english,1,1,2022-04-21_14h24.15.215,Cluster,2022.1.1,None,
,,,,0,0,0,0,9,0,9,0,,,frequency,,,,,,,,,,,,,,,,,,,,,,,,,,,,,,,,,,,,,,,,,,,,,,,,,,,,,,,,,,,,,,,,,,,,,,,,,,,,,,,,,,,,,,,,,,,,,,,,,,,,,,,,,,,,,,,,,,182.19328389992006,None,,,,3922.7685424720958,-1.5744816536305093,6.889287572827495e-05,1,"[0.6185876527042022, 0.585086329750276, 0.5006409042639977, 0.7635071937325761]","[6227.006910947966, 5547.632474814577, 4942.378660526025, 4403.1588132268025]",Tone,"[4.0, 3.0, 1.9130873754749476, 1.0]",False,183.18484919983894,185.90673159994185,185.90673159994185,187.14420349989086,['space'],1,[0.6187809999100864],3.494365266757086,4.525770266773179,None,1,None,1,,,,,,,,,,,,,eqdcwr,001,english,1,1,2022-04-21_14h24.15.215,Cluster,2022.1.1,None,
,,,,0,0,0,0,10,0,10,0,,,time,,,,,,,,,,,,,,,,,,,,,,,,,,,,,,,,,,,,,,,,,,,,,,,,,,,,,,,,,,,,,,,,,,,,,,,,,,,,,,,,,,,,,,,,,,,,,,,,,,,,,,,,,,,,,,,,,,188.7483135999646,None,1650543997.5000389,1650544004.423314,6.9232752323150635,125.0,3.0,0.001020868972334765,1,"[0.6211964023969628, 0.6211964023969628, 0.6211964023969628, 0.6211964023969628]","[675.2480973907874, 4404.747726622621, 4191.751621617971, 5120.414138100407]",None,"[2.0, 1.0, 0.8358100735481013, 2.0]",False,196.67912420001812,199.56063709990121,199.56063709990121,200.78791900002398,['space'],1,[0.43400190002284944],3.5088227335363626,4.5425984335597605,None,1,None,1,,,,,,,,,,,,,eqdcwr,001,english,1,1,2022-04-21_14h24.15.215,Cluster,2022.1.1,None,
,,,,0,0,0,0,11,0,11,0,,,time,,,,,,,,,,,,,,,,,,,,,,,,,,,,,,,,,,,,,,,,,,,,,,,,,,,,,,,,,,,,,,,,,,,,,,,,,,,,,,,,,,,,,,,,,,,,,,,,,,,,,,,,,,,,,,,,,,202.26749949995428,None,,,,3736.0639321795184,-1.8449518189695147,6.413042966516912e-05,0,"[0.7418628868692099, 0.7418628868692099, 0.7418628868692099, 0.7418628868692099]","[5018.697289822075, 125.82370301003009, 229.17768324259765, 1089.6792284528183]",None,"[2.0, 4.2409982726429245, 3.5253033140191206, 6.437138982256159]",False,203.27960739983246,206.52950339997187,206.52950339997187,207.7623802998569,None,0,,3.9848414664156735,5.015559566440061,None,1,None,1,,,,,,,,,,,,,eqdcwr,001,english,1,1,2022-04-21_14h24.15.215,Cluster,2022.1.1,None,
,,,,0,0,0,0,12,0,12,0,,,both,,,,,,,,,,,,,,,,,,,,,,,,,,,,,,,,,,,,,,,,,,,,,,,,,,,,,,,,,,,,,,,,,,,,,,,,,,,,,,,,,,,,,,,,,,,,,,,,,,,,,,,,,,,,,,,,,,209.34092579991557,None,1650544018.1189225,1650544020.4742723,2.3553497791290283,6062.8662660415985,-3.0,8.41269401965078e-05,0,"[0.6241766325555382, 0.6241766325555382, 0.6241766325555382, 0.6241766325555382]","[2406.0500721642366, 3031.4331330208, 3819.3664156416708, 4812.100144328472]",Major_3rd,"[2.0, 0.1755438318443634, 0.2889914060118919, 1.9130873754749476]",False,212.70601189997979,215.60440029995516,215.60440029995516,216.83803720003925,None,0,,3.532663966761902,4.555907266680151,None,1,None,1,,,,,,,,,,,,,eqdcwr,001,english,1,1,2022-04-21_14h24.15.215,Cluster,2022.1.1,None,
,,,,0,0,0,0,13,0,13,0,,,both,,,,,,,,,,,,,,,,,,,,,,,,,,,,,,,,,,,,,,,,,,,,,,,,,,,,,,,,,,,,,,,,,,,,,,,,,,,,,,,,,,,,,,,,,,,,,,,,,,,,,,,,,,,,,,,,,,218.31186389992945,None,,,,5752.607525273611,1.023680516435863,0.0001406269401082143,0,"[0.5965994060969013, 0.5965994060969013, 0.5965994060969013, 0.5965994060969013]","[1141.4619046474386, 1710.2604497183931, 2562.4953351153645, 3839.4048950668343]",Perfect_5th,"[7.374753143792167, 8.426474349612413, 1.0, 0.2889914060118919]",False,219.32862419984303,222.14448180003092,222.14448180003092,223.3796287998557,None,0,,3.4194635667372495,4.450491366675124,None,1,None,1,,,,,,,,,,,,,eqdcwr,001,english,1,1,2022-04-21_14h24.15.215,Cluster,2022.1.1,None,
,,,,0,0,0,0,14,0,14,0,,,frequency,,,,,,,,,,,,,,,,,,,,,,,,,,,,,,,,,,,,,,,,,,,,,,,,,,,,,,,,,,,,,,,,,,,,,,,,,,,,,,,,,,,,,,,,,,,,,,,,,,,,,,,,,,,,,,,,,,224.8271349000279,None,1650544033.6257083,1650544036.6093743,2.983665943145752,164.93848884661182,-8.0,0.00015651004536898976,0,"[0.5348977923524645, 0.6688027400375115, 0.6924643974499423, 0.74154437795096]","[415.6189480713941, 329.8769776932237, 261.82353070515677, 207.809474035697]",Major_3rd,"[4.0, 6.159795749040223, 4.941271169810042, 3.0]",False,228.81612969981506,231.75396210001782,231.75396210001782,232.98791070003062,None,0,,3.673826200189069,4.702350600156933,None,1,['space'],0,[0.5308725000359118],,,,,,,,,,,,eqdcwr,001,english,1,1,2022-04-21_14h24.15.215,Cluster,2022.1.1,None,
,,,,0,0,0,0,15,0,15,0,,,none,,,,,,,,,,,,,,,,,,,,,,,,,,,,,,,,,,,,,,,,,,,,,,,,,,,,,,,,,,,,,,,,,,,,,,,,,,,,,,,,,,,,,,,,,,,,,,,,,,,,,,,,,,,,,,,,,,234.53781319991685,None,,,,,,,,"[0.7231116004445465, 0.7470268991719207, 0.5311534634356241, 0.4621661267969004]","[2245.043936196602, 1051.916799005735, 3882.946675605589, 371.3297403200717]",None,"[3.034886487796405, 6.0, 0.4940193753806348, 5.289027767580068]",True,235.55116709996946,238.5954875999596,238.5954875999596,239.82946799998172,['space'],0,[0.7124015998560935],3.483033766504377,4.516336566535756,None,1,None,1,,0,,,,,,,,,,,eqdcwr,001,english,1,1,2022-04-21_14h24.15.215,Cluster,2022.1.1,None,
,,,,0,0,0,0,16,0,16,0,,,both,,,,,,,,,,,,,,,,,,,,,,,,,,,,,,,,,,,,,,,,,,,,,,,,,,,,,,,,,,,,,,,,,,,,,,,,,,,,,,,,,,,,,,,,,,,,,,,,,,,,,,,,,,,,,,,,,,241.10282679996453,None,1650544049.932234,1650544052.4130914,2.4808573722839355,2143.5469250725882,-8.0,3.104990166673467e-05,0,"[0.6664414834435077, 0.6664414834435077, 0.6664414834435077, 0.6664414834435077]","[3402.668643803426, 3031.4331330207992, 2700.6998923363826, 2406.0500721642356]",Tone,"[0.17184970796578725, 0.1755438318443634, 0.9712394348077362, 2.0]",False,244.5962660999503,247.6384148998186,247.6384148998186,248.8724183999002,None,0,,3.6972546332981437,4.74173693312332,None,1,None,1,,,,,,,,,,,,,eqdcwr,001,english,1,1,2022-04-21_14h24.15.215,Cluster,2022.1.1,None,
,,,,0,0,0,0,17,0,17,0,,,none,,,,,,,,,,,,,,,,,,,,,,,,,,,,,,,,,,,,,,,,,,,,,,,,,,,,,,,,,,,,,,,,,,,,,,,,,,,,,,,,,,,,,,,,,,,,,,,,,,,,,,,,,,,,,,,,,,250.3768477998674,None,1650544059.2250178,1650544063.1230786,3.8980607986450195,1515.7165665103996,7.0,0.00011110835468957442,1,"[0.5493886772884528, 0.7916784832916596, 0.6359364097028937, 0.6530248692156824]","[132.97645742842903, 630.0940900392179, 427.2027186373236, 5038.889125307486]",None,"[4.216895407745912, 1.493318367043476, 4.0, 2.0]",False,255.29000799986534,258.2826369998511,258.2826369998511,259.51848169998266,['space'],1,[0.45000509987585247],3.6532959998585284,4.677405399968848,None,1,None,1,,,"{'estimation': [[125.0, -0.5834088295274563], [130.66264756213286, -1.0], [133.9716828170366, -1.2312475461661931], [143.5872943746293, -1.8494035184435278], [146.56326279018012, -2.0], [153.89305166811442, -2.360099231451933], [164.93848884661162, -2.6679559686719854], [176.77669529663666, -2.7347250019817255], [189.46457081379947, -2.5559207289924437], [203.0630990890585, -2.168511571505109], [207.56104390249482, -2.0], [217.6376408240306, -1.6350616253272978], [233.25824788420132, -1.0455926281343961], [234.50978284720284, -1.0], [249.99999999999937, -0.46001690292776665], [265.297855109265, 0.0], [267.94336563407256, 0.07762054072146363], [287.1745887492579, 0.5501514220522693], [307.78610333622805, 0.9783391558756196], [308.8991490507026, 1.0], [329.87697769322244, 1.3877987894738624], [353.55339059327247, 1.8084584167334967], [363.72859188271667, 2.0], [378.929141627598, 2.2750145580622796], [406.12619817811606, 2.7858083027604468], [416.9562044364434, 3.0], [435.2752816480601, 3.3468099485494873], [466.51649576840094, 3.9154336893466124], [471.6401186919498, 4.0], [499.9999999999975, 4.444699135434587], [535.8867312681438, 4.849148708908127], [564.8268981564195, 5.0], [574.3491774985143, 5.048757923165177], [595.3776814697324, 5.0], [615.5722066724546, 4.955364098048648], [659.753955386444, 4.5334703581765545], [693.2672105042916, 4.0], [707.1067811865431, 3.789046545343779], [748.1808382457732, 3.0], [757.8582832551941, 2.8227063089944773], [801.0575553112603, 2.0], [812.2523963562301, 1.7971532734037126], [865.3078854898998, 1.0], [870.5505632961181, 0.9240688395227673], [933.0329915368008, 0.4145827676049795], [999.9999999999926, 0.42287060047319647], [1070.7891493809846, 1.0], [1071.773462536285, 1.0078635510495446], [1142.2435439762737, 2.0], [1148.698354997026, 2.0885014448765777], [1202.874852299439, 3.0], [1231.1444133449063, 3.4641220402569726], [1265.0110288160024, 4.0], [1319.5079107728816, 4.855629268965794], [1331.7272082903194, 5.0], [1414.2135623730828, 5.958965807391989], [1421.394355454981, 6.0], [1515.7165665103828, 6.519879287980617], [1624.5047927124563, 6.399408869855156], [1680.8671636124934, 6.0], [1741.1011265922318, 5.595475020998137], [1794.711148242444, 5.0], [1866.065983073597, 4.2505158468785815], [1885.7619704733995, 4.0], [1964.1855297327152, 3.0], [1999.9999999999802, 2.579122516411183], [2047.3554870593048, 2.0], [2129.5702503769644, 1.0], [2143.5469250725646, 0.841814001408249], [2224.2494963916106, 0.0], [2297.396709994046, -0.7409874392842319], [2330.1576096670115, -1.0], [2457.2830630515814, -2.0], [2462.2888266898094, -2.0382183740528075], [2639.01582154576, -2.9924183370819564], [2641.1746102667526, -3.0], [2828.427124746159, -3.631604586259116], [3024.785086964324, -4.0], [3031.4331330207656, -4.0123278943025555], [3249.0095854249043, -4.1984947129070465], [3482.2022531844555, -4.213140626095768], [3732.1319661471844, -4.051327566560632], [3768.0597894348257, -4.0], [3999.9999999999504, -3.688106523401604], [4287.093850145118, -3.1011216363857237], [4323.270718427128, -3.0], [4594.7934199880865, -2.2885485610905203], [4687.039526934567, -2.0], [4924.577653379607, -1.2933235567456656], [5016.765977754688, -1.0], [5278.031643091513, -0.1983058098797994], [5345.318912438135, 0.0], [5656.854249492303, 0.8929667896378466], [5699.876489379243, 1.0], [6062.866266041516, 1.875219041546441], [6129.127189097967, 2.0], [6498.019170849792, 2.66685058168223], [6774.4046770381465, 3.0], [6964.404506368894, 3.221841640909286], [7464.2639322943505, 3.5189897795877707], [7999.999999999882, 3.5847036448157468]], 'plus_line': [[125.0, -3.4753663084640474], [133.3856357763565, -4.0], [133.9716828170366, -4.038138789516973], [143.5872943746293, -4.695571130408615], [149.80269713693852, -5.0], [153.89305166811442, -5.213109690099169], [164.93848884661162, -5.502734800026971], [176.77669529663666, -5.522443612995362], [189.46457081379947, -5.304559281978043], [199.0996592069592, -5.0], [203.0630990890585, -4.891493054526336], [217.6376408240306, -4.388404677200112], [227.61354352270976, -4.0], [233.25824788420132, -3.801224525097673], [249.99999999999923, -3.2328314684744477], [257.358044616691, -3.0], [267.94336563407256, -2.7017455168542273], [287.1745887492579, -2.2354907303263998], [298.0694125320143, -2.0], [307.78610333622805, -1.8152810259154375], [329.87697769322244, -1.4397684598241618], [353.55339059327247, -1.0204287977421593], [354.6222255466238, -1.0], [378.929141627598, -0.5976378542972085], [406.12619817811606, -0.07746969365828425], [409.76645346839035, 0.0], [435.2752816480601, 0.4751953654065014], [461.5321625873214, 1.0], [466.5164957684015, 1.0893651230676302], [499.9999999999975, 1.6361291262150885], [527.7390221587412, 2.0], [535.8867312681438, 2.0928369301090775], [574.3491774985143, 2.303578112774513], [615.5722066724546, 2.2303504236382627], [640.6990367664614, 2.0], [659.7539553864432, 1.8156458069786716], [707.1067811865431, 1.1014424976393982], [712.3853033343399, 1.0], [757.8582832551941, 0.1538665164794898], [765.9122606878387, 0.0], [812.2523963562301, -0.8584297501968646], [821.4951766726, -1.0], [870.5505632961181, -1.7491040018451918], [900.0214880584423, -2.0], [933.0329915368008, -2.303973934418676], [999.9999999999926, -2.3474712318226025], [1043.7683263966278, -2.0], [1071.773462536285, -1.7985615662085248], [1129.759545076621, -1.0], [1148.698354997026, -0.7441074335282386], [1194.2381511544368, 0.0], [1231.1444133449063, 0.6197064397891823], [1255.6900813477641, 1.0], [1317.778736462737, 2.0], [1319.5079107728832, 2.0263457325124126], [1404.3138190182592, 3.0], [1414.2135623730828, 3.110346508868191], [1515.7165665103846, 3.648683199665772], [1624.5047927124563, 3.5429197626623123], [1708.9242743776442, 3.0], [1741.1011265922318, 2.7933712447402916], [1814.4157574576996, 2.0], [1866.065983073597, 1.4971564872557763], [1904.1864738545937, 1.0], [1987.9794659096817, 0.0], [1999.9999999999827, -0.13062877413119192], [2065.518475350647, -1.0], [2143.5469250725646, -1.8866209067323039], [2153.8780870483297, -2.0], [2241.5976625273092, -3.0], [2297.396709994046, -3.555909576493753], [2349.4786785359806, -4.0], [2462.2888266898062, -4.90532147608239], [2478.8426389936094, -5.0], [2639.01582154576, -5.898614365524417], [2668.7804560974105, -6.0], [2828.427124746159, -6.55453553171524], [3031.4331330207615, -6.9108253684033825], [3139.112776002581, -7.0], [3249.0095854249043, -7.101673359477154], [3482.2022531844555, -7.1362890533370384], [3687.518095292308, -7.0], [3732.1319661471844, -6.975163611293175], [3999.9999999999504, -6.6114338476336485], [4264.486849916584, -6.0], [4287.093850145118, -5.952885651852504], [4594.793419988081, -5.078938751819813], [4618.507169796557, -5.0], [4924.577653379601, -4.025758592191379], [4932.439390249636, -4.0], [5247.630249080635, -3.0], [5278.031643091506, -2.9072763007121356], [5592.081752467772, -2.0], [5656.854249492303, -1.8182068802727467], [5993.726803785941, -1.0], [6062.866266041508, -0.8384970056190332], [6498.019170849792, -0.03783896411603984], [6526.772895531915, 0.0], [6964.404506368894, 0.5032783060127318], [7464.2639322943505, 0.7838764142887269], [7999.999999999872, 0.7162602145130841]], 'minus_line': [[125.0, 2.2106930823614763], [127.40248087810829, 2.0], [133.9716828170366, 1.4894546935156736], [141.32490621106868, 1.0], [143.5872943746293, 0.8618094921320123], [153.89305166811442, 0.3789147380361284], [164.93848884661162, 0.03236535402673868], [168.5295491742284, 0.0], [176.77669529663655, -0.061129571889570196], [181.36421489521314, 0.0], [189.46457081379947, 0.12005895141668776], [203.0630990890585, 0.5420515436685771], [215.28762322930487, 1.0], [217.6376408240306, 1.0948111952597], [233.25824788420132, 1.721888903947212], [241.19115350367488, 2.0], [249.99999999999937, 2.3212326446677976], [267.94336563407256, 2.835926336308795], [274.8955355068729, 3.0], [287.1745887492579, 3.302646702870044], [307.78610333622805, 3.7090183998360216], [324.27596135092335, 4.0], [329.87697769322244, 4.106038303682016], [353.55339059327247, 4.545722323741089], [378.8588750705299, 5.0], [378.929141627598, 5.001362389137364], [406.12619817811606, 5.550867447517023], [429.7466283132022, 6.0], [435.2752816480601, 6.1115262537732145], [466.5164957684015, 6.700648679174751], [485.34830492496434, 7.0], [499.9999999999975, 7.247881447797245], [535.8867312681438, 7.682104975591367], [574.3491774985143, 7.904889556763234], [615.5722066724546, 7.850889110431474], [659.7539553864432, 7.451412461837438], [686.4300505025383, 7.0], [707.1067811865431, 6.6790254257111705], [739.9027317059582, 6.0], [757.8582832551941, 5.649612824300591], [788.9762857848643, 5.0], [812.2523963562301, 4.541744468118842], [844.1005016830264, 4.0], [870.5505632961192, 3.5880559328334063], [933.0329915368008, 3.007527227588213], [999.9999999999926, 3.001295777481011], [1071.773462536285, 3.614452175215982], [1097.9256348921642, 4.0], [1148.698354997026, 4.722595782032116], [1164.376907594818, 4.999999999999999], [1221.7805729398497, 6.0], [1231.1444133449063, 6.152305398334112], [1280.2296479455795, 7.0], [1319.5079107728832, 7.623906922998507], [1349.3770502168845, 8.0], [1414.2135623730828, 8.80135443821086], [1447.269041707232, 9.0], [1515.7165665103846, 9.434307247165567], [1624.5047927124563, 9.320899769401315], [1666.1774697664891, 9.0], [1741.1011265922318, 8.46811584148534], [1781.8213007471102, 8.0], [1866.065983073597, 7.007404223459416], [1866.656598385626, 7.0], [1945.4914423649814, 6.0], [1999.9999999999802, 5.2787490359644185], [2023.9966448128982, 5.0], [2104.1355212814206, 4.0], [2143.5469250725646, 3.5161481381748008], [2196.463622601087, 3.0], [2290.8685900449436, 2.0], [2297.396709994046, 1.9354222153940595], [2421.8025410603636, 1.0], [2462.2888266898062, 0.6940727482457973], [2592.781138488558, 0.0], [2639.01582154576, -0.23753355241821078], [2828.427124746159, -0.8725610667780153], [2890.264350286598, -1.0], [3031.433133020758, -1.2526483728968176], [3249.0095854249043, -1.417381785339682], [3482.2022531844555, -1.4094497044987127], [3732.1319661471844, -1.2434182439892965], [3926.4987931592977, -1.0], [3999.9999999999554, -0.9007489346633767], [4287.093850145118, -0.344779975747273], [4423.7354160972845, 0.0], [4594.793419988081, 0.42701709681762834], [4787.408559009777, 1.0], [4924.577653379601, 1.394525814867293], [5115.513207750342, 2.0], [5278.031643091506, 2.4918681114138552], [5447.1913741344315, 3.0], [5656.854249492303, 3.6049464308959758], [5813.6439302245435, 4.0], [6062.866266041508, 4.6141637760769], [6272.25072365522, 5.0], [6498.019170849792, 5.419199308986199], [6964.404506368902, 5.94687082402756], [7048.662074535535, 6.0], [7464.2639322943505, 6.284409495516993], [7999.999999999882, 6.4762103669804585]]}",,,,,,,,,,eqdcwr,001,english,1,1,2022-04-21_14h24.15.215,Cluster,2022.1.1,None,
,,,,0,0,0,0,18,0,18,0,,,frequency,,,,,,,,,,,,,,,,,,,,,,,,,,,,,,,,,,,,,,,,,,,,,,,,,,,,,,,,,,,,,,,,,,,,,,,,,,,,,,,,,,,,,,,,,,,,,,,,,,,,,,,,,,,,,,,,,,261.0263395998627,None,,,,165.40011939710163,1.1479791289012402,0.0004467658057537538,1,"[0.40302917600903476, 0.6786624871759612, 0.7563941637940232, 0.5358531234733959]","[262.55632352662496, 233.9110920695104, 208.3910920835337, 185.65535680908556]",Tone,"[4.941271169810042, 3.5253033140191206, 3.0, 3.0]",False,262.0385944999289,264.8956323999446,264.8956323999446,266.12764610000886,['space'],1,[0.28093319991603494],3.4216380664147437,4.456372166518122,None,1,None,1,,,,,,,,,,,,,eqdcwr,001,english,1,1,2022-04-21_14h24.15.215,Cluster,2022.1.1,None,
,,,,0,0,0,0,19,0,19,0,,,frequency,,,,,,,,,,,,,,,,,,,,,,,,,,,,,,,,,,,,,,,,,,,,,,,,,,,,,,,,,,,,,,,,,,,,,,,,,,,,,,,,,,,,,,,,,,,,,,,,,,,,,,,,,,,,,,,,,,267.53931609983556,None,,,,,,,,"[0.46956518019489774, 0.4520310318997596, 0.40256545881136163, 0.5725756042360406]","[952.898730670855, 1200.5771691903155, 1512.6324474860771, 1905.7974613417098]",Major_3rd,"[5.0, 8.0, 9.6570143092373, 7.0]",True,268.54408549983054,270.8901778999716,270.8901778999716,272.12157609988935,None,1,,2.9195847667288035,3.962595966644585,None,1,None,1,,0,,,,,,,,,,,eqdcwr,001,english,1,1,2022-04-21_14h24.15.215,Cluster,2022.1.1,None,
,,,,1,0,1,0,0,0,0,0,,,both,,,,,,,,,,,,,,,,,,,,,,,,,,,,,,,,,,,,,,,,,,,,,,,,,,,,,,,,,,,,,,,,,,,,,,,,,,,,,,,,,,,,,,,,,,,,,,,,,,,,,,,,,,,,,,,,,,275.66549799987115,None,,,,810.805067557779,1.134716992220313,4.4072545088720784e-05,0,"[0.7436793146262544, 0.7436793146262544, 0.7436793146262544, 0.7436793146262544]","[1287.0728171823657, 1146.6515229810448, 1021.5503719774806, 910.0979169105242]",Tone,"[9.0, 7.374753143792167, 6.0, 4.794025478362087]",False,276.65817809989676,279.93020249996334,279.93020249996334,281.1525708998088,None,0,,4.013308566529304,5.035258766496554,None,1,None,1,,,,,,,,,,,,,eqdcwr,001,english,1,1,2022-04-21_14h24.15.215,Cluster,2022.1.1,None,
,,,,1,0,1,0,1,0,1,0,,,time,,,,,,,,,,,,,,,,,,,,,,,,,,,,,,,,,,,,,,,,,,,,,,,,,,,,,,,,,,,,,,,,,,,,,,,,,,,,,,,,,,,,,,,,,,,,,,,,,,,,,,,,,,,,,,,,,,282.7281964998692,None,1650544091.618423,1650544097.3744113,5.755988359451294,2297.3967099940687,-9.0,2.888332028733877e-05,0,"[0.5625003586151431, 0.5625003586151431, 0.5625003586151431, 0.5625003586151431]","[4147.109775023048, 710.4805229458226, 149.587192880783, 218.05809572594535]",None,"[0.8358100735481013, 2.335362874573512, 3.6893224035748413, 3.0952451234517246]",False,289.54052579985,292.25896140001714,292.25896140001714,293.4908600000199,None,0,,3.2799986666068435,4.317235166672617,None,1,None,1,,,,,,,,,,,,,eqdcwr,001,english,1,1,2022-04-21_14h24.15.215,Cluster,2022.1.1,None,
,,,,1,0,1,0,2,0,2,0,,,both,,,,,,,,,,,,,,,,,,,,,,,,,,,,,,,,,,,,,,,,,,,,,,,,,,,,,,,,,,,,,,,,,,,,,,,,,,,,,,,,,,,,,,,,,,,,,,,,,,,,,,,,,,,,,,,,,,294.9084620999638,None,,,,,,,,"[0.5557220155210912, 0.5557220155210912, 0.5557220155210912, 0.5557220155210912]","[1505.2551255342094, 1004.6372661283904, 670.5149309063013, 447.5150262948989]",Perfect_5th,"[9.6570143092373, 5.565978271147425, 2.0, 3.0]",True,295.9176954999566,298.63072649994865,298.63072649994865,299.86074789986014,None,1,,3.248826866503805,4.279599366476759,None,1,None,1,,0,,,,,,,,,,,eqdcwr,001,english,1,1,2022-04-21_14h24.15.215,Cluster,2022.1.1,None,
,,,,1,0,1,0,3,0,3,0,,,both,,,,,,,,,,,,,,,,,,,,,,,,,,,,,,,,,,,,,,,,,,,,,,,,,,,,,,,,,,,,,,,,,,,,,,,,,,,,,,,,,,,,,,,,,,,,,,,,,,,,,,,,,,,,,,,,,,301.2367852998432,None,1650544110.16017,1650544112.8311436,2.670973539352417,8000.0,8.0,0.00045600541967795504,1,"[0.6390744554607509, 0.6390744554607509, 0.6390744554607509, 0.6390744554607509]","[3174.8021039364003, 4000.0000000000014, 5039.684199579494, 6349.604207872799]",Major_3rd,"[0.12314290329400102, 0.4940193753806348, 2.0, 4.3900618468875034]",False,304.9246684999671,307.87492739991285,307.87492739991285,309.102710200008,['space'],1,[0.5464745999779552],3.577420133398846,4.60753063345328,None,1,None,1,,,,,,,,,,,,,eqdcwr,001,english,1,1,2022-04-21_14h24.15.215,Cluster,2022.1.1,None,
,,,,1,0,1,0,4,0,4,0,,,time,,,,,,,,,,,,,,,,,,,,,,,,,,,,,,,,,,,,,,,,,,,,,,,,,,,,,,,,,,,,,,,,,,,,,,,,,,,,,,,,,,,,,,,,,,,,,,,,,,,,,,,,,,,,,,,,,,310.56784589984454,None,,,,834.78241215152,1.134716992220313,4.484913047730166e-05,1,"[0.7856481914675162, 0.7856481914675162, 0.7856481914675162, 0.7856481914675162]","[552.5305686144036, 5840.174285642191, 3973.9326112390922, 6186.406471265768]",None,"[1.4829887434687423, 3.247730475677683, 0.4940193753806348, 4.0]",False,311.5694460000377,314.9445155998692,314.9445155998692,316.17613239982165,['space'],1,[0.6674669000785798],4.183125066570938,5.216151766711846,None,1,None,1,,,,,,,,,,,,,eqdcwr,001,english,1,1,2022-04-21_14h24.15.215,Cluster,2022.1.1,None,
,,,,1,0,1,0,5,0,5,0,,,time,,,,,,,,,,,,,,,,,,,,,,,,,,,,,,,,,,,,,,,,,,,,,,,,,,,,,,,,,,,,,,,,,,,,,,,,,,,,,,,,,,,,,,,,,,,,,,,,,,,,,,,,,,,,,,,,,,317.8259179999586,None,1650544126.7695856,1650544131.5930138,4.823428153991699,6062.8662660415985,4.0,0.00018833675934099657,1,"[0.5071369778129988, 0.5071369778129988, 0.5071369778129988, 0.5071369778129988]","[1869.0881267586517, 393.0658701440945, 364.9005591492599, 3641.5882145531023]",None,"[7.260159745099018, 5.0, 5.893201081980479, 0.2889914060118919]",False,323.65866660000756,326.2222046998795,326.2222046998795,327.4462140998803,['space'],1,[0.4941688999533653],3.0562396333552897,4.083477633306757,None,1,None,1,,,,,,,,,,,,,eqdcwr,001,english,1,1,2022-04-21_14h24.15.215,Cluster,2022.1.1,None,
,,,,1,0,1,0,6,0,6,0,,,time,,,,,,,,,,,,,,,,,,,,,,,,,,,,,,,,,,,,,,,,,,,,,,,,,,,,,,,,,,,,,,,,,,,,,,,,,,,,,,,,,,,,,,,,,,,,,,,,,,,,,,,,,,,,,,,,,,328.78246429981664,None,,,,812.8650133327528,1.134716992220313,4.413926322691409e-05,0,"[0.7715045103444826, 0.7715045103444826, 0.7715045103444826, 0.7715045103444826]","[148.63097796267687, 883.617520703501, 6713.2769810369755, 688.9091335793321]",None,"[4.0, 4.110395708048437, 4.3900618468875034, 2.0]",False,329.78950039995834,333.12656639982015,333.12656639982015,334.3595063998364,None,0,,4.1320131667889655,5.167441966710612,None,1,None,1,,,,,,,,,,,,,eqdcwr,001,english,1,1,2022-04-21_14h24.15.215,Cluster,2022.1.1,None,
,,,,1,0,1,0,7,0,7,0,,,both,,,,,,,,,,,,,,,,,,,,,,,,,,,,,,,,,,,,,,,,,,,,,,,,,,,,,,,,,,,,,,,,,,,,,,,,,,,,,,,,,,,,,,,,,,,,,,,,,,,,,,,,,,,,,,,,,,335.9948605999816,None,,,,4159.821576856387,-1.2192699953608244,8.250330927538915e-05,1,"[0.4403826331034788, 0.4403826331034788, 0.4403826331034788, 0.4403826331034788]","[6603.305147101843, 5882.876091042537, 5241.046768488246, 4669.241847759746]",Tone,"[4.3900618468875034, 3.8729078284856655, 2.566116844466812, 1.3072675182586222]",False,337.0058271999005,339.35187949985266,339.35187949985266,340.58559869998135,['space'],1,[0.7068279001396149],2.7807382666505873,3.81293056672439,None,1,None,1,,,,,,,,,,,,,eqdcwr,001,english,1,1,2022-04-21_14h24.15.215,Cluster,2022.1.1,None,
,,,,1,0,1,0,8,0,8,0,,,time,,,,,,,,,,,,,,,,,,,,,,,,,,,,,,,,,,,,,,,,,,,,,,,,,,,,,,,,,,,,,,,,,,,,,,,,,,,,,,,,,,,,,,,,,,,,,,,,,,,,,,,,,,,,,,,,,,341.8625719998963,None,1650544150.840895,1650544157.5101147,6.669219732284546,8000.0,-2.0,0.00014420157515633036,0,"[0.736188602457316, 0.736188602457316, 0.736188602457316, 0.736188602457316]","[4526.968653281797, 421.53026743945105, 6428.658343850567, 3268.623529265006]",None,"[1.3072675182586222, 4.0, 4.3900618468875034, 0.12314290329400102]",False,349.53580209985375,352.7633274998516,352.7633274998516,354.0035327998921,None,0,,3.9508652666117996,4.977883966639638,None,1,['space'],0,[0.41747640003450215],,,,,,,,,,,,eqdcwr,001,english,1,1,2022-04-21_14h24.15.215,Cluster,2022.1.1,None,
,,,,1,0,1,0,9,0,9,0,,,both,,,,,,,,,,,,,,,,,,,,,,,,,,,,,,,,,,,,,,,,,,,,,,,,,,,,,,,,,,,,,,,,,,,,,,,,,,,,,,,,,,,,,,,,,,,,,,,,,,,,,,,,,,,,,,,,,,355.5814329998102,None,1650544164.565203,1650544166.9612153,2.396012306213379,1231.1444133449168,3.0,7.588229331321392e-05,1,"[0.6117595912095927, 0.6117595912095927, 0.6117595912095927, 0.6117595912095927]","[1954.319936868493, 1741.101126592249, 1551.1447618337354, 1381.9128799677767]",Tone,"[6.0, 8.426474349612413, 9.6570143092373, 9.58105541366995]",False,358.9722386999056,361.84196390002035,361.84196390002035,363.06514790002257,['space'],1,[0.3229315998032689],3.457054099999368,4.496030899928883,None,1,None,1,,,,,,,,,,,,,eqdcwr,001,english,1,1,2022-04-21_14h24.15.215,Cluster,2022.1.1,None,
,,,,1,0,1,0,10,0,10,0,,,frequency,,,,,,,,,,,,,,,,,,,,,,,,,,,,,,,,,,,,,,,,,,,,,,,,,,,,,,,,,,,,,,,,,,,,,,,,,,,,,,,,,,,,,,,,,,,,,,,,,,,,,,,,,,,,,,,,,,364.5016546000261,None,1650544173.5328598,1650544176.674361,3.1415011882781982,8000.0,5.0,0.00032282711451732784,0,"[0.5345486233363022, 0.5506488923736208, 0.4672366393270113, 0.640374075568058]","[5039.684199579492, 5656.8542494923795, 6349.604207872798, 7127.189745122714]",Tone,"[2.0, 3.247730475677683, 4.3900618468875034, 4.774566040266244]",False,368.66981359990314,371.2384623999242,371.2384623999242,372.4566752000246,None,0,,3.218550599878654,4.2442137997131795,None,1,['space'],0,[0.5818936000578105],,,,,,,,,,,,eqdcwr,001,english,1,1,2022-04-21_14h24.15.215,Cluster,2022.1.1,None,
,,,,1,0,1,0,11,0,11,0,,,frequency,,,,,,,,,,,,,,,,,,,,,,,,,,,,,,,,,,,,,,,,,,,,,,,,,,,,,,,,,,,,,,,,,,,,,,,,,,,,,,,,,,,,,,,,,,,,,,,,,,,,,,,,,,,,,,,,,,373.974418199854,None,,,,530.9161443504499,-0.6975054956328469,6.148099372507281e-05,0,"[0.5124613947182839, 0.7798914933224341, 0.5447881815724054, 0.6969609645922601]","[1337.8248519923138, 1061.8322887008999, 842.7768460488047, 668.9124259961569]",Major_3rd,"[9.103541586562777, 6.437138982256159, 4.0, 2.0]",False,374.9722223998979,377.8515451999847,377.8515451999847,379.092795799952,None,0,,3.5658309664577246,4.594673266634345,None,1,None,1,,,,,,,,,,,,,eqdcwr,001,english,1,1,2022-04-21_14h24.15.215,Cluster,2022.1.1,None,
,,,,1,0,1,0,12,0,12,0,,,frequency,,,,,,,,,,,,,,,,,,,,,,,,,,,,,,,,,,,,,,,,,,,,,,,,,,,,,,,,,,,,,,,,,,,,,,,,,,,,,,,,,,,,,,,,,,,,,,,,,,,,,,,,,,,,,,,,,,380.61656409990974,None,1650544189.6292562,1650544192.2713473,2.6420910358428955,1414.213562373095,5.0,8.968279190402293e-05,1,"[0.42198612028880794, 0.7981900514884598, 0.6500779290358178, 0.7797322749941055]","[890.8987181403394, 1000.0000000000001, 1122.4620483093731, 1259.9210498948732]",Tone,"[4.110395708048437, 5.565978271147425, 7.0, 8.303968446146236]",False,384.2441092999652,387.13601329992525,387.13601329992525,388.36979349981993,['space'],1,[0.2548879999667406],3.6797917000949383,4.716678400058299,None,1,None,1,,,,,,,,,,,,,eqdcwr,001,english,1,1,2022-04-21_14h24.15.215,Cluster,2022.1.1,None,
,,,,1,0,1,0,13,0,13,0,,,time,,,,,,,,,,,,,,,,,,,,,,,,,,,,,,,,,,,,,,,,,,,,,,,,,,,,,,,,,,,,,,,,,,,,,,,,,,,,,,,,,,,,,,,,,,,,,,,,,,,,,,,,,,,,,,,,,,390.0147186999675,None,,,,253.0793983413946,2.0,0.00020674120620168372,0,"[0.5097261458376949, 0.5097261458376949, 0.5097261458376949, 0.5097261458376949]","[1573.1042982747115, 2790.0106298568717, 342.34720058150367, 923.706804978056]",None,"[9.26681740728439, 0.4143334754883661, 6.0, 4.794025478362087]",False,391.02543049980886,393.5763458998408,393.5763458998408,394.79795169993304,None,0,,3.086688866838813,4.106901366729289,None,1,None,1,,,,,,,,,,,,,eqdcwr,001,english,1,1,2022-04-21_14h24.15.215,Cluster,2022.1.1,None,
,,,,1,0,1,0,14,0,14,0,,,time,,,,,,,,,,,,,,,,,,,,,,,,,,,,,,,,,,,,,,,,,,,,,,,,,,,,,,,,,,,,,,,,,,,,,,,,,,,,,,,,,,,,,,,,,,,,,,,,,,,,,,,,,,,,,,,,,,396.1520146999974,None,,,,,,,,"[0.6552113139716328, 0.6552113139716328, 0.6552113139716328, 0.6552113139716328]","[4264.905610552814, 1392.6366212403345, 732.1250028377044, 1117.1113265615165]",None,"[0.8358100735481013, 9.58105541366995, 2.335362874573512, 7.0]",True,397.1664869999513,400.14791029994376,400.14791029994376,401.382886499865,None,1,,3.655520766740665,4.669075266690925,None,1,None,1,,0,,,,,,,,,,,eqdcwr,001,english,1,1,2022-04-21_14h24.15.215,Cluster,2022.1.1,None,
,,,,1,0,1,0,15,0,15,0,,,both,,,,,,,,,,,,,,,,,,,,,,,,,,,,,,,,,,,,,,,,,,,,,,,,,,,,,,,,,,,,,,,,,,,,,,,,,,,,,,,,,,,,,,,,,,,,,,,,,,,,,,,,,,,,,,,,,,402.8536091998685,None,,,,805.8431517369025,1.134716992220313,4.391183707909127e-05,0,"[0.48341041542383784, 0.48341041542383784, 0.48341041542383784, 0.48341041542383784]","[1279.1962667885286, 1139.6343143318077, 1015.2987497869519, 904.5283547146845]",Tone,"[9.0, 7.374753143792167, 5.565978271147425, 4.794025478362087]",False,403.87330989982,406.3674611998722,406.3674611998722,407.59133849991485,None,0,,2.9492847668007016,3.98396256682463,None,1,None,1,,,,,,,,,,,,,eqdcwr,001,english,1,1,2022-04-21_14h24.15.215,Cluster,2022.1.1,None,
,,,,1,0,1,0,16,0,16,0,,,both,,,,,,,,,,,,,,,,,,,,,,,,,,,,,,,,,,,,,,,,,,,,,,,,,,,,,,,,,,,,,,,,,,,,,,,,,,,,,,,,,,,,,,,,,,,,,,,,,,,,,,,,,,,,,,,,,,408.8970719999634,None,1650544217.9447582,1650544220.3902743,2.4455161094665527,125.0,-1.0,0.000644124775846567,1,"[0.4203587533325856, 0.4203587533325856, 0.4203587533325856, 0.4203587533325856]","[198.42513149602502, 176.77669529663694, 157.49013123685918, 140.30775603867164]",Tone,"[2.895042193204213, 3.1083421672832143, 3.6893224035748413, 4.014491229490316]",False,412.3608794999309,414.66347109992057,414.66347109992057,415.90040729986504,['space'],1,[0.5954016000032425],2.705473266309127,3.7402071664109826,None,1,None,1,,,,,,,,,,,,,eqdcwr,001,english,1,1,2022-04-21_14h24.15.215,Cluster,2022.1.1,None,
,,,,1,0,1,0,17,0,17,0,,,both,,,,,,,,,,,,,,,,,,,,,,,,,,,,,,,,,,,,,,,,,,,,,,,,,,,,,,,,,,,,,,,,,,,,,,,,,,,,,,,,,,,,,,,,,,,,,,,,,,,,,,,,,,,,,,,,,,417.14121369994245,None,,,,,,,,"[0.47893839520789094, 0.47893839520789094, 0.47893839520789094, 0.47893839520789094]","[207.89900520170795, 261.93633290583557, 330.01909956033336, 415.79801040341584]",Major_3rd,"[3.0, 4.941271169810042, 6.159795749040223, 4.0]",True,418.15238029998727,420.62725779996254,420.62725779996254,421.8725456998218,None,1,,2.9547343666199595,3.98412016662769,None,1,None,1,,0,,,,,,,,,,,eqdcwr,001,english,1,1,2022-04-21_14h24.15.215,Cluster,2022.1.1,None,
,,,,1,0,1,0,18,0,18,0,,,frequency,,,,,,,,,,,,,,,,,,,,,,,,,,,,,,,,,,,,,,,,,,,,,,,,,,,,,,,,,,,,,,,,,,,,,,,,,,,,,,,,,,,,,,,,,,,,,,,,,,,,,,,,,,,,,,,,,,423.1708382999059,None,,,,360.68812505077335,3.560959577908617,0.0001307278046259455,1,"[0.6211706943944619, 0.7737150947182009, 0.4872482215457068, 0.6234225864238974]","[1817.754244794335, 1213.2054055191154, 809.7174632907168, 540.4215703089552]",Perfect_5th,"[8.0, 8.0, 3.464680763121044, 1.4829887434687423]",False,424.16265899990685,427.0768820999656,427.0768820999656,428.3118378999643,['space'],1,[0.5756451999768615],3.549823166569695,4.570523166563362,None,1,None,1,,,,,,,,,,,,,eqdcwr,001,english,1,1,2022-04-21_14h24.15.215,Cluster,2022.1.1,None,
,,,,1,0,1,0,19,0,19,0,,,frequency,,,,,,,,,,,,,,,,,,,,,,,,,,,,,,,,,,,,,,,,,,,,,,,,,,,,,,,,,,,,,,,,,,,,,,,,,,,,,,,,,,,,,,,,,,,,,,,,,,,,,,,,,,,,,,,,,,429.7582300999202,None,1650544238.7988682,1650544241.9426427,3.1437745094299316,1148.6983549970344,1.0,5.6406188216981336e-05,1,"[0.6566299962580647, 0.64797207813388, 0.6208119430170427, 0.647789171383178]","[5789.07694976151, 3863.7453156993806, 2578.740616879157, 1721.1028744886592]",Perfect_5th,"[3.247730475677683, 0.2889914060118919, 1.0, 8.426474349612413]",False,433.9133816999383,436.85462689981796,436.85462689981796,438.0906028000172,['space'],1,[0.22763149999082088],3.587164199911058,4.624828099971637,None,1,None,1,,,,,,,,,,,,,eqdcwr,001,english,1,1,2022-04-21_14h24.15.215,Cluster,2022.1.1,None,
,,,,2,0,2,0,0,0,0,0,,,time,,,,,,,,,,,,,,,,,,,,,,,,,,,,,,,,,,,,,,,,,,,,,,,,,,,,,,,,,,,,,,,,,,,,,,,,,,,,,,,,,,,,,,,,,,,,,,,,,,,,,,,,,,,,,,,,,,441.52997169992886,None,1650544250.553815,1650544254.9511797,4.397364854812622,125.0,1.0,0.0008109050486794653,0,"[0.7484698176603795, 0.7484698176603795, 0.7484698176603795, 0.7484698176603795]","[187.9278177096156, 259.21806387556825, 761.1975711733203, 2160.1795293486434]",None,"[2.9238165415902073, 4.941271169810042, 2.8910624098854916, 4.40792723066625]",False,446.9815708999522,450.26954499981366,450.26954499981366,451.5099569999147,None,0,,4.016055366257206,5.054412866476923,None,1,None,1,,,,,,,,,,,,,eqdcwr,001,english,1,1,2022-04-21_14h24.15.215,Cluster,2022.1.1,None,
,,,,2,0,2,0,1,0,1,0,,,frequency,,,,,,,,,,,,,,,,,,,,,,,,,,,,,,,,,,,,,,,,,,,,,,,,,,,,,,,,,,,,,,,,,,,,,,,,,,,,,,,,,,,,,,,,,,,,,,,,,,,,,,,,,,,,,,,,,,453.091036999831,None,,,,,,,,"[0.6810766636142096, 0.6734402570813021, 0.716546889534991, 0.5334087921704119]","[158.34624386559244, 237.25129778065795, 355.47529846293673, 532.6111553418687]",Perfect_5th,"[3.6893224035748413, 3.5253033140191206, 5.893201081980479, 1.4829887434687423]",True,454.0955348999705,457.2103016998153,457.2103016998153,458.44526129984297,None,1,,3.646209566388279,4.681172166485339,None,1,None,1,,0,,,,,,,,,,,eqdcwr,001,english,1,1,2022-04-21_14h24.15.215,Cluster,2022.1.1,None,
,,,,2,0,2,0,2,0,2,0,,,both,,,,,,,,,,,,,,,,,,,,,,,,,,,,,,,,,,,,,,,,,,,,,,,,,,,,,,,,,,,,,,,,,,,,,,,,,,,,,,,,,,,,,,,,,,,,,,,,,,,,,,,,,,,,,,,,,,459.81561419996433,None,,,,683.4200901828555,0.0,4.6480097758096576e-05,0,"[0.6346891028409831, 0.6346891028409831, 0.6346891028409831, 0.6346891028409831]","[3444.221430169729, 2298.742015788534, 1534.2262285648487, 1023.9731576006723]",Perfect_5th,"[0.17184970796578725, 3.034886487796405, 9.6570143092373, 6.0]",False,460.83026889991015,463.78321769996546,463.78321769996546,465.01854069996625,None,0,,3.5858774667140096,4.617864566622302,None,1,None,1,,,,,,,,,,,,,eqdcwr,001,english,1,1,2022-04-21_14h24.15.215,Cluster,2022.1.1,None,
,,,,2,0,2,0,3,0,3,0,,,both,,,,,,,,,,,,,,,,,,,,,,,,,,,,,,,,,,,,,,,,,,,,,,,,,,,,,,,,,,,,,,,,,,,,,,,,,,,,,,,,,,,,,,,,,,,,,,,,,,,,,,,,,,,,,,,,,,466.4813312999904,None,1650544275.5371575,1650544278.129469,2.592311382293701,164.93848884661182,-7.0,0.0001756071591876441,0,"[0.4357552174396039, 0.4357552174396039, 0.4357552174396039, 0.4357552174396039]","[831.2378961427879, 554.7847360339226, 370.27438807164117, 247.1285050882241]",Perfect_5th,"[3.464680763121044, 1.4829887434687423, 5.289027767580068, 4.0]",False,470.1003884000238,472.4259358998388,472.4259358998388,473.65808129985817,None,0,,2.7484057003166527,3.7754575002472848,None,1,None,1,,,,,,,,,,,,,eqdcwr,001,english,1,1,2022-04-21_14h24.15.215,Cluster,2022.1.1,None,
,,,,2,0,2,0,4,0,4,0,,,both,,,,,,,,,,,,,,,,,,,,,,,,,,,,,,,,,,,,,,,,,,,,,,,,,,,,,,,,,,,,,,,,,,,,,,,,,,,,,,,,,,,,,,,,,,,,,,,,,,,,,,,,,,,,,,,,,,474.91890859999694,None,,,,258.95130813865967,2.0,0.00019890974105503078,1,"[0.7000316807622462, 0.7000316807622462, 0.7000316807622462, 0.7000316807622462]","[163.12910201085543, 183.10622598197344, 205.52978947392484, 230.6993884814959]",Tone,"[3.3723023506590977, 3.0, 2.895042193204213, 3.5253033140191206]",False,475.9221049998887,479.03687479998916,479.03687479998916,480.26827010000125,['space'],1,[0.2462601000443101],3.8461844664998353,4.878393466351554,None,1,None,1,,,,,,,,,,,,,eqdcwr,001,english,1,1,2022-04-21_14h24.15.215,Cluster,2022.1.1,None,
,,,,2,0,2,0,5,0,5,0,,,both,,,,,,,,,,,,,,,,,,,,,,,,,,,,,,,,,,,,,,,,,,,,,,,,,,,,,,,,,,,,,,,,,,,,,,,,,,,,,,,,,,,,,,,,,,,,,,,,,,,,,,,,,,,,,,,,,,481.83918699994683,None,,,,,,,,"[0.7166316898391498, 0.7166316898391498, 0.7166316898391498, 0.7166316898391498]","[718.2300521951973, 639.8702328305703, 570.0595702049155, 507.865340359192]",Tone,"[2.335362874573512, 1.858479147960578, 1.3517870611377325, 1.9387558237431435]",True,482.8541366998106,486.04132719989866,486.04132719989866,487.2757506999187,None,1,,3.88948776666075,4.919657866703346,None,1,None,1,,0,,,,,,,,,,,eqdcwr,001,english,1,1,2022-04-21_14h24.15.215,Cluster,2022.1.1,None,
,,,,2,0,2,0,6,0,6,0,,,both,,,,,,,,,,,,,,,,,,,,,,,,,,,,,,,,,,,,,,,,,,,,,,,,,,,,,,,,,,,,,,,,,,,,,,,,,,,,,,,,,,,,,,,,,,,,,,,,,,,,,,,,,,,,,,,,,,488.8022300999146,None,1650544297.8335288,1650544300.3850212,2.55149245262146,307.7861033362292,-6.0,5.32579615281957e-05,1,"[0.5761283345091013, 0.5761283345091013, 0.5761283345091013, 0.5761283345091013]","[193.89309522921687, 217.63764082403108, 244.28999210856156, 274.2062449236566]",Tone,"[2.9238165415902073, 3.0952451234517246, 4.0, 5.0]",False,492.36849489994347,495.1165731998626,495.1165731998626,496.35409709997475,['space'],1,[0.4239733999129385],3.34690173342824,4.376351733226329,None,1,None,1,,,,,,,,,,,,,eqdcwr,001,english,1,1,2022-04-21_14h24.15.215,Cluster,2022.1.1,None,
,,,,2,0,2,0,7,0,7,0,,,both,,,,,,,,,,,,,,,,,,,,,,,,,,,,,,,,,,,,,,,,,,,,,,,,,,,,,,,,,,,,,,,,,,,,,,,,,,,,,,,,,,,,,,,,,,,,,,,,,,,,,,,,,,,,,,,,,,497.7917590998113,None,,,,286.45676193220396,3.3038114442381756,0.00018849899249927065,1,"[0.7520989548029046, 0.7520989548029046, 0.7520989548029046, 0.7520989548029046]","[180.45645212155404, 202.55551887900185, 227.3608826172923, 255.20396200803285]",Tone,"[3.1083421672832143, 2.895042193204213, 3.5253033140191206, 4.191212245504896]",False,498.8023655000143,502.0903286000248,502.0903286000248,503.3254696999211,['space'],1,[0.384796499973163],4.058271566638723,5.085868466645479,None,1,None,1,,,,,,,,,,,,,eqdcwr,001,english,1,1,2022-04-21_14h24.15.215,Cluster,2022.1.1,None,
,,,,2,0,2,0,8,0,8,0,,,time,,,,,,,,,,,,,,,,,,,,,,,,,,,,,,,,,,,,,,,,,,,,,,,,,,,,,,,,,,,,,,,,,,,,,,,,,,,,,,,,,,,,,,,,,,,,,,,,,,,,,,,,,,,,,,,,,,504.93763229995966,None,,,,,,,,"[0.5771784224372155, 0.5771784224372155, 0.5771784224372155, 0.5771784224372155]","[4207.85710924795, 257.83355248755134, 792.465883411789, 5000.874435662983]",None,"[0.8358100735481013, 4.191212245504896, 3.464680763121044, 2.0]",True,505.9477629000321,508.6972137999255,508.6972137999255,509.9315567999147,None,1,,3.3491873666644096,4.383857066510245,None,1,None,1,,0,,,,,,,,,,,eqdcwr,001,english,1,1,2022-04-21_14h24.15.215,Cluster,2022.1.1,None,
,,,,2,0,2,0,9,0,9,0,,,time,,,,,,,,,,,,,,,,,,,,,,,,,,,,,,,,,,,,,,,,,,,,,,,,,,,,,,,,,,,,,,,,,,,,,,,,,,,,,,,,,,,,,,,,,,,,,,,,,,,,,,,,,,,,,,,,,,511.3744683000259,None,,,,438.1460048837262,1.2691568534443443,8.634300354878964e-05,1,"[0.4439052009919508, 0.4439052009919508, 0.4439052009919508, 0.4439052009919508]","[1608.1357383971294, 3580.3940734325533, 1520.2736299522846, 5287.684403499962]",None,"[9.26681740728439, 0.17184970796578725, 9.6570143092373, 2.566116844466812]",False,512.3828314000275,514.7357318999711,514.7357318999711,515.9724144998472,['space'],1,[0.2964614999946207],2.8228956665843725,3.8566189664416015,None,1,None,1,,,,,,,,,,,,,eqdcwr,001,english,1,1,2022-04-21_14h24.15.215,Cluster,2022.1.1,None,
,,,,2,0,2,0,10,0,10,0,,,frequency,,,,,,,,,,,,,,,,,,,,,,,,,,,,,,,,,,,,,,,,,,,,,,,,,,,,,,,,,,,,,,,,,,,,,,,,,,,,,,,,,,,,,,,,,,,,,,,,,,,,,,,,,,,,,,,,,,517.2818152999971,None,,,,455.6412174910012,1.0,8.270542499556908e-05,1,"[0.7612811363405079, 0.6533937036777218, 0.5741436651404964, 0.6925595677850772]","[180.82133699132166, 227.82060874550064, 287.03598055832026, 361.64267398264326]",Major_3rd,"[3.0, 3.5253033140191206, 5.596181116739962, 5.893201081980479]",False,518.291740699904,521.3125230998266,521.3125230998266,522.5440387998242,['space'],1,[0.021067099878564477],3.7196843668352813,4.7517116668168455,None,1,None,1,,,,,,,,,,,,,eqdcwr,001,english,1,1,2022-04-21_14h24.15.215,Cluster,2022.1.1,None,
,,,,2,0,2,0,11,0,11,0,,,time,,,,,,,,,,,,,,,,,,,,,,,,,,,,,,,,,,,,,,,,,,,,,,,,,,,,,,,,,,,,,,,,,,,,,,,,,,,,,,,,,,,,,,,,,,,,,,,,,,,,,,,,,,,,,,,,,,524.0883086000104,None,1650544333.1323135,1650544337.877599,4.745285511016846,1148.6983549970344,2.0,6.328878411628302e-05,1,"[0.590299469862226, 0.590299469862226, 0.590299469862226, 0.590299469862226]","[2497.22669202129, 1640.1648850325712, 6538.920353324342, 348.47467459095805]",None,"[1.836466042985346, 9.26681740728439, 4.3900618468875034, 6.0]",False,529.8484220998362,532.6549879999366,532.6549879999366,533.8904794999398,['space'],1,[0.357227599946782],3.4083948666229844,4.439498366555199,None,1,None,1,,,,,,,,,,,,,eqdcwr,001,english,1,1,2022-04-21_14h24.15.215,Cluster,2022.1.1,None,
,,,,2,0,2,0,12,0,12,0,,,frequency,,,,,,,,,,,,,,,,,,,,,,,,,,,,,,,,,,,,,,,,,,,,,,,,,,,,,,,,,,,,,,,,,,,,,,,,,,,,,,,,,,,,,,,,,,,,,,,,,,,,,,,,,,,,,,,,,,535.3343499999028,None,,,,,,,,"[0.535691401728938, 0.6171556014414287, 0.7581190837908467, 0.7137724460129109]","[128.29981809819475, 161.64764151959875, 203.66326621640295, 256.59963619638944]",Major_3rd,"[4.2409982726429245, 3.3723023506590977, 2.895042193204213, 4.191212245504896]",True,536.341997299809,539.2954189998563,539.2954189998563,540.5289481999353,['space'],0,[0.479584300192073],3.658078566659242,4.686420866753906,None,1,None,1,,0,,,,,,,,,,,eqdcwr,001,english,1,1,2022-04-21_14h24.15.215,Cluster,2022.1.1,None,
,,,,2,0,2,0,13,0,13,0,,,frequency,,,,,,,,,,,,,,,,,,,,,,,,,,,,,,,,,,,,,,,,,,,,,,,,,,,,,,,,,,,,,,,,,,,,,,,,,,,,,,,,,,,,,,,,,,,,,,,,,,,,,,,,,,,,,,,,,,542.0714423998725,None,1650544351.1187387,1650544355.244455,4.1257164478302,2297.3967099940687,-2.0,6.466169967930508e-05,0,"[0.7643924107448623, 0.761310214115614, 0.44016468349723137, 0.778203121075353]","[455.86124427910823, 683.0201283771975, 1023.3738919967744, 1533.3283446695998]",Perfect_5th,"[3.0, 2.0, 6.0, 9.6570143092373]",False,547.2158437999897,550.2072142998222,550.2072142998222,551.4480035000015,None,0,,3.7484237330500036,4.772918433183804,None,1,['space'],0,[0.6696870001032948],,,,,,,,,,,,eqdcwr,001,english,1,1,2022-04-21_14h24.15.215,Cluster,2022.1.1,None,
,,,,2,0,2,0,14,0,14,0,,,frequency,,,,,,,,,,,,,,,,,,,,,,,,,,,,,,,,,,,,,,,,,,,,,,,,,,,,,,,,,,,,,,,,,,,,,,,,,,,,,,,,,,,,,,,,,,,,,,,,,,,,,,,,,,,,,,,,,,553.0299468999729,None,,,,600.7209994267388,-0.7265388918928083,5.1260061420354283e-05,0,"[0.40193031299279086, 0.6760912126562193, 0.5508511020687542, 0.4679890033400026]","[953.5851464293935, 849.5477845916143, 756.8610322916343, 674.286523478991]",Tone,"[5.0, 4.0, 2.8910624098854916, 2.0]",False,554.0329986999277,556.6773045998998,556.6773045998998,557.9178156999405,None,0,,3.118888166733086,4.155311466660351,None,1,None,1,,,,,,,,,,,,,eqdcwr,001,english,1,1,2022-04-21_14h24.15.215,Cluster,2022.1.1,None,
,,,,2,0,2,0,15,0,15,0,,,both,,,,,,,,,,,,,,,,,,,,,,,,,,,,,,,,,,,,,,,,,,,,,,,,,,,,,,,,,,,,,,,,,,,,,,,,,,,,,,,,,,,,,,,,,,,,,,,,,,,,,,,,,,,,,,,,,,559.2227074999828,None,1650544368.270403,1650544370.8858685,2.6154656410217285,233.2582478842019,-8.0,7.973409595418503e-05,0,"[0.4442466449797817, 0.4442466449797817, 0.4442466449797817, 0.4442466449797817]","[146.94348828545108, 164.9384888466118, 185.13719403582056, 207.80947403569698]",Tone,"[4.0, 3.3723023506590977, 3.0, 3.0]",False,562.8569465999026,565.2177252999973,565.2177252999973,566.4515821998939,None,0,,2.7919769333675504,3.8247744333930314,None,1,None,1,,,,,,,,,,,,,eqdcwr,001,english,1,1,2022-04-21_14h24.15.215,Cluster,2022.1.1,None,
,,,,2,0,2,0,16,0,16,0,,,frequency,,,,,,,,,,,,,,,,,,,,,,,,,,,,,,,,,,,,,,,,,,,,,,,,,,,,,,,,,,,,,,,,,,,,,,,,,,,,,,,,,,,,,,,,,,,,,,,,,,,,,,,,,,,,,,,,,,567.717245799955,None,,,,,,,,"[0.7151498546758787, 0.4959940694776197, 0.6362488273847664, 0.6470893761126087]","[3582.020244647099, 2390.7116904994223, 1595.6086221544226, 1064.9409902545294]",Perfect_5th,"[0.17184970796578725, 2.0, 9.26681740728439, 6.437138982256159]",True,568.7388911999296,571.6229512998834,571.6229512998834,572.8520704000257,None,1,,3.530846666544676,4.551803866634145,None,1,None,1,,0,,,,,,,,,,,eqdcwr,001,english,1,1,2022-04-21_14h24.15.215,Cluster,2022.1.1,None,
,,,,2,0,2,0,17,0,17,0,,,frequency,,,,,,,,,,,,,,,,,,,,,,,,,,,,,,,,,,,,,,,,,,,,,,,,,,,,,,,,,,,,,,,,,,,,,,,,,,,,,,,,,,,,,,,,,,,,,,,,,,,,,,,,,,,,,,,,,,574.33947789995,None,1650544383.3822873,1650544386.831827,3.4495396614074707,1071.7734625362941,-3.0,3.331204989063927e-05,0,"[0.43308954511146425, 0.696781916927397, 0.5565629469861881, 0.4261344717290392]","[425.33358047542845, 535.8867312681473, 675.1749730840958, 850.6671609508566]",Major_3rd,"[4.0, 1.4829887434687423, 2.0, 4.0]",False,578.8038997999392,581.5321208999958,581.5321208999958,582.7540453998372,None,0,,3.1265554665587842,4.156573766609654,None,1,None,1,,,,,,,,,,,,,eqdcwr,001,english,1,1,2022-04-21_14h24.15.215,Cluster,2022.1.1,None,
,,,,2,0,2,0,18,0,18,0,,,both,,,,,,,,,,,,,,,,,,,,,,,,,,,,,,,,,,,,,,,,,,,,,,,,,,,,,,,,,,,,,,,,,,,,,,,,,,,,,,,,,,,,,,,,,,,,,,,,,,,,,,,,,,,,,,,,,,583.9988998998888,None,,,,3725.7328770018034,-1.8449518189695147,6.398378180304122e-05,1,"[0.4724663900972052, 0.4724663900972052, 0.4724663900972052, 0.4724663900972052]","[5914.23228830517, 5268.981964435282, 4694.129278019959, 4181.993756573018]",Tone,"[3.8729078284856655, 2.566116844466812, 1.3072675182586222, 0.8358100735481013]",False,585.0212755999528,587.4716380999889,587.4716380999889,588.7108980999328,['space'],1,[0.4925617999397218],2.9168457665946335,3.94345046649687,None,1,None,1,,,,,,,,,,,,,eqdcwr,001,english,1,1,2022-04-21_14h24.15.215,Cluster,2022.1.1,None,
,,,,2,0,2,0,19,0,19,0,,,time,,,,,,,,,,,,,,,,,,,,,,,,,,,,,,,,,,,,,,,,,,,,,,,,,,,,,,,,,,,,,,,,,,,,,,,,,,,,,,,,,,,,,,,,,,,,,,,,,,,,,,,,,,,,,,,,,,590.0194532999303,None,,,,766.2054211771667,0.557816882220582,4.2551481792772005e-05,0,"[0.7773883944249522, 0.7773883944249522, 0.7773883944249522, 0.7773883944249522]","[325.9663407316865, 1304.8222569343918, 2960.916319335844, 209.70474279772677]",None,"[6.159795749040223, 9.0, 0.1755438318443634, 3.0]",False,591.0280561998952,594.3777989998925,594.3777989998925,595.61184519995,None,0,,4.1312240664847195,5.159074566559866,None,1,None,1,,,,,,,,,,,,,eqdcwr,001,english,1,1,2022-04-21_14h24.15.215,Cluster,2022.1.1,None,
,,,,3,0,3,0,0,0,0,0,,,time,,,,,,,,,,,,,,,,,,,,,,,,,,,,,,,,,,,,,,,,,,,,,,,,,,,,,,,,,,,,,,,,,,,,,,,,,,,,,,,,,,,,,,,,,,,,,,,,,,,,,,,,,,,,,,,,,,599.7671244998928,None,1650544408.7816706,1650544416.1651206,7.383450031280518,2828.42712474619,-9.0,2.3235297639971806e-05,0,"[0.553429776877606, 0.553429776877606, 0.553429776877606, 0.553429776877606]","[4556.8575417615275, 535.312150550851, 322.8634000049363, 136.09278587781924]",None,"[1.3072675182586222, 1.4829887434687423, 6.159795749040223, 4.216895407745912]",False,608.14485159982,610.8450713998172,610.8450713998172,612.0649377999362,None,0,,3.2466383997816592,4.268171399831772,None,1,None,1,,,,,,,,,,,,,eqdcwr,001,english,1,1,2022-04-21_14h24.15.215,Cluster,2022.1.1,None,
,,,,3,0,3,0,1,0,1,0,,,time,,,,,,,,,,,,,,,,,,,,,,,,,,,,,,,,,,,,,,,,,,,,,,,,,,,,,,,,,,,,,,,,,,,,,,,,,,,,,,,,,,,,,,,,,,,,,,,,,,,,,,,,,,,,,,,,,,613.4937666000333,None,,,,1252.3683687463893,6.014480985327731,0.0001088241614632888,1,"[0.5237339799864478, 0.5237339799864478, 0.5237339799864478, 0.5237339799864478]","[1784.474508871471, 142.83331391164543, 1153.0405265220816, 174.158453323544]",None,"[8.0, 4.014491229490316, 7.374753143792167, 3.1083421672832143]",False,614.5212488998659,617.1203705000225,617.1203705000225,618.3427927999292,['space'],1,[0.3723466000519693],3.1236160665284842,4.155873166397214,None,1,None,1,,,,,,,,,,,,,eqdcwr,001,english,1,1,2022-04-21_14h24.15.215,Cluster,2022.1.1,None,
,,,,3,0,3,0,2,0,2,0,,,time,,,,,,,,,,,,,,,,,,,,,,,,,,,,,,,,,,,,,,,,,,,,,,,,,,,,,,,,,,,,,,,,,,,,,,,,,,,,,,,,,,,,,,,,,,,,,,,,,,,,,,,,,,,,,,,,,,619.7062746998854,None,1650544428.751393,1650544436.779065,8.027671813964844,1741.101126592249,0.0,6.312169477569904e-05,1,"[0.7054456641257689, 0.7054456641257689, 0.7054456641257689, 0.7054456641257689]","[405.43590943485094, 132.02371852465166, 478.6913431816358, 153.63288354021577]",None,"[4.450392872957826, 4.216895407745912, 2.6311300037882948, 3.6893224035748413]",False,628.7967840998899,631.9458208999131,631.9458208999131,633.179370699916,['space'],1,[0.024919099872931838],3.8360052332282066,4.867336333263665,None,1,None,1,,,,,,,,,,,,,eqdcwr,001,english,1,1,2022-04-21_14h24.15.215,Cluster,2022.1.1,None,
,,,,3,0,3,0,3,0,3,0,,,frequency,,,,,,,,,,,,,,,,,,,,,,,,,,,,,,,,,,,,,,,,,,,,,,,,,,,,,,,,,,,,,,,,,,,,,,,,,,,,,,,,,,,,,,,,,,,,,,,,,,,,,,,,,,,,,,,,,,634.7014507998247,None,,,,,,,,"[0.4858165896578376, 0.47802812347320645, 0.6728518667994849, 0.6168763068020645]","[245.49563647512022, 309.30512005234357, 389.70003159420844, 490.99127295024033]",Major_3rd,"[4.0, 6.059135077977032, 5.0, 2.0]",True,635.7028850000352,638.3507572000381,638.3507572000381,639.5847369998228,None,1,,3.2911611665040255,4.319285766687244,None,1,None,1,,0,,,,,,,,,,,eqdcwr,001,english,1,1,2022-04-21_14h24.15.215,Cluster,2022.1.1,None,
,,,,3,0,3,0,4,0,4,0,,,time,,,,,,,,,,,,,,,,,,,,,,,,,,,,,,,,,,,,,,,,,,,,,,,,,,,,,,,,,,,,,,,,,,,,,,,,,,,,,,,,,,,,,,,,,,,,,,,,,,,,,,,,,,,,,,,,,,641.0683563000057,None,,,,397.6677866979826,2.1757373156614763,9.912385075397267e-05,1,"[0.5780824365303996, 0.5780824365303996, 0.5780824365303996, 0.5780824365303996]","[877.892462693055, 217.1394209447113, 3428.987120841343, 2247.77884094661]",None,"[4.110395708048437, 3.0952451234517246, 0.17184970796578725, 3.034886487796405]",False,642.0765897999518,644.8244926999323,644.8244926999323,646.0597315998748,['space'],1,[0.428139999974519],3.334803966805339,4.354065266670659,None,1,None,1,,,,,,,,,,,,,eqdcwr,001,english,1,1,2022-04-21_14h24.15.215,Cluster,2022.1.1,None,
,,,,3,0,3,0,5,0,5,0,,,frequency,,,,,,,,,,,,,,,,,,,,,,,,,,,,,,,,,,,,,,,,,,,,,,,,,,,,,,,,,,,,,,,,,,,,,,,,,,,,,,,,,,,,,,,,,,,,,,,,,,,,,,,,,,,,,,,,,,647.4754075999372,None,,,,1923.887621841876,4.0,0.0001131218666718804,1,"[0.4602678873398589, 0.7825111094423594, 0.5803892758043829, 0.4037024095682693]","[3053.981234780392, 2720.7879672905015, 2423.946512390767, 2159.4908407296803]",Tone,"[0.1755438318443634, 0.9712394348077362, 2.0, 4.40792723066625]",False,648.4812145999167,651.3432342999149,651.3432342999149,652.5655374999624,['space'],1,[0.36934450012631714],3.259780466556549,4.283481166698039,None,1,None,1,,,,,,,,,,,,,eqdcwr,001,english,1,1,2022-04-21_14h24.15.215,Cluster,2022.1.1,None,
,,,,3,0,3,0,6,0,6,0,,,both,,,,,,,,,,,,,,,,,,,,,,,,,,,,,,,,,,,,,,,,,,,,,,,,,,,,,,,,,,,,,,,,,,,,,,,,,,,,,,,,,,,,,,,,,,,,,,,,,,,,,,,,,,,,,,,,,,653.7892312998883,None,1650544462.817919,1650544465.5592766,2.7413575649261475,1624.5047927124701,3.0,8.172519639140109e-05,1,"[0.6614093554206752, 0.6614093554206752, 0.6614093554206752, 0.6614093554206752]","[2578.7406168791576, 2297.396709994069, 2046.7477839935489, 1823.4449771164327]",Tone,"[1.0, 3.034886487796405, 5.0, 8.0]",False,657.5300097998697,660.5401814999059,660.5401814999059,661.7780716998968,['space'],1,[0.2391300001181662],3.672737200045958,4.697687900159508,None,1,None,1,,,,,,,,,,,,,eqdcwr,001,english,1,1,2022-04-21_14h24.15.215,Cluster,2022.1.1,None,
,,,,3,0,3,0,7,0,7,0,,,frequency,,,,,,,,,,,,,,,,,,,,,,,,,,,,,,,,,,,,,,,,,,,,,,,,,,,,,,,,,,,,,,,,,,,,,,,,,,,,,,,,,,,,,,,,,,,,,,,,,,,,,,,,,,,,,,,,,,663.2977571999654,None,1650544472.3292465,1650544476.0838954,3.7546489238739014,307.7861033362292,-1.0,9.470753640623546e-05,0,"[0.5341201800000804, 0.7954958197423888, 0.7069788028018573, 0.5655266991909794]","[193.89309522921687, 217.63764082403108, 244.28999210856156, 274.2062449236566]",Tone,"[2.9238165415902073, 3.0952451234517246, 4.0, 5.0]",False,668.0560122998431,671.1186848999932,671.1186848999932,672.3542716999073,None,0,,3.6194105667527765,4.653655566740781,None,1,None,1,,,,,,,,,,,,,eqdcwr,001,english,1,1,2022-04-21_14h24.15.215,Cluster,2022.1.1,None,
,,,,3,0,3,0,8,0,8,0,,,time,,,,,,,,,,,,,,,,,,,,,,,,,,,,,,,,,,,,,,,,,,,,,,,,,,,,,,,,,,,,,,,,,,,,,,,,,,,,,,,,,,,,,,,,,,,,,,,,,,,,,,,,,,,,,,,,,,673.7707390999421,None,1650544482.8088763,1650544488.1017532,5.292876958847046,1319.5079107728945,0.0,5.27835709944967e-05,0,"[0.5098822602092596, 0.5098822602092596, 0.5098822602092596, 0.5098822602092596]","[684.5358775705935, 614.4875626478711, 4120.143492040092, 2086.043241477384]",None,"[2.0, 1.493318367043476, 0.4940193753806348, 5.0]",False,680.0734075999353,682.6323158999439,682.6323158999439,683.8652746998705,None,0,,3.043686600169167,4.077118100132793,None,1,None,1,,,,,,,,,,,,,eqdcwr,001,english,1,1,2022-04-21_14h24.15.215,Cluster,2022.1.1,None,
,,,,3,0,3,0,9,0,9,0,,,both,,,,,,,,,,,,,,,,,,,,,,,,,,,,,,,,,,,,,,,,,,,,,,,,,,,,,,,,,,,,,,,,,,,,,,,,,,,,,,,,,,,,,,,,,,,,,,,,,,,,,,,,,,,,,,,,,,685.2149108999874,None,,,,171.91932310443605,1.0,0.00041257899636019306,1,"[0.46340681085122, 0.46340681085122, 0.46340681085122, 0.46340681085122]","[433.20954812591407, 343.83864620887215, 272.9049143496426, 216.604774062957]",Major_3rd,"[3.5168375051606526, 6.0, 5.0, 3.0952451234517246]",False,686.2173333000392,688.6367405999918,688.6367405999918,689.8717092999723,['space'],1,[0.38046559994108975],2.8873706662561744,3.9186684663873166,None,1,None,1,,,,,,,,,,,,,eqdcwr,001,english,1,1,2022-04-21_14h24.15.215,Cluster,2022.1.1,None,
,,,,3,0,3,0,10,0,10,0,,,both,,,,,,,,,,,,,,,,,,,,,,,,,,,,,,,,,,,,,,,,,,,,,,,,,,,,,,,,,,,,,,,,,,,,,,,,,,,,,,,,,,,,,,,,,,,,,,,,,,,,,,,,,,,,,,,,,,691.1619822999928,None,,,,,,,,"[0.6859973670271566, 0.6859973670271566, 0.6859973670271566, 0.6859973670271566]","[313.0997740047485, 394.4809959859102, 497.0149106261432, 626.1995480094969]",Major_3rd,"[6.059135077977032, 5.0, 2.0, 1.493318367043476]",True,692.1940382998437,695.2785322999116,695.2785322999116,696.5076043999288,None,1,,3.781290666665882,4.805494266562164,None,1,['space'],0,[0.4941557999700308],0,,,,,,,,,,,eqdcwr,001,english,1,1,2022-04-21_14h24.15.215,Cluster,2022.1.1,None,
,,,,3,0,3,0,11,0,11,0,,,both,,,,,,,,,,,,,,,,,,,,,,,,,,,,,,,,,,,,,,,,,,,,,,,,,,,,,,,,,,,,,,,,,,,,,,,,,,,,,,,,,,,,,,,,,,,,,,,,,,,,,,,,,,,,,,,,,,698.0260487999767,None,1650544507.066012,1650544510.874043,3.8080310821533203,1148.6983549970344,1.0,5.6406188216981336e-05,1,"[0.7238014124338933, 0.7238014124338933, 0.7238014124338933, 0.7238014124338933]","[2894.5384748807546, 2297.3967099940687, 1823.4449771164327, 1447.2692374403773]",Major_3rd,"[0.4143334754883661, 3.034886487796405, 8.0, 9.58105541366995]",False,702.8465452999808,706.0567546000239,706.0567546000239,707.2894122998696,['space'],1,[0.3289161999709904],3.929800166748464,4.961048166733235,None,1,None,1,,,,,,,,,,,,,eqdcwr,001,english,1,1,2022-04-21_14h24.15.215,Cluster,2022.1.1,None,
,,,,3,0,3,0,12,0,12,0,,,frequency,,,,,,,,,,,,,,,,,,,,,,,,,,,,,,,,,,,,,,,,,,,,,,,,,,,,,,,,,,,,,,,,,,,,,,,,,,,,,,,,,,,,,,,,,,,,,,,,,,,,,,,,,,,,,,,,,,708.8730115999933,None,,,,239.5303401966385,1.3642783406933563,0.00021996809370473626,1,"[0.5103554848167763, 0.5050467491590369, 0.7605414272208006, 0.7450981118622473]","[150.89465885111244, 169.37352785296372, 190.1153570032223, 213.3972730369046]",Tone,"[3.6893224035748413, 3.3723023506590977, 2.9238165415902073, 3.0]",False,709.8773634999525,712.6955275998916,712.6955275998916,713.9298425000161,['space'],1,[0.37329969997517765],3.5567822665907443,4.585089066531509,None,1,None,1,,,,,,,,,,,,,eqdcwr,001,english,1,1,2022-04-21_14h24.15.215,Cluster,2022.1.1,None,
,,,,3,0,3,0,13,0,13,0,,,time,,,,,,,,,,,,,,,,,,,,,,,,,,,,,,,,,,,,,,,,,,,,,,,,,,,,,,,,,,,,,,,,,,,,,,,,,,,,,,,,,,,,,,,,,,,,,,,,,,,,,,,,,,,,,,,,,,715.4966565000359,None,,,,,,,,"[0.500406303665608, 0.500406303665608, 0.500406303665608, 0.500406303665608]","[1024.2916907710294, 191.61929946871498, 6779.920528847541, 1814.3375009734295]",None,"[6.0, 2.9238165415902073, 4.774566040266244, 8.0]",True,716.4985803000163,719.0147453998215,719.0147453998215,720.2361866999418,None,1,,3.043090866645798,4.07250816677697,None,1,None,1,,0,,,,,,,,,,,eqdcwr,001,english,1,1,2022-04-21_14h24.15.215,Cluster,2022.1.1,None,
,,,,3,0,3,0,14,0,14,0,,,time,,,,,,,,,,,,,,,,,,,,,,,,,,,,,,,,,,,,,,,,,,,,,,,,,,,,,,,,,,,,,,,,,,,,,,,,,,,,,,,,,,,,,,,,,,,,,,,,,,,,,,,,,,,,,,,,,,721.6173560998868,None,,,,5222.00583947464,0.3891371818365409,0.0001511829743708901,0,"[0.4517987328492674, 0.4517987328492674, 0.4517987328492674, 0.4517987328492674]","[544.4880520734058, 5505.254776213223, 5553.737400376353, 175.1426297061776]",None,"[1.4829887434687423, 3.0, 3.0, 3.1083421672832143]",False,722.6296531998087,725.009280399885,725.009280399885,726.2426451998763,None,0,,2.854536066763103,3.8839328666217625,None,1,None,1,,,,,,,,,,,,,eqdcwr,001,english,1,1,2022-04-21_14h24.15.215,Cluster,2022.1.1,None,
,,,,3,0,3,0,15,0,15,0,,,frequency,,,,,,,,,,,,,,,,,,,,,,,,,,,,,,,,,,,,,,,,,,,,,,,,,,,,,,,,,,,,,,,,,,,,,,,,,,,,,,,,,,,,,,,,,,,,,,,,,,,,,,,,,,,,,,,,,,727.5378431999125,None,1650544536.5965188,1650544540.075649,3.479130268096924,125.0,-4.0,0.00045600541967795504,1,"[0.4667837318882896, 0.6591366253597486, 0.7126981152863471, 0.4619379353179902]","[314.9802624737183, 250.00000000000003, 198.42513149602496, 157.49013123685916]",Major_3rd,"[6.059135077977032, 4.191212245504896, 2.895042193204213, 3.6893224035748413]",False,732.0463955998421,734.9185321999248,734.9185321999248,736.1540460998658,['space'],1,[0.7551019999664277],3.3406778001226485,4.372656299965456,None,1,None,1,,,,,,,,,,,,,eqdcwr,001,english,1,1,2022-04-21_14h24.15.215,Cluster,2022.1.1,None,
,,,,3,0,3,0,16,0,16,0,,,time,,,,,,,,,,,,,,,,,,,,,,,,,,,,,,,,,,,,,,,,,,,,,,,,,,,,,,,,,,,,,,,,,,,,,,,,,,,,,,,,,,,,,,,,,,,,,,,,,,,,,,,,,,,,,,,,,,737.4686946999282,None,1650544546.5078,1650544552.5821886,6.07438850402832,329.87697769322364,-4.0,5.9788848976237954e-05,1,"[0.5228837359527305, 0.5228837359527305, 0.5228837359527305, 0.5228837359527305]","[223.9520831757597, 1815.8007055134096, 3224.6126681871233, 537.612051867376]",None,"[3.0952451234517246, 8.0, 0.12314290329400102, 1.4829887434687423]",False,744.5540535999462,747.1655546999536,747.1655546999536,748.3988892999478,['space'],1,[0.5719498998951167],3.098138233181089,4.12861923314631,None,1,None,1,,,,,,,,,,,,,eqdcwr,001,english,1,1,2022-04-21_14h24.15.215,Cluster,2022.1.1,None,
,,,,3,0,3,0,17,0,17,0,,,both,,,,,,,,,,,,,,,,,,,,,,,,,,,,,,,,,,,,,,,,,,,,,,,,,,,,,,,,,,,,,,,,,,,,,,,,,,,,,,,,,,,,,,,,,,,,,,,,,,,,,,,,,,,,,,,,,,749.7452275999822,None,,,,154.11596556883697,1.4569212114289287,0.0005481522920552538,1,"[0.4567771512042878, 0.4567771512042878, 0.4567771512042878, 0.4567771512042878]","[388.3478982901025, 308.231931137674, 244.64384586906664, 194.1739491450512]",Major_3rd,"[5.0, 6.059135077977032, 4.0, 2.9238165415902073]",False,750.75661819987,753.1707500999328,753.1707500999328,754.4062926999759,['space'],1,[0.5184140000492334],2.8522074667271227,3.883112766779959,None,1,None,1,,,,,,,,,,,,,eqdcwr,001,english,1,1,2022-04-21_14h24.15.215,Cluster,2022.1.1,None,
,,,,3,0,3,0,18,0,18,0,,,frequency,,,,,,,,,,,,,,,,,,,,,,,,,,,,,,,,,,,,,,,,,,,,,,,,,,,,,,,,,,,,,,,,,,,,,,,,,,,,,,,,,,,,,,,,,,,,,,,,,,,,,,,,,,,,,,,,,,755.6836643000133,None,,,,302.9665892188086,3.7112583188771513,0.00017073751340708612,1,"[0.7434106482088113, 0.5561947301537462, 0.6665152645743022, 0.5056680731944008]","[190.85699158581505, 214.22972970957872, 240.46474121857707, 269.91254597438734]",Tone,"[2.9238165415902073, 3.0952451234517246, 4.0, 5.0]",False,756.7043765999842,759.7113848000299,759.7113848000299,760.9443797999993,['space'],1,[0.4394408001098782],3.5093986669089645,4.535802866797894,None,1,None,1,,,,,,,,,,,,,eqdcwr,001,english,1,1,2022-04-21_14h24.15.215,Cluster,2022.1.1,None,
,,,,3,0,3,0,19,0,19,0,,,frequency,,,,,,,,,,,,,,,,,,,,,,,,,,,,,,,,,,,,,,,,,,,,,,,,,,,,,,,,,,,,,,,,,,,,,,,,,,,,,,,,,,,,,,,,,,,,,,,,,,,,,,,,,,,,,,,,,,762.280275600031,None,1650544571.3334112,1650544575.0788965,3.745485305786133,1515.7165665103996,4.0,7.865869131234175e-05,1,"[0.6727237251494396, 0.7294231034309141, 0.4425132207685331, 0.5020958788801839]","[3819.3664156416708, 3031.4331330207997, 2406.050072164236, 1909.6832078208352]",Major_3rd,"[0.2889914060118919, 0.1755438318443634, 2.0, 7.0]",False,767.0499320998788,769.9219078999013,769.9219078999013,771.1587719998788,['space'],1,[0.2942007998935878],3.3744494668208063,4.406569266691804,None,1,None,1,,,,,,,,,,,,,eqdcwr,001,english,1,1,2022-04-21_14h24.15.215,Cluster,2022.1.1,None,
,,,,4,0,4,0,0,0,0,0,,,time,,,,,,,,,,,,,,,,,,,,,,,,,,,,,,,,,,,,,,,,,,,,,,,,,,,,,,,,,,,,,,,,,,,,,,,,,,,,,,,,,,,,,,,,,,,,,,,,,,,,,,,,,,,,,,,,,,774.4230607999489,None,,,,5239.337296462027,0.3891371818365409,0.0001505145695940246,0,"[0.6865420798974684, 0.6865420798974684, 0.6865420798974684, 0.6865420798974684]","[2665.1523958260495, 6310.635943449784, 7971.695804541505, 414.2567223620573]",None,"[0.9712394348077362, 4.0, 4.8691857842181205, 4.0]",False,775.4094864998478,778.4982964999508,778.4982964999508,779.7321414998733,None,0,,3.788093466544524,4.816594366449863,None,1,['space'],0,[0.5214862001594156],,,,,,,,,,,,eqdcwr,001,english,1,1,2022-04-21_14h24.15.215,Cluster,2022.1.1,None,
,,,,4,0,4,0,1,0,1,0,,,both,,,,,,,,,,,,,,,,,,,,,,,,,,,,,,,,,,,,,,,,,,,,,,,,,,,,,,,,,,,,,,,,,,,,,,,,,,,,,,,,,,,,,,,,,,,,,,,,,,,,,,,,,,,,,,,,,,781.2614426999353,None,1650544590.3192897,1650544597.029068,6.709778308868408,1414.213562373095,0.0,5.043234004607858e-05,0,"[0.6826899174013765, 0.6826899174013765, 0.6826899174013765, 0.6826899174013765]","[561.2310241546867, 707.1067811865478, 890.8987181403395, 1122.4620483093731]",Major_3rd,"[1.3517870611377325, 2.335362874573512, 4.110395708048437, 7.0]",False,789.0518451000098,792.1457989998162,792.1457989998162,793.3827249000315,None,0,,3.7643288334365934,4.792105333413929,None,1,None,1,,,,,,,,,,,,,eqdcwr,001,english,1,1,2022-04-21_14h24.15.215,Cluster,2022.1.1,None,
,,,,4,0,4,0,2,0,2,0,,,both,,,,,,,,,,,,,,,,,,,,,,,,,,,,,,,,,,,,,,,,,,,,,,,,,,,,,,,,,,,,,,,,,,,,,,,,,,,,,,,,,,,,,,,,,,,,,,,,,,,,,,,,,,,,,,,,,,794.8906160998158,None,,,,145.83706018457892,1.721325347192102,0.0006549550047893046,1,"[0.4893376525969794, 0.4893376525969794, 0.4893376525969794, 0.4893376525969794]","[231.50190275295023, 206.24474840965283, 183.74318198133648, 163.69656529419976]",Tone,"[3.5253033140191206, 2.895042193204213, 3.0, 3.3723023506590977]",False,795.9036890999414,798.4167682998814,798.4167682998814,799.6509673998225,['space'],1,[0.5669577999506146],2.985029866686091,4.013309066882357,None,1,None,1,,,,,,,,,,,,,eqdcwr,001,english,1,1,2022-04-21_14h24.15.215,Cluster,2022.1.1,None,
,,,,4,0,4,0,3,0,3,0,,,frequency,,,,,,,,,,,,,,,,,,,,,,,,,,,,,,,,,,,,,,,,,,,,,,,,,,,,,,,,,,,,,,,,,,,,,,,,,,,,,,,,,,,,,,,,,,,,,,,,,,,,,,,,,,,,,,,,,,800.9670177998487,None,,,,980.0194338820298,3.0,6.142357231041172e-05,1,"[0.46127137150159103, 0.5955793245636753, 0.5048504558820933, 0.7143895602317927]","[2469.494228108053, 1960.03886776406, 1555.6838802936136, 1234.7471140540263]",Major_3rd,"[1.836466042985346, 6.0, 9.6570143092373, 8.303968446146236]",False,801.9737472999841,804.5583043999504,804.5583043999504,805.7934178998694,['space'],1,[0.2574938000179827],3.319667966803536,4.350379966665059,None,1,None,1,,,,,,,,,,,,,eqdcwr,001,english,1,1,2022-04-21_14h24.15.215,Cluster,2022.1.1,None,
,,,,4,0,4,0,4,0,4,0,,,frequency,,,,,,,,,,,,,,,,,,,,,,,,,,,,,,,,,,,,,,,,,,,,,,,,,,,,,,,,,,,,,,,,,,,,,,,,,,,,,,,,,,,,,,,,,,,,,,,,,,,,,,,,,,,,,,,,,,807.3708946998231,None,,,,,,,,"[0.684244814180232, 0.43085661883998344, 0.582186062410451, 0.7797044628054656]","[3264.475657300804, 2178.776105166516, 1454.158589244814, 970.5344196038252]",Perfect_5th,"[0.12314290329400102, 4.0, 9.58105541366995, 5.0]",True,808.3817070999648,811.0998293999583,811.0998293999583,812.3338719999883,None,1,,3.5192420666571707,4.549022266641259,None,1,['space'],0,[0.5608205001335591],0,,,,,,,,,,,eqdcwr,001,english,1,1,2022-04-21_14h24.15.215,Cluster,2022.1.1,None,
,,,,4,0,4,0,5,0,5,0,,,frequency,,,,,,,,,,,,,,,,,,,,,,,,,,,,,,,,,,,,,,,,,,,,,,,,,,,,,,,,,,,,,,,,,,,,,,,,,,,,,,,,,,,,,,,,,,,,,,,,,,,,,,,,,,,,,,,,,,813.9783381999005,None,1650544623.0197558,1650544627.9588459,4.939090013504028,8000.0,7.0,0.00040641525808204974,1,"[0.5339863912212903, 0.7133474407604599, 0.6888719726785348, 0.7055868229964145]","[3174.8021039364003, 4000.0000000000014, 5039.684199579494, 6349.604207872799]",Major_3rd,"[0.12314290329400102, 0.4940193753806348, 2.0, 4.3900618468875034]",False,819.9318401999772,822.9118613000028,822.9118613000028,824.1464913999662,['space'],1,[0.3051676000468433],3.6698839999735355,4.696992299985141,None,1,None,1,,,,,,,,,,,,,eqdcwr,001,english,1,1,2022-04-21_14h24.15.215,Cluster,2022.1.1,None,
,,,,4,0,4,0,6,0,6,0,,,frequency,,,,,,,,,,,,,,,,,,,,,,,,,,,,,,,,,,,,,,,,,,,,,,,,,,,,,,,,,,,,,,,,,,,,,,,,,,,,,,,,,,,,,,,,,,,,,,,,,,,,,,,,,,,,,,,,,,825.6900930998381,None,,,,178.97442158509008,0.858204072736978,0.00037753548607661653,1,"[0.5651503460865283, 0.6155597444940204, 0.7723494773698325, 0.4663521216803498]","[284.1041850995721, 253.10805432351444, 225.49364114781437, 200.8919958473855]",Tone,"[5.596181116739962, 4.191212245504896, 3.5253033140191206, 2.895042193204213]",False,826.7001278998796,829.6846191999502,829.6846191999502,830.919998700032,['space'],1,[0.37454940006136894],3.4530413665343076,4.4850266666617244,None,1,None,1,,,,,,,,,,,,,eqdcwr,001,english,1,1,2022-04-21_14h24.15.215,Cluster,2022.1.1,None,
,,,,4,0,4,0,7,0,7,0,,,frequency,,,,,,,,,,,,,,,,,,,,,,,,,,,,,,,,,,,,,,,,,,,,,,,,,,,,,,,,,,,,,,,,,,,,,,,,,,,,,,,,,,,,,,,,,,,,,,,,,,,,,,,,,,,,,,,,,,832.2269482000265,None,1650544641.2746403,1650544646.3233078,5.0486674308776855,125.0,-6.0,0.00036221798003749513,0,"[0.5297093305278473, 0.5211581813553829, 0.7528695591549103, 0.5241420671225612]","[629.9605249474366, 420.4482076268573, 280.6155120773433, 187.2883846095852]",Perfect_5th,"[1.493318367043476, 4.0, 5.596181116739962, 2.9238165415902073]",False,838.2965025999583,841.1305776999798,841.1305776999798,842.364468799904,None,0,,3.3639388668816537,4.393699366832152,None,1,None,1,,,,,,,,,,,,,eqdcwr,001,english,1,1,2022-04-21_14h24.15.215,Cluster,2022.1.1,None,
,,,,4,0,4,0,8,0,8,0,,,both,,,,,,,,,,,,,,,,,,,,,,,,,,,,,,,,,,,,,,,,,,,,,,,,,,,,,,,,,,,,,,,,,,,,,,,,,,,,,,,,,,,,,,,,,,,,,,,,,,,,,,,,,,,,,,,,,,843.7445900000166,None,1650544652.7819273,1650544655.9265485,3.1446211338043213,2297.3967099940687,-7.0,3.6361945886720796e-05,1,"[0.5529258122779721, 0.5529258122779721, 0.5529258122779721, 0.5529258122779721]","[3646.8899542328663, 3249.009585424941, 2894.538474880755, 2578.740616879157]",Tone,"[0.2889914060118919, 0.12314290329400102, 0.4143334754883661, 1.0]",False,847.900494299829,850.5761098999064,850.5761098999064,851.8100123999175,['space'],1,[0.39299400011077523],3.240804966771975,4.275706566637382,None,1,None,1,,,,,,,,,,,,,eqdcwr,001,english,1,1,2022-04-21_14h24.15.215,Cluster,2022.1.1,None,
,,,,4,0,4,0,9,0,9,0,,,time,,,,,,,,,,,,,,,,,,,,,,,,,,,,,,,,,,,,,,,,,,,,,,,,,,,,,,,,,,,,,,,,,,,,,,,,,,,,,,,,,,,,,,,,,,,,,,,,,,,,,,,,,,,,,,,,,,853.2325446000323,None,1650544662.258994,1650544667.9867852,5.72779107093811,8000.0,-1.0,0.00016179682846481421,0,"[0.5725941013151128, 0.5725941013151128, 0.5725941013151128, 0.5725941013151128]","[1796.3102072247013, 167.877564927712, 132.39056295957567, 159.4511904864092]",None,"[8.0, 3.3723023506590977, 4.216895407745912, 3.3723023506590977]",False,859.9623272998724,862.7149057998322,862.7149057998322,863.9562041999307,None,0,,3.3253639000467956,4.357718400191516,None,1,None,1,,,,,,,,,,,,,eqdcwr,001,english,1,1,2022-04-21_14h24.15.215,Cluster,2022.1.1,None,
,,,,4,0,4,0,10,0,10,0,,,time,,,,,,,,,,,,,,,,,,,,,,,,,,,,,,,,,,,,,,,,,,,,,,,,,,,,,,,,,,,,,,,,,,,,,,,,,,,,,,,,,,,,,,,,,,,,,,,,,,,,,,,,,,,,,,,,,,865.352653699927,None,,,,1059.0183953448704,4.0,7.373083741777357e-05,0,"[0.7559144474643605, 0.7559144474643605, 0.7559144474643605, 0.7559144474643605]","[3338.0559096556194, 726.6963860973675, 451.62083821409135, 722.5620479903691]",None,"[0.12314290329400102, 2.335362874573512, 3.0, 2.335362874573512]",False,866.3800951999146,869.6635731998831,869.6635731998831,870.9006930999458,None,0,,4.042215566616505,5.078809066675603,None,1,['space'],0,[0.6205045999959111],,,,,,,,,,,,eqdcwr,001,english,1,1,2022-04-21_14h24.15.215,Cluster,2022.1.1,None,
,,,,4,0,4,0,11,0,11,0,,,both,,,,,,,,,,,,,,,,,,,,,,,,,,,,,,,,,,,,,,,,,,,,,,,,,,,,,,,,,,,,,,,,,,,,,,,,,,,,,,,,,,,,,,,,,,,,,,,,,,,,,,,,,,,,,,,,,,872.5055150999688,None,,,,147.48038777726728,1.721325347192102,0.0006371181690456998,1,"[0.6356301956389256, 0.6356301956389256, 0.6356301956389256, 0.6356301956389256]","[371.6272900144753, 294.9607755545346, 234.1105227023121, 185.81364500723762]",Major_3rd,"[5.289027767580068, 5.596181116739962, 3.5253033140191206, 3.0]",False,873.5181132999714,876.4687045998871,876.4687045998871,877.6837841998786,['space'],1,[0.2550979000516236],3.5852610669098794,4.615251066861674,None,1,None,1,,,,,,,,,,,,,eqdcwr,001,english,1,1,2022-04-21_14h24.15.215,Cluster,2022.1.1,None,
,,,,4,0,4,0,12,0,12,0,,,both,,,,,,,,,,,,,,,,,,,,,,,,,,,,,,,,,,,,,,,,,,,,,,,,,,,,,,,,,,,,,,,,,,,,,,,,,,,,,,,,,,,,,,,,,,,,,,,,,,,,,,,,,,,,,,,,,,879.1738293999806,None,1650544688.21106,1650544691.0265481,2.81548810005188,6498.0191708498805,4.0,0.00021556197432056647,1,"[0.4814331683013383, 0.4814331683013383, 0.4814331683013383, 0.4814331683013383]","[2578.7406168791576, 3249.009585424941, 4093.495567987098, 5157.481233758314]",Major_3rd,"[1.0, 0.12314290329400102, 0.4940193753806348, 2.566116844466812]",False,883.0031176998746,885.4769947000314,885.4769947000314,886.7032465999946,['space'],1,[0.31278169993311167],2.965556533075869,3.9992417332250625,None,1,None,1,,,,,,,,,,,,,eqdcwr,001,english,1,1,2022-04-21_14h24.15.215,Cluster,2022.1.1,None,
,,,,4,0,4,0,13,0,13,0,,,both,,,,,,,,,,,,,,,,,,,,,,,,,,,,,,,,,,,,,,,,,,,,,,,,,,,,,,,,,,,,,,,,,,,,,,,,,,,,,,,,,,,,,,,,,,,,,,,,,,,,,,,,,,,,,,,,,,888.0532386000268,None,,,,435.02478147379776,1.2691568534443443,8.65275798715674e-05,1,"[0.7941515115986948, 0.7941515115986948, 0.7941515115986948, 0.7941515115986948]","[172.6396989359357, 217.5123907368989, 274.04843970237755, 345.27939787187137]",Major_3rd,"[3.1083421672832143, 3.0952451234517246, 5.0, 6.0]",False,889.0654473998584,892.4877698000055,892.4877698000055,893.724127799971,['space'],1,[0.32980539998970926],4.20316006639041,5.239165166392922,None,1,None,1,,,,,,,,,,,,,eqdcwr,001,english,1,1,2022-04-21_14h24.15.215,Cluster,2022.1.1,None,
,,,,4,0,4,0,14,0,14,0,,,time,,,,,,,,,,,,,,,,,,,,,,,,,,,,,,,,,,,,,,,,,,,,,,,,,,,,,,,,,,,,,,,,,,,,,,,,,,,,,,,,,,,,,,,,,,,,,,,,,,,,,,,,,,,,,,,,,,895.3591129998676,None,,,,,,,,"[0.6621292737905853, 0.6621292737905853, 0.6621292737905853, 0.6621292737905853]","[1535.5668756918117, 2922.939284735239, 2588.5359347890976, 3777.4209803403783]",None,"[9.6570143092373, 0.4143334754883661, 1.0, 0.2889914060118919]",True,896.3615315998904,899.3649777998216,899.3649777998216,900.6051646999549,None,1,,3.6708533666096628,4.694308166624978,None,1,['space'],0,[0.43852920015342534],0,,,,,,,,,,,eqdcwr,001,english,1,1,2022-04-21_14h24.15.215,Cluster,2022.1.1,None,
,,,,4,0,4,0,15,0,15,0,,,frequency,,,,,,,,,,,,,,,,,,,,,,,,,,,,,,,,,,,,,,,,,,,,,,,,,,,,,,,,,,,,,,,,,,,,,,,,,,,,,,,,,,,,,,,,,,,,,,,,,,,,,,,,,,,,,,,,,,902.0783591999207,None,,,,1954.1096416720547,4.0,0.00011528464050792003,1,"[0.6934753316225173, 0.46647630648375504, 0.6175838009103816, 0.741082627187827]","[4924.047742690299, 3908.219283344109, 3101.9557008514207, 2462.0238713451495]",Major_3rd,"[1.9130873754749476, 0.4940193753806348, 0.1755438318443634, 1.836466042985346]",False,903.0784716999624,905.8733596999664,905.8733596999664,907.1127368998714,['space'],1,[0.3930588001385331],3.5523027665913105,4.578241666546091,None,1,None,1,,,,,,,,,,,,,eqdcwr,001,english,1,1,2022-04-21_14h24.15.215,Cluster,2022.1.1,None,
,,,,4,0,4,0,16,0,16,0,,,time,,,,,,,,,,,,,,,,,,,,,,,,,,,,,,,,,,,,,,,,,,,,,,,,,,,,,,,,,,,,,,,,,,,,,,,,,,,,,,,,,,,,,,,,,,,,,,,,,,,,,,,,,,,,,,,,,,908.6858936999924,None,1650544717.7111213,1650544723.5975404,5.886419057846069,233.2582478842019,-2.0,0.000159090436875498,0,"[0.6886553654779719, 0.6886553654779719, 0.6886553654779719, 0.6886553654779719]","[2354.8229427106835, 6732.771770198136, 1320.1671224529493, 452.09165057690444]",None,"[3.0, 4.774566040266244, 9.103541586562777, 3.0]",False,915.5774954999797,918.6748583000153,918.6748583000153,919.8880998999812,None,0,,3.7759523997083306,4.819988699629903,None,1,None,1,,,,,,,,,,,,,eqdcwr,001,english,1,1,2022-04-21_14h24.15.215,Cluster,2022.1.1,None,
,,,,4,0,4,0,17,0,17,0,,,both,,,,,,,,,,,,,,,,,,,,,,,,,,,,,,,,,,,,,,,,,,,,,,,,,,,,,,,,,,,,,,,,,,,,,,,,,,,,,,,,,,,,,,,,,,,,,,,,,,,,,,,,,,,,,,,,,,921.4360890998505,None,1650544730.456176,1650544734.0039268,3.54775071144104,125.0,-4.0,0.00045600541967795504,0,"[0.7949915056601355, 0.7949915056601355, 0.7949915056601355, 0.7949915056601355]","[314.9802624737183, 250.00000000000003, 198.42513149602496, 157.49013123685916]",Major_3rd,"[6.059135077977032, 4.191212245504896, 2.895042193204213, 3.6893224035748413]",False,925.9847011000384,929.4049847000279,929.4049847000279,930.6419432000257,None,0,,4.216504766605794,5.25338346674107,None,1,['space'],0,[0.5585288000293076],,,,,,,,,,,,eqdcwr,001,english,1,1,2022-04-21_14h24.15.215,Cluster,2022.1.1,None,
,,,,4,0,4,0,18,0,18,0,,,both,,,,,,,,,,,,,,,,,,,,,,,,,,,,,,,,,,,,,,,,,,,,,,,,,,,,,,,,,,,,,,,,,,,,,,,,,,,,,,,,,,,,,,,,,,,,,,,,,,,,,,,,,,,,,,,,,,932.2718064000364,None,,,,163.54438827877874,1.1479791289012402,0.00045447930202235405,1,"[0.7255050805784327, 0.7255050805784327, 0.7255050805784327, 0.7255050805784327]","[824.2120695384549, 550.0955593539467, 367.1447381138028, 245.039714341562]",Perfect_5th,"[3.464680763121044, 1.4829887434687423, 5.289027767580068, 4.0]",False,933.3002170999534,936.5172458000015,936.5172458000015,937.7379407999106,['space'],1,[0.34710390004329383],3.950480666710064,4.96750466665253,None,1,None,1,,,,,,,,,,,,,eqdcwr,001,english,1,1,2022-04-21_14h24.15.215,Cluster,2022.1.1,None,
,,,,4,0,4,0,19,0,19,0,,,both,,,,,,,,,,,,,,,,,,,,,,,,,,,,,,,,,,,,,,,,,,,,,,,,,,,,,,,,,,,,,,,,,,,,,,,,,,,,,,,,,,,,,,,,,,,,,,,,,,,,,,,,,,,,,,,,,,939.3303646999411,None,,,,,,,,"[0.40070652472866675, 0.40070652472866675, 0.40070652472866675, 0.40070652472866675]","[1172.1348267626277, 782.3061406117222, 522.1267073252368, 348.4777689321497]",Perfect_5th,"[7.374753143792167, 3.0, 1.4829887434687423, 6.0]",True,940.3391181000043,942.5402159998193,942.5402159998193,943.7574336999096,None,1,,2.649442466441542,3.6851803665049374,None,1,None,1,,0,,,,,,,,,,,eqdcwr,001,english,1,1,2022-04-21_14h24.15.215,Cluster,2022.1.1,None,
,,,,5,0,5,0,0,0,0,0,,,frequency,,,,,,,,,,,,,,,,,,,,,,,,,,,,,,,,,,,,,,,,,,,,,,,,,,,,,,,,,,,,,,,,,,,,,,,,,,,,,,,,,,,,,,,,,,,,,,,,,,,,,,,,,,,,,,,,,,959.9112193000037,None,1650544768.913167,1650544776.2419434,7.3287763595581055,757.8582832551998,-3.0,2.8519041826256792e-05,0,"[0.4736159291620312, 0.7297623524223686, 0.5278191808343825, 0.7616610880110513]","[300.75625902052957, 378.9291416276, 477.42080195520884, 601.512518041059]",Major_3rd,"[6.0, 5.289027767580068, 2.6311300037882948, 1.493318367043476]",False,968.2260767000262,970.9846280999482,970.9846280999482,972.2190634999424,None,0,,3.5242930001113564,4.556922800140455,None,1,None,1,,,,,,,,,,,,,eqdcwr,001,english,1,1,2022-04-21_14h24.15.215,Cluster,2022.1.1,None,
,,,,5,0,5,0,1,0,1,0,,,frequency,,,,,,,,,,,,,,,,,,,,,,,,,,,,,,,,,,,,,,,,,,,,,,,,,,,,,,,,,,,,,,,,,,,,,,,,,,,,,,,,,,,,,,,,,,,,,,,,,,,,,,,,,,,,,,,,,,973.8351505999453,None,,,,3371.2987340237682,-2.0335231655902617,5.768656601188682e-05,1,"[0.5921596245565729, 0.6438336718292456, 0.5210370559326369, 0.6813628357263168]","[5351.60315688839, 4767.736392467659, 4247.570240480483, 3784.154882455115]",Tone,"[2.566116844466812, 1.9130873754749476, 0.8358100735481013, 0.2889914060118919]",False,974.8411919998471,977.6260019999463,977.6260019999463,978.8596473999787,['space'],1,[0.2467229999601841],3.4859866665210575,4.526205566711724,None,1,None,1,,,,,,,,,,,,,eqdcwr,001,english,1,1,2022-04-21_14h24.15.215,Cluster,2022.1.1,None,
