sweeps.thisRepN,sweeps.thisTrialN,sweeps.thisN,sweeps.thisIndex,trials.thisRepN,trials.thisTrialN,trials.thisN,trials.thisIndex,instructions.started,instructions.stopped,blank_text.started,blank_text.stopped,Intervals,text.started,text.stopped,Delay,Prediction,Frequency,Volume,Psychopy_level,isCatchTrial,len(y),finished_audiograms,probe.started,probe.stopped,feedback.keys,feedback.started,feedback.stopped,ISI.started,ISI.stopped,text_2.started,text_2.stopped,feedback.rt,break_txt.started,break_txt.stopped,,Audiogram_both,Audiogram_frequency,Audiogram_none,Audiogram_time,end_txt.started,end_txt.stopped,participant,session,language (english or french),Resume previous experiment,date,expName,psychopyVersion,frameRate,
0,0,0,0,0,0,0,0,22.7671356999781,None,26.502555599901825,None,"[0.3333333333333333, 0.3333333333333333, 0.16666666666666666, 0.5833333333333334, 0.5833333333333334, 0.3333333333333333, 0.5833333333333334, 0.5833333333333334, 0.3333333333333333, 0.16666666666666666, 0.5833333333333334, 0.3333333333333333, 0.3333333333333333, 0.3333333333333333, 0.5833333333333334]",28.9898816999048,None,1.2462624781913483,time,281.0,2.09130183074421,0.00017129415911785879,0,47,[],0.022360510076396167,None,None,30.029990799957886,None,0.2507523101521656,1.4970147883435139,30.261373099987395,None,,,,,,,,,,,cmzntn,002,fr,1,2022-05-02_14h36.51.244,Continuous,2022.1.1,29.502188909249302,
0,0,0,0,1,0,1,0,,,,,,,,1.2462624781913483,time,188.0,0.950834205159928,0.0003449095947311073,0,48,[],0.022716709994710982,None,None,31.494517499930225,31.494517499930225,0.24279420997481793,1.4890566881661662,31.71880049991887,31.494517499930225,,,,,,,,,,,cmzntn,002,fr,1,2022-05-02_14h36.51.244,Continuous,2022.1.1,29.502188909249302,
0,0,0,0,2,0,2,0,,,,,,,,1.2462624781913483,time,,,,1,48,[],0.02292280993424356,None,['space'],32.951467099948786,32.951467099948786,0.24454790994059294,1.4908103881319412,33.17920359992422,32.951467099948786,[-0.9503050000639632],,,,,,,,,,cmzntn,002,fr,1,2022-05-02_14h36.51.244,Continuous,2022.1.1,29.502188909249302,
0,0,0,0,3,0,3,0,,,,,,,,1.2462624781913483,time,750.0,3.889440583414937,6.359779134298719e-05,0,49,[],0.02399861009325832,None,None,34.41237469995394,34.41237469995394,0.24101151002105325,1.4872739882124015,34.635736999916844,34.41237469995394,,,,,,,,,,,cmzntn,002,fr,1,2022-05-02_14h36.51.244,Continuous,2022.1.1,29.502188909249302,
0,0,0,0,4,0,4,0,,,,,,,,1.2462624781913483,time,125.0,0.13696564659065635,0.0007342066041903482,0,50,[],0.022666310076601803,None,['space'],35.86902009998448,35.86902009998448,0.24792901007458568,1.494191488265934,36.083884299965575,35.86902009998448,[-0.9710390999680385],,,,,,,,,,cmzntn,002,fr,1,2022-05-02_14h36.51.244,Continuous,2022.1.1,29.502188909249302,
0,0,0,0,5,0,5,0,,,,,,,,1.2462624781913483,time,945.0,3.0993068959565484,6.070777690995217e-05,0,51,[],0.014120010077022016,None,['space'],37.3362507999409,37.3362507999409,0.23129940999206156,1.4775618881834098,37.56252839998342,37.3362507999409,[-0.8227659000549465],,,,,,,,,,cmzntn,002,fr,1,2022-05-02_14h36.51.244,Continuous,2022.1.1,29.502188909249302,
0,0,0,0,6,0,6,0,,,,,,,,1.2462624781913483,time,397.0,2.195623531019268,9.957427618326898e-05,0,52,[],0.022435709950514138,None,['space'],38.797069199965335,38.797069199965335,0.23639291001018137,1.4826553882015296,39.013792499899864,38.797069199965335,[-0.9067313000559807],,,,,,,,,,cmzntn,002,fr,1,2022-05-02_14h36.51.244,Continuous,2022.1.1,29.502188909249302,
0,0,0,0,7,0,7,0,,,,,,,,1.2462624781913483,time,595.0,4.0,8.974404231340594e-05,0,53,[],0.022287210100330412,None,['space'],40.24981999990996,40.24981999990996,0.24807961005717516,1.4943420882485234,40.477203399990685,40.24981999990996,[-0.9043816999765113],,,,,,,,,,cmzntn,002,fr,1,2022-05-02_14h36.51.244,Continuous,2022.1.1,29.502188909249302,
0,0,0,0,8,0,8,0,,,,,,,,1.2462624781913483,time,1191.0,3.055152397008724,7.397871680653163e-05,0,54,[],0.022303010104224086,None,['space'],41.71165939990897,41.71165939990897,0.21884061011951417,1.4651030883108624,41.922583299921826,41.71165939990897,[-0.9897873000008985],,,,,,,,,,cmzntn,002,fr,1,2022-05-02_14h36.51.244,Continuous,2022.1.1,29.502188909249302,
0,0,0,0,9,0,9,0,,,,,,,,1.2462624781913483,time,354.0,4.0,0.0001402573203505389,0,55,[],0.02231141005177051,0.2167240099515766,['space'],43.16834189998917,43.16834189998917,0.2167240099515766,1.4629864881429249,43.374675999977626,43.16834189998917,[-1.055227900040336],,,,,,,,,,cmzntn,002,fr,1,2022-05-02_14h36.51.244,Continuous,2022.1.1,29.502188909249302,
1,0,1,0,0,0,0,0,,,,,"[0.3333333333333333, 0.5833333333333334, 0.16666666666666666, 0.16666666666666666, 0.16666666666666666, 0.5833333333333334, 0.16666666666666666, 0.3333333333333333, 0.16666666666666666, 0.5833333333333334, 0.16666666666666666, 0.16666666666666666, 0.3333333333333333, 0.3333333333333333, 0.5833333333333334]",47.52183429989964,None,1.3430785904859583,time,2639.0,2.0,9.726147998452556e-05,0,56,[],0.023339609964750707,None,None,48.531997599988244,None,0.22283560992218554,1.5659142004081439,48.74373029998969,None,,44.62027979991399,None,,,,,,,,cmzntn,002,fr,1,2022-05-02_14h36.51.244,Continuous,2022.1.1,29.502188909249302,
1,0,1,0,1,0,1,0,,,,,,,,1.3430785904859583,time,1662.0,2.249291892248037,7.715189599826445e-05,0,57,[],0.02064580994192511,None,None,50.08441689994652,50.08441689994652,0.22023401001933962,1.563312600505298,50.29904539999552,50.08441689994652,,,,,,,,,,,cmzntn,002,fr,1,2022-05-02_14h36.51.244,Continuous,2022.1.1,29.502188909249302,
1,0,1,0,2,0,2,0,,,,,,,,1.3430785904859583,time,3954.0,-8.65757381651458,3.068267772868767e-05,0,58,[],0.017385210026986897,None,['space'],51.62894009996671,51.62894009996671,0.22994231001939625,1.5730209005053546,51.853885899996385,51.62894009996671,[-1.0360808999976143],,,,,,,,,,cmzntn,002,fr,1,2022-05-02_14h36.51.244,Continuous,2022.1.1,29.502188909249302,
1,0,1,0,3,0,3,0,,,,,,,,1.3430785904859583,time,4438.0,-8.539149269988439,4.268165561816196e-05,0,59,[],0.02226651005912572,None,None,53.186238599941134,53.186238599941134,0.22216051002033055,1.565239100506289,53.39852749998681,53.186238599941134,,,,,,,,,,,cmzntn,002,fr,1,2022-05-02_14h36.51.244,Continuous,2022.1.1,29.502188909249302,
1,0,1,0,4,0,4,0,,,,,,,,1.3430785904859583,time,2351.0,2.23911640365744,0.0001068799912065017,0,60,[],0.022183010005392134,None,['space'],54.73611579998396,54.73611579998396,0.22828730999026448,1.5713659004762228,54.9525937999133,54.73611579998396,[-1.0862178000388667],,,,,,,,,,cmzntn,002,fr,1,2022-05-02_14h36.51.244,Continuous,2022.1.1,29.502188909249302,
1,0,1,0,5,0,5,0,,,,,,,,1.3430785904859583,time,,,,1,60,[],0.0151817100122571,None,None,56.28501759993378,56.28501759993378,0.20999581005889922,1.5530744005448576,56.50086209992878,56.28501759993378,,,,,,,,,,,cmzntn,002,fr,1,2022-05-02_14h36.51.244,Continuous,2022.1.1,29.502188909249302,
1,0,1,0,6,0,6,0,,,,,,,,1.3430785904859583,time,4981.0,-5.054563562417414,8.462697594710248e-05,0,61,[],0.02362960996106267,None,None,57.835744399926625,57.835744399926625,0.22878990997560322,1.5718685004615616,58.05774229997769,57.835744399926625,,,,,,,,,,,cmzntn,002,fr,1,2022-05-02_14h36.51.244,Continuous,2022.1.1,29.502188909249302,
1,0,1,0,7,0,7,0,,,,,,,,1.3430785904859583,time,880.0,0.9629746045762506,4.540690504041982e-05,0,62,[],0.02048140997067094,None,['space'],59.38287490000948,59.38287490000948,0.2218439100543037,1.564922500540262,59.5994866999099,59.38287490000948,[-1.1734353000065312],,,,,,,,,,cmzntn,002,fr,1,2022-05-02_14h36.51.244,Continuous,2022.1.1,29.502188909249302,
1,0,1,0,8,0,8,0,,,,,,,,1.3430785904859583,time,988.0,-0.12720584831952117,4.307588810732862e-05,0,63,[],0.016573109896853566,None,['space'],60.93726209993474,60.93726209993474,0.2163240099325776,1.559402600418536,61.157784699928015,60.93726209993474,[-0.9996504000155255],,,,,,,,,,cmzntn,002,fr,1,2022-05-02_14h36.51.244,Continuous,2022.1.1,29.502188909249302,
1,0,1,0,9,0,9,0,,,,,,,,1.3430785904859583,time,7907.0,2.0,0.00022499511921612834,0,64,[],0.021922309999354184,None,"['space', 'space']",62.496205599978566,62.496205599978566,0.22744690999388695,1.5705255004798453,62.707897599902935,62.496205599978566,"[-1.0544407999841496, -0.8632996999658644]",,,,,,,,,,cmzntn,002,fr,1,2022-05-02_14h36.51.244,Continuous,2022.1.1,29.502188909249302,
1,0,1,0,10,0,10,0,,,,,,,,1.3430785904859583,time,523.0,4.105139372969605,0.00010885531425976115,0,65,[],0.022126910043880343,None,['space'],64.04572749999352,64.04572749999352,0.22622210998088121,1.5693007004668396,64.26821179990657,64.04572749999352,[-1.051201399997808],,,,,,,,,,cmzntn,002,fr,1,2022-05-02_14h36.51.244,Continuous,2022.1.1,29.502188909249302,
1,0,1,0,11,0,11,0,,,,,,,,1.3430785904859583,time,1109.0,1.792762084296394,5.9755518789659255e-05,0,66,[],0.018880510120652616,None,['space'],65.59910279989708,65.59910279989708,0.2265056101605296,1.569584200646488,65.80750329990406,65.59910279989708,[-1.1177569000283256],,,,,,,,,,cmzntn,002,fr,1,2022-05-02_14h36.51.244,Continuous,2022.1.1,29.502188909249302,
1,0,1,0,12,0,12,0,,,,,,,,1.3430785904859583,time,1866.0,3.0538960768788166,9.773242447220404e-05,0,67,[],0.014281710027717054,None,['space'],67.148245499935,67.148245499935,0.2177294100401923,1.5608080005261507,67.37145959993359,67.148245499935,[-1.0500020999461412],,,,,,,,,,cmzntn,002,fr,1,2022-05-02_14h36.51.244,Continuous,2022.1.1,29.502188909249302,
1,0,1,0,13,0,13,0,,,,,,,,1.3430785904859583,time,6276.0,0.33303610066492473,0.000133914297819396,0,68,[],0.02074671001173556,None,None,68.70935549994465,68.70935549994465,0.2248040100093931,1.5678826004953514,68.9251897999784,68.70935549994465,,,,,,,,,,,cmzntn,002,fr,1,2022-05-02_14h36.51.244,Continuous,2022.1.1,29.502188909249302,
1,0,1,0,14,0,14,0,,,,,,,,1.3430785904859583,time,784.0,1.5669345056257082,4.682463206444805e-05,0,69,[],0.02171731006819755,None,['space'],70.25562979991082,70.25562979991082,0.22798431001137942,1.5710629004973378,70.47176709992345,70.25562979991082,[-1.0860440999967977],,,,,,,,,,cmzntn,002,fr,1,2022-05-02_14h36.51.244,Continuous,2022.1.1,29.502188909249302,
2,0,2,0,0,0,0,0,,,,,,76.23277749994304,None,1.3377072174826978,both,179.0,4.967563214045424,0.000605769537457116,0,87,[],0.02227861003484577,None,None,77.25076339999214,None,0.2300264099612832,1.567733627443981,77.46293229993898,None,,71.80524379992858,None,0.5833333333333334,,,,,,,cmzntn,002,fr,1,2022-05-02_14h36.51.244,Continuous,2022.1.1,29.502188909249302,
2,0,2,0,1,0,1,0,,,,,,,,1.3377072174826978,both,268.0,6.343501521451719,0.0003080690491843367,0,88,[],0.014146709931083024,None,['space'],78.79295029991772,78.79295029991772,0.22008810995612293,1.5577953274388208,79.01437409990467,78.79295029991772,[-0.7913803999545053],,,,,,,,,,cmzntn,002,fr,1,2022-05-02_14h36.51.244,Continuous,2022.1.1,29.502188909249302,
2,0,2,0,2,0,2,0,,,,,,,,1.3377072174826978,both,401.0,9.741201842808312,0.00023482272677953096,0,89,[],0.019478910136967897,None,['space'],80.33951269998215,80.33951269998215,0.22915941011160612,1.566866627594304,80.56158209999558,80.33951269998215,[-1.009970200015232],,,,,,,,,,cmzntn,002,fr,1,2022-05-02_14h36.51.244,Continuous,2022.1.1,29.502188909249302,
2,0,2,0,3,0,3,0,,,,,,,,1.3377072174826978,both,601.0,7.6992538467505,0.0001351230573681345,0,90,[],0.020132910110987723,None,['space'],81.8947371999966,81.8947371999966,0.2267668100539595,1.5644740275366573,82.10735239996575,81.8947371999966,[-1.2693124000215903],,,,,,,,,,cmzntn,002,fr,1,2022-05-02_14h36.51.244,Continuous,2022.1.1,29.502188909249302,
2,0,2,0,4,0,4,0,,,,,,,,1.3377072174826978,both,901.0,10.063278535149877,0.00013136167934407546,0,91,[],0.019383010105229914,None,['space'],83.44167289999314,83.44167289999314,0.21960701001808047,1.5573142275007783,83.66360219998751,83.44167289999314,[-1.2321714999852702],,,,,,,,,,cmzntn,002,fr,1,2022-05-02_14h36.51.244,Continuous,2022.1.1,29.502188909249302,
2,0,2,0,5,0,5,0,,,,,,,,1.3377072174826978,both,1350.0,6.7965376076051545,0.0001137763317964149,0,92,[],0.0208454099483788,None,"['space', 'space']",84.99405889993068,84.99405889993068,0.2530002100393176,1.5907074275220154,85.232631699997,84.99405889993068,"[-1.2645920999348164, 0.11207290005404502]",,,,,,,,,,cmzntn,002,fr,1,2022-05-02_14h36.51.244,Continuous,2022.1.1,29.502188909249302,
2,0,2,0,6,0,6,0,,,,,,,,1.3377072174826978,both,2023.0,3.9935210281828217,0.000119287726569693,0,93,[],0.020902410033158958,None,None,86.55409170000348,86.55409170000348,0.22948311001528054,1.5671903274979784,86.7710517999949,86.55409170000348,,,,,,,,,,,cmzntn,002,fr,1,2022-05-02_14h36.51.244,Continuous,2022.1.1,29.502188909249302,
2,0,2,0,7,0,7,0,,,,,,,,1.3377072174826978,both,3031.0,11.0,0.00020493171884913738,0,94,[],0.0134217101149261,None,['space'],88.10446309996769,88.10446309996769,0.2133522101212293,1.5510594276039271,88.32760650001,88.10446309996769,[-1.2390181000810117],,,,,,,,,,cmzntn,002,fr,1,2022-05-02_14h36.51.244,Continuous,2022.1.1,29.502188909249302,
2,0,2,0,8,0,8,0,,,,,,,,1.3377072174826978,both,,,,1,94,[],0.021028710063546896,None,['space'],89.64934979996178,89.64934979996178,0.2275673100957647,1.5652745275784625,89.863535799901,89.64934979996178,[-1.295519300037995],,,,,,,,,,cmzntn,002,fr,1,2022-05-02_14h36.51.244,Continuous,2022.1.1,29.502188909249302,
2,0,2,0,9,0,9,0,,,,,,,,1.3377072174826978,both,6804.0,7.015262878042286,0.0003258255770150311,0,95,[],0.017677009920589626,0.21426790987607092,None,91.18610819999594,91.18610819999594,0.21426790987607092,1.5519751273587687,91.40462359995581,91.18610819999594,,,,,,,,,,,cmzntn,002,fr,1,2022-05-02_14h36.51.244,Continuous,2022.1.1,29.502188909249302,
3,0,3,0,0,0,0,0,,,,,"[0.3333333333333333, 0.3333333333333333, 0.16666666666666666, 0.16666666666666666, 0.3333333333333333, 0.5833333333333334, 0.3333333333333333, 0.3333333333333333, 0.5833333333333334, 0.3333333333333333, 0.16666666666666666, 0.5833333333333334, 0.5833333333333334, 0.16666666666666666, 0.5833333333333334]",95.5264681999106,None,1.0239360481865474,none,250.0,1.666314527472618,0.00020290172100066427,0,58,[],0.023747510043904185,None,None,96.55873669998255,None,0.22239371004980057,1.246329758236348,96.76840509998146,None,,92.72763370000757,None,,,,,,,,cmzntn,002,fr,1,2022-05-02_14h36.51.244,Continuous,2022.1.1,29.502188909249302,
3,0,3,0,1,0,1,0,,,,,,,,1.102717577041103,none,6738.0,3.224285395800149,0.0002076894307317876,0,59,[],0.020858310046605766,None,None,97.78946110000834,97.78946110000834,0.22660190996248275,1.3293194870035858,98.00244750001002,97.78946110000834,,,,,,,,,,,cmzntn,002,fr,1,2022-05-02_14h36.51.244,Continuous,2022.1.1,29.502188909249302,
3,0,3,0,2,0,2,0,,,,,,,,1.3023067499746792,none,530.0,6.386708132881527,0.0001392779040244559,0,60,[],0.01947930990718305,None,['space'],99.09166839998215,99.09166839998215,0.22002330992836505,1.5223300599030443,99.31360959995072,99.09166839998215,[-0.7220617999555543],,,,,,,,,,cmzntn,002,fr,1,2022-05-02_14h36.51.244,Continuous,2022.1.1,29.502188909249302,
3,0,3,0,3,0,3,0,,,,,,,,2.061644506895882,none,842.0,0.9768720179330651,4.4271022847446744e-05,0,61,[],0.02078511007130146,None,['space'],100.59945909993257,100.59945909993257,0.22375721007119864,2.2854017169670806,100.81515049992595,100.59945909993257,[-0.9500477999681607],,,,,,,,,,cmzntn,002,fr,1,2022-05-02_14h36.51.244,Continuous,2022.1.1,29.502188909249302,
3,0,3,0,4,0,4,0,,,,,,,,1.7420080654950438,none,2674.0,4.248582937176984,0.0001224526162636764,0,62,[],0.0206470099510625,None,['space'],102.8723861000035,102.8723861000035,0.22466831002384424,1.966676375518888,103.08437199995387,102.8723861000035,[-1.9108427000464872],,,,,,,,,,cmzntn,002,fr,1,2022-05-02_14h36.51.244,Continuous,2022.1.1,29.502188909249302,
3,0,3,0,5,0,5,0,,,,,,,,1.7370131294101827,none,,,,1,62,[],0.020751910051330924,None,['space'],104.82099019992165,104.82099019992165,0.22732310998253524,1.964336239392718,105.03761839994695,104.82099019992165,[-1.4104693999979645],,,,,,,,,,cmzntn,002,fr,1,2022-05-02_14h36.51.244,Continuous,2022.1.1,29.502188909249302,
3,0,3,0,6,0,6,0,,,,,,,,1.3312264623682941,none,4006.0,1.0368223794720954,9.5047749286389e-05,0,63,[],0.0206504100933671,None,None,106.76635159994476,106.76635159994476,0.2215329100145027,1.5527593723827968,106.98736599995755,106.76635159994476,,,,,,,,,,,cmzntn,002,fr,1,2022-05-02_14h36.51.244,Continuous,2022.1.1,29.502188909249302,
3,0,3,0,7,0,7,0,,,,,,,,1.3282936394546754,none,4497.0,-0.614397483243188,0.0001100689948369599,0,64,[],0.02080540987662971,None,['space'],108.31147710001096,108.31147710001096,0.22180670988745987,1.5501003493421353,108.52373029990122,108.31147710001096,[-1.0458208000054583],,,,,,,,,,cmzntn,002,fr,1,2022-05-02_14h36.51.244,Continuous,2022.1.1,29.502188909249302,
3,0,3,0,8,0,8,0,,,,,,,,1.503204529365419,none,1590.0,6.595027006001894,0.00011945594251727538,0,65,[],0.020759009988978505,None,['space'],109.85156360000838,109.85156360000838,0.2280597100034356,1.7312642393688547,110.068481199909,109.85156360000838,[-1.1941872000461444],,,,,,,,,,cmzntn,002,fr,1,2022-05-02_14h36.51.244,Continuous,2022.1.1,29.502188909249302,
3,0,3,0,9,0,9,0,,,,,,,,2.1109465187326144,none,1785.0,6.871238329198608,0.00014360471184505296,0,66,[],0.02063981001265347,None,['space'],111.56264729995746,111.56264729995746,0.22654881002381444,2.337495328756429,111.77761210000608,111.56264729995746,[-1.0640272999880835],,,,,,,,,,cmzntn,002,fr,1,2022-05-02_14h36.51.244,Continuous,2022.1.1,29.502188909249302,
3,0,3,0,10,0,10,0,,,,,,,,2.7266305605668952,none,354.0,6.294925317344227,0.00018267192407825348,0,67,[],0.020422109868377447,None,['space'],113.88393529993482,113.88393529993482,0.22488430992234498,2.95151487048924,114.0955025999574,113.88393529993482,[-1.850618099910207],,,,,,,,,,cmzntn,002,fr,1,2022-05-02_14h36.51.244,Continuous,2022.1.1,29.502188909249302,
3,0,3,0,11,0,11,0,,,,,,,,2.0924110752314564,none,668.0,6.534240726462415,0.00010149240560947195,0,68,[],0.019067109911702573,None,['space'],116.8219571999507,116.8219571999507,0.2338675099890679,2.3262785852205243,117.0454193999758,116.8219571999507,[-2.4358343000058085],,,,,,,,,,cmzntn,002,fr,1,2022-05-02_14h36.51.244,Continuous,2022.1.1,29.502188909249302,
3,0,3,0,12,0,12,0,,,,,,,,1.3417055696864988,none,177.0,7.0,0.0007817786737526911,0,69,[],0.02050081011839211,None,['space'],119.1234664999647,119.1234664999647,0.21986951015423983,1.5615750798407386,119.33495910000056,119.1234664999647,[-1.889974500052631],,,,,,,,,,cmzntn,002,fr,1,2022-05-02_14h36.51.244,Continuous,2022.1.1,29.502188909249302,
3,0,3,0,13,0,13,0,,,,,,,,2.8654974114025,none,281.0,2.5092285660304494,0.00017973758047587404,0,70,[],0.020388209959492087,None,['space'],120.67374549992383,120.67374549992383,0.22586810996290296,3.091365521365403,120.89155289996415,120.67374549992383,[-1.0077774999663234],,,,,,,,,,cmzntn,002,fr,1,2022-05-02_14h36.51.244,Continuous,2022.1.1,29.502188909249302,
3,0,3,0,14,0,14,0,,,,,,,,1.2220677006567116,none,223.0,1.129293510160342,0.0002509796626214976,0,71,[],0.01891251001507044,None,['space'],123.74808709998615,123.74808709998615,0.2243653100449592,1.4464330107016707,123.96245889994316,123.74808709998615,[-2.4662310000276193],,,,,,,,,,cmzntn,002,fr,1,2022-05-02_14h36.51.244,Continuous,2022.1.1,29.502188909249302,
4,0,4,0,0,0,0,0,,,,,"[0.3333333333333333, 0.16666666666666666, 0.16666666666666666, 0.5833333333333334, 0.16666666666666666, 0.5833333333333334, 0.5833333333333334, 0.3333333333333333, 0.3333333333333333, 0.5833333333333334, 0.16666666666666666, 0.16666666666666666, 0.16666666666666666, 0.5833333333333334, 0.5833333333333334]",128.37916529993527,None,2.841042135979069,time,842.0,-2.811575072887983,2.8621817062960102e-05,0,70,[],0.017366309883072972,None,None,129.38572689995635,None,0.21623790985904634,3.0572800458381155,129.59781269996893,None,,125.18078259995673,None,,,,,,,,cmzntn,002,fr,1,2022-05-02_14h36.51.244,Continuous,2022.1.1,29.502188909249302,
4,0,4,0,1,0,1,0,,,,,,,,2.841042135979069,time,354.0,-1.6725027854454173,7.2996224480578e-05,0,71,[],0.019504109979607165,None,None,132.44087029993534,132.44087029993534,0.2241629100171849,3.065205045996254,132.65070889994968,132.44087029993534,,,,,,,,,,,cmzntn,002,fr,1,2022-05-02_14h36.51.244,Continuous,2022.1.1,29.502188909249302,
4,0,4,0,2,0,2,0,,,,,,,,2.841042135979069,time,210.0,-2.4962828313545806,0.0001844406479200185,0,72,[],0.020179010112769902,None,['space'],135.48611059994437,135.48611059994437,0.22385171009227633,3.0648938460713455,135.70604769990314,135.48611059994437,[-2.459741699974984],,,,,,,,,,cmzntn,002,fr,1,2022-05-02_14h36.51.244,Continuous,2022.1.1,29.502188909249302,
4,0,4,0,3,0,3,0,,,,,,,,2.841042135979069,time,2676.0,-2.3129384889236135,5.7434454787120025e-05,0,73,[],0.020003510056994855,None,None,138.54289479996078,138.54289479996078,0.2259344100020826,3.0669765459811518,138.75510730000678,138.54289479996078,,,,,,,,,,,cmzntn,002,fr,1,2022-05-02_14h36.51.244,Continuous,2022.1.1,29.502188909249302,
4,0,4,0,4,0,4,0,,,,,,,,2.841042135979069,time,140.0,-1.9890148681213486,0.00046859269814761284,0,74,[],0.015382410143502057,0.210165910073556,None,141.58872199989855,141.58872199989855,0.210165910073556,3.051208046052625,141.80345169990323,141.58872199989855,,,,,,,,,,,cmzntn,002,fr,1,2022-05-02_14h36.51.244,Continuous,2022.1.1,29.502188909249302,
4,0,4,0,5,0,5,0,,,,,,,,2.841042135979069,time,1262.0,-2.632801535751588,4.003591667721543e-05,0,75,[],0.016603110008873045,0.2148010099772364,['space'],144.64122170000337,144.64122170000337,0.2148010099772364,3.0558431459563056,144.8603185999673,144.64122170000337,[-2.5596556999953464],,,,,,,,,,cmzntn,002,fr,1,2022-05-02_14h36.51.244,Continuous,2022.1.1,29.502188909249302,
4,0,4,0,6,0,6,0,,,,,,,,2.841042135979069,time,530.0,-0.5263841814446462,6.283876004326117e-05,0,76,[],0.019601509906351566,None,None,147.6891575999325,147.6891575999325,0.22810220997780561,3.069144345956875,147.90902419993654,147.6891575999325,,,,,,,,,,,cmzntn,002,fr,1,2022-05-02_14h36.51.244,Continuous,2022.1.1,29.502188909249302,
4,0,4,0,7,0,7,0,,,,,,,,2.841042135979069,time,125.0,-4.0,0.00045600541967795504,0,77,[],0.01952301012352109,None,None,150.7393907000078,150.7393907000078,0.22595831006765366,3.067000446046723,150.95246539998334,150.7393907000078,,,,,,,,,,,cmzntn,002,fr,1,2022-05-02_14h36.51.244,Continuous,2022.1.1,29.502188909249302,
4,0,4,0,8,0,8,0,,,,,,,,2.841042135979069,time,1591.0,-1.8899735290129906,4.5041568508210666e-05,0,78,[],0.019828610005788505,None,None,153.79143899993505,153.79143899993505,0.2220622100867331,3.0631043460658023,154.00359330000356,153.79143899993505,,,,,,,,,,,cmzntn,002,fr,1,2022-05-02_14h36.51.244,Continuous,2022.1.1,29.502188909249302,
4,0,4,0,9,0,9,0,,,,,,,,2.841042135979069,time,,,,1,78,[],0.017586909933015704,None,None,156.83997189998627,156.83997189998627,0.2206186099210754,3.0616607459001446,157.05747169989627,156.83997189998627,,,,,,,,,,,cmzntn,002,fr,1,2022-05-02_14h36.51.244,Continuous,2022.1.1,29.502188909249302,
4,0,4,0,10,0,10,0,,,,,,,,2.841042135979069,time,668.0,-3.466942919560793,3.2090343371184526e-05,0,79,[],0.020468509988859296,None,None,159.88864149991423,159.88864149991423,0.22165540989954025,3.0626975458786094,160.1045354999369,159.88864149991423,,,,,,,,,,,cmzntn,002,fr,1,2022-05-02_14h36.51.244,Continuous,2022.1.1,29.502188909249302,
4,0,4,0,11,0,11,0,,,,,,,,2.841042135979069,time,236.0,-3.8883888173536816,0.00012457123100454294,0,80,[],0.01983981009107083,None,['space'],162.93558509997092,162.93558509997092,0.22798011009581387,3.069022246074883,163.14990329998545,162.93558509997092,[-2.3894109999528155],,,,,,,,,,cmzntn,002,fr,1,2022-05-02_14h36.51.244,Continuous,2022.1.1,29.502188909249302,
4,0,4,0,12,0,12,0,,,,,,,,2.841042135979069,time,1786.0,-1.5892126832239315,5.4255933722557085e-05,0,81,[],0.019218610017560422,None,None,165.98889789998066,165.98889789998066,0.2239403099520132,3.0649824459310824,166.2044946999522,165.98889789998066,,,,,,,,,,,cmzntn,002,fr,1,2022-05-02_14h36.51.244,Continuous,2022.1.1,29.502188909249302,
4,0,4,0,13,0,13,0,,,,,,,,2.841042135979069,time,4009.0,-8.543384792163152,3.162226169365618e-05,0,82,[],0.012757709948346019,None,None,169.03931459994055,169.03931459994055,0.21022260992322117,3.0512647459022904,169.25790969992522,169.03931459994055,,,,,,,,,,,cmzntn,002,fr,1,2022-05-02_14h36.51.244,Continuous,2022.1.1,29.502188909249302,
5,0,5,0,0,0,0,0,,,,,"[0.3333333333333333, 0.16666666666666666, 0.5833333333333334, 0.5833333333333334, 0.16666666666666666, 0.5833333333333334, 0.16666666666666666, 0.16666666666666666, 0.16666666666666666, 0.5833333333333334, 0.5833333333333334, 0.16666666666666666, 0.5833333333333334, 0.16666666666666666, 0.3333333333333333]",175.7657193999039,None,1.3603679407492668,time,2245.0,2.9647538730519285,0.00011288690787137655,0,83,[],0.023805310018360615,None,None,176.77997619996313,None,0.2412832099944353,1.6016511507437021,176.9961891999701,None,,172.09597359993495,None,,,,,,,,cmzntn,002,fr,1,2022-05-02_14h36.51.244,Continuous,2022.1.1,29.502188909249302,
5,0,5,0,1,0,1,0,,,,,,,,1.3603679407492668,time,7127.0,1.0,0.0001739984906077362,0,84,[],0.012042809976264834,None,None,178.35053709999193,178.35053709999193,0.21172101004049182,1.5720889507897586,178.56639970000833,178.35053709999193,,,,,,,,,,,cmzntn,002,fr,1,2022-05-02_14h36.51.244,Continuous,2022.1.1,29.502188909249302,
5,0,5,0,2,0,2,0,,,,,,,,1.3603679407492668,time,5656.0,-4.053813411109192,8.061185891491691e-05,0,85,[],0.01935360999777913,None,['space'],179.92599639995024,179.92599639995024,0.22246831003576517,1.582836250785032,180.1381561999442,179.92599639995024,[-1.1561997000826523],,,,,,,,,,cmzntn,002,fr,1,2022-05-02_14h36.51.244,Continuous,2022.1.1,29.502188909249302,
5,0,5,0,3,0,3,0,,,,,,,,1.3603679407492668,time,1498.0,1.00226123036185,5.426618326418589e-05,0,86,[],0.017348709981888533,None,['space'],181.49592309992295,181.49592309992295,0.21760540991090238,1.5779733506601692,181.71317359991372,181.49592309992295,[-1.2067809000145644],,,,,,,,,,cmzntn,002,fr,1,2022-05-02_14h36.51.244,Continuous,2022.1.1,29.502188909249302,
5,0,5,0,4,0,4,0,,,,,,,,1.3603679407492668,time,3363.0,-2.9700354429940687,5.16868893752169e-05,0,87,[],0.017837710096500814,None,['space'],183.06352540000807,183.06352540000807,0.21885801013559103,1.5792259508848578,183.28197719994932,183.06352540000807,[-1.1257639999967068],,,,,,,,,,cmzntn,002,fr,1,2022-05-02_14h36.51.244,Continuous,2022.1.1,29.502188909249302,
5,0,5,0,5,0,5,0,,,,,,,,1.3603679407492668,time,8000.0,1.0,0.0002036901389020564,0,88,[],0.012267810059711337,None,['space'],184.64072809997015,184.64072809997015,0.21134911000262946,1.5717170507518963,184.8581833000062,184.64072809997015,[-1.1991678000194952],,,,,,,,,,cmzntn,002,fr,1,2022-05-02_14h36.51.244,Continuous,2022.1.1,29.502188909249302,
5,0,5,0,6,0,6,0,,,,,,,,1.3603679407492668,time,,,,1,88,[],0.01937441003974527,None,['space'],186.2159995000111,186.2159995000111,0.221279009943828,1.5816469506930948,186.43368449993432,186.2159995000111,[-1.2700364999473095],,,,,,,,,,cmzntn,002,fr,1,2022-05-02_14h36.51.244,Continuous,2022.1.1,29.502188909249302,
5,0,5,0,7,0,7,0,,,,,,,,1.3603679407492668,time,3775.0,-4.171566785749415,4.9483478645284e-05,0,89,[],0.0204827100969851,None,['space'],187.7844648999162,187.7844648999162,0.22472481010481715,1.585092750854084,188.00112799997441,187.7844648999162,[-1.158824099926278],,,,,,,,,,cmzntn,002,fr,1,2022-05-02_14h36.51.244,Continuous,2022.1.1,29.502188909249302,
5,0,5,0,8,0,8,0,,,,,,,,1.3603679407492668,time,1335.0,1.2268049106697465,6.0347996491057236e-05,0,90,[],0.014806109946221113,None,['space'],189.35528699995484,189.35528699995484,0.21013210993260145,1.5705000506818683,189.57530549995136,189.35528699995484,[-1.0496693999739364],,,,,,,,,,cmzntn,002,fr,1,2022-05-02_14h36.51.244,Continuous,2022.1.1,29.502188909249302,
6,0,6,0,0,0,0,0,,,,,,194.11143309995532,None,1.276321960434812,frequency,1260.0,0.5983352730654201,5.813052107474055e-05,0,81,[],0.02171121002174914,None,None,195.12918649998028,None,0.22171501000411808,1.49803697043893,195.33216649992391,None,,190.923011799925,None,0.3333333333333333,,,,,,,cmzntn,002,fr,1,2022-05-02_14h36.51.244,Continuous,2022.1.1,29.502188909249302,
6,0,6,0,1,0,1,0,,,,,,,,1.2902822793940905,frequency,1587.0,0.1900719219176632,5.688355404669162e-05,0,82,[],0.010735609917901456,None,['space'],196.603566100006,196.603566100006,0.21002260991372168,1.5003048893078121,196.8170915999217,196.603566100006,[-0.6173481000587344],,,,,,,,,,cmzntn,002,fr,1,2022-05-02_14h36.51.244,Continuous,2022.1.1,29.502188909249302,
6,0,6,0,2,0,2,0,,,,,,,,2.3833487954239674,frequency,2000.0,1.2643213150886123,8.653385869473097e-05,0,83,[],0.004469010047614574,None,None,198.11560479993932,198.11560479993932,0.2043191100237891,2.5876679054477565,198.3291996999178,198.11560479993932,,,,,,,,,,,cmzntn,002,fr,1,2022-05-02_14h36.51.244,Continuous,2022.1.1,29.502188909249302,
6,0,6,0,3,0,3,0,,,,,,,,1.6855053209613402,frequency,2520.0,0.9909200471386017,9.488249437033344e-05,0,84,[],0.019182509975507855,None,['space'],200.70840419991873,200.70840419991873,0.22421750996727496,1.9097228309286152,200.91944329999387,200.70840419991873,[-2.0346711999736726],,,,,,,,,,cmzntn,002,fr,1,2022-05-02_14h36.51.244,Continuous,2022.1.1,29.502188909249302,
6,0,6,0,4,0,4,0,,,,,,,,1.4123288791507451,frequency,3175.0,-2.759837945545456,5.0551120691874203e-05,0,85,[],0.018609310034662485,None,['space'],202.6011844999157,202.6011844999157,0.22281310998369008,1.6351419891344352,202.82242219999898,202.6011844999157,[-1.2231865999056026],,,,,,,,,,cmzntn,002,fr,1,2022-05-02_14h36.51.244,Continuous,2022.1.1,29.502188909249302,
6,0,6,0,5,0,5,0,,,,,,,,1.5208634604474567,frequency,4000.0,-7.397393885520719,3.5817915706626634e-05,0,86,[],0.010013009887188673,None,['space'],204.2291758999927,204.2291758999927,0.21188520989380777,1.7327486703412645,204.4459778999444,204.2291758999927,[-1.1400474000256509],,,,,,,,,,cmzntn,002,fr,1,2022-05-02_14h36.51.244,Continuous,2022.1.1,29.502188909249302,
6,0,6,0,6,0,6,0,,,,,,,,1.4174379976179654,frequency,,,,1,86,[],0.018959109904244542,None,['space'],205.96441949997097,205.96441949997097,0.22191740991547704,1.6393554075334424,206.17734529997688,205.96441949997097,[-1.339365900028497],,,,,,,,,,cmzntn,002,fr,1,2022-05-02_14h36.51.244,Continuous,2022.1.1,29.502188909249302,
6,0,6,0,7,0,7,0,,,,,,,,1.1993828168974512,frequency,6350.0,-0.827630341717143,0.0001195699813485722,0,87,[],0.019243110087700188,None,None,207.589465499972,207.589465499972,0.2220067100133747,1.4213895269108259,207.81083229999058,207.589465499972,,,,,,,,,,,cmzntn,002,fr,1,2022-05-02_14h36.51.244,Continuous,2022.1.1,29.502188909249302,
6,0,6,0,8,0,8,0,,,,,,,,1.308335343234714,frequency,8000.0,0.0,0.0001815390273850507,0,88,[],0.019060110091231763,None,['space'],209.00700149999466,209.00700149999466,0.22466241009533405,1.532997753330048,209.22261139994953,209.00700149999466,[-0.9737853000406176],,,,,,,,,,cmzntn,002,fr,1,2022-05-02_14h36.51.244,Continuous,2022.1.1,29.502188909249302,
7,0,7,0,0,0,0,0,,,,,,216.43184479989577,None,2.04290342804884,both,3174.0,0.3489304841282692,7.228687272335534e-05,0,96,[],0.02376150991767645,None,['space'],217.46609479992185,None,0.23553731001447886,2.2784407380633187,217.68249549996108,None,[-1.3532763998955488],210.5195759999333,None,0.16666666666666666,,,,,,,cmzntn,002,fr,1,2022-05-02_14h36.51.244,Continuous,2022.1.1,29.502188909249302,
7,0,7,0,1,0,1,0,,,,,,,,2.04290342804884,both,3563.0,-3.147844325988477,5.308308629619422e-05,0,97,[],0.01837450999300927,None,['space'],219.7175259999931,219.7175259999931,0.2245300100184977,2.2674334380673375,219.93145519995596,219.7175259999931,[-1.6831068999599665],,,,,,,,,,cmzntn,002,fr,1,2022-05-02_14h36.51.244,Continuous,2022.1.1,29.502188909249302,
7,0,7,0,2,0,2,0,,,,,,,,2.04290342804884,both,3999.0,-7.659025432616808,3.474784701843452e-05,0,98,[],0.017937110038474202,None,['space'],221.96865719999187,221.96865719999187,0.22340961010195315,2.266313038150793,222.18060620001052,221.96865719999187,[-1.8868391999276355],,,,,,,,,,cmzntn,002,fr,1,2022-05-02_14h36.51.244,Continuous,2022.1.1,29.502188909249302,
7,0,7,0,3,0,3,0,,,,,,,,2.04290342804884,both,4489.0,-4.090810881332162,7.342028187176935e-05,0,99,[],0.011270110146142542,None,['space'],224.21626479993574,224.21626479993574,0.21033161017112434,2.253235038219964,224.4345786999911,224.21626479993574,[-1.9103057000320405],,,,,,,,,,cmzntn,002,fr,1,2022-05-02_14h36.51.244,Continuous,2022.1.1,29.502188909249302,
7,0,7,0,4,0,4,0,,,,,,,,2.04290342804884,both,5039.0,1.6281643637998968,0.0001825028966253962,0,100,[],0.017459410009905696,None,['space'],226.47567199997138,226.47567199997138,0.21941471006721258,2.2623181381160524,226.68754039995838,226.47567199997138,[-1.8658813999500126],,,,,,,,,,cmzntn,002,fr,1,2022-05-02_14h36.51.244,Continuous,2022.1.1,29.502188909249302,
7,0,7,0,5,0,5,0,,,,,,,,2.04290342804884,both,5656.0,9.139354516015604,0.0003681775746328525,0,101,[],0.018060810049064457,None,['space'],228.7227014999371,228.7227014999371,0.22562351007945836,2.268526938128298,228.93908169993665,228.7227014999371,[-1.9207416999852285],,,,,,,,,,cmzntn,002,fr,1,2022-05-02_14h36.51.244,Continuous,2022.1.1,29.502188909249302,
7,0,7,0,6,0,6,0,,,,,,,,2.04290342804884,both,6349.0,7.46068018695475,0.00031041134392770627,0,102,[],0.018523509963415563,None,['space'],230.97720169997774,230.97720169997774,0.22315471002366394,2.266058138072504,231.18170069996268,230.97720169997774,[-1.968216700013727],,,,,,,,,,cmzntn,002,fr,1,2022-05-02_14h36.51.244,Continuous,2022.1.1,29.502188909249302,
7,0,7,0,7,0,7,0,,,,,,,,2.04290342804884,both,7127.0,4.771411197889471,0.00026860620489555165,0,103,[],0.01833301014266908,None,['space'],233.22519859997556,233.22519859997556,0.22029881016351283,2.2632022382123527,233.43916690000333,233.22519859997556,[-1.943793800077401],,,,,,,,,,cmzntn,002,fr,1,2022-05-02_14h36.51.244,Continuous,2022.1.1,29.502188909249302,
7,0,7,0,8,0,8,0,,,,,,,,2.04290342804884,both,8000.0,10.0,0.0005740768107484417,0,104,[],0.0111369100632146,None,['space'],235.47828809998464,235.47828809998464,0.21183881000615656,2.2547422380549964,235.7013803999871,235.47828809998464,[-1.9567083000438288],,,,,,,,,,cmzntn,002,fr,1,2022-05-02_14h36.51.244,Continuous,2022.1.1,29.502188909249302,
7,0,7,0,9,0,9,0,,,,,,,,2.04290342804884,both,,,,1,104,[],0.018107010051608086,None,"['space', 'space']",237.73761539999396,237.73761539999396,0.223042210098356,2.265945638147196,237.94807169993874,237.73761539999396,"[-1.9113036000635475, -0.9524839000077918]",,,,,,,,,,cmzntn,002,fr,1,2022-05-02_14h36.51.244,Continuous,2022.1.1,29.502188909249302,
8,0,8,0,0,0,0,0,,,,,,248.75562690000515,None,1.0692128718022487,frequency,125.0,1.0,0.0008109050486794653,0,89,[],0.021720510092563927,0.2160792100476101,None,249.78927009995095,None,0.2160792100476101,1.2852920818498588,249.99780539993662,None,,239.98325429996476,None,0.3333333333333333,,,,,,,cmzntn,002,fr,1,2022-05-02_14h36.51.244,Continuous,2022.1.1,29.502188909249302,
8,0,8,0,1,0,1,0,,,,,,,,2.262495912319058,frequency,,,,1,89,[],0.017822209978476167,None,['space'],251.0631656999467,251.0631656999467,0.2229347099782899,2.485430622297348,251.27890069992281,251.0631656999467,[-0.6131980000063777],,,,,,,,,,cmzntn,002,fr,1,2022-05-02_14h36.51.244,Continuous,2022.1.1,29.502188909249302,
8,0,8,0,2,0,2,0,,,,,,,,2.4658299864939135,frequency,198.0,0.4235886402680816,0.0002863559801147702,0,90,[],0.01935091009363532,None,None,253.52989030000754,253.52989030000754,0.22396001010201871,2.689789996595932,253.74251999997068,253.52989030000754,,,,,,,,,,,cmzntn,002,fr,1,2022-05-02_14h36.51.244,Continuous,2022.1.1,29.502188909249302,
8,0,8,0,3,0,3,0,,,,,,,,2.3293338728643667,frequency,249.0,0.405841088484874,0.0001775468173853026,0,91,[],0.01710641011595726,None,['space'],256.2080769999884,256.2080769999884,0.2202636101283133,2.54959748299268,256.4234337999951,256.2080769999884,[-2.254451100016013],,,,,,,,,,cmzntn,002,fr,1,2022-05-02_14h36.51.244,Continuous,2022.1.1,29.502188909249302,
8,0,8,0,4,0,4,0,,,,,,,,1.8063330212121624,frequency,314.0,0.3942692981833529,0.00010430950202555915,0,92,[],0.010143710067495704,None,['space'],258.75371540000197,258.75371540000197,0.20872021012473851,2.0150532313369007,258.97002429992426,258.75371540000197,[-2.0318466998869553],,,,,,,,,,cmzntn,002,fr,1,2022-05-02_14h36.51.244,Continuous,2022.1.1,29.502188909249302,
8,0,8,0,5,0,5,0,,,,,,,,2.807712947774477,frequency,396.0,1.076918186105675,8.783495514248258e-05,0,93,[],0.017979509895667434,None,['space'],260.7786962999962,260.7786962999962,0.22310470999218524,3.0308176577666623,260.9948308999883,260.7786962999962,[-1.4323358000256121],,,,,,,,,,cmzntn,002,fr,1,2022-05-02_14h36.51.244,Continuous,2022.1.1,29.502188909249302,
8,0,8,0,6,0,6,0,,,,,,,,1.4227249727694509,frequency,499.0,3.625690518426679,0.00010853380369422453,0,94,[],0.017912309849634767,None,['space'],263.7996107999934,263.7996107999934,0.22280510992277414,1.645530082692225,264.01881679997314,263.7996107999934,[-1.8787311000050977],,,,,,,,,,cmzntn,002,fr,1,2022-05-02_14h36.51.244,Continuous,2022.1.1,29.502188909249302,
8,0,8,0,7,0,7,0,,,,,,,,2.5998230182478164,frequency,629.0,3.580045034258381,7.749869685330542e-05,0,95,[],0.015525009948760271,None,['space'],265.4336291999789,265.4336291999789,0.2135137099539861,2.8133367282018025,265.6503263999475,265.4336291999789,[-1.016149100032635],,,,,,,,,,cmzntn,002,fr,1,2022-05-02_14h36.51.244,Continuous,2022.1.1,29.502188909249302,
8,0,8,0,8,0,8,0,,,,,,,,2.9553348957756755,frequency,792.0,1.0,4.3457824306600504e-05,0,96,[],0.01787660992704332,None,['space'],268.250164499972,268.250164499972,0.22155920998193324,3.1768941057576088,268.4667546999408,268.250164499972,[-2.169509100029245],,,,,,,,,,cmzntn,002,fr,1,2022-05-02_14h36.51.244,Continuous,2022.1.1,29.502188909249302,
8,0,8,0,9,0,9,0,,,,,,,,2.9416003914399877,frequency,998.0,0.3005323922222083,4.5544492180374937e-05,0,97,[],0.017275610007345676,None,None,271.4167676999932,271.4167676999932,0.21947330993134528,3.161073701371333,271.6413909000112,271.4167676999932,,,,,,,,,,,cmzntn,002,fr,1,2022-05-02_14h36.51.244,Continuous,2022.1.1,29.502188909249302,
8,0,8,0,10,0,10,0,,,,,,,,1.1396930494367377,frequency,1257.0,1.0,6.096536366545635e-05,0,98,[],0.017646610038354993,None,None,274.57120629993733,274.57120629993733,0.22177511011250317,1.3614681595492408,274.78230959991924,274.57120629993733,,,,,,,,,,,cmzntn,002,fr,1,2022-05-02_14h36.51.244,Continuous,2022.1.1,29.502188909249302,
8,0,8,0,11,0,11,0,,,,,,,,1.616824796904342,frequency,1584.0,1.8150027907816872,6.827331296899317e-05,0,99,[],0.009889910113997757,None,None,275.92184249998536,275.92184249998536,0.20888681011274457,1.8257116070170867,276.1367355999537,275.92184249998536,,,,,,,,,,,cmzntn,002,fr,1,2022-05-02_14h36.51.244,Continuous,2022.1.1,29.502188909249302,
8,0,8,0,12,0,12,0,,,,,,,,1.6460454438312075,frequency,1996.0,1.7345583670981832,9.112723032403434e-05,0,100,[],0.010020210058428347,None,None,277.7562016999582,277.7562016999582,0.20424641005229205,1.8502918538834996,277.9699532999657,277.7562016999582,,,,,,,,,,,cmzntn,002,fr,1,2022-05-02_14h36.51.244,Continuous,2022.1.1,29.502188909249302,
8,0,8,0,13,0,13,0,,,,,,,,2.985177714269589,frequency,2515.0,1.6667014362878119,0.00010293576855620636,0,101,[],0.015158910071477294,None,None,279.6173235999886,279.6173235999886,0.21513830998446792,3.200316024254057,279.8316394999856,279.6173235999886,,,,,,,,,,,cmzntn,002,fr,1,2022-05-02_14h36.51.244,Continuous,2022.1.1,29.502188909249302,
8,0,8,0,14,0,14,0,,,,,,,,1.6310041859861637,frequency,3169.0,-0.38988664313647403,6.630851459762244e-05,0,102,[],0.017576409969478846,None,None,282.8179897000082,282.8179897000082,0.22235160996206105,1.8533557959482247,283.0345738999313,282.8179897000082,,,,,,,,,,,cmzntn,002,fr,1,2022-05-02_14h36.51.244,Continuous,2022.1.1,29.502188909249302,
9,0,9,0,0,0,0,0,,,,,,291.5420680999523,None,2.8314964470256108,both,416.0,4.311659447586353,0.00012441996293058555,0,105,['both'],0.023849109886214137,None,['space'],292.55868049990386,None,0.2434064099797979,3.0749028570054087,292.7822414999828,None,[-2.8130705000367016],284.66182799998205,None,0.3333333333333333,"{'estimation': [[125.0, 4.660429215144408], [128.00864112186224, 4.0], [132.88378292148715, 2.9999999999999996], [133.9716828170366, 2.7896833937883745], [138.3176421303766, 2.0], [143.5872943746293, 1.0823825056690892], [144.2395688317962, 1.0], [152.37924253547513, 0.0], [153.89305166811442, -0.17967359683395878], [164.93848884661162, -0.7912274635597283], [176.77669529663666, -0.6763639317622246], [187.5993834078722, 0.0], [189.46457081379947, 0.11197138267818285], [198.64909937072898, 1.0], [203.0630990890585, 1.41266514275946], [208.32861903168367, 2.0], [217.54924140680313, 3.0], [217.6376408240306, 3.0093408216764255], [226.8321135465367, 4.0], [233.25824788420147, 4.667418875034648], [236.84882765421605, 5.0], [248.0016924404215, 6.0], [249.99999999999937, 6.172693581137244], [262.6274347779243, 7.0], [267.94336563407256, 7.333830381422865], [287.1745887492579, 7.9967074905129385], [288.3250675343031, 8.0], [307.78610333622805, 8.054059188931568], [309.79617110725195, 8.0], [329.87697769322244, 7.4719922969793995], [339.47606214851425, 7.0], [353.55339059327247, 6.321843567120263], [358.7935319107591, 6.0], [375.36955105403536, 5.0], [378.929141627598, 4.790301744090512], [391.92853978619706, 4.0], [406.12619817811606, 3.1636003668146713], [409.43501239201134, 3.0], [430.1652226522602, 2.0], [435.2752816480601, 1.7614341798496131], [461.6372197715817, 1.0], [466.5164957684015, 0.863627403659581], [499.9999999999975, 0.6270431217243573], [531.0856175669887, 1.0], [535.8867312681438, 1.0552915646212941], [574.0094445659539, 2.0], [574.3491774985143, 2.0080802780561657], [606.4604665981998, 3.0], [615.5722066724546, 3.269979766164595], [638.9547083061274, 4.0], [659.7539553864432, 4.626031564215372], [673.0829085631397, 5.0], [707.1067811865431, 5.926019538997163], [710.2194912902864, 6.0], [753.4073595877803, 7.0], [757.8582832551941, 7.10016948365404], [805.2275061550356, 8.0], [812.2523963562301, 8.129427265515124], [870.5505632961181, 8.987717029009852], [871.7828890804033, 9.0], [933.0329915368008, 9.591704209960671], [999.9999999999926, 9.78666070088004], [1071.773462536285, 9.398508315351105], [1099.5678214424809, 9.0], [1148.698354997026, 8.316824927416267], [1163.4156543569673, 8.0], [1211.0192737561197, 7.0], [1231.1444133449063, 6.592643994789345], [1255.3039583902955, 6.0], [1297.11871630453, 5.0], [1319.5079107728832, 4.486147807630718], [1341.3310496703136, 4.0], [1387.211724671234, 3.0], [1414.2135623730828, 2.4345230969101808], [1443.0852546876527, 2.0], [1511.5239159100129, 1.0], [1515.7165665103846, 0.9403606075745065], [1624.5047927124563, 0.40844267822215874], [1741.1011265922318, 0.9920471807913162], [1741.7342814378571, 1.0], [1822.9045486479708, 2.0], [1866.065983073597, 2.5132420586497504], [1898.2856353329448, 3.0], [1965.6554895351896, 4.0], [1999.9999999999802, 4.493563122825856], [2039.8269565848664, 5.0], [2119.7891468287517, 6.0], [2143.5469250725646, 6.289998274744304], [2251.9487778100856, 7.0], [2297.396709994046, 7.292938612644251], [2462.2888266898062, 7.114174443285593], [2476.2362044315532, 7.0], [2600.535442744308, 6.0], [2639.01582154576, 5.697939614761115], [2693.451985280601, 5.0], [2772.6157858739753, 4.0], [2828.427124746159, 3.3184979174490827], [2850.5527654943403, 3.0], [2920.3141631835556, 2.0], [2991.990396950023, 1.0], [3031.4331330207615, 0.47093504471576764], [3067.475594613981, 0.0], [3144.677583126628, -1.0], [3224.769976294515, -2.0], [3249.0095854249043, -2.2917182058839125], [3321.0668235044254, -3.0], [3425.50179254868, -4.0], [3482.2022531844555, -4.521284896336866], [3562.346610653443, -5.0], [3732.1319661471844, -5.975450271613825], [3741.8004005766325, -6.0], [3999.9999999999504, -6.63213362476783], [4287.093850145118, -6.625152513704001], [4594.793419988081, -6.148961002908608], [4655.6259825210045, -6.0], [4924.577653379601, -5.366338548742471], [5050.349715440601, -5.0], [5278.031643091506, -4.361527246876841], [5387.821691546619, -4.0], [5656.854249492303, -3.1455662210750526], [5696.4812847050525, -2.9999999999999996], [5976.047702476312, -2.0], [6062.866266041508, -1.7007139872225454], [6241.806872232615, -1.0], [6498.019170849792, -0.0339218844315989], [6506.3949228497595, 0.0], [6758.188054211242, 1.0], [6964.404506368894, 1.7848158752126222], [7021.599065224229, 2.0], [7291.303310595772, 3.0], [7464.2639322943505, 3.6214546607450817], [7586.324539596168, 4.0], [7904.4514784249, 5.0], [7999.999999999882, 5.301686129376851]], 'plus_line': [[125.0, -3.156812371450571], [129.5662762759769, -4.0], [133.9716828170366, -4.7306856124266154], [135.4237183483586, -5.0], [141.00567323637438, -6.0], [143.5872943746293, -6.434474880122011], [147.9972048702892, -7.0], [153.89305166811442, -7.7204424545729236], [159.2405273121836, -8.0], [164.93848884661162, -8.295422616481655], [176.77669529663666, -8.10286572932823], [178.26140499028563, -8.0], [189.46457081379947, -7.2660350164856204], [192.15265650842187, -7.0], [202.4302023805545, -6.0], [203.0630990890585, -5.940297904521965], [211.59365911685592, -5.0], [217.6376408240306, -4.332806109422748], [220.65866873935764, -4.0], [229.77591239659938, -3.0], [233.25824788420132, -2.624406219709166], [239.80311898314994, -2.0], [249.99999999999937, -1.0323450930047733], [250.45283126292165, -1.0], [264.9514131096681, 0.0], [267.94336563407256, 0.1993836672835264], [287.1745887492579, 0.8868766400399534], [307.78610333622805, 0.8932333763317214], [329.87697769322244, 0.19902261367007856], [333.4827314017917, 0.0], [352.03225427441754, -1.0], [353.55339059327247, -1.0803718783904535], [367.31788040031904, -2.0], [378.929141627598, -2.7299115999670933], [383.0784097338913, -3.0], [398.8407618095757, -4.0], [406.12619817811606, -4.438364220987911], [417.1163221425277, -5.0], [435.2752816480601, -5.878180649999817], [439.35320646473497, -6.0], [466.5164957684015, -6.790286546340008], [499.9999999999975, -6.9989113245500585], [535.8867312681438, -6.518914711121317], [554.5439969341306, -6.0], [574.3491774985143, -5.47514945323414], [588.5339206520589, -5.0], [615.5722066724546, -4.1176522299898455], [619.15451209259, -4.0], [650.3839472049233, -3.0], [659.7539553864432, -2.7078875315773114], [685.0848019576106, -2.0], [707.1067811865431, -1.396784247643359], [724.0417982110467, -1.0], [757.8582832551941, -0.22818388334562476], [769.5282934892917, 0.0], [812.2523963562301, 0.8048268032402827], [824.7983225341267, 1.0], [870.5505632961181, 1.6767914497905165], [903.1014985828406, 2.0], [933.0329915368008, 2.2787733199391207], [999.9999999999926, 2.4274402674450393], [1068.1715797930221, 2.0], [1071.773462536285, 1.977171969366337], [1138.1344951422411, 1.0], [1148.698354997026, 0.8499038785636803], [1188.0784345840846, 0.0], [1231.1444133449063, -0.8612594404953829], [1236.7516523940108, -1.0], [1277.6983961450837, -2.0], [1319.5079107728832, -2.929372688724999], [1322.6103089359033, -3.0], [1366.8063969299099, -4.0], [1414.2135623730828, -4.9772009179073], [1415.6557771820121, -5.0], [1479.5315069309197, -6.0], [1515.7165665103846, -6.533476710488564], [1601.3042090907957, -7.0], [1624.5047927124563, -7.127011590050385], [1649.3623325295932, -7.0], [1741.1011265922318, -6.561390390059216], [1785.4009921765496, -6.0], [1864.9191750019877, -5.0], [1866.065983073597, -4.986078313003235], [1931.8698461454915, -4.0], [1997.4561580606892, -3.0], [1999.9999999999802, -2.9625036191586362], [2078.786343207014, -2.0], [2143.5469250725646, -1.200947552816125], [2177.6534387179827, -1.0], [2297.396709994046, -0.31575159409415693], [2462.2888266898062, -0.6414361163199158], [2502.7412171881074, -1.0], [2619.0624121360206, -2.0], [2639.01582154576, -2.1669601267800918], [2700.6405479993955, -3.0], [2778.749769295774, -4.0], [2828.427124746159, -4.595719776418546], [2855.486847028701, -5.0], [2923.462927364631, -6.0], [2997.220082098275, -7.0], [3031.4331330207615, -7.436079723313373], [3073.310653570904, -8.0], [3150.094983423227, -9.0], [3234.5971818508833, -10.0], [3249.0095854249043, -10.16364544844983], [3332.658653286541, -11.0], [3440.559550687273, -12.0], [3482.2022531844555, -12.36428700479366], [3589.360192695604, -13.0], [3732.1319661471844, -13.794574635213742], [3815.8104145405437, -14.0], [3999.9999999999504, -14.446308442545014], [4287.093850145118, -14.443337940508986], [4572.837293729405, -14.0], [4594.793419988081, -13.968083099769862], [4924.577653379601, -13.194609401595557], [4991.166312851376, -13.0], [5278.031643091513, -12.18746104932858], [5334.701704210585, -12.0], [5642.6531956094295, -11.0], [5656.854249492303, -10.955171141286135], [5918.673550542279, -10.0], [6062.866266041508, -9.47856290578951], [6180.517053760577, -9.0], [6427.05048687994, -8.0], [6498.019170849792, -7.719103857415876], [6669.589661600082, -7.0], [6907.245425835095, -6.0], [6964.404506368894, -5.766918363157491], [7167.5596952021415, -5.0], [7430.196843484903, -4.0], [7464.2639322943505, -3.8742575254546763], [7801.366393640764, -3.0], [7999.999999999872, -2.475916893088373]], 'minus_line': [[125.0, 12.295822622073546], [126.15382260219336, 12.0], [130.11597071296606, 11.0], [133.9716828170366, 10.050675161979699], [134.24263348174466, 10.0], [139.6758080191767, 9.0], [143.5872943746293, 8.282552734452402], [145.82393940218796, 8.0], [153.89305166811442, 7.000316849940234], [153.89800217604136, 7.0], [164.93848884661162, 6.33986601102177], [176.77669529663666, 6.3871758443306295], [187.00807729291856, 7.0], [189.46457081379947, 7.144293239776417], [198.0738239234996, 8.0], [203.0630990890585, 8.471065036553256], [207.62783641132762, 9.0], [216.74744952013666, 10.0], [217.6376408240306, 10.094513025738896], [225.83780831140837, 11.0], [233.25824788420132, 11.759642964927417], [235.87361117338807, 12.0], [247.20467785902312, 13.0], [249.99999999999937, 13.234509707102305], [261.98982769363124, 14.0], [267.94336563407256, 14.363068143183739], [286.6364555975181, 15.0], [287.1745887492579, 15.018212121038133], [307.78610333622805, 15.128925882049067], [313.2764170679729, 15.0], [329.87697769322244, 14.633209132084446], [343.74397288966895, 14.0], [353.55339059327247, 13.562028869922159], [363.13039151651066, 13.0], [378.929141627598, 12.072067730865832], [380.1285577903073, 12.0], [397.00196494341407, 11.0], [406.12619817811606, 10.462006148363134], [415.57792422343874, 10.0], [435.2752816480601, 9.047524520218701], [436.8531945079966, 9.0], [466.5164957684015, 8.145135466673947], [485.8898964965933, 8.0], [499.9999999999975, 7.902549547785929], [508.31636984668114, 8.0], [535.8867312681438, 8.323813233769762], [563.5519761709078, 9.0], [574.3491774985143, 9.256742595421702], [598.3335565847551, 10.0], [615.5722066724546, 10.509249294163034], [630.8786056660616, 11.0], [659.7539553864432, 11.88043090609885], [663.8075013700479, 12.000000000000002], [698.4782430346261, 13.0], [707.1067811865431, 13.239188632656479], [737.6393393938858, 14.0], [757.8582832551941, 14.484956422563792], [783.2260116901119, 15.0], [812.2523963562301, 15.572753798099708], [839.4415694337893, 16.0], [870.5505632961181, 16.48029113468031], [919.5516657521666, 17.0], [933.0329915368008, 17.14328649036], [999.9999999999926, 17.432973674365446], [1071.773462536285, 17.121641635395765], [1080.2684606675261, 17.0], [1148.698354997026, 16.049324119802787], [1150.9073240497103, 16.0], [1196.5365565208363, 15.0], [1231.1444133449063, 14.242156681278049], [1240.629962974715, 14.0], [1279.9413220340725, 13.0], [1318.905589418391, 12.000000000000002], [1319.5079107728832, 11.9851487995271], [1362.9750508644086, 11.0], [1406.3353369657314, 10.0], [1414.2135623730828, 9.824335469291466], [1469.1174503339114, 9.0], [1515.7165665103846, 8.30721657025364], [1582.1268728758387, 8.0], [1624.5047927124563, 7.815915662201333], [1657.687431107554, 8.0], [1741.1011265922318, 8.461996641586552], [1782.475589490038, 9.0], [1863.5747921831107, 10.0], [1866.065983073597, 10.030065517263452], [1926.4320570440902, 11.0], [1993.704686797141, 12.0], [1999.9999999999802, 12.09120815355788], [2065.102237329565, 13.0], [2141.9405763990617, 14.0], [2143.5469250725646, 14.02057110818432], [2271.203762245415, 15.0], [2297.396709994046, 15.196357895523922], [2462.2888266898062, 15.145645623448404], [2480.509215132039, 15.0], [2607.8857024711115, 14.0], [2639.015821545763, 13.760328433105093], [2698.5937196797504, 13.0], [2775.1386484068175, 12.0], [2828.427124746159, 11.307334296719759], [2849.928166456796, 11.0], [2918.9083714880176, 10.0], [2985.810450903238, 9.0], [3031.4331330207615, 8.328133905380504], [3056.7326370284873, 8.0], [3132.6598782991896, 7.0], [3206.497978374571, 6.0], [3249.0095854249043, 5.435990808537096], [3293.216787255032, 5.0], [3393.476827498266, 4.0], [3482.2022531844555, 3.1108796395592515], [3500.3328752487005, 3.0], [3666.952123741314, 2.0], [3732.1319661471844, 1.6161513491795647], [3976.1402949281182, 1.0], [3999.9999999999504, 0.9429611921008779], [4287.093850145118, 0.9482981272513942], [4320.8225847082485, 1.0], [4594.793419988081, 1.4170433655929147], [4851.879680744083, 2.0], [4924.577653379601, 2.1607547293587395], [5233.658926488186, 3.0], [5278.031643091506, 3.115623934469523], [5559.478010927835, 4.0], [5656.854249492303, 4.289726932321857], [5855.140417745023, 5.0], [6062.866266041516, 5.697433371497036], [6140.226708355875, 6.0], [6406.644393643794, 7.0], [6498.019170849792, 7.323986106055014], [6667.066443418365, 8.0], [6935.207988085449, 9.0], [6964.404506368894, 9.105036280629989], [7189.252972953849, 10.0], [7459.12747197155, 11.0], [7464.2639322943505, 11.018674960945162], [7709.239973486403, 12.0], [7966.8816338720335, 13.0], [7999.999999999882, 13.12786642130943]]}",,,,,,cmzntn,002,fr,1,2022-05-02_14h36.51.244,Continuous,2022.1.1,29.502188909249302,
9,0,9,0,1,0,1,0,,,,,,,,2.8314964470256108,both,524.0,4.818999981879688,0.00011790794976305113,0,106,['both'],0.007066310034133494,None,['space'],295.60770249995403,295.60770249995403,0.2044128100387752,3.035909257064386,295.8208886999637,295.60770249995403,[-2.6143206999404356],,,,,,,,,,cmzntn,002,fr,1,2022-05-02_14h36.51.244,Continuous,2022.1.1,29.502188909249302,
9,0,9,0,2,0,2,0,,,,,,,,2.8314964470256108,both,660.0,4.043886952555362,7.731063816360935e-05,0,107,['both'],0.01605271000880748,None,['space'],298.652802699944,298.652802699944,0.21951921004801989,3.0510156570736306,298.8670748999575,298.652802699944,[-2.7159381000092253],,,,,,,,,,cmzntn,002,fr,1,2022-05-02_14h36.51.244,Continuous,2022.1.1,29.502188909249302,
9,0,9,0,3,0,3,0,,,,,,,,2.8314964470256108,both,832.0,6.803256444472529,8.596219028487625e-05,0,108,['both'],0.013924109865911305,None,['space'],301.68904369999655,301.68904369999655,0.2142807098571211,3.045777156882732,301.90936649998184,301.68904369999655,[-2.647401100024581],,,,,,,,,,cmzntn,002,fr,1,2022-05-02_14h36.51.244,Continuous,2022.1.1,29.502188909249302,
9,0,9,0,4,0,4,0,,,,,,,,2.8314964470256108,both,1048.0,5.262713197411526,8.442303604285098e-05,0,109,['both'],0.016246510087512434,None,['space'],304.74107119999826,304.74107119999826,0.22145101008936763,3.0529474571149784,304.952570799971,304.74107119999826,[-2.75552849995438],,,,,,,,,,cmzntn,002,fr,1,2022-05-02_14h36.51.244,Continuous,2022.1.1,29.502188909249302,
9,0,9,0,5,0,5,0,,,,,,,,2.8314964470256108,both,1320.0,6.845107342195857,0.00011605226065180916,0,110,['both'],0.011359310010448098,None,"['space', 'space']",307.77958599990234,307.77958599990234,0.20919661002699286,3.0406930570526036,308.00047609989997,307.77958599990234,"[-2.769824199960567, 0.20697120006661862]",,,,,,,,,,cmzntn,002,fr,1,2022-05-02_14h36.51.244,Continuous,2022.1.1,29.502188909249302,
9,0,9,0,6,0,6,0,,,,,,,,2.8314964470256108,both,1663.0,3.5706355864778136,8.989653693538093e-05,0,111,['both'],0.014232709887437522,None,None,310.83170049998444,310.83170049998444,0.2156971099320799,3.0471935569576907,311.04755219991785,310.83170049998444,,,,,,,,,,,cmzntn,002,fr,1,2022-05-02_14h36.51.244,Continuous,2022.1.1,29.502188909249302,
9,0,9,0,7,0,7,0,,,,,,,,2.8314964470256108,both,2095.0,4.560922381302342,0.0001300385925378861,0,112,['both'],0.015185710042715073,None,['space'],313.8840693999082,313.8840693999082,0.22001271008048207,3.051509157106093,314.09240550000686,313.8840693999082,[-2.5866227000951767],,,,,,,,,,cmzntn,002,fr,1,2022-05-02_14h36.51.244,Continuous,2022.1.1,29.502188909249302,
9,0,9,0,8,0,8,0,,,,,,,,2.8314964470256108,both,2639.0,7.0,0.0001729580872463946,0,113,['both'],0.016336309956386685,None,['space'],316.92019979993347,316.92019979993347,0.2204936099005863,3.051990056926197,317.12496669997927,316.92019979993347,[-2.4231480000307783],,,,,,,,,,cmzntn,002,fr,1,2022-05-02_14h36.51.244,Continuous,2022.1.1,29.502188909249302,
9,0,9,0,9,0,9,0,,,,,,,,2.8314964470256108,both,3325.0,3.44546442158925,0.00010719026953574565,0,114,['both'],0.011181610054336488,0.20908060995861888,['space'],319.96079059992917,319.96079059992917,0.20908060995861888,3.0405770569842296,320.1724350999575,319.96079059992917,[-2.5352771999314427],,,,,,,,,,cmzntn,002,fr,1,2022-05-02_14h36.51.244,Continuous,2022.1.1,29.502188909249302,
9,0,9,0,10,0,10,0,,,,,,,,2.8314964470256108,both,4189.0,2.3930814841455508,0.00012769599682742908,0,115,['both'],0.01210400986019522,0.20719520992133766,['space'],322.9969606999075,322.9969606999075,0.20719520992133766,3.0386916569469484,323.2150415999349,322.9969606999075,[-2.483050600043498],,,,,,,,,,cmzntn,002,fr,1,2022-05-02_14h36.51.244,Continuous,2022.1.1,29.502188909249302,
9,0,9,0,11,0,11,0,,,,,,,,2.8314964470256108,both,,,,1,115,['both'],0.008954709977842867,None,['space'],326.04214479995426,326.04214479995426,0.20706081006210297,3.0385572570877137,326.2531897999579,326.04214479995426,[-2.4570298000471666],,,,,,,,,,cmzntn,002,fr,1,2022-05-02_14h36.51.244,Continuous,2022.1.1,29.502188909249302,
9,0,9,0,12,0,12,0,,,,,,,,2.8314964470256108,both,6650.0,6.038241937033413,0.0002818064234565279,0,116,['both'],0.015096310060471296,None,None,329.086539199925,329.086539199925,0.21464781009126455,3.0461442571168753,329.30579129990656,329.086539199925,,,,,,,,,,,cmzntn,002,fr,1,2022-05-02_14h36.51.244,Continuous,2022.1.1,29.502188909249302,
10,0,10,0,0,0,0,0,,,,,,336.12583429994993,None,2.0123002193664234,frequency,125.0,3.0,0.001020868972334765,0,103,"['both', 'frequency']",0.0236874099355191,0.22068860998842865,None,337.1641312999418,None,0.22068860998842865,2.232988829354852,337.37445959995966,None,,332.12529120000545,None,0.3333333333333333,,"{'estimation': [[125.0, 2.4513971424260714], [133.9716828170366, 2.7056957401968025], [143.5872943746292, 2.855510614204617], [153.89305166811442, 2.8270608015379866], [164.93848884661162, 2.544413307489455], [175.76173338783232, 2.0], [176.77669529663655, 1.951044659096441], [189.46457081379947, 1.0510986976504386], [190.05423402643765, 1.0], [201.98904695029717, 0.0], [203.0630990890585, -0.08664942900897511], [213.79256385682308, -1.0], [217.6376408240306, -1.313792935500661], [227.03345968271609, -2.0], [233.25824788420132, -2.435613516247841], [244.65767399498475, -3.0], [249.99999999999937, -3.255000925376641], [267.94336563407256, -3.6218882185632966], [287.1745887492579, -3.484589755677673], [303.9624345631272, -3.0], [307.78610333622805, -2.8925298866931812], [329.72905800727676, -2.0], [329.87697769322244, -1.9941543414597107], [353.07126375510666, -1.0], [353.55339059327247, -0.9800514114313099], [378.929141627598, -0.04071883266236833], [380.40987320241965, 0.0], [406.12619817811606, 0.6800576239470372], [428.0212811239555, 1.0], [435.2752816480601, 1.1031590806755207], [466.5164957684015, 1.2032474549620247], [499.6017550972429, 1.0], [499.9999999999975, 0.9976082495510467], [535.8867312681438, 0.5231896126544798], [564.8241791878863, 0.0], [574.3491774985143, -0.1678251228403599], [615.5139232522542, -1.0], [615.5722066724546, -1.001151296343113], [659.7539553864432, -1.8714937404056686], [667.5851372680826, -2.0], [707.1067811865431, -2.6293063740410716], [746.9343613105132, -3.0], [757.8582832551941, -3.0991316370165576], [812.2523963562301, -3.1218384251545155], [825.3083656133508, -3.0000000000000004], [870.5505632961181, -2.5984809677625362], [905.1868866381409, -2.0], [933.0329915368008, -1.5350436547035127], [956.8794172642879, -1.0], [999.9999999999926, -0.05295448717906172], [1002.2306057993359, 0.0], [1044.3203692325483, 1.0], [1071.773462536285, 1.6330193374757378], [1088.831704638765, 2.0], [1135.7903667944877, 3.0], [1148.698354997026, 3.265770201925944], [1193.02248679152, 4.0], [1231.1444133449063, 4.610530142480872], [1268.3102366903533, 5.0], [1319.5079107728832, 5.519783236542007], [1414.2135623730828, 5.947237014104114], [1515.7165665103846, 5.953683091844334], [1624.5047927124563, 5.656427879034932], [1741.1011265922298, 5.185806765817761], [1782.2034405183772, 5.0], [1866.065983073597, 4.643391123279446], [1999.9999999999802, 4.084010451056194], [2020.0052218691098, 4.0], [2143.5469250725646, 3.505056748734153], [2263.5496576146415, 3.0], [2297.396709994046, 2.8621622186561897], [2462.2888266898062, 2.095807467355443], [2479.2350731961787, 2.0], [2639.01582154576, 1.1358427712718078], [2659.614187589461, 1.0], [2816.931294157914, 0.0], [2828.427124746162, -0.06988658743556357], [2955.1733564309284, -1.0], [3031.4331330207615, -1.5361549608761749], [3089.733307180614, -2.0], [3216.920621532667, -3.0], [3249.0095854249043, -3.2413834252036313], [3343.0289422265464, -4.0], [3469.3393729537797, -5.0], [3482.2022531844555, -5.0976343677901115], [3600.99461354318, -6.0], [3732.1319661471844, -6.965643742227111], [3737.451801390272, -7.0], [3892.4320587752527, -8.0], [3999.9999999999504, -8.667132278060992], [4070.043218887996, -9.0], [4285.111059594471, -10.0], [4287.093850145118, -10.008986869439195], [4594.7934199880865, -10.826180219436617], [4898.838480963974, -11.0], [4924.577653379601, -11.014697466414237], [4935.498171485801, -11.0], [5278.031643091506, -10.55408475179664], [5475.623266173058, -10.0], [5656.854249492303, -9.505738302514729], [5791.000725990807, -9.0], [6062.866266041501, -8.002526545744532], [6063.466908230721, -8.0], [6303.405081937233, -7.0], [6498.019170849792, -6.223634340365987], [6552.241835757086, -6.0], [6796.654206324037, -5.0], [6964.404506368894, -4.349168797611215], [7059.967986174929, -4.0], [7334.75677036936, -3.0], [7464.2639322943505, -2.548390213732903], [7651.2865605345905, -2.0], [7985.488707050066, -1.0], [7999.999999999882, -0.9567577000945814]], 'plus_line': [[125.0, -2.1849607379123146], [128.159499345818, -2.0], [133.9716828170366, -1.7045860029088613], [143.5872943746293, -1.4946066604463297], [153.89305166811442, -1.4993970691933471], [164.93848884661162, -1.7503701652010724], [170.11003521251658, -2.0], [176.77669529663666, -2.3253367333686175], [186.23873079882426, -3.0], [189.46457081379958, -3.226704098384258], [198.40812636280018, -4.0], [203.0630990890584, -4.386130014255928], [210.08337606238447, -5.0], [217.6376408240306, -5.628114539982759], [222.66962492844087, -6.0], [233.25824788420132, -6.752467347030684], [238.23698166556397, -7.0], [249.99999999999937, -7.580221044999677], [267.94336563407256, -7.9511236512211], [287.1745887492579, -7.839772963551006], [307.78610333622805, -7.264358755177664], [313.9469996005118, -7.0], [329.87697769322244, -6.353421758216065], [337.65779532580865, -6.0], [353.55339059327247, -5.3073278396938806], [361.3699603798665, -5.0], [378.9291416275976, -4.342428416886241], [391.37757599716826, -4.0], [406.12619817811606, -3.6212226045325235], [435.2752816480601, -3.2269436383119223], [466.5164957684015, -3.16919209348085], [499.9999999999975, -3.4221236363738696], [535.8867312681438, -3.918701561692897], [540.1691621570884, -4.0], [574.3491774985143, -4.652659334853622], [590.5832247092484, -5.0], [615.5722066724546, -5.5307296614855606], [638.1357347392404, -6.0], [659.753955386444, -6.444151329962047], [693.6114871868606, -7.0], [707.1067811865431, -7.221545427611456], [757.8582832551941, -7.680381323243951], [812.2523963562301, -7.653231126302776], [870.5505632961181, -7.055793347704727], [873.5496886150167, -7.0], [929.743368598043, -6.0], [933.0329915368008, -5.944210736482851], [975.6512508579167, -5.0], [999.9999999999926, -4.459746336170973], [1019.93051738214, -4.0], [1062.0977179073732, -3.0], [1071.773462536285, -2.777273581905959], [1109.0965305479588, -2.0], [1148.6983549970246, -1.1541254276285424], [1158.0103414863074, -1.0], [1219.0336054062743, 0.0], [1231.1444133449063, 0.1931370781261904], [1308.573751417605, 1.0], [1319.5079107728832, 1.108954657042227], [1414.2135623730828, 1.5286049631735992], [1515.7165665103846, 1.537825682956412], [1624.5047927124563, 1.270898177585279], [1702.377324671248, 1.0], [1741.1011265922318, 0.8624917949815794], [1866.065983073597, 0.38874312040128123], [1969.8018896798596, 0.0], [1999.9999999999802, -0.1148431783908592], [2143.5469250725646, -0.6887756555782993], [2217.030853922708, -1.0], [2297.396709994046, -1.3428604669017679], [2440.2961188223067, -2.0], [2462.2888266898094, -2.100885645910749], [2633.046026421908, -3.0], [2639.01582154576, -3.030543368429113], [2792.8910879670825, -4.0], [2828.427124746159, -4.210124678225719], [2933.9276748936313, -5.0], [3031.4331330207615, -5.667962328404236], [3071.3859928472384, -6.0], [3195.3928740084425, -6.999999999999999], [3249.0095854249043, -7.395253791336005], [3319.3089718521587, -8.0], [3443.187833232724, -9.0], [3482.202253184451, -9.291027662151862], [3569.3956203564144, -10.0], [3702.9580892679746, -11.0], [3732.1319661471844, -11.204548508327981], [3847.1989540667773, -12.0], [3999.999999999946, -12.953213331307166], [4009.226129419058, -13.0], [4206.109411132714, -14.0], [4287.093850145118, -14.3857598800932], [4493.676229161052, -15.000000000000002], [4594.793419988081, -15.301951948665215], [4924.577653379601, -15.591928804262333], [5278.0316430915, -15.194771832755606], [5347.714699595334, -15.0], [5656.854249492303, -14.161381013394431], [5699.21231723734, -14.0], [5962.79848768119, -13.0], [6062.866266041508, -12.624099696057005], [6210.948511369428, -12.0], [6439.495973300577, -11.0], [6498.019170849792, -10.753644024454147], [6680.401751151464, -10.0], [6911.121162918193, -9.0], [6964.404506368894, -8.779790255276563], [7183.162613093459, -8.0], [7449.754448452672, -7.0], [7464.2639322943505, -6.948204950247122], [7834.87017704001, -6.0], [7999.999999999882, -5.559844593550997]], 'minus_line': [[125.00000000000007, 7.339931262840608], [133.9716828170366, 7.37172659542491], [143.5872943746293, 7.457691404249637], [153.89305166811442, 7.395552471772215], [164.93848884661162, 7.0502084586793785], [165.78721199937513, 7.0], [176.77669529663666, 6.411380639437723], [182.06547100351065, 6.0], [189.46457081379947, 5.457315916551524], [194.58120324404626, 5.0], [203.0630990890585, 4.264747346307688], [205.9792838085647, 4.0], [217.2126106917065, 3.0], [217.6376408240306, 2.964056760736441], [230.27371839866606, 2.0], [233.25824788420132, 1.7815402280249173], [248.15015409807347, 1.0], [249.99999999999937, 0.9089212882308912], [267.94336563407256, 0.5428936755264935], [287.1745887492579, 0.7086547415428476], [296.6697136652122, 1.0], [307.78610333622805, 1.3485353973855645], [323.14787773458636, 2.0], [329.87697769322244, 2.2820562388068297], [346.22269939856136, 3.0], [353.55339059327247, 3.3127584218256687], [371.9401339881976, 4.0], [378.929141627598, 4.255421401412966], [406.12619817811606, 4.970974080740325], [408.07521243533216, 5.0], [435.2752816480601, 5.4150952176772265], [466.5164957684015, 5.519599427178292], [499.9999999999975, 5.3056651740325425], [521.3312151334153, 5.0], [535.8867312681438, 4.81119077848418], [574.3491774985143, 4.1084019953686886], [579.4998897662758, 4.0], [615.5722066724546, 3.285365538319644], [629.9154499952144, 3.0], [659.7539553864432, 2.435735453895524], [686.8255152488199, 2.0], [707.1067811865431, 1.6920679729189114], [757.8582832551941, 1.2214593441967576], [812.2523963562301, 1.1855602295112593], [870.5505632961181, 1.711746130163286], [886.541661412464, 2.0], [933.0329915368008, 2.8177034500255345], [940.5998345414338, 2.9999999999999996], [982.2093929380411, 4.0], [999.9999999999926, 4.402444447171475], [1022.8962125294479, 5.0], [1063.2345799822454, 6.0], [1071.773462536285, 6.20248783981712], [1105.6524223590302, 7.0], [1148.6983549970273, 7.9296600120773], [1152.6940126690465, 8.0], [1209.9772899560128, 9.0], [1231.1444133449063, 9.347500321079316], [1292.7890219568678, 10.0], [1319.5079107728832, 10.277713439462044], [1414.2135623730828, 10.701979182980367], [1515.7165665103846, 10.678849327824551], [1624.5047927124563, 10.318634072127011], [1686.908618126098, 10.0], [1741.1011265922318, 9.751828273243543], [1866.065983073597, 9.111497958466163], [1888.5377301588019, 9.0], [1999.9999999999802, 8.499621930794945], [2116.8147734322242, 8.0], [2143.5469250725646, 7.8948332718223915], [2297.396709994046, 7.267163334664417], [2351.7414797496426, 7.0], [2462.2888266898062, 6.491821551424587], [2546.915440601395, 6.0], [2639.01582154576, 5.488677381923112], [2711.3564094928242, 5.0], [2828.427124746159, 4.2214693614028125], [2858.0592241788936, 4.0], [2991.509832410304, 3.0], [3031.4331330207615, 2.707161111041382], [3122.371132127322, 2.0], [3244.7642651519886, 1.0], [3249.0095854249003, 0.9670127758014018], [3373.1566261971907, 0.0], [3482.2022531844555, -0.901187439835193], [3495.6889284845292, -1.0], [3630.5040523156817, -2.0], [3732.1319661471844, -2.7838957457578153], [3766.4480756043763, -3.0], [3922.6257385299245, -4.0], [3999.999999999946, -4.494996928645156], [4108.7454490882255, -5.0], [4287.093850145118, -5.830104902629777], [4352.380488050228, -6.0], [4594.793419988081, -6.5943898435022845], [4924.577653379601, -6.715362612727818], [5278.031643091506, -6.193781088061421], [5344.049155271534, -6.0], [5656.854249492297, -5.10919029985231], [5685.078314147753, -5.0], [5947.017217305803, -4.0], [6062.866266041508, -3.5920817846806665], [6201.48495773266, -3.0], [6454.881552675047, -2.0], [6498.019170849792, -1.8401687972220941], [6696.952325506838, -1.0], [6964.404506368894, -0.0012581502352124686], [6964.732736357367, 0.0], [7220.079236062792, 1.0], [7464.263932294341, 1.8508141109346903], [7507.560652147832, 2.0], [7788.7360072712645, 3.0], [7999.999999999882, 3.7020487184770463]]}",,,,,cmzntn,002,fr,1,2022-05-02_14h36.51.244,Continuous,2022.1.1,29.502188909249302,
10,0,10,0,1,0,1,0,,,,,,,,2.5287899716568396,frequency,157.0,2.8550351802158493,0.0006082148924377753,0,104,"['both', 'frequency']",0.010180810117162764,None,['space'],339.3800554999616,339.3800554999616,0.20616821013391018,2.73495818179075,339.5989242999349,339.3800554999616,[-1.7787829999579117],,,,,,,,,,cmzntn,002,fr,1,2022-05-02_14h36.51.244,Continuous,2022.1.1,29.502188909249302,
10,0,10,0,2,0,2,0,,,,,,,,1.465173725345952,frequency,198.0,1.502866842337156,0.0003242426701924278,0,105,"['both', 'frequency']",0.01477840996813029,None,['space'],342.1257354998961,342.1257354998961,0.22209180996287614,1.6872655353088282,342.34070669999346,342.1257354998961,[-2.348182799993083],,,,,,,,,,cmzntn,002,fr,1,2022-05-02_14h36.51.244,Continuous,2022.1.1,29.502188909249302,
10,0,10,0,3,0,3,0,,,,,,,,1.427124307377808,frequency,,,,1,105,"['both', 'frequency']",0.011076509952545166,None,['space'],343.80188249994535,343.80188249994535,0.21176451002247632,1.6388888174002842,344.0199340999825,343.80188249994535,[-1.0320856999605894],,,,,,,,,,cmzntn,002,fr,1,2022-05-02_14h36.51.244,Continuous,2022.1.1,29.502188909249302,
10,0,10,0,4,0,4,0,,,,,,,,1.4267956923033185,frequency,314.0,1.077621999704351,0.00011284738694520096,0,106,"['both', 'frequency']",0.012129710055887699,None,None,345.4428403999191,345.4428403999191,0.20968671003356576,1.6364824023368842,345.655918299919,345.4428403999191,,,,,,,,,,,cmzntn,002,fr,1,2022-05-02_14h36.51.244,Continuous,2022.1.1,29.502188909249302,
10,0,10,0,5,0,5,0,,,,,,,,1.44750085673735,frequency,396.0,2.1701149683112555,9.961556968219485e-05,0,107,"['both', 'frequency']",0.014280310017056763,None,['space'],347.08692079992034,347.08692079992034,0.2214408100116998,1.6689416667490498,347.30538619996514,347.08692079992034,[-1.1179721999214962],,,,,,,,,,cmzntn,002,fr,1,2022-05-02_14h36.51.244,Continuous,2022.1.1,29.502188909249302,
10,0,10,0,6,0,6,0,,,,,,,,1.9845012761312215,frequency,499.0,4.021485839644788,0.00011359384228367576,0,108,"['both', 'frequency']",0.011172409867867827,None,['space'],348.7422565999441,348.7422565999441,0.20848430995829403,2.1929855860895158,348.95936300000176,348.7422565999441,[-0.6777088999515399],,,,,,,,,,cmzntn,002,fr,1,2022-05-02_14h36.51.244,Continuous,2022.1.1,29.502188909249302,
10,0,10,0,7,0,7,0,,,,,,,,1.596003702434593,frequency,629.0,3.0668615978376392,7.305252440992928e-05,0,109,"['both', 'frequency']",0.012126109912060201,None,['space'],350.9410292999819,350.9410292999819,0.2105709098977968,1.8065746123323898,351.1567441999214,350.9410292999819,[-1.4194045000476763],,,,,,,,,,cmzntn,002,fr,1,2022-05-02_14h36.51.244,Continuous,2022.1.1,29.502188909249302,
10,0,10,0,8,0,8,0,,,,,,,,1.2145678623158584,frequency,792.0,1.4388797844285381,4.571007869985924e-05,0,110,"['both', 'frequency']",0.006468010018579662,0.20183051005005836,['space'],352.75542459997814,352.75542459997814,0.20183051005005836,1.4163983723659168,352.9640289999079,352.75542459997814,[-1.4259057000745088],,,,,,,,,,cmzntn,002,fr,1,2022-05-02_14h36.51.244,Continuous,2022.1.1,29.502188909249302,
10,0,10,0,9,0,9,0,,,,,,,,2.8377354616856403,frequency,998.0,1.720635517671056,5.3634102833420546e-05,0,111,"['both', 'frequency']",0.00942581007257104,None,['space'],354.18064049992245,354.18064049992245,0.20932221005205065,3.047057671737691,354.40098189993296,354.18064049992245,[-0.9640650999499485],,,,,,,,,,cmzntn,002,fr,1,2022-05-02_14h36.51.244,Continuous,2022.1.1,29.502188909249302,
10,0,10,0,10,0,10,0,,,,,,,,1.0962450103819597,frequency,1257.0,2.863681509297507,7.555570186009823e-05,0,112,"['both', 'frequency']",0.007575909956358373,0.20131820999085903,['space'],357.2422215999104,357.2422215999104,0.20131820999085903,1.2975632203728187,357.4603457999183,357.2422215999104,[-2.5209514999296516],,,,,,,,,,cmzntn,002,fr,1,2022-05-02_14h36.51.244,Continuous,2022.1.1,29.502188909249302,
10,0,10,0,11,0,11,0,,,,,,,,2.3635938984064424,frequency,1584.0,2.7794239764300444,7.629077677900305e-05,0,113,"['both', 'frequency']",0.010514510096982121,None,['space'],358.55163309990894,358.55163309990894,0.21066241001244634,2.5742563084188888,358.7663424999919,358.55163309990894,[-0.7575431000441313],,,,,,,,,,cmzntn,002,fr,1,2022-05-02_14h36.51.244,Continuous,2022.1.1,29.502188909249302,
10,0,10,0,12,0,12,0,,,,,,,,2.8755276647602077,frequency,1996.0,3.1588678147497036,0.00010736522612639688,0,114,"['both', 'frequency']",0.005629310035146773,0.20146971009671688,None,361.1321422999026,361.1321422999026,0.20146971009671688,3.0769973748569246,361.3422117999289,361.1321422999026,,,,,,,,,,,cmzntn,002,fr,1,2022-05-02_14h36.51.244,Continuous,2022.1.1,29.502188909249302,
10,0,10,0,13,0,13,0,,,,,,,,2.910789704760911,frequency,2515.0,2.3040628792721645,0.0001107731188619133,0,115,"['both', 'frequency']",0.014192410046234727,None,None,364.2204944998957,364.2204944998957,0.21666811010800302,3.127457814868914,364.4340549999615,364.2204944998957,,,,,,,,,,,cmzntn,002,fr,1,2022-05-02_14h36.51.244,Continuous,2022.1.1,29.502188909249302,
10,0,10,0,14,0,14,0,,,,,,,,1.2573951120568707,frequency,3169.0,0.9421800974034431,7.729877941466511e-05,0,116,"['both', 'frequency']",0.010917010018602014,0.20576921000611037,None,367.34510329994373,367.34510329994373,0.20576921000611037,1.463164322062981,367.5616036999272,367.34510329994373,,,,,,,,,,,cmzntn,002,fr,1,2022-05-02_14h36.51.244,Continuous,2022.1.1,29.502188909249302,
11,0,11,0,0,0,0,0,,,,,"[0.5833333333333334, 0.16666666666666666, 0.5833333333333334, 0.5833333333333334, 0.16666666666666666, 0.5833333333333334, 0.3333333333333333, 0.5833333333333334, 0.16666666666666666, 0.3333333333333333, 0.3333333333333333, 0.3333333333333333, 0.16666666666666666, 0.5833333333333334, 0.3333333333333333]",372.28574929991737,None,1.9153783660887624,time,575.0,2.6664578351551524,8.121234647743417e-05,0,91,"['both', 'frequency']",0.023966809967532754,None,None,373.30203099991195,None,0.22005421004723758,2.135432576136,373.50971609994303,None,,368.81494529999327,None,,,,,,,,cmzntn,002,fr,1,2022-05-02_14h36.51.244,Continuous,2022.1.1,29.502188909249302,
11,0,11,0,1,0,1,0,,,,,,,,1.9153783660887624,time,966.0,-0.246349086222022,4.188126007310826e-05,0,92,"['both', 'frequency']",0.009399910108186305,None,['space'],375.41985659999773,375.41985659999773,0.20409011002629995,2.1194684761150624,375.6340481999796,375.41985659999773,[-1.657676300033927],,,,,,,,,,cmzntn,002,fr,1,2022-05-02_14h36.51.244,Continuous,2022.1.1,29.502188909249302,
11,0,11,0,2,0,2,0,,,,,,,,1.9153783660887624,time,1217.0,-0.7458249026419796,4.8757319366153444e-05,0,93,"['both', 'frequency']",0.01154581003356725,0.20784741011448205,['space'],377.55240619997494,377.55240619997494,0.20784741011448205,2.1232257762032445,377.7627747999504,377.55240619997494,[-1.6475835000164807],,,,,,,,,,cmzntn,002,fr,1,2022-05-02_14h36.51.244,Continuous,2022.1.1,29.502188909249302,
11,0,11,0,3,0,3,0,,,,,,,,1.9153783660887624,time,171.0,0.06790655376735932,0.0003739718963810224,0,94,"['both', 'frequency']",0.010269310092553496,None,['space'],379.6789353999775,379.6789353999775,0.21202361001633108,2.1274019761050935,379.88880269997753,379.6789353999775,[-1.64567740005441],,,,,,,,,,cmzntn,002,fr,1,2022-05-02_14h36.51.244,Continuous,2022.1.1,29.502188909249302,
11,0,11,0,4,0,4,0,,,,,,,,1.9153783660887624,time,136.0,-0.3233694000473589,0.0006019561303493214,0,95,"['both', 'frequency']",0.009562710067257285,None,None,381.80881349998526,381.80881349998526,0.2133569100406021,2.1287352761293645,382.0296691999538,381.80881349998526,,,,,,,,,,,cmzntn,002,fr,1,2022-05-02_14h36.51.244,Continuous,2022.1.1,29.502188909249302,
11,0,11,0,5,0,5,0,,,,,,,,1.9153783660887624,time,256.0,-1.4933234260041128,0.00013567510639749504,0,96,"['both', 'frequency']",0.010374710080213845,None,['space'],383.9465971000027,383.9465971000027,0.20805481006391346,2.123433176152676,384.16397779993713,383.9465971000027,[-1.4821744000073522],,,,,,,,,,cmzntn,002,fr,1,2022-05-02_14h36.51.244,Continuous,2022.1.1,29.502188909249302,
11,0,11,0,6,0,6,0,,,,,,,,1.9153783660887624,time,287.0,-1.0,0.00011433375926628807,0,97,"['both', 'frequency']",0.010170110035687685,None,None,386.0792755999137,386.0792755999137,0.20690891006961465,2.122287276158377,386.2984833999071,386.0792755999137,,,,,,,,,,,cmzntn,002,fr,1,2022-05-02_14h36.51.244,Continuous,2022.1.1,29.502188909249302,
11,0,11,0,7,0,7,0,,,,,,,,1.9153783660887624,time,,,,1,97,"['both', 'frequency']",0.0057238099398091435,None,None,388.2110820999369,388.2110820999369,0.20244400994852185,2.1178223760372843,388.4324376999866,388.2110820999369,,,,,,,,,,,cmzntn,002,fr,1,2022-05-02_14h36.51.244,Continuous,2022.1.1,29.502188909249302,
11,0,11,0,8,0,8,0,,,,,,,,1.9153783660887624,time,456.0,3.284472630142064,0.00010755970515230285,0,98,"['both', 'frequency']",0.015041610109619796,None,None,390.3480082999449,390.3480082999449,0.2198609100887552,2.1352392761775176,390.5647325000027,390.3480082999449,,,,,,,,,,,cmzntn,002,fr,1,2022-05-02_14h36.51.244,Continuous,2022.1.1,29.502188909249302,
11,0,11,0,9,0,9,0,,,,,,,,1.9153783660887624,time,645.0,2.1784218233746975,6.405894757554593e-05,0,99,"['both', 'frequency']",0.0056537099881097674,None,['space'],392.48595439991914,392.48595439991914,0.20371101005002856,2.119089376138791,392.705311800004,392.48595439991914,[-1.5398693999741226],,,,,,,,,,cmzntn,002,fr,1,2022-05-02_14h36.51.244,Continuous,2022.1.1,29.502188909249302,
12,0,12,0,0,0,0,0,,,,,"[0.3333333333333333, 0.3333333333333333, 0.16666666666666666, 0.16666666666666666, 0.3333333333333333, 0.3333333333333333, 0.3333333333333333, 0.5833333333333334, 0.5833333333333334, 0.3333333333333333, 0.5833333333333334, 0.5833333333333334, 0.3333333333333333, 0.5833333333333334, 0.3333333333333333]",398.01616659993306,None,2.2698856959152303,none,593.0,1.1421953439099628,6.493842930963665e-05,0,72,"['both', 'frequency']",0.023636410129256546,None,None,399.04957019991707,None,0.2285853101639077,2.498471006079138,399.2697488999693,None,,394.6205185999861,None,,,,,,,,cmzntn,002,fr,1,2022-05-02_14h36.51.244,Continuous,2022.1.1,29.502188909249302,
12,0,12,0,1,0,1,0,,,,,,,,2.0734231433046606,none,888.0,-2.1480190160296093,3.191502235580733e-05,0,73,"['both', 'frequency']",0.01001790992449969,None,None,401.5353712999495,401.5353712999495,0.21058410999830812,2.2840072533029687,401.74910539994016,401.5353712999495,,,,,,,,,,,cmzntn,002,fr,1,2022-05-02_14h36.51.244,Continuous,2022.1.1,29.502188909249302,
12,0,12,0,2,0,2,0,,,,,,,,2.4415968993224295,none,1677.0,-1.7145937690586854,4.943834468172304e-05,0,74,"['both', 'frequency']",0.013527410104870796,None,None,403.82831109990366,403.82831109990366,0.2187183101195842,2.6603152094420137,404.0442322999006,403.82831109990366,,,,,,,,,,,cmzntn,002,fr,1,2022-05-02_14h36.51.244,Continuous,2022.1.1,29.502188909249302,
12,0,12,0,3,0,3,0,,,,,,,,2.974724492113306,none,4744.0,-7.116774900837623,5.9555061575497774e-05,0,75,"['both', 'frequency']",0.011835709912702441,None,None,406.48254669993185,406.48254669993185,0.21348910999950022,3.188213602112806,406.70305579993874,406.48254669993185,,,,,,,,,,,cmzntn,002,fr,1,2022-05-02_14h36.51.244,Continuous,2022.1.1,29.502188909249302,
12,0,12,0,4,0,4,0,,,,,,,,2.926116290330633,none,198.0,-1.2348177503045328,0.00023658430905678626,0,76,"['both', 'frequency']",0.010336410021409392,None,['space'],409.676698199939,409.676698199939,0.20683250995352864,3.1329488002841615,409.8884785999544,409.676698199939,[-2.715585199999623],,,,,,,,,,cmzntn,002,fr,1,2022-05-02_14h36.51.244,Continuous,2022.1.1,29.502188909249302,
12,0,12,0,5,0,5,0,,,,,,,,2.0846564677523434,none,125.0,-3.0,0.0005116464961403772,0,77,"['both', 'frequency']",0.013360910001210868,None,None,412.82103240001015,412.82103240001015,0.2197487100493163,2.3044051778016597,413.03813479992095,412.82103240001015,,,,,,,,,,,cmzntn,002,fr,1,2022-05-02_14h36.51.244,Continuous,2022.1.1,29.502188909249302,
12,0,12,0,6,0,6,0,,,,,,,,1.6905805505613638,none,396.0,-1.7364560615157636,6.353289883237394e-05,0,78,"['both', 'frequency']",0.008786509977653623,None,['space'],415.1184737998992,415.1184737998992,0.2085224100155756,1.8991029605769394,415.33644059998915,415.1184737998992,[-1.7735928999027237],,,,,,,,,,cmzntn,002,fr,1,2022-05-02_14h36.51.244,Continuous,2022.1.1,29.502188909249302,
12,0,12,0,7,0,7,0,,,,,,,,2.747424857049886,none,,,,1,78,"['both', 'frequency']",0.009721510112285614,0.20646761008538306,['space'],417.03049179993104,417.03049179993104,0.20646761008538306,2.953892467135269,417.2473767999327,417.03049179993104,[-0.3893059999682009],,,,,,,,,,cmzntn,002,fr,1,2022-05-02_14h36.51.244,Continuous,2022.1.1,29.502188909249302,
12,0,12,0,8,0,8,0,,,,,,,,1.3398683060511651,none,314.0,-2.868648789003095,7.164369357690563e-05,0,79,"['both', 'frequency']",0.010939710075035691,None,None,419.98716749995947,419.98716749995947,0.20801551011390984,1.547883816165075,420.19812939991243,419.98716749995947,,,,,,,,,,,cmzntn,002,fr,1,2022-05-02_14h36.51.244,Continuous,2022.1.1,29.502188909249302,
12,0,12,0,9,0,9,0,,,,,,,,2.9113615179980954,none,157.0,0.7207159916021081,0.0004757086959811046,0,80,"['both', 'frequency']",0.00898571009747684,0.20488311012741178,None,421.54039089998696,421.54039089998696,0.20488311012741178,3.116244628125507,421.75988399994094,421.54039089998696,,,,,,,,,,,cmzntn,002,fr,1,2022-05-02_14h36.51.244,Continuous,2022.1.1,29.502188909249302,
12,0,12,0,10,0,10,0,,,,,,,,2.192276614150307,none,5977.0,-3.0,8.262993672308352e-05,0,81,"['both', 'frequency']",0.013225209899246693,None,['space'],424.66756699990947,424.66756699990947,0.21720830991398543,2.4094849240642926,424.8843133999035,424.66756699990947,[-2.666172100114636],,,,,,,,,,cmzntn,002,fr,1,2022-05-02_14h36.51.244,Continuous,2022.1.1,29.502188909249302,
12,0,12,0,11,0,11,0,,,,,,,,2.899468786709865,none,1119.0,-0.5880434168511799,4.5820369095096614e-05,0,82,"['both', 'frequency']",0.008939609862864017,None,None,427.0734099999536,427.0734099999536,0.2058728098636493,3.1053415965735143,427.2891990999924,427.0734099999536,,,,,,,,,,,cmzntn,002,fr,1,2022-05-02_14h36.51.244,Continuous,2022.1.1,29.502188909249302,
12,0,12,0,12,0,12,0,,,,,,,,2.7518849767049502,none,176.0,-0.43778768393333234,0.00033550604416849087,0,83,"['both', 'frequency']",0.012303009978495538,None,None,430.19078439997975,430.19078439997975,0.212721909978427,2.9646068866833772,430.4069826999912,430.19078439997975,,,,,,,,,,,cmzntn,002,fr,1,2022-05-02_14h36.51.244,Continuous,2022.1.1,29.502188909249302,
12,0,12,0,13,0,13,0,,,,,,,,1.0302438548939603,none,3166.0,-3.0,4.90606987009493e-05,0,84,"['both', 'frequency']",0.009309510118328035,None,['space'],433.16156849998515,433.16156849998515,0.2067541100550443,1.2369979649490046,433.3821906999219,433.16156849998515,[-2.0723842000588775],,,,,,,,,,cmzntn,002,fr,1,2022-05-02_14h36.51.244,Continuous,2022.1.1,29.502188909249302,
12,0,12,0,14,0,14,0,,,,,,,,2.860619852366355,none,249.0,-2.3514890656023297,0.00012925471192079533,0,85,"['both', 'frequency']",0.009197710081934929,None,['space'],434.4127377999248,434.4127377999248,0.20687741006258875,3.067497262428944,434.63312849996146,434.4127377999248,[-0.8439443999668583],,,,,,,,,,cmzntn,002,fr,1,2022-05-02_14h36.51.244,Continuous,2022.1.1,29.502188909249302,
13,0,13,0,0,0,0,0,,,,,"[0.3333333333333333, 0.3333333333333333, 0.5833333333333334, 0.3333333333333333, 0.16666666666666666, 0.16666666666666666, 0.5833333333333334, 0.3333333333333333, 0.5833333333333334, 0.16666666666666666, 0.3333333333333333, 0.5833333333333334, 0.3333333333333333, 0.3333333333333333, 0.5833333333333334]",441.3422880999278,None,2.195383435273369,none,373.0,1.0,9.376014330264256e-05,0,86,"['both', 'frequency']",0.02373781008645892,0.22180431010201573,None,442.37088039994705,None,0.22180431010201573,2.4171877453753847,442.580618100008,None,,437.49019309994765,None,,,,,,,,cmzntn,002,fr,1,2022-05-02_14h36.51.244,Continuous,2022.1.1,29.502188909249302,
13,0,13,0,1,0,1,0,,,,,,,,1.1491779969676792,none,559.0,2.430122541081345,8.233422993906417e-05,0,87,"['both', 'frequency']",0.009225010056979954,None,None,444.7779457999859,444.7779457999859,0.20771901006810367,1.3568970070357829,444.99703869991936,444.7779457999859,,,,,,,,,,,cmzntn,002,fr,1,2022-05-02_14h36.51.244,Continuous,2022.1.1,29.502188909249302,
13,0,13,0,2,0,2,0,,,,,,,,2.8298422173830025,none,704.0,1.0942993157274052,5.0673781862889855e-05,0,88,"['both', 'frequency']",0.008765909937210381,None,None,446.1498668999411,446.1498668999411,0.2099000100279227,3.039742227410925,446.36515069997404,446.1498668999411,,,,,,,,,,,cmzntn,002,fr,1,2022-05-02_14h36.51.244,Continuous,2022.1.1,29.502188909249302,
13,0,13,0,3,0,3,0,,,,,,,,2.071584903647515,none,296.0,0.10664036058339676,0.00012021683689458463,0,89,"['both', 'frequency']",0.008726809988729656,None,['space'],449.1960653999122,449.1960653999122,0.2186285100178793,2.2902134136653944,449.424530499964,449.1960653999122,[-2.442394199897535],,,,,,,,,,cmzntn,002,fr,1,2022-05-02_14h36.51.244,Continuous,2022.1.1,29.502188909249302,
13,0,13,0,4,0,4,0,,,,,,,,1.0151827316418671,none,1055.0,0.2984787314284051,4.797347511668197e-05,0,90,"['both', 'frequency']",0.004193310043774545,None,['space'],451.49383519997355,451.49383519997355,0.19830650999210775,1.2134892416339749,451.70545030001085,451.49383519997355,[-0.6119775000261143],,,,,,,,,,cmzntn,002,fr,1,2022-05-02_14h36.51.244,Continuous,2022.1.1,29.502188909249302,
13,0,13,0,5,0,5,0,,,,,,,,2.5512804973834644,none,125.0,1.0,0.0008109050486794653,0,91,"['both', 'frequency']",0.008901310036890209,None,['space'],452.7239011999918,452.7239011999918,0.20749051007442176,2.758771007457886,452.9366194999311,452.7239011999918,[-0.2742130000842735],,,,,,,,,,cmzntn,002,fr,1,2022-05-02_14h36.51.244,Continuous,2022.1.1,29.502188909249302,
13,0,13,0,6,0,6,0,,,,,,,,2.1000034377797627,none,1492.0,1.198519449419505,5.567728863197432e-05,0,92,"['both', 'frequency']",0.008818110101856291,0.20301511010620743,None,455.48834989999887,455.48834989999887,0.20301511010620743,2.30301854788597,455.70417529996485,455.48834989999887,,,,,,,,,,,cmzntn,002,fr,1,2022-05-02_14h36.51.244,Continuous,2022.1.1,29.502188909249302,
13,0,13,0,7,0,7,0,,,,,,,,2.3673726606979546,none,2816.0,0.6392016544131667,7.131811931705759e-05,0,93,"['both', 'frequency']",0.008145709987729788,None,['space'],457.7968519999413,457.7968519999413,0.207161910017021,2.5745345707149756,458.0129950999981,457.7968519999413,[-1.459025299991481],,,,,,,,,,cmzntn,002,fr,1,2022-05-02_14h36.51.244,Continuous,2022.1.1,29.502188909249302,
13,0,13,0,8,0,8,0,,,,,,,,1.2166733107794854,none,1184.0,0.3952952172153598,5.415812931082625e-05,0,94,"['both', 'frequency']",0.010459110140800476,None,['space'],460.3897131999256,460.3897131999256,0.21271201013587415,1.4293853209153595,460.6063307999866,460.3897131999256,[-1.87632839998696],,,,,,,,,,cmzntn,002,fr,1,2022-05-02_14h36.51.244,Continuous,2022.1.1,29.502188909249302,
13,0,13,0,9,0,9,0,,,,,,,,2.213514753897259,none,3548.0,-4.7172352757043505,4.415548545142977e-05,0,95,"['both', 'frequency']",0.008600009954534471,None,None,461.82654069992714,461.82654069992714,0.21408850990701467,2.4276032638042735,462.04464539990295,461.82654069992714,,,,,,,,,,,cmzntn,002,fr,1,2022-05-02_14h36.51.244,Continuous,2022.1.1,29.502188909249302,
13,0,13,0,10,0,10,0,,,,,,,,2.842316684649268,none,2235.0,1.3354273884731338,9.332023912848403e-05,0,96,"['both', 'frequency']",0.00814370985608548,None,None,464.2618663999019,464.2618663999019,0.2048015098553151,3.047118194504583,464.48070069996174,464.2618663999019,,,,,,,,,,,cmzntn,002,fr,1,2022-05-02_14h36.51.244,Continuous,2022.1.1,29.502188909249302,
13,0,13,0,11,0,11,0,,,,,,,,2.943725167554688,none,157.0,1.138667661060595,0.0004991587332358415,0,97,"['both', 'frequency']",0.009046409977599978,None,None,467.3201999999583,467.3201999999583,0.20856020995415747,3.1522853775088455,467.5373737999471,467.3201999999583,,,,,,,,,,,cmzntn,002,fr,1,2022-05-02_14h36.51.244,Continuous,2022.1.1,29.502188909249302,
13,0,13,0,12,0,12,0,,,,,,,,1.578209103012129,none,235.0,-0.4328091535953902,0.00018730110596422076,0,98,"['both', 'frequency']",0.011385210091248155,None,None,470.4837306999834,470.4837306999834,0.21392371004913002,1.792132813061259,470.70376469998155,470.4837306999834,,,,,,,,,,,cmzntn,002,fr,1,2022-05-02_14h36.51.244,Continuous,2022.1.1,29.502188909249302,
13,0,13,0,13,0,13,0,,,,,,,,2.8402222374979718,none,332.0,0.38040801855769735,9.842540022897346e-05,0,99,"['both', 'frequency']",0.008729810127988458,0.20582671009469777,['space'],472.2752087999834,472.2752087999834,0.20582671009469777,3.0460489475926695,472.48543819994666,472.2752087999834,[-1.2347985999658704],,,,,,,,,,cmzntn,002,fr,1,2022-05-02_14h36.51.244,Continuous,2022.1.1,29.502188909249302,
13,0,13,0,14,0,14,0,,,,,,,,1.7791202432781505,none,,,,1,99,"['both', 'frequency']",0.008903710055164993,None,None,475.32973199989647,475.32973199989647,0.2060758100124076,1.9851960532905581,475.54613649996463,475.32973199989647,,,,,,,,,,,cmzntn,002,fr,1,2022-05-02_14h36.51.244,Continuous,2022.1.1,29.502188909249302,
14,0,14,0,0,0,0,0,,,,,"[0.16666666666666666, 0.3333333333333333, 0.16666666666666666, 0.3333333333333333, 0.3333333333333333, 0.5833333333333334, 0.16666666666666666, 0.5833333333333334, 0.3333333333333333, 0.16666666666666666, 0.5833333333333334, 0.3333333333333333, 0.16666666666666666, 0.3333333333333333, 0.16666666666666666]",484.1280668999534,None,2.7795013221829414,none,2520.0,5.1051317345313505,0.00015236902120890845,0,100,"['both', 'frequency']",0.023511509993113577,None,None,485.1433182999026,None,0.23905110999476165,3.018552432177703,485.3617932999041,None,,477.325733799953,None,,,,,,,,cmzntn,002,fr,1,2022-05-02_14h36.51.244,Continuous,2022.1.1,29.502188909249302,
14,0,14,0,1,0,1,0,,,,,,,,1.5287336904491888,none,4238.0,5.135408505733446,0.00018119266285591864,0,101,"['both', 'frequency']",0.008158909855410457,None,['space'],488.1369191999547,488.1369191999547,0.2051981098484248,1.7339318002976136,488.3574274999555,488.1369191999547,[-2.407152200001292],,,,,,,,,,cmzntn,002,fr,1,2022-05-02_14h36.51.244,Continuous,2022.1.1,29.502188909249302,
14,0,14,0,2,0,2,0,,,,,,,,1.1322063606956296,none,3776.0,6.506087979315112,0.0001692147658238602,0,102,"['both', 'frequency']",0.007327609928324819,None,['space'],489.8886790999677,489.8886790999677,0.2041199099039659,1.3363262705995955,490.10304899991024,489.8886790999677,[-1.407397500006482],,,,,,,,,,cmzntn,002,fr,1,2022-05-02_14h36.51.244,Continuous,2022.1.1,29.502188909249302,
14,0,14,0,3,0,3,0,,,,,,,,1.8472368235560526,none,1414.0,2.493972680046078,6.721302002558474e-05,0,103,"['both', 'frequency']",0.00813930993899703,None,['space'],491.23949919990264,491.23949919990264,0.20992010994814336,2.0571569335041957,491.459327199962,491.23949919990264,[-0.9506709000561386],,,,,,,,,,cmzntn,002,fr,1,2022-05-02_14h36.51.244,Continuous,2022.1.1,29.502188909249302,
14,0,14,0,4,0,4,0,,,,,,,,1.111798020483522,none,1587.0,2.974442347179589,7.83799973147476e-05,0,104,"['both', 'frequency']",0.010625610128045082,None,['space'],493.3071725999471,493.3071725999471,0.21200891013722867,1.3238069306207507,493.5285195999313,493.3071725999471,[-1.2588976999977604],,,,,,,,,,cmzntn,002,fr,1,2022-05-02_14h36.51.244,Continuous,2022.1.1,29.502188909249302,
14,0,14,0,5,0,5,0,,,,,,,,2.8018119499881236,none,6350.0,1.2860609305275172,0.00015251295125093324,0,105,"['both', 'frequency']",0.004242910072207451,None,None,494.6402913999045,494.6402913999045,0.20072741014882922,3.0025393601369528,494.8624287999701,494.6402913999045,,,,,,,,,,,cmzntn,002,fr,1,2022-05-02_14h36.51.244,Continuous,2022.1.1,29.502188909249302,
