sweeps.thisRepN,sweeps.thisTrialN,sweeps.thisN,sweeps.thisIndex,trials.thisRepN,trials.thisTrialN,trials.thisN,trials.thisIndex,instructions.started,instructions.stopped,blank_text.started,blank_text.stopped,Intervals,text.started,text.stopped,Delay,Prediction,Frequency,Volume,Psychopy_level,isCatchTrial,len(y),finished_audiograms,probe.started,probe.stopped,feedback.keys,feedback.started,feedback.stopped,ISI.started,ISI.stopped,text_2.started,text_2.stopped,feedback.rt,break_txt.started,break_txt.stopped,,participant,session,language (english or french),Resume previous experiment,date,expName,psychopyVersion,frameRate,
0,0,0,0,0,0,0,0,20.70811559993308,None,41.36303559993394,None,"[0.16666666666666666, 0.5833333333333334, 0.16666666666666666, 0.3333333333333333, 0.5833333333333334, 0.3333333333333333, 0.5833333333333334, 0.5833333333333334, 0.5833333333333334, 0.3333333333333333, 0.16666666666666666, 0.16666666666666666, 0.16666666666666666, 0.16666666666666666, 0.16666666666666666]",43.39219319995027,None,2.4383028999292184,none,501.0,1.901737851413281,8.873757838020681e-05,0,26,[],0.002534666797146201,None,None,44.44419670000207,None,0.20945656683761626,2.6477594667668347,44.66104069992434,None,,,,,cmzntn,001,fr,0,2022-05-02_14h30.28.722,Continuous,2022.1.1,None,
0,0,0,0,1,0,1,0,,,,,,,,1.6798044584157783,none,446.0,-0.6387638448100539,6.894276085196957e-05,0,27,[],0.012019266723655164,None,['space'],47.12578439991921,47.12578439991921,0.21604046667926013,1.8958449250950384,47.3418040999677,47.12578439991921,[-2.0435598000185564],,,,cmzntn,001,fr,0,2022-05-02_14h30.28.722,Continuous,2022.1.1,None,
0,0,0,0,2,0,2,0,,,,,,,,1.0262725881813803,none,795.0,0.06121289248784045,3.8868377448268246e-05,0,28,[],0.012040466768667102,None,['space'],49.04223279992584,49.04223279992584,0.21300096670165658,1.239273554883037,49.25565359997563,49.04223279992584,[-1.047824699897319],,,,cmzntn,001,fr,0,2022-05-02_14h30.28.722,Continuous,2022.1.1,None,
0,0,0,0,3,0,3,0,,,,,,,,1.6832047207316136,none,,,,1,28,[],0.012242766795679927,None,None,50.30925319995731,50.30925319995731,0.21359726681839675,1.8968019875500104,50.52183709992096,50.30925319995731,,,,,cmzntn,001,fr,0,2022-05-02_14h30.28.722,Continuous,2022.1.1,None,
0,0,0,0,4,0,4,0,,,,,,,,1.4302632068921193,none,158.0,-0.635721205127135,0.0003986550603198133,0,29,[],0.013412966742180288,None,None,52.22501970001031,52.22501970001031,0.21512326668016613,1.6453864735722854,52.440346500021406,52.22501970001031,,,,,cmzntn,001,fr,0,2022-05-02_14h30.28.722,Continuous,2022.1.1,None,
0,0,0,0,5,0,5,0,,,,,,,,1.2295336550567428,none,354.0,-2.0,7.02951783824607e-05,0,30,[],0.012159966747276485,None,['space'],53.893878899980336,53.893878899980336,0.2134579666890204,1.4429916217457632,54.10954029997811,53.893878899980336,[-1.08352530002594],,,,cmzntn,001,fr,0,2022-05-02_14h30.28.722,Continuous,2022.1.1,None,
0,0,0,0,6,0,6,0,,,,,,,,2.2885659493480563,none,236.0,-1.479683751815124,0.0001643815266083841,0,31,[],0.011913966736756265,None,None,55.36499689996708,55.36499689996708,0.22289406671188772,2.511460016059944,55.58336960000452,55.36499689996708,,,,,cmzntn,001,fr,0,2022-05-02_14h30.28.722,Continuous,2022.1.1,None,
0,0,0,0,7,0,7,0,,,,,,,,2.172805741848288,none,631.0,1.7644500726789265,6.258172335260658e-05,0,32,[],0.01195046678185463,None,['space'],57.89204189996235,57.89204189996235,0.21548626676667482,2.388292008614963,58.10117329994682,57.89204189996235,[-1.881164800026454],,,,cmzntn,001,fr,0,2022-05-02_14h30.28.722,Continuous,2022.1.1,None,
0,0,0,0,8,0,8,0,,,,,,,,1.0800472529812002,none,562.0,0.8379234328284904,6.80287638131504e-05,0,33,[],0.0081635668175295,None,['space'],60.2966005000053,60.2966005000053,0.2112588668242097,1.2913061198054099,60.513214799924754,60.2966005000053,[-1.7579732000594959],,,,cmzntn,001,fr,0,2022-05-02_14h30.28.722,Continuous,2022.1.1,None,
1,0,1,0,0,0,0,0,,,,,,65.46232059993781,None,2.512563599223607,frequency,141.0,0.5548056371921459,0.000618548864912512,0,26,[],0.012679966748692095,None,None,66.50416100001894,None,0.2063225667225197,2.7188861659461265,66.71535610000137,None,,61.628079999936745,None,0.16666666666666666,cmzntn,001,fr,0,2022-05-02_14h30.28.722,Continuous,2022.1.1,None,
1,0,1,0,1,0,1,0,,,,,,,,1.0287695170984532,frequency,158.0,0.19619437268567397,0.00043872568432988947,0,27,[],0.009166666772216558,0.2086565667996183,['space'],69.25526110001374,69.25526110001374,0.2086565667996183,1.2374260838980715,69.47070159995928,69.25526110001374,[-1.9485162000637501],,,,cmzntn,001,fr,0,2022-05-02_14h30.28.722,Continuous,2022.1.1,None,
1,0,1,0,2,0,2,0,,,,,,,,2.9812963321530788,frequency,177.0,-1.267565935451354,0.0003017904706176775,0,28,[],0.004679366713389754,0.19851766678038985,['space'],70.52551359997597,70.52551359997597,0.19851766678038985,3.1798139989334686,70.74332739994861,70.52551359997597,[-0.7712009999668226],,,,cmzntn,001,fr,0,2022-05-02_14h30.28.722,Continuous,2022.1.1,None,
1,0,1,0,3,0,3,0,,,,,,,,2.6336893719340817,frequency,199.0,-0.6733491043845594,0.00024901226694889583,0,29,[],0.004350766655988991,None,None,73.74744810000993,73.74744810000993,0.20111106662079692,2.8348004385548786,73.96462119999342,73.74744810000993,,,,,cmzntn,001,fr,0,2022-05-02_14h30.28.722,Continuous,2022.1.1,None,
1,0,1,0,4,0,4,0,,,,,,,,2.373336477878503,frequency,223.0,-1.4657713554760436,0.00018615953603295,0,30,[],0.011465066811069846,None,['space'],76.62794789997861,76.62794789997861,0.21353306679520756,2.5868695446737107,76.84479310002644,76.62794789997861,[-2.2502772000152618],,,,cmzntn,001,fr,0,2022-05-02_14h30.28.722,Continuous,2022.1.1,None,
1,0,1,0,5,0,5,0,,,,,,,,1.9558268652322408,frequency,250.0,-1.8774638238331143,0.00013492636275958594,0,31,[],0.011561166611500084,None,['space'],79.23627819993999,79.23627819993999,0.21465086669195443,2.170477731924195,79.45229409995954,79.23627819993999,[-2.10640519997105],,,,cmzntn,001,fr,0,2022-05-02_14h30.28.722,Continuous,2022.1.1,None,
1,0,1,0,6,0,6,0,,,,,,,,2.7989046275611984,frequency,281.0,-1.806125925273901,0.00010936318924067154,0,32,[],0.011365966754965484,None,['space'],81.42678109998815,81.42678109998815,0.21449336677324027,3.0133979943344387,81.64400839991868,81.42678109998815,[-1.2727194000035524],,,,cmzntn,001,fr,0,2022-05-02_14h30.28.722,Continuous,2022.1.1,None,
1,0,1,0,7,0,7,0,,,,,,,,1.856122652595693,frequency,315.0,-1.8750129165210954,7.947295446117383e-05,0,33,[],0.011288566747680306,None,['space'],84.46270909998566,84.46270909998566,0.21472736669238657,2.0708500192880797,84.68659319996368,84.46270909998566,[-1.89345350000076],,,,cmzntn,001,fr,0,2022-05-02_14h30.28.722,Continuous,2022.1.1,None,
1,0,1,0,8,0,8,0,,,,,,,,2.3266186508610875,frequency,354.0,-2.0,7.02951783824607e-05,0,34,[],0.0045451667392626405,None,None,86.55929879995529,86.55929879995529,0.19863736676052213,2.5252560176216097,86.77732959995046,86.55929879995529,,,,,cmzntn,001,fr,0,2022-05-02_14h30.28.722,Continuous,2022.1.1,None,
1,0,1,0,9,0,9,0,,,,,,,,1.1837897948890594,frequency,,,,1,34,[],0.01143046678043902,None,None,89.13012180000078,89.13012180000078,0.2134723667986691,1.3972621616877285,89.34669259993825,89.13012180000078,,,,,cmzntn,001,fr,0,2022-05-02_14h30.28.722,Continuous,2022.1.1,None,
1,0,1,0,10,0,10,0,,,,,,,,1.2439296406742057,frequency,446.0,-1.6444696254950975,6.140494998370449e-05,0,35,[],0.012632366735488176,None,None,90.55384359997697,90.55384359997697,0.216805066796951,1.4607347074711567,90.7649681000039,90.55384359997697,,,,,cmzntn,001,fr,0,2022-05-02_14h30.28.722,Continuous,2022.1.1,None,
1,0,1,0,11,0,11,0,,,,,,,,2.1397971120110055,frequency,501.0,1.3576084203687544,8.334913580007838e-05,0,36,[],0.010970066767185926,None,['space'],92.03915119997691,92.03915119997691,0.22718556667678058,2.366982678687786,92.26226410001982,92.03915119997691,[-0.7801696000387892],,,,cmzntn,001,fr,0,2022-05-02_14h30.28.722,Continuous,2022.1.1,None,
1,0,1,0,12,0,12,0,,,,,,,,2.2381788148327404,frequency,562.0,0.6539012094302117,6.66026436745359e-05,0,37,[],0.01091916672885418,None,None,94.42049099993892,94.42049099993892,0.21508936665486544,2.453268181487606,94.63591339997947,94.42049099993892,,,,,cmzntn,001,fr,0,2022-05-02_14h30.28.722,Continuous,2022.1.1,None,
1,0,1,0,13,0,13,0,,,,,,,,1.7038669195765355,frequency,631.0,3.419504432858344,7.571819219183064e-05,0,38,[],0.00413936679251492,0.19750596676021814,['space'],96.90479760000017,96.90479760000017,0.19750596676021814,1.9013728863367536,97.12091179995332,96.90479760000017,[-1.7743023000657558],,,,cmzntn,001,fr,0,2022-05-02_14h30.28.722,Continuous,2022.1.1,None,
1,0,1,0,14,0,14,0,,,,,,,,1.8041224472788269,frequency,708.0,-1.497583398820722,3.730489678023893e-05,0,39,[],0.010957066784612834,None,['space'],98.8436252999818,98.8436252999818,0.21503336681053042,2.0191558140893573,99.06145179993473,98.8436252999818,[-1.0569206000072882],,,,cmzntn,001,fr,0,2022-05-02_14h30.28.722,Continuous,2022.1.1,None,
2,0,2,0,0,0,0,0,,,,,"[0.5833333333333334, 0.3333333333333333, 0.3333333333333333, 0.5833333333333334, 0.5833333333333334, 0.16666666666666666, 0.16666666666666666, 0.5833333333333334, 0.3333333333333333, 0.5833333333333334, 0.16666666666666666, 0.5833333333333334, 0.3333333333333333, 0.16666666666666666, 0.3333333333333333]",107.70701859996188,None,2.8469430853812026,none,7638.0,0.5649446905092985,0.00018202857096576738,0,34,[],0.01310436672065407,None,None,108.74560669995844,None,0.22783276671543717,3.0747758520966397,108.96379940002225,None,,100.88716949999798,None,,cmzntn,001,fr,0,2022-05-02_14h30.28.722,Continuous,2022.1.1,None,
2,0,2,0,1,0,1,0,,,,,,,,1.1669487957374818,none,1702.0,2.8628460038817742,8.531010054092542e-05,0,35,[],0.01026276673655957,None,['space'],111.83042220002972,111.83042220002972,0.21487096673808992,1.3818197624755717,112.04731029993854,111.83042220002972,[-2.187802900094539],,,,cmzntn,001,fr,0,2022-05-02_14h30.28.722,Continuous,2022.1.1,None,
2,0,2,0,2,0,2,0,,,,,,,,2.5103237644985787,none,402.0,-0.8520135402493003,6.930893000646288e-05,0,36,[],0.010777266812510788,None,None,113.24002209992614,113.24002209992614,0.21799886680673808,2.728322631305317,113.45132729993202,113.24002209992614,,,,,cmzntn,001,fr,0,2022-05-02_14h30.28.722,Continuous,2022.1.1,None,
2,0,2,0,3,0,3,0,,,,,,,,1.096910765554316,none,2144.0,-1.0,6.952102243323557e-05,0,37,[],0.003481866675429046,0.19509376666974276,None,115.9940713000251,115.9940713000251,0.19509376666974276,1.2920045322240588,116.20822819997557,115.9940713000251,,,,,cmzntn,001,fr,0,2022-05-02_14h30.28.722,Continuous,2022.1.1,None,
2,0,2,0,4,0,4,0,,,,,,,,2.59489612925434,none,5401.0,-3.5298281884277896,9.188773082417734e-05,0,38,[],0.010762266698293388,None,None,117.32942480000202,117.32942480000202,0.21605956670828164,2.8109556959626216,117.55420499993488,117.32942480000202,,,,,cmzntn,001,fr,0,2022-05-02_14h30.28.722,Continuous,2022.1.1,None,
2,0,2,0,5,0,5,0,,,,,,,,1.5015499564521393,none,1136.0,0.37077401403532645,5.191019059702955e-05,0,39,[],0.01084766665007919,None,['space'],120.16737919999287,120.16737919999287,0.21367456670850515,1.7152245231606444,120.38964579999447,120.16737919999287,[-2.3495124999899417],,,,cmzntn,001,fr,0,2022-05-02_14h30.28.722,Continuous,2022.1.1,None,
2,0,2,0,6,0,6,0,,,,,,,,1.8146215672084938,none,253.0,-1.4843872388523731,0.00013849371875217592,0,40,[],0.010588366654701531,None,None,121.91533460002393,121.91533460002393,0.2141041667200625,2.0287257339285563,122.13183379999828,121.91533460002393,,,,,cmzntn,001,fr,0,2022-05-02_14h30.28.722,Continuous,2022.1.1,None,
2,0,2,0,7,0,7,0,,,,,,,,2.2717550462847047,none,3605.0,-2.5424069729301912,5.746535293662827e-05,0,41,[],0.010666366782970726,None,None,123.97748549992684,123.97748549992684,0.21332976676058024,2.485084813045285,124.1893630999839,123.97748549992684,,,,,cmzntn,001,fr,0,2022-05-02_14h30.28.722,Continuous,2022.1.1,None,
2,0,2,0,8,0,8,0,,,,,,,,1.1938196202081977,none,3212.0,-2.846942638101185,5.051469878457175e-05,0,42,[],0.010658766841515899,None,['space'],126.49215519998688,126.49215519998688,0.21329436684027314,1.4071139870484708,126.70267629995942,126.49215519998688,[-1.9864675999851897],,,,cmzntn,001,fr,0,2022-05-02_14h30.28.722,Continuous,2022.1.1,None,
2,0,2,0,9,0,9,0,,,,,,,,2.8352557364870288,none,6805.0,-0.8707546212213183,0.00013145433118966524,0,43,[],0.010432166745886207,None,None,127.92276799993124,127.92276799993124,0.22450716665480286,3.0597629031418316,128.15047410002444,127.92276799993124,,,,,cmzntn,001,fr,0,2022-05-02_14h30.28.722,Continuous,2022.1.1,None,
2,0,2,0,10,0,10,0,,,,,,,,1.614575912029347,none,902.0,-0.10667201035914209,4.0763397960476045e-05,0,44,[],0.007046666811220348,None,None,131.0039832999464,131.0039832999464,0.2055606668582186,1.8201365788875656,131.2234432999976,131.0039832999464,,,,,cmzntn,001,fr,0,2022-05-02_14h30.28.722,Continuous,2022.1.1,None,
2,0,2,0,11,0,11,0,,,,,,,,1.2365212109418466,none,602.0,3.540725168099089,8.348044109343521e-05,0,45,[],0.01020486664492637,None,['space'],132.86474009999074,132.86474009999074,0.21423256665002555,1.4507537775918722,133.07799389993306,132.86474009999074,[-1.1739890000317246],,,,cmzntn,001,fr,0,2022-05-02_14h30.28.722,Continuous,2022.1.1,None,
2,0,2,0,12,0,12,0,,,,,,,,1.7484220901303387,none,,,,1,45,[],0.01028756657615304,None,None,134.34573639999144,134.34573639999144,0.2167061666259542,1.9651282567562929,134.57008079998195,134.34573639999144,,,,,cmzntn,001,fr,0,2022-05-02_14h30.28.722,Continuous,2022.1.1,None,
2,0,2,0,13,0,13,0,,,,,,,,2.1524607891205476,none,1012.0,-0.7651715822708456,4.079732794901925e-05,0,46,[],0.011645666789263487,None,None,136.33544419996906,136.33544419996906,0.21237866673618555,2.364839455856733,136.54606989992317,136.33544419996906,,,,,cmzntn,001,fr,0,2022-05-02_14h30.28.722,Continuous,2022.1.1,None,
3,0,3,0,0,0,0,0,,,,,,141.89230720000342,None,2.6413393092660096,frequency,1954.0,-2.761806922555141,5.292386396208139e-05,0,40,[],0.012472566682845354,None,None,142.93540319998283,None,0.20980436669196934,2.851143675957979,143.14576370001305,None,,138.72114149993286,None,0.16666666666666666,cmzntn,001,fr,0,2022-05-02_14h30.28.722,Continuous,2022.1.1,None,
3,0,3,0,1,0,1,0,,,,,,,,1.3314065509513235,frequency,2193.0,-1.5164546099146619,6.642005184927283e-05,0,41,[],0.009927766746841371,None,None,145.8124810999725,145.8124810999725,0.24242346663959324,1.5738300175909168,146.04506429994944,145.8124810999725,,,,,cmzntn,001,fr,0,2022-05-02_14h30.28.722,Continuous,2022.1.1,None,
3,0,3,0,2,0,2,0,,,,,,,,1.106005437489275,frequency,2462.0,-7.150425163286376,3.733951736399618e-05,0,42,[],0.010306466720066965,None,None,147.40345270000398,147.40345270000398,0.21688426670152694,1.3228897041908019,147.614516899921,147.40345270000398,,,,,cmzntn,001,fr,0,2022-05-02_14h30.28.722,Continuous,2022.1.1,None,
3,0,3,0,3,0,3,0,,,,,,,,1.986635812879488,frequency,2764.0,-3.6586196416611845,4.560255955095398e-05,0,43,[],0.0031324666924774647,None,None,148.74473059992306,148.74473059992306,0.19973536673933268,2.1863711796188205,148.9606556999497,148.74473059992306,,,,,cmzntn,001,fr,0,2022-05-02_14h30.28.722,Continuous,2022.1.1,None,
3,0,3,0,4,0,4,0,,,,,,,,1.575432609840903,frequency,3103.0,-5.3604542866716764,3.4835108056995265e-05,0,44,[],0.005614666733890772,None,None,150.97578290000092,150.97578290000092,0.20177216664887965,1.7772047764897827,151.1948738999199,150.97578290000092,,,,,cmzntn,001,fr,0,2022-05-02_14h30.28.722,Continuous,2022.1.1,None,
3,0,3,0,5,0,5,0,,,,,,,,2.2396872161320927,frequency,3483.0,-6.626311981927133,3.491094952262763e-05,0,45,[],0.007257366785779595,None,None,152.79369570000563,152.79369570000563,0.20629986678250134,2.445987082914594,153.01341999997385,152.79369570000563,,,,,cmzntn,001,fr,0,2022-05-02_14h30.28.722,Continuous,2022.1.1,None,
3,0,3,0,6,0,6,0,,,,,,,,2.2755549992788353,frequency,3909.0,-8.165753341967477,3.216161472573253e-05,0,46,[],0.00917256681714207,None,['space'],155.278754799976,155.278754799976,0.21181496686767787,2.487369966146513,155.4952525999397,155.278754799976,[-1.8123404999496415],,,,cmzntn,001,fr,0,2022-05-02_14h30.28.722,Continuous,2022.1.1,None,
3,0,3,0,7,0,7,0,,,,,,,,2.6375076759741978,frequency,4388.0,-8.833663890445447,4.00144356609005e-05,0,47,[],0.009833366726525128,None,None,157.79552049993072,157.79552049993072,0.21308726666029543,2.850594942634493,158.0062079000054,157.79552049993072,,,,,cmzntn,001,fr,0,2022-05-02_14h30.28.722,Continuous,2022.1.1,None,
3,0,3,0,8,0,8,0,,,,,,,,2.626086171689427,frequency,4925.0,-8.0,5.8754892220776854e-05,0,48,[],0.00994736677967012,None,['space'],160.67471309995744,160.67471309995744,0.21474416670389473,2.8408303383933218,160.89691839995794,160.67471309995744,[-2.3759885999606922],,,,cmzntn,001,fr,0,2022-05-02_14h30.28.722,Continuous,2022.1.1,None,
3,0,3,0,9,0,9,0,,,,,,,,1.021830268406849,frequency,5528.0,-5.962679043561768,6.708352921553939e-05,0,49,[],0.0009227667469531298,0.19607186678331345,['space'],163.54647179995663,163.54647179995663,0.19607186678331345,1.2179021351901624,163.7680570000084,163.54647179995663,[-2.4637203000020236],,,,cmzntn,001,fr,0,2022-05-02_14h30.28.722,Continuous,2022.1.1,None,
3,0,3,0,10,0,10,0,,,,,,,,1.15829590530908,frequency,6205.0,-2.3800531298390344,9.544383295950065e-05,0,50,[],0.009406566736288369,None,['space'],164.81194609997328,164.81194609997328,0.21422306669410318,1.3725189720031832,165.03413279994857,164.81194609997328,[-0.9134291999507695],,,,cmzntn,001,fr,0,2022-05-02_14h30.28.722,Continuous,2022.1.1,None,
3,0,3,0,11,0,11,0,,,,,,,,2.167057835506692,frequency,6965.0,-7.539842447343924,6.303455011827344e-05,0,51,[],0.009783966816030443,None,['space'],166.2166842999868,166.2166842999868,0.21327856683637947,2.3803364023430715,166.43123300001025,166.2166842999868,[-0.7820028000278398],,,,cmzntn,001,fr,0,2022-05-02_14h30.28.722,Continuous,2022.1.1,None,
3,0,3,0,12,0,12,0,,,,,,,,1.1278258831207397,frequency,7818.0,-5.356818828201521,9.500061982664408e-05,0,52,[],0.009191366727463901,None,None,168.6267877999926,168.6267877999926,0.2131924667628482,1.341018349883588,168.84725579991937,168.6267877999926,,,,,cmzntn,001,fr,0,2022-05-02_14h30.28.722,Continuous,2022.1.1,None,
3,0,3,0,13,0,13,0,,,,,,,,2.7019570728966174,frequency,,,,1,52,[],0.0027666667010635138,0.19818416668567806,None,170.0019344999455,170.0019344999455,0.19818416668567806,2.9001412395822954,170.21462450001854,170.0019344999455,,,,,cmzntn,001,fr,0,2022-05-02_14h30.28.722,Continuous,2022.1.1,None,
4,0,4,0,0,0,0,0,,,,,,176.05705940001644,None,1.825807988438919,frequency,163.0,1.2042325774262925,0.00045970974792228323,0,53,[],0.012988466653041542,None,None,177.09491999994498,None,0.2160316666122526,2.0418396550511715,177.31501519994345,None,,172.94041719997767,None,0.5833333333333334,cmzntn,001,fr,0,2022-05-02_14h30.28.722,Continuous,2022.1.1,None,
4,0,4,0,1,0,1,0,,,,,,,,1.875365462077004,frequency,244.0,-2.2831783707687827,0.0001378068580987839,0,54,[],0.009301966638304293,None,None,179.16422789997887,179.16422789997887,0.21246706671081483,2.0878325287878186,179.37761019996833,179.16422789997887,,,,,cmzntn,001,fr,0,2022-05-02_14h30.28.722,Continuous,2022.1.1,None,
4,0,4,0,2,0,2,0,,,,,,,,1.3999339466586118,frequency,366.0,-2.3781153546948306,6.493156477268061e-05,0,55,[],0.009435066720470786,None,None,181.28310360002797,181.28310360002797,0.21194636670406908,1.611880313362681,181.49490109994076,181.28310360002797,,,,,cmzntn,001,fr,0,2022-05-02_14h30.28.722,Continuous,2022.1.1,None,
4,0,4,0,3,0,3,0,,,,,,,,1.6815299788794376,frequency,,,,1,55,[],0.008023366797715425,None,None,182.9241067999974,182.9241067999974,0.20912276674062014,1.8906527456200577,183.14046959998086,182.9241067999974,,,,,cmzntn,001,fr,0,2022-05-02_14h30.28.722,Continuous,2022.1.1,None,
4,0,4,0,4,0,4,0,,,,,,,,2.8097391171143093,frequency,822.0,-3.047106570879547,2.745587417910729e-05,0,56,[],0.008272266830317676,None,None,184.84325779997744,184.84325779997744,0.207577166846022,3.0173162839603314,185.06389540003147,184.84325779997744,,,,,cmzntn,001,fr,0,2022-05-02_14h30.28.722,Continuous,2022.1.1,None,
4,0,4,0,5,0,5,0,,,,,,,,2.1926180421227652,frequency,1231.0,-4.0,3.389156412629444e-05,0,57,[],0.009263166692107916,None,None,187.89566919999197,187.89566919999197,0.21243476669769734,2.4050528088204626,188.11192379996646,187.89566919999197,,,,,cmzntn,001,fr,0,2022-05-02_14h30.28.722,Continuous,2022.1.1,None,
4,0,4,0,6,0,6,0,,,,,,,,1.8883383382951469,frequency,1844.0,2.1644384899746725,8.694526634690928e-05,0,58,[],0.009452666738070548,None,None,190.3308354000328,190.3308354000328,0.21097116672899574,2.0993095050241424,190.5375387999229,190.3308354000328,,,,,cmzntn,001,fr,0,2022-05-02_14h30.28.722,Continuous,2022.1.1,None,
4,0,4,0,7,0,7,0,,,,,,,,2.282857438112238,frequency,2763.0,-3.328922405792211,4.740916289424935e-05,0,59,[],0.004373866831883788,0.19890876684803516,['space'],192.45412979996763,192.45412979996763,0.19890876684803516,2.481766204960273,192.66737089992967,192.45412979996763,[-1.6762261000694707],,,,cmzntn,001,fr,0,2022-05-02_14h30.28.722,Continuous,2022.1.1,None,
4,0,4,0,8,0,8,0,,,,,,,,2.6144241918998223,frequency,4140.0,-7.124605565834573,4.120219665123545e-05,0,60,[],0.008682666695676744,0.20496566675137728,None,194.9819403999718,194.9819403999718,0.20496566675137728,2.8193898586511996,195.1966581000015,194.9819403999718,,,,,cmzntn,001,fr,0,2022-05-02_14h30.28.722,Continuous,2022.1.1,None,
4,0,4,0,9,0,9,0,,,,,,,,1.0457526809417996,frequency,6203.0,-3.3973469625427777,8.483146506035195e-05,0,61,[],0.008961166720837355,None,['space'],197.83368419995531,197.83368419995531,0.20969886670354754,1.2554515476453472,198.0447787999874,197.83368419995531,[-2.416080499999225],,,,cmzntn,001,fr,0,2022-05-02_14h30.28.722,Continuous,2022.1.1,None,
5,0,5,0,0,0,0,0,,,,,,202.6183963000076,None,1.0574666165356919,frequency,175.0,1.3065536667153808,0.0004143592699075671,0,62,[],0.012895466759800911,None,None,203.65363059996162,None,0.21961276675574481,1.2770793832914367,203.8723948999541,None,,199.12241329997778,None,0.5833333333333334,cmzntn,001,fr,0,2022-05-02_14h30.28.722,Continuous,2022.1.1,None,
5,0,5,0,1,0,1,0,,,,,,,,2.89304795490728,frequency,262.0,-1.2365651029275815,0.00013423259925868879,0,63,[],0.0041896667098626494,None,['space'],204.94975409994368,204.94975409994368,0.20652716665063053,3.0995751215579106,205.16416369995568,204.94975409994368,[-0.7151898000156507],,,,cmzntn,001,fr,0,2022-05-02_14h30.28.722,Continuous,2022.1.1,None,
5,0,5,0,2,0,2,0,,,,,,,,2.806496088236962,frequency,392.0,2.0,9.899087244592156e-05,0,64,[],0.004839366767555475,None,None,208.08543959993403,208.08543959993403,0.2015319666825235,3.0080280549194853,208.3064634000184,208.08543959993403,,,,,cmzntn,001,fr,0,2022-05-02_14h30.28.722,Continuous,2022.1.1,None,
5,0,5,0,3,0,3,0,,,,,,,,1.195282531057264,frequency,588.0,3.3256134058800613,8.4641217277409e-05,0,65,[],0.004599866806529462,None,['space'],211.1402200999437,211.1402200999437,0.19908596680033952,1.3943684978576034,211.3589542999398,211.1402200999437,[-2.5384122999385],,,,cmzntn,001,fr,0,2022-05-02_14h30.28.722,Continuous,2022.1.1,None,
5,0,5,0,4,0,4,0,,,,,,,,2.309718644120939,frequency,881.0,0.8678358727058191,4.494367397331332e-05,0,66,[],0.008954966790042818,None,['space'],212.58212689997163,212.58212689997163,0.21344406681600958,2.5231627109369485,212.7947487999918,212.58212689997163,[-0.9238909999839962],,,,cmzntn,001,fr,0,2022-05-02_14h30.28.722,Continuous,2022.1.1,None,
5,0,5,0,5,0,5,0,,,,,,,,2.6520813813827067,frequency,1320.0,2.0,6.643519860532138e-05,0,67,[],0.008729066816158593,None,None,215.13603189995047,215.13603189995047,0.21101586672011763,2.8630972481028243,215.34621270000935,215.13603189995047,,,,,cmzntn,001,fr,0,2022-05-02_14h30.28.722,Continuous,2022.1.1,None,
5,0,5,0,6,0,6,0,,,,,,,,1.3618085481868865,frequency,1978.0,3.2394532679356476,0.00010718583026911352,0,68,[],0.008670166716910899,None,['space'],218.02718109998386,218.02718109998386,0.2100691667292267,1.5718777149161132,218.24275219999254,218.02718109998386,[-2.3052481999620795],,,,cmzntn,001,fr,0,2022-05-02_14h30.28.722,Continuous,2022.1.1,None,
5,0,5,0,7,0,7,0,,,,,,,,2.333836011921467,frequency,2964.0,0.6362764195426358,6.139791801967985e-05,0,69,[],0.004350666655227542,0.20003916672430933,['space'],219.63305579998996,219.63305579998996,0.20003916672430933,2.5338751786457765,219.8499442000175,219.63305579998996,[-1.0944002000615],,,,cmzntn,001,fr,0,2022-05-02_14h30.28.722,Continuous,2022.1.1,None,
5,0,5,0,8,0,8,0,,,,,,,,1.7531034084515482,frequency,4441.0,-0.6848322895711974,0.00010561904415015339,0,70,[],0.00879166682716459,None,['space'],222.21011059999,222.21011059999,0.21546716685406864,1.9685705753056169,222.42369690001942,222.21011059999,[-1.9593503000214696],,,,cmzntn,001,fr,0,2022-05-02_14h30.28.722,Continuous,2022.1.1,None,
5,0,5,0,9,0,9,0,,,,,,,,2.1368321888157022,frequency,,,,1,70,[],0.001071566715836525,0.19776326674036682,['space'],224.210810199962,224.210810199962,0.19776326674036682,2.334595455556069,224.42738549993373,224.210810199962,[-1.577479499974288],,,,cmzntn,001,fr,0,2022-05-02_14h30.28.722,Continuous,2022.1.1,None,
6,0,6,0,0,0,0,0,,,,,,229.77704950002953,None,1.5249621490293979,frequency,125.0,-1.0,0.000644124775846567,0,71,[],0.013028266606852412,None,None,230.82329079997726,None,0.2115134666673839,1.7364756156967818,231.03414629993495,None,,226.58862219995353,None,0.5833333333333334,cmzntn,001,fr,0,2022-05-02_14h30.28.722,Continuous,2022.1.1,None,
6,0,6,0,1,0,1,0,,,,,,,,2.035373802277316,frequency,,,,1,71,[],0.008361266809515655,None,None,232.58731710002758,232.58731710002758,0.2113952668150887,2.2467690690924047,232.79919439996593,232.58731710002758,,,,,cmzntn,001,fr,0,2022-05-02_14h30.28.722,Continuous,2022.1.1,None,
6,0,6,0,2,0,2,0,,,,,,,,1.7920539664289095,frequency,280.0,-1.2865009467045545,0.0001170189622694019,0,72,[],0.009378866758197546,None,None,234.87110749993008,234.87110749993008,0.2097650667419657,2.001819033170875,235.0854638000019,234.87110749993008,,,,,cmzntn,001,fr,0,2022-05-02_14h30.28.722,Continuous,2022.1.1,None,
6,0,6,0,3,0,3,0,,,,,,,,2.1737621997274816,frequency,420.0,2.4113313313226197,9.970112751205216e-05,0,73,[],0.008478766772896051,None,['space'],236.90820379997604,236.90820379997604,0.21895826677791774,2.3927204665053994,237.13091179996263,236.90820379997604,[-0.7532309000380337],,,,cmzntn,001,fr,0,2022-05-02_14h30.28.722,Continuous,2022.1.1,None,
6,0,6,0,4,0,4,0,,,,,,,,2.2997349836443908,frequency,629.0,3.034692336566137,7.278246580133934e-05,0,74,[],0.00825076678302139,None,None,239.32740660000127,239.32740660000127,0.21312466671224684,2.5128596503566376,239.5434887999436,239.32740660000127,,,,,cmzntn,001,fr,0,2022-05-02_14h30.28.722,Continuous,2022.1.1,None,
6,0,6,0,5,0,5,0,,,,,,,,1.2717565235851849,frequency,942.0,-0.5796285762798679,3.966661648351471e-05,0,75,[],0.0037717665545642376,0.19796426664106548,['space'],241.87366529996507,241.87366529996507,0.19796426664106548,1.4697207902262504,242.08566129999235,241.87366529996507,[-1.8476130000781268],,,,cmzntn,001,fr,0,2022-05-02_14h30.28.722,Continuous,2022.1.1,None,
6,0,6,0,6,0,6,0,,,,,,,,1.9674548383421233,frequency,1411.0,1.2136515885959382,5.808689942325501e-05,0,76,[],0.008405766799114645,None,None,243.38809999998193,243.38809999998193,0.21320636675227433,2.1806612050943976,243.59656279999763,243.38809999998193,,,,,cmzntn,001,fr,0,2022-05-02_14h30.28.722,Continuous,2022.1.1,None,
6,0,6,0,7,0,7,0,,,,,,,,1.1428117637783313,frequency,2114.0,-0.380673434040677,7.402255122070288e-05,0,77,[],0.007731066783890128,None,None,245.5902610999765,245.5902610999765,0.20961576676927507,1.3524275305476063,245.80645339994226,245.5902610999765,,,,,cmzntn,001,fr,0,2022-05-02_14h30.28.722,Continuous,2022.1.1,None,
6,0,6,0,8,0,8,0,,,,,,,,1.8927586714321283,frequency,3167.0,-2.534151808818529,5.1776910627967584e-05,0,78,[],0.004011566750705242,None,None,246.9771322000306,246.9771322000306,0.20081516669597477,2.093573838128103,247.19812309998088,246.9771322000306,,,,,cmzntn,001,fr,0,2022-05-02_14h30.28.722,Continuous,2022.1.1,None,
6,0,6,0,9,0,9,0,,,,,,,,1.1350632209437366,frequency,4745.0,-8.959880548802065,4.819305657582396e-05,0,79,[],0.0009744667913764715,0.19513496675062925,['space'],249.11932339996565,249.11932339996565,0.19513496675062925,1.3301981876943658,249.33262210001703,249.11932339996565,[-1.6853251999709755],,,,cmzntn,001,fr,0,2022-05-02_14h30.28.722,Continuous,2022.1.1,None,
6,0,6,0,10,0,10,0,,,,,,,,1.5443910448144977,frequency,7109.0,0.6820706254113897,0.00016715458337211356,0,80,[],0.004000366665422916,0.20101306668948382,['space'],250.4977029999718,250.4977029999718,0.20101306668948382,1.7454041115039816,250.71619830001146,250.4977029999718,[-0.7756522999843583],,,,cmzntn,001,fr,0,2022-05-02_14h30.28.722,Continuous,2022.1.1,None,
7,0,7,0,0,0,0,0,,,,,"[0.5833333333333334, 0.16666666666666666, 0.3333333333333333, 0.5833333333333334, 0.5833333333333334, 0.5833333333333334, 0.3333333333333333, 0.3333333333333333, 0.3333333333333333, 0.16666666666666666, 0.16666666666666666, 0.16666666666666666, 0.5833333333333334, 0.3333333333333333, 0.5833333333333334]",255.4613667000085,None,1.0222573321092776,none,6062.0,-4.093340188127352,7.415131483961113e-05,0,47,[],0.01279766671359539,None,None,256.4941297000041,None,0.228788866661489,1.2510461987707666,256.7063236000249,None,,252.3373071999522,None,,cmzntn,001,fr,0,2022-05-02_14h30.28.722,Continuous,2022.1.1,None,
7,0,7,0,1,0,1,0,,,,,,,,1.0571951812293594,none,,,,1,47,[],0.004184766788966954,None,None,257.7540208999999,257.7540208999999,0.2022037667920813,1.2593989480214407,257.97375619993545,257.7540208999999,,,,,cmzntn,001,fr,0,2022-05-02_14h30.28.722,Continuous,2022.1.1,None,
7,0,7,0,2,0,2,0,,,,,,,,2.6408115375771213,none,2144.0,-2.9619059356439545,5.546523454158012e-05,0,48,[],0.00401496677659452,0.19758526678197086,None,259.059894099948,259.059894099948,0.19758526678197086,2.838396804359092,259.2720863999566,259.059894099948,,,,,cmzntn,001,fr,0,2022-05-02_14h30.28.722,Continuous,2022.1.1,None,
7,0,7,0,3,0,3,0,,,,,,,,1.6113395338450915,none,2701.0,-1.0670652815766553,6.491879371370039e-05,0,49,[],0.0030481667490676045,None,None,261.94423729996197,261.94423729996197,0.19773426675237715,1.8090738005974687,262.1589604000328,261.94423729996197,,,,,cmzntn,001,fr,0,2022-05-02_14h30.28.722,Continuous,2022.1.1,None,
7,0,7,0,4,0,4,0,,,,,,,,2.9420035958665363,none,4812.0,-7.9416078423096605,5.6035024673275794e-05,0,50,[],0.007866966654546559,None,None,263.80345399992075,263.80345399992075,0.20740756671875715,3.1494111625852934,264.017722300021,263.80345399992075,,,,,cmzntn,001,fr,0,2022-05-02_14h30.28.722,Continuous,2022.1.1,None,
7,0,7,0,5,0,5,0,,,,,,,,2.486815144332951,none,3403.0,-5.410549488604403,3.9402685493233154e-05,0,51,[],0.008006766554899514,None,['space'],266.9934852999868,266.9934852999868,0.21169096662197262,2.6985061109549235,267.1992103999946,266.9934852999868,[-2.743173399940133],,,,cmzntn,001,fr,0,2022-05-02_14h30.28.722,Continuous,2022.1.1,None,
7,0,7,0,6,0,6,0,,,,,,,,1.0818251591725854,none,637.0,0.8396465055460829,5.568142798380373e-05,0,52,[],0.0034136667381972075,0.19953186670318246,None,269.71834359993227,269.71834359993227,0.19953186670318246,1.2813570258757678,269.9322542999871,269.71834359993227,,,,,cmzntn,001,fr,0,2022-05-02_14h30.28.722,Continuous,2022.1.1,None,
7,0,7,0,7,0,7,0,,,,,,,,1.823328849796669,none,1431.0,-0.2185344404737266,4.877290854225834e-05,0,53,[],0.007836466771550477,None,None,271.0465828999877,271.0465828999877,0.21847056678961962,2.0417994165862887,271.26746649993584,271.0465828999877,,,,,cmzntn,001,fr,0,2022-05-02_14h30.28.722,Continuous,2022.1.1,None,
7,0,7,0,8,0,8,0,,,,,,,,1.004425031355051,none,4287.0,-5.0,5.830775559530457e-05,0,54,[],0.0077166667906567454,None,None,273.1135331999976,273.1135331999976,0.20881906675640494,1.2132440981114558,273.32313429994974,273.1135331999976,,,,,cmzntn,001,fr,0,2022-05-02_14h30.28.722,Continuous,2022.1.1,None,
7,0,7,0,9,0,9,0,,,,,,,,2.6185700263253295,none,955.0,-0.2975906121106421,4.133280295379313e-05,0,55,[],0.004485566751100123,None,['space'],274.3558270999929,274.3558270999929,0.20757206669077277,2.8261420930161023,274.57468770002015,274.3558270999929,[-0.8738906000507995],,,,cmzntn,001,fr,0,2022-05-02_14h30.28.722,Continuous,2022.1.1,None,
7,0,7,0,10,0,10,0,,,,,,,,2.5278103034378923,none,451.0,-0.808128568784686,6.737869277168898e-05,0,56,[],0.0073605666402727365,None,None,277.22357849997934,277.22357849997934,0.21483136666938663,2.742641670107279,277.4340868999716,277.22357849997934,,,,,cmzntn,001,fr,0,2022-05-02_14h30.28.722,Continuous,2022.1.1,None,
7,0,7,0,11,0,11,0,,,,,,,,2.4965018936767422,none,5401.0,-5.385658075529148,7.421061528408828e-05,0,57,[],0.0075155667727813125,None,['space'],279.9870450999588,279.9870450999588,0.20791756676044315,2.7044194604371854,280.19882739998866,279.9870450999588,[-2.2324134999653324],,,,cmzntn,001,fr,0,2022-05-02_14h30.28.722,Continuous,2022.1.1,None,
8,0,8,0,0,0,0,0,,,,,"[0.16666666666666666, 0.16666666666666666, 0.16666666666666666, 0.3333333333333333, 0.16666666666666666, 0.5833333333333334, 0.16666666666666666, 0.3333333333333333, 0.5833333333333334, 0.5833333333333334, 0.16666666666666666, 0.5833333333333334, 0.3333333333333333, 0.16666666666666666, 0.16666666666666666]",284.58768460003193,None,2.640747382094849,time,354.0,-2.0,7.02951783824607e-05,0,26,[],0.01300686679314822,None,None,285.62336909992155,None,0.21700376679655164,2.8577511488914005,285.8370988999959,None,,282.72844570002053,None,,cmzntn,001,fr,0,2022-05-02_14h30.28.722,Continuous,2022.1.1,None,
8,0,8,0,1,0,1,0,,,,,,,,2.640747382094849,time,530.0,1.4062969167434787,7.849855488705278e-05,0,27,[],0.007090866798534989,None,None,288.5022196000209,288.5022196000209,0.2099107668036595,2.8506581488985083,288.70525699993595,288.5022196000209,,,,,cmzntn,001,fr,0,2022-05-02_14h30.28.722,Continuous,2022.1.1,None,
8,0,8,0,2,0,2,0,,,,,,,,2.640747382094849,time,236.0,-1.4169774258529346,0.00016557254552527348,0,28,[],0.0004959667567163706,0.1964689667802304,['space'],291.38029809994623,291.38029809994623,0.1964689667802304,2.8372163488750792,291.5940668999683,291.38029809994623,[-2.266347600030713],,,,cmzntn,001,fr,0,2022-05-02_14h30.28.722,Continuous,2022.1.1,None,
8,0,8,0,3,0,3,0,,,,,,,,2.640747382094849,time,,,,1,28,[],0.0036668668035417795,0.19984606676734984,None,294.25991189992055,294.25991189992055,0.19984606676734984,2.8405934488621987,294.47534549993,294.25991189992055,,,,,cmzntn,001,fr,0,2022-05-02_14h30.28.722,Continuous,2022.1.1,None,
8,0,8,0,4,0,4,0,,,,,,,,2.640747382094849,time,1123.0,-1.3903355705272529,4.192020811346943e-05,0,29,[],0.008422166807577014,None,None,297.1384083000012,297.1384083000012,0.20827596681192517,2.849023348906774,297.3492145999335,297.1384083000012,,,,,cmzntn,001,fr,0,2022-05-02_14h30.28.722,Continuous,2022.1.1,None,
8,0,8,0,5,0,5,0,,,,,,,,2.640747382094849,time,595.0,-0.1527466019460757,5.563758840153945e-05,0,30,[],0.0007690666243433952,None,['space'],300.0227419999428,300.0227419999428,0.1982360667316243,2.838983448826473,300.23678669997025,300.0227419999428,[-2.4135143000166863],,,,cmzntn,001,fr,0,2022-05-02_14h30.28.722,Continuous,2022.1.1,None,
8,0,8,0,6,0,6,0,,,,,,,,2.640747382094849,time,167.0,1.0800222301033284,0.00043668581828423434,0,31,[],0.0073490667855367064,None,None,302.9113310999237,302.9113310999237,0.22758786682970822,2.868335248924557,303.13662859995384,302.9113310999237,,,,,cmzntn,001,fr,0,2022-05-02_14h30.28.722,Continuous,2022.1.1,None,
8,0,8,0,7,0,7,0,,,,,,,,2.640747382094849,time,187.0,0.20081323371336712,0.0003201036663362432,0,32,[],0.0071352667873725295,None,"['space', 'space']",305.7988322000019,305.7988322000019,0.211099766776897,2.851847148871746,306.0145328999497,305.7988322000019,"[-2.492757400032133, 0.09977739991154522]",,,,cmzntn,001,fr,0,2022-05-02_14h30.28.722,Continuous,2022.1.1,None,
8,0,8,0,8,0,8,0,,,,,,,,2.640747382094849,time,891.0,-1.7988941198024735,3.329327545136585e-05,0,33,[],0.006970966584049165,None,None,308.6900212999899,308.6900212999899,0.2089808665914461,2.849728248686295,308.90102570003364,308.6900212999899,,,,,cmzntn,001,fr,0,2022-05-02_14h30.28.722,Continuous,2022.1.1,None,
8,0,8,0,9,0,9,0,,,,,,,,2.640747382094849,time,1415.0,-1.496448351427121,4.243444577576286e-05,0,34,[],0.01610993326175958,None,None,311.5700738999294,311.5700738999294,0.21611923328600824,2.856866615380857,311.7859116999898,311.5700738999294,,,,,cmzntn,001,fr,0,2022-05-02_14h30.28.722,Continuous,2022.1.1,None,
9,0,9,0,0,0,0,0,,,,,"[0.5833333333333334, 0.16666666666666666, 0.3333333333333333, 0.16666666666666666, 0.16666666666666666, 0.16666666666666666, 0.5833333333333334, 0.3333333333333333, 0.3333333333333333, 0.16666666666666666, 0.16666666666666666, 0.16666666666666666, 0.5833333333333334, 0.5833333333333334, 0.16666666666666666]",316.8286887999857,None,2.814270732345128,time,1084.0,-0.5791530306409541,4.4497772195723804e-05,0,35,[],0.012985166627913713,None,None,317.85695019993,None,0.22236366663128138,3.0366343989764095,318.07269810000435,None,,314.4624351999955,None,,cmzntn,001,fr,0,2022-05-02_14h30.28.722,Continuous,2022.1.1,None,
9,0,9,0,1,0,1,0,,,,,,,,2.814270732345128,time,966.0,-8.15967158008974,1.6840447005534663e-05,0,36,[],0.006354966550134122,None,None,320.91359100001864,320.91359100001864,0.2075589665910229,3.021829698936151,321.1268380000256,320.91359100001864,,,,,cmzntn,001,fr,0,2022-05-02_14h30.28.722,Continuous,2022.1.1,None,
9,0,9,0,2,0,2,0,,,,,,,,2.814270732345128,time,2895.0,-6.292473139679715,2.9729206179628762e-05,0,37,[],0.005596966715529561,None,None,323.9729612999363,323.9729612999363,0.20578416669741273,3.020054899042541,324.1890095999697,323.9729612999363,,,,,cmzntn,001,fr,0,2022-05-02_14h30.28.722,Continuous,2022.1.1,None,
9,0,9,0,3,0,3,0,,,,,,,,2.814270732345128,time,1721.0,2.1811636036966764,7.997362266174359e-05,0,38,[],0.0031631668098270893,None,None,327.0284803999821,327.0284803999821,0.1996776667656377,3.013948399110766,327.2481471999781,327.0284803999821,,,,,cmzntn,001,fr,0,2022-05-02_14h30.28.722,Continuous,2022.1.1,None,
9,0,9,0,4,0,4,0,,,,,,,,2.814270732345128,time,,,,1,38,[],0.00698376668151468,None,None,330.09346419991925,330.09346419991925,0.21099866670556366,3.025269399050692,330.30200030002743,330.09346419991925,,,,,cmzntn,001,fr,0,2022-05-02_14h30.28.722,Continuous,2022.1.1,None,
9,0,9,0,5,0,5,0,,,,,,,,2.814270732345128,time,6499.0,-3.9878010041976983,8.595616420798868e-05,0,39,[],0.007774266763590276,None,None,333.1492322999984,333.1492322999984,0.21370936674065888,3.027980099085787,333.3701371999923,333.1492322999984,,,,,cmzntn,001,fr,0,2022-05-02_14h30.28.722,Continuous,2022.1.1,None,
9,0,9,0,6,0,6,0,,,,,,,,2.814270732345128,time,5158.0,-8.554417994976909,5.4873015543207774e-05,0,40,[],0.0061081667663529515,None,None,336.21220670000184,336.21220670000184,0.20960426679812372,3.023874999143252,336.43148989998735,336.21220670000184,,,,,cmzntn,001,fr,0,2022-05-02_14h30.28.722,Continuous,2022.1.1,None,
9,0,9,0,7,0,7,0,,,,,,,,2.814270732345128,time,5790.0,-6.743470236918919,5.687131969350529e-05,0,41,[],0.006545966840349138,None,['space'],339.27378019993193,339.27378019993193,0.21208686684258282,3.026357599187711,339.48955920001026,339.27378019993193,[-2.5433934000320733],,,,cmzntn,001,fr,0,2022-05-02_14h30.28.722,Continuous,2022.1.1,None,
9,0,9,0,8,0,8,0,,,,,,,,2.814270732345128,time,1533.0,-0.18395771281672513,5.001972180013028e-05,0,42,[],0.0026595668168738484,None,['space'],342.32829979993403,342.32829979993403,0.20126956677995622,3.0155402991250844,342.54672789992765,342.32829979993403,[-2.590300199924968],,,,cmzntn,001,fr,0,2022-05-02_14h30.28.722,Continuous,2022.1.1,None,
9,0,9,0,9,0,9,0,,,,,,,,2.814270732345128,time,1932.0,-0.24211612461580811,6.976922031746581e-05,0,43,[],0.006417466560378671,None,None,345.39302459999453,345.39302459999453,0.21091486664954573,3.025185598994674,345.61289510002825,345.39302459999453,,,,,cmzntn,001,fr,0,2022-05-02_14h30.28.722,Continuous,2022.1.1,None,
9,0,9,0,10,0,10,0,,,,,,,,2.814270732345128,time,3647.0,-8.736314692902932,2.843471806584222e-05,0,44,[],0.0058552667032927275,None,None,348.4488890999928,348.4488890999928,0.20557286671828479,3.019843599063413,348.66254799999297,348.4488890999928,,,,,cmzntn,001,fr,0,2022-05-02_14h30.28.722,Continuous,2022.1.1,None,
9,0,9,0,11,0,11,0,,,,,,,,2.814270732345128,time,1366.0,-1.996260906083512,4.1028288438771166e-05,0,45,[],0.015662633231841028,None,None,351.51210509997327,351.51210509997327,0.24053953331895173,3.05481026566408,351.7460183999501,351.51210509997327,,,,,cmzntn,001,fr,0,2022-05-02_14h30.28.722,Continuous,2022.1.1,None,
9,0,9,0,12,0,12,0,,,,,,,,2.814270732345128,time,4595.0,-9.0,4.430898409859327e-05,0,46,[],0.0065529667772352695,None,None,354.5860660999315,354.5860660999315,0.22239816677756608,3.036668899122694,354.8048023999436,354.5860660999315,,,,,cmzntn,001,fr,0,2022-05-02_14h30.28.722,Continuous,2022.1.1,None,
,,,,,,,,,,,,"[0.5833333333333334, 0.5833333333333334, 0.3333333333333333, 0.3333333333333333, 0.16666666666666666, 0.16666666666666666, 0.3333333333333333, 0.3333333333333333, 0.16666666666666666, 0.3333333333333333, 0.5833333333333334, 0.16666666666666666, 0.16666666666666666, 0.16666666666666666, 0.5833333333333334]",,,,,,,,,,,,,,,,,,,,,357.64233509998303,None,,,,,,,,,,
