tTrials.thisRepN,tTrials.thisTrialN,tTrials.thisN,tTrials.thisIndex,blocks.thisRepN,blocks.thisTrialN,blocks.thisN,blocks.thisIndex,trials.thisRepN,trials.thisTrialN,trials.thisN,trials.thisIndex,tStart_text.started,tStart_text.stopped,Prediction,practice_Frequency,practice_Level,practice_Psychopy_Level,practice_isCatchTrial,Practice_trial_detection,practice_Cue_Delays,practice_Cue_Frequencies,practice_Interval,practice_Cue_Intensities,tCue_visual_cue.started,tCue_visual_cue.stopped,tProbe_visual_cue.started,tProbe_visual_cue.stopped,tFeedback.keys,tFeedback.corr,tFeedback.rt,tFeedback.started,tFeedback.stopped,tToo_late.keys,tToo_late.corr,tToo_early.keys,tToo_early.corr,more_instructions.started,more_instructions.stopped,readyy.keys,readyy.rt,readyy.started,readyy.stopped,txt_rhythm.started,txt_rhythm.stopped,sound_1.started,sound_1.stopped,sound_2.started,sound_2.stopped,sound_3.started,sound_3.stopped,sound_4.started,sound_4.stopped,cross.started,cross.stopped,sound_5.started,sound_5.stopped,circle.started,circle.stopped,rhythm_ready.keys,rhythm_ready.rt,rhythm_ready.started,rhythm_ready.stopped,rhytm_ready_txt.started,rhytm_ready_txt.stopped,txt_freq.started,txt_freq.stopped,sound_6.started,sound_6.stopped,sound_7.started,sound_7.stopped,sound_8.started,sound_8.stopped,sound_9.started,sound_9.stopped,cross_2.started,cross_2.stopped,sound_10.started,sound_10.stopped,circle_2.started,circle_2.stopped,freq_ready.keys,freq_ready.rt,freq_ready.started,freq_ready.stopped,freq_ready_txt.started,freq_ready_txt.stopped,txt_freq_2.started,txt_freq_2.stopped,sound_11.started,sound_11.stopped,sound_12.started,sound_12.stopped,sound_13.started,sound_13.stopped,sound_14.started,sound_14.stopped,cross_3.started,cross_3.stopped,sound_15.started,sound_15.stopped,circle_3.started,circle_3.stopped,freq_ready_2.keys,freq_ready_2.rt,freq_ready_2.started,freq_ready_2.stopped,freq_ready_txt_2.started,freq_ready_txt_2.stopped,txt_freq_3.started,txt_freq_3.stopped,sound_16.started,sound_16.stopped,sound_17.started,sound_17.stopped,sound_18.started,sound_18.stopped,sound_19.started,sound_19.stopped,cross_4.started,cross_4.stopped,sound_20.started,sound_20.stopped,circle_4.started,circle_4.stopped,freq_ready_txt_3.started,freq_ready_txt_3.stopped,tStart_text_2.started,tStart_text_2.stopped,this_trial_is.started,this_trial_is.stopped,Frequency,Level,Psychopy_Level,Real trial detection,Cue Delays,Cue Frequencies,Interval,Cue Intensities,Catch trial,cue_visual_cue.started,cue_visual_cue.stopped,probe_visual_cue.started,probe_visual_cue.stopped,feedback.keys,feedback.corr,feedback.rt,feedback.started,feedback.stopped,answer_too_late.keys,answer_too_late.corr,answer_too_early.keys,answer_too_early.corr,answer_too_early.rt,Catch trial answer,Audiogram_none,Audiogram_frequency,Audiogram_time,Audiogram_both,participant,session,Language (english or french),Skip training? (1 for yes),Resume previous experiment,date,expName,psychopyVersion,frameRate,
0,0,0,0,,,,,,,,,14.543991000042297,None,frequency,1000,30,0.0013930605843148849,False,1,"[0.5458959296892235, 0.4515517664888009, 0.5007998496329347, 0.4676794792493267]","[198.42513149602496, 297.3017787506803, 445.4493590701697, 667.4199270850172]",Perfect_5th,"[30, 30, 30, 30]",36.21577609993983,38.64700460003223,38.64700460003223,39.883330999989994,['space'],1,[0.38992399990092963],38.64700460003223,40.34770889999345,None,1,None,1,,,,,,,,,,,,,,,,,,,,,,,,,,,,,,,,,,,,,,,,,,,,,,,,,,,,,,,,,,,,,,,,,,,,,,,,,,,,,,,,,,,,,,,,,,,,,,,,,,,,,,,,,,,,,,,,,,,,,,,,,,,hoavur,001,fr,0,0,2022-05-04_14h52.44.533,Cluster,2022.1.1,30.70948428688437,
1,0,1,0,,,,,,,,,,,none,2500,30,0.002716251657462167,False,1,"[0.6330853584214556, 0.648608258441609, 0.5142024296867742, 0.506550017311777]","[877.8452298617033, 3838.5883512551577, 213.20506117049126, 6428.976289224276]",None,"[30, 30, 30, 30]",50.73133510001935,53.44356689997949,53.44356689997949,54.66289110004436,['space'],1,[0.4256445999490097],53.44356689997949,55.173200299963355,None,1,None,1,,,,,,,,,,,,,,,,,,,,,,,,,,,,,,,,,,,,,,,,,,,,,,,,,,,,,,,,,,,,,,,,,,,,,,,,,,,,,,,,,,,,,,,,,,,,,,,,,,,,,,,,,,,,,,,,,,,,,,,,,,,hoavur,001,fr,0,0,2022-05-04_14h52.44.533,Cluster,2022.1.1,30.70948428688437,
2,0,2,0,,,,,,,,,,,both,6000,30,0.003664122665694519,True,0,"[0.5712801846498352, 0.5712801846498352, 0.5712801846498352, 0.5712801846498352]","[2381.1015779523, 3000.000000000001, 3779.76314968462, 4762.203155904599]",Major_3rd,"[30, 30, 30, 30]",61.15612679999322,63.806048800004646,63.806048800004646,65.00895960000344,['space'],0,[0.38376130000688136],63.806048800004646,65.60583090002183,None,1,None,1,,,,,,,,,,,,,,,,,,,,,,,,,,,,,,,,,,,,,,,,,,,,,,,,,,,,,,,,,,,,,,,,,,,,,,,,,,,,,,,,,,,,,,,,,,,,,,,,,,,,,,,,,,,,,,,,,,,,,,,,,,,hoavur,001,fr,0,0,2022-05-04_14h52.44.533,Cluster,2022.1.1,30.70948428688437,
3,0,3,0,,,,,,,,,,,both,440,30,0.0023562289915021436,False,1,"[0.4025003065102063, 0.4025003065102063, 0.4025003065102063, 0.4025003065102063]","[174.614115716502, 220.00000000000006, 277.18263097687213, 349.2282314330039]",Major_3rd,"[30, 30, 30, 30]",72.06874749995768,74.21560280001722,74.21560280001722,75.41746040002909,['space'],1,[0.6616106999572366],74.21560280001722,75.85015279997606,None,1,None,1,,,,,,,,,,,,,,,,,,,,,,,,,,,,,,,,,,,,,,,,,,,,,,,,,,,,,,,,,,,,,,,,,,,,,,,,,,,,,,,,,,,,,,,,,,,,,,,,,,,,,,,,,,,,,,,,,,,,,,,,,,,hoavur,001,fr,0,0,2022-05-04_14h52.44.533,Cluster,2022.1.1,30.70948428688437,
4,0,4,0,,,,,,,,,,,time,250,30,0.005296268625886445,True,1,"[0.6973634473501682, 0.6973634473501682, 0.6973634473501682, 0.6973634473501682]","[1182.784069606888, 1467.5069797677093, 3355.664193193024, 520.8147443989341]",None,"[30, 30, 30, 30]",78.90791269997135,81.92702950001694,81.92702950001694,83.1606419000309,None,1,,81.92702950001694,83.85502430004999,None,1,None,1,,,,,,,,,,,,,,,,,,,,,,,,,,,,,,,,,,,,,,,,,,,,,,,,,,,,,,,,,,,,,,,,,,,,,,,,,,,,,,,,,,,,,,,,,,,,,,,,,,,,,,,,,,,,,,,,,,,,,,,,,,,hoavur,001,fr,0,0,2022-05-04_14h52.44.533,Cluster,2022.1.1,30.70948428688437,
,,,,,,,,,,,,,,,,,,,,,,,,,,,,,,,,,,,,,87.33291110000573,None,space,28.712711500003934,87.33291110000573,None,,,,,,,,,,,,,,,,,,,,,,,,,,,,,,,,,,,,,,,,,,,,,,,,,,,,,,,,,,,,,,,,,,,,,,,,,,,,,,,,,,,,,,,,,,,,,,,,,,,,,,,,,,,,,,,,,,,,,hoavur,001,fr,0,0,2022-05-04_14h52.44.533,Cluster,2022.1.1,30.70948428688437,
,,,,,,,,,,,,,,,,,,,,,,,,,,,,,,,,,,,,,,,,,,,116.1064329999499,117.12525989999995,117.56193640001584,None,118.07820700004231,118.29436910001095,118.55879559996538,118.7730185999535,119.07160829997156,None,117.47589749994222,119.26128089998383,119.57230969995726,119.78375509998295,119.26128089998383,120.07544939999934,space,1.3609577000606805,120.25196819996927,None,,,,,,,,,,,,,,,,,,,,,,,,,,,,,,,,,,,,,,,,,,,,,,,,,,,,,,,,,,,,,,,,,,,,,,,,,,,,,,,,,,,,,,,,,,,,,,,,,hoavur,001,fr,0,0,2022-05-04_14h52.44.533,Cluster,2022.1.1,30.70948428688437,
,,,,,,,,,,,,,,,,,,,,,,,,,,,,,,,,,,,,,,,,,,,,,,,,,,,,,,,,,,,,,,,120.25196819996927,None,121.68150029995013,122.70112280000467,123.14123459998518,None,123.43569319997914,123.65074780001305,124.13629930000752,124.34991039999295,124.54117650003172,None,123.0496034999378,124.83983800001442,125.14038590004202,None,124.83983800001442,125.63867010001559,space,1.8274537000106648,125.83440629998222,None,,,,,,,,,,,,,,,,,,,,,,,,,,,,,,,,,,,,,,,,,,,,,,,,,,,,,,,,,,,,,,,,,,,,,,,,,,,hoavur,001,fr,0,0,2022-05-04_14h52.44.533,Cluster,2022.1.1,30.70948428688437,
,,,,,,,,,,,,,,,,,,,,,,,,,,,,,,,,,,,,,,,,,,,,,,,,,,,,,,,,,,,,,,,,,,,,,,,,,,,,,,,,,,,,,125.83440629998222,None,127.71572510001715,128.73966530000325,129.18064639996737,None,129.67067240003962,129.88885989994742,130.18387750000693,130.40062540001236,130.6724097999977,None,129.0628657999914,130.8687162999995,131.16855930001475,131.39032829995267,130.8687162999995,131.68874510005116,space,1.3001878000795841,131.86522100004368,None,,,,,,,,,,,,,,,,,,,,,,,,,,,,,,,,,,,,,,,,,,,,,,,,,,,,,hoavur,001,fr,0,0,2022-05-04_14h52.44.533,Cluster,2022.1.1,30.70948428688437,
,,,,0,0,0,0,0,0,0,0,,,none,,,,,,,,,,,,,,,,,,,,,,,,,,,,,,,,,,,,,,,,,,,,,,,,,,,,,,,,,,,,,,,,,,,,,,,,,,,,,,,,,,,,,,,,,,,,,131.86522100004368,None,133.21553829999175,134.24550900002941,134.6639867000049,134.8822261999594,134.96853800001554,135.1930317999795,135.66806880000513,135.8935784000205,136.07504919997882,136.28859350003768,134.57779190002475,136.3840294999536,136.6786177000031,None,136.3840294999536,137.21560899994802,137.3655952999834,None,138.38409910001792,None,154.41502690000925,None,1217.6101858380089,1.224440241281819,6.120144214705816e-05,1,"[0.486574540475067, 0.5301465280018772, 0.5388212137405866, 0.5881434616853207]","[471.1422395886718, 318.9536868532036, 816.5315487345873, 1138.5714766749309]",None,"[6.44997255490173, 4.674472989159394, 5.505543549071022, 6.596688252632579]",False,155.41510890005156,158.00343599996995,158.00343599996995,159.21157359995414,['space'],1,[0.2105327999452129],3.1634241001447663,4.187721200170927,None,1,None,1,,,,,,,hoavur,001,fr,0,0,2022-05-04_14h52.44.533,Cluster,2022.1.1,30.70948428688437,
,,,,0,0,0,0,1,0,1,0,,,none,,,,,,,,,,,,,,,,,,,,,,,,,,,,,,,,,,,,,,,,,,,,,,,,,,,,,,,,,,,,,,,,,,,,,,,,,,,,,,,,,,,,,,,,,,,,,,,,,,,,,,,,,,,,,,,,,,,159.65727630001493,None,353.5533905932738,2.0,0.0001115563142959358,1,"[0.409266316057293, 0.7803739789439063, 0.782205268922357, 0.5303663602243021]","[5403.706692032764, 270.70491758269947, 855.4438200069877, 133.48724607007298]",None,"[8.0, 3.455552171016498, 5.486761195015499, 9.84743044909529]",False,161.2907947000349,164.2841681999853,164.2841681999853,165.51519609999377,['space'],1,[0.16053699993062764],3.5349218003684655,4.555789000354707,None,1,None,1,,,,,,,hoavur,001,fr,0,0,2022-05-04_14h52.44.533,Cluster,2022.1.1,30.70948428688437,
,,,,0,0,0,0,2,0,2,0,,,frequency,,,,,,,,,,,,,,,,,,,,,,,,,,,,,,,,,,,,,,,,,,,,,,,,,,,,,,,,,,,,,,,,,,,,,,,,,,,,,,,,,,,,,,,,,,,,,,,,,,,,,,,,,,,,,,,,,,,165.86885309999343,None,632.0833029241236,-0.10632477737841706,5.036168842875674e-05,1,"[0.7131915239813411, 0.7890197095513917, 0.5604635560311442, 0.529550710416089]","[1592.7501172823622, 1264.1666058482474, 1003.369699993288, 796.375058641181]",Major_3rd,"[9.721088948797641, 7.224440241281819, 5.744353958799096, 5.505543549071022]",False,166.86369819997344,169.9522720000241,169.9522720000241,171.17917430005036,['space'],1,[0.023941699997521937],3.6157040001126006,4.6336756001692265,None,1,None,1,,,,,,,hoavur,001,fr,0,0,2022-05-04_14h52.44.533,Cluster,2022.1.1,30.70948428688437,
,,,,0,0,0,0,3,0,3,0,,,both,,,,,,,,,,,,,,,,,,,,,,,,,,,,,,,,,,,,,,,,,,,,,,,,,,,,,,,,,,,,,,,,,,,,,,,,,,,,,,,,,,,,,,,,,,,,,,,,,,,,,,,,,,,,,,,,,,,171.53692480002064,None,495.2091575294402,0.37248188399350135,7.483066621582887e-05,0,"[0.7294653345849145, 0.7294653345849145, 0.7294653345849145, 0.7294653345849145]","[196.52388440162986, 247.60457876472015, 311.962220836024, 393.0477688032596]",Major_3rd,"[6.0, 3.5204496957262235, 4.109296637790383, 6.0]",False,172.54664900002535,175.7507237000391,175.7507237000391,176.95683729997836,None,0,,3.937377600115724,4.9409926001681015,None,1,['space'],0,[0.4864545998862013],,,,,,hoavur,001,fr,0,0,2022-05-04_14h52.44.533,Cluster,2022.1.1,30.70948428688437,
,,,,0,0,0,0,4,0,4,0,,,none,,,,,,,,,,,,,,,,,,,,,,,,,,,,,,,,,,,,,,,,,,,,,,,,,,,,,,,,,,,,,,,,,,,,,,,,,,,,,,,,,,,,,,,,,,,,,,,,,,,,,,,,,,,,,,,,,,,177.52987630001735,None,,,,,"[0.6258679197085257, 0.7450079072103913, 0.578549696971228, 0.606142964492365]","[6075.145952420025, 152.51047471104403, 739.9701502222055, 3973.195254414232]",None,"[6.139549794679203, 9.0, 5.5706369273676914, 15.433228278353976]",True,178.54112279997207,181.53191679995507,181.53191679995507,182.73595080000814,None,1,,3.582432300201617,4.609324500197545,None,1,None,1,,0,,,,,hoavur,001,fr,0,0,2022-05-04_14h52.44.533,Cluster,2022.1.1,30.70948428688437,
,,,,0,0,0,0,5,0,5,0,,,time,,,,,,,,,,,,,,,,,,,,,,,,,,,,,,,,,,,,,,,,,,,,,,,,,,,,,,,,,,,,,,,,,,,,,,,,,,,,,,,,,,,,,,,,,,,,,,,,,,,,,,,,,,,,,,,,,,,183.18977139994968,None,4844.962714234615,4.0,0.00022517937850758768,1,"[0.5794793215086327, 0.5794793215086327, 0.5794793215086327, 0.5794793215086327]","[2412.558710432837, 717.2498790711103, 2987.5894766143306, 1779.6198102106505]",None,"[13.644897925100949, 5.6586428705152665, 16.76202069126697, 10.181407649142432]",False,184.18450350000057,186.96546840004157,186.96546840004157,188.19906450004783,['space'],1,[0.2465016000205651],3.351854700129479,4.363095300155692,None,1,None,1,,,,,,,hoavur,001,fr,0,0,2022-05-04_14h52.44.533,Cluster,2022.1.1,30.70948428688437,
,,,,0,0,0,0,6,0,6,0,,,both,,,,,,,,,,,,,,,,,,,,,,,,,,,,,,,,,,,,,,,,,,,,,,,,,,,,,,,,,,,,,,,,,,,,,,,,,,,,,,,,,,,,,,,,,,,,,,,,,,,,,,,,,,,,,,,,,,,188.59094190003816,None,189.4645708137998,3.0,0.00042914588322824827,1,"[0.43219326699919375, 0.43219326699919375, 0.43219326699919375, 0.43219326699919375]","[477.4208019552084, 378.9291416275996, 300.7562590205292, 238.7104009776042]",Major_3rd,"[6.44997255490173, 5.798875134321018, 4.0, 3.8816575338523966]",False,189.61258870002348,191.9340318000177,191.9340318000177,193.1406937999418,['space'],1,[0.2818657999159768],2.7689478002721444,3.7857879002112895,None,1,None,1,,,,,,,hoavur,001,fr,0,0,2022-05-04_14h52.44.533,Cluster,2022.1.1,30.70948428688437,
,,,,0,0,0,0,7,0,7,0,,,time,,,,,,,,,,,,,,,,,,,,,,,,,,,,,,,,,,,,,,,,,,,,,,,,,,,,,,,,,,,,,,,,,,,,,,,,,,,,,,,,,,,,,,,,,,,,,,,,,,,,,,,,,,,,,,,,,,,193.4210741999559,None,189.4645708137998,2.0,0.0003824766710234111,1,"[0.48168467608944293, 0.48168467608944293, 0.48168467608944293, 0.48168467608944293]","[2385.9391502752615, 1531.0182977545405, 1051.0499022304161, 2353.516857794121]",None,"[13.0, 9.201067646924706, 6.0, 13.0]",False,194.44791029999033,196.92688789998647,196.92688789998647,198.14327380002942,['space'],1,[0.346374100074172],2.972031400189735,3.9772297001909465,None,1,None,1,,,,,,,hoavur,001,fr,0,0,2022-05-04_14h52.44.533,Cluster,2022.1.1,30.70948428688437,
,,,,0,0,0,0,8,0,8,0,,,time,,,,,,,,,,,,,,,,,,,,,,,,,,,,,,,,,,,,,,,,,,,,,,,,,,,,,,,,,,,,,,,,,,,,,,,,,,,,,,,,,,,,,,,,,,,,,,,,,,,,,,,,,,,,,,,,,,,198.4568905000342,None,3609.581686236935,11.0,0.00027351413713250786,1,"[0.46217640726068376, 0.46217640726068376, 0.46217640726068376, 0.46217640726068376]","[6255.615769966842, 965.6039449167574, 267.32299195190706, 355.6022574690641]",None,"[6.0, 5.552552403700736, 3.455552171016498, 5.276290861042572]",False,199.47066799993627,201.88413629995193,201.88413629995193,203.11277190002147,['space'],1,[0.19165360007900745],2.8719432001234964,3.9030866001266986,None,1,None,1,,,,,,,hoavur,001,fr,0,0,2022-05-04_14h52.44.533,Cluster,2022.1.1,30.70948428688437,
,,,,0,0,0,0,9,0,9,0,,,time,,,,,,,,,,,,,,,,,,,,,,,,,,,,,,,,,,,,,,,,,,,,,,,,,,,,,,,,,,,,,,,,,,,,,,,,,,,,,,,,,,,,,,,,,,,,,,,,,,,,,,,,,,,,,,,,,,,203.4195197999943,None,329.87697769322364,3.0,0.00013385056005377387,1,"[0.5732296980435322, 0.5732296980435322, 0.5732296980435322, 0.5732296980435322]","[758.285560036788, 263.2862751565268, 205.487224000885, 2752.8961022845338]",None,"[5.5706369273676914, 3.455552171016498, 5.349834201550752, 15.870546298537242]",False,205.39114590000827,208.1558965999866,208.1558965999866,209.35872080002446,['space'],1,[0.3167840999085456],3.32594040047843,4.336080400389619,None,1,None,1,,,,,,,hoavur,001,fr,0,0,2022-05-04_14h52.44.533,Cluster,2022.1.1,30.70948428688437,
,,,,0,0,0,0,10,0,10,0,,,time,,,,,,,,,,,,,,,,,,,,,,,,,,,,,,,,,,,,,,,,,,,,,,,,,,,,,,,,,,,,,,,,,,,,,,,,,,,,,,,,,,,,,,,,,,,,,,,,,,,,,,,,,,,,,,,,,,,209.76975730003323,None,,,,,"[0.4307915075239035, 0.4307915075239035, 0.4307915075239035, 0.4307915075239035]","[6199.94806680733, 1221.469031738853, 1166.8688866496707, 5343.5260090306265]",None,"[6.139549794679203, 7.224440241281819, 6.596688252632579, 8.0]",True,210.7734704000177,213.0886258999817,213.0886258999817,214.29167860001326,None,1,,2.745517900097184,3.750215500127524,None,1,None,1,,0,,,,,hoavur,001,fr,0,0,2022-05-04_14h52.44.533,Cluster,2022.1.1,30.70948428688437,
,,,,0,0,0,0,11,0,11,0,,,none,,,,,,,,,,,,,,,,,,,,,,,,,,,,,,,,,,,,,,,,,,,,,,,,,,,,,,,,,,,,,,,,,,,,,,,,,,,,,,,,,,,,,,,,,,,,,,,,,,,,,,,,,,,,,,,,,,,214.57093669997994,None,7216.256279246285,0.8727701063132407,0.00017445991434821936,1,"[0.7999227250471406, 0.49277077426387744, 0.6857763667709189, 0.49737293977309016]","[546.7669088141852, 4478.887839899974, 7098.814968105355, 7381.897369254984]",None,"[6.223602336188723, 13.0, 6.235271880643747, 6.872770106313241]",False,215.57987609994598,218.5996602999512,218.5996602999512,219.83312029996887,['space'],1,[0.2602481000358239],3.511012300150469,4.524215700104833,None,1,None,1,,,,,,,hoavur,001,fr,0,0,2022-05-04_14h52.44.533,Cluster,2022.1.1,30.70948428688437,
,,,,0,0,0,0,12,0,12,0,,,time,,,,,,,,,,,,,,,,,,,,,,,,,,,,,,,,,,,,,,,,,,,,,,,,,,,,,,,,,,,,,,,,,,,,,,,,,,,,,,,,,,,,,,,,,,,,,,,,,,,,,,,,,,,,,,,,,,,220.15475270000752,None,927.9029294950187,-0.4474475962992637,3.9894328056506576e-05,1,"[0.7039462465363251, 0.7039462465363251, 0.7039462465363251, 0.7039462465363251]","[185.28500663532859, 1924.7519947921353, 626.7773267347206, 3000.293550296257]",None,"[6.298427577435086, 11.0, 5.893675222621583, 16.76202069126697]",False,221.14960290002637,224.293748499942,224.293748499942,225.5076945000328,['space'],1,[0.5096200000261888],3.8520282001700252,4.879723800113425,None,1,None,1,,,,,,,hoavur,001,fr,0,0,2022-05-04_14h52.44.533,Cluster,2022.1.1,30.70948428688437,
,,,,0,0,0,0,13,0,13,0,,,both,,,,,,,,,,,,,,,,,,,,,,,,,,,,,,,,,,,,,,,,,,,,,,,,,,,,,,,,,,,,,,,,,,,,,,,,,,,,,,,,,,,,,,,,,,,,,,,,,,,,,,,,,,,,,,,,,,,226.0846166999545,None,1760.7885311336868,4.181407649142433,0.00010359112915829482,1,"[0.6159614877007972, 0.6159614877007972, 0.6159614877007972, 0.6159614877007972]","[2795.077566615155, 2490.1310212002604, 2218.454534788806, 1976.4183012959702]",Tone,"[15.870546298537242, 14.0, 12.0, 11.0]",False,227.09080540004652,229.975931199966,229.975931199966,231.17727550002746,['space'],1,[0.21829779993277043],3.4826312001096085,4.511398500180803,None,1,None,1,,,,,,,hoavur,001,fr,0,0,2022-05-04_14h52.44.533,Cluster,2022.1.1,30.70948428688437,
,,,,0,0,0,0,14,0,14,0,,,time,,,,,,,,,,,,,,,,,,,,,,,,,,,,,,,,,,,,,,,,,,,,,,,,,,,,,,,,,,,,,,,,,,,,,,,,,,,,,,,,,,,,,,,,,,,,,,,,,,,,,,,,,,,,,,,,,,,231.65357079997193,None,,,,,"[0.707743127190306, 0.707743127190306, 0.707743127190306, 0.707743127190306]","[7784.671822937123, 1582.6795177067072, 194.8535521281723, 3397.897441657714]",None,"[7.692627719322694, 9.721088948797641, 6.0, 17.255005123640814]",True,232.66508479998447,235.81619599997066,235.81619599997066,237.03685589996167,None,1,,3.845293900114484,4.85100210015662,None,1,None,1,,0,,,,,hoavur,001,fr,0,0,2022-05-04_14h52.44.533,Cluster,2022.1.1,30.70948428688437,
,,,,0,0,0,0,15,0,15,0,,,both,,,,,,,,,,,,,,,,,,,,,,,,,,,,,,,,,,,,,,,,,,,,,,,,,,,,,,,,,,,,,,,,,,,,,,,,,,,,,,,,,,,,,,,,,,,,,,,,,,,,,,,,,,,,,,,,,,,237.56270889996085,None,329.87697769322364,3.0,0.00013385056005377387,1,"[0.7504510038109033, 0.7504510038109033, 0.7504510038109033, 0.7504510038109033]","[130.9117653525784, 164.93848884661188, 207.80947403569704, 261.82353070515677]",Major_3rd,"[9.84743044909529, 8.157001307055994, 5.0, 3.455552171016498]",False,238.65246360003948,241.94614829996135,241.94614829996135,243.15919090004172,['space'],1,[0.1412498999852687],4.035239100106992,5.065112700103782,None,1,None,1,,,,,,,hoavur,001,fr,0,0,2022-05-04_14h52.44.533,Cluster,2022.1.1,30.70948428688437,
,,,,0,0,0,0,16,0,16,0,,,frequency,,,,,,,,,,,,,,,,,,,,,,,,,,,,,,,,,,,,,,,,,,,,,,,,,,,,,,,,,,,,,,,,,,,,,,,,,,,,,,,,,,,,,,,,,,,,,,,,,,,,,,,,,,,,,,,,,,,243.75098230002914,None,353.5533905932738,1.0,9.942466977099573e-05,1,"[0.7048581234252471, 0.4800510221247871, 0.7969520812003221, 0.7452518839000705]","[140.30775603867167, 176.77669529663694, 222.72467953508487, 280.6155120773433]",Major_3rd,"[9.477597685312794, 7.2639064192810725, 4.513812465724815, 3.6675546830051218]",False,244.75995019997936,247.75877189997118,247.75877189997118,248.9661697000265,['space'],1,[0.38001999992411584],3.7792135000927374,4.811936200130731,None,1,None,1,,,,,,,hoavur,001,fr,0,0,2022-05-04_14h52.44.533,Cluster,2022.1.1,30.70948428688437,
,,,,0,0,0,0,17,0,17,0,,,frequency,,,,,,,,,,,,,,,,,,,,,,,,,,,,,,,,,,,,,,,,,,,,,,,,,,,,,,,,,,,,,,,,,,,,,,,,,,,,,,,,,,,,,,,,,,,,,,,,,,,,,,,,,,,,,,,,,,,249.6045856999699,None,5706.593031024187,0.891561803284695,0.00014038435843091374,1,"[0.6468928588253238, 0.7013118090918234, 0.501794643962212, 0.6672687455267279]","[1132.331472575274, 1696.580258729727, 2541.998208144021, 3808.6939046700304]",Perfect_5th,"[6.596688252632579, 10.0, 14.0, 16.0]",False,250.62083539995365,253.5001797999721,253.5001797999721,254.70340640004724,['space'],1,[0.2774395999731496],3.5403120002010837,4.542758700088598,None,1,None,1,,,,,,,hoavur,001,fr,0,0,2022-05-04_14h52.44.533,Cluster,2022.1.1,30.70948428688437,
,,,,0,0,0,0,18,0,18,0,,,frequency,,,,,,,,,,,,,,,,,,,,,,,,,,,,,,,,,,,,,,,,,,,,,,,,,,,,,,,,,,,,,,,,,,,,,,,,,,,,,,,,,,,,,,,,,,,,,,,,,,,,,,,,,,,,,,,,,,,255.21601640002336,None,189.4645708137998,2.0,0.0003824766710234111,1,"[0.48702790422573994, 0.6910288562870384, 0.6206795908635552, 0.5654233714596366]","[300.7562590205293, 267.9433656340734, 238.71040097760422, 212.666790237714]",Tone,"[4.0, 3.455552171016498, 3.8816575338523966, 5.0]",False,256.9003620999865,259.74604390002787,259.74604390002787,260.9728460999904,['space'],1,[0.43560820003040135],3.376639900379814,4.40271590044722,None,1,None,1,,,,,,,hoavur,001,fr,0,0,2022-05-04_14h52.44.533,Cluster,2022.1.1,30.70948428688437,
,,,,0,0,0,0,19,0,19,0,,,none,,,,,,,,,,,,,,,,,,,,,,,,,,,,,,,,,,,,,,,,,,,,,,,,,,,,,,,,,,,,,,,,,,,,,,,,,,,,,,,,,,,,,,,,,,,,,,,,,,,,,,,,,,,,,,,,,,,261.35047439998016,None,189.4645708137998,2.0,0.0003824766710234111,1,"[0.48509099413797113, 0.40078496980202555, 0.45391736076179295, 0.6303874855459483]","[7535.892885669879, 7890.438438795353, 2575.458900141199, 1983.7803307311326]",None,"[7.0, 7.692627719322694, 14.0, 11.130926003204255]",False,262.3823203999782,264.7475548000075,264.7475548000075,265.97668009996414,['space'],1,[0.2538884000387043],2.997703300206922,4.031574600143358,None,1,None,1,,,,,,,hoavur,001,fr,0,0,2022-05-04_14h52.44.533,Cluster,2022.1.1,30.70948428688437,
,,,,1,0,1,0,0,0,0,0,,,frequency,,,,,,,,,,,,,,,,,,,,,,,,,,,,,,,,,,,,,,,,,,,,,,,,,,,,,,,,,,,,,,,,,,,,,,,,,,,,,,,,,,,,,,,,,,,,,,,,,,,,,,,,,,,,,,,,,,,290.8922938000178,None,,,,,"[0.7845900816724183, 0.5048393008631284, 0.45220829664827417, 0.48672467499831357]","[242.4442496114277, 215.99327119931738, 192.4281284384105, 171.4339729599245]",Tone,"[3.5204496957262235, 4.513812465724815, 6.0, 8.0]",True,291.865050500026,294.6505492000142,294.6505492000142,295.873717200011,None,1,,3.255728900199756,4.276561300153844,None,1,None,1,,0,,,,,hoavur,001,fr,0,0,2022-05-04_14h52.44.533,Cluster,2022.1.1,30.70948428688437,
,,,,1,0,1,0,1,0,1,0,,,time,,,,,,,,,,,,,,,,,,,,,,,,,,,,,,,,,,,,,,,,,,,,,,,,,,,,,,,,,,,,,,,,,,,,,,,,,,,,,,,,,,,,,,,,,,,,,,,,,,,,,,,,,,,,,,,,,,,296.1893796999939,None,8000.0,-1.0,0.00016179682846481421,0,"[0.6640418058577571, 0.6640418058577571, 0.6640418058577571, 0.6640418058577571]","[329.3620508215092, 194.70878218009318, 829.0572072135662, 204.3283036827379]",None,"[4.674472989159394, 6.0, 5.505543549071022, 5.349834201550752]",False,297.2137953999918,300.23134159995243,300.23134159995243,301.436756500043,None,0,,3.6921805002493784,4.70385740022175,None,1,None,1,,,,,,,hoavur,001,fr,0,0,2022-05-04_14h52.44.533,Cluster,2022.1.1,30.70948428688437,
,,,,1,0,1,0,2,0,2,0,,,none,,,,,,,,,,,,,,,,,,,,,,,,,,,,,,,,,,,,,,,,,,,,,,,,,,,,,,,,,,,,,,,,,,,,,,,,,,,,,,,,,,,,,,,,,,,,,,,,,,,,,,,,,,,,,,,,,,,301.9407031999435,None,1836.8025716350933,4.61849427374204,0.0001147786278332603,1,"[0.46241409986064586, 0.4666769838799927, 0.5442861782212767, 0.4996821244079533]","[909.1487892759883, 262.0624614854707, 1621.829527377411, 4957.212853163031]",None,"[5.552552403700736, 3.455552171016498, 9.721088948797641, 9.904700882725713]",False,302.93864730000496,305.4509895000374,305.4509895000374,306.6664730999619,['space'],1,[0.27137969993054867],2.9893027001526207,3.991239200113341,None,1,None,1,,,,,,,hoavur,001,fr,0,0,2022-05-04_14h52.44.533,Cluster,2022.1.1,30.70948428688437,
,,,,1,0,1,0,3,0,3,0,,,frequency,,,,,,,,,,,,,,,,,,,,,,,,,,,,,,,,,,,,,,,,,,,,,,,,,,,,,,,,,,,,,,,,,,,,,,,,,,,,,,,,,,,,,,,,,,,,,,,,,,,,,,,,,,,,,,,,,,,306.9768191999756,None,163.82672360216475,2.157001307055994,0.000509146003545566,1,"[0.6887049095810966, 0.5925172992873122, 0.5742610750050112, 0.6968356766732267]","[412.8174752033533, 327.65344720432955, 260.0587133865798, 206.40873760167662]",Major_3rd,"[6.190460112012685, 4.674472989159394, 3.455552171016498, 5.0]",False,307.99206419999246,310.8659387000371,310.8659387000371,312.07360600004904,['space'],1,[0.22110359999351203],3.5863863000413403,4.599135100026615,None,1,None,1,,,,,,,hoavur,001,fr,0,0,2022-05-04_14h52.44.533,Cluster,2022.1.1,30.70948428688437,
,,,,1,0,1,0,4,0,4,0,,,time,,,,,,,,,,,,,,,,,,,,,,,,,,,,,,,,,,,,,,,,,,,,,,,,,,,,,,,,,,,,,,,,,,,,,,,,,,,,,,,,,,,,,,,,,,,,,,,,,,,,,,,,,,,,,,,,,,,312.64275600004476,None,,,,,"[0.7069157314270312, 0.7069157314270312, 0.7069157314270312, 0.7069157314270312]","[1283.786916970459, 2463.440488255713, 366.54444498457167, 238.75542000458228]",None,"[7.903959307362302, 13.644897925100949, 5.798875134321018, 3.8816575338523966]",True,313.6386685000034,316.79671989998315,316.79671989998315,318.0252955999458,None,1,,3.856431200169027,4.863425400108099,None,1,None,1,,0,,,,,hoavur,001,fr,0,0,2022-05-04_14h52.44.533,Cluster,2022.1.1,30.70948428688437,
,,,,1,0,1,0,5,0,5,0,,,both,,,,,,,,,,,,,,,,,,,,,,,,,,,,,,,,,,,,,,,,,,,,,,,,,,,,,,,,,,,,,,,,,,,,,,,,,,,,,,,,,,,,,,,,,,,,,,,,,,,,,,,,,,,,,,,,,,,318.549659900018,None,1759.1321528533574,4.181407649142433,0.0001034700923311945,1,"[0.44986254286022564, 0.44986254286022564, 0.44986254286022564, 0.44986254286022564]","[4432.735257853661, 3518.264305706715, 2792.448229990503, 2216.3676289268305]",Major_3rd,"[13.0, 17.255005123640814, 15.870546298537242, 12.0]",False,319.55746709997766,321.9278291000519,321.9278291000519,323.12943159998395,['space'],1,[0.2489077999489382],2.8240542002022266,3.8367916002171114,None,1,None,1,,,,,,,hoavur,001,fr,0,0,2022-05-04_14h52.44.533,Cluster,2022.1.1,30.70948428688437,
,,,,1,0,1,0,6,0,6,0,,,both,,,,,,,,,,,,,,,,,,,,,,,,,,,,,,,,,,,,,,,,,,,,,,,,,,,,,,,,,,,,,,,,,,,,,,,,,,,,,,,,,,,,,,,,,,,,,,,,,,,,,,,,,,,,,,,,,,,323.4419535000343,None,8000.0,1.0,0.0002036901389020564,1,"[0.7180718416504128, 0.7180718416504128, 0.7180718416504128, 0.7180718416504128]","[3174.8021039364003, 4000.0000000000014, 5039.684199579494, 6349.604207872799]",Major_3rd,"[17.0, 15.433228278353976, 9.0, 6.0]",False,325.43038749997504,328.63247209996916,328.63247209996916,329.83755339996424,['space'],1,[0.2939815999707207],3.887411000439897,4.890247700386681,None,1,None,1,,,,,,,hoavur,001,fr,0,0,2022-05-04_14h52.44.533,Cluster,2022.1.1,30.70948428688437,
,,,,1,0,1,0,7,0,7,0,,,none,,,,,,,,,,,,,,,,,,,,,,,,,,,,,,,,,,,,,,,,,,,,,,,,,,,,,,,,,,,,,,,,,,,,,,,,,,,,,,,,,,,,,,,,,,,,,,,,,,,,,,,,,,,,,,,,,,,330.36912209994625,None,574.3491774985172,-1.0,5.333798065099765e-05,1,"[0.5038274278066676, 0.5516931524054963, 0.718911051009419, 0.7303755449069917]","[2611.5534083575562, 1754.6812029703308, 211.51415674346603, 1216.9879622619953]",None,"[14.772803857532233, 10.181407649142432, 5.0, 7.224440241281819]",False,331.382043599966,334.179067100049,334.179067100049,335.40895149996504,['space'],1,[0.20905730000231415],3.5318301001098007,4.555503100156784,None,1,None,1,,,,,,,hoavur,001,fr,0,0,2022-05-04_14h52.44.533,Cluster,2022.1.1,30.70948428688437,
,,,,1,0,1,0,8,0,8,0,,,none,,,,,,,,,,,,,,,,,,,,,,,,,,,,,,,,,,,,,,,,,,,,,,,,,,,,,,,,,,,,,,,,,,,,,,,,,,,,,,,,,,,,,,,,,,,,,,,,,,,,,,,,,,,,,,,,,,,335.9633579000365,None,578.2283289013296,0.05197357321560758,5.959659161816823e-05,1,"[0.6167529524822396, 0.41443629018829237, 0.6619092891961167, 0.4519546277275379]","[1092.2191154209884, 2545.8146379546542, 7963.097412128038, 422.2996941081922]",None,"[6.097222008835672, 14.0, 7.692627719322694, 6.402990539645807]",False,336.97563170001376,339.70424879994243,339.70424879994243,340.9164490000112,['space'],1,[0.263276599929668],3.1685021001612768,4.185654200147837,None,1,None,1,,,,,,,hoavur,001,fr,0,0,2022-05-04_14h52.44.533,Cluster,2022.1.1,30.70948428688437,
,,,,1,0,1,0,9,0,9,0,,,both,,,,,,,,,,,,,,,,,,,,,,,,,,,,,,,,,,,,,,,,,,,,,,,,,,,,,,,,,,,,,,,,,,,,,,,,,,,,,,,,,,,,,,,,,,,,,,,,,,,,,,,,,,,,,,,,,,,341.2252905999776,None,,,,,"[0.44302662360242095, 0.44302662360242095, 0.44302662360242095, 0.44302662360242095]","[2103.8973254339735, 1669.8644138134855, 1325.3722635658937, 1051.9486627169867]",Major_3rd,"[11.778488868989728, 10.0, 7.903959307362302, 6.0]",True,342.2143529000459,344.575594099937,344.575594099937,345.7869987000013,['space'],0,[0.36594470008276403],2.8016577002126724,3.8264270002255216,None,1,None,1,,0,,,,,hoavur,001,fr,0,0,2022-05-04_14h52.44.533,Cluster,2022.1.1,30.70948428688437,
,,,,1,0,1,0,10,0,10,0,,,time,,,,,,,,,,,,,,,,,,,,,,,,,,,,,,,,,,,,,,,,,,,,,,,,,,,,,,,,,,,,,,,,,,,,,,,,,,,,,,,,,,,,,,,,,,,,,,,,,,,,,,,,,,,,,,,,,,,346.0838147000177,None,6842.92962427508,0.23527188064374738,0.0001504869494009107,1,"[0.46171414395418986, 0.46171414395418986, 0.46171414395418986, 0.46171414395418986]","[714.8644109767027, 6566.27444040832, 205.32369272683363, 566.2813941563192]",None,"[5.6586428705152665, 6.0, 5.349834201550752, 6.051973573215608]",False,347.0791659000097,349.4932673999574,349.4932673999574,350.71120340004563,['space'],1,[0.3586741000181064],2.876098800217733,3.9076772002736107,None,1,None,1,,,,,,,hoavur,001,fr,0,0,2022-05-04_14h52.44.533,Cluster,2022.1.1,30.70948428688437,
,,,,1,0,1,0,11,0,11,0,,,frequency,,,,,,,,,,,,,,,,,,,,,,,,,,,,,,,,,,,,,,,,,,,,,,,,,,,,,,,,,,,,,,,,,,,,,,,,,,,,,,,,,,,,,,,,,,,,,,,,,,,,,,,,,,,,,,,,,,,351.0365973999724,None,8000.0,-2.0,0.00014420157515633036,1,"[0.48878545580949617, 0.5196821486468537, 0.7058059133805324, 0.5097239630515401]","[5039.684199579492, 5656.8542494923795, 6349.604207872798, 7127.189745122714]",Tone,"[9.0, 6.891561803284695, 6.0, 6.235271880643747]",False,352.048435100005,354.79570699995384,354.79570699995384,356.0334419000428,['space'],1,[0.6231640999903902],3.2645498001948,4.28231820021756,None,1,None,1,,,,,,,hoavur,001,fr,0,0,2022-05-04_14h52.44.533,Cluster,2022.1.1,30.70948428688437,
,,,,1,0,1,0,12,0,12,0,,,time,,,,,,,,,,,,,,,,,,,,,,,,,,,,,,,,,,,,,,,,,,,,,,,,,,,,,,,,,,,,,,,,,,,,,,,,,,,,,,,,,,,,,,,,,,,,,,,,,,,,,,,,,,,,,,,,,,,356.3675044999691,None,1866.0659830736151,2.0,8.656905679825736e-05,1,"[0.690209689995759, 0.690209689995759, 0.690209689995759, 0.690209689995759]","[189.27392634489564, 5636.356470070102, 377.4768639586165, 975.8090262768432]",None,"[6.298427577435086, 7.0, 5.798875134321018, 5.744353958799096]",False,357.4638138000155,360.56518879998475,360.56518879998475,361.77402779995464,['space'],1,[0.3749453000491485],3.808083900134079,4.812527400208637,None,1,None,1,,,,,,,hoavur,001,fr,0,0,2022-05-04_14h52.44.533,Cluster,2022.1.1,30.70948428688437,
,,,,1,0,1,0,13,0,13,0,,,time,,,,,,,,,,,,,,,,,,,,,,,,,,,,,,,,,,,,,,,,,,,,,,,,,,,,,,,,,,,,,,,,,,,,,,,,,,,,,,,,,,,,,,,,,,,,,,,,,,,,,,,,,,,,,,,,,,,362.3131321000401,None,,,,,"[0.48449642706984836, 0.48449642706984836, 0.48449642706984836, 0.48449642706984836]","[4000.17802288566, 245.71972738305683, 314.1497809398173, 316.86597779475875]",None,"[15.433228278353976, 3.5204496957262235, 4.109296637790383, 4.109296637790383]",True,363.3231824999675,365.80626610002946,365.80626610002946,367.0087628000183,None,1,,2.958611600100994,3.979603400104679,None,1,None,1,,0,,,,,hoavur,001,fr,0,0,2022-05-04_14h52.44.533,Cluster,2022.1.1,30.70948428688437,
,,,,1,0,1,0,14,0,14,0,,,none,,,,,,,,,,,,,,,,,,,,,,,,,,,,,,,,,,,,,,,,,,,,,,,,,,,,,,,,,,,,,,,,,,,,,,,,,,,,,,,,,,,,,,,,,,,,,,,,,,,,,,,,,,,,,,,,,,,367.34851919999346,None,307.7861033362292,-3.0,7.522887020865065e-05,1,"[0.7911339808443678, 0.5281523668515928, 0.4960370268080587, 0.6571814768323581]","[5606.533997699938, 2738.9159997060074, 1508.806944953856, 727.6274569387882]",None,"[7.0, 15.0, 9.201067646924706, 5.6586428705152665]",False,368.36713100003544,371.20496669993736,371.20496669993736,372.41415910003707,['space'],1,[0.28615289996378124],3.5123851001262665,4.531054800143465,None,1,None,1,,,,,,,hoavur,001,fr,0,0,2022-05-04_14h52.44.533,Cluster,2022.1.1,30.70948428688437,
,,,,1,0,1,0,15,0,15,0,,,time,,,,,,,,,,,,,,,,,,,,,,,,,,,,,,,,,,,,,,,,,,,,,,,,,,,,,,,,,,,,,,,,,,,,,,,,,,,,,,,,,,,,,,,,,,,,,,,,,,,,,,,,,,,,,,,,,,,372.9321648000041,None,834.852086499728,-0.4944564509289784,3.718066959206604e-05,0,"[0.44642587686228247, 0.44642587686228247, 0.44642587686228247, 0.44642587686228247]","[1325.4489035977826, 728.372943661839, 5429.7830384726785, 6043.1511195914245]",None,"[7.903959307362302, 5.6586428705152665, 8.0, 6.139549794679203]",False,373.9310696000466,376.29374839994125,376.29374839994125,377.5168366000289,None,0,,2.8052698001265526,3.814011000096798,None,1,None,1,,,,,,,hoavur,001,fr,0,0,2022-05-04_14h52.44.533,Cluster,2022.1.1,30.70948428688437,
,,,,1,0,1,0,16,0,16,0,,,time,,,,,,,,,,,,,,,,,,,,,,,,,,,,,,,,,,,,,,,,,,,,,,,,,,,,,,,,,,,,,,,,,,,,,,,,,,,,,,,,,,,,,,,,,,,,,,,,,,,,,,,,,,,,,,,,,,,377.7965110000223,None,203.0630990890589,-3.0,0.00018367018267475058,1,"[0.4411267524781502, 0.4411267524781502, 0.4411267524781502, 0.4411267524781502]","[639.5247880400276, 139.43715023045888, 7308.491350979498, 1021.6019705460876]",None,"[5.764280545125407, 9.477597685312794, 6.872770106313241, 5.744353958799096]",False,379.6968173000496,382.0565697000129,382.0565697000129,383.25853140000254,['space'],1,[0.21293189993593842],2.8227036002790555,3.8422083002515137,None,1,None,1,,,,,,,hoavur,001,fr,0,0,2022-05-04_14h52.44.533,Cluster,2022.1.1,30.70948428688437,
,,,,1,0,1,0,17,0,17,0,,,frequency,,,,,,,,,,,,,,,,,,,,,,,,,,,,,,,,,,,,,,,,,,,,,,,,,,,,,,,,,,,,,,,,,,,,,,,,,,,,,,,,,,,,,,,,,,,,,,,,,,,,,,,,,,,,,,,,,,,383.5680742999539,None,,,,,"[0.45430335304317254, 0.5606052164448005, 0.5857282057015882, 0.7390893951610857]","[554.3269442321343, 698.4081855619675, 879.9391744084073, 1108.6538884642684]",Major_3rd,"[6.223602336188723, 5.6586428705152665, 5.486761195015499, 6.097222008835672]",True,384.55758849997073,387.17113459995016,387.17113459995016,388.3970739999786,None,1,,3.36407360015437,4.38426700013224,None,1,None,1,,0,,,,,hoavur,001,fr,0,0,2022-05-04_14h52.44.533,Cluster,2022.1.1,30.70948428688437,
,,,,1,0,1,0,18,0,18,0,,,both,,,,,,,,,,,,,,,,,,,,,,,,,,,,,,,,,,,,,,,,,,,,,,,,,,,,,,,,,,,,,,,,,,,,,,,,,,,,,,,,,,,,,,,,,,,,,,,,,,,,,,,,,,,,,,,,,,,388.99944619997405,None,1224.223567433989,1.224440241281819,6.151993786450426e-05,1,"[0.6948455237021002, 0.6948455237021002, 0.6948455237021002, 0.6948455237021002]","[6169.700169549915, 4117.780837297422, 2748.2889861811263, 1834.2628347655632]",Perfect_5th,"[6.139549794679203, 15.0, 15.0, 10.61849427374204]",False,389.98893799993675,393.10681060003117,393.10681060003117,394.32841179997195,['space'],1,[0.25902270001824945],3.8084109001792967,4.832370500196703,None,1,None,1,,,,,,,hoavur,001,fr,0,0,2022-05-04_14h52.44.533,Cluster,2022.1.1,30.70948428688437,
,,,,1,0,1,0,19,0,19,0,,,time,,,,,,,,,,,,,,,,,,,,,,,,,,,,,,,,,,,,,,,,,,,,,,,,,,,,,,,,,,,,,,,,,,,,,,,,,,,,,,,,,,,,,,,,,,,,,,,,,,,,,,,,,,,,,,,,,,,394.8699984999839,None,241.47757375168086,-2.1183424661476034,0.00014431943115339463,1,"[0.43997311335765255, 0.43997311335765255, 0.43997311335765255, 0.43997311335765255]","[1962.6601613243758, 783.9230824911986, 5629.840925894814, 490.93227654603623]",None,"[11.0, 5.5706369273676914, 7.0, 6.372481883993501]",False,395.86736000003293,398.2077741000103,398.2077741000103,399.42891639994923,['space'],1,[0.41891479992773384],2.791804400156252,3.7909915001364425,None,1,None,1,,,,,,,hoavur,001,fr,0,0,2022-05-04_14h52.44.533,Cluster,2022.1.1,30.70948428688437,
,,,,2,0,2,0,0,0,0,0,,,time,,,,,,,,,,,,,,,,,,,,,,,,,,,,,,,,,,,,,,,,,,,,,,,,,,,,,,,,,,,,,,,,,,,,,,,,,,,,,,,,,,,,,,,,,,,,,,,,,,,,,,,,,,,,,,,,,,,418.60268959996756,None,353.5533905932738,-1.0,7.897582242723967e-05,1,"[0.5970947697466976, 0.5970947697466976, 0.5970947697466976, 0.5970947697466976]","[198.8173220136104, 2506.437776572557, 193.3904067835155, 4420.129421352951]",None,"[5.349834201550752, 14.0, 6.0, 13.0]",False,419.60716689995024,422.4410071000457,422.4410071000457,423.6535631000297,['space'],1,[0.3096047000726685],3.4332964001223445,4.465154900099151,None,1,None,1,,,,,,,hoavur,001,fr,0,0,2022-05-04_14h52.44.533,Cluster,2022.1.1,30.70948428688437,
,,,,2,0,2,0,1,0,1,0,,,none,,,,,,,,,,,,,,,,,,,,,,,,,,,,,,,,,,,,,,,,,,,,,,,,,,,,,,,,,,,,,,,,,,,,,,,,,,,,,,,,,,,,,,,,,,,,,,,,,,,,,,,,,,,,,,,,,,,424.10736739996355,None,1270.3683529205596,1.224440241281819,6.217907871153576e-05,1,"[0.41473002532922265, 0.7284403959073099, 0.48438982122093766, 0.6072855189519103]","[7884.516790426813, 1862.39693219236, 792.7729230234936, 248.61707014293586]",None,"[7.692627719322694, 10.61849427374204, 5.505543549071022, 3.5204496957262235]",False,425.0982093999628,427.7663900000043,427.7663900000043,428.9721197000472,['space'],1,[0.18754079996142536],3.2482971001882106,4.254131900146604,None,1,None,1,,,,,,,hoavur,001,fr,0,0,2022-05-04_14h52.44.533,Cluster,2022.1.1,30.70948428688437,
,,,,2,0,2,0,2,0,2,0,,,none,,,,,,,,,,,,,,,,,,,,,,,,,,,,,,,,,,,,,,,,,,,,,,,,,,,,,,,,,,,,,,,,,,,,,,,,,,,,,,,,,,,,,,,,,,,,,,,,,,,,,,,,,,,,,,,,,,,429.40023679996375,None,5278.031643091578,5.0,0.00025339284978307064,1,"[0.5138583324762251, 0.547969151065665, 0.5306438460342978, 0.6674812590779242]","[622.88683922679, 3599.1440389528952, 3325.172513983921, 128.12883410813708]",None,"[5.893675222621583, 17.0, 17.27513827088565, 10.0]",False,431.1112751000328,433.74651480000466,433.74651480000466,434.97850620001554,['space'],1,[0.1392166999867186],3.303035500459373,4.327321500401013,None,1,None,1,,,,,,,hoavur,001,fr,0,0,2022-05-04_14h52.44.533,Cluster,2022.1.1,30.70948428688437,
,,,,2,0,2,0,3,0,3,0,,,none,,,,,,,,,,,,,,,,,,,,,,,,,,,,,,,,,,,,,,,,,,,,,,,,,,,,,,,,,,,,,,,,,,,,,,,,,,,,,,,,,,,,,,,,,,,,,,,,,,,,,,,,,,,,,,,,,,,435.46323899994604,None,4049.1892937110206,9.0,0.00024611447863712356,1,"[0.6873382484581146, 0.6820299537572596, 0.40709419375295, 0.5357844745382804]","[2430.934429799784, 3892.0336811667244, 1516.2368744335406, 561.1260916575283]",None,"[13.644897925100949, 16.0, 9.201067646924706, 6.051973573215608]",False,436.45870479999576,439.2506967999507,439.2506967999507,440.484660099959,['space'],1,[0.27573520003352314],3.352717300178483,4.381031900178641,None,1,None,1,,,,,,,hoavur,001,fr,0,0,2022-05-04_14h52.44.533,Cluster,2022.1.1,30.70948428688437,
,,,,2,0,2,0,4,0,4,0,,,both,,,,,,,,,,,,,,,,,,,,,,,,,,,,,,,,,,,,,,,,,,,,,,,,,,,,,,,,,,,,,,,,,,,,,,,,,,,,,,,,,,,,,,,,,,,,,,,,,,,,,,,,,,,,,,,,,,,440.88895319995936,None,,,,,"[0.7591461060008037, 0.7591461060008037, 0.7591461060008037, 0.7591461060008037]","[1239.3921810188883, 1391.1706861650825, 1561.5362979408146, 1752.7652314960822]",Tone,"[7.224440241281819, 8.583196466424154, 9.201067646924706, 10.181407649142432]",True,441.8957367000403,445.2223258999875,445.2223258999875,446.425289100036,None,1,,4.0528162001864985,5.087600800092332,None,1,None,1,,0,,,,,hoavur,001,fr,0,0,2022-05-04_14h52.44.533,Cluster,2022.1.1,30.70948428688437,
,,,,2,0,2,0,5,0,5,0,,,none,,,,,,,,,,,,,,,,,,,,,,,,,,,,,,,,,,,,,,,,,,,,,,,,,,,,,,,,,,,,,,,,,,,,,,,,,,,,,,,,,,,,,,,,,,,,,,,,,,,,,,,,,,,,,,,,,,,447.0261890999973,None,406.12619817811805,-6.0,3.821118841650656e-05,0,"[0.5553450977096727, 0.7041952926475818, 0.6500875868774644, 0.5129191656709029]","[4714.240925645109, 1561.9421327611137, 714.9933767179535, 2602.0122875431857]",None,"[11.0, 9.201067646924706, 5.6586428705152665, 14.772803857532233]",False,448.03938370000105,450.9673638000386,450.9673638000386,452.194851999986,None,0,,3.4636986000696197,4.487751400098205,None,1,None,1,,,,,,,hoavur,001,fr,0,0,2022-05-04_14h52.44.533,Cluster,2022.1.1,30.70948428688437,
,,,,2,0,2,0,6,0,6,0,,,time,,,,,,,,,,,,,,,,,,,,,,,,,,,,,,,,,,,,,,,,,,,,,,,,,,,,,,,,,,,,,,,,,,,,,,,,,,,,,,,,,,,,,,,,,,,,,,,,,,,,,,,,,,,,,,,,,,,452.55846319999546,None,126.06312616847677,4.0,0.0011304331028679988,1,"[0.5451973635161386, 0.5451973635161386, 0.5451973635161386, 0.5451973635161386]","[4462.691338308358, 3656.061249914, 751.2389763403936, 587.2045958728935]",None,"[13.0, 17.0, 5.5706369273676914, 6.0]",False,453.5598317999393,456.2324158999836,456.2324158999836,457.43539799994323,['space'],1,[0.3492079999996349],3.203224700060673,4.235627700109035,None,1,None,1,,,,,,,hoavur,001,fr,0,0,2022-05-04_14h52.44.533,Cluster,2022.1.1,30.70948428688437,
,,,,2,0,2,0,7,0,7,0,,,frequency,,,,,,,,,,,,,,,,,,,,,,,,,,,,,,,,,,,,,,,,,,,,,,,,,,,,,,,,,,,,,,,,,,,,,,,,,,,,,,,,,,,,,,,,,,,,,,,,,,,,,,,,,,,,,,,,,,,457.84887650003657,None,1166.2592879074252,0.596688252632579,5.4633712807044174e-05,1,"[0.7759178484586947, 0.6742967817137967, 0.4191750272046324, 0.5572869730626365]","[734.6973132349851, 824.6698511011344, 925.660610245965, 1039.01890461599]",Tone,"[5.5706369273676914, 5.505543549071022, 5.552552403700736, 6.0]",False,458.8425533999689,461.7443372999551,461.7443372999551,462.94366170000285,['space'],1,[0.2854075999930501],3.455488500185311,4.460721000097692,None,1,None,1,,,,,,,hoavur,001,fr,0,0,2022-05-04_14h52.44.533,Cluster,2022.1.1,30.70948428688437,
,,,,2,0,2,0,8,0,8,0,,,frequency,,,,,,,,,,,,,,,,,,,,,,,,,,,,,,,,,,,,,,,,,,,,,,,,,,,,,,,,,,,,,,,,,,,,,,,,,,,,,,,,,,,,,,,,,,,,,,,,,,,,,,,,,,,,,,,,,,,463.3557186999824,None,2000.0,3.0,0.00010567445199183233,1,"[0.642391776143943, 0.6830123447331875, 0.763653591397406, 0.7038646541707032]","[793.7005259841001, 1000.0000000000003, 1259.9210498948735, 1587.4010519681997]",Major_3rd,"[5.505543549071022, 5.744353958799096, 7.224440241281819, 9.721088948797641]",False,465.05104659998324,468.1786302999826,468.1786302999826,469.3913666999433,['space'],1,[0.26389990001916885],3.8319931003497913,4.8472673003561795,None,1,None,1,,,,,,,hoavur,001,fr,0,0,2022-05-04_14h52.44.533,Cluster,2022.1.1,30.70948428688437,
,,,,2,0,2,0,9,0,9,0,,,both,,,,,,,,,,,,,,,,,,,,,,,,,,,,,,,,,,,,,,,,,,,,,,,,,,,,,,,,,,,,,,,,,,,,,,,,,,,,,,,,,,,,,,,,,,,,,,,,,,,,,,,,,,,,,,,,,,,469.93231059995014,None,5278.031643091578,6.0,0.00028431145364477055,1,"[0.5488002427221464, 0.5488002427221464, 0.5488002427221464, 0.5488002427221464]","[2094.5882456412546, 2639.01582154579, 3324.9515845711526, 4189.176491282508]",Major_3rd,"[11.778488868989728, 14.772803857532233, 17.27513827088565, 14.0]",False,470.9500665999949,473.6204052999383,473.6204052999383,474.8526973000262,['space'],1,[0.26221800001803786],3.242685600067489,4.272181500098668,None,1,None,1,,,,,,,hoavur,001,fr,0,0,2022-05-04_14h52.44.533,Cluster,2022.1.1,30.70948428688437,
,,,,2,0,2,0,10,0,10,0,,,time,,,,,,,,,,,,,,,,,,,,,,,,,,,,,,,,,,,,,,,,,,,,,,,,,,,,,,,,,,,,,,,,,,,,,,,,,,,,,,,,,,,,,,,,,,,,,,,,,,,,,,,,,,,,,,,,,,,475.25167869997676,None,2297.3967099940687,4.0,0.0001290170525919527,1,"[0.5328650328223294, 0.5328650328223294, 0.5328650328223294, 0.5328650328223294]","[172.07168792885724, 467.5957623915542, 307.4588485275593, 933.9679754648861]",None,"[7.2639064192810725, 6.44997255490173, 4.109296637790383, 5.552552403700736]",False,476.2549838999985,478.8899977999972,478.8899977999972,480.0926159999799,['space'],1,[0.28349019994493574],3.180554300080985,4.1902957001002505,None,1,None,1,,,,,,,hoavur,001,fr,0,0,2022-05-04_14h52.44.533,Cluster,2022.1.1,30.70948428688437,
,,,,2,0,2,0,11,0,11,0,,,both,,,,,,,,,,,,,,,,,,,,,,,,,,,,,,,,,,,,,,,,,,,,,,,,,,,,,,,,,,,,,,,,,,,,,,,,,,,,,,,,,,,,,,,,,,,,,,,,,,,,,,,,,,,,,,,,,,,480.4718336999649,None,1451.2886541128798,3.0,6.993739932815041e-05,1,"[0.5757219938409768, 0.5757219938409768, 0.5757219938409768, 0.5757219938409768]","[575.9442840620746, 725.6443270564401, 914.2545623952087, 1151.888568124149]",Major_3rd,"[6.051973573215608, 5.6586428705152665, 5.552552403700736, 6.596688252632579]",False,481.47378310002387,484.2255927999504,484.2255927999504,485.4320048999507,['space'],1,[0.2951424999628216],3.3119507001247257,4.323764200089499,None,1,None,1,,,,,,,hoavur,001,fr,0,0,2022-05-04_14h52.44.533,Cluster,2022.1.1,30.70948428688437,
,,,,2,0,2,0,12,0,12,0,,,both,,,,,,,,,,,,,,,,,,,,,,,,,,,,,,,,,,,,,,,,,,,,,,,,,,,,,,,,,,,,,,,,,,,,,,,,,,,,,,,,,,,,,,,,,,,,,,,,,,,,,,,,,,,,,,,,,,,485.8465909999795,None,233.2582478842019,-3.0,0.00014178950111339502,1,"[0.5776249674328747, 0.5776249674328747, 0.5776249674328747, 0.5776249674328747]","[146.94348828545108, 164.9384888466118, 185.13719403582056, 207.80947403569698]",Tone,"[9.477597685312794, 8.157001307055994, 6.298427577435086, 5.0]",False,487.64557579997927,490.4019882000284,490.4019882000284,491.6059666000074,['space'],1,[0.29173990001436323],3.35295230045449,4.365262300474569,None,1,None,1,,,,,,,hoavur,001,fr,0,0,2022-05-04_14h52.44.533,Cluster,2022.1.1,30.70948428688437,
,,,,2,0,2,0,13,0,13,0,,,time,,,,,,,,,,,,,,,,,,,,,,,,,,,,,,,,,,,,,,,,,,,,,,,,,,,,,,,,,,,,,,,,,,,,,,,,,,,,,,,,,,,,,,,,,,,,,,,,,,,,,,,,,,,,,,,,,,,492.0515972999856,None,195.28300046755052,0.0,0.0002826214286172202,1,"[0.478564713578011, 0.478564713578011, 0.478564713578011, 0.478564713578011]","[6547.90876557174, 4514.624916374071, 7219.89022561717, 5876.216621967198]",None,"[6.0, 12.0, 6.872770106313241, 6.139549794679203]",False,493.0590387999546,495.53953920002095,495.53953920002095,496.7430648000445,['space'],1,[0.36910249991342425],2.9462604001164436,3.956994300126098,None,1,None,1,,,,,,,hoavur,001,fr,0,0,2022-05-04_14h52.44.533,Cluster,2022.1.1,30.70948428688437,
,,,,2,0,2,0,14,0,14,0,,,none,,,,,,,,,,,,,,,,,,,,,,,,,,,,,,,,,,,,,,,,,,,,,,,,,,,,,,,,,,,,,,,,,,,,,,,,,,,,,,,,,,,,,,,,,,,,,,,,,,,,,,,,,,,,,,,,,,,497.06640070001595,None,6959.441303806489,0.23527188064374738,0.00015411566657877663,1,"[0.6854408774322596, 0.5381371156733692, 0.6331538149863714, 0.573411318059734]","[2679.2988280636387, 247.15817406079563, 6772.995723044602, 1230.2500545327007]",None,"[15.0, 3.5204496957262235, 6.0, 7.224440241281819]",False,498.0735406000167,500.94856269995216,500.94856269995216,502.15173609997146,['space'],1,[0.37096770002972335],3.4655540001112968,4.472341600107029,None,1,None,1,,,,,,,hoavur,001,fr,0,0,2022-05-04_14h52.44.533,Cluster,2022.1.1,30.70948428688437,
,,,,2,0,2,0,15,0,15,0,,,frequency,,,,,,,,,,,,,,,,,,,,,,,,,,,,,,,,,,,,,,,,,,,,,,,,,,,,,,,,,,,,,,,,,,,,,,,,,,,,,,,,,,,,,,,,,,,,,,,,,,,,,,,,,,,,,,,,,,,502.59864209999796,None,1598.9470301132071,3.7210889487976413,8.696473410000473e-05,1,"[0.560206593373814, 0.7690633248240258, 0.44333992779904124, 0.5634578185527116]","[634.5425494107835, 799.4735150566038, 1007.2735104532609, 1269.0850988215668]",Major_3rd,"[5.893675222621583, 5.505543549071022, 5.744353958799096, 7.224440241281819]",False,503.61257250001654,506.4202019999502,506.4202019999502,507.6512798999902,['space'],1,[0.3605139999417588],3.361966000054963,4.367236200137995,None,1,None,1,,,,,,,hoavur,001,fr,0,0,2022-05-04_14h52.44.533,Cluster,2022.1.1,30.70948428688437,
,,,,2,0,2,0,16,0,16,0,,,time,,,,,,,,,,,,,,,,,,,,,,,,,,,,,,,,,,,,,,,,,,,,,,,,,,,,,,,,,,,,,,,,,,,,,,,,,,,,,,,,,,,,,,,,,,,,,,,,,,,,,,,,,,,,,,,,,,,508.0391367999837,None,,,,,"[0.5693386578205941, 0.5693386578205941, 0.5693386578205941, 0.5693386578205941]","[511.91348035736337, 7382.578960443887, 643.990936446947, 170.59273472249183]",None,"[6.372481883993501, 6.872770106313241, 5.764280545125407, 8.0]",True,509.04186180001125,511.77536179998424,511.77536179998424,512.992286899942,['space'],0,[0.4382102000527084],3.3100757002830505,4.315924100228585,None,1,None,1,,0,,,,,hoavur,001,fr,0,0,2022-05-04_14h52.44.533,Cluster,2022.1.1,30.70948428688437,
,,,,2,0,2,0,17,0,17,0,,,time,,,,,,,,,,,,,,,,,,,,,,,,,,,,,,,,,,,,,,,,,,,,,,,,,,,,,,,,,,,,,,,,,,,,,,,,,,,,,,,,,,,,,,,,,,,,,,,,,,,,,,,,,,,,,,,,,,,513.4045821999898,None,164.93848884661182,-4.0,0.0002480517054570919,0,"[0.45641173560246295, 0.45641173560246295, 0.45641173560246295, 0.45641173560246295]","[798.3286417824023, 2017.8754990984107, 7786.908457871901, 1052.994193047094]",None,"[5.505543549071022, 11.130926003204255, 7.692627719322694, 6.0]",False,514.420131699997,516.8301216999535,516.8301216999535,518.0622569000116,None,0,,2.8634268001187593,3.864061300177127,None,1,None,1,,,,,,,hoavur,001,fr,0,0,2022-05-04_14h52.44.533,Cluster,2022.1.1,30.70948428688437,
,,,,2,0,2,0,18,0,18,0,,,frequency,,,,,,,,,,,,,,,,,,,,,,,,,,,,,,,,,,,,,,,,,,,,,,,,,,,,,,,,,,,,,,,,,,,,,,,,,,,,,,,,,,,,,,,,,,,,,,,,,,,,,,,,,,,,,,,,,,,518.3111262000166,None,287.17458874925893,-4.0,8.082540045571802e-05,0,"[0.551856486349228, 0.7479941187943422, 0.5206903764383102, 0.4891913588363371]","[455.8612442791087, 406.126198178118, 361.8173093600947, 322.342577109895]",Tone,"[6.44997255490173, 6.190460112012685, 5.276290861042572, 4.674472989159394]",False,519.3308283999795,522.1727118999697,522.1727118999697,523.3930486999452,None,0,,3.3485657001147047,4.375881500076503,None,1,None,1,,,,,,,hoavur,001,fr,0,0,2022-05-04_14h52.44.533,Cluster,2022.1.1,30.70948428688437,
,,,,2,0,2,0,19,0,19,0,,,both,,,,,,,,,,,,,,,,,,,,,,,,,,,,,,,,,,,,,,,,,,,,,,,,,,,,,,,,,,,,,,,,,,,,,,,,,,,,,,,,,,,,,,,,,,,,,,,,,,,,,,,,,,,,,,,,,,,523.7353917999426,None,2525.8575243865253,8.0,0.0002117232769478214,1,"[0.5097494195527801, 0.5097494195527801, 0.5097494195527801, 0.5097494195527801]","[4009.548891332963, 3572.1019676095552, 3182.3810640099364, 2835.1792105605414]",Tone,"[15.433228278353976, 17.0, 17.0, 15.870546298537242]",False,524.752959699952,527.319181800005,527.319181800005,528.5423540000338,['space'],1,[0.20507529994938523],3.0489424001425505,4.062433900195174,None,1,None,1,,,,,,,hoavur,001,fr,0,0,2022-05-04_14h52.44.533,Cluster,2022.1.1,30.70948428688437,
,,,,3,0,3,0,0,0,0,0,,,none,,,,,,,,,,,,,,,,,,,,,,,,,,,,,,,,,,,,,,,,,,,,,,,,,,,,,,,,,,,,,,,,,,,,,,,,,,,,,,,,,,,,,,,,,,,,,,,,,,,,,,,,,,,,,,,,,,,545.2284831999568,None,176.7766952966369,-2.0,0.0002780315447610839,1,"[0.5181554572572509, 0.5059604985976467, 0.41001626771123584, 0.5886065543889298]","[400.8578967657777, 2211.35255356042, 168.14950991693277, 740.0338303758797]",None,"[6.190460112012685, 12.0, 8.0, 5.5706369273676914]",False,546.2134545999579,548.6999573999783,548.6999573999783,549.9279014000203,['space'],1,[0.4106793999671936],3.0597810002509505,4.087782100192271,None,1,None,1,,,,,,,hoavur,001,fr,0,0,2022-05-04_14h52.44.533,Cluster,2022.1.1,30.70948428688437,
,,,,3,0,3,0,1,0,1,0,,,none,,,,,,,,,,,,,,,,,,,,,,,,,,,,,,,,,,,,,,,,,,,,,,,,,,,,,,,,,,,,,,,,,,,,,,,,,,,,,,,,,,,,,,,,,,,,,,,,,,,,,,,,,,,,,,,,,,,550.34126929997,None,,,,,"[0.7757665242253091, 0.5748351687730351, 0.5599113843772485, 0.6206962015379521]","[618.0975876776581, 2877.321547214259, 152.3392573947445, 761.5550539940759]",None,"[5.893675222621583, 16.0, 9.0, 5.5706369273676914]",True,551.3284229999408,554.2661308000097,554.2661308000097,555.5000423999736,None,1,,3.5696954000741243,4.598741500056349,None,1,None,1,,0,,,,,hoavur,001,fr,0,0,2022-05-04_14h52.44.533,Cluster,2022.1.1,30.70948428688437,
,,,,3,0,3,0,2,0,2,0,,,frequency,,,,,,,,,,,,,,,,,,,,,,,,,,,,,,,,,,,,,,,,,,,,,,,,,,,,,,,,,,,,,,,,,,,,,,,,,,,,,,,,,,,,,,,,,,,,,,,,,,,,,,,,,,,,,,,,,,,555.9788100000005,None,812.0649459890403,-0.4944564509289784,3.6568855764316804e-05,1,"[0.5958695328787432, 0.6917923057720472, 0.7256323676164164, 0.6981191811018332]","[2046.2754386666707, 1624.1298919780809, 1289.0727495295018, 1023.1377193333352]",Major_3rd,"[11.130926003204255, 9.721088948797641, 7.903959307362302, 5.744353958799096]",False,556.9732765000081,560.0088466999587,560.0088466999587,561.2382549999747,['space'],1,[0.39467009995132685],3.7276765999849886,4.759349700063467,None,1,None,1,,,,,,,hoavur,001,fr,0,0,2022-05-04_14h52.44.533,Cluster,2022.1.1,30.70948428688437,
,,,,3,0,3,0,3,0,3,0,,,frequency,,,,,,,,,,,,,,,,,,,,,,,,,,,,,,,,,,,,,,,,,,,,,,,,,,,,,,,,,,,,,,,,,,,,,,,,,,,,,,,,,,,,,,,,,,,,,,,,,,,,,,,,,,,,,,,,,,,561.7877245999407,None,466.5164957684038,-3.0,5.1790195950526384e-05,1,"[0.712831172743188, 0.42906496196067195, 0.6306476706243609, 0.6458928307619767]","[185.1371940358206, 233.25824788420195, 293.8869765709023, 370.27438807164117]",Major_3rd,"[6.298427577435086, 3.8816575338523966, 3.6675546830051218, 5.798875134321018]",False,563.6325335999718,566.4193375000032,566.4193375000032,567.646165400045,['space'],1,[0.3479311999399215],3.4515716002788395,4.469193300232291,None,1,None,1,,,,,,,hoavur,001,fr,0,0,2022-05-04_14h52.44.533,Cluster,2022.1.1,30.70948428688437,
,,,,3,0,3,0,4,0,4,0,,,time,,,,,,,,,,,,,,,,,,,,,,,,,,,,,,,,,,,,,,,,,,,,,,,,,,,,,,,,,,,,,,,,,,,,,,,,,,,,,,,,,,,,,,,,,,,,,,,,,,,,,,,,,,,,,,,,,,,568.1468621999957,None,2718.090853157907,9.0,0.0002038891358088369,0,"[0.4370545228614428, 0.4370545228614428, 0.4370545228614428, 0.4370545228614428]","[2192.2433172385063, 369.4135117760251, 170.81360298168866, 1473.411403411185]",None,"[12.0, 5.798875134321018, 8.0, 9.0]",False,569.1392806000076,571.4657718000235,571.4657718000235,572.6836068000412,None,0,,2.7750159001443535,3.7784942002035677,None,1,None,1,,,,,,,hoavur,001,fr,0,0,2022-05-04_14h52.44.533,Cluster,2022.1.1,30.70948428688437,
,,,,3,0,3,0,5,0,5,0,,,time,,,,,,,,,,,,,,,,,,,,,,,,,,,,,,,,,,,,,,,,,,,,,,,,,,,,,,,,,,,,,,,,,,,,,,,,,,,,,,,,,,,,,,,,,,,,,,,,,,,,,,,,,,,,,,,,,,,572.9714968999615,None,1414.213562373095,-5.0,2.836018893396214e-05,0,"[0.6766588041311516, 0.6766588041311516, 0.6766588041311516, 0.6766588041311516]","[348.13932974949057, 4284.150364201805, 1408.354407528154, 2187.5021578194433]",None,"[5.276290861042572, 13.768920892954359, 8.583196466424154, 12.0]",False,574.9176981999772,577.9631631999509,577.9631631999509,579.1650721000042,None,0,,3.7484092003433034,4.769203500356525,None,1,None,1,,,,,,,hoavur,001,fr,0,0,2022-05-04_14h52.44.533,Cluster,2022.1.1,30.70948428688437,
,,,,3,0,3,0,6,0,6,0,,,both,,,,,,,,,,,,,,,,,,,,,,,,,,,,,,,,,,,,,,,,,,,,,,,,,,,,,,,,,,,,,,,,,,,,,,,,,,,,,,,,,,,,,,,,,,,,,,,,,,,,,,,,,,,,,,,,,,,579.7241565999575,None,,,,,"[0.646513269034041, 0.646513269034041, 0.646513269034041, 0.646513269034041]","[1856.5966273234994, 1473.581719646967, 1169.582585964352, 928.2983136617496]",Major_3rd,"[10.61849427374204, 9.0, 6.596688252632579, 5.552552403700736]",True,580.7174363000086,583.6833384999773,583.6833384999773,584.8961861999705,None,1,,3.6143615001346916,4.618859600042924,None,1,None,1,,0,,,,,hoavur,001,fr,0,0,2022-05-04_14h52.44.533,Cluster,2022.1.1,30.70948428688437,
,,,,3,0,3,0,7,0,7,0,,,frequency,,,,,,,,,,,,,,,,,,,,,,,,,,,,,,,,,,,,,,,,,,,,,,,,,,,,,,,,,,,,,,,,,,,,,,,,,,,,,,,,,,,,,,,,,,,,,,,,,,,,,,,,,,,,,,,,,,,585.3804221999599,None,3872.77630447931,10.0,0.00025837991413982925,1,"[0.5779526588922489, 0.7152737209840542, 0.4470988828229423, 0.5659967445667187]","[768.4561474709966, 1151.383284025185, 1725.125722652449, 2584.7680787521635]",Perfect_5th,"[5.5706369273676914, 6.596688252632579, 10.181407649142432, 14.772803857532233]",False,586.3875467999605,589.1643615999492,589.1643615999492,590.3753481999738,['space'],1,[0.25524760002736],3.3472451001871377,4.353473200229928,None,1,None,1,,,,,,,hoavur,001,fr,0,0,2022-05-04_14h52.44.533,Cluster,2022.1.1,30.70948428688437,
,,,,3,0,3,0,8,0,8,0,,,both,,,,,,,,,,,,,,,,,,,,,,,,,,,,,,,,,,,,,,,,,,,,,,,,,,,,,,,,,,,,,,,,,,,,,,,,,,,,,,,,,,,,,,,,,,,,,,,,,,,,,,,,,,,,,,,,,,,590.8194663999602,None,164.93848884661182,-1.0,0.0003503823469658471,1,"[0.5184254022869739, 0.5184254022869739, 0.5184254022869739, 0.5184254022869739]","[415.6189480713941, 329.8769776932237, 261.82353070515677, 207.809474035697]",Major_3rd,"[6.190460112012685, 4.674472989159394, 3.455552171016498, 5.0]",False,591.8790102000348,594.4514964999398,594.4514964999398,595.6612562999362,['space'],1,[0.3255850999848917],3.1168366002384573,4.139853700180538,None,1,None,1,,,,,,,hoavur,001,fr,0,0,2022-05-04_14h52.44.533,Cluster,2022.1.1,30.70948428688437,
,,,,3,0,3,0,9,0,9,0,,,none,,,,,,,,,,,,,,,,,,,,,,,,,,,,,,,,,,,,,,,,,,,,,,,,,,,,,,,,,,,,,,,,,,,,,,,,,,,,,,,,,,,,,,,,,,,,,,,,,,,,,,,,,,,,,,,,,,,596.0547573999502,None,419.2983678090773,0.19046011201268565,7.724361592464152e-05,1,"[0.5786378049340258, 0.5317205243317376, 0.5224797843720715, 0.494306837984194]","[2680.7971454979265, 3668.948493517774, 1472.3997561110339, 1057.1900453252235]",None,"[15.0, 16.630445642002396, 9.0, 6.0]",False,597.0460011999821,599.7060852999566,599.7060852999566,600.9177998999367,['space'],1,[0.36674899992067367],3.138051600079052,4.164889800129458,None,1,None,1,,,,,,,hoavur,001,fr,0,0,2022-05-04_14h52.44.533,Cluster,2022.1.1,30.70948428688437,
,,,,3,0,3,0,10,0,10,0,,,frequency,,,,,,,,,,,,,,,,,,,,,,,,,,,,,,,,,,,,,,,,,,,,,,,,,,,,,,,,,,,,,,,,,,,,,,,,,,,,,,,,,,,,,,,,,,,,,,,,,,,,,,,,,,,,,,,,,,,601.2656121000182,None,,,,,"[0.5214023293383027, 0.7330029014468054, 0.6581663043686122, 0.7069842341601774]","[229.02755696843602, 204.04035692199318, 181.77929243070102, 161.94693861096943]",Tone,"[4.0, 5.349834201550752, 7.0, 8.157001307055994]",True,602.2584045999683,605.2015813000035,605.2015813000035,606.4391002999619,None,1,,3.6579921001102775,4.666840600082651,None,1,None,1,,0,,,,,hoavur,001,fr,0,0,2022-05-04_14h52.44.533,Cluster,2022.1.1,30.70948428688437,
,,,,3,0,3,0,11,0,11,0,,,time,,,,,,,,,,,,,,,,,,,,,,,,,,,,,,,,,,,,,,,,,,,,,,,,,,,,,,,,,,,,,,,,,,,,,,,,,,,,,,,,,,,,,,,,,,,,,,,,,,,,,,,,,,,,,,,,,,,606.9850653000176,None,2230.3417153618516,6.0,0.00015945703552449044,0,"[0.42299873993922055, 0.42299873993922055, 0.42299873993922055, 0.42299873993922055]","[7285.150542769888, 2719.375752606189, 161.07815448820872, 1244.2471086684022]",None,"[6.872770106313241, 15.0, 8.157001307055994, 7.224440241281819]",False,607.9797782000387,610.2846947000362,610.2846947000362,611.5123047999805,None,0,,2.7263103001751006,3.7370318002067506,None,1,None,1,,,,,,,hoavur,001,fr,0,0,2022-05-04_14h52.44.533,Cluster,2022.1.1,30.70948428688437,
,,,,3,0,3,0,12,0,12,0,,,time,,,,,,,,,,,,,,,,,,,,,,,,,,,,,,,,,,,,,,,,,,,,,,,,,,,,,,,,,,,,,,,,,,,,,,,,,,,,,,,,,,,,,,,,,,,,,,,,,,,,,,,,,,,,,,,,,,,611.7657548999414,None,353.5533905932738,-4.0,5.591060055563459e-05,0,"[0.7429005220294947, 0.7429005220294947, 0.7429005220294947, 0.7429005220294947]","[2658.5238477900925, 5510.728454627432, 132.6986233852763, 6811.643398211762]",None,"[15.0, 7.0, 9.84743044909529, 6.235271880643747]",False,613.7224080000306,616.967025400023,616.967025400023,618.1898104000138,None,0,,4.011241300497204,5.026010300498456,None,1,None,1,,,,,,,hoavur,001,fr,0,0,2022-05-04_14h52.44.533,Cluster,2022.1.1,30.70948428688437,
,,,,3,0,3,0,13,0,13,0,,,none,,,,,,,,,,,,,,,,,,,,,,,,,,,,,,,,,,,,,,,,,,,,,,,,,,,,,,,,,,,,,,,,,,,,,,,,,,,,,,,,,,,,,,,,,,,,,,,,,,,,,,,,,,,,,,,,,,,618.7821886000456,None,2297.3967099940687,6.0,0.00016242284606279376,1,"[0.5898009644524014, 0.6682572912202577, 0.4547130656089382, 0.5888646473445557]","[481.5201981106907, 1466.724534304554, 666.6095324218747, 4327.831225705958]",None,"[6.44997255490173, 9.0, 5.764280545125407, 13.768920892954359]",False,619.8693791000405,622.606898500002,622.606898500002,623.8306016999995,['space'],1,[0.3052970999851823],3.332208900246769,4.36177820013836,None,1,None,1,,,,,,,hoavur,001,fr,0,0,2022-05-04_14h52.44.533,Cluster,2022.1.1,30.70948428688437,
,,,,3,0,3,0,14,0,14,0,,,frequency,,,,,,,,,,,,,,,,,,,,,,,,,,,,,,,,,,,,,,,,,,,,,,,,,,,,,,,,,,,,,,,,,,,,,,,,,,,,,,,,,,,,,,,,,,,,,,,,,,,,,,,,,,,,,,,,,,,624.2638857000275,None,1148.6983549970344,-6.0,2.5195718772304546e-05,0,"[0.5973070276666448, 0.4837870175212416, 0.48023601232602037, 0.5061385265613046]","[227.93062213955412, 341.51006418859873, 511.6869459983872, 766.6641723347999]",Perfect_5th,"[4.0, 5.0, 6.372481883993501, 5.5706369273676914]",False,625.2858893999364,627.8750790000195,627.8750790000195,629.087278299965,None,0,,3.089439400122501,4.1024896000744775,None,1,None,1,,,,,,,hoavur,001,fr,0,0,2022-05-04_14h52.44.533,Cluster,2022.1.1,30.70948428688437,
,,,,3,0,3,0,15,0,15,0,,,both,,,,,,,,,,,,,,,,,,,,,,,,,,,,,,,,,,,,,,,,,,,,,,,,,,,,,,,,,,,,,,,,,,,,,,,,,,,,,,,,,,,,,,,,,,,,,,,,,,,,,,,,,,,,,,,,,,,629.4270919000264,None,,,,,"[0.7035828262590074, 0.7035828262590074, 0.7035828262590074, 0.7035828262590074]","[740.2496173596566, 494.05734564289384, 329.7437176047973, 220.07752796053632]",Perfect_5th,"[5.5706369273676914, 6.372481883993501, 4.674472989159394, 4.513812465724815]",True,630.4207402999746,633.5523189000087,633.5523189000087,634.7608311000513,None,1,,3.842412000056356,4.844990500132553,None,1,None,1,,0,,,,,hoavur,001,fr,0,0,2022-05-04_14h52.44.533,Cluster,2022.1.1,30.70948428688437,
,,,,3,0,3,0,16,0,16,0,,,time,,,,,,,,,,,,,,,,,,,,,,,,,,,,,,,,,,,,,,,,,,,,,,,,,,,,,,,,,,,,,,,,,,,,,,,,,,,,,,,,,,,,,,,,,,,,,,,,,,,,,,,,,,,,,,,,,,,635.3087666999782,None,277.5754165657772,-2.3324453169948782,0.00010570676811594529,0,"[0.751358754021744, 0.751358754021744, 0.751358754021744, 0.751358754021744]","[2850.5440825174996, 948.4605630378543, 1246.6784983459636, 328.1583816800072]",None,"[16.0, 5.552552403700736, 7.224440241281819, 4.674472989159394]",False,636.2979022000218,639.5650940999622,639.5650940999622,640.767886799993,None,0,,4.0406802002107725,5.059932100237347,None,1,None,1,,,,,,,hoavur,001,fr,0,0,2022-05-04_14h52.44.533,Cluster,2022.1.1,30.70948428688437,
,,,,3,0,3,0,17,0,17,0,,,both,,,,,,,,,,,,,,,,,,,,,,,,,,,,,,,,,,,,,,,,,,,,,,,,,,,,,,,,,,,,,,,,,,,,,,,,,,,,,,,,,,,,,,,,,,,,,,,,,,,,,,,,,,,,,,,,,,,641.4154211999848,None,852.1751992267375,-0.5132388049845009,3.756446206218114e-05,1,"[0.5964819052910677, 0.5964819052910677, 0.5964819052910677, 0.5964819052910677]","[1352.743807713733, 1205.1577242644464, 1073.6734717041238, 956.5343196424918]",Tone,"[8.0, 7.0, 6.097222008835672, 5.552552403700736]",False,642.4031458999962,645.2174677000148,645.2174677000148,646.4216434999835,['space'],1,[0.3785683000460267],3.400150600122288,4.407859400147572,None,1,None,1,,,,,,,hoavur,001,fr,0,0,2022-05-04_14h52.44.533,Cluster,2022.1.1,30.70948428688437,
,,,,3,0,3,0,18,0,18,0,,,none,,,,,,,,,,,,,,,,,,,,,,,,,,,,,,,,,,,,,,,,,,,,,,,,,,,,,,,,,,,,,,,,,,,,,,,,,,,,,,,,,,,,,,,,,,,,,,,,,,,,,,,,,,,,,,,,,,,646.8668042999925,None,681.7166811001118,-0.23571945487459275,4.538105066520197e-05,1,"[0.7412869089593603, 0.5059620167523036, 0.6592469812408881, 0.47596211054204884]","[3709.208641842979, 5640.573846193585, 4320.783110686013, 150.38989700244224]",None,"[16.630445642002396, 6.891561803284695, 13.768920892954359, 9.0]",False,647.8709388000425,650.8138817000436,650.8138817000436,652.0298852999695,['space'],1,[0.4844209000002593],3.413260800181888,4.417588200187311,None,1,None,1,,,,,,,hoavur,001,fr,0,0,2022-05-04_14h52.44.533,Cluster,2022.1.1,30.70948428688437,
,,,,3,0,3,0,19,0,19,0,,,frequency,,,,,,,,,,,,,,,,,,,,,,,,,,,,,,,,,,,,,,,,,,,,,,,,,,,,,,,,,,,,,,,,,,,,,,,,,,,,,,,,,,,,,,,,,,,,,,,,,,,,,,,,,,,,,,,,,,,652.3469512000447,None,2098.263141943822,5.778488868989728,0.00014974723502573524,1,"[0.5180925357275236, 0.5675959752959733, 0.6350328487497188, 0.6730324829262938]","[832.6962797069309, 1049.1315709719113, 1321.822950376788, 1665.3925594138614]",Major_3rd,"[5.505543549071022, 6.0, 7.903959307362302, 10.0]",False,653.3751760999439,656.125264900038,656.125264900038,657.3318278000224,['space'],1,[0.19315659999847412],3.413799700094387,4.429162400076166,None,1,None,1,,,,,,,hoavur,001,fr,0,0,2022-05-04_14h52.44.533,Cluster,2022.1.1,30.70948428688437,
,,,,4,0,4,0,0,0,0,0,,,both,,,,,,,,,,,,,,,,,,,,,,,,,,,,,,,,,,,,,,,,,,,,,,,,,,,,,,,,,,,,,,,,,,,,,,,,,,,,,,,,,,,,,,,,,,,,,,,,,,,,,,,,,,,,,,,,,,,724.5150224999525,None,353.5533905932738,-1.0,7.897582242723967e-05,1,"[0.7950436684719202, 0.7950436684719202, 0.7950436684719202, 0.7950436684719202]","[1781.7974362806788, 1189.2071150027211, 793.7005259840998, 529.7315471796477]",Perfect_5th,"[10.181407649142432, 7.0, 5.505543549071022, 6.223602336188723]",False,725.5112721000332,728.9220017000334,728.9220017000334,730.1405236000428,['space'],1,[0.39479080005548894],4.212329200236127,5.233259200234897,None,1,None,1,,,,,,,hoavur,001,fr,0,0,2022-05-04_14h52.44.533,Cluster,2022.1.1,30.70948428688437,
,,,,4,0,4,0,1,0,1,0,,,time,,,,,,,,,,,,,,,,,,,,,,,,,,,,,,,,,,,,,,,,,,,,,,,,,,,,,,,,,,,,,,,,,,,,,,,,,,,,,,,,,,,,,,,,,,,,,,,,,,,,,,,,,,,,,,,,,,,730.7799311999697,None,,,,,"[0.6876147914508985, 0.6876147914508985, 0.6876147914508985, 0.6876147914508985]","[5260.095432024387, 1102.9927591130413, 2201.1409218595177, 870.4552190703772]",None,"[8.190272585555226, 6.097222008835672, 12.0, 5.486761195015499]",True,731.779878100031,734.8735461999895,734.8735461999895,736.0806102999486,None,1,,3.7879328002454713,4.800555300200358,None,1,None,1,,0,,,,,hoavur,001,fr,0,0,2022-05-04_14h52.44.533,Cluster,2022.1.1,30.70948428688437,
,,,,4,0,4,0,2,0,2,0,,,both,,,,,,,,,,,,,,,,,,,,,,,,,,,,,,,,,,,,,,,,,,,,,,,,,,,,,,,,,,,,,,,,,,,,,,,,,,,,,,,,,,,,,,,,,,,,,,,,,,,,,,,,,,,,,,,,,,,736.633624900016,None,425.1137228870795,0.40299053964580733,7.884570491721859e-05,1,"[0.44325328512139384, 0.44325328512139384, 0.44325328512139384, 0.44325328512139384]","[168.70649272926696, 212.5568614435398, 267.8048640323037, 337.41298545853385]",Major_3rd,"[8.0, 5.0, 3.455552171016498, 5.0]",False,737.6341827999568,739.9874630999984,739.9874630999984,741.2175249999855,['space'],1,[0.10723610001150519],2.808531300048344,3.84347740013618,None,1,None,1,,,,,,,hoavur,001,fr,0,0,2022-05-04_14h52.44.533,Cluster,2022.1.1,30.70948428688437,
,,,,4,0,4,0,3,0,3,0,,,none,,,,,,,,,,,,,,,,,,,,,,,,,,,,,,,,,,,,,,,,,,,,,,,,,,,,,,,,,,,,,,,,,,,,,,,,,,,,,,,,,,,,,,,,,,,,,,,,,,,,,,,,,,,,,,,,,,,741.5350174000487,None,1000.0,-6.0,2.2078522367665627e-05,0,"[0.6146169194820857, 0.6173998544349535, 0.7159024679290743, 0.5787757170199004]","[7121.188648521128, 165.84376420172524, 334.64504564891183, 125.84506948577844]",None,"[6.235271880643747, 8.157001307055994, 4.674472989159394, 10.040094079588602]",False,742.5635405000066,745.5542514999397,745.5542514999397,746.7563032000326,None,0,,3.577691800193861,4.598114600172266,None,1,None,1,,,,,,,hoavur,001,fr,0,0,2022-05-04_14h52.44.533,Cluster,2022.1.1,30.70948428688437,
,,,,4,0,4,0,4,0,4,0,,,time,,,,,,,,,,,,,,,,,,,,,,,,,,,,,,,,,,,,,,,,,,,,,,,,,,,,,,,,,,,,,,,,,,,,,,,,,,,,,,,,,,,,,,,,,,,,,,,,,,,,,,,,,,,,,,,,,,,747.1933475999394,None,5656.85424949238,-2.0,0.00010208999268889497,1,"[0.4642317475196736, 0.4642317475196736, 0.4642317475196736, 0.4642317475196736]","[1956.7207061310307, 5089.1736098520905, 6714.480011912818, 497.99228765167186]",None,"[11.0, 9.0, 6.0, 6.372481883993501]",False,748.2004339999985,750.6268814000068,750.6268814000068,751.8495032000355,['space'],1,[0.18385640007909387],2.90260990022216,3.9267033002106473,None,1,None,1,,,,,,,hoavur,001,fr,0,0,2022-05-04_14h52.44.533,Cluster,2022.1.1,30.70948428688437,
,,,,4,0,4,0,5,0,5,0,,,time,,,,,,,,,,,,,,,,,,,,,,,,,,,,,,,,,,,,,,,,,,,,,,,,,,,,,,,,,,,,,,,,,,,,,,,,,,,,,,,,,,,,,,,,,,,,,,,,,,,,,,,,,,,,,,,,,,,752.156487399945,None,,,,,"[0.6148749636654165, 0.6148749636654165, 0.6148749636654165, 0.6148749636654165]","[524.1991015270445, 1242.91924154255, 1889.1675127939832, 142.44295972144081]",None,"[6.223602336188723, 7.224440241281819, 10.61849427374204, 9.477597685312794]",True,753.1483780000126,756.0163990999572,756.0163990999572,757.2198947999859,['space'],0,[0.2927023000083864],3.477531100041233,4.481958000105806,None,1,None,1,,0,,,,,hoavur,001,fr,0,0,2022-05-04_14h52.44.533,Cluster,2022.1.1,30.70948428688437,
,,,,4,0,4,0,6,0,6,0,,,time,,,,,,,,,,,,,,,,,,,,,,,,,,,,,,,,,,,,,,,,,,,,,,,,,,,,,,,,,,,,,,,,,,,,,,,,,,,,,,,,,,,,,,,,,,,,,,,,,,,,,,,,,,,,,,,,,,,757.6822744000237,None,408.8456301444364,0.19046011201268565,7.778955772523711e-05,1,"[0.7773325728060646, 0.7773325728060646, 0.7773325728060646, 0.7773325728060646]","[3563.000607932795, 194.09662530535692, 389.35499853653664, 7276.061122206325]",None,"[17.0, 6.0, 6.0, 6.872770106313241]",False,758.6833359999582,762.056411699974,762.056411699974,763.2830433000345,['space'],1,[0.22840350004844368],4.150212800246663,5.180640600272454,None,1,None,1,,,,,,,hoavur,001,fr,0,0,2022-05-04_14h52.44.533,Cluster,2022.1.1,30.70948428688437,
,,,,4,0,4,0,7,0,7,0,,,none,,,,,,,,,,,,,,,,,,,,,,,,,,,,,,,,,,,,,,,,,,,,,,,,,,,,,,,,,,,,,,,,,,,,,,,,,,,,,,,,,,,,,,,,,,,,,,,,,,,,,,,,,,,,,,,,,,,763.9183962999377,None,926.7306076721526,-0.4474475962992637,3.986268147891428e-05,0,"[0.5744332537108464, 0.7468817713809551, 0.5394563492776341, 0.7355435044671574]","[6665.872040764947, 514.6703574281615, 1638.4766611163484, 389.7201910865988]",None,"[6.0, 6.372481883993501, 9.721088948797641, 6.0]",False,764.9154115000274,767.8124091000063,767.8124091000063,769.0445526000112,None,0,,3.6222420000704005,4.631632900098339,None,1,None,1,,,,,,,hoavur,001,fr,0,0,2022-05-04_14h52.44.533,Cluster,2022.1.1,30.70948428688437,
,,,,4,0,4,0,8,0,8,0,,,both,,,,,,,,,,,,,,,,,,,,,,,,,,,,,,,,,,,,,,,,,,,,,,,,,,,,,,,,,,,,,,,,,,,,,,,,,,,,,,,,,,,,,,,,,,,,,,,,,,,,,,,,,,,,,,,,,,,769.6025437000208,None,1071.7734625362941,-7.0,2.1018482538189457e-05,0,"[0.6132620780196396, 0.6132620780196396, 0.6132620780196396, 0.6132620780196396]","[425.33358047542845, 535.8867312681473, 675.1749730840958, 850.6671609508566]",Major_3rd,"[6.402990539645807, 6.223602336188723, 5.764280545125407, 5.486761195015499]",False,770.6112949999515,773.4617225000402,773.4617225000402,774.6852127000457,None,0,,3.4816737001528963,4.483745400211774,None,1,None,1,,,,,,,hoavur,001,fr,0,0,2022-05-04_14h52.44.533,Cluster,2022.1.1,30.70948428688437,
,,,,4,0,4,0,9,0,9,0,,,none,,,,,,,,,,,,,,,,,,,,,,,,,,,,,,,,,,,,,,,,,,,,,,,,,,,,,,,,,,,,,,,,,,,,,,,,,,,,,,,,,,,,,,,,,,,,,,,,,,,,,,,,,,,,,,,,,,,775.133212100016,None,,,,,"[0.5946715827223605, 0.5052952377377764, 0.7383031853172202, 0.5550448295745066]","[848.6046207961687, 129.56439598632073, 5455.264963222736, 143.57412791829844]",None,"[5.486761195015499, 10.0, 8.0, 9.477597685312794]",True,776.1291719999863,778.9908112999983,778.9908112999983,780.2237426999491,None,1,,3.422885800129734,4.445802600122988,None,1,None,1,,0,,,,,hoavur,001,fr,0,0,2022-05-04_14h52.44.533,Cluster,2022.1.1,30.70948428688437,
,,,,4,0,4,0,10,0,10,0,,,time,,,,,,,,,,,,,,,,,,,,,,,,,,,,,,,,,,,,,,,,,,,,,,,,,,,,,,,,,,,,,,,,,,,,,,,,,,,,,,,,,,,,,,,,,,,,,,,,,,,,,,,,,,,,,,,,,,,780.6236554000061,None,8000.0,1.0,0.0002036901389020564,0,"[0.6808505126213303, 0.6808505126213303, 0.6808505126213303, 0.6808505126213303]","[575.8968226548627, 7190.1760272758065, 5383.201509087045, 737.9204878510119]",None,"[6.051973573215608, 6.235271880643747, 8.0, 5.5706369273676914]",False,781.6343863999937,784.7073539999546,784.7073539999546,785.9312841000501,None,0,,3.770158000057563,4.791975800064392,None,1,None,1,,,,,,,hoavur,001,fr,0,0,2022-05-04_14h52.44.533,Cluster,2022.1.1,30.70948428688437,
,,,,4,0,4,0,11,0,11,0,,,both,,,,,,,,,,,,,,,,,,,,,,,,,,,,,,,,,,,,,,,,,,,,,,,,,,,,,,,,,,,,,,,,,,,,,,,,,,,,,,,,,,,,,,,,,,,,,,,,,,,,,,,,,,,,,,,,,,,786.4606776,None,6249.355269673127,0.0,0.00012762121936247135,1,"[0.6103067033790431, 0.6103067033790431, 0.6103067033790431, 0.6103067033790431]","[1240.0291411502667, 1857.9444377187579, 2783.7712994776816, 4170.944238413606]",Perfect_5th,"[7.224440241281819, 10.61849427374204, 15.870546298537242, 14.0]",False,787.4514269999927,790.3011560000014,790.3011560000014,791.505792299984,['space'],1,[0.1986314000096172],3.4766349002020434,4.483517800224945,None,1,None,1,,,,,,,hoavur,001,fr,0,0,2022-05-04_14h52.44.533,Cluster,2022.1.1,30.70948428688437,
,,,,4,0,4,0,12,0,12,0,,,none,,,,,,,,,,,,,,,,,,,,,,,,,,,,,,,,,,,,,,,,,,,,,,,,,,,,,,,,,,,,,,,,,,,,,,,,,,,,,,,,,,,,,,,,,,,,,,,,,,,,,,,,,,,,,,,,,,,791.990319399978,None,8000.0,-4.0,0.00011454338263838867,0,"[0.7561173745972865, 0.46230019141621753, 0.5754630243635384, 0.7575785939975944]","[171.43622329678223, 964.5536225718294, 240.40519330042022, 3417.8762320236256]",None,"[8.0, 5.552552403700736, 3.8816575338523966, 17.255005123640814]",False,793.0130969999591,795.8391937999986,795.8391937999986,797.0409584000008,None,0,,3.604560900130309,4.636502600158565,None,1,None,1,,,,,,,hoavur,001,fr,0,0,2022-05-04_14h52.44.533,Cluster,2022.1.1,30.70948428688437,
,,,,4,0,4,0,13,0,13,0,,,time,,,,,,,,,,,,,,,,,,,,,,,,,,,,,,,,,,,,,,,,,,,,,,,,,,,,,,,,,,,,,,,,,,,,,,,,,,,,,,,,,,,,,,,,,,,,,,,,,,,,,,,,,,,,,,,,,,,797.6813431000337,None,330.0288822767798,-1.3255270108406054,8.131357665593451e-05,1,"[0.6175359823935318, 0.6175359823935318, 0.6175359823935318, 0.6175359823935318]","[973.8930025066397, 839.5504834404015, 679.270921234011, 2667.400506311679]",None,"[5.744353958799096, 5.505543549071022, 5.764280545125407, 15.0]",False,798.6966477000387,801.5789531000191,801.5789531000191,802.8125884999754,['space'],1,[0.19860530004370958],3.478783300262876,4.509250700240955,None,1,None,1,,,,,,,hoavur,001,fr,0,0,2022-05-04_14h52.44.533,Cluster,2022.1.1,30.70948428688437,
,,,,4,0,4,0,14,0,14,0,,,frequency,,,,,,,,,,,,,,,,,,,,,,,,,,,,,,,,,,,,,,,,,,,,,,,,,,,,,,,,,,,,,,,,,,,,,,,,,,,,,,,,,,,,,,,,,,,,,,,,,,,,,,,,,,,,,,,,,,,803.2678982999641,None,217.63764082403114,-2.0,0.0001833998500082898,1,"[0.415857177877492, 0.6548351709236373, 0.6543055426023303, 0.5854873160163159]","[548.4124898473133, 435.27528164806233, 345.47821999194423, 274.20624492365664]",Major_3rd,"[6.223602336188723, 6.402990539645807, 5.0, 3.455552171016498]",False,804.3508631000295,807.1202965000411,807.1202965000411,808.3220759000396,['space'],1,[0.22146589995827526],3.343611500225961,4.371049100183882,None,1,None,1,,,,,,,hoavur,001,fr,0,0,2022-05-04_14h52.44.533,Cluster,2022.1.1,30.70948428688437,
,,,,4,0,4,0,15,0,15,0,,,time,,,,,,,,,,,,,,,,,,,,,,,,,,,,,,,,,,,,,,,,,,,,,,,,,,,,,,,,,,,,,,,,,,,,,,,,,,,,,,,,,,,,,,,,,,,,,,,,,,,,,,,,,,,,,,,,,,,808.7727497000014,None,,,,,"[0.6709298377243231, 0.6709298377243231, 0.6709298377243231, 0.6709298377243231]","[221.4493717377235, 1048.7887881469426, 1541.0070393991923, 2046.8710948731673]",None,"[4.513812465724815, 6.0, 9.201067646924706, 11.130926003204255]",True,809.7744514000369,812.8242162000388,812.8242162000388,814.0539579000324,None,1,,3.7139460002072155,4.717684200149961,None,1,None,1,,0,,,,,hoavur,001,fr,0,0,2022-05-04_14h52.44.533,Cluster,2022.1.1,30.70948428688437,
,,,,4,0,4,0,16,0,16,0,,,time,,,,,,,,,,,,,,,,,,,,,,,,,,,,,,,,,,,,,,,,,,,,,,,,,,,,,,,,,,,,,,,,,,,,,,,,,,,,,,,,,,,,,,,,,,,,,,,,,,,,,,,,,,,,,,,,,,,814.5391546000028,None,4287.0938501451765,4.0,0.0001643438174819831,1,"[0.6736719976433173, 0.6736719976433173, 0.6736719976433173, 0.6736719976433173]","[5769.726744492976, 1013.6392635672927, 2407.495110807196, 968.264179872324]",None,"[6.891561803284695, 5.744353958799096, 13.0, 5.744353958799096]",False,815.5624055999797,818.6325720000314,818.6325720000314,819.8346614999464,['space'],1,[0.2526462000096217],3.742764500202611,4.7748678001808,None,1,None,1,,,,,,,hoavur,001,fr,0,0,2022-05-04_14h52.44.533,Cluster,2022.1.1,30.70948428688437,
,,,,4,0,4,0,17,0,17,0,,,time,,,,,,,,,,,,,,,,,,,,,,,,,,,,,,,,,,,,,,,,,,,,,,,,,,,,,,,,,,,,,,,,,,,,,,,,,,,,,,,,,,,,,,,,,,,,,,,,,,,,,,,,,,,,,,,,,,,820.3778946000384,None,363.0647267526848,-0.7237091389574278,7.925652906089618e-05,1,"[0.5345722192409895, 0.5345722192409895, 0.5345722192409895, 0.5345722192409895]","[2354.8977353143027, 7814.875868093885, 2214.127862660628, 234.90457926905063]",None,"[13.0, 7.692627719322694, 12.0, 3.8816575338523966]",False,821.3878659999464,824.0149877000367,824.0149877000367,825.2356893999968,['space'],1,[0.8962289999471977],3.178899400285445,4.211619000299834,None,1,['space'],0,[0.1251680999994278],,,,,,hoavur,001,fr,0,0,2022-05-04_14h52.44.533,Cluster,2022.1.1,30.70948428688437,
,,,,4,0,4,0,18,0,18,0,,,none,,,,,,,,,,,,,,,,,,,,,,,,,,,,,,,,,,,,,,,,,,,,,,,,,,,,,,,,,,,,,,,,,,,,,,,,,,,,,,,,,,,,,,,,,,,,,,,,,,,,,,,,,,,,,,,,,,,825.6587584000081,None,128.94328560804823,4.0,0.0010897940172018173,1,"[0.6004325708093754, 0.6985589823153306, 0.594740498215386, 0.7513846506367126]","[927.3926674787571, 7783.6574976180245, 496.8484181309693, 5607.681501275971]",None,"[5.552552403700736, 7.692627719322694, 6.372481883993501, 7.0]",False,826.657251299941,829.5736120999791,829.5736120999791,830.7800987999653,['space'],1,[0.29133829998318106],3.6811977000907063,4.710092900088057,None,1,None,1,,,,,,,hoavur,001,fr,0,0,2022-05-04_14h52.44.533,Cluster,2022.1.1,30.70948428688437,
,,,,4,0,4,0,19,0,19,0,,,frequency,,,,,,,,,,,,,,,,,,,,,,,,,,,,,,,,,,,,,,,,,,,,,,,,,,,,,,,,,,,,,,,,,,,,,,,,,,,,,,,,,,,,,,,,,,,,,,,,,,,,,,,,,,,,,,,,,,,831.4302708000178,None,242.34766517756591,-2.4795503042737765,0.00013715956211219298,1,"[0.6001664763824398, 0.45253963076659875, 0.7341853072361534, 0.7379080254305695]","[152.669462375045, 171.36567745178377, 192.35146932245254, 215.90722425099761]",Tone,"[9.0, 8.0, 6.0, 4.513812465724815]",False,832.4303556999657,835.2469766000286,835.2469766000286,836.4811428999528,['space'],1,[0.2365478000137955],3.546187800122425,4.57633740012534,None,1,None,1,,,,,,,hoavur,001,fr,0,0,2022-05-04_14h52.44.533,Cluster,2022.1.1,30.70948428688437,
,,,,5,0,5,0,0,0,0,0,,,frequency,,,,,,,,,,,,,,,,,,,,,,,,,,,,,,,,,,,,,,,,,,,,,,,,,,,,,,,,,,,,,,,,,,,,,,,,,,,,,,,,,,,,,,,,,,,,,,,,,,,,,,,,,,,,,,,,,,,843.9567425999558,None,,,,,"[0.6043013770455159, 0.6503890344718561, 0.6639623333337237, 0.5602141256922195]","[209.58071369205112, 186.7151891751858, 166.34432269350398, 148.19594385756565]",Tone,"[5.0, 6.298427577435086, 8.0, 9.0]",True,844.928337899968,847.8639889999758,847.8639889999758,849.0952839000383,None,1,,3.491002300172113,4.497697200160474,None,1,None,1,,0,,,,,hoavur,001,fr,0,0,2022-05-04_14h52.44.533,Cluster,2022.1.1,30.70948428688437,
,,,,5,0,5,0,1,0,1,0,,,both,,,,,,,,,,,,,,,,,,,,,,,,,,,,,,,,,,,,,,,,,,,,,,,,,,,,,,,,,,,,,,,,,,,,,,,,,,,,,,,,,,,,,,,,,,,,,,,,,,,,,,,,,,,,,,,,,,,849.4831136999419,None,1866.0659830736151,-3.0,4.868135812041065e-05,1,"[0.5298378885849753, 0.5298378885849753, 0.5298378885849753, 0.5298378885849753]","[4702.1916251344355, 3732.1319661472303, 2962.195104573129, 2351.0958125672178]",Major_3rd,"[11.0, 16.630445642002396, 16.76202069126697, 13.0]",False,850.4933466999792,853.0978397999424,853.0978397999424,854.3304674000246,['space'],1,[0.3184676000382751],3.147660200134851,4.1819709001574665,None,1,None,1,,,,,,,hoavur,001,fr,0,0,2022-05-04_14h52.44.533,Cluster,2022.1.1,30.70948428688437,
,,,,5,0,5,0,2,0,2,0,,,none,,,,,,,,,,,,,,,,,,,,,,,,,,,,,,,,,,,,,,,,,,,,,,,,,,,,,,,,,,,,,,,,,,,,,,,,,,,,,,,,,,,,,,,,,,,,,,,,,,,,,,,,,,,,,,,,,,,854.7138475000393,None,1741.101126592249,-3.0,4.4686737719638414e-05,0,"[0.6525016536551427, 0.5117888300408318, 0.7203883187178097, 0.45726441775743265]","[2822.0346249306212, 189.8035914748327, 276.9673798866757, 427.82805889565554]",None,"[15.870546298537242, 6.298427577435086, 3.455552171016498, 6.402990539645807]",False,855.73743009998,858.6366290999576,858.6366290999576,859.8473439000081,None,0,,3.374601300107315,4.401062200078741,None,1,None,1,,,,,,,hoavur,001,fr,0,0,2022-05-04_14h52.44.533,Cluster,2022.1.1,30.70948428688437,
,,,,5,0,5,0,3,0,3,0,,,time,,,,,,,,,,,,,,,,,,,,,,,,,,,,,,,,,,,,,,,,,,,,,,,,,,,,,,,,,,,,,,,,,,,,,,,,,,,,,,,,,,,,,,,,,,,,,,,,,,,,,,,,,,,,,,,,,,,860.1885531999869,None,615.5722066724584,0.0,5.34153907348926e-05,1,"[0.4355792629928143, 0.4355792629928143, 0.4355792629928143, 0.4355792629928143]","[5190.128342430869, 1797.3051270586857, 1482.6492540458535, 214.1675141566479]",None,"[9.0, 10.181407649142432, 9.0, 4.513812465724815]",False,861.204793700017,863.5306595000438,863.5306595000438,864.7528406999772,['space'],1,[0.35187160002533346],2.7781039000255987,3.7956704000243917,None,1,None,1,,,,,,,hoavur,001,fr,0,0,2022-05-04_14h52.44.533,Cluster,2022.1.1,30.70948428688437,
,,,,5,0,5,0,4,0,4,0,,,none,,,,,,,,,,,,,,,,,,,,,,,,,,,,,,,,,,,,,,,,,,,,,,,,,,,,,,,,,,,,,,,,,,,,,,,,,,,,,,,,,,,,,,,,,,,,,,,,,,,,,,,,,,,,,,,,,,,865.0403592999792,None,340.1441242119799,-1.0,8.207841492111997e-05,1,"[0.5573026769482974, 0.7132649637548936, 0.5950301032365216, 0.5994319698264462]","[493.6571265974498, 172.00086545281508, 3551.3950785115626, 382.8087167823951]",None,"[6.372481883993501, 7.2639064192810725, 17.0, 5.798875134321018]",False,866.033934499952,868.9169249000261,868.9169249000261,870.1237458999967,['space'],1,[0.2524829999310896],3.4795146002434194,4.506041600136086,None,1,None,1,,,,,,,hoavur,001,fr,0,0,2022-05-04_14h52.44.533,Cluster,2022.1.1,30.70948428688437,
,,,,5,0,5,0,5,0,5,0,,,none,,,,,,,,,,,,,,,,,,,,,,,,,,,,,,,,,,,,,,,,,,,,,,,,,,,,,,,,,,,,,,,,,,,,,,,,,,,,,,,,,,,,,,,,,,,,,,,,,,,,,,,,,,,,,,,,,,,870.5969948000275,None,217.63764082403114,-6.0,0.00011571748233929631,1,"[0.6593217482166505, 0.7369060848985558, 0.7488493430186843, 0.7150841008410321]","[941.634680474607, 137.0145738290309, 4005.6049865178197, 5193.430715971443]",None,"[5.552552403700736, 9.84743044909529, 15.433228278353976, 8.190272585555226]",False,872.736856100033,875.9031909999903,875.9031909999903,877.1332352999598,['space'],1,[0.37677019997499883],3.8778351004002616,4.901845900341868,None,1,None,1,,,,,,,hoavur,001,fr,0,0,2022-05-04_14h52.44.533,Cluster,2022.1.1,30.70948428688437,
,,,,5,0,5,0,6,0,6,0,,,frequency,,,,,,,,,,,,,,,,,,,,,,,,,,,,,,,,,,,,,,,,,,,,,,,,,,,,,,,,,,,,,,,,,,,,,,,,,,,,,,,,,,,,,,,,,,,,,,,,,,,,,,,,,,,,,,,,,,,877.6906729999464,None,164.93848884661182,-3.0,0.00027831859114393215,0,"[0.4047354059381437, 0.4682245982365627, 0.7122107126787997, 0.40635492865707823]","[261.82353070515677, 233.25824788420192, 207.809474035697, 185.13719403582058]",Tone,"[3.455552171016498, 3.8816575338523966, 5.0, 6.298427577435086]",False,878.699357299949,881.2992010000162,881.2992010000162,882.5153538000304,None,0,,3.0371538002509624,4.05718290025834,None,1,None,1,,,,,,,hoavur,001,fr,0,0,2022-05-04_14h52.44.533,Cluster,2022.1.1,30.70948428688437,
,,,,5,0,5,0,7,0,7,0,,,none,,,,,,,,,,,,,,,,,,,,,,,,,,,,,,,,,,,,,,,,,,,,,,,,,,,,,,,,,,,,,,,,,,,,,,,,,,,,,,,,,,,,,,,,,,,,,,,,,,,,,,,,,,,,,,,,,,,882.7924061999656,None,,,,,"[0.6061715889653322, 0.5817624693642667, 0.6300473765328205, 0.4583333184139002]","[302.0113678316076, 280.21712337188643, 128.8218710974783, 2089.298403802395]",None,"[4.0, 3.6675546830051218, 10.0, 11.778488868989728]",True,883.7863792999415,886.638182500028,886.638182500028,887.8503167999443,None,1,,3.3111556001240388,4.324906300054863,None,1,None,1,,0,,,,,hoavur,001,fr,0,0,2022-05-04_14h52.44.533,Cluster,2022.1.1,30.70948428688437,
,,,,5,0,5,0,8,0,8,0,,,both,,,,,,,,,,,,,,,,,,,,,,,,,,,,,,,,,,,,,,,,,,,,,,,,,,,,,,,,,,,,,,,,,,,,,,,,,,,,,,,,,,,,,,,,,,,,,,,,,,,,,,,,,,,,,,,,,,,888.1659501999384,None,255.67013055580355,-2.4795503042737765,0.00012137514113237937,1,"[0.7319828287862844, 0.7319828287862844, 0.7319828287862844, 0.7319828287862844]","[644.2483586332547, 511.34026111160716, 405.8510342011295, 322.1241793166273]",Major_3rd,"[5.764280545125407, 6.372481883993501, 6.190460112012685, 4.674472989159394]",False,889.1588214000221,892.3911715999711,892.3911715999711,893.5963087000418,['space'],1,[0.29023080004844815],3.950011500157416,4.975842600106262,None,1,None,1,,,,,,,hoavur,001,fr,0,0,2022-05-04_14h52.44.533,Cluster,2022.1.1,30.70948428688437,
,,,,5,0,5,0,9,0,9,0,,,none,,,,,,,,,,,,,,,,,,,,,,,,,,,,,,,,,,,,,,,,,,,,,,,,,,,,,,,,,,,,,,,,,,,,,,,,,,,,,,,,,,,,,,,,,,,,,,,,,,,,,,,,,,,,,,,,,,,894.1915079000173,None,859.2437830921407,-0.5132388049845009,3.7753837109958265e-05,1,"[0.5773637800317969, 0.6686414687343014, 0.5786508377596655, 0.4253923489270275]","[1310.1963384294313, 4918.3977324393045, 5078.473886275286, 326.8499943286752]",None,"[7.903959307362302, 9.904700882725713, 9.0, 4.674472989159394]",False,895.1809668999631,898.0340481000021,898.0340481000021,899.2646645000204,['space'],1,[0.4047990000108257],3.2683692002901807,4.288130100234412,None,1,None,1,,,,,,,hoavur,001,fr,0,0,2022-05-04_14h52.44.533,Cluster,2022.1.1,30.70948428688437,
,,,,5,0,5,0,10,0,10,0,,,both,,,,,,,,,,,,,,,,,,,,,,,,,,,,,,,,,,,,,,,,,,,,,,,,,,,,,,,,,,,,,,,,,,,,,,,,,,,,,,,,,,,,,,,,,,,,,,,,,,,,,,,,,,,,,,,,,,,899.528221799992,None,8000.0,-5.0,0.00010208689723347648,0,"[0.4035641253636981, 0.4035641253636981, 0.4035641253636981, 0.4035641253636981]","[5039.684199579492, 5656.8542494923795, 6349.604207872798, 7127.189745122714]",Tone,"[9.0, 6.891561803284695, 6.0, 6.235271880643747]",False,900.54318040004,902.7690964000067,902.7690964000067,903.9998493000166,None,0,,2.642707700142637,3.653268700116314,None,1,None,1,,,,,,,hoavur,001,fr,0,0,2022-05-04_14h52.44.533,Cluster,2022.1.1,30.70948428688437,
,,,,5,0,5,0,11,0,11,0,,,time,,,,,,,,,,,,,,,,,,,,,,,,,,,,,,,,,,,,,,,,,,,,,,,,,,,,,,,,,,,,,,,,,,,,,,,,,,,,,,,,,,,,,,,,,,,,,,,,,,,,,,,,,,,,,,,,,,,904.2350917999865,None,1439.6787190536215,2.583196466424153,6.704868189642558e-05,1,"[0.5532752822529299, 0.5532752822529299, 0.5532752822529299, 0.5532752822529299]","[141.25677175085954, 5700.116071599645, 161.58287280308545, 4765.028261861616]",None,"[9.477597685312794, 6.891561803284695, 8.157001307055994, 11.0]",False,905.2358875999926,907.8986481999746,907.8986481999746,909.1154035000363,['space'],1,[0.34840999997686595],3.237471800064668,4.242436400149018,None,1,None,1,,,,,,,hoavur,001,fr,0,0,2022-05-04_14h52.44.533,Cluster,2022.1.1,30.70948428688437,
,,,,5,0,5,0,12,0,12,0,,,both,,,,,,,,,,,,,,,,,,,,,,,,,,,,,,,,,,,,,,,,,,,,,,,,,,,,,,,,,,,,,,,,,,,,,,,,,,,,,,,,,,,,,,,,,,,,,,,,,,,,,,,,,,,,,,,,,,,909.536844199989,None,4661.999858503684,5.845938119173599,0.00025382361203544416,1,"[0.7090527852611469, 0.7090527852611469, 0.7090527852611469, 0.7090527852611469]","[7400.463479664346, 6593.063427677361, 5873.751756335712, 5232.917910394052]",Tone,"[6.872770106313241, 6.0, 6.139549794679203, 8.190272585555226]",False,910.5623918999918,913.7215517000295,913.7215517000295,914.9534315000055,['space'],1,[0.2963755000382662],3.851843800046481,4.877171900123358,None,1,None,1,,,,,,,hoavur,001,fr,0,0,2022-05-04_14h52.44.533,Cluster,2022.1.1,30.70948428688437,
,,,,5,0,5,0,13,0,13,0,,,time,,,,,,,,,,,,,,,,,,,,,,,,,,,,,,,,,,,,,,,,,,,,,,,,,,,,,,,,,,,,,,,,,,,,,,,,,,,,,,,,,,,,,,,,,,,,,,,,,,,,,,,,,,,,,,,,,,,915.496688400046,None,5278.031643091578,-4.0,8.990717583908555e-05,1,"[0.7344904979424728, 0.7344904979424728, 0.7344904979424728, 0.7344904979424728]","[4606.625045059146, 205.56366719537672, 602.451197445978, 249.65738895514343]",None,"[11.8459381191736, 5.349834201550752, 5.893675222621583, 3.5204496957262235]",False,916.5643196000019,919.8108422999503,919.8108422999503,921.0503249999601,['space'],1,[0.37911700003314763],3.9771912002470344,5.006813200190663,None,1,None,1,,,,,,,hoavur,001,fr,0,0,2022-05-04_14h52.44.533,Cluster,2022.1.1,30.70948428688437,
,,,,5,0,5,0,14,0,14,0,,,time,,,,,,,,,,,,,,,,,,,,,,,,,,,,,,,,,,,,,,,,,,,,,,,,,,,,,,,,,,,,,,,,,,,,,,,,,,,,,,,,,,,,,,,,,,,,,,,,,,,,,,,,,,,,,,,,,,,921.6119121999945,None,281.2971944260671,-2.3324453169948782,0.00010269243096425443,1,"[0.5230116983570477, 0.5230116983570477, 0.5230116983570477, 0.5230116983570477]","[6485.924161732758, 299.64605962098386, 449.2490497498972, 2098.7035657718634]",None,"[5.941083008503014, 4.0, 6.402990539645807, 11.778488868989728]",False,922.6121816999512,925.1963025999721,925.1963025999721,926.431209399947,['space'],1,[0.21616259997244924],3.1141985000576824,4.140656800125726,None,1,None,1,,,,,,,hoavur,001,fr,0,0,2022-05-04_14h52.44.533,Cluster,2022.1.1,30.70948428688437,
,,,,5,0,5,0,15,0,15,0,,,both,,,,,,,,,,,,,,,,,,,,,,,,,,,,,,,,,,,,,,,,,,,,,,,,,,,,,,,,,,,,,,,,,,,,,,,,,,,,,,,,,,,,,,,,,,,,,,,,,,,,,,,,,,,,,,,,,,,926.8084528000327,None,125.0,2.0,0.000909850429304992,1,"[0.7553052229390972, 0.7553052229390972, 0.7553052229390972, 0.7553052229390972]","[314.9802624737183, 250.00000000000003, 198.42513149602496, 157.49013123685916]",Major_3rd,"[4.109296637790383, 3.5204496957262235, 5.349834201550752, 8.904945631699892]",False,927.8242004000349,931.1224905999843,931.1224905999843,932.3366253999993,['space'],1,[0.24164709995966405],4.083286500186659,5.087325100204907,None,1,None,1,,,,,,,hoavur,001,fr,0,0,2022-05-04_14h52.44.533,Cluster,2022.1.1,30.70948428688437,
,,,,5,0,5,0,16,0,16,0,,,none,,,,,,,,,,,,,,,,,,,,,,,,,,,,,,,,,,,,,,,,,,,,,,,,,,,,,,,,,,,,,,,,,,,,,,,,,,,,,,,,,,,,,,,,,,,,,,,,,,,,,,,,,,,,,,,,,,,932.9479620000347,None,,,,,"[0.4452443994531754, 0.7048443890128153, 0.5897602839385307, 0.48731840434165696]","[2153.157738734173, 5351.371635649128, 5180.686747726495, 643.5165544629576]",None,"[11.778488868989728, 8.0, 9.0, 5.764280545125407]",True,933.9354974000016,936.6904552000342,936.6904552000342,937.9098856999772,None,1,,3.241887300158851,4.267611900228076,None,1,None,1,,0,,,,,hoavur,001,fr,0,0,2022-05-04_14h52.44.533,Cluster,2022.1.1,30.70948428688437,
,,,,5,0,5,0,17,0,17,0,,,both,,,,,,,,,,,,,,,,,,,,,,,,,,,,,,,,,,,,,,,,,,,,,,,,,,,,,,,,,,,,,,,,,,,,,,,,,,,,,,,,,,,,,,,,,,,,,,,,,,,,,,,,,,,,,,,,,,,938.266420800006,None,210.92078068227516,-1.0,0.00021750652702801247,0,"[0.4997782609823573, 0.4997782609823573, 0.4997782609823573, 0.4997782609823573]","[132.8717657209292, 149.14351431359734, 167.40793456849875, 187.9090531389986]",Tone,"[9.84743044909529, 9.0, 8.0, 6.298427577435086]",False,939.2925888999598,941.8153415999841,941.8153415999841,943.0199054999975,None,0,,3.015253300196491,4.048242000164464,None,1,None,1,,,,,,,hoavur,001,fr,0,0,2022-05-04_14h52.44.533,Cluster,2022.1.1,30.70948428688437,
,,,,5,0,5,0,18,0,18,0,,,frequency,,,,,,,,,,,,,,,,,,,,,,,,,,,,,,,,,,,,,,,,,,,,,,,,,,,,,,,,,,,,,,,,,,,,,,,,,,,,,,,,,,,,,,,,,,,,,,,,,,,,,,,,,,,,,,,,,,,943.4020073999418,None,3133.5140730114963,11.0,0.00023935378301416906,1,"[0.5277728967551515, 0.6305872066056661, 0.6364744263588176, 0.5604693528008986]","[621.7679419819509, 931.5993076466069, 1395.821835460328, 2091.369734129208]",Perfect_5th,"[5.893675222621583, 5.552552403700736, 8.583196466424154, 11.778488868989728]",False,944.4210288999602,947.2398907999741,947.2398907999741,948.4556821000297,['space'],1,[0.18215859995689243],3.3889617001404986,4.407714700209908,None,1,None,1,,,,,,,hoavur,001,fr,0,0,2022-05-04_14h52.44.533,Cluster,2022.1.1,30.70948428688437,
,,,,5,0,5,0,19,0,19,0,,,frequency,,,,,,,,,,,,,,,,,,,,,,,,,,,,,,,,,,,,,,,,,,,,,,,,,,,,,,,,,,,,,,,,,,,,,,,,,,,,,,,,,,,,,,,,,,,,,,,,,,,,,,,,,,,,,,,,,,,948.8825832000002,None,1741.101126592249,-3.0,4.4686737719638414e-05,0,"[0.49867833382699334, 0.5533159553700371, 0.4101242685436158, 0.7592247529139485]","[2763.825759935554, 2462.288826689834, 2193.649959389253, 1954.319936868493]",Tone,"[15.870546298537242, 13.644897925100949, 12.0, 11.0]",False,950.8173930000048,953.3082725999411,953.3082725999411,954.5324819999514,None,0,,3.251637000357732,4.271590100368485,None,1,None,1,,,,,,,hoavur,001,fr,0,0,2022-05-04_14h52.44.533,Cluster,2022.1.1,30.70948428688437,
,,,,6,0,6,0,0,0,0,0,,,both,,,,,,,,,,,,,,,,,,,,,,,,,,,,,,,,,,,,,,,,,,,,,,,,,,,,,,,,,,,,,,,,,,,,,,,,,,,,,,,,,,,,,,,,,,,,,,,,,,,,,,,,,,,,,,,,,,,983.3830745000159,None,,,,,"[0.6456281454421955, 0.6456281454421955, 0.6456281454421955, 0.6456281454421955]","[666.3765705127689, 839.5818683457927, 1057.8068690389302, 1332.7531410255374]",Major_3rd,"[5.764280545125407, 5.505543549071022, 6.0, 8.0]",True,984.3778412999818,987.3307755000424,987.3307755000424,988.5596181999426,None,1,,3.6136961000738665,4.644484500051476,None,1,None,1,,0,,,,,hoavur,001,fr,0,0,2022-05-04_14h52.44.533,Cluster,2022.1.1,30.70948428688437,
,,,,6,0,6,0,1,0,1,0,,,time,,,,,,,,,,,,,,,,,,,,,,,,,,,,,,,,,,,,,,,,,,,,,,,,,,,,,,,,,,,,,,,,,,,,,,,,,,,,,,,,,,,,,,,,,,,,,,,,,,,,,,,,,,,,,,,,,,,989.0800969999982,None,1148.6983549970344,-4.0,3.1719530630873536e-05,0,"[0.4679061872433323, 0.4679061872433323, 0.4679061872433323, 0.4679061872433323]","[186.16216435557203, 3089.1421063561006, 1303.7508203039504, 455.33477808249404]",None,"[6.298427577435086, 17.0, 7.903959307362302, 6.44997255490173]",False,990.0967078999383,992.5291503999615,992.5291503999615,993.7333269000519,None,0,,2.9195603001862764,3.9428447001846507,None,1,None,1,,,,,,,hoavur,001,fr,0,0,2022-05-04_14h52.44.533,Cluster,2022.1.1,30.70948428688437,
,,,,6,0,6,0,2,0,2,0,,,frequency,,,,,,,,,,,,,,,,,,,,,,,,,,,,,,,,,,,,,,,,,,,,,,,,,,,,,,,,,,,,,,,,,,,,,,,,,,,,,,,,,,,,,,,,,,,,,,,,,,,,,,,,,,,,,,,,,,,994.0748191999737,None,193.25692467071406,0.0,0.0002900003512273584,1,"[0.769186022641892, 0.43160147699614293, 0.7887970340007783, 0.7998585651990266]","[973.9538697223219, 650.0362207142424, 433.8471270317198, 289.5582178895546]",Perfect_5th,"[5.744353958799096, 5.764280545125407, 6.402990539645807, 3.6675546830051218]",False,995.0660528000444,998.1021716999821,998.1021716999821,999.3082705000415,['space'],1,[0.3718976000091061],3.8156217000214383,4.833889500005171,None,1,None,1,,,,,,,hoavur,001,fr,0,0,2022-05-04_14h52.44.533,Cluster,2022.1.1,30.70948428688437,
,,,,6,0,6,0,3,0,3,0,,,none,,,,,,,,,,,,,,,,,,,,,,,,,,,,,,,,,,,,,,,,,,,,,,,,,,,,,,,,,,,,,,,,,,,,,,,,,,,,,,,,,,,,,,,,,,,,,,,,,,,,,,,,,,,,,,,,,,,999.963074099971,None,164.93848884661182,-5.0,0.00022107631519430862,0,"[0.5903479578915174, 0.4983608332383257, 0.6332409140240651, 0.4461076182323918]","[7805.345426474416, 5279.1911388446315, 164.2469668393007, 2878.96623039677]",None,"[7.692627719322694, 8.190272585555226, 8.157001307055994, 16.0]",False,1000.9936794999521,1003.744794499944,1003.744794499944,1004.9717173000099,None,0,,3.191964900121093,4.221251800190657,None,1,None,1,,,,,,,hoavur,001,fr,0,0,2022-05-04_14h52.44.533,Cluster,2022.1.1,30.70948428688437,
,,,,6,0,6,0,4,0,4,0,,,frequency,,,,,,,,,,,,,,,,,,,,,,,,,,,,,,,,,,,,,,,,,,,,,,,,,,,,,,,,,,,,,,,,,,,,,,,,,,,,,,,,,,,,,,,,,,,,,,,,,,,,,,,,,,,,,,,,,,,1005.2594821000239,None,,,,,"[0.439025316537909, 0.4779275463784349, 0.5078387382795059, 0.6619249673167195]","[180.09305456466595, 226.90303038588857, 285.879904268117, 360.1861091293318]",Major_3rd,"[7.0, 4.0, 3.6675546830051218, 5.276290861042572]",True,1006.2745363999857,1008.7164855999872,1008.7164855999872,1009.9327543999534,None,1,,3.107087300159037,4.125870400224812,None,1,None,1,,0,,,,,hoavur,001,fr,0,0,2022-05-04_14h52.44.533,Cluster,2022.1.1,30.70948428688437,
,,,,6,0,6,0,5,0,5,0,,,none,,,,,,,,,,,,,,,,,,,,,,,,,,,,,,,,,,,,,,,,,,,,,,,,,,,,,,,,,,,,,,,,,,,,,,,,,,,,,,,,,,,,,,,,,,,,,,,,,,,,,,,,,,,,,,,,,,,1010.4541277999524,None,330.199674763918,-1.3255270108406054,8.12755128569204e-05,1,"[0.7224357950849194, 0.6279492027208012, 0.7893447953881096, 0.42563498101591263]","[761.6008589899621, 815.4535909630974, 1459.0584697251488, 274.5092983263725]",None,"[5.5706369273676914, 5.505543549071022, 9.0, 3.455552171016498]",False,1011.4541405000491,1014.6277651999844,1014.6277651999844,1015.8500994000351,['space'],1,[0.25041109998710454],3.5974751001922414,4.631287600146607,None,1,None,1,,,,,,,hoavur,001,fr,0,0,2022-05-04_14h52.44.533,Cluster,2022.1.1,30.70948428688437,
,,,,6,0,6,0,6,0,6,0,,,frequency,,,,,,,,,,,,,,,,,,,,,,,,,,,,,,,,,,,,,,,,,,,,,,,,,,,,,,,,,,,,,,,,,,,,,,,,,,,,,,,,,,,,,,,,,,,,,,,,,,,,,,,,,,,,,,,,,,,1016.1487509999424,None,125.0,3.0,0.001020868972334765,1,"[0.7932973438211783, 0.5834693360566575, 0.4312287581464962, 0.4049057144869905]","[314.9802624737183, 250.00000000000003, 198.42513149602496, 157.49013123685916]",Major_3rd,"[4.109296637790383, 3.5204496957262235, 5.349834201550752, 8.904945631699892]",False,1017.1660812000046,1020.0060767999385,1020.0060767999385,1021.2304638000205,['space'],1,[0.25796339998487383],3.229018200188875,4.2449760001618415,None,1,None,1,,,,,,,hoavur,001,fr,0,0,2022-05-04_14h52.44.533,Cluster,2022.1.1,30.70948428688437,
,,,,6,0,6,0,7,0,7,0,,,time,,,,,,,,,,,,,,,,,,,,,,,,,,,,,,,,,,,,,,,,,,,,,,,,,,,,,,,,,,,,,,,,,,,,,,,,,,,,,,,,,,,,,,,,,,,,,,,,,,,,,,,,,,,,,,,,,,,1021.4561869000318,None,1472.8511322053992,3.0,6.918123172932498e-05,0,"[0.7114959980008233, 0.7114959980008233, 0.7114959980008233, 0.7114959980008233]","[688.0994105333639, 3204.7053805040673, 3313.2981973234773, 7577.796754630201]",None,"[5.6586428705152665, 17.27513827088565, 17.27513827088565, 7.0]",False,1022.4595639000181,1025.6211627000012,1025.6211627000012,1026.8366922000423,None,0,,3.8717586001148447,4.88239340018481,None,1,['space'],0,[0.5350877000018954],,,,,,hoavur,001,fr,0,0,2022-05-04_14h52.44.533,Cluster,2022.1.1,30.70948428688437,
,,,,6,0,6,0,8,0,8,0,,,both,,,,,,,,,,,,,,,,,,,,,,,,,,,,,,,,,,,,,,,,,,,,,,,,,,,,,,,,,,,,,,,,,,,,,,,,,,,,,,,,,,,,,,,,,,,,,,,,,,,,,,,,,,,,,,,,,,,1027.4010665999958,None,329.87697769322364,-7.0,4.232726358590751e-05,0,"[0.7296353331493192, 0.7296353331493192, 0.7296353331493192, 0.7296353331493192]","[130.9117653525784, 164.93848884661188, 207.80947403569704, 261.82353070515677]",Major_3rd,"[9.84743044909529, 8.157001307055994, 5.0, 3.455552171016498]",False,1028.4020503000356,1031.6086310000392,1031.6086310000392,1032.833498000051,None,0,,3.9655716001288965,4.973137300112285,None,1,None,1,,,,,,,hoavur,001,fr,0,0,2022-05-04_14h52.44.533,Cluster,2022.1.1,30.70948428688437,
,,,,6,0,6,0,9,0,9,0,,,time,,,,,,,,,,,,,,,,,,,,,,,,,,,,,,,,,,,,,,,,,,,,,,,,,,,,,,,,,,,,,,,,,,,,,,,,,,,,,,,,,,,,,,,,,,,,,,,,,,,,,,,,,,,,,,,,,,,1033.4093507999787,None,125.0,2.0,0.000909850429304992,1,"[0.46997914276697417, 0.46997914276697417, 0.46997914276697417, 0.46997914276697417]","[1360.6670773473886, 151.95233300500905, 284.2086928874131, 138.63997416821346]",None,"[8.0, 9.0, 3.6675546830051218, 9.84743044909529]",False,1034.4498395000119,1036.8801026999718,1036.8801026999718,1038.1138971999753,['space'],1,[0.2654535999754444],2.899897000286728,3.9096508002839983,None,1,None,1,,,,,,,hoavur,001,fr,0,0,2022-05-04_14h52.44.533,Cluster,2022.1.1,30.70948428688437,
,,,,6,0,6,0,10,0,10,0,,,time,,,,,,,,,,,,,,,,,,,,,,,,,,,,,,,,,,,,,,,,,,,,,,,,,,,,,,,,,,,,,,,,,,,,,,,,,,,,,,,,,,,,,,,,,,,,,,,,,,,,,,,,,,,,,,,,,,,1038.4019147000508,None,2889.811802754145,10.0,0.00019502189143656007,1,"[0.5952486605950738, 0.5952486605950738, 0.5952486605950738, 0.5952486605950738]","[1349.462411721357, 308.6723623826564, 185.38335861436758, 264.8576373406224]",None,"[8.0, 4.109296637790383, 6.298427577435086, 3.455552171016498]",False,1039.400561699993,1042.2179939999478,1042.2179939999478,1043.441174000036,['space'],1,[0.2205004000570625],3.408576200250536,4.41938780026976,None,1,None,1,,,,,,,hoavur,001,fr,0,0,2022-05-04_14h52.44.533,Cluster,2022.1.1,30.70948428688437,
,,,,6,0,6,0,11,0,11,0,,,frequency,,,,,,,,,,,,,,,,,,,,,,,,,,,,,,,,,,,,,,,,,,,,,,,,,,,,,,,,,,,,,,,,,,,,,,,,,,,,,,,,,,,,,,,,,,,,,,,,,,,,,,,,,,,,,,,,,,,1043.8805031999946,None,,,,,"[0.5518995760487457, 0.6867117488435588, 0.6576380372920276, 0.5113839706775049]","[338.66060079125594, 426.68561970694765, 537.590193956222, 677.3212015825117]",Major_3rd,"[5.0, 6.402990539645807, 6.223602336188723, 5.764280545125407]",True,1044.8727506999858,1047.7898969999515,1047.7898969999515,1049.012804399943,None,1,,3.4169550000224262,4.432833300088532,None,1,None,1,,0,,,,,hoavur,001,fr,0,0,2022-05-04_14h52.44.533,Cluster,2022.1.1,30.70948428688437,
,,,,6,0,6,0,12,0,12,0,,,time,,,,,,,,,,,,,,,,,,,,,,,,,,,,,,,,,,,,,,,,,,,,,,,,,,,,,,,,,,,,,,,,,,,,,,,,,,,,,,,,,,,,,,,,,,,,,,,,,,,,,,,,,,,,,,,,,,,1049.355778499972,None,8000.0,4.0,0.0002877199686685786,1,"[0.6890726785459432, 0.6890726785459432, 0.6890726785459432, 0.6890726785459432]","[2546.108110279516, 2304.4108383598277, 3450.549614460085, 2963.096433967212]",None,"[14.0, 12.62177133348687, 17.255005123640814, 16.76202069126697]",False,1050.358590799966,1053.4470620000502,1053.4470620000502,1054.6636665000115,['space'],1,[0.26546000002417713],3.7826616000384092,4.78665860008914,None,1,None,1,,,,,,,hoavur,001,fr,0,0,2022-05-04_14h52.44.533,Cluster,2022.1.1,30.70948428688437,
,,,,6,0,6,0,13,0,13,0,,,both,,,,,,,,,,,,,,,,,,,,,,,,,,,,,,,,,,,,,,,,,,,,,,,,,,,,,,,,,,,,,,,,,,,,,,,,,,,,,,,,,,,,,,,,,,,,,,,,,,,,,,,,,,,,,,,,,,,1055.183304199949,None,3330.5894322759104,11.275138270885648,0.0002643806930010546,1,"[0.41812941379379637, 0.41812941379379637, 0.41812941379379637, 0.41812941379379637]","[5286.981168468949, 4710.1647458211, 4196.279734281835, 3738.46023622997]",Tone,"[8.190272585555226, 11.0, 14.0, 16.630445642002396]",False,1056.185584199964,1058.4598820999963,1058.4598820999963,1059.6689186999574,['space'],1,[0.35838439990766346],2.710617900127545,3.7153569001238793,None,1,None,1,,,,,,,hoavur,001,fr,0,0,2022-05-04_14h52.44.533,Cluster,2022.1.1,30.70948428688437,
