sweeps.thisRepN,sweeps.thisTrialN,sweeps.thisN,sweeps.thisIndex,trials.thisRepN,trials.thisTrialN,trials.thisN,trials.thisIndex,instructions.started,instructions.stopped,blank_text.started,blank_text.stopped,,text.started,text.stopped,Delay,Prediction,Frequency,Volume,Psychopy_level,isCatchTrial,len(y),finished_audiograms,probe.started,probe.stopped,feedback.keys,feedback.started,feedback.stopped,ISI.started,ISI.stopped,text_2.started,text_2.stopped,feedback.rt,break_txt.started,break_txt.stopped,Intervals,Audiogram_both,Audiogram_frequency,Audiogram_time,Audiogram_none,participant,session,language (english or french),Resume previous experiment,date,expName,psychopyVersion,frameRate,
0,0,0,0,0,0,0,0,21.174173600040376,None,66.23763370001689,None,0.16666666666666666,69.4295640999917,None,1.652656110569509,frequency,708.0,1.5902783299332546,5.3230301874193045e-05,0,25,[],0.02273100009188056,None,None,70.43368439993355,None,0.22638390003703535,1.8790400106065444,70.64741259999573,None,,,,,,,,,wfoooa,001,fr,0,2022-05-04_11h19.08.860,Continuous,2022.1.1,None,
0,0,0,0,1,0,1,0,,,,,,,,2.297961276074778,frequency,631.0,1.2376608746313664,5.889901860859264e-05,0,26,[],0.0163061999483034,0.21128699998371303,None,72.32666769996285,72.32666769996285,0.21128699998371303,2.509248276058491,72.5410063000163,72.32666769996285,,,,,,,,,wfoooa,001,fr,0,2022-05-04_11h19.08.860,Continuous,2022.1.1,None,
0,0,0,0,2,0,2,0,,,,,,,,1.228381083936155,frequency,,,,1,26,[],0.023396499920636415,None,None,74.86037030001171,74.86037030001171,0.22719299991149455,1.4555740838476496,75.07648459996562,74.86037030001171,,,,,,,,,wfoooa,001,fr,0,2022-05-04_11h19.08.860,Continuous,2022.1.1,None,
0,0,0,0,3,0,3,0,,,,,,,,1.1428389398453598,frequency,501.0,1.8116054072283356,8.782152021199738e-05,0,27,[],0.02259880001656711,None,None,76.32908209995367,76.32908209995367,0.22389240004122257,1.3667313398865824,76.54553509992547,76.32908209995367,,,,,,,,,wfoooa,001,fr,0,2022-05-04_11h19.08.860,Continuous,2022.1.1,None,
0,0,0,0,4,0,4,0,,,,,,,,1.569706309600679,frequency,446.0,5.6200175451111125,0.00014171888947192538,0,28,[],0.02296950004529208,None,None,77.71684929996263,77.71684929996263,0.22850279998965561,1.7982091095903345,77.93609530001413,77.71684929996263,,,,,,,,,wfoooa,001,fr,0,2022-05-04_11h19.08.860,Continuous,2022.1.1,None,
0,0,0,0,5,0,5,0,,,,,,,,2.3784304674921364,frequency,397.0,3.6102005636816084,0.00011718607538726204,0,29,[],0.01597790012601763,0.2101713001029566,['space'],79.53441550000571,79.53441550000571,0.2101713001029566,2.588601767595093,79.74756179994438,79.53441550000571,[-1.3089547000126913],,,,,,,,wfoooa,001,fr,0,2022-05-04_11h19.08.860,Continuous,2022.1.1,None,
0,0,0,0,6,0,6,0,,,,,,,,1.944384881037302,frequency,354.0,1.0,9.929457867117957e-05,0,30,[],0.0156099998857826,0.20886549993883818,['space'],82.1553467999911,82.1553467999911,0.20886549993883818,2.1532503809761403,82.37134059995878,82.1553467999911,[-2.074362299987115],,,,,,,,wfoooa,001,fr,0,2022-05-04_11h19.08.860,Continuous,2022.1.1,None,
0,0,0,0,7,0,7,0,,,,,,,,2.6898750729803282,frequency,315.0,1.4595101024787,0.00011666632276862125,0,31,[],0.015702400007285178,None,['space'],84.34059719997458,84.34059719997458,0.21016969997435808,2.9000447729546863,84.55706889997236,84.34059719997458,[-1.6195658999495208],,,,,,,,wfoooa,001,fr,0,2022-05-04_11h19.08.860,Continuous,2022.1.1,None,
0,0,0,0,8,0,8,0,,,,,,,,2.469408890737818,frequency,281.0,3.4779883721911,0.00020094485060518695,0,32,[],0.022595199989154935,None,['space'],87.2745194999734,87.2745194999734,0.23430500004906207,2.7037138907868803,87.49152209993917,87.2745194999734,[-2.4415333999786526],,,,,,,,wfoooa,001,fr,0,2022-05-04_11h19.08.860,Continuous,2022.1.1,None,
0,0,0,0,9,0,9,0,,,,,,,,1.0354990031875673,frequency,250.0,2.6382859997164756,0.0002269260242367931,0,33,[],0.022720799897797406,None,['space'],89.98421809996944,89.98421809996944,0.22927349992096424,1.2647725031085315,90.20505270001013,89.98421809996944,[-2.176324400003068],,,,,,,,wfoooa,001,fr,0,2022-05-04_11h19.08.860,Continuous,2022.1.1,None,
0,0,0,0,10,0,10,0,,,,,,,,2.9810711199906996,frequency,223.0,1.637830317673463,0.00026611255916899153,0,34,[],0.022643800009973347,None,['space'],91.25521109998226,91.25521109998226,0.22573179996106774,3.2068029199517674,91.4688284000149,91.25521109998226,[-0.7900580000132322],,,,,,,,wfoooa,001,fr,0,2022-05-04_11h19.08.860,Continuous,2022.1.1,None,
0,0,0,0,11,0,11,0,,,,,,,,1.2058830211888287,frequency,199.0,1.252671362105825,0.00031082916757399856,0,35,[],0.022809599991887808,None,None,94.47467959998176,94.47467959998176,0.22478639998007566,1.4306694211689044,94.6853279999923,94.47467959998176,,,,,,,,,wfoooa,001,fr,0,2022-05-04_11h19.08.860,Continuous,2022.1.1,None,
0,0,0,0,12,0,12,0,,,,,,,,2.1504910309101772,frequency,177.0,1.3200798416270667,0.0004065255173355658,0,36,[],0.022479699924588203,None,['space'],95.91941780003253,95.91941780003253,0.22765190002974123,2.3781429309399185,96.14448389993049,95.91941780003253,[-0.8789675999432802],,,,,,,,wfoooa,001,fr,0,2022-05-04_11h19.08.860,Continuous,2022.1.1,None,
0,0,0,0,13,0,13,0,,,,,,,,2.4251238420897834,frequency,158.0,1.388996477085223,0.0005033072256055283,0,37,[],0.0225577000528574,None,None,98.31169579993002,98.31169579993002,0.22154140006750822,2.6466652421572916,98.5229890999617,98.31169579993002,,,,,,,,,wfoooa,001,fr,0,2022-05-04_11h19.08.860,Continuous,2022.1.1,None,
0,0,0,0,14,0,14,0,,,,,,,,2.2232604133696605,frequency,141.0,1.126141913988731,0.000660603435772629,0,38,[],0.022270999965257943,None,['space'],100.97606659994926,100.97606659994926,0.22328359994571656,2.446544013315377,101.19042220001575,100.97606659994926,[-2.0948157999664545],,,,,,,,wfoooa,001,fr,0,2022-05-04_11h19.08.860,Continuous,2022.1.1,None,
1,0,1,0,0,0,0,0,,,,,0.5833333333333334,108.45474630000535,None,2.363833177343568,frequency,8000.0,1.0,0.0002036901389020564,0,39,[],0.023824499920010567,None,None,109.48199689993635,None,0.21921639994252473,2.5830495772860926,109.691526300041,None,,103.43218180001713,None,,,,,,wfoooa,001,fr,0,2022-05-04_11h19.08.860,Continuous,2022.1.1,None,
1,0,1,0,1,0,1,0,,,,,,,,1.8679398060337566,frequency,5339.0,0.49091546259309693,0.00014839972785587294,0,40,[],0.02220380015205592,None,['space'],112.07378450001124,112.07378450001124,0.22630890016444027,2.094248706198197,112.29185409995262,112.07378450001124,[-2.1047056999523193],,,,,,,,wfoooa,001,fr,0,2022-05-04_11h19.08.860,Continuous,2022.1.1,None,
1,0,1,0,2,0,2,0,,,,,,,,2.461991513191453,frequency,3563.0,-2.999647917282584,5.399654667673603e-05,0,41,[],0.022334500099532306,None,['space'],114.17828100000042,114.17828100000042,0.22913180012255907,2.691123313314012,114.39951210003346,114.17828100000042,[-1.7135744000552222],,,,,,,,wfoooa,001,fr,0,2022-05-04_11h19.08.860,Continuous,2022.1.1,None,
1,0,1,0,3,0,3,0,,,,,,,,2.3170952577406867,frequency,2378.0,1.0,9.334185073971266e-05,0,42,[],0.022516900091432035,None,['space'],116.88404000003356,116.88404000003356,0.22801700001582503,2.5451122577565117,117.09622049995232,116.88404000003356,[-2.2114811999490485],,,,,,,,wfoooa,001,fr,0,2022-05-04_11h19.08.860,Continuous,2022.1.1,None,
1,0,1,0,4,0,4,0,,,,,,,,1.068323687476932,frequency,1587.0,3.735250493612304,8.555505042256962e-05,0,43,[],0.02188480005133897,None,['space'],119.44001579994801,119.44001579994801,0.22425169998314232,1.2925753874600743,119.65603379998356,119.44001579994801,[-2.127998700016178],,,,,,,,wfoooa,001,fr,0,2022-05-04_11h19.08.860,Continuous,2022.1.1,None,
1,0,1,0,5,0,5,0,,,,,,,,1.771278836486767,frequency,1059.0,2.513318611662949,6.213093855496738e-05,0,44,[],0.02222430007532239,None,['space'],120.75168190000113,120.75168190000113,0.22420489997603,1.995483736462797,120.97018209996168,120.75168190000113,[-0.942752999952063],,,,,,,,wfoooa,001,fr,0,2022-05-04_11h19.08.860,Continuous,2022.1.1,None,
1,0,1,0,6,0,6,0,,,,,,,,2.1575689318405096,frequency,707.0,1.8756989432962397,5.511734985253547e-05,0,45,[],0.019390700035728514,0.21829089999664575,['space'],122.7618731999537,122.7618731999537,0.21829089999664575,2.3758598318371553,122.97545829997398,122.7618731999537,[-1.4653313000453636],,,,,,,,wfoooa,001,fr,0,2022-05-04_11h19.08.860,Continuous,2022.1.1,None,
1,0,1,0,7,0,7,0,,,,,,,,1.8306313661500206,frequency,472.0,1.6574303629853948,8.819673564257269e-05,0,46,[],0.022128400043584406,None,['space'],125.1563421000028,125.1563421000028,0.22466559999156743,2.0552969661415883,125.3733188000042,125.1563421000028,[-1.763118700007908],,,,,,,,wfoooa,001,fr,0,2022-05-04_11h19.08.860,Continuous,2022.1.1,None,
1,0,1,0,8,0,8,0,,,,,,,,2.360487831146715,frequency,,,,1,46,[],0.022204100037924945,None,['space'],127.23116660001688,127.23116660001688,0.22832620004191995,2.588814031188635,127.44880619994365,127.23116660001688,[-1.710751200094819],,,,,,,,wfoooa,001,fr,0,2022-05-04_11h19.08.860,Continuous,2022.1.1,None,
2,0,2,0,0,0,0,0,,,,,0.3333333333333333,133.20304229995236,None,2.1257449864496927,both,1416.0,3.3366687721516834,7.39878592147603e-05,0,25,[],0.023664399981498718,None,None,134.21724929998163,None,0.23420469998382032,2.359949686433513,134.4398962999694,None,,129.82761419995222,None,,,,,,wfoooa,001,fr,0,2022-05-04_11h19.08.860,Continuous,2022.1.1,None,
2,0,2,0,1,0,1,0,,,,,,,,2.1257449864496927,both,1124.0,1.6633466516233821,5.963162147471692e-05,0,26,[],0.021085700020194054,None,['space'],136.58529399998952,136.58529399998952,0.22478599997702986,2.3505309864267225,136.79203050001524,136.58529399998952,[-1.8316049999557436],,,,,,,,wfoooa,001,fr,0,2022-05-04_11h19.08.860,Continuous,2022.1.1,None,
2,0,2,0,2,0,2,0,,,,,,,,2.1257449864496927,both,892.0,1.4401426298510294,4.837373837059169e-05,0,27,[],0.019618099904619157,None,['space'],138.9439295999473,138.9439295999473,0.21708059997763485,2.3428255864273275,139.16076729993802,138.9439295999473,[-1.8549298000289127],,,,,,,,wfoooa,001,fr,0,2022-05-04_11h19.08.860,Continuous,2022.1.1,None,
2,0,2,0,3,0,3,0,,,,,,,,2.1257449864496927,both,708.0,1.87135181210163,5.498099603023499e-05,0,28,[],0.01491840009111911,None,['space'],141.3185891000321,141.3185891000321,0.20773210003972054,2.333477086489413,141.53348500002176,141.3185891000321,[-1.990446100011468],,,,,,,,wfoooa,001,fr,0,2022-05-04_11h19.08.860,Continuous,2022.1.1,None,
2,0,2,0,4,0,4,0,,,,,,,,2.1257449864496927,both,562.0,2.362395866147547,8.108045943207661e-05,0,29,[],0.015979500021785498,None,['space'],143.6864073999459,143.6864073999459,0.21077380003407598,2.3365187864837687,143.90033249999397,143.6864073999459,[-1.4617058999137953],,,,,,,,wfoooa,001,fr,0,2022-05-04_11h19.08.860,Continuous,2022.1.1,None,
2,0,2,0,5,0,5,0,,,,,,,,2.1257449864496927,both,446.0,3.454556002952617,0.00011044718805693719,0,30,[],0.02172179997432977,None,['space'],146.05682549998164,146.05682549998164,0.22338660003151745,2.34913158648121,146.27254789997824,146.05682549998164,[0.11961809999775141],,,,,,,,wfoooa,001,fr,0,2022-05-04_11h19.08.860,Continuous,2022.1.1,None,
2,0,2,0,6,0,6,0,,,,,,,,2.1257449864496927,both,354.0,1.0,9.929457867117957e-05,0,31,[],0.015558100072667003,None,['space'],148.4246320000384,148.4246320000384,0.21040260000154376,2.3361475864512364,148.64117570000235,148.4246320000384,[0.02356490003876388],,,,,,,,wfoooa,001,fr,0,2022-05-04_11h19.08.860,Continuous,2022.1.1,None,
2,0,2,0,7,0,7,0,,,,,,,,2.1257449864496927,both,,,,1,31,[],0.014743300038389862,None,None,150.79501040000468,150.79501040000468,0.2079776000464335,2.333722586496126,151.01282930001616,150.79501040000468,,,,,,,,,wfoooa,001,fr,0,2022-05-04_11h19.08.860,Continuous,2022.1.1,None,
2,0,2,0,8,0,8,0,,,,,,,,2.1257449864496927,both,223.0,1.3456033003804357,0.0002573084334211364,0,32,[],0.02266130002681166,None,None,153.16397959995084,153.16397959995084,0.22511290002148598,2.3508578864711787,153.38005589996465,153.16397959995084,,,,,,,,,wfoooa,001,fr,0,2022-05-04_11h19.08.860,Continuous,2022.1.1,None,
2,0,2,0,9,0,9,0,,,,,,,,2.1257449864496927,both,177.0,1.1265987266565092,0.0003975701369693113,0,33,[],0.021615599864162505,None,"['space', 'space']",155.53338089992758,155.53338089992758,0.22492259996943176,2.3506675864191244,155.74798869993538,155.53338089992758,"[-1.7568139999639243, 0.09970020002219826]",,,,,,,,wfoooa,001,fr,0,2022-05-04_11h19.08.860,Continuous,2022.1.1,None,
2,0,2,0,10,0,10,0,,,,,,,,2.1257449864496927,both,140.0,1.28259647549173,0.000682929831913982,0,34,[],0.021615599980577826,None,None,157.90476710000075,157.90476710000075,0.22920379997231066,2.3549487864220033,158.1161445999751,157.90476710000075,,,,,,,,,wfoooa,001,fr,0,2022-05-04_11h19.08.860,Continuous,2022.1.1,None,
3,0,3,0,0,0,0,0,,,,,0.3333333333333333,166.9003684000345,None,2.945983174987922,both,8000.0,0.0,0.0001815390273850507,0,35,[],0.024072499945759773,None,None,167.9240997999441,None,0.24594479997176677,3.1919279749596887,168.14891310001258,None,,160.27081130002625,None,,,,,,wfoooa,001,fr,0,2022-05-04_11h19.08.860,Continuous,2022.1.1,None,
3,0,3,0,1,0,1,0,,,,,,,,2.945983174987922,both,6350.0,-0.591510244184303,0.00012286499473462695,0,36,[],0.018204000080004334,None,['space'],171.11216339992825,171.11216339992825,0.21634630009066314,3.162329475078585,171.33222550002392,171.11216339992825,[-2.695400500087999],,,,,,,,wfoooa,001,fr,0,2022-05-04_11h19.08.860,Continuous,2022.1.1,None,
3,0,3,0,2,0,2,0,,,,,,,,2.945983174987922,both,5040.0,-1.2425224481796113,0.0001311081119598435,0,37,[],0.021324200090020895,None,['space'],174.30672689992934,174.30672689992934,0.22475240007042885,3.170735575058351,174.52232480002567,174.30672689992934,[-2.577383799944073],,,,,,,,wfoooa,001,fr,0,2022-05-04_11h19.08.860,Continuous,2022.1.1,None,
3,0,3,0,3,0,3,0,,,,,,,,2.945983174987922,both,,,,1,37,[],0.021567999967373908,None,['space'],177.49384120001923,177.49384120001923,0.22645469999406487,3.172437874981987,177.70343889994547,177.49384120001923,[-2.6933966000797227],,,,,,,,wfoooa,001,fr,0,2022-05-04_11h19.08.860,Continuous,2022.1.1,None,
3,0,3,0,4,0,4,0,,,,,,,,2.945983174987922,both,3175.0,-0.14749859501843066,6.828852867596574e-05,0,38,[],0.022577199968509376,None,None,180.67920789995696,180.67920789995696,0.22625850001350045,3.1722416750014224,180.89450860000215,180.67920789995696,,,,,,,,,wfoooa,001,fr,0,2022-05-04_11h19.08.860,Continuous,2022.1.1,None,
3,0,3,0,5,0,5,0,,,,,,,,2.945983174987922,both,2520.0,0.0,8.465255897585062e-05,0,39,[],0.016582400072366,None,['space'],183.86048719997052,183.86048719997052,0.21208820003084838,3.1580713750187703,184.07976420002524,183.86048719997052,[-2.740309700020589],,,,,,,,wfoooa,001,fr,0,2022-05-04_11h19.08.860,Continuous,2022.1.1,None,
3,0,3,0,6,0,6,0,,,,,,,,2.945983174987922,both,2000.0,1.7597113259756456,9.161267633667472e-05,0,40,[],0.020949000027030706,None,"['space', 'space']",187.0548856999958,187.0548856999958,0.22320530004799366,3.1691884750359156,187.2689270999981,187.0548856999958,"[-2.6383148001041263, 0.21024749998468906]",,,,,,,,wfoooa,001,fr,0,2022-05-04_11h19.08.860,Continuous,2022.1.1,None,
3,0,3,0,7,0,7,0,,,,,,,,2.945983174987922,both,1587.0,0.6693096572739772,6.011026045740524e-05,0,41,[],0.02122680004686117,0.22014520002994686,None,190.242062299978,190.242062299978,0.22014520002994686,3.166128375017869,190.45219420001376,190.242062299978,,,,,,,,,wfoooa,001,fr,0,2022-05-04_11h19.08.860,Continuous,2022.1.1,None,
3,0,3,0,8,0,8,0,,,,,,,,2.945983174987922,both,1260.0,0.631659941196768,5.835397558508796e-05,0,42,[],0.014015900087542832,0.20591060002334416,['space'],193.4236917999806,193.4236917999806,0.20591060002334416,3.151893775011266,193.639771200018,193.4236917999806,[-2.543346200021915],,,,,,,,wfoooa,001,fr,0,2022-05-04_11h19.08.860,Continuous,2022.1.1,None,
4,0,4,0,0,0,0,0,,,,,,199.41239539999515,None,1.3416728786479297,none,315.0,4.539743403274731,0.00016632486304029407,0,25,[],0.023611900047399104,None,None,200.41898670000955,None,0.2331840000115335,1.5748568786594632,200.62994180002715,None,,196.61398000002373,None,"[0.3333333333333333, 0.3333333333333333, 0.3333333333333333, 0.16666666666666666, 0.5833333333333334, 0.16666666666666666, 0.16666666666666666, 0.16666666666666666, 0.16666666666666666, 0.16666666666666666, 0.5833333333333334, 0.16666666666666666, 0.3333333333333333, 0.16666666666666666, 0.16666666666666666]",,,,,wfoooa,001,fr,0,2022-05-04_11h19.08.860,Continuous,2022.1.1,None,
4,0,4,0,1,0,1,0,,,,,,,,2.6855051282558913,none,668.0,1.9025393429317574,5.954543568254426e-05,0,26,[],0.013914400013163686,None,['space'],202.00090410001576,202.00090410001576,0.21339159994386137,2.8988967281997526,202.21676470001694,202.00090410001576,[-0.8965466999216005],,,,,,,,wfoooa,001,fr,0,2022-05-04_11h19.08.860,Continuous,2022.1.1,None,
4,0,4,0,2,0,2,0,,,,,,,,2.300528044458768,none,,,,1,26,[],0.020343499956652522,None,None,204.93045119999442,204.93045119999442,0.22076179995201528,2.5212898444107834,205.14629649999551,204.93045119999442,,,,,,,,,wfoooa,001,fr,0,2022-05-04_11h19.08.860,Continuous,2022.1.1,None,
4,0,4,0,3,0,3,0,,,,,,,,1.9785822367892019,none,397.0,1.2141599369255678,8.893525987727236e-05,0,27,[],0.022091099992394447,None,None,207.47635000001173,207.47635000001173,0.22479390003718436,2.2033761368263862,207.68955719994847,207.47635000001173,,,,,,,,,wfoooa,001,fr,0,2022-05-04_11h19.08.860,Continuous,2022.1.1,None,
4,0,4,0,4,0,4,0,,,,,,,,2.1298765644417275,none,595.0,2.371113755000019,7.439800931482776e-05,0,28,[],0.020652899867855012,None,['space'],209.6955520999618,209.6955520999618,0.2206327999010682,2.3505093643427957,209.90668519993778,209.6955520999618,[-1.7425940999528393],,,,,,,,wfoooa,001,fr,0,2022-05-04_11h19.08.860,Continuous,2022.1.1,None,
4,0,4,0,5,0,5,0,,,,,,,,2.21992386796328,none,1061.0,1.7698046120760607,5.713634768225815e-05,0,29,[],0.0206461000489071,None,['space'],212.06517870002426,212.06517870002426,0.2233017000835389,2.443225568046819,212.27568459999748,212.06517870002426,[-1.9214576999656856],,,,,,,,wfoooa,001,fr,0,2022-05-04_11h19.08.860,Continuous,2022.1.1,None,
4,0,4,0,6,0,6,0,,,,,,,,1.28284901008896,none,149.0,1.2011850979374479,0.0005845499932725914,0,30,[],0.01852760009933263,None,None,214.52506989997346,214.52506989997346,0.21870190009940416,1.5015509101883642,214.74137209996115,214.52506989997346,,,,,,,,,wfoooa,001,fr,0,2022-05-04_11h19.08.860,Continuous,2022.1.1,None,
4,0,4,0,7,0,7,0,,,,,,,,2.42296847004587,none,945.0,1.2804362906407993,4.923804481078172e-05,0,31,[],0.015809400123544037,0.21000040008220822,['space'],216.04421409999486,216.04421409999486,0.21000040008220822,2.632968870128078,216.25780000002123,216.04421409999486,[-1.0035422999644652],,,,,,,,wfoooa,001,fr,0,2022-05-04_11h19.08.860,Continuous,2022.1.1,None,
4,0,4,0,8,0,8,0,,,,,,,,2.275620979621828,none,842.0,1.5374716558218302,4.722256118972911e-05,0,32,[],0.011029999935999513,None,['space'],218.71136279997882,218.71136279997882,0.20853239996358752,2.4841533795854156,218.93296310002916,218.71136279997882,[-0.2786056000040844],,,,,,,,wfoooa,001,fr,0,2022-05-04_11h19.08.860,Continuous,2022.1.1,None,
4,0,4,0,9,0,9,0,,,,,,,,2.349976746016153,none,133.0,1.9477439710616784,0.0008152669876752174,0,33,[],0.018895499990321696,None,None,221.23090249998495,221.23090249998495,0.2181834999937564,2.5681602460099096,221.4474258000264,221.23090249998495,,,,,,,,,wfoooa,001,fr,0,2022-05-04_11h19.08.860,Continuous,2022.1.1,None,
4,0,4,0,10,0,10,0,,,,,,,,1.6066301619009937,none,354.0,1.0,9.929457867117957e-05,0,34,[],0.020521600148640573,None,['space'],223.82689689996187,223.82689689996187,0.2209675001213327,1.8275976620223264,224.04159059992526,223.82689689996187,[-2.0337589000118896],,,,,,,,wfoooa,001,fr,0,2022-05-04_11h19.08.860,Continuous,2022.1.1,None,
4,0,4,0,11,0,11,0,,,,,,,,1.1953062242830221,none,223.0,2.1336047012450368,0.0002817436202330672,0,35,[],0.020401300047524273,None,None,225.67910609999672,225.67910609999672,0.2259122000541538,1.421218424337176,225.89530700002797,225.67910609999672,,,,,,,,,wfoooa,001,fr,0,2022-05-04_11h19.08.860,Continuous,2022.1.1,None,
4,0,4,0,12,0,12,0,,,,,,,,2.3753668860018964,none,250.0,2.785660820894091,0.00023080916262624933,0,36,[],0.020323600037954748,None,['space'],227.1197414000053,227.1197414000053,0.22433470003306866,2.599701586034965,227.33739200001583,227.1197414000053,[-0.9262077000457793],,,,,,,,wfoooa,001,fr,0,2022-05-04_11h19.08.860,Continuous,2022.1.1,None,
5,0,5,0,0,0,0,0,,,,,0.5833333333333334,236.73592869995628,None,2.4488110139793404,both,3482.0,-1.5430294589252072,6.266484113072191e-05,0,43,[],0.02378419996239245,None,None,237.75370360002853,None,0.2342703000176698,2.68308131399701,237.96784800000023,None,,229.73963970004115,None,,,,,,wfoooa,001,fr,0,2022-05-04_11h19.08.860,Continuous,2022.1.1,None,
5,0,5,0,1,0,1,0,,,,,,,,2.4488110139793404,both,2324.0,-0.17224054842281777,8.038405979962017e-05,0,44,[],0.012457899982109666,None,['space'],240.44288480002433,240.44288480002433,0.2117073000408709,2.6605183140202113,240.66028259997256,240.44288480002433,[-2.1695615000789985],,,,,,,,wfoooa,001,fr,0,2022-05-04_11h19.08.860,Continuous,2022.1.1,None,
5,0,5,0,2,0,2,0,,,,,,,,2.4488110139793404,both,1551.0,0.22403824906896075,5.398568962571315e-05,0,45,[],0.01682540006004274,None,None,243.1388319999678,243.1388319999678,0.21362060005776584,2.6624316140371063,243.3545121999923,243.1388319999678,,,,,,,,,wfoooa,001,fr,0,2022-05-04_11h19.08.860,Continuous,2022.1.1,None,
5,0,5,0,3,0,3,0,,,,,,,,2.4488110139793404,both,1035.0,1.2993702431631602,5.2861118789004255e-05,0,46,[],0.01954529993236065,None,['space'],245.83414880000055,245.83414880000055,0.22314919997006655,2.671960213949407,246.04775679996237,245.83414880000055,[-2.233714499976486],,,,,,,,wfoooa,001,fr,0,2022-05-04_11h19.08.860,Continuous,2022.1.1,None,
5,0,5,0,4,0,4,0,,,,,,,,2.4488110139793404,both,691.0,0.7430246547631403,4.990713831732118e-05,0,47,[],0.02021220000460744,None,['space'],248.51961940003093,248.51961940003093,0.22032900003250688,2.6691400140118473,248.73125750001054,248.51961940003093,[-2.2792869000695646],,,,,,,,wfoooa,001,fr,0,2022-05-04_11h19.08.860,Continuous,2022.1.1,None,
5,0,5,0,5,0,5,0,,,,,,,,2.4488110139793404,both,461.0,3.3200235052304428,0.00010762641866894226,0,48,[],0.02014110004529357,None,None,251.21115650003776,251.21115650003776,0.22269590001087636,2.671506913990217,251.4290800000308,251.21115650003776,,,,,,,,,wfoooa,001,fr,0,2022-05-04_11h19.08.860,Continuous,2022.1.1,None,
5,0,5,0,6,0,6,0,,,,,,,,2.4488110139793404,both,308.0,-1.0,9.450557534002297e-05,0,49,[],0.0178709999890998,None,['space'],253.89888939994853,253.89888939994853,0.21548380004242063,2.664294814021761,254.11434630001895,253.89888939994853,[-2.0898371000075713],,,,,,,,wfoooa,001,fr,0,2022-05-04_11h19.08.860,Continuous,2022.1.1,None,
5,0,5,0,7,0,7,0,,,,,,,,2.4488110139793404,both,206.0,0.8733766606278067,0.0002805221674333889,0,50,[],0.015636200085282326,None,None,256.5865057000192,256.5865057000192,0.21112660004291683,2.6599376140222573,256.8055042999331,256.5865057000192,,,,,,,,,wfoooa,001,fr,0,2022-05-04_11h19.08.860,Continuous,2022.1.1,None,
5,0,5,0,8,0,8,0,,,,,,,,2.4488110139793404,both,137.0,-0.9863780517206373,0.0005497705794653872,0,51,[],0.020076500019058585,None,['space'],259.2806127000367,259.2806127000367,0.22345659998245537,2.672267613961796,259.49826999998186,259.2806127000367,[-2.223525399924256],,,,,,,,wfoooa,001,fr,0,2022-05-04_11h19.08.860,Continuous,2022.1.1,None,
5,0,5,0,9,0,9,0,,,,,,,,2.4488110139793404,both,,,,1,51,[],0.019989600055851042,None,['space'],261.972015599953,261.972015599953,0.22537600004579872,2.674187014025139,262.18566960003227,261.972015599953,[-1.4592662999639288],,,,,,,,wfoooa,001,fr,0,2022-05-04_11h19.08.860,Continuous,2022.1.1,None,
6,0,6,0,0,0,0,0,,,,,0.5833333333333334,267.6554634999484,None,1.0327927312064074,both,3167.0,-1.7542563026349818,5.664099959532181e-05,0,52,[],0.02311450010165572,None,None,268.6844694999745,None,0.2296216000104323,1.2624143312168397,268.89568139996845,None,,264.6592607999919,None,,,,,,wfoooa,001,fr,0,2022-05-04_11h19.08.860,Continuous,2022.1.1,None,
6,0,6,0,1,0,1,0,,,,,,,,1.0327927312064074,both,2114.0,-0.47169715982807325,7.325088277049131e-05,0,53,[],0.01515700004529208,0.20999640005175024,['space'],269.95166409993544,269.95166409993544,0.20999640005175024,1.2427891312581576,270.16482349997386,269.95166409993544,[-0.7990081999450922],,,,,,,,wfoooa,001,fr,0,2022-05-04_11h19.08.860,Continuous,2022.1.1,None,
6,0,6,0,2,0,2,0,,,,,,,,1.0327927312064074,both,1411.0,0.9706552522676675,5.648438160114842e-05,0,54,[],0.019758199923671782,None,None,271.2245607000077,271.2245607000077,0.22563460003584623,1.2584273312422536,271.4334386999253,271.2245607000077,,,,,,,,,wfoooa,001,fr,0,2022-05-04_11h19.08.860,Continuous,2022.1.1,None,
6,0,6,0,3,0,3,0,,,,,,,,1.0327927312064074,both,942.0,-0.47031435237672214,4.016898596415237e-05,0,55,[],0.019370099995285273,None,['space'],272.49473070004024,272.49473070004024,0.22102020005695522,1.2538129312633626,272.7205249000108,272.49473070004024,[-0.6219882000004873],,,,,,,,wfoooa,001,fr,0,2022-05-04_11h19.08.860,Continuous,2022.1.1,None,
6,0,6,0,4,0,4,0,,,,,,,,1.0327927312064074,both,629.0,1.506536200535948,6.104062309398422e-05,0,56,[],0.01565040007699281,None,['space'],273.7711075999541,273.7711075999541,0.21159049996640533,1.2443832311728127,273.99280489992816,273.7711075999541,[-0.6822973999660462],,,,,,,,wfoooa,001,fr,0,2022-05-04_11h19.08.860,Continuous,2022.1.1,None,
6,0,6,0,5,0,5,0,,,,,,,,1.0327927312064074,both,420.0,0.4958757092801003,7.997003546889199e-05,0,57,[],0.019190400023944676,None,['space'],275.05390129995067,275.05390129995067,0.22063060000073165,1.253423331207139,275.27040040004067,275.05390129995067,[-0.6533433999866247],,,,,,,,wfoooa,001,fr,0,2022-05-04_11h19.08.860,Continuous,2022.1.1,None,
6,0,6,0,6,0,6,0,,,,,,,,1.0327927312064074,both,280.0,0.14043782143563188,0.00013791235699373328,0,58,[],0.019468900049105287,None,['space'],276.33308979996946,276.33308979996946,0.22148110007401556,1.254273831280423,276.55307319993153,276.33308979996946,[-0.44492010003887117],,,,,,,,wfoooa,001,fr,0,2022-05-04_11h19.08.860,Continuous,2022.1.1,None,
6,0,6,0,7,0,7,0,,,,,,,,1.0327927312064074,both,187.0,-0.11740080054568391,0.0003085886487031945,0,59,[],0.012071000062860548,None,None,277.6153310999507,277.6153310999507,0.20887620002031326,1.2416689312267206,277.82917009992525,277.6153310999507,,,,,,,,,wfoooa,001,fr,0,2022-05-04_11h19.08.860,Continuous,2022.1.1,None,
6,0,6,0,8,0,8,0,,,,,,,,1.0327927312064074,both,125.0,-1.0,0.000644124775846567,0,60,[],0.017312200041487813,None,['space'],278.89254949998576,278.89254949998576,0.21687080000992864,1.249663531216336,279.109978799941,278.89254949998576,[-0.6036293000215665],,,,,,,,wfoooa,001,fr,0,2022-05-04_11h19.08.860,Continuous,2022.1.1,None,
6,0,6,0,9,0,9,0,,,,,,,,1.0327927312064074,both,,,,1,60,[],0.009211899945512414,None,['space'],280.17887449997943,280.17887449997943,0.2082046999130398,1.2409974311194472,280.398297799984,280.17887449997943,[-0.322010500007309],,,,,,,,wfoooa,001,fr,0,2022-05-04_11h19.08.860,Continuous,2022.1.1,None,
7,0,7,0,0,0,0,0,,,,,0.3333333333333333,286.2546117999591,None,2.3941328987570105,frequency,6497.0,-2.2772010966116243,0.00010461969284663606,0,47,[],0.02324200002476573,0.22068699996452779,None,287.2877855999395,None,0.22068699996452779,2.6148198987215383,287.4992185999872,None,,281.46074429992586,None,,,,,,wfoooa,001,fr,0,2022-05-04_11h19.08.860,Continuous,2022.1.1,None,
7,0,7,0,1,0,1,0,,,,,,,,1.8720688786082509,frequency,5157.0,-1.644987172579808,0.00012160162017956478,0,48,[],0.01885489991400391,None,None,289.9139804999577,289.9139804999577,0.22265110001899302,2.0947199786272437,290.1331356000155,289.9139804999577,,,,,,,,,wfoooa,001,fr,0,2022-05-04_11h19.08.860,Continuous,2022.1.1,None,
7,0,7,0,2,0,2,0,,,,,,,,1.5196569243415283,frequency,4093.0,-2.071793129691061,7.116825566059467e-05,0,49,[],0.01925189991015941,None,['space'],292.03223250003066,292.03223250003066,0.2225329999346286,1.742189924276157,292.2423969999654,292.03223250003066,[-1.599323600064963],,,,,,,,wfoooa,001,fr,0,2022-05-04_11h19.08.860,Continuous,2022.1.1,None,
7,0,7,0,3,0,3,0,,,,,,,,2.419513727533932,frequency,3249.0,-2.4320009690860904,5.347733900080559e-05,0,50,[],0.0183926000026986,None,['space'],293.79030270001385,293.79030270001385,0.21879039995837957,2.6383041274923116,294.0080886000069,293.79030270001385,[-1.293774800025858],,,,,,,,wfoooa,001,fr,0,2022-05-04_11h19.08.860,Continuous,2022.1.1,None,
7,0,7,0,4,0,4,0,,,,,,,,2.4788182658186013,frequency,2579.0,-1.700639934307646,6.658533674965737e-05,0,51,[],0.01428699993994087,None,"['space', 'space']",296.4468882000074,296.4468882000074,0.20798790000844747,2.686806165827049,296.65994339995086,296.4468882000074,"[-2.174357100040652, -0.3821706000017002]",,,,,,,,wfoooa,001,fr,0,2022-05-04_11h19.08.860,Continuous,2022.1.1,None,
7,0,7,0,5,0,5,0,,,,,,,,2.6618070979212405,frequency,,,,1,51,[],0.01487069996073842,0.21028360002674162,['space'],299.16491359996144,299.16491359996144,0.21028360002674162,2.872090697947982,299.38344470004085,299.16491359996144,[-2.0125384000129998],,,,,,,,wfoooa,001,fr,0,2022-05-04_11h19.08.860,Continuous,2022.1.1,None,
7,0,7,0,6,0,6,0,,,,,,,,1.9853970059213328,frequency,1625.0,-2.0,4.5975216536019915e-05,0,52,[],0.016385399969294667,None,['space'],302.0682327999966,302.0682327999966,0.2114070999668911,2.1968041058882237,302.2870689999545,302.0682327999966,[-1.7154153999872506],,,,,,,,wfoooa,001,fr,0,2022-05-04_11h19.08.860,Continuous,2022.1.1,None,
7,0,7,0,7,0,7,0,,,,,,,,1.7431218576599365,frequency,1290.0,1.4510221938632757,6.324643028942301e-05,0,53,[],0.01607840007636696,None,['space'],304.3018756000092,304.3018756000092,0.21265320002567023,1.9557750576856068,304.5179289999651,304.3018756000092,[-1.5174673999426886],,,,,,,,wfoooa,001,fr,0,2022-05-04_11h19.08.860,Continuous,2022.1.1,None,
7,0,7,0,8,0,8,0,,,,,,,,1.5003137763866536,frequency,1024.0,1.1550571862519754,5.1464568082627015e-05,0,54,[],0.012882000068202615,None,['space'],306.2940876999637,306.2940876999637,0.2123659000499174,1.712679676436571,306.50461089995224,306.2940876999637,[-1.4617155001033098],,,,,,,,wfoooa,001,fr,0,2022-05-04_11h19.08.860,Continuous,2022.1.1,None,
7,0,7,0,9,0,9,0,,,,,,,,2.1304090284588275,frequency,813.0,0.6599703650807933,4.179561913246867e-05,0,55,[],0.018595700152218342,None,['space'],308.03839609993156,308.03839609993156,0.2216946001863107,2.3521036286451382,308.25008289993275,308.03839609993156,[-1.2698863999685273],,,,,,,,wfoooa,001,fr,0,2022-05-04_11h19.08.860,Continuous,2022.1.1,None,
7,0,7,0,10,0,10,0,,,,,,,,1.7651391540198098,frequency,645.0,0.6471473218764601,5.3705167358160995e-05,0,56,[],0.017079300014302135,0.2065449000801891,"['space', 'space']",310.4096363999415,310.4096363999415,0.2065449000801891,1.971684054099999,310.61870939994697,310.4096363999415,"[-1.8809281999710947, -0.07405709999147803]",,,,,,,,wfoooa,001,fr,0,2022-05-04_11h19.08.860,Continuous,2022.1.1,None,
7,0,7,0,11,0,11,0,,,,,,,,1.9622642461313549,frequency,512.0,3.224252356259034,0.00010084431839983457,0,57,[],0.014472800074145198,None,None,312.4130603999365,312.4130603999365,0.20965590002015233,2.171920146151507,312.6318452999694,312.4130603999365,,,,,,,,,wfoooa,001,fr,0,2022-05-04_11h19.08.860,Continuous,2022.1.1,None,
7,0,7,0,12,0,12,0,,,,,,,,1.5280956793570784,frequency,406.0,-0.6932435197095499,7.03987745119737e-05,0,58,[],0.01883429998997599,None,['space'],314.622511100024,314.622511100024,0.2238050999585539,1.7519007793156323,314.836766500026,314.622511100024,[-1.6134889000095427],,,,,,,,wfoooa,001,fr,0,2022-05-04_11h19.08.860,Continuous,2022.1.1,None,
7,0,7,0,13,0,13,0,,,,,,,,2.6889347408658852,frequency,322.0,-1.1167646523280794,8.512448641793855e-05,0,59,[],0.017741600167937577,None,None,316.3982017999515,316.3982017999515,0.21792410011403263,2.906858840979918,316.60476669995114,316.3982017999515,,,,,,,,,wfoooa,001,fr,0,2022-05-04_11h19.08.860,Continuous,2022.1.1,None,
7,0,7,0,14,0,14,0,,,,,,,,2.414053465592522,frequency,256.0,-1.0647706927505043,0.00014253706354112438,0,60,[],0.01848890003748238,None,['space'],319.32742500002496,319.32742500002496,0.22318400000222027,2.637237465594742,319.5362109999405,319.32742500002496,[-0.6705576999811456],,,,,,,,wfoooa,001,fr,0,2022-05-04_11h19.08.860,Continuous,2022.1.1,None,
8,0,8,0,0,0,0,0,,,,,0.16666666666666666,326.9677998999832,None,2.9539838904622204,frequency,313.0,0.28761578614900785,0.00010413159981953324,0,61,[],0.023787699872627854,None,None,327.97406749997754,None,0.22874089994002134,3.1827247904022418,328.19131239992566,None,,321.9854040000355,None,,,,,,wfoooa,001,fr,0,2022-05-04_11h19.08.860,Continuous,2022.1.1,None,
8,0,8,0,1,0,1,0,,,,,,,,2.997286558325707,frequency,279.0,2.819664603027171,0.0001892090374378116,0,62,[],0.010900900117121637,0.20551640004850924,None,331.1732293999521,331.1732293999521,0.20551640004850924,3.202802958374216,331.38554920000024,331.1732293999521,,,,,,,,,wfoooa,001,fr,0,2022-05-04_11h19.08.860,Continuous,2022.1.1,None,
8,0,8,0,2,0,2,0,,,,,,,,1.2001159643694883,frequency,249.0,2.2884243975529195,0.00022051699069912254,0,63,[],0.018499399884603918,None,"['space', 'space']",334.41616369993426,334.41616369993426,0.22002439992502332,1.4201403642945116,334.6249402000103,334.41616369993426,"[-2.3833080999320373, -0.43258509994484484]",,,,,,,,wfoooa,001,fr,0,2022-05-04_11h19.08.860,Continuous,2022.1.1,None,
8,0,8,0,3,0,3,0,,,,,,,,1.2300734139359994,frequency,222.0,1.0870280818564733,0.00025198174868930296,0,64,[],0.014546100050210953,None,None,335.8555468999548,335.8555468999548,0.21122399996966124,1.4412974139056607,336.07387920003384,335.8555468999548,,,,,,,,,wfoooa,001,fr,0,2022-05-04_11h19.08.860,Continuous,2022.1.1,None,
8,0,8,0,4,0,4,0,,,,,,,,1.825148677747506,frequency,198.0,-0.8332242862285477,0.00024777963611241253,0,65,[],0.017742899945005774,0.21713590004947037,None,337.33682950004004,337.33682950004004,0.21713590004947037,2.0422845777969765,337.55036969995126,337.33682950004004,,,,,,,,,wfoooa,001,fr,0,2022-05-04_11h19.08.860,Continuous,2022.1.1,None,
8,0,8,0,5,0,5,0,,,,,,,,2.711089452215001,frequency,176.0,0.8357649102865395,0.0003884883307140541,0,66,[],0.018236400093883276,None,['space'],339.4050627000397,339.4050627000397,0.22115030011627823,2.932239752331279,339.6181330999825,339.4050627000397,[-1.8199450999964029],,,,,,,,wfoooa,001,fr,0,2022-05-04_11h19.08.860,Continuous,2022.1.1,None,
8,0,8,0,6,0,6,0,,,,,,,,1.3416721221614603,frequency,157.0,0.6065549527650744,0.0004694972345125815,0,67,[],0.01821660005953163,None,None,342.3580561999697,342.3580561999697,0.22339579998515546,1.5650679221466157,342.5702591999434,342.3580561999697,,,,,,,,,wfoooa,001,fr,0,2022-05-04_11h19.08.860,Continuous,2022.1.1,None,
8,0,8,0,7,0,7,0,,,,,,,,2.6884429643807155,frequency,140.0,0.23958085758564973,0.000605654994836871,0,68,[],0.01792320003733039,None,['space'],343.93893760000356,343.93893760000356,0.2210765000199899,2.9095194644007054,344.1541638999479,343.93893760000356,[-0.06663490005303174],,,,,,,,wfoooa,001,fr,0,2022-05-04_11h19.08.860,Continuous,2022.1.1,None,
8,0,8,0,8,0,8,0,,,,,,,,2.980728495637485,frequency,125.0,-1.0,0.000644124775846567,0,69,[],0.01752200012560934,None,None,346.8789795000339,346.8789795000339,0.21948750014416873,3.2002159957816536,347.0910792000359,346.8789795000339,,,,,,,,,wfoooa,001,fr,0,2022-05-04_11h19.08.860,Continuous,2022.1.1,None,
8,0,8,0,9,0,9,0,,,,,,,,2.569567921278866,frequency,,,,1,69,[],0.011678400100208819,None,None,350.10837589995936,350.10837589995936,0.20768960006535053,2.7772575213442163,350.3309881000314,350.10837589995936,,,,,,,,,wfoooa,001,fr,0,2022-05-04_11h19.08.860,Continuous,2022.1.1,None,
9,0,9,0,0,0,0,0,,,,,0.5833333333333334,360.3528823000379,None,2.252335022519924,both,8000.0,2.0,0.0002285440948074376,0,61,[],0.02404660009779036,0.22219810006208718,None,361.3640002999455,None,0.22219810006208718,2.4745331225820113,361.57166090002283,None,,352.9197539000306,None,,,,,,wfoooa,001,fr,0,2022-05-04_11h19.08.860,Continuous,2022.1.1,None,
9,0,9,0,1,0,1,0,,,,,,,,2.252335022519924,both,5339.0,0.2679168010048947,0.00014463825428324715,0,62,[],0.017885300097987056,None,['space'],363.84725069999695,363.84725069999695,0.22101360012311488,2.473348622643039,364.0632537000347,363.84725069999695,[-1.9749962000641972],,,,,,,,wfoooa,001,fr,0,2022-05-04_11h19.08.860,Continuous,2022.1.1,None,
9,0,9,0,2,0,2,0,,,,,,,,2.252335022519924,both,3563.0,-2.548892920143903,5.687268544319408e-05,0,63,[],0.018190600094385445,None,['space'],366.349569199956,366.349569199956,0.22080880007706583,2.47314382259699,366.5607372999657,366.349569199956,[-2.0775408999761567],,,,,,,,wfoooa,001,fr,0,2022-05-04_11h19.08.860,Continuous,2022.1.1,None,
9,0,9,0,3,0,3,0,,,,,,,,2.252335022519924,both,2378.0,1.8075758275934808,0.00010243661032012023,0,64,[],0.01786100014578551,None,['space'],368.84720980003476,368.84720980003476,0.22369860019534826,2.4760336227152724,369.0606090000365,368.84720980003476,[-2.0138099999167025],,,,,,,,wfoooa,001,fr,0,2022-05-04_11h19.08.860,Continuous,2022.1.1,None,
9,0,9,0,4,0,4,0,,,,,,,,2.252335022519924,both,,,,1,64,[],0.014409799943678081,0.20878819993231446,['space'],371.34241279994603,371.34241279994603,0.20878819993231446,2.4611232224522386,371.55943240004126,371.34241279994603,[-1.9974051000317559],,,,,,,,wfoooa,001,fr,0,2022-05-04_11h19.08.860,Continuous,2022.1.1,None,
9,0,9,0,5,0,5,0,,,,,,,,2.252335022519924,both,1059.0,2.158237941852851,5.9642231026104154e-05,0,65,[],0.0191630000481382,None,['space'],373.84110259998124,373.84110259998124,0.22899740003049374,2.481332422550418,374.061768900021,373.84110259998124,[-1.248158699949272],,,,,,,,wfoooa,001,fr,0,2022-05-04_11h19.08.860,Continuous,2022.1.1,None,
9,0,9,0,6,0,6,0,,,,,,,,2.252335022519924,both,707.0,2.064477380577296,5.632837849796613e-05,0,66,[],0.01798629993572831,None,['space'],376.3384900999954,376.3384900999954,0.22274979995563626,2.4750848224755604,376.552785399952,376.3384900999954,[-1.7782167000696063],,,,,,,,wfoooa,001,fr,0,2022-05-04_11h19.08.860,Continuous,2022.1.1,None,
9,0,9,0,7,0,7,0,,,,,,,,2.252335022519924,both,472.0,4.835536899727065,0.00012716214294412084,0,67,[],0.01408570003695786,None,['space'],378.8331617999356,378.8331617999356,0.20880050002597272,2.461135522545897,379.05122230004054,378.8331617999356,[-2.2251924999291077],,,,,,,,wfoooa,001,fr,0,2022-05-04_11h19.08.860,Continuous,2022.1.1,None,
9,0,9,0,8,0,8,0,,,,,,,,2.252335022519924,both,315.0,2.350826654593934,0.00012927404467849376,0,68,[],0.013940200093202293,None,['space'],381.33410770003684,381.33410770003684,0.21047330007422715,2.4628083225941513,381.5495623999741,381.33410770003684,[-1.7500946000218391],,,,,,,,wfoooa,001,fr,0,2022-05-04_11h19.08.860,Continuous,2022.1.1,None,
10,0,10,0,0,0,0,0,,,,,0.3333333333333333,389.6408632999519,None,1.148234623112086,both,7818.0,-5.4487561267747875,9.400037234799098e-05,0,69,[],0.023943200125359,0.21937730011995882,None,390.6616889999714,None,0.21937730011995882,1.3676119232320447,390.8712528999895,None,,383.8378150999779,None,,,,,,wfoooa,001,fr,0,2022-05-04_11h19.08.860,Continuous,2022.1.1,None,
10,0,10,0,1,0,1,0,,,,,,,,1.148234623112086,both,6205.0,-4.202635356198574,7.737822456612738e-05,0,70,[],0.017331500072032213,None,['space'],392.0439873000141,392.0439873000141,0.21959760005120188,1.3678322231632878,392.2476551999571,392.0439873000141,[-0.7154261000687256],,,,,,,,wfoooa,001,fr,0,2022-05-04_11h19.08.860,Continuous,2022.1.1,None,
10,0,10,0,2,0,2,0,,,,,,,,1.148234623112086,both,4925.0,-6.0,7.396802688396339e-05,0,71,[],0.015209799981676042,0.2145866999635473,None,393.43064309994224,393.43064309994224,0.2145866999635473,1.3628213230756332,393.6507510000374,393.43064309994224,,,,,,,,,wfoooa,001,fr,0,2022-05-04_11h19.08.860,Continuous,2022.1.1,None,
10,0,10,0,3,0,3,0,,,,,,,,1.148234623112086,both,3909.0,-5.463427719296204,4.38989493477976e-05,0,72,[],0.0175632000900805,None,['space'],394.82414429995697,394.82414429995697,0.2201133001362905,1.3683479232483764,395.04024300002493,394.82414429995697,[-0.8555980999954045],,,,,,,,wfoooa,001,fr,0,2022-05-04_11h19.08.860,Continuous,2022.1.1,None,
10,0,10,0,4,0,4,0,,,,,,,,1.148234623112086,both,3103.0,-5.712918284837943,3.3449833635820975e-05,0,73,[],0.017510500154457986,None,None,396.21004209993407,396.21004209993407,0.22331020014826208,1.371544823260348,396.42593269993085,396.21004209993407,,,,,,,,,wfoooa,001,fr,0,2022-05-04_11h19.08.860,Continuous,2022.1.1,None,
10,0,10,0,5,0,5,0,,,,,,,,1.148234623112086,both,,,,1,73,[],0.01462479995097965,0.21247039991430938,['space'],397.60096910002176,397.60096910002176,0.21247039991430938,1.3607050230263953,397.8155492999358,397.60096910002176,[-0.6560738000553101],,,,,,,,wfoooa,001,fr,0,2022-05-04_11h19.08.860,Continuous,2022.1.1,None,
10,0,10,0,6,0,6,0,,,,,,,,1.148234623112086,both,1955.0,-3.2972284957863005,4.979090137036278e-05,0,74,[],0.014944700058549643,0.20982340001501143,None,398.9885244999314,398.9885244999314,0.20982340001501143,1.3580580231270973,399.20569319999777,398.9885244999314,,,,,,,,,wfoooa,001,fr,0,2022-05-04_11h19.08.860,Continuous,2022.1.1,None,
10,0,10,0,7,0,7,0,,,,,,,,1.148234623112086,both,1552.0,-4.052301159355865,3.304901275258488e-05,0,75,[],0.01759100006893277,None,['space'],400.3854863999877,400.3854863999877,0.220924400142394,1.36915902325448,400.597231999971,400.3854863999877,[-0.7858366000000387],,,,,,,,wfoooa,001,fr,0,2022-05-04_11h19.08.860,Continuous,2022.1.1,None,
10,0,10,0,8,0,8,0,,,,,,,,1.148234623112086,both,1232.0,-0.1674929222759145,5.272966556276924e-05,0,76,[],0.014133600052446127,None,"['space', 'space']",401.77443779993337,401.77443779993337,0.2089287000708282,1.357163323182914,401.99279619997833,401.77443779993337,"[-0.9580341000109911, 0.13001860002987087]",,,,,,,,wfoooa,001,fr,0,2022-05-04_11h19.08.860,Continuous,2022.1.1,None,
10,0,10,0,9,0,9,0,,,,,,,,1.148234623112086,both,978.0,-5.311268883882991,2.3561233049672757e-05,0,77,[],0.016772500006482005,None,None,403.17238330002874,403.17238330002874,0.21687290002591908,1.365107523138005,403.38846109993756,403.17238330002874,,,,,,,,,wfoooa,001,fr,0,2022-05-04_11h19.08.860,Continuous,2022.1.1,None,
10,0,10,0,10,0,10,0,,,,,,,,1.148234623112086,both,776.0,-2.2116886210772226,3.058900060341633e-05,0,78,[],0.016322400071658194,None,None,404.57408900000155,404.57408900000155,0.2189248000504449,1.3671594231625308,404.7840780999977,404.57408900000155,,,,,,,,,wfoooa,001,fr,0,2022-05-04_11h19.08.860,Continuous,2022.1.1,None,
11,0,11,0,0,0,0,0,,,,,0.5833333333333334,409.82048550003674,None,1.194181052768759,both,4002.0,-5.564287697767569,4.430645668006681e-05,0,79,[],0.02372070006094873,None,None,410.8527610999299,None,0.22196220012847334,1.4161432528972324,411.06982929992955,None,,405.9592834999785,None,,,,,,wfoooa,001,fr,0,2022-05-04_11h19.08.860,Continuous,2022.1.1,None,
11,0,11,0,1,0,1,0,,,,,,,,1.194181052768759,both,2671.0,-5.420558135324439,4.032626748232697e-05,0,80,[],0.011872600065544248,None,None,412.286179299932,412.286179299932,0.21738509996794164,1.4115661527367007,412.4996286999667,412.286179299932,,,,,,,,,wfoooa,001,fr,0,2022-05-04_11h19.08.860,Continuous,2022.1.1,None,
11,0,11,0,2,0,2,0,,,,,,,,1.194181052768759,both,1783.0,0.7688245986764808,7.103054894051237e-05,0,81,[],0.016687500057742,None,['space'],413.72826789994724,413.72826789994724,0.22726260009221733,1.4214436528609764,413.9443409999367,413.72826789994724,[-0.7366563000250608],,,,,,,,wfoooa,001,fr,0,2022-05-04_11h19.08.860,Continuous,2022.1.1,None,
11,0,11,0,3,0,3,0,,,,,,,,1.194181052768759,both,,,,1,81,[],0.017127900035120547,None,['space'],415.16647840000223,415.16647840000223,0.22039520007092506,1.4145762528396841,415.37684659997467,415.16647840000223,[-0.7504175000358373],,,,,,,,wfoooa,001,fr,0,2022-05-04_11h19.08.860,Continuous,2022.1.1,None,
11,0,11,0,4,0,4,0,,,,,,,,1.194181052768759,both,794.0,-2.4818128288238595,2.9037315538799936e-05,0,82,[],0.017218600027263165,None,['space'],416.6032713999739,416.6032713999739,0.21752169996034354,1.4117027527291026,416.81940089992713,416.6032713999739,[-0.6668945000274107],,,,,,,,wfoooa,001,fr,0,2022-05-04_11h19.08.860,Continuous,2022.1.1,None,
11,0,11,0,5,0,5,0,,,,,,,,1.194181052768759,both,530.0,-4.87689626202846,3.808044394385493e-05,0,83,[],0.012909000040963292,None,['space'],418.04379010002594,418.04379010002594,0.2077296000206843,1.4019106527894434,418.25979569996707,418.04379010002594,[-0.31499999994412065],,,,,,,,wfoooa,001,fr,0,2022-05-04_11h19.08.860,Continuous,2022.1.1,None,
11,0,11,0,6,0,6,0,,,,,,,,1.194181052768759,both,354.0,-6.0,4.435325908195891e-05,0,84,['both'],0.01679580006748438,None,None,419.4881600999506,419.4881600999506,0.22170200000982732,1.4158830527785864,419.7015127999475,419.4881600999506,,,,,"{'estimation': [[125.0, -3.460502991798827], [128.55339623728824, -3.0], [133.9716828170366, -2.3627196187127257], [136.47301056382207, -2.0], [143.58729437462938, -1.000745054586304], [143.5923879542624, -1.0], [150.43274392203503, 0.0], [153.89305166811442, 0.494496874763962], [157.72269774680504, 1.0], [164.93848884661162, 1.9320979263286968], [165.61211595233038, 2.0], [175.87378038745481, 3.0], [176.77669529663666, 3.084696638788164], [189.46457081379947, 3.7198288782924713], [203.0630990890585, 3.6678644074909257], [215.13419594149616, 3.0], [217.6376408240306, 2.8658166861341985], [226.7999168950303, 2.0], [233.25824788420132, 1.4031016217553742], [236.81077649915568, 1.0], [245.54795025890314, 0.0], [249.99999999999937, -0.492969976564823], [254.56262159544477, -1.0], [263.49353147626795, -2.0], [267.94336563407256, -2.4805345839655155], [273.73876320819244, -3.0], [284.9768527858259, -4.0], [287.1745887492579, -4.190582062230391], [301.93015864110316, -5.0], [307.78610333622805, -5.316202749054479], [329.87697769322244, -5.6869948621350765], [353.55339059327247, -5.320914928681713], [362.1072374406275, -5.0], [378.9291416275976, -4.399446292586195], [387.8490449307092, -4.0], [406.12619817811606, -3.2208539315265314], [411.6709731464689, -3.0], [435.2752816480601, -2.1063622205357606], [439.27301159473217, -2.0], [466.5164957684015, -1.314072561704286], [496.6934301879303, -1.0], [499.9999999999975, -0.9671729145958826], [512.4997070820999, -1.0], [535.8867312681438, -1.059621005168318], [574.3491774985143, -1.4641954814067537], [615.4117644795084, -2.0], [615.5722066724546, -2.0020061395000632], [659.7539553864432, -2.519091446896521], [707.1067811865431, -2.901906004457203], [729.5657438390232, -3.0], [757.8582832551941, -3.1193519666646985], [812.2523963562301, -3.1717865785847605], [870.5505632961181, -3.0744681427172025], [888.5213656528948, -3.0], [933.0329915368008, -2.8261447159205364], [999.9999999999939, -2.408334931252437], [1046.9904397460832, -2.0], [1071.773462536285, -1.7935537755093436], [1148.698354997026, -1.0105837863344282], [1149.6678532501537, -1.0], [1231.1444133449063, -0.14932579207725533], [1247.4491973727427, 0.0], [1319.5079107728832, 0.6319338669331598], [1387.87383483121, 1.0], [1414.2135623730828, 1.1379091799028886], [1515.7165665103846, 1.1989533664922267], [1562.9089475139535, 1.0], [1624.5047927124563, 0.7460541051315119], [1721.804902456821, 0.0], [1741.101126592234, -0.1450950627435435], [1835.353249171439, -1.0], [1866.065983073597, -1.2703003181819486], [1956.3838196014258, -2.0], [1999.9999999999802, -2.341221594623991], [2128.4794454655043, -3.0], [2143.5469250725646, -3.0757692105278904], [2297.396709994046, -3.2957698022979516], [2448.3184976163925, -3.0], [2462.2888266898062, -2.973484895440821], [2639.01582154576, -2.2669378483522866], [2698.0840099216853, -2.0], [2828.427124746159, -1.4412669387240138], [2968.3851648442933, -1.0], [3031.4331330207615, -0.8111762524578462], [3249.0095854249043, -0.6370267629485774], [3452.9861820866045, -1.0], [3482.2022531844555, -1.050311102343655], [3727.296702042003, -2.0], [3732.1319661471844, -2.0185000218955937], [3926.0803791415187, -3.0], [3999.9999999999504, -3.371173241697845], [4122.796695121532, -4.0], [4287.093850145118, -4.837474306833517], [4325.603472677235, -5.0], [4565.880792210663, -6.0], [4594.7934199880865, -6.117446402256452], [4924.577653379601, -6.928377948142632], [5094.395832941349, -7.0], [5278.031643091506, -7.07491130459029], [5321.854796086761, -7.0], [5656.854249492303, -6.457766658388249], [5790.5171834033, -6.0], [6062.866266041508, -5.096659668578092], [6084.042377593039, -5.0], [6301.269245338018, -4.0], [6498.019170849792, -3.1269872431682435], [6523.35510286091, -3.0], [6717.882623062141, -2.0], [6916.218738977388, -1.0], [6964.404506368894, -0.7712096572906568], [7121.514978537541, 0.0], [7320.459153820176, 1.0], [7464.2639322943505, 1.6825347563803805], [7542.14610142835, 2.0], [7776.445062754663, 3.0], [7999.999999999892, 3.94439227595134]], 'plus_line': [[125.0, -7.874730530036438], [130.53676543914008, -7.0], [133.9716828170366, -6.491976929031791], [137.28802815024767, -6.0], [143.5872943746293, -5.064024809962394], [144.03760497632783, -5.0], [151.1218359240303, -4.0], [153.89305166811442, -3.6082056311247697], [158.57710261636848, -3.0], [164.93848884661162, -2.166235761252701], [166.51834439152546, -2.0], [176.31887622002444, -1.0], [176.77669529663666, -0.955619587700483], [189.46457081379936, -0.26223996157005675], [203.0630990890585, -0.2845919838912402], [215.58921385433484, -1.0], [217.6376408240306, -1.1177684204474043], [226.1380966679284, -2.0], [233.25824788420132, -2.692661028999464], [235.72095041510684, -3.0], [243.58311863754952, -4.0], [249.99999999999937, -4.741864552143189], [252.0946098869967, -5.0], [259.99237905115746, -6.0], [267.94336563407256, -6.906395223002342], [268.8809890620065, -7.0], [278.6075326533197, -8.0], [287.1745887492579, -8.808555311400587], [290.2331843354716, -9.0], [306.34648060188755, -10.0], [307.78610333622805, -10.088515523134951], [329.87697769322244, -10.56198987143701], [353.55339059327247, -10.190754666300505], [358.15563295293543, -10.0], [378.929141627598, -9.185793521581878], [382.65516540232045, -9.0], [403.3871578162238, -8.0], [406.12619817811606, -7.874533734553264], [426.5861613917754, -7.0], [435.2752816480601, -6.644219987648251], [457.6680764110543, -6.0], [466.5164957684015, -5.763317826906335], [499.9999999999975, -5.377575099717287], [535.8867312681438, -5.430962387114896], [574.3491774985143, -5.765857741355637], [596.1707260766658, -6.0], [615.5722066724546, -6.211692822360485], [659.7539553864432, -6.624067550509145], [707.1067811865431, -6.90949002994066], [737.5988372764439, -7.0], [757.8582832551941, -7.064112533744746], [812.2523963562301, -7.072774354461491], [839.9335714735863, -7.0], [870.5505632961181, -6.931799029129033], [933.0329915368008, -6.652342920525107], [999.9999999999914, -6.194077402741714], [1020.6689871576726, -6.0], [1071.773462536285, -5.564665087073955], [1124.2478638956347, -5.0], [1148.698354997026, -4.754429157135234], [1217.0362927432946, -4.0], [1231.1444133449063, -3.853493129155696], [1319.5079107728832, -3.0286306361408593], [1324.2710872924174, -3.0], [1414.2135623730828, -2.522479829813993], [1515.7165665103864, -2.4844995411573847], [1624.5047927124563, -2.97615475420998], [1627.378050745346, -3.0], [1741.1011265922318, -3.936156620190572], [1747.7215961692705, -4.0], [1852.5397633671207, -5.0], [1866.065983073597, -5.125030142835901], [1969.2159624175297, -6.0], [1999.9999999999802, -6.253380403889092], [2138.2406403691634, -7.0], [2143.5469250725646, -7.029275471031529], [2297.396709994046, -7.305926991996848], [2452.921756780687, -7.0], [2462.2888266898062, -6.983686101937071], [2639.01582154576, -6.240204396949554], [2684.9888541637256, -6.0], [2828.427124746159, -5.311470567782006], [2906.325034195115, -5.0], [3031.4331330207615, -4.55427699865435], [3249.0095854249043, -4.28373657423987], [3482.202253184451, -4.6835511147831745], [3556.5827152673523, -5.0], [3732.1319661471844, -5.736315753076195], [3778.8413036857773, -6.0], [3956.264310750291, -7.0], [3999.9999999999554, -7.236332611684272], [4131.77792764906, -8.0], [4287.093850145118, -8.845673392667983], [4321.01628514433, -9.0], [4541.926403247552, -10.0], [4594.793419988081, -10.230003614959838], [4896.191525217401, -11.0], [4924.577653379601, -11.073009299909913], [5278.031643091506, -11.21240934107885], [5394.013156137909, -11.0], [5656.854249492303, -10.560747653080337], [5818.581580553024, -10.0], [6062.866266041516, -9.14714023440815], [6095.809572790963, -9.0], [6315.202557849378, -8.0], [6498.019170849792, -7.125156979438055], [6524.244354956772, -7.0], [6726.625251189102, -6.0], [6911.333672913894, -5.0], [6964.404506368894, -4.730330819768959], [7125.848788089462, -4.0], [7323.992766795801, -3.0], [7464.2639322943505, -2.293856418348497], [7546.341564325682, -2.0], [7806.910255347625, -1.0], [7999.999999999882, -0.21004274188295688]], 'minus_line': [[125.0, 0.7934952550242566], [127.02724903214374, 1.0], [133.9716828170366, 1.6564822919545747], [136.28535696119087, 2.0], [143.38838677795226, 3.0], [143.5872943746293, 3.0271491985622307], [149.55248918759602, 4.0], [153.89305166811442, 4.655043089089751], [156.31279210100402, 5.0], [163.53175079068296, 6.0], [164.93848884661162, 6.187130743339005], [172.9459325580495, 7.0], [176.77669529663666, 7.3724449757513355], [189.46457081379947, 7.972412994681504], [203.0630990890585, 7.888549061367244], [217.6376408240306, 7.057723141109333], [218.23850859032228, 7.0], [228.8463732182745, 6.0], [233.25824788420118, 5.587148457023609], [238.55549691283153, 5.0], [247.16750913682475, 4.0], [249.99999999999937, 3.6815280180973824], [256.3624234963575, 3.0], [265.1953868431118, 2.0], [267.94336563407256, 1.7007391577777715], [276.070872131243, 1.0], [287.1745887492579, 0.010500467497397747], [287.36852874376774, 0.0], [306.45782842996044, -1.0], [307.78610333622805, -1.0675807996808508], [329.87697769322244, -1.3926127691701817], [353.55339059327247, -1.0264199461038037], [354.27995442042965, -1.0], [378.929141627598, -0.13099572378852303], [381.972336550191, 0.0], [406.12619817811554, 0.9901064515454482], [406.38610653134145, 1.0], [433.64462628905994, 2.0], [435.2752816480601, 2.0572637110678844], [466.5164957684015, 2.824904170114086], [484.70064589533, 3.0], [499.9999999999975, 3.1530299560564705], [535.8867312681438, 3.021747376148001], [537.510850186303, 3.0], [574.3491774985143, 2.5626060299977267], [609.7420958606223, 2.0], [615.5722066724546, 1.9156003574436755], [659.7539553864432, 1.3138428108595703], [690.8590166207006, 1.0], [707.1067811865431, 0.8533033643144313], [757.8582832551941, 0.6108175828922877], [812.2523963562301, 0.5381070842184486], [870.5505632961181, 0.6016227553546223], [933.0329915368008, 0.7995746813487602], [968.410575624483, 1.0], [999.9999999999926, 1.185204995389324], [1071.773462536285, 1.780731436847327], [1092.9408635706416, 2.0], [1148.698354997026, 2.573734892652637], [1188.593886767183, 3.0], [1231.1444133449063, 3.4508866140078975], [1292.0090864783747, 4.0], [1319.5079107728832, 4.250508957578473], [1414.2135623730828, 4.78969422015799], [1515.7165665103828, 4.902486914559638], [1624.5047927124563, 4.517632818743094], [1692.437180152626, 4.0], [1741.1011265922318, 3.6475484944078094], [1811.3468789262329, 3.0], [1866.065983073597, 2.510695040771847], [1926.9377846542682, 2.0], [1999.9999999999802, 1.4110800343065562], [2076.082368140564, 1.0], [2143.5469250725646, 0.6622173205775872], [2297.396709994046, 0.46941641325170136], [2462.2888266898062, 0.8215502107738513], [2505.0353668291627, 1.0], [2639.01582154576, 1.564226604004811], [2739.7853968065765, 2.0], [2828.427124746159, 2.3834337734229276], [3031.4331330207615, 2.966817480274185], [3079.728841806882, 3.0], [3249.0095854249043, 3.1262471186717837], [3319.5470513955834, 3.0], [3482.2022531844555, 2.7403194036201044], [3685.762399956194, 2.0], [3732.1319661471844, 1.8363409331928644], [3910.8077187281315, 1.0], [3999.9999999999504, 0.5774569592522321], [4119.2891078435005, 0.0], [4287.093850145118, -0.8334675863762074], [4326.882436035097, -1.0], [4568.705595986998, -2.0], [4594.793419988081, -2.1044284681026575], [4924.577653379601, -2.9540232244263596], [4998.134641921217, -3.0], [5278.031643091506, -3.1503608360992983], [5374.768535397075, -3.0], [5656.854249492303, -2.5617146939990523], [5818.800651995803, -2.0], [6062.866266041501, -1.210495822780467], [6106.78142619725, -1.0], [6312.452350104268, 0.0], [6498.019170849792, 0.7891108836342831], [6537.196327603838, 1.0], [6715.335183297887, 2.0], [6918.750114906099, 3.0], [6964.404506368894, 3.2064986018621973], [7107.2754198401935, 4.0], [7293.2838480346745, 5.0], [7464.2639322943505, 5.792364857608675], [7507.722194142499, 6.0], [7704.697812131271, 7.0], [7918.9517017012, 8.0], [7999.999999999892, 8.350792643684736]]}",,,,wfoooa,001,fr,0,2022-05-04_11h19.08.860,Continuous,2022.1.1,None,
11,0,11,0,7,0,7,0,,,,,,,,1.194181052768759,both,236.0,-4.881231885994584,0.00011111574506963228,0,85,['both'],0.010843099909834564,None,None,420.9259300000267,420.9259300000267,0.2066874000011012,1.4008684527698603,421.14067969995085,420.9259300000267,,,,,,,,,wfoooa,001,fr,0,2022-05-04_11h19.08.860,Continuous,2022.1.1,None,
11,0,11,0,8,0,8,0,,,,,,,,1.194181052768759,both,158.0,1.6181581327237116,0.0005167628063521448,0,86,['both'],0.01214340003207326,None,None,422.36605359998066,422.36605359998066,0.20801730011589825,1.4021983528846573,422.5804143999703,422.36605359998066,,,,,,,,,wfoooa,001,fr,0,2022-05-04_11h19.08.860,Continuous,2022.1.1,None,
12,0,12,0,0,0,0,0,,,,,,425.960310399998,None,1.9006424933016115,time,842.0,1.837975834957028,4.88849017854014e-05,0,25,['both'],0.015316500095650554,None,None,426.9872217000229,None,0.21968360000755638,2.120326093309168,427.2072894999292,None,,423.8086801000172,None,"[0.5833333333333334, 0.5833333333333334, 0.5833333333333334, 0.5833333333333334, 0.16666666666666666, 0.3333333333333333, 0.5833333333333334, 0.5833333333333334, 0.3333333333333333, 0.3333333333333333, 0.3333333333333333, 0.5833333333333334, 0.16666666666666666, 0.5833333333333334, 0.16666666666666666]",,,,,wfoooa,001,fr,0,2022-05-04_11h19.08.860,Continuous,2022.1.1,None,
12,0,12,0,1,0,1,0,,,,,,,,1.9006424933016115,time,945.0,1.5709876770560633,5.091296253060228e-05,0,26,['both'],0.014966399990953505,None,None,429.13331479998305,429.13331479998305,0.21590090007521212,2.1165433933768236,429.34943169995677,429.13331479998305,,,,,,,,,wfoooa,001,fr,0,2022-05-04_11h19.08.860,Continuous,2022.1.1,None,
12,0,12,0,2,0,2,0,,,,,,,,1.9006424933016115,time,125.0,1.6126418448640518,0.0008701659729133951,0,27,['both'],0.01614530000369996,None,"['space', 'space']",431.2800522999605,431.2800522999605,0.22038369998335838,2.12102619328497,431.4892457999522,431.2800522999605,"[-1.4884501000633463, -0.22425049997400492]",,,,,,,,wfoooa,001,fr,0,2022-05-04_11h19.08.860,Continuous,2022.1.1,None,
12,0,12,0,3,0,3,0,,,,,,,,1.9006424933016115,time,1589.0,1.323943372759055,6.501249189226376e-05,0,28,['both'],0.013928900007158518,None,['space'],433.421135499957,433.421135499957,0.21239910006988794,2.1130415933714994,433.6386355999857,433.421135499957,[-0.39610729995183647],,,,,,,,wfoooa,001,fr,0,2022-05-04_11h19.08.860,Continuous,2022.1.1,None,
12,0,12,0,4,0,4,0,,,,,,,,1.9006424933016115,time,1416.0,1.07290880840327,5.7012812184695734e-05,0,29,['both'],0.014225399936549366,None,['space'],435.57312940002885,435.57312940002885,0.21291869995184243,2.113561193253454,435.78957649995573,435.57312940002885,[-1.0287232999689877],,,,,,,,wfoooa,001,fr,0,2022-05-04_11h19.08.860,Continuous,2022.1.1,None,
12,0,12,0,5,0,5,0,,,,,,,,1.9006424933016115,time,354.0,1.0,9.929457867117957e-05,0,30,['both'],0.015778200002387166,None,['space'],437.7194451999385,437.7194451999385,0.21502370003145188,2.1156661933330634,437.9292759000091,437.7194451999385,[-1.4946252999361604],,,,,,,,wfoooa,001,fr,0,2022-05-04_11h19.08.860,Continuous,2022.1.1,None,
12,0,12,0,6,0,6,0,,,,,,,,1.9006424933016115,time,446.0,1.4097995677788866,8.72804228488025e-05,0,31,['both'],0.015786000061780214,None,['space'],439.8615298999939,439.8615298999939,0.21802210004534572,2.1186645933469572,440.07784619997256,439.8615298999939,[-1.6692109000869095],,,,,,,,wfoooa,001,fr,0,2022-05-04_11h19.08.860,Continuous,2022.1.1,None,
12,0,12,0,7,0,7,0,,,,,,,,1.9006424933016115,time,,,,1,31,['both'],0.015030300011858344,None,"['space', 'space']",442.0132395999972,442.0132395999972,0.2150757999625057,2.115718293264117,442.2291867999593,442.0132395999972,"[-1.5811640000902116, 0.035767799941822886]",,,,,,,,wfoooa,001,fr,0,2022-05-04_11h19.08.860,Continuous,2022.1.1,None,
12,0,12,0,8,0,8,0,,,,,,,,1.9006424933016115,time,281.0,4.645020831758219,0.00022984153024848842,0,32,['both'],0.016802900121547282,None,None,444.15899080003146,444.15899080003146,0.21743520011659712,2.1180776934182086,444.3695145000238,444.15899080003146,,,,,,,,,wfoooa,001,fr,0,2022-05-04_11h19.08.860,Continuous,2022.1.1,None,
12,0,12,0,9,0,9,0,,,,,,,,1.9006424933016115,time,562.0,1.6780762065648247,7.493767556637445e-05,0,33,['both'],0.015183300012722611,None,['space'],446.30149240000173,446.30149240000173,0.21499220002442598,2.1156346933260375,446.51716089993715,446.30149240000173,[-1.7259085000259802],,,,,,,,wfoooa,001,fr,0,2022-05-04_11h19.08.860,Continuous,2022.1.1,None,
13,0,13,0,0,0,0,0,,,,,,451.3113473999547,None,1.9237454718559652,time,1060.0,2.042381793005684,5.890489404745257e-05,0,34,['both'],0.023925500106997788,None,None,452.33653369999956,None,0.23814740008674562,2.161892871942711,452.5556105999276,None,,448.4526973000029,None,"[0.5833333333333334, 0.16666666666666666, 0.3333333333333333, 0.3333333333333333, 0.5833333333333334, 0.5833333333333334, 0.16666666666666666, 0.3333333333333333, 0.5833333333333334, 0.5833333333333334, 0.3333333333333333, 0.3333333333333333, 0.16666666666666666, 0.3333333333333333, 0.3333333333333333]",,,,,wfoooa,001,fr,0,2022-05-04_11h19.08.860,Continuous,2022.1.1,None,
13,0,13,0,1,0,1,0,,,,,,,,1.9237454718559652,time,,,,1,34,['both'],0.008501200121827424,0.20092700014356524,['space'],454.5046533999266,454.5046533999266,0.20092700014356524,2.1246724719995305,454.7151592000155,454.5046533999266,[-1.4321962998947129],,,,,,,,wfoooa,001,fr,0,2022-05-04_11h19.08.860,Continuous,2022.1.1,None,
13,0,13,0,2,0,2,0,,,,,,,,1.9237454718559652,time,4238.0,-2.369480497731723,7.636531673242316e-05,0,35,['both'],0.01289610005915165,None,['space'],456.6695895999437,456.6695895999437,0.20902169996406883,2.132767171820034,456.88429700001143,456.6695895999437,[-1.644839399959892],,,,,,,,wfoooa,001,fr,0,2022-05-04_11h19.08.860,Continuous,2022.1.1,None,
13,0,13,0,3,0,3,0,,,,,,,,1.9237454718559652,time,1335.0,2.2594753122243927,6.796673011699046e-05,0,36,['both'],0.015454199980013072,None,['space'],458.8465213000309,458.8465213000309,0.21976919996086508,2.1435146718168303,459.0581209999509,458.8465213000309,[-1.6461430001072586],,,,,,,,wfoooa,001,fr,0,2022-05-04_11h19.08.860,Continuous,2022.1.1,None,
13,0,13,0,4,0,4,0,,,,,,,,1.9237454718559652,time,2520.0,0.0,8.465255897585062e-05,0,37,['both'],0.014012500061653554,None,['space'],461.0162222000072,461.0162222000072,0.21519719995558262,2.138942671811548,461.22455569996964,461.0162222000072,[-1.607691299985163],,,,,,,,wfoooa,001,fr,0,2022-05-04_11h19.08.860,Continuous,2022.1.1,None,
13,0,13,0,5,0,5,0,,,,,,,,1.9237454718559652,time,944.0,2.0033888797175683,5.347586568643334e-05,0,38,['both'],0.015362399979494512,None,['space'],463.18596899998374,463.18596899998374,0.21683339995797724,2.1405788718139425,463.39346309995744,463.18596899998374,[-1.665688900044188],,,,,,,,wfoooa,001,fr,0,2022-05-04_11h19.08.860,Continuous,2022.1.1,None,
13,0,13,0,6,0,6,0,,,,,,,,1.9237454718559652,time,1682.0,1.6506334735420243,7.310552776959642e-05,0,39,['both'],0.015201300149783492,None,['space'],465.3546092000324,465.3546092000324,0.21866140014026314,2.1424068719962284,465.57069660001434,465.3546092000324,[-1.57756220002193],,,,,,,,wfoooa,001,fr,0,2022-05-04_11h19.08.860,Continuous,2022.1.1,None,
13,0,13,0,7,0,7,0,,,,,,,,1.9237454718559652,time,5339.0,-0.5198279048206023,0.0001320979068677167,0,40,['both'],0.014741299906745553,None,['space'],467.5238760999637,467.5238760999637,0.215922899893485,2.1396683717494502,467.73964980000164,467.5238760999637,[-1.6515401999931782],,,,,,,,wfoooa,001,fr,0,2022-05-04_11h19.08.860,Continuous,2022.1.1,None,
13,0,13,0,8,0,8,0,,,,,,,,1.9237454718559652,time,8000.0,0.0,0.0001815390273850507,0,41,['both'],0.015169200021773577,None,['space'],469.6921282999683,469.6921282999683,0.21689210005570203,2.1406375719116673,469.9045562000247,469.6921282999683,[-1.643592600012198],,,,,,,,wfoooa,001,fr,0,2022-05-04_11h19.08.860,Continuous,2022.1.1,None,
14,0,14,0,0,0,0,0,,,,,,474.9786703999853,None,2.6124346271401713,none,,,,1,36,['both'],0.023561400128528476,None,None,475.98886009992566,None,0.240881200064905,2.8533158272050763,476.2091879999498,None,,471.86216419993434,None,"[0.3333333333333333, 0.3333333333333333, 0.5833333333333334, 0.16666666666666666, 0.16666666666666666, 0.3333333333333333, 0.3333333333333333, 0.16666666666666666, 0.3333333333333333, 0.16666666666666666, 0.16666666666666666, 0.3333333333333333, 0.16666666666666666, 0.3333333333333333, 0.5833333333333334]",,,,,wfoooa,001,fr,0,2022-05-04_11h19.08.860,Continuous,2022.1.1,None,
14,0,14,0,1,0,1,0,,,,,,,,2.7696420504103823,none,2829.0,-0.1966848766522873,6.398495017995119e-05,0,37,['both'],0.01593759993556887,None,None,478.8463815000141,478.8463815000141,0.21883469994645566,2.988476750356838,479.0608648000052,478.8463815000141,,,,,,,,,wfoooa,001,fr,0,2022-05-04_11h19.08.860,Continuous,2022.1.1,None,
14,0,14,0,2,0,2,0,,,,,,,,2.7038154315601393,none,4490.0,-1.0547340758576644,0.0001042014930504471,0,38,['both'],0.007938100025057793,None,['space'],481.8672193000093,481.8672193000093,0.2047237999504432,2.9085392315105825,482.07991920004133,481.8672193000093,[-2.5227700000396],,,,,,,,wfoooa,001,fr,0,2022-05-04_11h19.08.860,Continuous,2022.1.1,None,
14,0,14,0,3,0,3,0,,,,,,,,2.282192397796563,none,8000.0,1.0,0.0002036901389020564,0,39,['both'],0.007372000138275325,0.2017732000676915,['space'],484.8213878000388,484.8213878000388,0.2017732000676915,2.4839655978642545,485.03379260003567,484.8213878000388,[-2.468889700016007],,,,,,,,wfoooa,001,fr,0,2022-05-04_11h19.08.860,Continuous,2022.1.1,None,
14,0,14,0,4,0,4,0,,,,,,,,1.7658693777493653,none,3564.0,-1.1722743569232599,6.665528803228077e-05,0,40,['both'],0.011670100037008524,None,['space'],487.34828559996095,487.34828559996095,0.2052659000037238,1.971135277753089,487.5653745000018,487.34828559996095,[-2.036166000063531],,,,,,,,wfoooa,001,fr,0,2022-05-04_11h19.08.860,Continuous,2022.1.1,None,
14,0,14,0,5,0,5,0,,,,,,,,1.5928102891434464,none,3175.0,-2.049679589270765,5.485784030965792e-05,0,41,['both'],0.0140872000483796,None,['space'],489.3640401000157,489.3640401000157,0.21653600002173334,1.8093462891651797,489.5805846999865,489.3640401000157,[-1.5392245000693947],,,,,,,,wfoooa,001,fr,0,2022-05-04_11h19.08.860,Continuous,2022.1.1,None,
14,0,14,0,6,0,6,0,,,,,,,,2.791731123391018,none,5657.0,0.5923933012356617,0.00013758930458043048,0,42,['both'],0.014829999883659184,None,['space'],491.2130088999402,491.2130088999402,0.21867529989685863,3.0104064232878764,491.42475859995466,491.2130088999402,[-1.3725975999841467],,,,,,,,wfoooa,001,fr,0,2022-05-04_11h19.08.860,Continuous,2022.1.1,None,
14,0,14,0,7,0,7,0,,,,,,,,2.138587071966903,none,1499.0,1.5224864656432415,5.7586076597447325e-05,0,43,['both'],0.014766299864277244,None,"['space', 'space']",494.25204539997503,494.25204539997503,0.2169865999603644,2.3555736719272673,494.4611101000337,494.25204539997503,"[-2.5561829999787733, -0.2994730999926105]",,,,,,,,wfoooa,001,fr,0,2022-05-04_11h19.08.860,Continuous,2022.1.1,None,
14,0,14,0,8,0,8,0,,,,,,,,2.743271732467851,none,6350.0,-2.3202764032755985,0.00010069081554129259,0,44,['both'],0.014675999875180423,None,['space'],496.6379153999733,496.6379153999733,0.21780549990944564,2.9610772323772965,496.8469429999823,496.6379153999733,[-0.8772443999769166],,,,,,,,wfoooa,001,fr,0,2022-05-04_11h19.08.860,Continuous,2022.1.1,None,
15,0,15,0,0,0,0,0,,,,,,503.00804700003937,None,1.703806229913692,none,1587.0,2.1931269048677646,7.163734340880281e-05,0,45,['both'],0.023793199914507568,None,None,504.0382566000335,None,0.23735900002066046,1.9411652299343525,504.25507890002336,None,,499.61974679993,None,"[0.5833333333333334, 0.5833333333333334, 0.3333333333333333, 0.3333333333333333, 0.5833333333333334, 0.16666666666666666, 0.5833333333333334, 0.5833333333333334, 0.3333333333333333, 0.16666666666666666, 0.5833333333333334, 0.5833333333333334, 0.3333333333333333, 0.3333333333333333, 0.3333333333333333]",,,,,wfoooa,001,fr,0,2022-05-04_11h19.08.860,Continuous,2022.1.1,None,
15,0,15,0,1,0,1,0,,,,,,,,1.8921794426425378,none,264.0,0.6031115963748084,0.0001636270936774476,0,46,['both'],0.010994200129061937,None,['space'],505.9866649999749,505.9866649999749,0.20590220007579774,2.0980816427183355,506.2025342999259,505.9866649999749,[-1.361691200057976],,,,,,,,wfoooa,001,fr,0,2022-05-04_11h19.08.860,Continuous,2022.1.1,None,
15,0,15,0,2,0,2,0,,,,,,,,2.00894986370462,none,6350.0,-0.023903627367825475,0.00013116214101201022,0,47,['both'],0.014324299874715507,None,['space'],508.13291869999375,508.13291869999375,0.21763399988412857,2.2265838635887487,508.3450572999427,508.13291869999375,[-0.6296789000043646],,,,,,,,wfoooa,001,fr,0,2022-05-04_11h19.08.860,Continuous,2022.1.1,None,
15,0,15,0,3,0,3,0,,,,,,,,2.4212710828136834,none,5040.0,-1.2019776348143552,0.00013172154134558737,0,48,['both'],0.011324299848638475,None,['space'],510.3863194999285,510.3863194999285,0.20887169986963272,2.630142782683316,510.60218099993654,510.3863194999285,[-1.6975973000517115],,,,,,,,wfoooa,001,fr,0,2022-05-04_11h19.08.860,Continuous,2022.1.1,None,
15,0,15,0,4,0,4,0,,,,,,,,2.7293976466440526,none,630.0,0.383203707932982,5.347246313467757e-05,0,49,['both'],0.010028499993495643,None,['space'],513.0562995999353,513.0562995999353,0.20568899996578693,2.9350866466098395,513.2760579999303,513.0562995999353,[-2.1600824999623],,,,,,,,wfoooa,001,fr,0,2022-05-04_11h19.08.860,Continuous,2022.1.1,None,
15,0,15,0,5,0,5,0,,,,,,,,1.6891350993448204,none,3364.0,-1.2935016182831731,6.270639811059249e-05,0,50,['both'],0.006140999961644411,0.1992272000061348,None,516.038230999955,516.038230999955,0.1992272000061348,1.8883622993509552,516.2485847999342,516.038230999955,,,,,,,,,wfoooa,001,fr,0,2022-05-04_11h19.08.860,Continuous,2022.1.1,None,
15,0,15,0,6,0,6,0,,,,,,,,1.6983851784011874,none,176.0,0.051451225131258216,0.00035494600616611696,0,51,['both'],0.014209599932655692,None,['space'],517.9766471999465,517.9766471999465,0.22193919995334,1.9203243783545274,518.1986490000272,517.9766471999465,[-1.3039224999956787],,,,,,,,wfoooa,001,fr,0,2022-05-04_11h19.08.860,Continuous,2022.1.1,None,
15,0,15,0,7,0,7,0,,,,,,,,1.3687803396482574,none,2245.0,0.22735520828068978,8.237086829618534e-05,0,52,['both'],0.0074072000570595264,None,None,519.9239701000042,519.9239701000042,0.2030282000778243,1.5718085397260817,520.1409213999286,519.9239701000042,,,,,,,,,wfoooa,001,fr,0,2022-05-04_11h19.08.860,Continuous,2022.1.1,None,
15,0,15,0,8,0,8,0,,,,,,,,2.341851892469928,none,2000.0,0.0,7.481178280472168e-05,0,53,['both'],0.014193600043654442,None,None,521.5467448999407,521.5467448999407,0.21618780004791915,2.558039692517847,521.7692965000169,521.5467448999407,,,,,,,,,wfoooa,001,fr,0,2022-05-04_11h19.08.860,Continuous,2022.1.1,None,
15,0,15,0,9,0,9,0,,,,,,,,1.0770076513967435,none,1059.0,1.3366386261969978,5.425926604902326e-05,0,54,['both'],0.01064240001142025,0.20701010001357645,['space'],524.1407735999674,524.1407735999674,0.20701010001357645,1.28401775141032,524.3544356999919,524.1407735999674,[-2.300737699959427],,,,,,,,wfoooa,001,fr,0,2022-05-04_11h19.08.860,Continuous,2022.1.1,None,
15,0,15,0,10,0,10,0,,,,,,,,2.0549600439000146,none,707.0,0.9538677142980099,4.9567471578656125e-05,0,55,['both'],0.005947500001639128,None,['space'],525.4653895000229,525.4653895000229,0.20082120003644377,2.2557812439364584,525.733260500012,525.4653895000229,[-0.5372730999952182],,,,,,,,wfoooa,001,fr,0,2022-05-04_11h19.08.860,Continuous,2022.1.1,None,
15,0,15,0,11,0,11,0,,,,,,,,2.932331988680012,none,8000.0,-0.054625844282472524,0.00018040090509422488,0,56,['both'],0.010451699956320226,None,None,527.7714268999407,527.7714268999407,0.2076977000106126,3.1400296886906247,527.988267299952,527.7714268999407,,,,,,,,,wfoooa,001,fr,0,2022-05-04_11h19.08.860,Continuous,2022.1.1,None,
15,0,15,0,12,0,12,0,,,,,,,,2.1241883138531943,none,,,,1,56,['both'],0.012460199999623,None,['space'],530.9574893999379,530.9574893999379,0.21690520003903657,2.341093513892231,531.1794852999737,530.9574893999379,[-2.605546099948697],,,,,,,,wfoooa,001,fr,0,2022-05-04_11h19.08.860,Continuous,2022.1.1,None,
15,0,15,0,13,0,13,0,,,,,,,,2.668961540337962,none,420.0,0.5134397904641057,8.013190965339159e-05,0,57,['both'],0.01135210006032139,None,None,533.335771300015,533.335771300015,0.20755000005010515,2.876511540388067,533.5488073999295,533.335771300015,,,,,,,,,wfoooa,001,fr,0,2022-05-04_11h19.08.860,Continuous,2022.1.1,None,
16,0,16,0,0,0,0,0,,,,,,540.6037065000273,None,2.444135343232757,time,126.0,1.7232832416503228,0.0008704645540406226,0,42,['both'],0.02375760010909289,None,None,541.6106906000059,None,0.2297004001447931,2.67383574337755,541.8222024999559,None,,536.2532502999529,None,"[0.3333333333333333, 0.16666666666666666, 0.16666666666666666, 0.5833333333333334, 0.5833333333333334, 0.5833333333333334, 0.16666666666666666, 0.3333333333333333, 0.5833333333333334, 0.16666666666666666, 0.5833333333333334, 0.3333333333333333, 0.3333333333333333, 0.3333333333333333, 0.5833333333333334]",,,,,wfoooa,001,fr,0,2022-05-04_11h19.08.860,Continuous,2022.1.1,None,
16,0,16,0,1,0,1,0,,,,,,,,2.444135343232757,time,505.0,2.0456926221463436,8.943080221293935e-05,0,43,['both'],0.006866800016723573,None,['space'],544.3001399999484,544.3001399999484,0.20095680002123117,2.6450921432539882,544.5151830000104,544.3001399999484,[-2.0124053000472486],,,,,,,,wfoooa,001,fr,0,2022-05-04_11h19.08.860,Continuous,2022.1.1,None,
16,0,16,0,2,0,2,0,,,,,,,,2.444135343232757,time,189.0,1.0,0.00034278109826304615,0,44,['both'],0.010207100072875619,None,None,546.9964093000162,546.9964093000162,0.21362330007832497,2.657758643311082,547.2163771999767,546.9964093000162,,,,,,,,,wfoooa,001,fr,0,2022-05-04_11h19.08.860,Continuous,2022.1.1,None,
16,0,16,0,3,0,3,0,,,,,,,,2.444135343232757,time,212.0,1.5323637333903704,0.0002886100149682285,0,45,['both'],0.009593499940820038,0.20487469993531704,['space'],549.6956793999998,549.6956793999998,0.20487469993531704,2.649010043168074,549.9144711999688,549.6956793999998,[-2.079872600035742],,,,,,,,wfoooa,001,fr,0,2022-05-04_11h19.08.860,Continuous,2022.1.1,None,
16,0,16,0,4,0,4,0,,,,,,,,2.444135343232757,time,636.0,1.989703086348776,6.36745567673476e-05,0,46,['both'],0.008496500086039305,None,None,552.3905806000112,552.3905806000112,0.2051699000876397,2.6493052433203967,552.6041490000207,552.3905806000112,,,,,,,,,wfoooa,001,fr,0,2022-05-04_11h19.08.860,Continuous,2022.1.1,None,
16,0,16,0,5,0,5,0,,,,,,,,2.444135343232757,time,318.0,4.914161891758044,0.00017227997160680495,0,47,['both'],0.010642599896527827,0.208975899964571,None,555.0839268999407,555.0839268999407,0.208975899964571,2.653111243197328,555.299044799991,555.0839268999407,,,,,,,,,wfoooa,001,fr,0,2022-05-04_11h19.08.860,Continuous,2022.1.1,None,
16,0,16,0,6,0,6,0,,,,,,,,2.444135343232757,time,953.0,1.6490511394631702,5.164751217889997e-05,0,48,['both'],0.009906799998134375,0.20293079991824925,None,557.7764575999463,557.7764575999463,0.20293079991824925,2.6470661431510063,557.9917044999311,557.7764575999463,,,,,,,,,wfoooa,001,fr,0,2022-05-04_11h19.08.860,Continuous,2022.1.1,None,
16,0,16,0,7,0,7,0,,,,,,,,2.444135343232757,time,,,,1,48,['both'],0.007182900095358491,None,None,560.4671162000159,560.4671162000159,0.20263010007329285,2.64676544330605,560.6833278000122,560.4671162000159,,,,,,,,,wfoooa,001,fr,0,2022-05-04_11h19.08.860,Continuous,2022.1.1,None,
16,0,16,0,8,0,8,0,,,,,,,,2.444135343232757,time,401.0,5.607032891983526,0.00014589206761996793,0,49,['both'],0.01165000011678785,None,None,563.1617926999461,563.1617926999461,0.2053565001115203,2.6494918433442773,563.3796163999941,563.1617926999461,,,,,,,,,wfoooa,001,fr,0,2022-05-04_11h19.08.860,Continuous,2022.1.1,None,
17,0,17,0,0,0,0,0,,,,,0.5833333333333334,569.3978120000102,None,2.821491173883519,frequency,8000.0,5.0,0.00032282711451732784,0,70,['both'],0.017939699930138886,None,None,570.4317544000223,None,0.21279129991307855,3.0342824737965977,570.6471053999849,None,,565.8603090000106,None,,,,,,wfoooa,001,fr,0,2022-05-04_11h19.08.860,Continuous,2022.1.1,None,
17,0,17,0,1,0,1,0,,,,,,,,1.6773748594962892,frequency,5339.0,2.826153377641066,0.0001941757540140145,0,71,['both'],0.009399099973961711,0.20631799986585975,['space'],573.5032300000312,573.5032300000312,0.20631799986585975,1.883692859362149,573.7225273000076,573.5032300000312,[-2.543032699963078],,,,,,,,wfoooa,001,fr,0,2022-05-04_11h19.08.860,Continuous,2022.1.1,None,
17,0,17,0,2,0,2,0,,,,,,,,1.1746052234580262,frequency,3563.0,-2.441791335245127,5.7578296889164874e-05,0,72,['both'],0.007649500155821443,None,['space'],575.4318059999496,575.4318059999496,0.20053270016796887,1.375137923625995,575.6444799000164,575.4318059999496,[-1.3997433999320492],,,,,,,,wfoooa,001,fr,0,2022-05-04_11h19.08.860,Continuous,2022.1.1,None,
17,0,17,0,3,0,3,0,,,,,,,,1.5288285453235992,frequency,2378.0,2.9182714966886594,0.00011640991777176115,0,73,['both'],0.011798899970017374,None,['space'],576.8565233999398,576.8565233999398,0.21689240005798638,1.7457209453815856,577.0739773999667,576.8565233999398,[-0.7915628999471664],,,,,,,,wfoooa,001,fr,0,2022-05-04_11h19.08.860,Continuous,2022.1.1,None,
17,0,17,0,4,0,4,0,,,,,,,,1.7879380828076383,frequency,1587.0,4.112845241368472,8.935634350383797e-05,0,74,['both'],0.012013200088404119,None,['space'],578.6405442999676,578.6405442999676,0.210872600087896,1.9988106828955343,578.8581286999397,578.6405442999676,[-1.264399699983187],,,,,,,,wfoooa,001,fr,0,2022-05-04_11h19.08.860,Continuous,2022.1.1,None,
17,0,17,0,5,0,5,0,,,,,,,,2.320556132052412,frequency,,,,1,74,['both'],0.00924209994263947,None,['space'],580.6781727999914,580.6781727999914,0.2051162999123335,2.5256724319647454,580.8972924000118,580.6781727999914,[-1.477735499967821],,,,,,,,wfoooa,001,fr,0,2022-05-04_11h19.08.860,Continuous,2022.1.1,None,
17,0,17,0,6,0,6,0,,,,,,,,1.2776358341615286,frequency,707.0,3.864834250022511,6.930189226344793e-05,0,75,['both'],0.011039600009098649,None,None,583.2489542999538,583.2489542999538,0.2056419999571517,1.4832778341186803,583.4674829000141,583.2489542999538,,,,,,,,,wfoooa,001,fr,0,2022-05-04_11h19.08.860,Continuous,2022.1.1,None,
17,0,17,0,7,0,7,0,,,,,,,,1.4116251894700746,frequency,472.0,5.423377560347649,0.00013606607935623177,0,76,['both'],0.011396000045351684,None,['space'],584.7804992999882,584.7804992999882,0.21701090002898127,1.628636089499056,584.9969040999422,584.7804992999882,[-0.9400200000964105],,,,,,,,wfoooa,001,fr,0,2022-05-04_11h19.08.860,Continuous,2022.1.1,None,
17,0,17,0,8,0,8,0,,,,,,,,1.1032946409698638,frequency,315.0,5.124851705747034,0.00017791501010289506,0,77,['both'],0.00619920005556196,0.1980573000619188,['space'],586.4445156999864,586.4445156999864,0.1980573000619188,1.3013519410317826,586.6547617999604,586.4445156999864,[-0.7972635000478476],,,,,,,,wfoooa,001,fr,0,2022-05-04_11h19.08.860,Continuous,2022.1.1,None,
18,0,18,0,0,0,0,0,,,,,0.3333333333333333,592.1806438999483,None,1.0979507889289335,frequency,6807.0,-3.1816534427801457,0.0001007885287891347,0,78,['both'],0.023678800091147423,None,None,593.2112573999912,None,0.23086470004636794,1.3288154889753014,593.4333328999346,None,,587.7925864999415,None,,,,,,wfoooa,001,fr,0,2022-05-04_11h19.08.860,Continuous,2022.1.1,None,
18,0,18,0,1,0,1,0,,,,,,,,1.3408681191633312,frequency,5403.0,-5.293658239506946,7.496072674718726e-05,0,79,['both'],0.00837819988373667,None,None,594.5588393999496,594.5588393999496,0.2044216999784112,1.5452898191417423,594.7737232999643,594.5588393999496,,,,,,,,,wfoooa,001,fr,0,2022-05-04_11h19.08.860,Continuous,2022.1.1,None,
18,0,18,0,2,0,2,0,,,,,,,,2.529111388344182,frequency,4288.0,-5.630162376183996,5.42633126977179e-05,0,80,['both'],0.009256700053811073,0.20478320005349815,['space'],596.1512257999275,596.1512257999275,0.20478320005349815,2.73389458839768,596.3647918000352,596.1512257999275,[-1.1118039999855682],,,,,,,,wfoooa,001,fr,0,2022-05-04_11h19.08.860,Continuous,2022.1.1,None,
18,0,18,0,3,0,3,0,,,,,,,,1.464451774972244,frequency,3403.0,-5.956512950807493,3.700220876591089e-05,0,81,['both'],0.008128400077112019,0.20434880000539124,['space'],598.9311189999571,598.9311189999571,0.20434880000539124,1.6688005749776353,599.1492877999553,598.9311189999571,[-2.2108738999813795],,,,,,,,wfoooa,001,fr,0,2022-05-04_11h19.08.860,Continuous,2022.1.1,None,
18,0,18,0,4,0,4,0,,,,,,,,2.2340733557505565,frequency,2701.0,-3.4179991630762765,4.952491596909845e-05,0,82,['both'],0.006241900031454861,None,['space'],600.6520434999838,600.6520434999838,0.2092751000309363,2.443348455781493,600.8742206000024,600.6520434999838,[-1.0687195000937209],,,,,,,,wfoooa,001,fr,0,2022-05-04_11h19.08.860,Continuous,2022.1.1,None,
18,0,18,0,5,0,5,0,,,,,,,,1.8363977423279008,frequency,2144.0,-6.0,3.909454388369368e-05,0,83,['both'],0.009074200061149895,0.20361170009709895,['space'],603.1355314999819,603.1355314999819,0.20361170009709895,2.0400094424249997,603.3489480999997,603.1355314999819,[-1.9363339999690652],,,,,,,,wfoooa,001,fr,0,2022-05-04_11h19.08.860,Continuous,2022.1.1,None,
18,0,18,0,6,0,6,0,,,,,,,,2.401907919390697,frequency,1702.0,-3.237016854541002,4.2267572948337984e-05,0,84,"['both', 'frequency']",0.004298800020478666,None,['space'],605.2176153999753,605.2176153999753,0.19733070000074804,2.599238619391445,605.4314445999917,605.2176153999753,[-1.5377149999840185],,,,,"{'estimation': [[125.0, 0.26482943601298287], [133.9716828170366, 0.33570003643112367], [143.5872943746293, 0.47323018320154775], [153.89305166811442, 0.6533607282564982], [164.93848884661162, 0.8395581129723889], [176.77669529663666, 0.990763557081787], [178.21037159438785, 1.0], [189.46457081379947, 1.0697561333253436], [203.0630990890585, 1.05490722794885], [210.01354738285968, 1.0], [217.63764082403046, 0.9418310044486499], [233.25824788420132, 0.743194906767877], [249.99999999999937, 0.48364776057562897], [267.94336563407256, 0.19428320766200868], [281.3062949089723, 0.0], [287.1745887492579, -0.08376084350325882], [307.78610333622805, -0.284303064228276], [329.87697769322244, -0.3405486176739063], [353.55339059327247, -0.19471929643341604], [366.21272465034815, 0.0], [378.929141627598, 0.1888285029814485], [406.12619817811606, 0.7837550062026839], [414.26587758058696, 1.0], [435.2752816480601, 1.5322061542697083], [453.75879610993917, 2.0], [466.5164957684015, 2.3115392506978956], [499.9999999999975, 2.976456809873765], [501.88087382382423, 3.0], [535.8867312681438, 3.4102219537011047], [574.3491774985151, 3.526494204742205], [615.5722066724546, 3.318379986025899], [643.8491569022715, 3.0], [659.7539553864432, 2.8290544070768857], [707.1067811865431, 2.1652156613310485], [718.0971295229391, 2.0], [757.8582832551941, 1.4178533010270562], [788.3594113189234, 1.0], [812.2523963562301, 0.6736991845510557], [869.0664277378424, 0.0], [870.5505632961181, -0.0177702781315891], [933.0329915368008, -0.6604902859247209], [969.7296680178357, -1.0], [999.9999999999939, -1.2790115032493503], [1071.773462536285, -1.8944826944582118], [1084.439496212321, -2.0], [1148.698354997026, -2.5344593467800935], [1208.1010814152, -3.0], [1231.1444133449077, -3.1816682088799237], [1319.5079107728848, -3.802492752634049], [1352.4749105901553, -4.0], [1414.2135623730828, -4.3608524449958725], [1515.7165665103846, -4.808142018028139], [1578.6741451411478, -5.0], [1624.5047927124563, -5.136594217264855], [1741.1011265922318, -5.350168791192306], [1866.065983073597, -5.4856432590827735], [1999.9999999999802, -5.5956146851268915], [2143.5469250725646, -5.731445970040927], [2297.3967099940432, -5.929667645979627], [2338.459463899097, -6.0], [2462.2888266898062, -6.202035620123772], [2639.01582154576, -6.522413431337121], [2828.427124746159, -6.844174319774882], [2947.131061543541, -7.0], [3031.4331330207615, -7.105166292913561], [3249.0095854249043, -7.226717100248279], [3482.2022531844596, -7.139255717436134], [3578.8260271169233, -7.0], [3732.1319661471844, -6.790141330299979], [3999.9999999999504, -6.155818976105804], [4046.224383337055, -6.000000000000001], [4287.093850145118, -5.224803791832815], [4342.451081613955, -5.0], [4594.793419988081, -4.017397937043411], [4598.6671337348635, -4.0], [4824.952753593628, -3.0], [4924.577653379601, -2.584484866192506], [5052.562558420928, -2.0], [5275.380471487211, -1.0], [5278.031643091506, -0.9886821442308807], [5500.679301062047, 0.0], [5656.854249492303, 0.6806247982319746], [5736.597872305258, 1.0], [5979.839949430692, 2.0], [6062.866266041516, 2.331312909700559], [6253.882850799763, 3.0], [6498.019170849785, 3.846947967131815], [6552.411347230801, 4.0], [6914.0450676119035, 5.0], [6964.404506368894, 5.134110940831832], [7412.0910042832, 6.0], [7464.2639322943505, 6.097621583397538], [7999.999999999872, 6.6805760435759876]], 'plus_line': [[125.0, -3.0609653369495984], [126.1730233796679, -3.0000000000000004], [133.9716828170366, -2.679324770897205], [143.5872943746293, -2.3846234279224365], [153.8930516681143, -2.1353913540234966], [160.6953514811129, -2.0], [164.93848884661162, -1.929074792826286], [176.77669529663666, -1.7872123314535706], [189.46457081379947, -1.7129346805679393], [203.0630990890585, -1.7268728601199155], [217.6376408240306, -1.834867532028994], [231.01181522357132, -2.0], [233.25824788420118, -2.0313019835833543], [249.99999999999937, -2.3196464059088764], [267.94336563407256, -2.6210584805350763], [287.1745887492579, -2.897831742702473], [296.96796496028827, -3.0], [307.78610333622805, -3.1266359575166147], [329.87697769322244, -3.2233132273069898], [353.55339059327247, -3.1021402728072522], [359.9818357457546, -3.0], [378.929141627598, -2.7414582360753013], [406.12619817811606, -2.122270908887464], [410.37011317734516, -2.0], [435.2752816480601, -1.3505471010826584], [448.16881984374714, -1.0], [466.5164957684015, -0.5430885553470151], [492.437070426549, 0.0], [499.9999999999975, 0.1450621061283145], [535.8867312681438, 0.5569912228482325], [574.3491774985137, 0.677795562384296], [615.5722066724546, 0.48891647919914427], [659.7539553864432, 0.04495382421199523], [662.8511515725563, 0.0], [707.1067811865431, -0.6507863338127959], [729.1054540270546, -1.0], [757.8582832551951, -1.4692267662862077], [792.425523070516, -2.0], [812.2523963562301, -2.31614643133966], [862.8143732922906, -3.0], [870.5505632961181, -3.1097362872456915], [933.0329915368008, -3.847421646482789], [947.7377354367186, -4.0], [999.9999999999926, -4.563686176012469], [1044.2330920049087, -5.0], [1071.773462536285, -5.284351194693951], [1146.2227300988952, -5.999999999999999], [1148.698354997026, -6.0248850948243735], [1231.1444133449063, -6.786420943948289], [1258.8637177262126, -7.0], [1319.5079107728832, -7.478661095619955], [1409.39280116232, -8.0], [1414.213562373081, -8.029046561694793], [1515.7165665103864, -8.478721389290065], [1624.5047927124563, -8.792226571531437], [1728.8042269209045, -9.0], [1741.1011265922318, -9.02662471700725], [1866.065983073597, -9.231945407409823], [1999.9999999999802, -9.403124998729073], [2143.5469250725646, -9.566325530675307], [2297.396709994046, -9.744124689948077], [2462.2888266898062, -9.947346161455258], [2502.1676393297353, -10.0], [2639.015821545763, -10.189605400917465], [2828.427124746159, -10.417532648796232], [3031.4331330207615, -10.577893771136923], [3249.0095854249043, -10.622571690509588], [3482.2022531844555, -10.498129928971348], [3732.1319661471844, -10.129984414759551], [3782.553260300171, -10.0], [3999.9999999999504, -9.494355488657108], [4142.941966663819, -9.0], [4287.093850145118, -8.52726670618555], [4413.495964180721, -8.0], [4594.793419988081, -7.251720818218648], [4650.40016689333, -7.0], [4867.5762310956525, -6.0], [4924.577653379601, -5.747327291815136], [5092.8165740510885, -5.0], [5278.031643091506, -4.127786817446004], [5309.239902872442, -4.0], [5545.499592672848, -3.0], [5656.854249492303, -2.5142571572854746], [5795.8502254970435, -2.0], [6045.634419006273, -1.0], [6062.866266041508, -0.9334838980031565], [6346.800931624087, 0.0], [6498.019170849792, 0.5139331079055888], [6673.760179270713, 1.0], [6964.404506368894, 1.8078777341355605], [7058.3260910255785, 2.0], [7464.2639322943505, 2.7908513181326158], [7675.824391958563, 3.0], [7999.999999999882, 3.294326546339403]], 'minus_line': [[125.0, 3.6177132066118918], [133.9716828170366, 3.3574872729920924], [143.5872943746293, 3.3296411060677173], [153.89305166811442, 3.4558138066104997], [164.93848884661162, 3.629830185703875], [176.77669529663677, 3.773815009594898], [189.46457081379936, 3.843976576659162], [203.0630990890585, 3.8209936054556306], [217.6376408240306, 3.702978319916566], [233.25824788420132, 3.498411238703237], [249.99999999999937, 3.2202548267863698], [262.0630669906745, 3.0000000000000004], [267.94336563407256, 2.9078705352592014], [287.1745887492579, 2.6440503304183602], [307.78610333622805, 2.4613362749149728], [329.87697769322244, 2.4336844188088556], [353.55339059327247, 2.6129411306506327], [378.75198176891723, 3.0], [378.929141627598, 3.002988681265761], [406.12619817811606, 3.6306254879356423], [420.5565125078971, 4.0], [435.2752816480601, 4.382315411464331], [460.1096371554413, 5.0], [466.5164957684015, 5.162770982700131], [499.9999999999975, 5.856546635370736], [511.24462794706034, 6.0], [535.8867312681438, 6.336387471916551], [574.3491774985143, 6.466309302231091], [615.5722066724546, 6.223892165543129], [632.6869908979974, 6.0], [659.753955386444, 5.692288589330539], [705.9278979661963, 5.0], [707.1067811865431, 4.983779523581561], [757.8582832551941, 4.279170762908015], [779.0965523231787, 4.0], [812.2523963562301, 3.597263271648912], [866.0715848926383, 2.9999999999999996], [870.5505632961181, 2.953216542763357], [933.0329915368008, 2.382911945366189], [976.9930448991889, 2.0], [999.9999999999926, 1.8147352193077828], [1071.773462536285, 1.283590418331607], [1111.0046181012017, 1.0], [1148.6983549970273, 0.7451438912255002], [1231.1444133449063, 0.20069253273869914], [1261.6356007913394, 0.0], [1319.5079107728832, -0.3532087059537574], [1414.2135623730828, -0.8892519528723108], [1437.795091676947, -1.0], [1515.7165665103846, -1.328267129791123], [1624.5047927124563, -1.6326307989106406], [1741.1011265922298, -1.7983429358306071], [1866.065983073597, -1.8643372836785836], [1999.9999999999802, -1.914835466671884], [2100.02936760592, -2.0], [2143.5469250725646, -2.0322761800425897], [2297.396709994046, -2.2505623933292616], [2462.2888266898062, -2.5909399883761948], [2623.7032777584245, -3.0], [2639.01582154576, -3.0340800256604115], [2828.427124746159, -3.462485469896297], [3031.4331330207615, -3.837661285878029], [3193.2185589778996, -4.0], [3249.0095854249003, -4.047534955127141], [3482.2022531844555, -4.001651871167869], [3483.3940568680055, -4.0], [3732.1319661471844, -3.641059064681588], [3999.9999999999504, -3.017023520807459], [4005.1582691349868, -2.9999999999999996], [4287.093850145118, -2.0986430631915773], [4312.02347721147, -2.0], [4577.060014085447, -1.0], [4594.793419988081, -0.936876855937406], [4805.669227264817, 0.0], [4924.577653379601, 0.47143115138375147], [5035.060110171718, 1.0], [5261.950998786148, 2.0], [5278.031643091506, 2.0664307302979434], [5467.168102152514, 3.0], [5656.854249492303, 3.8287379496470013], [5695.653380275436, 4.0], [5913.796669307666, 5.0], [6062.866266041508, 5.610457685633818], [6164.796742695706, 6.0], [6433.67975116196, 7.0], [6498.019170849792, 7.223916593073086], [6763.3378318413215, 8.0], [6964.404506368902, 8.54818840735057], [7192.878103623748, 9.0], [7464.2639322943505, 9.524499963816023], [7843.330539169269, 10.0], [7999.999999999882, 10.206217946007778]]}",,,wfoooa,001,fr,0,2022-05-04_11h19.08.860,Continuous,2022.1.1,None,
18,0,18,0,7,0,7,0,,,,,,,,1.565478375665668,frequency,,,,1,84,"['both', 'frequency']",0.008815300068818033,0.20779980008956045,['space'],607.8716851000208,607.8716851000208,0.20779980008956045,1.7732781757552285,608.0886157000205,607.8716851000208,[-0.14460239990148693],,,,,,,,wfoooa,001,fr,0,2022-05-04_11h19.08.860,Continuous,2022.1.1,None,
18,0,18,0,8,0,8,0,,,,,,,,1.5182601543825789,frequency,1072.0,-5.726513873020453,2.434238405348672e-05,0,85,"['both', 'frequency']",0.009754700004123151,None,None,609.6813334999606,609.6813334999606,0.20773270004428923,1.7259928544268681,609.8993551000021,609.6813334999606,,,,,,,,,wfoooa,001,fr,0,2022-05-04_11h19.08.860,Continuous,2022.1.1,None,
18,0,18,0,9,0,9,0,,,,,,,,2.777850918115882,frequency,851.0,-0.9218742603773282,3.580809707299393e-05,0,86,"['both', 'frequency']",0.01140410010702908,None,None,611.4582225999329,611.4582225999329,0.21284060005564243,2.9906915181715243,611.6722625000402,611.4582225999329,,,,,,,,,wfoooa,001,fr,0,2022-05-04_11h19.08.860,Continuous,2022.1.1,None,
18,0,18,0,10,0,10,0,,,,,,,,1.4261795025191735,frequency,675.0,-1.3348638038068872,4.049195968870949e-05,0,87,"['both', 'frequency']",0.008789299987256527,None,None,614.4868030999787,614.4868030999787,0.20524279994424433,1.6314223024634178,614.700265499996,614.4868030999787,,,,,,,,,wfoooa,001,fr,0,2022-05-04_11h19.08.860,Continuous,2022.1.1,None,
18,0,18,0,11,0,11,0,,,,,,,,1.9204110835488934,frequency,536.0,1.114415497897037,7.484037442100995e-05,0,88,"['both', 'frequency']",0.00804080010857433,None,['space'],616.1649206000147,616.1649206000147,0.20502160012256354,2.125432683671457,616.3851149999537,616.1649206000147,[-1.1086709999945015],,,,,,,,wfoooa,001,fr,0,2022-05-04_11h19.08.860,Continuous,2022.1.1,None,
18,0,18,0,12,0,12,0,,,,,,,,1.3421107691139846,frequency,425.0,3.040675415618451,0.00010683063503894654,0,89,"['both', 'frequency']",0.008949800045229495,None,None,618.3387738999445,618.3387738999445,0.21805630007293075,1.5601670691869154,618.5587352999719,618.3387738999445,,,,,,,,,wfoooa,001,fr,0,2022-05-04_11h19.08.860,Continuous,2022.1.1,None,
18,0,18,0,13,0,13,0,,,,,,,,1.5819347583086845,frequency,337.0,-5.005926450783727,5.221134945887414e-05,0,90,"['both', 'frequency']",0.011360200005583465,None,None,619.9340477000223,619.9340477000223,0.21576579997781664,1.797700558286501,620.1451747999527,619.9340477000223,,,,,,,,,wfoooa,001,fr,0,2022-05-04_11h19.08.860,Continuous,2022.1.1,None,
19,0,19,0,0,0,0,0,,,,,,626.8653229000047,None,1.5579034606083189,none,238.0,1.7495515434078863,0.00023361193571213115,0,58,"['both', 'frequency']",0.02358579996507615,None,None,627.8962420999305,None,0.22128439997322857,1.7791878605815474,628.1085167999845,None,,621.7595643999521,None,"[0.16666666666666666, 0.5833333333333334, 0.3333333333333333, 0.16666666666666666, 0.5833333333333334, 0.5833333333333334, 0.16666666666666666, 0.3333333333333333, 0.3333333333333333, 0.3333333333333333, 0.3333333333333333, 0.16666666666666666, 0.16666666666666666, 0.3333333333333333, 0.16666666666666666]",,,,,wfoooa,001,fr,0,2022-05-04_11h19.08.860,Continuous,2022.1.1,None,
19,0,19,0,1,0,1,0,,,,,,,,1.7719785795006977,none,534.0,3.1221126501283445,9.474893189743598e-05,0,59,"['both', 'frequency']",0.007129099918529391,None,['space'],629.6966791999293,629.6966791999293,0.20231580000836402,1.9742943795090617,629.9157336000353,629.6966791999293,[0.17550580005627126],,,,,,,,wfoooa,001,fr,0,2022-05-04_11h19.08.860,Continuous,2022.1.1,None,
19,0,19,0,2,0,2,0,,,,,,,,1.0078694839426074,none,476.0,5.00438691739204,0.00012929466390982795,0,60,"['both', 'frequency']",0.00750579999294132,0.19946979999076575,None,631.7202108999481,631.7202108999481,0.19946979999076575,1.2073392839333732,631.934004599927,631.7202108999481,,,,,,,,,wfoooa,001,fr,0,2022-05-04_11h19.08.860,Continuous,2022.1.1,None,
19,0,19,0,3,0,3,0,,,,,,,,1.4411558031553735,none,378.0,1.6790225406707613,9.98091364371366e-05,0,61,"['both', 'frequency']",0.007195599959231913,None,['space'],632.9759011999704,632.9759011999704,0.1998150999424979,1.6409709030978714,633.1886746999808,632.9759011999704,[-0.6237524000462145],,,,,,,,wfoooa,001,fr,0,2022-05-04_11h19.08.860,Continuous,2022.1.1,None,
19,0,19,0,4,0,4,0,,,,,,,,2.7353693374471515,none,150.0,1.5372461422260526,0.0005969832323501136,0,62,"['both', 'frequency']",0.007902499986812472,0.20523439988028258,['space'],634.6678968999768,634.6678968999768,0.20523439988028258,2.940603737327434,634.8868694999255,634.6678968999768,[-1.0192482999991626],,,,,,,,wfoooa,001,fr,0,2022-05-04_11h19.08.860,Continuous,2022.1.1,None,
19,0,19,0,5,0,5,0,,,,,,,,1.2353439955603442,none,337.0,3.8886795364846147,0.0001453768376559473,0,63,"['both', 'frequency']",0.007250199909321964,None,['space'],637.6562707000412,637.6562707000412,0.2067717999452725,1.4421157955056167,637.8739482000237,637.6562707000412,[-2.296138000092469],,,,,,,,wfoooa,001,fr,0,2022-05-04_11h19.08.860,Continuous,2022.1.1,None,
19,0,19,0,6,0,6,0,,,,,,,,2.155434683561306,none,300.0,1.1682705930047064,0.00013099826943684846,0,64,"['both', 'frequency']",0.00774269993416965,0.20341299998108298,['space'],639.1439682999626,639.1439682999626,0.20341299998108298,2.358847683542389,639.3585409999359,639.1439682999626,[-0.9200132000260055],,,,,,,,wfoooa,001,fr,0,2022-05-04_11h19.08.860,Continuous,2022.1.1,None,
19,0,19,0,7,0,7,0,,,,,,,,1.4636394843515241,none,189.0,1.0,0.00034278109826304615,0,65,"['both', 'frequency']",0.007655800087377429,0.20450490002986044,None,641.5419657999882,641.5419657999882,0.20450490002986044,1.6681443843813846,641.7568153999746,641.5419657999882,,,,,,,,,wfoooa,001,fr,0,2022-05-04_11h19.08.860,Continuous,2022.1.1,None,
19,0,19,0,8,0,8,0,,,,,,,,1.5516996445469293,none,,,,1,65,"['both', 'frequency']",0.007659100112505257,0.2024440000532195,['space'],643.2506585000083,643.2506585000083,0.2024440000532195,1.7541436446001488,643.4632987999357,643.2506585000083,[-1.138823700021021],,,,,,,,wfoooa,001,fr,0,2022-05-04_11h19.08.860,Continuous,2022.1.1,None,
20,0,20,0,0,0,0,0,,,,,,648.7660261000274,None,2.5928544863754572,time,1909.0,-2.8411305192798615,5.097771863145187e-05,0,50,"['both', 'frequency']",0.023907899856567383,None,None,649.7837710999884,None,0.2409887999529019,2.833843286328359,649.9995250999928,None,,645.0501154999947,None,"[0.16666666666666666, 0.5833333333333334, 0.5833333333333334, 0.5833333333333334, 0.5833333333333334, 0.5833333333333334, 0.16666666666666666, 0.3333333333333333, 0.16666666666666666, 0.16666666666666666, 0.3333333333333333, 0.3333333333333333, 0.16666666666666666, 0.3333333333333333, 0.3333333333333333]",,,,,wfoooa,001,fr,0,2022-05-04_11h19.08.860,Continuous,2022.1.1,None,
20,0,20,0,1,0,1,0,,,,,,,,2.5928544863754572,time,2143.0,0.2373964521506282,8.014243563783106e-05,0,51,"['both', 'frequency']",0.00681809987872839,None,None,652.6215156000108,652.6215156000108,0.20160119992215186,2.794455686297609,652.8372925999574,652.6215156000108,,,,,,,,,wfoooa,001,fr,0,2022-05-04_11h19.08.860,Continuous,2022.1.1,None,
20,0,20,0,2,0,2,0,,,,,,,,2.5928544863754572,time,378.0,-3.2306475568404736,5.671354480705573e-05,0,52,"['both', 'frequency']",0.010265300050377846,None,"['space', 'space']",655.4721736999927,655.4721736999927,0.21110429998952895,2.803958786364986,655.6884445999749,655.4721736999927,"[-2.3363074000226334, 0.0003770999610424042]",,,,,,,,wfoooa,001,fr,0,2022-05-04_11h19.08.860,Continuous,2022.1.1,None,
