sweeps.thisRepN,sweeps.thisTrialN,sweeps.thisN,sweeps.thisIndex,trials.thisRepN,trials.thisTrialN,trials.thisN,trials.thisIndex,instructions.started,instructions.stopped,blank_text.started,blank_text.stopped,,text.started,text.stopped,Delay,Prediction,Frequency,Volume,Psychopy_level,isCatchTrial,len(y),finished_audiograms,probe.started,probe.stopped,feedback.keys,feedback.started,feedback.stopped,ISI.started,ISI.stopped,text_2.started,text_2.stopped,feedback.rt,break_txt.started,break_txt.stopped,Audiogram_both,Audiogram_frequency,Intervals,Audiogram_time,Audiogram_none,end_txt.started,end_txt.stopped,participant,session,language (english or french),Resume previous experiment,date,expName,psychopyVersion,frameRate,
0,0,0,0,0,0,0,0,20.512628800002858,None,24.46526429988444,None,0.3333333333333333,28.22512500011362,None,1.273702402699376,frequency,499.0,6.750446320716851,0.0001555259324252174,0,88,[],0.011716766515746713,None,None,29.243428099900484,None,0.22638676641508937,1.5000891691144653,29.457108600065112,None,,,,,,,,,,,rehvhf,001,fr,1,2022-05-11_11h58.18.262,Continuous,2022.1.1,35.5893417255325,
0,0,0,0,1,0,1,0,,,,,,,,2.611610036318061,frequency,396.0,7.669108007531193,0.00018761902507561686,0,89,[],0.00463076657615602,0.1976933665573597,None,30.732348799938336,30.732348799938336,0.1976933665573597,2.809303402875421,30.943621899932623,30.732348799938336,,,,,,,,,,,rehvhf,001,fr,1,2022-05-11_11h58.18.262,Continuous,2022.1.1,35.5893417255325,
0,0,0,0,2,0,2,0,,,,,,,,1.6852446982381029,frequency,314.0,7.748378033781108,0.0002432368154695409,0,90,[],0.009909566724672914,None,None,33.547391100088134,33.547391100088134,0.209195866715163,1.8944405649532658,33.76128440001048,33.547391100088134,,,,,,,,,,,rehvhf,001,fr,1,2022-05-11_11h58.18.262,Continuous,2022.1.1,35.5893417255325,
0,0,0,0,3,0,3,0,,,,,,,,2.642514088675979,frequency,249.0,5.410259479736965,0.00031588849689612517,0,91,[],0.011524366680532694,None,None,35.44135300000198,35.44135300000198,0.21190786664374173,2.8544219553197205,35.65586580010131,35.44135300000198,,,,,,,,,,,rehvhf,001,fr,1,2022-05-11_11h58.18.262,Continuous,2022.1.1,35.5893417255325,
0,0,0,0,4,0,4,0,,,,,,,,2.538131130038103,frequency,198.0,7.83917612029452,0.0006724896909538538,0,92,[],0.011875166557729244,None,['space'],38.299913299968466,38.299913299968466,0.21560766664333642,2.7537387966814393,38.51253270008601,38.299913299968466,[-2.316866100067273],,,,,,,,,,rehvhf,001,fr,1,2022-05-11_11h58.18.262,Continuous,2022.1.1,35.5893417255325,
0,0,0,0,5,0,5,0,,,,,,,,1.934548422735552,frequency,157.0,9.327583746834254,0.0012813992875210184,0,93,[],0.011737666558474302,None,['space'],41.04697089991532,41.04697089991532,0.2130260665435344,2.1475744892790862,41.25927889999002,41.04697089991532,[-2.3117721998132765],,,,,,,,,,rehvhf,001,fr,1,2022-05-11_11h58.18.262,Continuous,2022.1.1,35.5893417255325,
0,0,0,0,6,0,6,0,,,,,,,,1.232779352922165,frequency,125.0,8.0,0.0018153902738505074,0,94,[],0.008539566304534674,None,['space'],43.19113490008749,43.19113490008749,0.20682646636851132,1.4396058192906762,43.41058379993774,43.19113490008749,[-1.7522158999927342],,,,,,,,,,rehvhf,001,fr,1,2022-05-11_11h58.18.262,Continuous,2022.1.1,35.5893417255325,
0,0,0,0,7,0,7,0,,,,,,,,2.8410578885806776,frequency,,,,1,94,[],0.003849166678264737,None,['space'],44.6456426999066,44.6456426999066,0.19686016673222184,3.0379180553128995,44.862078400095925,44.6456426999066,[-1.078058399958536],,,,,,,,,,rehvhf,001,fr,1,2022-05-11_11h58.18.262,Continuous,2022.1.1,35.5893417255325,
1,0,1,0,0,0,0,0,,,,,0.5833333333333334,53.1255167000927,None,1.501692878373982,both,1864.0,7.386082579584375,0.00016072271163243405,0,94,[],0.013003666885197163,None,None,54.14798070001416,None,0.21776586677879095,1.719458745152773,54.36104970006272,None,,47.69685079995543,None,,,,,,,,rehvhf,001,fr,1,2022-05-11_11h58.18.262,Continuous,2022.1.1,35.5893417255325,
1,0,1,0,1,0,1,0,,,,,,,,1.501692878373982,both,1244.0,6.446291160267128,0.0001139673461413581,0,95,[],0.011382066644728184,None,None,55.857656199950725,55.857656199950725,0.21519936667755246,1.7168922450515345,56.07356490008533,55.857656199950725,,,,,,,,,,,rehvhf,001,fr,1,2022-05-11_11h58.18.262,Continuous,2022.1.1,35.5893417255325,
1,0,1,0,2,0,2,0,,,,,,,,1.501692878373982,both,830.0,9.177168682240929,0.00011281688524930542,0,96,[],0.011559966718778014,None,['space'],57.565388600109145,57.565388600109145,0.21534696663729846,1.7170398450112805,57.77668170002289,57.565388600109145,[-1.134584000101313],,,,,,,,,,rehvhf,001,fr,1,2022-05-11_11h58.18.262,Continuous,2022.1.1,35.5893417255325,
1,0,1,0,3,0,3,0,,,,,,,,1.501692878373982,both,554.0,11.474078804211404,0.0002361494891328231,0,97,[],0.011564466636627913,None,['space'],59.27793519990519,59.27793519990519,0.21266976674087346,1.7143626451148555,59.49328999989666,59.27793519990519,[-1.2952343998476863],,,,,,,,,,rehvhf,001,fr,1,2022-05-11_11h58.18.262,Continuous,2022.1.1,35.5893417255325,
1,0,1,0,4,0,4,0,,,,,,,,1.501692878373982,both,370.0,9.981148683977855,0.0002661366209316736,0,98,[],0.011688266647979617,None,['space'],60.98467890010215,60.98467890010215,0.2148138666525483,1.7165067450265303,61.196791799971834,60.98467890010215,[-1.3537713999394327],,,,,,,,,,rehvhf,001,fr,1,2022-05-11_11h58.18.262,Continuous,2022.1.1,35.5893417255325,
1,0,1,0,5,0,5,0,,,,,,,,1.501692878373982,both,247.0,11.513112780540625,0.0006525371820883836,0,99,[],0.01164576644077897,None,['space'],62.69869180000387,62.69869180000387,0.21683536632917821,1.7185282447031602,62.91358010005206,62.69869180000387,[-1.339009900111705],,,,,,,,,,rehvhf,001,fr,1,2022-05-11_11h58.18.262,Continuous,2022.1.1,35.5893417255325,
1,0,1,0,6,0,6,0,,,,,,,,1.501692878373982,both,165.0,12.0,0.0015642086050847068,0,100,[],0.01116956677287817,None,"['space', 'space']",64.40657199989073,64.40657199989073,0.21728296671062708,1.718975845084609,64.61553280008957,64.40657199989073,"[-1.3671983999665827, -0.039574299938976765]",,,,,,,,,,rehvhf,001,fr,1,2022-05-11_11h58.18.262,Continuous,2022.1.1,35.5893417255325,
1,0,1,0,7,0,7,0,,,,,,,,1.501692878373982,both,,,,1,100,[],0.01159986644051969,None,None,66.11869479995221,66.11869479995221,0.21332746651023626,1.7150203448842183,66.3333157999441,66.11869479995221,,,,,,,,,,,rehvhf,001,fr,1,2022-05-11_11h58.18.262,Continuous,2022.1.1,35.5893417255325,
2,0,2,0,0,0,0,0,,,,,0.5833333333333334,72.51784610003233,None,2.868145014006586,frequency,8000.0,-6.0,9.098504293049921e-05,0,95,[],0.012918166583403945,None,None,73.5648058000952,None,0.21612166659906507,3.084266680605651,73.78191139991395,None,,67.82448669988662,None,,,,,,,,rehvhf,001,fr,1,2022-05-11_11h58.18.262,Continuous,2022.1.1,35.5893417255325,
2,0,2,0,1,0,1,0,,,,,,,,1.0634310832996143,frequency,5339.0,-3.870805390895147,8.981462518512323e-05,0,96,[],0.010681966552510858,None,None,76.64058379991911,76.64058379991911,0.2130270665511489,1.2764581498507632,76.85692559997551,76.64058379991911,,,,,,,,,,,rehvhf,001,fr,1,2022-05-11_11h58.18.262,Continuous,2022.1.1,35.5893417255325,
2,0,2,0,2,0,2,0,,,,,,,,2.3358071524011734,frequency,3563.0,-6.479481512833364,3.61721485605016e-05,0,97,[],0.010989666683599353,None,['space'],77.91489599994384,77.91489599994384,0.21181916655041277,2.547626318951586,78.13186890003271,77.91489599994384,[-0.8923675999976695],,,,,,,,,,rehvhf,001,fr,1,2022-05-11_11h58.18.262,Continuous,2022.1.1,35.5893417255325,
2,0,2,0,3,0,3,0,,,,,,,,2.5870608862569253,frequency,2378.0,-2.4896231026604156,6.245903247650218e-05,0,98,[],0.009365566540509462,None,['space'],80.46167990006506,80.46167990006506,0.21068216650746763,2.797743052764393,80.67764450004324,80.46167990006506,[-2.318009400041774],,,,,,,,,,rehvhf,001,fr,1,2022-05-11_11h58.18.262,Continuous,2022.1.1,35.5893417255325,
2,0,2,0,4,0,4,0,,,,,,,,1.3429251650368825,frequency,1587.0,3.7946415097660324,8.614204990994426e-05,0,99,[],0.010837666690349579,None,None,83.25862609990872,83.25862609990872,0.21438696677796543,1.557312131814848,83.47168700001203,83.25862609990872,,,,,,,,,,,rehvhf,001,fr,1,2022-05-11_11h58.18.262,Continuous,2022.1.1,35.5893417255325,
2,0,2,0,5,0,5,0,,,,,,,,2.8650408857974385,frequency,1059.0,-3.386505121657078,3.150044779007776e-05,0,100,[],0.010561666684225202,None,None,84.81624670000747,84.81624670000747,0.21155296661891043,3.076593852416349,85.03580110007897,84.81624670000747,,,,,,,,,,,rehvhf,001,fr,1,2022-05-11_11h58.18.262,Continuous,2022.1.1,35.5893417255325,
2,0,2,0,6,0,6,0,,,,,,,,1.6253195959604785,frequency,707.0,2.8704461791634497,6.18052958267302e-05,0,101,[],0.006771166576072574,None,None,87.8879195000045,87.8879195000045,0.20578206656500697,1.8311016625254855,88.10733989998698,87.8879195000045,,,,,,,,,,,rehvhf,001,fr,1,2022-05-11_11h58.18.262,Continuous,2022.1.1,35.5893417255325,
2,0,2,0,7,0,7,0,,,,,,,,2.4855121452519575,frequency,472.0,6.042072652563028,0.00014611157616914547,0,102,[],0.010796366725116968,None,None,89.73289310000837,89.73289310000837,0.21829666662961245,2.70380881188157,89.94277859991416,89.73289310000837,,,,,,,,,,,rehvhf,001,fr,1,2022-05-11_11h58.18.262,Continuous,2022.1.1,35.5893417255325,
2,0,2,0,8,0,8,0,,,,,,,,1.507276839812299,frequency,,,,1,102,[],0.01084616663865745,None,None,92.42877770005725,92.42877770005725,0.21476896665990353,1.7220458064722026,92.64576680003665,92.42877770005725,,,,,,,,,,,rehvhf,001,fr,1,2022-05-11_11h58.18.262,Continuous,2022.1.1,35.5893417255325,
3,0,3,0,0,0,0,0,,,,,0.16666666666666666,99.09026250010356,None,1.3297009121025942,both,249.0,6.721348868497005,0.0003673569670186289,0,101,['both'],0.012869666796177626,None,None,100.12703470000997,None,0.21437176666222513,1.5440726787648194,100.35125469998457,None,,94.15310760005377,None,"{'estimation': [[125.0, 8.754241489187322], [126.90996364025749, 9.0], [133.9716828170366, 9.841335501787443], [136.24983229576287, 10.0], [143.5872943746293, 10.48852663159135], [153.89305166811442, 10.56761029003354], [164.93848884661162, 10.037462484659638], [165.33659319879288, 10.0], [176.32661617049325, 9.0], [176.77669529663666, 8.96042792505728], [184.9997263214802, 8.0], [189.46457081379947, 7.496694313364155], [193.5132150466059, 7.0], [201.89543657060779, 6.0], [203.0630990890585, 5.865786686134271], [210.95631697413333, 5.0], [217.6376408240306, 4.301816523378973], [221.0843973767231, 4.0], [233.06117317599262, 2.9999999999999996], [233.25824788420132, 2.9842576852598417], [249.99999999999937, 2.010897764293394], [250.29827128504436, 2.0], [267.94336563407256, 1.3810301753427465], [287.1745887492579, 1.0248999543613109], [289.9716535342566, 1.0], [307.78610333622805, 0.8470658617521378], [329.87697769322244, 0.7783962244017897], [353.55339059327247, 0.7995630760819752], [378.929141627598, 0.9429119587850445], [383.6732798201171, 1.0], [406.12619817811606, 1.2607710144981255], [435.2752816480601, 1.7814863626072548], [444.8566989908252, 2.0], [466.5164957684015, 2.477735567281555], [489.19310809629286, 3.0], [499.9999999999975, 3.2405809487885633], [535.8867312681431, 3.9001635304008775], [545.9001190124654, 4.0], [574.3491774985143, 4.273894805751789], [615.5722066724546, 4.207242049030096], [631.1229189785178, 4.0], [659.7539553864432, 3.636653878459559], [688.6613424185205, 3.0], [707.1067811865431, 2.6136713876884685], [730.1643279122754, 2.0], [757.8582832551941, 1.2982156099273934], [769.2807628706043, 1.0], [808.9741762433754, 0.0], [812.2523963562301, -0.07938979359314227], [856.9666348937526, -1.0], [870.5505632961181, -1.2698260211684471], [927.0934545408977, -2.0], [933.0329915368008, -2.074812341878798], [999.9999999999926, -2.3965750129999046], [1071.773462536285, -2.248635205936532], [1109.002542280329, -2.0], [1148.698354997026, -1.746513566640553], [1231.1444133449063, -1.069110598002553], [1239.9163235697288, -1.0], [1319.5079107728832, -0.396857950772481], [1390.7338306563217, 0.0], [1414.2135623730828, 0.12715849367911014], [1515.7165665103846, 0.42010789466851073], [1624.5047927124563, 0.4731295466242953], [1741.1011265922318, 0.3304418741568843], [1866.065983073597, 0.0656887472398402], [1893.9046407356652, 0.0], [1999.9999999999802, -0.2427877642478924], [2143.5469250725646, -0.5282264204948798], [2297.396709994046, -0.7597480421363249], [2462.2888266898062, -0.9428808224221681], [2518.976972901585, -1.0], [2639.01582154576, -1.1163487826870928], [2828.427124746159, -1.3360722766120379], [3031.4331330207615, -1.6581492053326146], [3191.533136099146, -2.0], [3249.0095854249043, -2.1190769454331635], [3482.2022531844555, -2.708128861736067], [3588.5102260069507, -3.0], [3732.1319661471844, -3.3805528154148323], [3976.8287711539624, -4.0], [3999.9999999999504, -4.057012951814889], [4287.093850145118, -4.662472680528733], [4497.860421309254, -5.0], [4594.793419988081, -5.152565888256173], [4924.577653379601, -5.524681201921203], [5278.031643091506, -5.827129391777105], [5489.6575064232475, -6.0], [5656.854249492303, -6.133276223208613], [6062.866266041508, -6.502484559331574], [6498.019170849792, -6.957210324231596], [6536.13175689012, -7.0], [6964.404506368894, -7.465284439320279], [7464.2639322943505, -7.93570408517352], [7573.248312264211, -8.0], [7999.999999999882, -8.260974846490143]], 'plus_line': [[125.0, 3.1932649265109356], [130.2980330954087, 4.0], [133.9716828170366, 4.52732644966884], [140.11112703880076, 5.0], [143.5872943746293, 5.248695897273645], [153.89305166811442, 5.342891096667818], [161.12052464735518, 5.0], [164.93848884661162, 4.817014244622541], [173.67389635138215, 4.0], [176.77669529663666, 3.7200718712462217], [182.69622835472433, 3.0], [189.46457081379947, 2.229796030115125], [191.29442025616675, 2.0], [199.46847720834657, 1.0], [203.0630990890585, 0.5907421253643668], [208.4613574348368, 0.0], [217.6376408240306, -0.9257500686241364], [218.51983420836774, -1.0], [230.8718852739772, -2.0], [233.25824788420132, -2.181758509549817], [248.04428677696134, -3.0], [249.99999999999923, -3.1048064763164374], [267.94336563407256, -3.7320051167855155], [282.21635559250296, -4.0], [287.1745887492579, -4.096186091650812], [307.78610333622805, -4.270131574371101], [329.87697769322244, -4.297983248538886], [353.55339059327247, -4.229813280135665], [378.929141627598, -4.0681019034067605], [384.82064220359405, -4.0], [406.12619817811606, -3.7781783475231037], [435.2752816480601, -3.2836073671262076], [447.3671422418828, -3.0], [466.5164957684015, -2.581920364348804], [490.2409296943635, -2.0], [499.9999999999975, -1.7760177596686735], [535.8867312681438, -1.0639531547404788], [541.492372994058, -1.0], [574.3491774985143, -0.6634948378775793], [615.5722066724546, -0.6997680190098267], [640.7241562971453, -1.0], [659.7539553864432, -1.2279724036369206], [697.1675185751478, -2.0], [707.1067811865431, -2.1978416715295492], [738.0648780758994, -3.0], [757.8582832551951, -3.4812365239440775], [777.6166883969197, -4.0], [812.2523963562301, -4.856557269684304], [818.8562024694386, -5.0], [866.078952238582, -6.0], [870.5505632961181, -6.091989057975166], [933.0329915368008, -6.94742135024491], [943.378894374156, -7.0], [999.9999999999926, -7.298788586877695], [1071.773462536285, -7.123938166884705], [1088.155790055827, -7.0], [1148.698354997026, -6.585128374338163], [1214.5248443197684, -6.0], [1231.1444133449063, -5.862734420892386], [1319.5079107728848, -5.180459507915391], [1351.0143544807286, -5.0], [1414.2135623730828, -4.668797487267976], [1515.7165665103864, -4.391626180473895], [1624.5047927124563, -4.348572153334295], [1741.1011265922318, -4.502643663278675], [1866.065983073597, -4.782226794557292], [1954.5424073202153, -5.0], [1999.9999999999827, -5.117139493596903], [2143.5469250725646, -5.436630373632436], [2297.396709994046, -5.668554844584156], [2462.2888266898062, -5.815623540474671], [2639.0158215457564, -5.929560792894781], [2719.437121867582, -6.0], [2828.427124746162, -6.0993473524925], [3031.4331330207656, -6.3973463222491205], [3249.0095854249043, -6.833547708091185], [3315.6250794462208, -7.0], [3482.2022531844555, -7.416981573014185], [3706.1366402125577, -8.0], [3732.1319661471844, -8.067847121717906], [3999.999999999946, -8.755610743444915], [4108.623730222635, -9.0], [4287.093850145118, -9.405524154280037], [4594.793419988081, -9.956963785545451], [4625.931687094937, -10.0], [4924.577653379601, -10.427281564494987], [5278.031643091506, -10.798720175289004], [5499.81509239481, -11.0], [5656.854249492303, -11.148810303987489], [6062.866266041508, -11.541664488784646], [6498.019170849792, -11.989557526478187], [6507.052174434423, -12.0], [6964.404506368894, -12.536834219569227], [7353.712855641716, -13.0], [7464.2639322943505, -13.136360980302708], [7999.999999999872, -13.82329593659172]], 'minus_line': [[125.0, 14.51727970993105], [129.82808353761573, 15.0], [133.9716828170366, 15.391707965524567], [143.5872943746293, 15.978561348028585], [147.1024963203171, 16.0], [153.89305166811442, 16.043590747336836], [154.70758392295116, 16.0], [164.93848884661162, 15.498639998800044], [170.18077933495866, 15.0], [176.77669529663666, 14.39348685918047], [180.08742520917224, 14.0], [188.49515962290127, 13.000000000000002], [189.46457081379947, 12.888560546996464], [196.66744301211187, 12.0], [203.0630990890585, 11.20197511332432], [204.81269690281113, 11.0], [213.55359554239155, 10.0], [217.63764082403046, 9.54205627525333], [223.48611802371607, 9.0], [233.25824788420132, 8.108890688041278], [234.92394440801962, 8.0], [249.99999999999937, 7.058908699405057], [251.53850350681776, 7.0], [267.94336563407256, 6.418852218717543], [287.1745887492579, 6.060415343222646], [293.22644202406025, 6.0], [307.78610333622805, 5.870546400280052], [329.87697769322244, 5.7539317359523015], [353.55339059327247, 5.7180063098885645], [378.929141627598, 5.837068164361262], [391.85263225714664, 6.0], [406.12619817811606, 6.186214470979074], [435.2752816480601, 6.761529875150952], [445.2973097662578, 7.0], [466.5164957684015, 7.5061607187691965], [487.4464748561979, 8.0], [499.9999999999975, 8.296045014693204], [535.8867312681438, 8.971824789912867], [538.6368565375325, 9.0], [574.3491774985143, 9.377092843978541], [615.5722066724546, 9.30609471563496], [636.2521533769159, 9.0], [659.7539553864432, 8.680491223792748], [687.8163890765093, 8.0], [707.1067811865431, 7.554304807625293], [726.4022267352073, 7.0], [757.8582832551941, 6.1129361050224205], [761.9488536727026, 6.0], [799.0568252707022, 5.0], [812.2523963562301, 4.6553796069379], [843.0101690640106, 4.0], [870.5505632961181, 3.429926014430893], [902.6331491879524, 3.0], [933.0329915368008, 2.6165246208497686], [999.9999999999926, 2.290876369369423], [1071.773462536285, 2.4266614216998663], [1148.698354997026, 2.9063110275105015], [1159.8269219817082, 3.0], [1231.1444133449063, 3.5987050815960906], [1281.8657623075376, 4.0], [1319.5079107728832, 4.299917262760057], [1414.2135623730828, 4.8542681885413135], [1461.340651627935, 5.0], [1515.7165665103846, 5.174986252183431], [1624.5047927124563, 5.232089594103849], [1741.1011265922318, 5.0696166319141875], [1770.22581563621, 5.0], [1866.065983073597, 4.795898565663366], [1999.9999999999802, 4.4916084223106], [2143.5469250725646, 4.202677997912192], [2265.2836970351946, 4.0], [2297.396709994046, 3.9520135992057392], [2462.2888266898062, 3.745242717722826], [2639.01582154576, 3.5395005534492068], [2828.427124746159, 3.295420630869333], [3006.4249899984716, 3.0], [3031.4331330207615, 2.9622219783498176], [3249.0095854249043, 2.527023481810178], [3455.8223447688833, 2.0], [3482.202253184451, 1.937139172210407], [3732.1319661471844, 1.2766905118507375], [3838.817144682951, 1.0], [3999.9999999999504, 0.6094990952181358], [4287.093850145118, 0.02662428219782287], [4305.162710956275, 0.0], [4594.793419988081, -0.39095069471024446], [4924.577653379601, -0.6941969963351088], [5278.031643091506, -0.9530990157368563], [5336.3413855933995, -1.0], [5656.854249492303, -1.2319297181801652], [6062.866266041508, -1.6082038345821381], [6403.657094237392, -2.0], [6498.019170849792, -2.099332465385816], [6964.404506368894, -2.6013669380499844], [7464.2639322943505, -2.9760394582745966], [7999.999999999882, -2.953106243618704]]}",,,,,,,rehvhf,001,fr,1,2022-05-11_11h58.18.262,Continuous,2022.1.1,35.5893417255325,
3,0,3,0,1,0,1,0,,,,,,,,1.3297009121025942,both,222.0,6.7345910528815365,0.00048277773632191586,0,102,['both'],0.0028711664490401745,0.19516266649588943,None,101.67297800001688,101.67297800001688,0.19516266649588943,1.5248635785984836,101.88428939995356,101.67297800001688,,,,,,,,,,,rehvhf,001,fr,1,2022-05-11_11h58.18.262,Continuous,2022.1.1,35.5893417255325,
3,0,3,0,2,0,2,0,,,,,,,,1.3297009121025942,both,198.0,6.893706856898855,0.0006031317177882023,0,103,['both'],0.01012896653264761,None,['space'],103.21251689991914,103.21251689991914,0.2163256665226072,1.5460265786252014,103.42019880004227,103.21251689991914,[-1.1655768998898566],,,,,,,,,,rehvhf,001,fr,1,2022-05-11_11h58.18.262,Continuous,2022.1.1,35.5893417255325,
3,0,3,0,3,0,3,0,,,,,,,,1.3297009121025942,both,176.0,8.544860161647096,0.0009436973612957518,0,104,['both'],0.0100252665579319,None,['space'],104.75337520008907,104.75337520008907,0.21457406668923795,1.5442749787918322,104.96466400008649,104.75337520008907,[-1.2661907998844981],,,,,,,,,,rehvhf,001,fr,1,2022-05-11_11h58.18.262,Continuous,2022.1.1,35.5893417255325,
3,0,3,0,4,0,4,0,,,,,,,,1.3297009121025942,both,157.0,9.186895592149224,0.0012608112359191064,0,105,['both'],0.006617066450417042,None,['space'],106.2908860000316,106.2908860000316,0.2053636664059013,1.5350645785084955,106.50932119996287,106.2908860000316,[-1.2356233999598771],,,,,,,,,,rehvhf,001,fr,1,2022-05-11_11h58.18.262,Continuous,2022.1.1,35.5893417255325,
3,0,3,0,5,0,5,0,,,,,,,,1.3297009121025942,both,140.0,9.820989181764316,0.0018251380506621884,0,106,['both'],0.009361966513097286,None,['space'],107.83047650009394,107.83047650009394,0.21002446650527418,1.5397253786078684,108.04447819991037,107.83047650009394,[-1.2873118999414146],,,,,,,,,,rehvhf,001,fr,1,2022-05-11_11h58.18.262,Continuous,2022.1.1,35.5893417255325,
3,0,3,0,6,0,6,0,,,,,,,,1.3297009121025942,both,125.0,9.0,0.0020369013890205647,0,107,['both'],0.009746866766363382,None,['space'],109.37522509996779,109.37522509996779,0.2151445667259395,1.5448454788285337,109.58732630009763,109.37522509996779,[-1.2316592000424862],,,,,,,,,,rehvhf,001,fr,1,2022-05-11_11h58.18.262,Continuous,2022.1.1,35.5893417255325,
3,0,3,0,7,0,7,0,,,,,,,,1.3297009121025942,both,,,,1,107,['both'],0.009212766541168094,None,['space'],110.91059949994087,110.91059949994087,0.20970746641978621,1.5394083785223804,111.12589729996398,110.91059949994087,[-1.2472345000132918],,,,,,,,,,rehvhf,001,fr,1,2022-05-11_11h58.18.262,Continuous,2022.1.1,35.5893417255325,
4,0,4,0,0,0,0,0,,,,,0.3333333333333333,116.73547259997576,None,1.407485480283569,frequency,792.0,6.427992611094122,8.118347001174693e-05,0,103,"['both', 'frequency']",0.013053066562861204,None,None,117.77004009997472,None,0.22531966655515134,1.6328051468387204,117.98195139993913,None,,112.45171739999205,None,,"{'estimation': [[125.0, 6.228641792575817], [133.9716828170366, 6.758550473657297], [143.5872943746293, 6.753012741860165], [153.89305166811442, 6.23917753623097], [156.83849098755834, 6.0], [164.93848884661162, 5.36814969990122], [169.25512267723488, 5.0], [176.77669529663666, 4.385289258643051], [182.5474665595778, 4.0], [189.46457081379947, 3.558126528956942], [203.0630990890585, 3.107772877234257], [217.6376408240306, 3.1442383887190224], [233.25824788420132, 3.6514774735233284], [239.95255150576813, 4.0], [249.99999999999937, 4.506067878504846], [258.64461025118374, 5.0], [267.94336563407256, 5.515543419738039], [277.42342416085603, 6.0], [287.1745887492579, 6.483669547213708], [300.8737426673918, 7.0], [307.78610333622805, 7.253527023948532], [329.87697769322244, 7.728455221096646], [353.55339059327247, 7.8774069909184306], [378.929141627598, 7.710245533369103], [406.12619817811606, 7.26375531689572], [417.14747168178593, 7.0], [435.2752816480601, 6.585937741778867], [456.6943464053526, 6.0], [466.5164957684015, 5.741984227313178], [492.90321733077457, 5.0], [499.9999999999975, 4.806372037192716], [530.4555180623656, 4.0], [535.8867312681438, 3.8591952144718005], [573.1299417077096, 3.0], [574.3491774985137, 2.9724430653511402], [615.5722066724546, 2.189861700122027], [627.605947668593, 2.0], [659.7539553864424, 1.5134506215890071], [699.9606633813117, 1.0], [707.1067811865431, 0.9117624058386055], [757.8582832551941, 0.3392002999098339], [790.1433516830804, 0.0], [812.2523963562301, -0.22959143352302513], [870.5505632961181, -0.754821242355795], [910.5901744996868, -1.0], [933.0329915368008, -1.1343650369391716], [999.9999999999926, -1.2064029233283602], [1036.7269665857407, -1.0], [1071.773462536285, -0.8095920614510117], [1136.0391757020063, 0.0], [1148.6983549970273, 0.1546328575417465], [1193.9157270557741, 1.0], [1231.1444133449063, 1.6732202658828432], [1245.8275666482339, 2.0], [1291.1825768098204, 3.0], [1319.5079107728832, 3.5977114832393773], [1337.4912759349295, 4.0], [1382.742057039617, 5.0], [1414.2135623730828, 5.659997076335939], [1432.040926759604, 6.000000000000001], [1485.4816849497813, 7.0], [1515.7165665103846, 7.536404042547585], [1551.196271459745, 8.0], [1624.5047927124563, 8.919631187023679], [1637.8884627420182, 9.0], [1741.1011265922318, 9.600340503853888], [1866.065983073597, 9.497778796307962], [1945.8712514372476, 9.0], [1999.9999999999827, 8.674374336923318], [2069.2687489003333, 8.0], [2143.5469250725646, 7.304696094244187], [2170.482062602157, 7.0], [2260.8965743658655, 6.000000000000001], [2297.396709994046, 5.614723197459385], [2353.0831431858815, 5.0], [2446.4744365516585, 4.0], [2462.2888266898062, 3.837863034923518], [2549.187612030519, 3.0], [2639.01582154576, 2.167670859667865], [2660.5574884479056, 2.0], [2791.9275339264877, 1.0], [2828.427124746159, 0.7330457724499864], [2959.326370411984, 0.0], [3031.4331330207615, -0.38911347970242005], [3199.2477348158227, -1.0], [3249.0095854249043, -1.174913982121272], [3482.2022531844555, -1.6288882519804548], [3732.1319661471844, -1.7811866019098719], [3999.9999999999504, -1.6775131491579542], [4287.093850145118, -1.3854563392100245], [4590.1845909977255, -1.0], [4594.793419988081, -0.9943265833872444], [4924.577653379601, -0.6164980850752205], [5278.031643091506, -0.3754853661812241], [5656.854249492303, -0.3784676414600103], [6062.866266041501, -0.6962558308641618], [6265.299810366929, -1.0], [6498.019170849792, -1.3409899135090395], [6833.373199551619, -2.0], [6964.404506368894, -2.247788216159964], [7320.790912458417, -3.0], [7464.2639322943505, -3.290005533232036], [7839.821431192572, -4.0], [7999.999999999892, -4.300847833100753]], 'plus_line': [[125.0, 0.9014110290938779], [125.93538546956313, 1.0], [133.97168281703668, 1.7560411300722407], [143.5872943746293, 1.8520843450579942], [153.89305166811442, 1.3415251635734209], [158.15935989365343, 1.0], [164.93848884661162, 0.4672615639926492], [170.55486264644205, 0.0], [176.77669529663666, -0.5025948468843161], [184.63587531641645, -1.0], [189.46457081379947, -1.3011772800878743], [203.0630990890585, -1.7187740929411115], [217.6376408240306, -1.6546033521073908], [233.25824788420132, -1.1214676334221274], [235.51136982633957, -1.0], [249.99999999999952, -0.26274552393220035], [254.5163204908417, 0.0], [267.94336563407256, 0.7506992484936824], [272.73400710014914, 1.0], [287.1745887492579, 1.7191947063539545], [294.47317781994116, 2.0], [307.78610333622805, 2.481426041351752], [329.87697769322244, 2.948253682227984], [339.22784001617504, 3.0], [353.55339059327247, 3.0708028433517347], [363.49930018916007, 3.0], [378.929141627598, 2.8850461223880783], [406.12619817811606, 2.443264717512354], [426.23678234381055, 2.0], [435.2752816480601, 1.800974179185302], [465.7658038327129, 1.0], [466.5164957684015, 0.9805306115844434], [499.9999999999975, 0.012451025964583473], [500.4301361246136, 0.0], [535.5767150939262, -1.0], [535.8867312681438, -1.008663055514075], [574.3491774985143, -1.9627442128442572], [576.2328464451278, -2.0], [615.5722066724546, -2.765727450442376], [631.500694173132, -3.0], [659.7539553864432, -3.41170059272643], [707.1067811865431, -3.9772451161765083], [708.9634291714023, -4.0], [757.8582832551941, -4.600760946038753], [790.5965226058108, -5.0], [812.2523963562301, -5.268319636714389], [870.5505632961181, -5.8945933469885], [885.6623296915437, -6.0], [933.0329915368008, -6.338390297102215], [999.9999999999926, -6.418746454092256], [1071.7734625362862, -6.0044977235474475], [1072.120570964156, -6.0], [1148.698354997026, -5.047338865316325], [1151.264279656422, -5.0], [1206.0503512112066, -4.0], [1231.1444133449063, -3.5428221836576745], [1256.2222381285583, -3.0], [1300.966511271188, -2.0], [1319.5079107728832, -1.593819378478084], [1346.554386877283, -1.0], [1390.4219752579438, 0.0], [1414.2135623730828, 0.5315130328683728], [1438.8908074606777, 1.0], [1490.3765890971677, 2.0], [1515.7165665103846, 2.48068929033246], [1555.0635451433034, 3.0], [1624.5047927124563, 3.911803284226681], [1639.1047215047663, 4.0], [1741.1011265922318, 4.576602645635349], [1866.065983073597, 4.442238939838864], [1935.984985724397, 4.0], [1999.9999999999802, 3.600244076333317], [2061.4109426307527, 3.0], [2143.5469250725646, 2.245085079295774], [2165.211445375487, 2.0], [2256.3750053863805, 1.0], [2297.3967099940432, 0.5847749199575183], [2349.7900161432117, 0.0], [2446.309565471116, -1.0], [2462.2888266898062, -1.1565035094000353], [2548.0582071126673, -2.0], [2639.01582154576, -2.812897540055208], [2662.7668002367705, -3.0], [2794.127160399972, -4.0], [2828.427124746159, -4.245547329271988], [2963.2909786083055, -5.0], [3031.4331330207656, -5.363489880807], [3211.686374600871, -6.0], [3249.0095854249043, -6.1300745570499116], [3482.2022531844555, -6.581134520516865], [3732.1319661471844, -6.738333327481387], [3999.9999999999504, -6.6559007882737955], [4287.093850145118, -6.371734184909122], [4553.3170702728785, -6.0], [4594.793419988081, -5.947049538816796], [4924.577653379601, -5.5383504184955], [5278.031643091506, -5.2848839813535236], [5656.854249492303, -5.345907623012307], [6062.866266041508, -5.761898761539894], [6207.897829186824, -6.0], [6498.019170849792, -6.478731502610033], [6767.292807018478, -7.0], [6964.404506368894, -7.372232554242767], [7270.162501383555, -8.0], [7464.2639322943505, -8.383192683421331], [7744.926319623769, -9.0], [7999.999999999882, -9.550614508894377]], 'minus_line': [[125.0, 11.614850070840554], [133.9716828170366, 11.83392208097071], [143.5872943746293, 11.730205252394374], [153.89305166811442, 11.180409197635514], [155.9864159653794, 11.0], [164.93848884661162, 10.271466308899651], [167.90752076302238, 10.0], [176.77669529663666, 9.226601883079521], [179.84895063822708, 9.0], [189.46457081379947, 8.33511799660905], [198.08914541769732, 8.0], [203.0630990890585, 7.824083564789707], [217.6376408240306, 7.832918727980463], [222.70216525941498, 8.0], [233.25824788420132, 8.35318660018881], [245.45131568135167, 9.0], [249.99999999999937, 9.238830249279403], [262.8196858633553, 10.0], [267.94336563407256, 10.296531071393119], [281.1798051775951, 11.0], [287.1745887492579, 11.311875575813355], [304.7460005689769, 12.0], [307.78610333622805, 12.119053660929527], [329.87697769322244, 12.641526898615911], [353.55339059327247, 12.81838219757876], [378.929141627598, 12.660378128385418], [406.12619817811606, 12.174877168526443], [412.64618925084085, 12.0], [435.2752816480601, 11.439379994110096], [450.1405821787138, 11.0], [466.5164957684015, 10.543990480278227], [485.5665821235012, 10.0], [499.9999999999975, 9.60580845780603], [523.7695012331156, 9.0], [535.8867312681438, 8.702267898225859], [567.7346193509853, 8.0], [574.3491774985143, 7.859693566239838], [615.5722066724546, 7.08648370138785], [620.7727537341665, 7.0], [659.7539553864432, 6.396234261640364], [689.8016589270437, 6.0], [707.1067811865431, 5.78708456349001], [757.8582832551941, 5.281192548346661], [791.130966099127, 5.0], [812.2523963562301, 4.831795922951311], [870.5505632961181, 4.43123679166186], [933.0329915368008, 4.111585157385802], [999.9999999999926, 4.048913073216579], [1071.773462536285, 4.455436684492305], [1113.559458516934, 5.0], [1148.698354997026, 5.445826741688251], [1176.858724716997, 6.0], [1231.1444133449077, 6.996504302413579], [1231.2953022441395, 7.0], [1274.0637673279873, 8.0], [1319.5079107728832, 8.948270082665408], [1321.7588292913442, 8.999999999999998], [1365.0685669067934, 10.0], [1414.1877891955457, 11.0], [1414.2135623730828, 11.000506962665344], [1465.8387115650344, 12.0], [1515.7165665103846, 12.858333787978555], [1526.435824552287, 13.0], [1604.664616292767, 14.0], [1624.5047927124563, 14.239209953678001], [1741.1011265922318, 14.927514848472683], [1866.065983073597, 14.839194971232859], [1997.7228457072545, 14.0], [1999.9999999999802, 13.986258943390137], [2098.5783886938734, 13.0], [2143.5469250725646, 12.557243500818082], [2191.818549060876, 12.0], [2277.1404571032053, 11.000000000000002], [2297.396709994046, 10.771255469009157], [2366.606303698055, 10.0], [2453.8433470894015, 8.999999999999998], [2462.2888266898062, 8.90756682847476], [2556.4118293947754, 8.0], [2639.01582154576, 7.188247934507277], [2663.281529360094, 7.0], [2792.8736178849435, 6.0], [2828.427124746155, 5.731278048114992], [2958.46385331445, 5.0], [3031.4331330207615, 4.6000419253483456], [3193.1256875200106, 4.0], [3249.0095854249043, 3.803339683774238], [3482.2022531844555, 3.3560285112645984], [3732.1319661471844, 3.222132979820643], [3999.9999999999504, 3.35989919483701], [4287.093850145118, 3.6676534223246353], [4568.46757207736, 4.0], [4594.793419988081, 4.031966421396742], [4924.577653379601, 4.381455621436785], [5278.031643091506, 4.6123590260603455], [5656.854249492303, 4.661705667484249], [6062.866266041508, 4.4359920700146205], [6375.476447632556, 4.0], [6498.019170849792, 3.83927716282943], [6910.938703870512, 3.0], [6964.404506368894, 2.896380663748821], [7370.287836644876, 2.0], [7464.2639322943505, 1.8006951870642804], [7949.6700204081935, 1.0], [7999.999999999882, 0.9185616422291687]]}",,,,,,rehvhf,001,fr,1,2022-05-11_11h58.18.262,Continuous,2022.1.1,35.5893417255325,
4,0,4,0,1,0,1,0,,,,,,,,2.1259354278089537,frequency,629.0,6.256385619340201,0.00010546574604642461,0,104,"['both', 'frequency']",0.0017087666783481836,None,['space'],119.39427089993842,119.39427089993842,0.19981606653891504,2.3257514943478688,119.61151909991167,119.39427089993842,[-0.8989120000042021],,,,,,,,,,rehvhf,001,fr,1,2022-05-11_11h58.18.262,Continuous,2022.1.1,35.5893417255325,
4,0,4,0,2,0,2,0,,,,,,,,1.6602001051954478,frequency,499.0,6.0069886179195295,0.00014276768867736177,0,105,"['both', 'frequency']",0.003727666335180402,0.19900156650692225,"['space', 'space']",121.74136180011556,121.74136180011556,0.19900156650692225,1.85920167170237,121.95391559996642,121.74136180011556,"[-1.9663251999299973, -0.4941511999350041]",,,,,,,,,,rehvhf,001,fr,1,2022-05-11_11h58.18.262,Continuous,2022.1.1,35.5893417255325,
4,0,4,0,3,0,3,0,,,,,,,,1.2895622489809526,frequency,,,,1,105,"['both', 'frequency']",0.0056756664998829365,None,None,123.60864480002783,123.60864480002783,0.20421536662615836,1.493777615607111,123.82888439996168,123.60864480002783,,,,,,,,,,,rehvhf,001,fr,1,2022-05-11_11h58.18.262,Continuous,2022.1.1,35.5893417255325,
4,0,4,0,4,0,4,0,,,,,,,,1.683276523641258,frequency,314.0,6.246282929224791,0.00020460891558094047,0,106,"['both', 'frequency']",0.006742466706782579,None,None,125.12536470009945,125.12536470009945,0.2114062667824328,1.8946827904236907,125.33350099995732,125.12536470009945,,,,,,,,,,,rehvhf,001,fr,1,2022-05-11_11h58.18.262,Continuous,2022.1.1,35.5893417255325,
4,0,4,0,5,0,5,0,,,,,,,,1.2696592061050127,frequency,249.0,5.942457403524059,0.000335848727793577,0,107,"['both', 'frequency']",0.004730266518890858,None,['space'],127.01291369996034,127.01291369996034,0.20051596639677882,1.4701751725017915,127.22815579990856,127.01291369996034,[-1.317499800119549],,,,,,,,,,rehvhf,001,fr,1,2022-05-11_11h58.18.262,Continuous,2022.1.1,35.5893417255325,
4,0,4,0,6,0,6,0,,,,,,,,2.7245470066026325,frequency,198.0,6.0,0.0005441602637892007,0,108,"['both', 'frequency']",0.002202166710048914,None,['space'],128.50225990009494,128.50225990009494,0.19862136663869023,2.9231683732413227,128.71891769999638,128.50225990009494,[-1.0159062000457197],,,,,,,,,,rehvhf,001,fr,1,2022-05-11_11h58.18.262,Continuous,2022.1.1,35.5893417255325,
4,0,4,0,7,0,7,0,,,,,,,,1.0028150794786261,frequency,157.0,7.242162809138197,0.0010078906846684465,0,109,"['both', 'frequency']",0.008504466619342566,None,['space'],131.4495550999418,131.4495550999418,0.21288726665079594,1.215702346129422,131.6653821999207,131.4495550999418,[-2.4741186001338065],,,,,,,,,,rehvhf,001,fr,1,2022-05-11_11h58.18.262,Continuous,2022.1.1,35.5893417255325,
4,0,4,0,8,0,8,0,,,,,,,,1.7312965045377395,frequency,125.0,6.0,0.0014420157515633036,0,110,"['both', 'frequency']",0.008647866547107697,None,['space'],132.6660186999943,132.6660186999943,0.21449036663398147,1.945786871171721,132.88784349989146,132.6660186999943,[-0.8107322999276221],,,,,,,,,,rehvhf,001,fr,1,2022-05-11_11h58.18.262,Continuous,2022.1.1,35.5893417255325,
5,0,5,0,0,0,0,0,,,,,,137.28728340007365,None,1.347431367539322,none,3364.0,-8.675687386412909,2.6804182546117294e-05,0,33,"['both', 'frequency']",0.013017166638746858,None,None,138.30955919995904,None,0.2108091665431857,1.5582405340825076,138.5191438999027,None,,134.61717010010034,None,,,"[0.5833333333333334, 0.3333333333333333, 0.3333333333333333, 0.3333333333333333, 0.3333333333333333, 0.16666666666666666, 0.5833333333333334, 0.3333333333333333, 0.3333333333333333, 0.5833333333333334, 0.3333333333333333, 0.16666666666666666, 0.5833333333333334, 0.5833333333333334, 0.16666666666666666]",,,,,rehvhf,001,fr,1,2022-05-11_11h58.18.262,Continuous,2022.1.1,35.5893417255325,
5,0,5,0,1,0,1,0,,,,,,,,2.8633797576892066,none,5040.0,-8.448531160518383,5.7191189278487444e-05,0,34,"['both', 'frequency']",0.008119866251945496,None,None,139.85818170011044,139.85818170011044,0.21185886627063155,3.075238623959838,140.07412749994546,139.85818170011044,,,,,,,,,,,rehvhf,001,fr,1,2022-05-11_11h58.18.262,Continuous,2022.1.1,35.5893417255325,
5,0,5,0,2,0,2,0,,,,,,,,2.402080268807992,none,,,,1,34,"['both', 'frequency']",0.001591966487467289,None,['space'],142.9353680999484,142.9353680999484,0.19803016656078398,2.600110435368776,143.1493279999122,142.9353680999484,[-2.68024929985404],,,,,,,,,,rehvhf,001,fr,1,2022-05-11_11h58.18.262,Continuous,2022.1.1,35.5893417255325,
5,0,5,0,3,0,3,0,,,,,,,,2.174347580271017,none,2379.0,-6.2169243561034,4.067671733629881e-05,0,35,"['both', 'frequency']",0.009599366690963507,None,None,145.55309140007012,145.55309140007012,0.21615246660076082,2.390500046871778,145.76653979998082,145.55309140007012,,,,,,,,,,,rehvhf,001,fr,1,2022-05-11_11h58.18.262,Continuous,2022.1.1,35.5893417255325,
5,0,5,0,4,0,4,0,,,,,,,,2.4121045923750533,none,1499.0,7.070449721982274,0.00010907259691435345,0,36,"['both', 'frequency']",0.008259966736659408,None,None,147.94756689993665,147.94756689993665,0.21524416655302048,2.6273487589280737,148.16375040006824,147.94756689993665,,,,,,,,,,,rehvhf,001,fr,1,2022-05-11_11h58.18.262,Continuous,2022.1.1,35.5893417255325,
5,0,5,0,5,0,5,0,,,,,,,,1.8219939613096998,none,2997.0,-8.37919802706009,2.0964495648546658e-05,0,37,"['both', 'frequency']",0.0044554665219038725,None,None,150.57057649991475,150.57057649991475,0.20231356634758413,2.024307527657284,150.79019899992272,150.57057649991475,,,,,,,,,,,rehvhf,001,fr,1,2022-05-11_11h58.18.262,Continuous,2022.1.1,35.5893417255325,
5,0,5,0,6,0,6,0,,,,,,,,1.3786383240219915,none,6350.0,-5.299849852931565,7.145147292921698e-05,0,38,"['both', 'frequency']",0.008153966628015041,None,None,152.6159622000996,152.6159622000996,0.2147044667508453,1.5933427907728368,152.83633020007983,152.6159622000996,,,,,,,,,,,rehvhf,001,fr,1,2022-05-11_11h58.18.262,Continuous,2022.1.1,35.5893417255325,
5,0,5,0,7,0,7,0,,,,,,,,1.412241818892837,none,1190.0,-8.267757591466262,2.007299145981723e-05,0,39,"['both', 'frequency']",0.01601543347351253,None,['space'],154.21599550009705,154.21599550009705,0.2314713334199041,1.643713152312741,154.44210390001535,154.21599550009705,[-1.064656199887395],,,,,,,,,,rehvhf,001,fr,1,2022-05-11_11h58.18.262,Continuous,2022.1.1,35.5893417255325,
5,0,5,0,8,0,8,0,,,,,,,,2.607147589001431,none,8000.0,-9.0,6.441247758465671e-05,0,40,"['both', 'frequency']",0.002757566748186946,0.19960736692883074,None,155.84736289991997,155.84736289991997,0.19960736692883074,2.806754955930262,156.0620554999914,155.84736289991997,,,,,,,,,,,rehvhf,001,fr,1,2022-05-11_11h58.18.262,Continuous,2022.1.1,35.5893417255325,
6,0,6,0,0,0,0,0,,,,,,163.56106520001777,None,1.9123711211182879,time,,,,1,94,"['both', 'frequency']",0.009094566572457552,None,None,164.59899300010875,None,0.20900216652080417,2.1213732876390923,164.8164977999404,None,,158.6693363999948,None,,,"[0.5833333333333334, 0.5833333333333334, 0.3333333333333333, 0.3333333333333333, 0.16666666666666666, 0.5833333333333334, 0.3333333333333333, 0.16666666666666666, 0.3333333333333333, 0.16666666666666666, 0.16666666666666666, 0.5833333333333334, 0.5833333333333334, 0.5833333333333334, 0.5833333333333334]",,,,,rehvhf,001,fr,1,2022-05-11_11h58.18.262,Continuous,2022.1.1,35.5893417255325,
6,0,6,0,1,0,1,0,,,,,,,,1.9123711211182879,time,235.0,3.275867336273091,0.0002870609820566398,0,95,"['both', 'frequency']",0.009145166724920273,None,None,166.73103090003133,166.73103090003133,0.21372416662052274,2.126095287738811,166.94263070006855,166.73103090003133,,,,,,,,,,,rehvhf,001,fr,1,2022-05-11_11h58.18.262,Continuous,2022.1.1,35.5893417255325,
6,0,6,0,2,0,2,0,,,,,,,,1.9123711211182879,time,527.0,5.660101925362485,0.00012899877034783163,0,96,"['both', 'frequency']",0.007836266653612256,None,None,168.85291830007918,168.85291830007918,0.21305996645241976,2.125431087570708,169.06573919998482,168.85291830007918,,,,,,,,,,,rehvhf,001,fr,1,2022-05-11_11h58.18.262,Continuous,2022.1.1,35.5893417255325,
6,0,6,0,3,0,3,0,,,,,,,,1.9123711211182879,time,125.0,3.0,0.001020868972334765,0,97,"['both', 'frequency']",0.007443466456606984,None,None,170.97552209999412,170.97552209999412,0.21293666656129062,2.1253077876795787,171.1972117999103,170.97552209999412,,,,,,,,,,,rehvhf,001,fr,1,2022-05-11_11h58.18.262,Continuous,2022.1.1,35.5893417255325,
6,0,6,0,4,0,4,0,,,,,,,,1.9123711211182879,time,140.0,7.13096536454254,0.0013390430155253842,0,98,"['both', 'frequency']",0.007219366729259491,None,None,173.10825169994496,173.10825169994496,0.21338546671904624,2.1257565878373343,173.32067780010402,173.10825169994496,,,,,,,,,,,rehvhf,001,fr,1,2022-05-11_11h58.18.262,Continuous,2022.1.1,35.5893417255325,
6,0,6,0,5,0,5,0,,,,,,,,1.9123711211182879,time,157.0,8.808564358363551,0.001207072925217521,0,99,"['both', 'frequency']",0.0034394667018204927,None,['space'],175.23073840001598,175.23073840001598,0.2000911666546017,2.11246228777289,175.44938879995607,175.23073840001598,[-1.7113057998940349],,,,,,,,,,rehvhf,001,fr,1,2022-05-11_11h58.18.262,Continuous,2022.1.1,35.5893417255325,
6,0,6,0,6,0,6,0,,,,,,,,1.9123711211182879,time,790.0,3.1311565903170515,5.5672957091824365e-05,0,100,"['both', 'frequency']",0.007478766608983278,None,['space'],177.3633294000756,177.3633294000756,0.21258276654407382,2.124953887662362,177.5805075999815,177.3633294000756,[-1.7962085001636297],,,,,,,,,,rehvhf,001,fr,1,2022-05-11_11h58.18.262,Continuous,2022.1.1,35.5893417255325,
6,0,6,0,7,0,7,0,,,,,,,,1.9123711211182879,time,352.0,4.5381867670279945,0.00015009819964921351,0,101,"['both', 'frequency']",0.007530566770583391,None,['space'],179.49308479996398,179.49308479996398,0.21329866675660014,2.1256697878748883,179.70509790000506,179.49308479996398,[-1.7336039000656456],,,,,,,,,,rehvhf,001,fr,1,2022-05-11_11h58.18.262,Continuous,2022.1.1,35.5893417255325,
7,0,7,0,0,0,0,0,,,,,,186.63126370008104,None,2.829508185311674,time,6349.0,-2.9411304466456394,9.372318793128e-05,0,102,"['both', 'frequency', 'time']",0.013066466897726059,None,None,187.66998269991018,None,0.22229766682721674,3.051805852138891,187.88185400003567,None,,181.62076029996388,None,,,"[0.16666666666666666, 0.5833333333333334, 0.16666666666666666, 0.16666666666666666, 0.16666666666666666, 0.16666666666666666, 0.5833333333333334, 0.16666666666666666, 0.16666666666666666, 0.16666666666666666, 0.5833333333333334, 0.3333333333333333, 0.3333333333333333, 0.5833333333333334, 0.5833333333333334]","{'estimation': [[125.0, 5.588786854834405], [133.9716828170366, 5.510648145212034], [143.5872943746293, 5.485661442053923], [153.89305166811442, 5.543364376867584], [164.93848884661162, 5.677839623671351], [176.77669529663666, 5.847444412419033], [189.46457081379947, 5.985907020039469], [194.61039630466726, 6.0], [203.0630990890585, 6.022641804401314], [205.87835992817648, 6.0], [217.6376408240306, 5.908155751650465], [233.25824788420132, 5.6334342356399745], [249.99999999999937, 5.226109990931661], [258.14083885075337, 5.0], [267.94336563407256, 4.739679790446238], [287.1745887492579, 4.2500115136469], [298.39669799074903, 4.0], [307.78610333622805, 3.801410540029841], [329.87697769322244, 3.4266884457801003], [353.55339059327247, 3.108972483743499], [362.6930393297987, 3.0], [378.929141627598, 2.814597861791477], [406.12619817811606, 2.5114435731255034], [435.2752816480601, 2.173171624387527], [449.47450749534875, 2.0], [466.5164957684015, 1.8035307098742612], [499.9999999999975, 1.4452318847013972], [535.8867312681438, 1.1430024169223825], [563.3621679084906, 1.0], [574.3491774985143, 0.9448467568955694], [615.5722066724546, 0.8855105665277174], [659.7539553864432, 0.9680048432947655], [667.0143342111244, 1.0], [707.1067811865431, 1.1697460376643676], [757.8582832551941, 1.4467388595927995], [812.2523963562301, 1.7537374499611862], [860.5638200564212, 2.0], [870.5505632961181, 2.050166773458298], [933.0329915368008, 2.294854518021991], [999.9999999999926, 2.456942539343644], [1071.773462536285, 2.519766675874328], [1148.698354997026, 2.4771887450433874], [1231.1444133449063, 2.3368259869510704], [1319.5079107728832, 2.120017447514932], [1361.8930058150142, 2.0], [1414.2135623730828, 1.8601024202488459], [1515.7165665103846, 1.5996494805193442], [1624.5047927124563, 1.368083994861288], [1741.1011265922318, 1.1812902112768429], [1866.065983073597, 1.0404815336357922], [1916.6047734376034, 1.0], [1999.9999999999777, 0.9347269665107953], [2143.5469250725646, 0.8504708805252184], [2297.396709994046, 0.7768293570606453], [2462.2888266898062, 0.7112952430476047], [2639.01582154576, 0.6591594831331993], [2828.427124746159, 0.6281734256957261], [3031.433133020758, 0.6220828718022386], [3249.0095854249043, 0.6363176346142922], [3482.2022531844555, 0.6577277480077417], [3732.1319661471844, 0.6679698868185926], [3999.9999999999504, 0.6482658005312785], [4287.093850145118, 0.5828285508990241], [4594.793419988081, 0.45936853594728544], [4924.577653379601, 0.26704203960587447], [5269.826474447725, 0.0], [5278.031643091513, -0.006217395266892058], [5656.854249492303, -0.363549958159607], [6062.866266041508, -0.806280808606516], [6219.744123262572, -1.0], [6498.019170849792, -1.327211583638121], [6964.404506368894, -1.8861823896573617], [7065.18865501078, -2.0], [7464.2639322943505, -2.438487343596287], [7999.999999999872, -2.910662070664831]], 'plus_line': [[125.0, 1.9695307119876202], [127.24762859295345, 2.0], [133.9716828170366, 2.0745173566396975], [143.5872943746293, 2.051593046338691], [153.89305166811442, 2.0542950539613534], [164.93848884661162, 2.150258954103699], [176.77669529663666, 2.3123076140135863], [189.46457081379947, 2.45406749729417], [203.0630990890585, 2.479336487461115], [217.6376408240306, 2.33351706536652], [233.25824788420132, 2.0283977693868795], [234.35901504617684, 2.0], [249.99999999999937, 1.5819529340562983], [267.94336563407256, 1.1231405583713685], [273.20904334437574, 1.0], [287.1745887492579, 0.6660271648133161], [307.78610333622805, 0.27381614667524257], [325.82126253536757, 0.0], [329.87697769322244, -0.06498336089527053], [353.55339059327247, -0.38658279038660726], [378.929141627598, -0.6686641467885573], [406.12619817811606, -0.9355734174285564], [412.54019323316777, -1.0], [435.2752816480601, -1.2385240615904611], [466.5164957684015, -1.5614011138707524], [499.9999999999975, -1.8839674177811827], [514.1993938358188, -2.0], [535.8867312681438, -2.1896220696114694], [574.3491774985143, -2.3948371146370766], [615.5722066724546, -2.449563646136654], [659.7539553864432, -2.35526453428409], [707.1067811865431, -2.139477102463803], [730.8285419950109, -2.0], [757.8582832551941, -1.8625685393315448], [812.2523963562301, -1.575819212511704], [870.5505632961181, -1.2918817206403346], [933.0329915368008, -1.045673301933142], [951.0018934377678, -1.0], [999.9999999999926, -0.8934972545293048], [1071.773462536285, -0.8380928847369609], [1148.698354997026, -0.8712893896044689], [1231.1444133449063, -0.9775603618456419], [1242.668273134393, -1.0], [1319.5079107728832, -1.1603842488423461], [1414.2135623730828, -1.3920939007942783], [1515.7165665103846, -1.6519374594742615], [1624.5047927124563, -1.9130440911357098], [1667.7927979291235, -2.0], [1741.101126592234, -2.1631022171037624], [1866.065983073597, -2.3534081505313864], [1999.9999999999777, -2.473278519613268], [2143.5469250725646, -2.5453834729644127], [2297.396709994046, -2.5937094384294133], [2462.2888266898062, -2.6304296126707785], [2639.01582154576, -2.6560417340306124], [2828.427124746159, -2.6690307145463192], [3031.4331330207615, -2.672620396667223], [3249.0095854249043, -2.6733119185551466], [3482.2022531844555, -2.6779187241901607], [3732.1319661471844, -2.6959844960405235], [3999.999999999946, -2.743881073875627], [4287.093850145118, -2.8423021497918275], [4580.85942213586, -3.0], [4594.793419988081, -3.0082675183892995], [4924.577653379601, -3.271796189488949], [5278.031643091506, -3.5948020856022564], [5656.854249492303, -3.968712899457335], [5685.16296190573, -4.0], [6062.866266041516, -4.431239153466699], [6498.019170849792, -4.915886812929321], [6569.255002475037, -5.0], [6964.404506368894, -5.476576730104799], [7399.710346333172, -6.000000000000001], [7464.2639322943505, -6.081787003323431], [7999.999999999882, -6.810459540685114]], 'minus_line': [[125.0, 9.301058481486821], [132.4444776949553, 9.0], [133.9716828170366, 8.949588569032422], [143.5872943746293, 8.877947179672816], [153.89305166811442, 8.968876630109186], [155.83041677580664, 9.0], [164.93848884661162, 9.160103796578776], [176.77669529663666, 9.373141740005371], [189.46457081379947, 9.549309729342884], [203.06309908905865, 9.638146246777023], [217.6376408240306, 9.591173803265512], [233.25824788420132, 9.371332240574088], [248.48727697935757, 9.0], [249.99999999999937, 8.966829994988306], [267.94336563407256, 8.473095495944694], [283.8574610799553, 8.0], [287.1745887492579, 7.911421821725161], [307.78610333622805, 7.422580090504977], [329.83287240721785, 7.0], [329.87697769322244, 6.9992470900446895], [353.55339059327247, 6.695803880742432], [378.929141627598, 6.409836005689387], [406.12619817811606, 6.070104038451695], [410.88042428624334, 6.0], [435.2752816480601, 5.689358064621805], [466.5164957684015, 5.261522567460116], [486.4459022327142, 5.0], [499.9999999999975, 4.845095817261845], [535.8867312681438, 4.523397773370113], [574.3491774985143, 4.305825969242119], [615.5722066724546, 4.22460589304759], [659.7539553864432, 4.29379131357469], [707.1067811865431, 4.497790536916685], [757.8582832551941, 4.792876745466453], [791.0655171402129, 5.0], [812.2523963562301, 5.1436281742194], [870.5505632961181, 5.494270354418708], [933.0329915368008, 5.772827082542731], [999.9999999999926, 5.9588404899152945], [1039.2970982111237, 6.0], [1071.773462536285, 6.037983518651389], [1116.7415086479555, 6.0], [1148.698354997026, 5.977488333708462], [1231.1444133449063, 5.791208590370216], [1319.5079107728832, 5.498688287228395], [1414.2135623730828, 5.149243053770072], [1458.333645198468, 5.0], [1515.7165665103846, 4.835407012309207], [1624.5047927124563, 4.60292724961509], [1741.1011265922318, 4.434532706255998], [1866.065983073597, 4.308841672130768], [1999.9999999999802, 4.202016596599738], [2143.5469250725646, 4.101839132045006], [2297.396709994046, 4.008353423650447], [2314.4238268802455, 4.0], [2462.2888266898062, 3.938887569908715], [2639.01582154576, 3.893348551568559], [2828.427124746155, 3.881713084243209], [3031.4331330207615, 3.911003477005236], [3249.0095854249084, 3.9746561864447765], [3326.155795884047, 4.0], [3482.2022531844555, 4.058035712038487], [3732.1319661471844, 4.125618540902436], [3999.9999999999504, 4.151083601217396], [4287.093850145118, 4.12548022255304], [4594.793419988081, 4.042365377249931], [4683.499858109961, 4.0], [4924.577653379601, 3.9007669215488163], [5278.031643091506, 3.6774713889528536], [5656.854249492303, 3.3351867223906444], [5932.814378528465, 3.0], [6062.866266041501, 2.8590512649271758], [6498.019170849792, 2.2942266423158704], [6707.512506638902, 2.0], [6964.404506368902, 1.676875760586209], [7464.2639322943505, 1.1416302767333275], [7732.311421760048, 1.0], [7999.999999999872, 0.8695694661556992]]}",,,,rehvhf,001,fr,1,2022-05-11_11h58.18.262,Continuous,2022.1.1,35.5893417255325,
7,0,7,0,1,0,1,0,,,,,,,,2.829508185311674,time,8000.0,-3.0,0.00012851978913844324,0,103,"['both', 'frequency', 'time']",0.005260066594928503,None,['space'],190.71198939997703,190.71198939997703,0.2078260665293783,3.0373342518410524,190.9334587000776,190.71198939997703,[-2.18492059991695],,,,,,,,,,rehvhf,001,fr,1,2022-05-11_11h58.18.262,Continuous,2022.1.1,35.5893417255325,
7,0,7,0,2,0,2,0,,,,,,,,2.829508185311674,time,,,,1,103,"['both', 'frequency', 'time']",0.0066194667015224695,None,['space'],193.75974230002612,193.75974230002612,0.21012046677060425,3.0396286520822784,193.97456049988978,193.75974230002612,[-2.7371729998849332],,,,,,,,,,rehvhf,001,fr,1,2022-05-11_11h58.18.262,Continuous,2022.1.1,35.5893417255325,
7,0,7,0,3,0,3,0,,,,,,,,2.829508185311674,time,7127.0,-3.306750604302641,0.00010597610429010483,0,104,"['both', 'frequency', 'time']",0.008340766653418541,None,None,196.80832329997793,196.80832329997793,0.21463406668044627,3.0441422519921204,197.022406199947,196.80832329997793,,,,,,,,,,,rehvhf,001,fr,1,2022-05-11_11h58.18.262,Continuous,2022.1.1,35.5893417255325,
7,0,7,0,4,0,4,0,,,,,,,,2.829508185311674,time,4237.0,-6.557616727389452,4.711849007744561e-05,0,105,"['both', 'frequency', 'time']",0.0021965664345771074,None,['space'],199.85713279992342,199.85713279992342,0.1986493666190654,3.0281575519307395,200.07210920006037,199.85713279992342,[-2.706300599966198],,,,,,,,,,rehvhf,001,fr,1,2022-05-11_11h58.18.262,Continuous,2022.1.1,35.5893417255325,
7,0,7,0,5,0,5,0,,,,,,,,2.829508185311674,time,2669.0,-2.790818732731396,5.467534389548587e-05,0,106,"['both', 'frequency', 'time']",0.005493266507983208,None,['space'],202.90875690011308,202.90875690011308,0.20708686648868024,3.0365950518003544,203.1251656000968,202.90875690011308,[-2.4297370000276715],,,,,,,,,,rehvhf,001,fr,1,2022-05-11_11h58.18.262,Continuous,2022.1.1,35.5893417255325,
7,0,7,0,6,0,6,0,,,,,,,,2.829508185311674,time,3363.0,-6.760036596204651,3.341029717238824e-05,0,107,"['both', 'frequency', 'time']",0.006740066455677152,None,None,205.96144809992984,205.96144809992984,0.21189836645498872,3.041406551766663,206.17818660009652,205.96144809992984,,,,,,,,,,,rehvhf,001,fr,1,2022-05-11_11h58.18.262,Continuous,2022.1.1,35.5893417255325,
7,0,7,0,7,0,7,0,,,,,,,,2.829508185311674,time,3775.0,-7.369374226007957,3.4242845829902316e-05,0,108,"['both', 'frequency', 'time']",0.016546233324334025,None,None,209.00639320001937,209.00639320001937,0.21250833314843476,3.042016518460109,209.2275304000359,209.00639320001937,,,,,,,,,,,rehvhf,001,fr,1,2022-05-11_11h58.18.262,Continuous,2022.1.1,35.5893417255325,
7,0,7,0,8,0,8,0,,,,,,,,2.829508185311674,time,2996.0,-3.355640914019327,3.742420668997956e-05,0,109,"['both', 'frequency', 'time']",0.015759633155539632,None,None,212.06104429997504,212.06104429997504,0.2150178332813084,3.0445260185929826,212.2699728999287,212.06104429997504,,,,,,,,,,,rehvhf,001,fr,1,2022-05-11_11h58.18.262,Continuous,2022.1.1,35.5893417255325,
8,0,8,0,0,0,0,0,,,,,,218.97200650000013,None,2.7890238825519944,none,716.0,7.623526133358667,0.00010492829305138907,0,41,"['both', 'frequency', 'time']",0.012595966691151261,None,None,219.9969178000465,None,0.23561166669242084,3.0246355492444152,220.22463850001805,None,,215.10458669997752,None,,,"[0.3333333333333333, 0.3333333333333333, 0.16666666666666666, 0.16666666666666666, 0.16666666666666666, 0.5833333333333334, 0.5833333333333334, 0.3333333333333333, 0.3333333333333333, 0.3333333333333333, 0.5833333333333334, 0.3333333333333333, 0.16666666666666666, 0.5833333333333334, 0.5833333333333334]",,,,,rehvhf,001,fr,1,2022-05-11_11h58.18.262,Continuous,2022.1.1,35.5893417255325,
8,0,8,0,1,0,1,0,,,,,,,,2.8526579992808507,none,1516.0,8.706463305181439,0.0001352942562264719,0,42,"['both', 'frequency', 'time']",0.006202866788953543,None,['space'],223.0070956000127,223.0070956000127,0.21111696679145098,3.0637749660723017,223.22472420008853,223.0070956000127,[-2.560295900097117],,,,,,,,,,rehvhf,001,fr,1,2022-05-11_11h58.18.262,Continuous,2022.1.1,35.5893417255325,
8,0,8,0,2,0,2,0,,,,,,,,1.1951983425340709,none,379.0,14.0,0.00041100441357030677,0,43,"['both', 'frequency', 'time']",0.006340466672554612,None,None,226.07911369996145,226.07911369996145,0.2117443666793406,1.4069427092134115,226.29117379989475,226.07911369996145,,,,,,,,,,,rehvhf,001,fr,1,2022-05-11_11h58.18.262,Continuous,2022.1.1,35.5893417255325,
8,0,8,0,3,0,3,0,,,,,,,,1.4788588251887174,none,902.0,9.219516200488231,0.00011928333952133747,0,44,"['both', 'frequency', 'time']",0.015469133388251066,None,['space'],227.49450680008158,227.49450680008158,0.21408923342823982,1.6929480586169572,227.70898619992658,227.49450680008158,[-1.0630583001766354],,,,,,,,,,rehvhf,001,fr,1,2022-05-11_11h58.18.262,Continuous,2022.1.1,35.5893417255325,
8,0,8,0,4,0,4,0,,,,,,,,2.1479647794527366,none,1012.0,6.636283005138313,9.565428922444084e-05,0,45,"['both', 'frequency', 'time']",0.006354966666549444,None,['space'],229.19716980005614,229.19716980005614,0.21098226658068597,2.3589470460334225,229.4118047999218,229.19716980005614,[-1.3105483001563698],,,,,,,,,,rehvhf,001,fr,1,2022-05-11_11h58.18.262,Continuous,2022.1.1,35.5893417255325,
8,0,8,0,5,0,5,0,,,,,,,,1.8438902475981835,none,2271.0,12.254744105525413,0.00033132277440214923,0,46,"['both', 'frequency', 'time']",0.006133766612038016,None,['space'],231.5683079001028,231.5683079001028,0.21933196671307087,2.0632222143112546,231.7871618999634,231.5683079001028,[-1.873413800029084],,,,,,,,,,rehvhf,001,fr,1,2022-05-11_11h58.18.262,Continuous,2022.1.1,35.5893417255325,
8,0,8,0,6,0,6,0,,,,,,,,1.0080055370250298,none,239.0,12.664900639165221,0.0008124273212827274,0,47,"['both', 'frequency', 'time']",0.002486066659912467,None,['space'],233.62804979993962,233.62804979993962,0.1989884665235877,1.2069940035486175,233.84355250000954,233.62804979993962,[-1.6777317998930812],,,,,,,,,,rehvhf,001,fr,1,2022-05-11_11h58.18.262,Continuous,2022.1.1,35.5893417255325,
8,0,8,0,7,0,7,0,,,,,,,,2.3362330112736873,none,301.0,7.6974003034903635,0.0002752234740134771,0,48,"['both', 'frequency', 'time']",0.006069566588848829,None,['space'],234.85692070005462,234.85692070005462,0.20813286653719842,2.5443658778108857,235.06272880011238,234.85692070005462,[-0.8098603000398725],,,,,,,,,,rehvhf,001,fr,1,2022-05-11_11h58.18.262,Continuous,2022.1.1,35.5893417255325,
8,0,8,0,8,0,8,0,,,,,,,,1.965285858766921,none,478.0,11.060966684848765,0.0002592975624896549,0,49,"['both', 'frequency', 'time']",0.016032433370128274,None,None,237.40353069989942,237.40353069989942,0.21145273349247873,2.1767385922594,237.6242619000841,237.40353069989942,,,,,,,,,,,rehvhf,001,fr,1,2022-05-11_11h58.18.262,Continuous,2022.1.1,35.5893417255325,
8,0,8,0,9,0,9,0,,,,,,,,2.957390877604462,none,,,,1,49,"['both', 'frequency', 'time']",0.006151066394522786,None,None,239.59542030002922,239.59542030002922,0.20969126652926207,3.1670821441337242,239.79841700010002,239.59542030002922,,,,,,,,,,,rehvhf,001,fr,1,2022-05-11_11h58.18.262,Continuous,2022.1.1,35.5893417255325,
9,0,9,0,0,0,0,0,,,,,,249.03855519997887,None,1.0746567472370718,none,,,,1,49,"['both', 'frequency', 'time']",0.013168766628950834,0.20928786671720445,None,250.0609752999153,None,0.20928786671720445,1.2839446139542763,250.26832340005785,None,,242.76100559998304,None,,,"[0.5833333333333334, 0.16666666666666666, 0.5833333333333334, 0.3333333333333333, 0.3333333333333333, 0.16666666666666666, 0.16666666666666666, 0.3333333333333333, 0.3333333333333333, 0.16666666666666666, 0.16666666666666666, 0.16666666666666666, 0.5833333333333334, 0.5833333333333334, 0.16666666666666666]",,,,,rehvhf,001,fr,1,2022-05-11_11h58.18.262,Continuous,2022.1.1,35.5893417255325,
9,0,9,0,1,0,1,0,,,,,,,,2.238201213809753,none,4595.0,4.0,0.00019792096181719547,0,50,"['both', 'frequency', 'time']",0.007375466404482722,None,None,251.3416736999061,251.3416736999061,0.210960166528821,2.449161380338574,251.55307710007764,251.3416736999061,,,,,,,,,,,rehvhf,001,fr,1,2022-05-11_11h58.18.262,Continuous,2022.1.1,35.5893417255325,
9,0,9,0,2,0,2,0,,,,,,,,1.9534377523766713,none,2298.0,2.2835085455675994,0.00010589949389374128,0,51,"['both', 'frequency', 'time']",0.013550733448937535,None,['space'],253.79602660005912,253.79602660005912,0.20985973346978426,2.1632974858464555,254.01546399993822,253.79602660005912,[-2.10070569999516],,,,,,,,,,rehvhf,001,fr,1,2022-05-11_11h58.18.262,Continuous,2022.1.1,35.5893417255325,
9,0,9,0,3,0,3,0,,,,,,,,1.878004222838194,none,1448.0,4.604686936127131,8.426736221295926e-05,0,52,"['both', 'frequency', 'time']",0.001838266383856535,0.19668626645579934,['space'],255.96736519993283,255.96736519993283,0.19668626645579934,2.0746904892939932,256.1872062999755,255.96736519993283,[-1.8084198001306504],,,,,,,,,,rehvhf,001,fr,1,2022-05-11_11h58.18.262,Continuous,2022.1.1,35.5893417255325,
9,0,9,0,4,0,4,0,,,,,,,,1.3079296212667557,none,3647.0,1.507997396931465,9.248355833330654e-05,0,53,"['both', 'frequency', 'time']",0.004723966587334871,None,None,258.0689958999865,258.0689958999865,0.21866456675343215,1.5265941880201879,258.2836176001001,258.0689958999865,,,,,,,,,,,rehvhf,001,fr,1,2022-05-11_11h58.18.262,Continuous,2022.1.1,35.5893417255325,
9,0,9,0,5,0,5,0,,,,,,,,2.3834235507969437,none,861.0,6.015077879886114,8.015264108780784e-05,0,54,"['both', 'frequency', 'time']",0.005042766686528921,None,['space'],259.60032030008733,259.60032030008733,0.21816976671107113,2.601593317508015,259.81639939988963,259.60032030008733,[-1.1056135999970138],,,,,,,,,,rehvhf,001,fr,1,2022-05-11_11h58.18.262,Continuous,2022.1.1,35.5893417255325,
9,0,9,0,6,0,6,0,,,,,,,,1.335168942443533,none,966.0,4.053415033348259,6.870810105141284e-05,0,55,"['both', 'frequency', 'time']",0.004668266512453556,None,['space'],262.20079579995945,262.20079579995945,0.20937476656399667,1.5445437090075296,262.41075480007567,262.20079579995945,[-2.090449499897659],,,,,,,,,,rehvhf,001,fr,1,2022-05-11_11h58.18.262,Continuous,2022.1.1,35.5893417255325,
9,0,9,0,7,0,7,0,,,,,,,,1.1243986196678049,none,1824.0,4.636895470788078,0.00011403615335107239,0,56,"['both', 'frequency', 'time']",0.005344066768884659,None,['space'],263.75261659990065,263.75261659990065,0.20695116673596203,1.3313497864037669,263.961024899967,263.75261659990065,[-1.0815226999111474],,,,,,,,,,rehvhf,001,fr,1,2022-05-11_11h58.18.262,Continuous,2022.1.1,35.5893417255325,
9,0,9,0,8,0,8,0,,,,,,,,1.7658461361309774,none,5158.0,2.8895429437465134,0.00020490703749134184,0,57,"['both', 'frequency', 'time']",0.0010588665027171373,None,None,265.09156539989635,265.09156539989635,0.1973671664018184,1.9632133025327958,265.31050659995526,265.09156539989635,,,,,,,,,,,rehvhf,001,fr,1,2022-05-11_11h58.18.262,Continuous,2022.1.1,35.5893417255325,
9,0,9,0,9,0,9,0,,,,,,,,1.3165453271652237,none,5790.0,-0.4967709043146882,0.00011674230737718977,0,58,"['both', 'frequency', 'time']",0.0015663665253669024,0.19453886663541198,['space'],267.0807087998837,267.0807087998837,0.19453886663541198,1.5110841938006356,267.29106849990785,267.0807087998837,[-1.6729492000304163],,,,,,,,,,rehvhf,001,fr,1,2022-05-11_11h58.18.262,Continuous,2022.1.1,35.5893417255325,
9,0,9,0,10,0,10,0,,,,,,,,1.7570995057393595,none,2895.0,3.0662604632283097,8.732125987530194e-05,0,59,"['both', 'frequency', 'time']",0.003124766517430544,None,['space'],268.61153599992394,268.61153599992394,0.20179846649989486,1.9588979722392543,268.8285888999235,268.61153599992394,[-1.1088259001262486],,,,,,,,,,rehvhf,001,fr,1,2022-05-11_11h58.18.262,Continuous,2022.1.1,35.5893417255325,
10,0,10,0,0,0,0,0,,,,,,274.55371850007214,None,1.8500770761094802,none,446.0,6.058394197657684,0.00014905500831831234,0,60,"['both', 'frequency', 'time']",0.012471666559576988,None,None,275.5836384999566,None,0.20825726655311882,2.058334342662599,275.7925754999742,None,,270.590755000012,None,,,"[0.16666666666666666, 0.5833333333333334, 0.5833333333333334, 0.3333333333333333, 0.3333333333333333, 0.16666666666666666, 0.16666666666666666, 0.5833333333333334, 0.16666666666666666, 0.3333333333333333, 0.5833333333333334, 0.16666666666666666, 0.16666666666666666, 0.5833333333333334, 0.16666666666666666]",,,,,rehvhf,001,fr,1,2022-05-11_11h58.18.262,Continuous,2022.1.1,35.5893417255325,
10,0,10,0,1,0,1,0,,,,,,,,1.97637366191075,none,125.0,2.0,0.000909850429304992,0,61,"['both', 'frequency', 'time']",0.014469733461737633,None,None,277.64756940002553,277.64756940002553,0.21469563338905573,2.1910692952998057,277.8676183000207,277.64756940002553,,,,,,,,,,,rehvhf,001,fr,1,2022-05-11_11h58.18.262,Continuous,2022.1.1,35.5893417255325,
10,0,10,0,2,0,2,0,,,,,,,,2.9965616087953353,none,210.0,2.2629615388129247,0.0003190206956319188,0,62,"['both', 'frequency', 'time']",0.0053659663535654545,None,None,279.85242290003225,279.85242290003225,0.21130256657488644,3.2078641753702217,280.0625380000565,279.85242290003225,,,,,,,,,,,rehvhf,001,fr,1,2022-05-11_11h58.18.262,Continuous,2022.1.1,35.5893417255325,
10,0,10,0,3,0,3,0,,,,,,,,2.4587132702187016,none,397.0,2.6553466651776683,0.00010498646549077664,0,63,"['both', 'frequency', 'time']",0.005161766428500414,None,['space'],283.0592519000638,283.0592519000638,0.20541046652942896,2.6641237367481305,283.26761079998687,283.0592519000638,[-1.9878671001642942],,,,,,,,,,rehvhf,001,fr,1,2022-05-11_11h58.18.262,Continuous,2022.1.1,35.5893417255325,
10,0,10,0,4,0,4,0,,,,,,,,1.1914596730285585,none,501.0,2.7568075413578823,9.791766698192109e-05,0,64,"['both', 'frequency', 'time']",0.0010058667976409197,None,None,285.73077680007555,285.73077680007555,0.19667966663837433,1.3881393396669328,285.94615219999105,285.73077680007555,,,,,,,,,,,rehvhf,001,fr,1,2022-05-11_11h58.18.262,Continuous,2022.1.1,35.5893417255325,
10,0,10,0,5,0,5,0,,,,,,,,2.8657927171269395,none,843.0,2.8141199608662437,5.4738620158954026e-05,0,65,"['both', 'frequency', 'time']",0.002987366635352373,None,None,287.14667980000377,287.14667980000377,0.2045382666401565,3.070330983767096,287.36307949991897,287.14667980000377,,,,,,,,,,,rehvhf,001,fr,1,2022-05-11_11h58.18.262,Continuous,2022.1.1,35.5893417255325,
10,0,10,0,6,0,6,0,,,,,,,,1.0152237777745754,none,751.0,4.417740182948483,6.751042786118624e-05,0,66,"['both', 'frequency', 'time']",0.005152166588231921,None,['space'],290.2279087000061,290.2279087000061,0.21096476656384766,1.226188544338423,290.4375539999455,290.2279087000061,[-2.613469900097698],,,,,,,,,,rehvhf,001,fr,1,2022-05-11_11h58.18.262,Continuous,2022.1.1,35.5893417255325,
10,0,10,0,7,0,7,0,,,,,,,,1.323962587530946,none,187.0,2.7366818486003117,0.00042863149516247863,0,67,"['both', 'frequency', 'time']",0.0011375662870705128,None,['space'],291.4589720000513,291.4589720000513,0.20111916633322835,1.5250817538641743,291.6841833998915,291.4589720000513,[-0.7407655999995768],,,,,,,,,,rehvhf,001,fr,1,2022-05-11_11h58.18.262,Continuous,2022.1.1,35.5893417255325,
10,0,10,0,8,0,8,0,,,,,,,,1.2901436574882916,none,,,,1,67,"['both', 'frequency', 'time']",0.0013688665349036455,None,None,293.00841489993036,293.00841489993036,0.20251386635936797,1.4926575238476596,293.22757810004987,293.00841489993036,,,,,,,,,,,rehvhf,001,fr,1,2022-05-11_11h58.18.262,Continuous,2022.1.1,35.5893417255325,
10,0,10,0,9,0,9,0,,,,,,,,1.2999365345282468,none,265.0,4.2413946668344975,0.00024702722939860274,0,68,"['both', 'frequency', 'time']",0.0033543664030730724,None,None,294.52145759994164,294.52145759994164,0.20088546629995108,1.5008220008281978,294.74078089999966,294.52145759994164,,,,,,,,,,,rehvhf,001,fr,1,2022-05-11_11h58.18.262,Continuous,2022.1.1,35.5893417255325,
11,0,11,0,0,0,0,0,,,,,,301.503799200058,None,1.4116088159840259,none,1588.0,5.634333463175468,0.00010662488050567598,0,69,"['both', 'frequency', 'time']",0.012614266481250525,None,None,302.54525090008974,None,0.20752276666462421,1.61913158264865,302.7535689000506,None,,296.0408773999661,None,,,"[0.3333333333333333, 0.5833333333333334, 0.16666666666666666, 0.5833333333333334, 0.16666666666666666, 0.3333333333333333, 0.16666666666666666, 0.5833333333333334, 0.3333333333333333, 0.5833333333333334, 0.16666666666666666, 0.16666666666666666, 0.16666666666666666, 0.5833333333333334, 0.3333333333333333]",,,,,rehvhf,001,fr,1,2022-05-11_11h58.18.262,Continuous,2022.1.1,35.5893417255325,
11,0,11,0,1,0,1,0,,,,,,,,2.067864628830793,none,2997.0,-7.975425487426766,2.1962058591690745e-05,0,70,"['both', 'frequency', 'time']",0.004657166777178645,0.1928240666165948,None,304.16464519989677,304.16464519989677,0.1928240666165948,2.2606886954473877,304.3676694999449,304.16464519989677,,,,,,,,,,,rehvhf,001,fr,1,2022-05-11_11h58.18.262,Continuous,2022.1.1,35.5893417255325,
11,0,11,0,2,0,2,0,,,,,,,,2.680012872008362,none,3776.0,-8.125069795456639,3.13964372328688e-05,0,71,"['both', 'frequency', 'time']",0.0014132668729871511,0.1961335667874664,None,306.438243099954,306.438243099954,0.1961335667874664,2.8761464387958284,306.6533711999655,306.438243099954,,,,,,,,,,,rehvhf,001,fr,1,2022-05-11_11h58.18.262,Continuous,2022.1.1,35.5893417255325,
11,0,11,0,3,0,3,0,,,,,,,,2.9367388330295885,none,4238.0,-7.503869999037053,4.228406018511297e-05,0,72,"['both', 'frequency', 'time']",0.014308833284303546,None,None,309.3312562000938,309.3312562000938,0.21011643344536424,3.1468552664749527,309.54258099989966,309.3312562000938,,,,,,,,,,,rehvhf,001,fr,1,2022-05-11_11h58.18.262,Continuous,2022.1.1,35.5893417255325,
11,0,11,0,4,0,4,0,,,,,,,,1.7646839437010458,none,,,,1,72,"['both', 'frequency', 'time']",0.004562466638162732,None,"['space', 'space']",312.48912880010903,312.48912880010903,0.20746876671910286,1.9721527104201486,312.6950576000381,312.48912880010903,"[-2.666133499937132, -0.6014646000694484]",,,,,,,,,,rehvhf,001,fr,1,2022-05-11_11h58.18.262,Continuous,2022.1.1,35.5893417255325,
11,0,11,0,5,0,5,0,,,,,,,,1.674164951284299,none,1060.0,0.463993723370387,4.911701615625863e-05,0,73,"['both', 'frequency', 'time']",0.0025224664714187384,0.19567666645161808,None,314.464400799945,314.464400799945,0.19567666645161808,1.8698416177359172,314.67915829992853,314.464400799945,,,,,,,,,,,rehvhf,001,fr,1,2022-05-11_11h58.18.262,Continuous,2022.1.1,35.5893417255325,
11,0,11,0,6,0,6,0,,,,,,,,2.6826611929803006,none,8000.0,-8.0,7.22719885372964e-05,0,74,"['both', 'frequency', 'time']",0.00412106653675437,None,None,316.3602146001067,316.3602146001067,0.20659086667001247,2.889252059650313,316.5652779000811,316.3602146001067,,,,,,,,,,,rehvhf,001,fr,1,2022-05-11_11h58.18.262,Continuous,2022.1.1,35.5893417255325,
11,0,11,0,7,0,7,0,,,,,,,,1.6265817215154421,none,2670.0,-3.4054443516585255,5.089816517715052e-05,0,75,"['both', 'frequency', 'time']",0.014835433568805456,None,['space'],319.25679969997145,319.25679969997145,0.24370403354987502,1.8702857550653171,319.49604470003396,319.25679969997145,[-2.5539394998922944],,,,,,,,,,rehvhf,001,fr,1,2022-05-11_11h58.18.262,Continuous,2022.1.1,35.5893417255325,
11,0,11,0,8,0,8,0,,,,,,,,2.9826217127590757,none,6350.0,-6.743807294211219,6.050807184286186e-05,0,76,"['both', 'frequency', 'time']",0.0006779665127396584,None,None,321.11876820004545,321.11876820004545,0.19627606635913253,3.1788977791182083,321.33719690004364,321.11876820004545,,,,,,,,,,,rehvhf,001,fr,1,2022-05-11_11h58.18.262,Continuous,2022.1.1,35.5893417255325,
12,0,12,0,0,0,0,0,,,,,,328.07714639999904,None,2.617704572062885,none,1083.0,16.270270053441106,0.00030933378627141263,0,77,"['both', 'frequency', 'time']",0.013084666570648551,None,None,329.11751509993337,None,0.222984766587615,2.8406893386505,329.3245769001078,None,,324.32565020001493,None,,,"[0.5833333333333334, 0.16666666666666666, 0.3333333333333333, 0.16666666666666666, 0.3333333333333333, 0.16666666666666666, 0.16666666666666666, 0.16666666666666666, 0.16666666666666666, 0.3333333333333333, 0.5833333333333334, 0.3333333333333333, 0.16666666666666666, 0.5833333333333334, 0.3333333333333333]",,,,,rehvhf,001,fr,1,2022-05-11_11h58.18.262,Continuous,2022.1.1,35.5893417255325,
12,0,12,0,1,0,1,0,,,,,,,,2.7489468709817024,none,511.0,10.893974710221856,0.00024440510082974034,0,78,"['both', 'frequency', 'time']",0.016669533448293805,None,['space'],331.94860049989074,331.94860049989074,0.21167993335984647,2.960626804341549,332.1661060999613,331.94860049989074,[-2.285625800024718],,,,,,,,,,rehvhf,001,fr,1,2022-05-11_11h58.18.262,Continuous,2022.1.1,35.5893417255325,
12,0,12,0,2,0,2,0,,,,,,,,2.6991782320715902,none,2294.0,16.082031536220313,0.0005180203266911625,0,79,"['both', 'frequency', 'time']",0.00031906645745038986,None,['space'],334.9206272000447,334.9206272000447,0.19574276660569012,2.8949209986772804,335.1307556000538,334.9206272000447,[-2.5377666000276804],,,,,,,,,,rehvhf,001,fr,1,2022-05-11_11h58.18.262,Continuous,2022.1.1,35.5893417255325,
12,0,12,0,3,0,3,0,,,,,,,,1.2688170618571584,none,455.0,12.092082138742011,0.0002967092613939619,0,80,"['both', 'frequency', 'time']",0.0005598666612058878,None,['space'],337.8375089999754,337.8375089999754,0.19444576650857925,1.4632628283657376,338.0510154000949,337.8375089999754,[-2.5583579998929054],,,,,,,,,,rehvhf,001,fr,1,2022-05-11_11h58.18.262,Continuous,2022.1.1,35.5893417255325,
12,0,12,0,4,0,4,0,,,,,,,,1.8463700676998793,none,287.0,10.211975853877302,0.0004156935404050698,0,81,"['both', 'frequency', 'time']",0.013816933380439878,None,['space'],339.33055759989657,339.33055759989657,0.23894213349558413,2.0853122011954635,339.561727500055,339.33055759989657,[-1.0759616999421269],,,,,,,,,,rehvhf,001,fr,1,2022-05-11_11h58.18.262,Continuous,2022.1.1,35.5893417255325,
12,0,12,0,5,0,5,0,,,,,,,,2.433889962255769,none,1531.0,10.935986444121902,0.00017934936916648786,0,82,"['both', 'frequency', 'time']",0.012236133450642228,None,['space'],341.4134098000359,341.4134098000359,0.21785093331709504,2.651740895572864,341.6424340000376,341.4134098000359,[-1.6069706999696791],,,,,,,,,,rehvhf,001,fr,1,2022-05-11_11h58.18.262,Continuous,2022.1.1,35.5893417255325,
12,0,12,0,6,0,6,0,,,,,,,,1.3718863291143015,none,181.0,13.638319502705691,0.0016087685289710655,0,83,"['both', 'frequency', 'time']",0.0023538668174296618,None,"['space', 'space']",344.07327020005323,344.07327020005323,0.20399836683645844,1.57588469595076,344.29178459988907,344.07327020005323,"[-2.186354200122878, -0.49093740014359355]",,,,,,,,,,rehvhf,001,fr,1,2022-05-11_11h58.18.262,Continuous,2022.1.1,35.5893417255325,
12,0,12,0,7,0,7,0,,,,,,,,1.5733200664819929,none,,,,1,83,"['both', 'frequency', 'time']",0.00373546639457345,None,['space'],345.6735121998936,345.6735121998936,0.20470536639913917,1.778025432881132,345.8831722999457,345.6735121998936,[-1.1309183000121266],,,,,,,,,,rehvhf,001,fr,1,2022-05-11_11h58.18.262,Continuous,2022.1.1,35.5893417255325,
12,0,12,0,8,0,8,0,,,,,,,,2.4788228112973325,none,203.0,11.847481061023664,0.0010153589518713858,0,84,"['both', 'frequency', 'time']",0.0013592666946351528,0.1954593665432185,None,347.46204090001993,347.46204090001993,0.1954593665432185,2.674282177840551,347.67566079995595,347.46204090001993,,,,,,,,,,,rehvhf,001,fr,1,2022-05-11_11h58.18.262,Continuous,2022.1.1,35.5893417255325,
12,0,12,0,9,0,9,0,,,,,,,,1.9161418647529738,none,256.0,7.633396280018777,0.00038800395827420477,0,85,"['both', 'frequency', 'time']",0.013210433535277843,None,['space'],350.15842629992403,350.15842629992403,0.23895343346521258,2.1550952982181864,350.3956957999617,350.15842629992403,[-2.287601000163704],,,,,,,,,,rehvhf,001,fr,1,2022-05-11_11h58.18.262,Continuous,2022.1.1,35.5893417255325,
12,0,12,0,10,0,10,0,,,,,,,,2.6101093281940972,none,361.0,14.570566328322101,0.00046391971344534016,0,86,"['both', 'frequency', 'time']",0.012961633503437042,None,None,352.3117521998938,352.3117521998938,0.2366041336208582,2.8467134618149554,352.54321680008434,352.3117521998938,,,,,,,,,,,rehvhf,001,fr,1,2022-05-11_11h58.18.262,Continuous,2022.1.1,35.5893417255325,
12,0,12,0,11,0,11,0,,,,,,,,2.5038080965024525,none,723.0,16.282019654747273,0.00028032552013424947,0,87,"['both', 'frequency', 'time']",0.0005719666369259357,None,['space'],355.15257799997926,355.15257799997926,0.20159366657026112,2.7054017630727136,355.3735875999555,355.15257799997926,[-2.4182877000421286],,,,,,,,,,rehvhf,001,fr,1,2022-05-11_11h58.18.262,Continuous,2022.1.1,35.5893417255325,
12,0,12,0,12,0,12,0,,,,,,,,2.293964240285531,none,2890.0,8.78160715886294,0.00016946552295699796,0,88,"['both', 'frequency', 'time']",0.003245566738769412,None,['space'],357.8873066001106,357.8873066001106,0.2089682666119188,2.5029325068974497,358.109024599893,357.8873066001106,[-2.3686340001877397],,,,,,,,,,rehvhf,001,fr,1,2022-05-11_11h58.18.262,Continuous,2022.1.1,35.5893417255325,
12,0,12,0,13,0,13,0,,,,,,,,2.5827044388172578,none,1364.0,9.260290250368318,0.00015008193865123464,0,89,"['both', 'frequency', 'time']",0.01448803348466754,None,['space'],360.4007129999809,360.4007129999809,0.2384025335777551,2.821106972395013,360.63466199999675,360.4007129999809,[-2.162167300004512],,,,,,,,,,rehvhf,001,fr,1,2022-05-11_11h58.18.262,Continuous,2022.1.1,35.5893417255325,
12,0,12,0,14,0,14,0,,,,,,,,2.673964624260622,none,574.0,17.0,0.00042406427109270616,0,90,"['both', 'frequency', 'time']",0.0001712667290121317,None,['space'],363.21662539988756,363.21662539988756,0.19467626651749015,2.8686408907781122,363.4334485998843,363.21662539988756,[-2.4497561000753194],,,,,,,,,,rehvhf,001,fr,1,2022-05-11_11h58.18.262,Continuous,2022.1.1,35.5893417255325,
13,0,13,0,0,0,0,0,,,,,,371.05936520011164,None,2.7044812255543276,none,840.0,6.738501636162934,8.581764245896276e-05,0,91,"['both', 'frequency', 'time']",0.012762066442519426,None,None,372.0812446998898,None,0.2405636664479971,2.9450448920023247,372.31222540000454,None,,366.11536259995773,None,,,"[0.16666666666666666, 0.5833333333333334, 0.16666666666666666, 0.16666666666666666, 0.3333333333333333, 0.5833333333333334, 0.3333333333333333, 0.16666666666666666, 0.5833333333333334, 0.16666666666666666, 0.3333333333333333, 0.5833333333333334, 0.5833333333333334, 0.3333333333333333, 0.3333333333333333]",,,,,rehvhf,001,fr,1,2022-05-11_11h58.18.262,Continuous,2022.1.1,35.5893417255325,
13,0,13,0,1,0,1,0,,,,,,,,1.1131382301297477,none,667.0,6.6516258207468795,0.00010306193203265159,0,92,"['both', 'frequency', 'time']",0.016188933281227946,None,['space'],375.01147829997353,375.01147829997353,0.23841553344391286,1.3515537635736605,375.24248000001535,375.01147829997353,[-2.3245884999632835],,,,,,,,,,rehvhf,001,fr,1,2022-05-11_11h58.18.262,Continuous,2022.1.1,35.5893417255325,
13,0,13,0,2,0,2,0,,,,,,,,2.4233725935225348,none,445.0,6.5694813950146616,0.00015819759791039055,0,93,"['both', 'frequency', 'time']",0.0031907663214951754,None,['space'],376.356458599912,376.356458599912,0.20773976645432413,2.631112359976859,376.5773817000445,376.356458599912,[-0.9011065999511629],,,,,,,,,,rehvhf,001,fr,1,2022-05-11_11h58.18.262,Continuous,2022.1.1,35.5893417255325,
13,0,13,0,3,0,3,0,,,,,,,,1.02733673613472,none,297.0,6.0,0.00023482341586658926,0,94,"['both', 'frequency', 'time']",6.416672840714455e-05,None,['space'],378.99674100009724,378.99674100009724,0.19430546672083437,1.2216422028555545,379.21372119989246,378.99674100009724,[-2.1339968000538647],,,,,,,,,,rehvhf,001,fr,1,2022-05-11_11h58.18.262,Continuous,2022.1.1,35.5893417255325,
13,0,13,0,4,0,4,0,,,,,,,,2.273897099973813,none,140.0,8.42451716451289,0.0015540755168195293,0,95,"['both', 'frequency', 'time']",0.0015014666132628918,None,['space'],380.2450351000298,380.2450351000298,0.19834666652604938,2.4722437664998624,380.4633106000256,380.2450351000298,[-0.8376955001149327],,,,,,,,,,rehvhf,001,fr,1,2022-05-11_11h58.18.262,Continuous,2022.1.1,35.5893417255325,
13,0,13,0,5,0,5,0,,,,,,,,1.7700724800146523,none,125.0,6.0,0.0014420157515633036,0,96,"['both', 'frequency', 'time']",0.009094733512029052,0.2014868336264044,['space'],382.7459642998874,382.7459642998874,0.2014868336264044,1.9715593136410567,382.95836489996873,382.7459642998874,[-2.0116110001690686],,,,,,,,,,rehvhf,001,fr,1,2022-05-11_11h58.18.262,Continuous,2022.1.1,35.5893417255325,
13,0,13,0,6,0,6,0,,,,,,,,1.0827323180799662,none,1058.0,5.280933236521763,8.536856640315296e-05,0,97,"['both', 'frequency', 'time']",0.015744833275675774,None,['space'],384.73675639997236,384.73675639997236,0.2141225333325565,1.2968548514125227,384.9498606999405,384.73675639997236,[-1.5855536998715252],,,,,,,,,,rehvhf,001,fr,1,2022-05-11_11h58.18.262,Continuous,2022.1.1,35.5893417255325,
13,0,13,0,7,0,7,0,,,,,,,,2.8750616357845553,none,236.0,5.4606988949596875,0.000365487174706922,0,98,"['both', 'frequency', 'time']",0.016371333273127675,None,None,386.03865149989724,386.03865149989724,0.24077973328530788,3.115841369069863,386.2723125999328,386.03865149989724,,,,,,,,,,,rehvhf,001,fr,1,2022-05-11_11h58.18.262,Continuous,2022.1.1,35.5893417255325,
13,0,13,0,8,0,8,0,,,,,,,,1.4733606604039686,none,210.0,5.997930206356749,0.000490419004094914,0,99,"['both', 'frequency', 'time']",0.0030186667572706938,None,['space'],389.15356609993614,389.15356609993614,0.21426386665552855,1.6876245270594972,389.3745643000584,389.15356609993614,[-2.7073877998627722],,,,,,,,,,rehvhf,001,fr,1,2022-05-11_11h58.18.262,Continuous,2022.1.1,35.5893417255325,
13,0,13,0,9,0,9,0,,,,,,,,2.2852875942330333,none,,,,1,99,"['both', 'frequency', 'time']",0.012484833365306258,None,['space'],390.85229200008325,390.85229200008325,0.20616913330741227,2.4914567275404456,391.0658293000888,390.85229200008325,[-1.3650380000472069],,,,,,,,,,rehvhf,001,fr,1,2022-05-11_11h58.18.262,Continuous,2022.1.1,35.5893417255325,
14,0,14,0,0,0,0,0,,,,,,403.7918638999108,None,2.8667718958847273,none,300.0,9.119196155139875,0.0003271989011737584,0,100,"['both', 'frequency', 'time']",0.012841466348618269,None,None,404.8121229999233,None,0.21958266641013324,3.0863545622948605,405.02106150006875,None,,393.35884779994376,None,,,"[0.5833333333333334, 0.3333333333333333, 0.5833333333333334, 0.3333333333333333, 0.5833333333333334, 0.5833333333333334, 0.5833333333333334, 0.5833333333333334, 0.5833333333333334, 0.3333333333333333, 0.16666666666666666, 0.5833333333333334, 0.3333333333333333, 0.16666666666666666, 0.3333333333333333]",,,,,rehvhf,001,fr,1,2022-05-11_11h58.18.262,Continuous,2022.1.1,35.5893417255325,
14,0,14,0,1,0,1,0,,,,,,,,1.0013613734260642,none,4287.0,14.0,0.0005196684187478835,0,101,"['both', 'frequency', 'time']",0.015161433722823858,None,None,407.8926333999261,407.8926333999261,0.21119203371927142,1.2125534071453357,408.10749890003353,407.8926333999261,,,,,,,,,,,rehvhf,001,fr,1,2022-05-11_11h58.18.262,Continuous,2022.1.1,35.5893417255325,
14,0,14,0,2,0,2,0,,,,,,,,2.2354694357208276,none,,,,1,101,"['both', 'frequency', 'time']",0.015860933577641845,None,['space'],409.1165304998867,409.1165304998867,0.23957123351283371,2.4750406692336613,409.34749730001204,409.1165304998867,[-0.8945314001757652],,,,,,,,,,rehvhf,001,fr,1,2022-05-11_11h58.18.262,Continuous,2022.1.1,35.5893417255325,
14,0,14,0,3,0,3,0,,,,,,,,1.0060430571334391,none,2861.0,4.259991691500234,0.0001036362997647094,0,102,"['both', 'frequency', 'time']",0.0005500665865838528,None,None,411.5830131000839,411.5830131000839,0.20420056651346385,1.210243623646903,411.7989852000028,411.5830131000839,,,,,,,,,,,rehvhf,001,fr,1,2022-05-11_11h58.18.262,Continuous,2022.1.1,35.5893417255325,
14,0,14,0,4,0,4,0,,,,,,,,1.312831357572787,none,238.0,10.086518054975135,0.0006100189881655584,0,103,"['both', 'frequency', 'time']",0.002521866699680686,None,['space'],412.81238580006175,412.81238580006175,0.20502656674943864,1.5178579243222257,413.02874929993413,412.81238580006175,[-0.8463701999280602],,,,,,,,,,rehvhf,001,fr,1,2022-05-11_11h58.18.262,Continuous,2022.1.1,35.5893417255325,
14,0,14,0,5,0,5,0,,,,,,,,2.068309671477248,none,5401.0,2.153609371072729,0.00017677848379412216,0,104,"['both', 'frequency', 'time']",0.015791233396157622,None,['space'],414.3489230000414,414.3489230000414,0.23972063325345516,2.3080303047307034,414.58100840006955,414.3489230000414,[-1.022592999972403],,,,,,,,,,rehvhf,001,fr,1,2022-05-11_11h58.18.262,Continuous,2022.1.1,35.5893417255325,
14,0,14,0,6,0,6,0,,,,,,,,1.0885879434032655,none,567.0,6.703980720084082,0.00013197045161538194,0,105,"['both', 'frequency', 'time']",0.016152433585375547,None,['space'],416.65066220005974,416.65066220005974,0.21366793336346745,1.302255876766733,416.8704421001021,416.65066220005974,[-1.963915599975735],,,,,,,,,,rehvhf,001,fr,1,2022-05-11_11h58.18.262,Continuous,2022.1.1,35.5893417255325,
14,0,14,0,7,0,7,0,,,,,,,,2.0911385926207915,none,850.0,8.0194386772385,0.00010016979348649775,0,106,"['both', 'frequency', 'time']",0.002077766926959157,None,None,417.96768409991637,417.96768409991637,0.20199546683579683,2.2931340594565883,418.1755234999582,417.96768409991637,,,,,,,,,,,rehvhf,001,fr,1,2022-05-11_11h58.18.262,Continuous,2022.1.1,35.5893417255325,
14,0,14,0,8,0,8,0,,,,,,,,1.5320740530806376,none,6062.0,11.375888113319924,0.0004401292901228432,0,107,"['both', 'frequency', 'time']",0.015514733269810677,None,['space'],420.27296010009013,420.27296010009013,0.21045793336816132,1.742531986448799,420.4873339999467,420.27296010009013,[-1.9541299000848085],,,,,,,,,,rehvhf,001,fr,1,2022-05-11_11h58.18.262,Continuous,2022.1.1,35.5893417255325,
14,0,14,0,9,0,9,0,,,,,,,,2.590138249764148,none,1909.0,10.538815890729282,0.00023789083812625388,0,108,"['both', 'frequency', 'time']",0.01587443333119154,None,['space'],422.0273281999398,422.0273281999398,0.2380572333931923,2.8281954831573404,422.2576331999153,422.0273281999398,[-1.4533239000011235],,,,,,,,,,rehvhf,001,fr,1,2022-05-11_11h58.18.262,Continuous,2022.1.1,35.5893417255325,
14,0,14,0,10,0,10,0,,,,,,,,1.0092244863211857,none,450.0,9.324544702667984,0.00021649916655154373,0,109,"['both', 'frequency', 'time']",0.015918633434921503,None,['space'],424.8478373999242,424.8478373999242,0.21089663356542587,1.2201211198866115,425.0631132000126,424.8478373999242,[-2.4010752998292446],,,,,,,,,,rehvhf,001,fr,1,2022-05-11_11h58.18.262,Continuous,2022.1.1,35.5893417255325,
