frequencies,training_trials.thisRepN,training_trials.thisTrialN,training_trials.thisN,training_trials.thisIndex,frequencies.thisRepN,frequencies.thisTrialN,frequencies.thisN,frequencies.thisIndex,trials.thisRepN,trials.thisTrialN,trials.thisN,trials.thisIndex,tFrequency,tLevel,tCorrect,Tprobe.started,Tprobe.stopped,tTriangle_cue.started,tTriangle_cue.stopped,Tfeedback.keys,Tfeedback.corr,Tfeedback.rt,Tfeedback.started,Tfeedback.stopped,reversals_nTrials.routineEndVal,track_dir.routineEndVal,step_up.routineEndVal,Correct,Frequency,Level,Psychopy_Level,Direction,Reversals,Track_dir,Step,probe.started,probe.stopped,cross_cue.started,cross_cue.stopped,circle_cue.started,circle_cue.stopped,triangle_cue.started,triangle_cue.stopped,feedback.keys,feedback.corr,feedback.rt,feedback.started,feedback.stopped,memo.started,memo.stopped,key_resp.keys,key_resp.rt,key_resp.started,key_resp.stopped,text.started,text.stopped,participant,session,skip_training,language (english or french),date,expName,psychopyVersion,frameRate,
450,0,0,0,1,,,,,,,,,450,30,right,56.92263785006944,None,56.89318760007154,57.21787020005286,right,1,2.936377300065942,54.462138100061566,None,,,,,,,,,,,,,,,,,,,,,,,,,,,,,,,,,nfsmrp,001,0,fr,2022-06-21_17h04.01.963,3-AFC_adaptive_staircase_mess,2022.1.1,34.127607907684414,
1300,0,1,1,3,,,,,,,,,1300,30,right,65.4775114499731,65.70100030000322,65.4480611999752,65.76349140005186,right,1,2.913182600052096,63.03041620005388,None,,,,,,,,,,,,,,,,,,,,,,,,,,,,,,,,,nfsmrp,001,0,fr,2022-06-21_17h04.01.963,3-AFC_adaptive_staircase_mess,2022.1.1,34.127607907684414,
200,0,2,2,0,,,,,,,,,200,30,right,70.75429724997375,70.97975659999065,70.72484699997585,71.03956559998915,right,1,3.007609299966134,68.31254720001016,None,,,,,,,,,,,,,,,,,,,,,,,,,,,,,,,,,nfsmrp,001,0,fr,2022-06-21_17h04.01.963,3-AFC_adaptive_staircase_mess,2022.1.1,34.127607907684414,
5000,0,3,3,4,,,,,,,,,5000,30,left,73.95711834998801,74.17864739999641,None,None,left,1,0.9321023999946192,73.48245040001348,None,,,,,,,,,,,,,,,,,,,,,,,,,,,,,,,,,nfsmrp,001,0,fr,2022-06-21_17h04.01.963,3-AFC_adaptive_staircase_mess,2022.1.1,34.127607907684414,
850,0,4,4,2,,,,,,,,,850,30,right,79.58360435001086,None,79.55415410001297,79.87751170003321,right,1,2.897144200047478,77.13435619999655,None,,,,,,,,,,,,,,,,,,,,,,,,,,,,,,,,,nfsmrp,001,0,fr,2022-06-21_17h04.01.963,3-AFC_adaptive_staircase_mess,2022.1.1,34.127607907684414,
,,,,,0,0,0,0,0,0,0,0,,,,,,,,,,,,,[],[],10,up,1000,30,0.0013930605843148849,0,0,-1,10,94.45461735003627,94.6709396999795,93.39033910003491,93.72412869997788,94.3967744000256,94.69709330005571,None,None,up,1,1.6115016000112519,93.45123660005629,None,None,None,,,,,,,nfsmrp,001,0,fr,2022-06-21_17h04.01.963,3-AFC_adaptive_staircase_mess,2022.1.1,34.127607907684414,
,,,,,0,0,0,0,1,0,1,0,,,,,,,,,,,,,,,,right,1000,30,0.0013930605843148849,0,0,-1,10,98.61553235005121,98.8368723000167,96.56312810000964,96.8627294000471,97.57920440007001,97.8918021999998,98.55549090006389,98.86830750002991,right,1,2.32961990009062,96.62192389997654,None,None,None,,,,,,,nfsmrp,001,0,fr,2022-06-21_17h04.01.963,3-AFC_adaptive_staircase_mess,2022.1.1,34.127607907684414,
,,,,,0,0,0,0,2,0,2,0,,,,,,,,,,,,,,,,left,1000,10,0.00013930605843148847,-1,0,-1,-10,100.47790275004226,None,100.41993019997608,100.73958300007507,None,None,None,None,left,1,0.6223841999890283,100.48092700005509,None,None,None,,,,,,,nfsmrp,001,0,fr,2022-06-21_17h04.01.963,3-AFC_adaptive_staircase_mess,2022.1.1,34.127607907684414,
,,,,,0,0,0,0,3,0,3,0,,,,,,,,,,,,,,,,up,1000,10,0.00013930605843148847,-1,0,-1,-10,103.64240945004858,None,102.59406700008549,102.89595000003465,103.58324010006618,103.88970529998187,None,None,up,1,1.4530496000079438,102.65051619999576,None,None,None,,,,,,,nfsmrp,001,0,fr,2022-06-21_17h04.01.963,3-AFC_adaptive_staircase_mess,2022.1.1,34.127607907684414,
,,,,,0,0,0,0,4,0,4,0,,,,,,,,,,,,,,,,right,1000,0,4.405244365040069e-05,-1,0,-1,-10,107.63066044999286,107.85015110007953,105.58216440002434,105.88024960004259,106.58642339997459,106.90148800006136,107.60121019999497,107.91052120004315,left,0,4.5803595000179484,105.64189329999499,None,108.14680670003872,None,,,,,,,nfsmrp,001,0,fr,2022-06-21_17h04.01.963,3-AFC_adaptive_staircase_mess,2022.1.1,34.127607907684414,
,,,,,0,0,0,0,5,0,5,0,,,,,,,,,,,,,,,,right,1000,5,7.833755350540742e-05,1,1,1,5,113.76345305007416,113.99005969997961,111.70480860001408,112.0056312000379,112.71586790005676,113.0412458999781,113.70588909997605,114.0201742000645,right,1,2.4709103999193758,111.76791749999393,None,114.26147500006482,None,,,,,,,nfsmrp,001,0,fr,2022-06-21_17h04.01.963,3-AFC_adaptive_staircase_mess,2022.1.1,34.127607907684414,
,,,,,0,0,0,0,6,0,6,0,,,,,,,,,,,,,,,,left,1000,5,7.833755350540742e-05,1,1,1,5,115.76515105008147,115.9912142000394,115.7079319000477,116.0214981000172,None,None,None,None,left,1,0.8755169999785721,115.76388500002213,None,None,None,,,,,,,nfsmrp,001,0,fr,2022-06-21_17h04.01.963,3-AFC_adaptive_staircase_mess,2022.1.1,34.127607907684414,
,,,,,0,0,0,0,7,0,7,0,,,,,,,,,,,,,,,,right,1000,-5,2.4772509540239506e-05,-1,2,-1,-5.0,120.17857165008317,120.39645600004587,118.11023520003073,118.41356930008624,119.12650670006406,119.44923540006857,120.11628439999186,120.42703250003979,up,0,3.3097603999776766,118.16969340003561,None,120.66544910008088,None,,,,,,,nfsmrp,001,0,fr,2022-06-21_17h04.01.963,3-AFC_adaptive_staircase_mess,2022.1.1,34.127607907684414,
,,,,,0,0,0,0,8,0,8,0,,,,,,,,,,,,,,,,left,1000,-2.5,3.303467240037979e-05,1,3,1,2.5,123.01453135001938,123.2329021000769,122.98508110002149,123.29392000008374,123.97127400001045,124.28539149998687,124.96863979997579,125.28739190008491,left,1,2.8915212999563664,123.01906860002782,None,125.52950150007382,None,,,,,,,nfsmrp,001,0,fr,2022-06-21_17h04.01.963,3-AFC_adaptive_staircase_mess,2022.1.1,34.127607907684414,
,,,,,0,0,0,0,9,0,9,0,,,,,,,,,,,,,,,,up,1000,-2.5,3.303467240037979e-05,1,3,1,2.5,128.43915304997935,None,127.37973100005183,127.69034750002902,128.38151970005129,128.69928609998897,129.38114830001723,129.69086079997942,right,0,2.5528284000465646,127.43843249999918,None,129.95834270003252,None,,,,,,,nfsmrp,001,0,fr,2022-06-21_17h04.01.963,3-AFC_adaptive_staircase_mess,2022.1.1,34.127607907684414,
,,,,,0,0,0,0,10,0,10,0,,,,,,,,,,,,,,,,left,1000,0.0,4.405244365040069e-05,1,3,1,2.5,131.52580655007623,None,131.4640671000816,131.794667600072,132.45722910005134,132.78091660002246,133.47090940002818,133.79446930007543,up,0,4.261755299987271,131.52924290008377,None,133.99928940006066,None,,,,,,,nfsmrp,001,0,fr,2022-06-21_17h04.01.963,3-AFC_adaptive_staircase_mess,2022.1.1,34.127607907684414,
,,,,,0,0,0,0,11,0,11,0,,,,,,,,,,,,,,,,right,1000,2.5,5.874487774697646e-05,1,3,1,2.5,139.32955014999024,139.55470390000846,137.26242030004505,137.56568090000656,138.28201189998072,138.58136439998634,139.27110400004312,139.58302919997368,right,1,3.0721964999102056,137.31856360007077,None,139.81870130007155,None,,,,,,,nfsmrp,001,0,fr,2022-06-21_17h04.01.963,3-AFC_adaptive_staircase_mess,2022.1.1,34.127607907684414,
,,,,,0,0,0,0,12,0,12,0,,,,,,,,,,,,,,,,up,1000,2.5,5.874487774697646e-05,1,3,1,2.5,142.96691125005017,143.1835772000486,141.9116724000778,142.23825469997246,142.90431090001948,143.2149744000053,143.90296510001644,144.23096930002794,left,0,3.7337109999498352,141.96997990005184,None,144.4697847000789,None,,,,,,,nfsmrp,001,0,fr,2022-06-21_17h04.01.963,3-AFC_adaptive_staircase_mess,2022.1.1,34.127607907684414,
,,,,,0,0,0,0,13,0,13,0,,,,,,,,,,,,,,,,up,1000,5.0,7.833755350540742e-05,1,3,1,2.5,148.23919905002694,148.4565068000229,147.19868849997874,147.5063401000807,148.17616320005618,148.4878231000621,149.17845710006077,149.51129509997554,up,1,2.84349919995293,147.22803250001743,None,149.7463601999916,None,,,,,,,nfsmrp,001,0,fr,2022-06-21_17h04.01.963,3-AFC_adaptive_staircase_mess,2022.1.1,34.127607907684414,
,,,,,0,0,0,0,14,0,14,0,,,,,,,,,,,,,,,,left,1000,5.0,7.833755350540742e-05,1,3,1,2.5,151.6106054500211,151.8271778000053,151.5479239000706,151.8580679000588,152.5485358000733,152.86880940000992,153.56252959999256,153.88221890002023,left,1,2.888088300009258,151.6142582000466,None,154.09380660008173,None,,,,,,,nfsmrp,001,0,fr,2022-06-21_17h04.01.963,3-AFC_adaptive_staircase_mess,2022.1.1,34.127607907684414,
,,,,,0,0,0,0,15,0,15,0,,,,,,,,,,,,,,,,left,1000,0.0,4.405244365040069e-05,-1,4,-1,-5.0,156.04791055005043,156.26576199999545,155.98559110006317,156.29657680005766,156.98570319998544,157.30270660005044,157.98736220004503,158.32079700008035,right,0,3.9871734000043944,156.05192360002548,None,158.53577389998827,None,,,,,,,nfsmrp,001,0,fr,2022-06-21_17h04.01.963,3-AFC_adaptive_staircase_mess,2022.1.1,34.127607907684414,
,,,,,0,0,0,0,16,0,16,0,,,,,,,,,,,,,,,,up,1000,2.5,5.874487774697646e-05,1,5,1,2.5,162.57893205005675,162.80576450005174,161.5239096999867,161.8562354000751,162.54948180005886,162.86681510007475,163.52693260007072,163.85875190002844,right,0,3.3852545999689028,161.59031460003462,None,164.09615390002728,None,,,,,,,nfsmrp,001,0,fr,2022-06-21_17h04.01.963,3-AFC_adaptive_staircase_mess,2022.1.1,34.127607907684414,
,,,,,0,0,0,0,17,0,17,0,,,,,,,,,,,,,,,,up,1000,5.0,7.833755350540742e-05,1,5,1,2.5,167.49790345006622,None,166.46113150008023,166.76448410004377,167.46845320006832,167.79804610006977,168.4595546000637,168.76420370000415,up,1,3.786244500079192,166.52534729999024,None,169.00251450005453,None,,,,,,,nfsmrp,001,0,fr,2022-06-21_17h04.01.963,3-AFC_adaptive_staircase_mess,2022.1.1,34.127607907684414,
,,,,,0,0,0,0,18,0,18,0,,,,,,,,,,,,,,,,left,1000,5.0,7.833755350540742e-05,1,5,1,2.5,171.86313794997986,None,171.83368769998197,172.14543829998001,172.81579200003762,173.13617740001064,173.83716320001986,174.16899290005676,left,1,2.7722069000592455,171.86726890003774,None,174.38110900006723,None,,,,,,,nfsmrp,001,0,fr,2022-06-21_17h04.01.963,3-AFC_adaptive_staircase_mess,2022.1.1,34.127607907684414,
,,,,,0,0,0,0,19,0,19,0,,,,,,,,,,,,,,,,right,1000,0.0,4.405244365040069e-05,-1,6,-1,-5.0,178.17050074997823,178.3836812999798,176.1278983000666,176.44117150001694,177.1143912000116,177.44312880001962,178.10928750003222,178.41672940005083,up,0,4.195874600089155,176.15528720000293,None,178.68166530004237,None,,,,,,,nfsmrp,001,0,fr,2022-06-21_17h04.01.963,3-AFC_adaptive_staircase_mess,2022.1.1,34.127607907684414,
,,,,,1,0,1,0,0,0,0,0,,,,,,,,,,,,,[],[],10,right,1500,30,0.001527460556607757,0,0,-1,10,187.24565445005427,187.46318860002793,185.19413289998192,185.5172188000288,186.1928846000228,186.5172721000854,187.21620420005638,187.5244864000706,right,1,2.7719846999971196,185.25869490008336,None,187.75084920006339,None,left,3.2886840000282973,181.44655820005573,None,181.44655820005573,None,nfsmrp,001,0,fr,2022-06-21_17h04.01.963,3-AFC_adaptive_staircase_mess,2022.1.1,34.127607907684414,
,,,,,1,0,1,0,1,0,1,0,,,,,,,,,,,,,,,,right,1500,30,0.001527460556607757,0,0,-1,10,191.56478124998975,None,189.51748819998465,189.82103320001625,190.54047240002546,190.8536155000329,191.53533099999186,191.85989409999456,right,1,2.8892531000310555,189.5813842000207,None,192.07287200004794,None,,,,,,,nfsmrp,001,0,fr,2022-06-21_17h04.01.963,3-AFC_adaptive_staircase_mess,2022.1.1,34.127607907684414,
,,,,,1,0,1,0,2,0,2,0,,,,,,,,,,,,,,,,left,1500,10,0.0001527460556607757,-1,0,-1,-10,193.98770715007558,None,193.92904519999865,194.25833340000827,194.92915930005256,None,None,None,left,1,1.001742699998431,193.98978230007924,None,None,None,,,,,,,nfsmrp,001,0,fr,2022-06-21_17h04.01.963,3-AFC_adaptive_staircase_mess,2022.1.1,34.127607907684414,
,,,,,1,0,1,0,3,0,3,0,,,,,,,,,,,,,,,,left,1500,10,0.0001527460556607757,-1,0,-1,-10,196.51308045003097,196.7396507000085,196.45464180002455,196.77175160008483,None,None,None,None,left,1,0.5744471000507474,196.5130044000689,None,None,None,,,,,,,nfsmrp,001,0,fr,2022-06-21_17h04.01.963,3-AFC_adaptive_staircase_mess,2022.1.1,34.127607907684414,
,,,,,1,0,1,0,4,0,4,0,,,,,,,,,,,,,,,,left,1500,0,4.830254394949071e-05,-1,0,-1,-10,198.62612275001592,None,198.5673606999917,198.8944273000816,None,None,None,None,left,1,0.5231513999169692,198.6284210999729,None,None,None,,,,,,,nfsmrp,001,0,fr,2022-06-21_17h04.01.963,3-AFC_adaptive_staircase_mess,2022.1.1,34.127607907684414,
,,,,,1,0,1,0,5,0,5,0,,,,,,,,,,,,,,,,right,1500,0,4.830254394949071e-05,-1,0,-1,-10,202.69577705000992,None,200.6586430000607,200.9650893000653,201.66412349999882,201.99732000008225,202.66632680001203,202.99918719998095,right,1,2.519099900033325,200.6877060000552,None,203.2152483999962,None,,,,,,,nfsmrp,001,0,fr,2022-06-21_17h04.01.963,3-AFC_adaptive_staircase_mess,2022.1.1,34.127607907684414,
,,,,,1,0,1,0,6,0,6,0,,,,,,,,,,,,,,,,right,1500,-10,1.527460556607758e-05,-1,0,-1,-10,206.73611765007954,206.94984640006442,204.6641875000205,204.96893460000865,205.68079050001688,206.00453490007203,206.6774651000742,206.98232140007894,right,1,4.196628600009717,204.7224850000348,None,207.23276719998103,None,,,,,,,nfsmrp,001,0,fr,2022-06-21_17h04.01.963,3-AFC_adaptive_staircase_mess,2022.1.1,34.127607907684414,
,,,,,1,0,1,0,7,0,7,0,,,,,,,,,,,,,,,,up,1500,-10,1.527460556607758e-05,-1,0,-1,-10,211.47387564999516,211.6874860000098,210.40533910004888,210.70849630003795,211.41500550007913,211.7194100000197,212.4251223000465,212.74661380006,up,1,2.8399562999838963,210.47049840004183,None,212.9784217000706,None,,,,,,,nfsmrp,001,0,fr,2022-06-21_17h04.01.963,3-AFC_adaptive_staircase_mess,2022.1.1,34.127607907684414,
,,,,,1,0,1,0,8,0,8,0,,,,,,,,,,,,,,,,right,1500,-20,4.8302543949490704e-06,-1,0,-1,-10,216.8457475500414,217.0596499000676,214.77622620004695,215.0799759000074,215.79085180000402,216.11467380006798,216.7872439000057,217.09298349998426,up,0,3.446083700051531,214.8406994000543,None,217.3466299000429,None,,,,,,,nfsmrp,001,0,fr,2022-06-21_17h04.01.963,3-AFC_adaptive_staircase_mess,2022.1.1,34.127607907684414,
,,,,,1,0,1,0,9,0,9,0,,,,,,,,,,,,,,,,left,1500,-15,8.589541935787946e-06,1,1,1,5,219.81271405008155,220.02921040006913,219.74983220000286,220.0611942000687,220.75268110004254,221.08240519999526,221.753572500078,222.08766000007745,right,0,3.095193399931304,219.81665779999457,None,222.31490830006078,None,,,,,,,nfsmrp,001,0,fr,2022-06-21_17h04.01.963,3-AFC_adaptive_staircase_mess,2022.1.1,34.127607907684414,
,,,,,1,0,1,0,10,0,10,0,,,,,,,,,,,,,,,,left,1500,-10,1.527460556607758e-05,1,1,1,5,224.45112374997697,224.6673512000125,224.38796680001542,224.70004680007696,225.38697950006463,225.69219169998541,226.379838700057,226.69374870008323,up,0,2.761359900003299,224.45466010004748,None,226.95222970005125,None,,,,,,,nfsmrp,001,0,fr,2022-06-21_17h04.01.963,3-AFC_adaptive_staircase_mess,2022.1.1,34.127607907684414,
,,,,,1,0,1,0,11,0,11,0,,,,,,,,,,,,,,,,left,1500,-5,2.716251657462168e-05,1,1,1,5,228.73751915004104,None,228.6786355000222,229.00327930005733,229.67491679999512,229.99834759999067,230.684099300066,230.9991183000384,left,1,3.644901000079699,228.73882810003124,None,231.22960810002405,None,,,,,,,nfsmrp,001,0,fr,2022-06-21_17h04.01.963,3-AFC_adaptive_staircase_mess,2022.1.1,34.127607907684414,
,,,,,1,0,1,0,12,0,12,0,,,,,,,,,,,,,,,,up,1500,-5,2.716251657462168e-05,1,1,1,5,234.92610595005098,None,233.89550220000092,234.20174549997319,234.8966557000531,235.20699850004166,None,None,left,0,1.320949999964796,233.9263813000871,None,None,None,,,,,,,nfsmrp,001,0,fr,2022-06-21_17h04.01.963,3-AFC_adaptive_staircase_mess,2022.1.1,34.127607907684414,
,,,,,1,0,1,0,13,0,13,0,,,,,,,,,,,,,,,,up,1500,0,4.830254394949071e-05,1,1,1,5,237.79536845001857,238.01607970008627,236.74107390001882,237.06841349997558,237.7330620000139,238.04872710001655,238.75246470002457,239.07668380008545,up,1,2.4364993000635877,236.80199499998707,None,239.30086664997506,None,,,,,,,nfsmrp,001,0,fr,2022-06-21_17h04.01.963,3-AFC_adaptive_staircase_mess,2022.1.1,34.127607907684414,
,,,,,1,0,1,0,14,0,14,0,,,,,,,,,,,,,,,,left,1500,0,4.830254394949071e-05,1,1,1,5,240.80155345008242,241.0169850999955,240.73883220006246,241.05047270003706,None,None,None,None,left,1,0.784394699963741,240.80660330003593,None,None,None,,,,,,,nfsmrp,001,0,fr,2022-06-21_17h04.01.963,3-AFC_adaptive_staircase_mess,2022.1.1,34.127607907684414,
,,,,,1,0,1,0,15,0,15,0,,,,,,,,,,,,,,,,left,1500,-10,1.527460556607758e-05,-1,2,-1,-5.0,243.13994235000573,243.35303170001134,243.07760840002447,243.3854295000201,244.07208459998947,244.3832666000817,245.0887329999823,245.4120711000869,left,1,2.711196199990809,243.14357269997708,None,245.64198750001378,None,,,,,,,nfsmrp,001,0,fr,2022-06-21_17h04.01.963,3-AFC_adaptive_staircase_mess,2022.1.1,34.127607907684414,
,,,,,1,0,1,0,16,0,16,0,,,,,,,,,,,,,,,,left,1500,-10,1.527460556607758e-05,-1,2,-1,-5.0,247.42096255000214,None,247.36098800005857,247.68755140004214,248.3746457999805,248.68445830000564,249.3479679999873,249.67893940000795,left,1,2.378675299929455,247.4195778000867,None,None,None,,,,,,,nfsmrp,001,0,fr,2022-06-21_17h04.01.963,3-AFC_adaptive_staircase_mess,2022.1.1,34.127607907684414,
,,,,,1,0,1,0,17,0,17,0,,,,,,,,,,,,,,,,left,1500,-15.0,8.589541935787946e-06,-1,2,-1,-5.0,251.30149414998013,None,251.27204389998224,251.58904110000003,252.27757190004922,252.58471149997786,253.27518810005859,253.59051780006848,up,0,3.009477199986577,251.3020696999738,None,253.81751339999028,None,,,,,,,nfsmrp,001,0,fr,2022-06-21_17h04.01.963,3-AFC_adaptive_staircase_mess,2022.1.1,34.127607907684414,
,,,,,1,0,1,0,18,0,18,0,,,,,,,,,,,,,,,,up,1500,-12.5,1.1454338263838873e-05,1,3,1,2.5,256.8581266500056,257.06741540005896,255.79954060004093,256.1217502000509,256.7949335000012,257.09975440008566,257.80106289999094,258.1259858000558,up,1,3.7818090999498963,255.85759400005918,None,258.35695060004946,None,,,,,,,nfsmrp,001,0,fr,2022-06-21_17h04.01.963,3-AFC_adaptive_staircase_mess,2022.1.1,34.127607907684414,
,,,,,1,0,1,0,19,0,19,0,,,,,,,,,,,,,,,,right,1500,-12.5,1.1454338263838873e-05,1,3,1,2.5,263.19180595004,263.40589050005656,261.1313813000452,261.4585280000465,262.11098390002735,262.43378050008323,263.1288658999838,263.44066560000647,left,0,2.8905591999646276,261.1643725000322,None,263.666959800059,None,,,,,,,nfsmrp,001,0,fr,2022-06-21_17h04.01.963,3-AFC_adaptive_staircase_mess,2022.1.1,34.127607907684414,
,,,,,1,0,1,0,20,0,20,0,,,,,,,,,,,,,,,,right,1500,-10.0,1.527460556607758e-05,1,3,1,2.5,267.5926740500378,267.80743839999195,265.53590000001714,265.8636644000653,266.53212750004604,266.86101520003285,267.5301408000523,267.8402454999741,right,1,2.7883059999439865,265.6023985000793,None,268.104062300059,None,,,,,,,nfsmrp,001,0,fr,2022-06-21_17h04.01.963,3-AFC_adaptive_staircase_mess,2022.1.1,34.127607907684414,
,,,,,1,0,1,0,21,0,21,0,,,,,,,,,,,,,,,,up,1500,-10.0,1.527460556607758e-05,1,3,1,2.5,270.9291317500407,271.146798199974,269.8733097000513,270.1778970999876,270.8996815000428,271.2090610000305,271.893754000077,272.20049980003387,left,0,2.982444499968551,269.9366664000554,None,272.438229600084,None,,,,,,,nfsmrp,001,0,fr,2022-06-21_17h04.01.963,3-AFC_adaptive_staircase_mess,2022.1.1,34.127607907684414,
,,,,,1,0,1,0,22,0,22,0,,,,,,,,,,,,,,,,left,1500,-7.5,2.036901389020565e-05,1,3,1,2.5,274.4382009500638,None,274.40875070006587,274.7376813000301,275.4124476000434,275.7129732000176,276.40974420006387,276.71029080008157,right,0,3.255378199974075,274.4395477999933,None,276.95894420007244,None,,,,,,,nfsmrp,001,0,fr,2022-06-21_17h04.01.963,3-AFC_adaptive_staircase_mess,2022.1.1,34.127607907684414,
,,,,,1,0,1,0,23,0,23,0,,,,,,,,,,,,,,,,right,1500,-5.0,2.716251657462168e-05,1,3,1,2.5,281.21447755002885,281.43870499997865,279.1740988000529,279.4746058000019,280.1657284999965,280.4665850000456,281.1850273000309,281.49363440007437,up,0,2.941516499966383,279.2339016000042,None,281.73325120005757,None,,,,,,,nfsmrp,001,0,fr,2022-06-21_17h04.01.963,3-AFC_adaptive_staircase_mess,2022.1.1,34.127607907684414,
,,,,,1,0,1,0,24,0,24,0,,,,,,,,,,,,,,,,left,1500,-2.5,3.622179800374953e-05,1,3,1,2.5,283.71754294997083,None,283.6593167000683,283.9796716000419,284.6427378000226,284.9459159000544,285.66720720008016,285.97257410001475,up,0,2.942499400000088,283.72090710001066,None,286.2145212000469,None,,,,,,,nfsmrp,001,0,fr,2022-06-21_17h04.01.963,3-AFC_adaptive_staircase_mess,2022.1.1,34.127607907684414,
,,,,,1,0,1,0,25,0,25,0,,,,,,,,,,,,,,,,up,1500,0.0,4.830254394949071e-05,1,3,1,2.5,289.20863865003923,289.43205960001796,288.17895259999204,288.48355840006843,289.1791884000413,289.4908547999803,290.1647609000793,290.4707464000676,up,1,2.79646490002051,288.21133630000986,None,290.7197370000649,None,,,,,,,nfsmrp,001,0,fr,2022-06-21_17h04.01.963,3-AFC_adaptive_staircase_mess,2022.1.1,34.127607907684414,
,,,,,1,0,1,0,26,0,26,0,,,,,,,,,,,,,,,,up,1500,0.0,4.830254394949071e-05,1,3,1,2.5,293.552396949986,None,292.50524970004335,292.8203834000742,293.492570900009,293.8017386000138,294.49878780008294,294.79875549999997,up,1,2.9446672999765724,292.5350158000365,None,295.04804070002865,None,,,,,,,nfsmrp,001,0,fr,2022-06-21_17h04.01.963,3-AFC_adaptive_staircase_mess,2022.1.1,34.127607907684414,
,,,,,1,0,1,0,27,0,27,0,,,,,,,,,,,,,,,,up,1500,-5.0,2.716251657462168e-05,-1,4,-1,-5.0,298.0237976500299,298.250206500059,296.989817099995,297.2906104000285,297.994347400032,298.30627459997777,298.98574020003434,299.2902809000807,up,1,3.030768100055866,297.00739739998244,None,299.529692000011,None,,,,,,,nfsmrp,001,0,fr,2022-06-21_17h04.01.963,3-AFC_adaptive_staircase_mess,2022.1.1,34.127607907684414,
,,,,,1,0,1,0,28,0,28,0,,,,,,,,,,,,,,,,left,1500,-5.0,2.716251657462168e-05,-1,4,-1,-5.0,301.58849535000047,None,301.55904510000255,301.87043910007924,302.55947510001715,302.89010610000696,303.54463670006953,303.8745991999749,left,1,2.9139957000734285,301.58865940000396,None,304.1134940000484,None,,,,,,,nfsmrp,001,0,fr,2022-06-21_17h04.01.963,3-AFC_adaptive_staircase_mess,2022.1.1,34.127607907684414,
,,,,,1,0,1,0,29,0,29,0,,,,,,,,,,,,,,,,left,1500,-10.0,1.527460556607758e-05,-1,4,-1,-5.0,306.04618075003384,None,305.9993007000303,306.30528139998205,306.99284630001057,307.2949076000368,307.9910710999975,308.28583730000537,left,1,2.8432968000415713,306.0601482000202,None,308.5638950000284,None,,,,,,,nfsmrp,001,0,fr,2022-06-21_17h04.01.963,3-AFC_adaptive_staircase_mess,2022.1.1,34.127607907684414,
,,,,,1,0,1,0,30,0,30,0,,,,,,,,,,,,,,,,right,1500,-10.0,1.527460556607758e-05,-1,4,-1,-5.0,312.43662825007925,312.6557064000517,310.3984048999846,310.6890624000225,311.3917116000084,311.6948745000409,312.3772087000543,312.6849368000403,right,1,3.5683348000748083,310.43031379999593,None,312.92777020006906,None,,,,,,,nfsmrp,001,0,fr,2022-06-21_17h04.01.963,3-AFC_adaptive_staircase_mess,2022.1.1,34.127607907684414,
,,,,,1,0,1,0,31,0,31,0,,,,,,,,,,,,,,,,left,1500,-15.0,8.589541935787946e-06,-1,4,-1,-5.0,315.52165655002466,None,315.49220630002674,315.8142166000325,316.50368850002997,316.8067539000185,317.4965828000568,317.79692270001397,right,0,3.6196634999942034,315.52429890003987,None,318.0378312000539,None,,,,,,,nfsmrp,001,0,fr,2022-06-21_17h04.01.963,3-AFC_adaptive_staircase_mess,2022.1.1,34.127607907684414,
,,,,,1,0,1,0,32,0,32,0,,,,,,,,,,,,,,,,up,1500,-12.5,1.1454338263838873e-05,1,5,1,2.5,321.66577744998506,None,320.62485879997257,320.9445671000285,321.6060061000753,321.92705609998666,322.61250210006256,322.9127886000788,up,1,3.2154994999291375,320.655712399981,None,323.16532829997595,None,,,,,,,nfsmrp,001,0,fr,2022-06-21_17h04.01.963,3-AFC_adaptive_staircase_mess,2022.1.1,34.127607907684414,
,,,,,1,0,1,0,33,0,33,0,,,,,,,,,,,,,,,,left,1500,-12.5,1.1454338263838873e-05,1,5,1,2.5,325.3927253500093,None,325.3632751000114,325.6734812000068,326.3489807000151,326.68400890007615,327.3510996000841,327.6848386999918,up,0,2.878381500020623,325.39287530002184,None,327.8995249000145,None,,,,,,,nfsmrp,001,0,fr,2022-06-21_17h04.01.963,3-AFC_adaptive_staircase_mess,2022.1.1,34.127607907684414,
,,,,,1,0,1,0,34,0,34,0,,,,,,,,,,,,,,,,left,1500,-10.0,1.527460556607758e-05,1,5,1,2.5,329.80643144997305,330.0263895000098,329.73861640004907,330.0589242000133,330.7546508000232,331.08856910001487,331.7568138000788,332.089738800074,right,0,2.604091400047764,329.8099770999979,None,332.29322190000676,None,,,,,,,nfsmrp,001,0,fr,2022-06-21_17h04.01.963,3-AFC_adaptive_staircase_mess,2022.1.1,34.127607907684414,
,,,,,1,0,1,0,35,0,35,0,,,,,,,,,,,,,,,,left,1500,-7.5,2.036901389020565e-05,1,5,1,2.5,333.9530538500054,334.1805700000841,333.89066779997665,334.20921840006486,334.8959380000597,335.2296729000518,335.8819787000539,336.19904630002566,left,1,2.5692282000090927,333.9574948999798,None,336.46617889998015,None,,,,,,,nfsmrp,001,0,fr,2022-06-21_17h04.01.963,3-AFC_adaptive_staircase_mess,2022.1.1,34.127607907684414,
,,,,,1,0,1,0,36,0,36,0,,,,,,,,,,,,,,,,left,1500,-7.5,2.036901389020565e-05,1,5,1,2.5,338.0493774500443,338.2700674000662,337.9880063000601,338.3042313000187,339.02087000000756,339.3360509000486,339.98714009998366,340.30802160000894,up,0,3.093264800030738,338.04932890005875,None,340.5725815000478,None,,,,,,,nfsmrp,001,0,fr,2022-06-21_17h04.01.963,3-AFC_adaptive_staircase_mess,2022.1.1,34.127607907684414,
,,,,,1,0,1,0,37,0,37,0,,,,,,,,,,,,,,,,left,1500,-5.0,2.716251657462168e-05,1,5,1,2.5,342.6848169500241,None,342.6375444000587,342.94808360002935,343.64066160004586,343.96860760007985,344.6383752999827,344.97489569999743,right,0,3.505408199969679,342.7014994000783,None,345.2071081000613,None,,,,,,,nfsmrp,001,0,fr,2022-06-21_17h04.01.963,3-AFC_adaptive_staircase_mess,2022.1.1,34.127607907684414,
,,,,,1,0,1,0,38,0,38,0,,,,,,,,,,,,,,,,left,1500,-2.5,3.622179800374953e-05,1,5,1,2.5,347.73588565005923,347.9474543000106,347.66069200006314,347.980728500057,348.678300700034,349.0129020999884,349.6808753000805,350.01333850005176,left,1,2.4887860000599176,347.74188750004396,None,350.2464839000022,None,,,,,,,nfsmrp,001,0,fr,2022-06-21_17h04.01.963,3-AFC_adaptive_staircase_mess,2022.1.1,34.127607907684414,
,,,,,1,0,1,0,39,0,39,0,,,,,,,,,,,,,,,,left,1500,-2.5,3.622179800374953e-05,1,5,1,2.5,351.7775295500411,None,351.71359599998686,352.0466123999795,352.7164529999718,353.04892680002376,353.7153625000501,354.05152059998363,left,1,2.776151700061746,351.7827949000057,None,354.2843801000854,None,,,,,,,nfsmrp,001,0,fr,2022-06-21_17h04.01.963,3-AFC_adaptive_staircase_mess,2022.1.1,34.127607907684414,
,,,,,1,0,1,0,40,0,40,0,,,,,,,,,,,,,,,,left,1500,-7.5,2.036901389020565e-05,-1,6,-1,-5.0,356.11353464997376,356.33016130002216,356.05359450005926,356.36289069999475,357.0529390000738,357.3867562999949,358.05334250000305,358.38733240007423,up,0,3.4004258000059053,356.11857210006565,None,358.62425400002394,None,,,,,,,nfsmrp,001,0,fr,2022-06-21_17h04.01.963,3-AFC_adaptive_staircase_mess,2022.1.1,34.127607907684414,
,,,,,2,0,2,0,0,0,0,0,,,,,,,,,,,,,[],[],10,up,2000,30,0.0023657562948074026,0,0,-1,10,364.99202565001326,None,363.92777070007287,364.25944130006246,364.9279726999812,365.261966100079,365.92872670001816,None,up,1,2.1424295000033453,363.99236819997896,None,None,None,left,2.877921700011939,360.59297680004966,None,360.59297680004966,None,nfsmrp,001,0,fr,2022-06-21_17h04.01.963,3-AFC_adaptive_staircase_mess,2022.1.1,34.127607907684414,
,,,,,2,0,2,0,1,0,1,0,,,,,,,,,,,,,,,,right,2000,30,0.0023657562948074026,0,0,-1,10,369.6985895500053,None,367.664885199978,367.964528099983,368.6357445999747,368.9642369999783,369.63291150005534,369.96452719997615,right,1,2.47531320003327,367.700990500045,None,370.2057113000192,None,,,,,,,nfsmrp,001,0,fr,2022-06-21_17h04.01.963,3-AFC_adaptive_staircase_mess,2022.1.1,34.127607907684414,
,,,,,2,0,2,0,2,0,2,0,,,,,,,,,,,,,,,,right,2000,10,0.00023657562948074026,-1,0,-1,-10,373.72072135007477,373.94312200008426,371.6682654999895,372.00419490004424,372.6710223000264,373.0028220000677,373.6588098000502,373.97550010005943,right,1,2.4536962000420317,371.7363183000125,None,374.23109555002304,None,,,,,,,nfsmrp,001,0,fr,2022-06-21_17h04.01.963,3-AFC_adaptive_staircase_mess,2022.1.1,34.127607907684414,
,,,,,2,0,2,0,3,0,3,0,,,,,,,,,,,,,,,,right,2000,10,0.00023657562948074026,-1,0,-1,-10,377.73805115001744,377.95736230001785,375.70966270007193,376.03832370007876,376.6711891000159,376.9765413000714,377.6738511000294,377.9863922999939,right,1,2.681442499975674,375.7412025000667,None,378.2438231999986,None,,,,,,,nfsmrp,001,0,fr,2022-06-21_17h04.01.963,3-AFC_adaptive_staircase_mess,2022.1.1,34.127607907684414,
,,,,,2,0,2,0,4,0,4,0,,,,,,,,,,,,,,,,up,2000,0,7.481178280472168e-05,-1,0,-1,-10,380.9760267500766,None,379.9154439000413,380.24288959999103,380.91291180008557,381.2343899999978,381.9148899000138,382.2414644000819,up,1,2.7514154999516904,379.97531710006297,None,382.4809215000132,None,,,,,,,nfsmrp,001,0,fr,2022-06-21_17h04.01.963,3-AFC_adaptive_staircase_mess,2022.1.1,34.127607907684414,
,,,,,2,0,2,0,5,0,5,0,,,,,,,,,,,,,,,,left,2000,0,7.481178280472168e-05,-1,0,-1,-10,384.2793344500475,None,384.21525010000914,384.5456998000154,385.2192496000789,385.54883370001335,386.2192771000555,386.53429250000045,up,0,3.2227169999387115,384.27974999998696,None,386.79211759998,None,,,,,,,nfsmrp,001,0,fr,2022-06-21_17h04.01.963,3-AFC_adaptive_staircase_mess,2022.1.1,34.127607907684414,
,,,,,2,0,2,0,6,0,6,0,,,,,,,,,,,,,,,,left,2000,5,0.0001330362529899405,1,1,1,5,389.05157335000115,None,389.0221231000032,389.35262760007754,389.9827090500854,None,None,None,left,1,0.8861447999952361,389.05655880004633,None,None,None,,,,,,,nfsmrp,001,0,fr,2022-06-21_17h04.01.963,3-AFC_adaptive_staircase_mess,2022.1.1,34.127607907684414,
,,,,,2,0,2,0,7,0,7,0,,,,,,,,,,,,,,,,up,2000,5,0.0001330362529899405,1,1,1,5,392.4860971500399,392.69854650006164,391.42355319997296,391.7566560000414,392.421939700027,392.72992549999617,None,None,up,1,1.7905553000746295,391.4877347999718,None,None,None,,,,,,,nfsmrp,001,0,fr,2022-06-21_17h04.01.963,3-AFC_adaptive_staircase_mess,2022.1.1,34.127607907684414,
,,,,,2,0,2,0,8,0,8,0,,,,,,,,,,,,,,,,up,2000,-5,4.206975708225974e-05,-1,2,-1,-5.0,395.82548465,None,394.764173100004,395.091574100079,395.7644566000672,396.09689290006645,396.76071469997987,397.06113799999,right,0,2.474212099914439,394.8281662000809,None,397.3254644999979,None,,,,,,,nfsmrp,001,0,fr,2022-06-21_17h04.01.963,3-AFC_adaptive_staircase_mess,2022.1.1,34.127607907684414,
,,,,,2,0,2,0,9,0,9,0,,,,,,,,,,,,,,,,right,2000,-2.5,5.610092271509818e-05,1,3,1,2.5,400.8607552499976,401.08236330002546,398.7979552000761,399.1256776000373,399.7987158000469,400.13114080007654,400.7960194000043,401.1108973000664,right,1,2.6800053999759257,398.86238329997286,None,401.35350000008475,None,,,,,,,nfsmrp,001,0,fr,2022-06-21_17h04.01.963,3-AFC_adaptive_staircase_mess,2022.1.1,34.127607907684414,
,,,,,2,0,2,0,10,0,10,0,,,,,,,,,,,,,,,,right,2000,-2.5,5.610092271509818e-05,1,3,1,2.5,405.047725450038,None,403.0050433999859,403.33755729999393,404.0052562999772,404.3325438000029,405.0182752000401,405.3421501000412,right,1,5.043177199899219,403.0673713000724,None,405.57270800007973,None,,,,,,,nfsmrp,001,0,fr,2022-06-21_17h04.01.963,3-AFC_adaptive_staircase_mess,2022.1.1,34.127607907684414,
,,,,,2,0,2,0,11,0,11,0,,,,,,,,,,,,,,,,left,2000,-7.5,3.154786722400965e-05,-1,4,-1,-5.0,409.6699415500276,None,409.6061668000184,409.9418153000297,410.60299110005144,410.9122915000189,411.61123849998694,411.94890870002564,up,0,3.3485235000262037,409.6742465000134,None,412.18385130004026,None,,,,,,,nfsmrp,001,0,fr,2022-06-21_17h04.01.963,3-AFC_adaptive_staircase_mess,2022.1.1,34.127607907684414,
,,,,,2,0,2,0,12,0,12,0,,,,,,,,,,,,,,,,right,2000,-5.0,4.206975708225974e-05,1,5,1,2.5,416.57824445005974,416.79352619999554,414.5187196000479,414.84728170000017,415.5141251999885,415.844395800028,416.5141886000056,416.8260710000759,left,0,2.9857732000527903,414.5885969999945,None,417.0852801000001,None,,,,,,,nfsmrp,001,0,fr,2022-06-21_17h04.01.963,3-AFC_adaptive_staircase_mess,2022.1.1,34.127607907684414,
,,,,,2,0,2,0,13,0,13,0,,,,,,,,,,,,,,,,right,2000,-2.5,5.610092271509818e-05,1,5,1,2.5,421.12146545005965,421.3343114000745,419.05404750001617,419.38680300000124,420.0500962000806,420.3565463999985,421.0576671999879,421.3649388999911,up,0,3.1426730999955907,419.120451600058,None,421.61427470005583,None,,,,,,,nfsmrp,001,0,fr,2022-06-21_17h04.01.963,3-AFC_adaptive_staircase_mess,2022.1.1,34.127607907684414,
,,,,,2,0,2,0,14,0,14,0,,,,,,,,,,,,,,,,up,2000,0.0,7.481178280472168e-05,1,5,1,2.5,424.8211243499769,None,423.7575473000761,424.0874775000848,424.7572400000645,425.0898496999871,425.7605188000016,426.09106280002743,right,0,3.5211670000571758,423.82155140000395,None,426.32674709998537,None,,,,,,,nfsmrp,001,0,fr,2022-06-21_17h04.01.963,3-AFC_adaptive_staircase_mess,2022.1.1,34.127607907684414,
,,,,,2,0,2,0,15,0,15,0,,,,,,,,,,,,,,,,up,2000,2.5,9.976311574844399e-05,1,5,1,2.5,429.8966849500081,None,428.83258140005637,429.16020659997594,429.8314528000774,430.16637690004427,430.8614180000732,431.16903540003113,up,1,2.834850199986249,428.8996551000746,None,431.3992020000005,None,,,,,,,nfsmrp,001,0,fr,2022-06-21_17h04.01.963,3-AFC_adaptive_staircase_mess,2022.1.1,34.127607907684414,
,,,,,2,0,2,0,16,0,16,0,,,,,,,,,,,,,,,,right,2000,2.5,9.976311574844399e-05,1,5,1,2.5,435.2987684500637,435.51276110007893,433.23465150000993,433.56510090001393,434.23530810000375,434.5668808000628,435.2341108000837,435.54413030005526,up,0,2.405066299950704,433.2983453000197,None,None,None,,,,,,,nfsmrp,001,0,fr,2022-06-21_17h04.01.963,3-AFC_adaptive_staircase_mess,2022.1.1,34.127607907684414,
,,,,,2,0,2,0,17,0,17,0,,,,,,,,,,,,,,,,right,2000,5.0,0.0001330362529899405,1,5,1,2.5,439.2707829500083,None,437.2066126000136,437.53612200007774,438.20587750000414,438.53699470008723,439.20486659999005,439.5088581000455,right,1,2.572200500057079,437.2742036000127,None,439.7728908000281,None,,,,,,,nfsmrp,001,0,fr,2022-06-21_17h04.01.963,3-AFC_adaptive_staircase_mess,2022.1.1,34.127607907684414,
,,,,,2,0,2,0,18,0,18,0,,,,,,,,,,,,,,,,up,2000,5.0,0.0001330362529899405,1,5,1,2.5,442.40684904998636,None,441.3426880000625,441.67382180003915,442.3433702000184,442.67547380004544,443.3458661000477,443.6768014000263,up,1,2.2390076000010595,441.40711200004444,None,None,None,,,,,,,nfsmrp,001,0,fr,2022-06-21_17h04.01.963,3-AFC_adaptive_staircase_mess,2022.1.1,34.127607907684414,
,,,,,2,0,2,0,19,0,19,0,,,,,,,,,,,,,,,,left,2000,0.0,7.481178280472168e-05,-1,6,-1,-5.0,445.20550515004436,445.4249976000283,445.1436783000827,445.45768310001586,446.1439012000337,446.44880340003874,447.14366050006356,447.45122679998167,left,1,3.0769422000739723,445.209698199993,None,447.7198680000147,None,,,,,,,nfsmrp,001,0,fr,2022-06-21_17h04.01.963,3-AFC_adaptive_staircase_mess,2022.1.1,34.127607907684414,
,,,,,3,0,3,0,0,0,0,0,,,,,,,,,,,,,[],[],10,right,3000,30,0.001733684252262658,0,0,-1,10,470.694554750016,470.9161936000455,468.6416072000284,468.94355480000377,469.6614698000485,469.96648190007545,470.66510450001806,470.9722679000115,right,1,2.764112400007434,468.6987293000566,None,471.19681530003436,None,up,18.817969000083394,449.3803680000128,None,449.3803680000128,None,nfsmrp,001,0,fr,2022-06-21_17h04.01.963,3-AFC_adaptive_staircase_mess,2022.1.1,34.127607907684414,
,,,,,3,0,3,0,1,0,1,0,,,,,,,,,,,,,,,,left,3000,30,0.001733684252262658,0,0,-1,10,472.9852849500254,None,472.9558347000275,473.27764940005727,None,None,None,None,left,1,0.6152789000188932,472.98447730008047,None,None,None,,,,,,,nfsmrp,001,0,fr,2022-06-21_17h04.01.963,3-AFC_adaptive_staircase_mess,2022.1.1,34.127607907684414,
,,,,,3,0,3,0,2,0,2,0,,,,,,,,,,,,,,,,left,3000,10,0.00017336842522626576,-1,0,-1,-10,475.10042065000164,475.31679419998545,475.0709704000037,475.3779497999931,None,None,None,None,left,1,0.5583627000451088,475.1039664000273,None,None,None,,,,,,,nfsmrp,001,0,fr,2022-06-21_17h04.01.963,3-AFC_adaptive_staircase_mess,2022.1.1,34.127607907684414,
,,,,,3,0,3,0,3,0,3,0,,,,,,,,,,,,,,,,up,3000,10,0.00017336842522626576,-1,0,-1,-10,478.20484855005054,None,477.16315010003746,477.4840917000547,478.1753983000526,478.48160599998664,None,None,up,1,1.4651682999683544,477.22322400007397,None,None,None,,,,,,,nfsmrp,001,0,fr,2022-06-21_17h04.01.963,3-AFC_adaptive_staircase_mess,2022.1.1,34.127607907684414,
,,,,,3,0,3,0,4,0,4,0,,,,,,,,,,,,,,,,up,3000,0,5.482390980715923e-05,-1,0,-1,-10,481.2417383500375,481.4576147000771,480.17536800005473,480.48266290000174,481.1780477000866,481.48899029998574,482.18358100007754,482.5068905000808,up,1,2.4200284000253305,480.24197370000184,None,482.7090048500337,None,,,,,,,nfsmrp,001,0,fr,2022-06-21_17h04.01.963,3-AFC_adaptive_staircase_mess,2022.1.1,34.127607907684414,
,,,,,3,0,3,0,5,0,5,0,,,,,,,,,,,,,,,,right,3000,0,5.482390980715923e-05,-1,0,-1,-10,486.1789490500465,486.39450370008126,484.1252000000095,484.4472936000675,485.14857040008064,485.48196360003203,486.1494988000486,486.4553872999968,right,1,2.4596004999475554,484.1870098999934,None,486.6942512500333,None,,,,,,,nfsmrp,001,0,fr,2022-06-21_17h04.01.963,3-AFC_adaptive_staircase_mess,2022.1.1,34.127607907684414,
,,,,,3,0,3,0,6,0,6,0,,,,,,,,,,,,,,,,up,3000,-10,1.7336842522626584e-05,-1,0,-1,-10,489.18216055005325,489.3972273999825,488.11673380003776,488.41979780001566,489.120563399978,489.4299774999963,490.1199664999731,490.43305160000455,right,0,2.519611099967733,488.1821331999963,None,490.6701997000491,None,,,,,,,nfsmrp,001,0,fr,2022-06-21_17h04.01.963,3-AFC_adaptive_staircase_mess,2022.1.1,34.127607907684414,
,,,,,3,0,3,0,7,0,7,0,,,,,,,,,,,,,,,,up,3000,-5,3.082975009307411e-05,1,1,1,5,493.24260805002416,None,492.18764430005103,492.49873990006745,493.21315780002624,493.530167000019,494.20713980006985,494.5236804999877,up,1,3.3934064999921247,492.2536363999825,None,494.7470131000737,None,,,,,,,nfsmrp,001,0,fr,2022-06-21_17h04.01.963,3-AFC_adaptive_staircase_mess,2022.1.1,34.127607907684414,
,,,,,3,0,3,0,8,0,8,0,,,,,,,,,,,,,,,,right,3000,-5,3.082975009307411e-05,1,1,1,5,499.1927239500452,499.40844929998275,497.1326687000692,497.46160150005016,498.1294434000738,498.46108360006474,499.13409359997604,499.4403515000595,right,1,5.356631600065157,497.1948818999808,None,499.6952986000106,None,,,,,,,nfsmrp,001,0,fr,2022-06-21_17h04.01.963,3-AFC_adaptive_staircase_mess,2022.1.1,34.127607907684414,
,,,,,3,0,3,0,9,0,9,0,,,,,,,,,,,,,,,,left,3000,-15,9.749222998790228e-06,-1,2,-1,-5.0,504.0786000499735,None,504.04914979997557,504.3725321000675,505.03690639999695,505.36785050004255,506.04705729999114,506.37017410004046,right,0,3.159493900020607,504.0793410000624,None,506.59249429998454,None,,,,,,,nfsmrp,001,0,fr,2022-06-21_17h04.01.963,3-AFC_adaptive_staircase_mess,2022.1.1,34.127607907684414,
,,,,,3,0,3,0,10,0,10,0,,,,,,,,,,,,,,,,up,3000,-12.5,1.300079781582636e-05,1,3,1,2.5,509.77177454999185,509.9850242000539,508.71096140006557,509.04398130008485,509.71252110006753,510.0195150000509,510.70696260000113,None,up,1,2.062699700007215,508.7766273000743,None,None,None,,,,,,,nfsmrp,001,0,fr,2022-06-21_17h04.01.963,3-AFC_adaptive_staircase_mess,2022.1.1,34.127607907684414,
,,,,,3,0,3,0,11,0,11,0,,,,,,,,,,,,,,,,up,3000,-12.5,1.300079781582636e-05,1,3,1,2.5,513.4059435500764,513.6222821000265,512.3474182999926,512.6734323999844,513.3419808000326,513.6544737999793,514.3510477000382,514.675682800007,left,0,2.96619720000308,512.4088486999972,None,514.8901170999743,None,,,,,,,nfsmrp,001,0,fr,2022-06-21_17h04.01.963,3-AFC_adaptive_staircase_mess,2022.1.1,34.127607907684414,
,,,,,3,0,3,0,12,0,12,0,,,,,,,,,,,,,,,,up,3000,-10.0,1.7336842522626584e-05,1,3,1,2.5,517.911528249993,518.1266254000366,516.8607291000662,517.1808040000033,517.8820779999951,518.1874309000559,518.8840012999717,519.2157639000798,up,1,3.037113400059752,516.9211086999858,None,519.4079233000521,None,,,,,,,nfsmrp,001,0,fr,2022-06-21_17h04.01.963,3-AFC_adaptive_staircase_mess,2022.1.1,34.127607907684414,
,,,,,3,0,3,0,13,0,13,0,,,,,,,,,,,,,,,,left,3000,-10.0,1.7336842522626584e-05,1,3,1,2.5,521.5120086500189,521.7309619999724,521.449085899978,521.7636350999819,522.454208399984,522.785341000068,523.4591812000144,523.7859814000549,right,0,3.069229200016707,521.5131694000447,None,524.0001324000768,None,,,,,,,nfsmrp,001,0,fr,2022-06-21_17h04.01.963,3-AFC_adaptive_staircase_mess,2022.1.1,34.127607907684414,
,,,,,3,0,3,0,14,0,14,0,,,,,,,,,,,,,,,,right,3000,-7.5,2.3119051069963017e-05,1,3,1,2.5,528.1029367500684,None,526.0591942999745,526.3930790000595,527.0726097000297,527.3949006000767,528.0734865000704,528.3966643000022,up,0,3.3597207999555394,526.1267869999865,None,528.6267548999749,None,,,,,,,nfsmrp,001,0,fr,2022-06-21_17h04.01.963,3-AFC_adaptive_staircase_mess,2022.1.1,34.127607907684414,
,,,,,3,0,3,0,15,0,15,0,,,,,,,,,,,,,,,,left,3000,-5.0,3.082975009307411e-05,1,3,1,2.5,531.0338625500677,None,530.9689949000021,531.299611399998,531.9602002999745,532.2673521999968,532.9577599000186,533.2664153000806,right,0,3.80581930000335,531.0408992000157,None,533.5342761999927,None,,,,,,,nfsmrp,001,0,fr,2022-06-21_17h04.01.963,3-AFC_adaptive_staircase_mess,2022.1.1,34.127607907684414,
,,,,,3,0,3,0,16,0,16,0,,,,,,,,,,,,,,,,left,3000,-2.5,4.1112132497353565e-05,1,3,1,2.5,536.3978869500803,None,536.3393204000313,536.6642225000542,537.3673340000678,537.6905963000609,538.3656126999995,538.6701127000852,right,0,3.0461850999854505,536.4009693000698,None,538.910390199977,None,,,,,,,nfsmrp,001,0,fr,2022-06-21_17h04.01.963,3-AFC_adaptive_staircase_mess,2022.1.1,34.127607907684414,
,,,,,3,0,3,0,17,0,17,0,,,,,,,,,,,,,,,,left,3000,0.0,5.482390980715923e-05,1,3,1,2.5,540.9904403500492,None,540.9321741000749,541.2504947000416,None,None,None,None,left,1,0.8641325000207871,540.9909242000431,None,None,None,,,,,,,nfsmrp,001,0,fr,2022-06-21_17h04.01.963,3-AFC_adaptive_staircase_mess,2022.1.1,34.127607907684414,
,,,,,3,0,3,0,18,0,18,0,,,,,,,,,,,,,,,,up,3000,0.0,5.482390980715923e-05,1,3,1,2.5,544.3727358500706,544.5881747000385,543.3060011999914,543.6393211000832,544.3102810999844,544.6204510000534,None,None,up,1,1.563084299908951,543.3729667000007,None,None,None,,,,,,,nfsmrp,001,0,fr,2022-06-21_17h04.01.963,3-AFC_adaptive_staircase_mess,2022.1.1,34.127607907684414,
,,,,,3,0,3,0,19,0,19,0,,,,,,,,,,,,,,,,up,3000,-5.0,3.082975009307411e-05,-1,4,-1,-5.0,547.4720430500107,547.6902303000679,546.4161080999766,546.7474026000127,547.4093032000819,547.7228246000595,548.420029400033,548.7504028000403,left,0,3.229040400008671,546.4826179000083,None,548.9803543000016,None,,,,,,,nfsmrp,001,0,fr,2022-06-21_17h04.01.963,3-AFC_adaptive_staircase_mess,2022.1.1,34.127607907684414,
,,,,,3,0,3,0,20,0,20,0,,,,,,,,,,,,,,,,right,3000,-2.5,4.1112132497353565e-05,1,5,1,2.5,553.2337001500651,553.4630575000774,551.1852274000412,551.5169908000389,552.194912499981,552.516443700064,553.2042499000672,553.5242652000161,right,1,2.603025099961087,551.251891400083,None,553.7457164999796,None,,,,,,,nfsmrp,001,0,fr,2022-06-21_17h04.01.963,3-AFC_adaptive_staircase_mess,2022.1.1,34.127607907684414,
,,,,,3,0,3,0,21,0,21,0,,,,,,,,,,,,,,,,right,3000,-2.5,4.1112132497353565e-05,1,5,1,2.5,557.3832324500196,None,555.318715600064,555.6425589000573,556.3238759000087,556.6500956000527,557.3207699999912,557.6492373000365,up,0,2.949654099997133,555.3843847999815,None,557.890154600027,None,,,,,,,nfsmrp,001,0,fr,2022-06-21_17h04.01.963,3-AFC_adaptive_staircase_mess,2022.1.1,34.127607907684414,
,,,,,3,0,3,0,22,0,22,0,,,,,,,,,,,,,,,,left,3000,0.0,5.482390980715923e-05,1,5,1,2.5,559.8557463500416,560.0686764999991,559.8262961000437,560.1300013000146,None,None,None,None,left,1,0.7642260999418795,559.8592955999775,None,None,None,,,,,,,nfsmrp,001,0,fr,2022-06-21_17h04.01.963,3-AFC_adaptive_staircase_mess,2022.1.1,34.127607907684414,
,,,,,3,0,3,0,23,0,23,0,,,,,,,,,,,,,,,,left,3000,0.0,5.482390980715923e-05,1,5,1,2.5,562.1561579500791,None,562.0950939999893,562.4234060000163,None,None,None,None,left,1,0.5991863999515772,562.1601123000728,None,None,None,,,,,,,nfsmrp,001,0,fr,2022-06-21_17h04.01.963,3-AFC_adaptive_staircase_mess,2022.1.1,34.127607907684414,
,,,,,3,0,3,0,24,0,24,0,,,,,,,,,,,,,,,,left,3000,-5.0,3.082975009307411e-05,-1,6,-1,-5.0,564.3049565500347,None,564.2446259000571,564.5549029000103,565.2648206000449,565.596468099975,566.257910400047,566.561165500083,right,0,3.1030021000187844,564.3042914000107,None,566.8009053000715,None,,,,,,,nfsmrp,001,0,fr,2022-06-21_17h04.01.963,3-AFC_adaptive_staircase_mess,2022.1.1,34.127607907684414,
,,,,,4,0,4,0,0,0,0,0,,,,,,,,,,,,,[],[],10,right,4000,30,0.0026544222211549416,0,0,-1,10,572.2855804499937,572.5037287999876,570.2316242000088,570.5412495000055,571.2550829000538,571.5664628000231,572.2561301999958,572.560992600047,right,1,2.6348426999757066,570.2926339000696,None,572.801315800054,None,up,1.2870600000023842,568.4956901000114,None,568.4956901000114,None,nfsmrp,001,0,fr,2022-06-21_17h04.01.963,3-AFC_adaptive_staircase_mess,2022.1.1,34.127607907684414,
,,,,,4,0,4,0,1,0,1,0,,,,,,,,,,,,,,,,right,4000,30,0.0026544222211549416,0,0,-1,10,576.4793609499699,None,574.426624600077,574.7333581000566,575.4268801000435,575.736070599989,576.4212587000802,576.7319486000342,right,1,2.359040300012566,574.4558549000649,None,None,None,,,,,,,nfsmrp,001,0,fr,2022-06-21_17h04.01.963,3-AFC_adaptive_staircase_mess,2022.1.1,34.127607907684414,
,,,,,4,0,4,0,2,0,2,0,,,,,,,,,,,,,,,,right,4000,10,0.00026544222211549425,-1,0,-1,-10,580.3492852499709,None,578.2988381000469,578.6063644000096,579.2964118000818,579.603524300037,580.2910864000442,580.6097998999758,right,1,2.512763600097969,578.3587050000206,None,580.8547301000217,None,,,,,,,nfsmrp,001,0,fr,2022-06-21_17h04.01.963,3-AFC_adaptive_staircase_mess,2022.1.1,34.127607907684414,
,,,,,4,0,4,0,3,0,3,0,,,,,,,,,,,,,,,,right,4000,10,0.00026544222211549425,-1,0,-1,-10,584.4051459500566,None,582.3677938000765,582.6758827000158,583.3603033000836,583.6797660000157,584.3756957000587,584.6946045000805,right,1,2.633702400024049,582.3982813999755,None,584.908832999994,None,,,,,,,nfsmrp,001,0,fr,2022-06-21_17h04.01.963,3-AFC_adaptive_staircase_mess,2022.1.1,34.127607907684414,
,,,,,4,0,4,0,4,0,4,0,,,,,,,,,,,,,,,,right,4000,0,8.394020090612804e-05,-1,0,-1,-10,588.5910139499698,588.8058544000378,586.5522136000218,586.8607318000868,587.5401917999843,587.8483987000072,588.5615636999719,588.8622539000353,right,1,2.5121655999682844,586.5826877000509,None,589.1017833000515,None,,,,,,,nfsmrp,001,0,fr,2022-06-21_17h04.01.963,3-AFC_adaptive_staircase_mess,2022.1.1,34.127607907684414,
,,,,,4,0,4,0,5,0,5,0,,,,,,,,,,,,,,,,left,4000,0,8.394020090612804e-05,-1,0,-1,-10,590.5995996500366,None,590.5701494000386,590.8913910000119,None,None,None,None,left,1,0.7503132000565529,590.6001319000497,None,None,None,,,,,,,nfsmrp,001,0,fr,2022-06-21_17h04.01.963,3-AFC_adaptive_staircase_mess,2022.1.1,34.127607907684414,
,,,,,4,0,4,0,6,0,6,0,,,,,,,,,,,,,,,,up,4000,-10,2.6544222211549425e-05,-1,0,-1,-10,593.8933147500735,594.117329700035,592.8595760000171,593.1639551999979,593.8365866000531,594.1450105999829,594.8585862000473,595.1852794000879,left,0,2.8378735000733286,592.8894341000123,None,595.394982400001,None,,,,,,,nfsmrp,001,0,fr,2022-06-21_17h04.01.963,3-AFC_adaptive_staircase_mess,2022.1.1,34.127607907684414,
,,,,,4,0,4,0,7,0,7,0,,,,,,,,,,,,,,,,right,4000,-5,4.720304381429618e-05,1,1,1,5,599.2538073500851,599.4752398000564,597.2076409000438,597.5373615000863,598.1939742000541,598.5184281000402,599.1958043000195,599.5045999999857,up,0,2.235389499925077,597.266966400086,None,None,None,,,,,,,nfsmrp,001,0,fr,2022-06-21_17h04.01.963,3-AFC_adaptive_staircase_mess,2022.1.1,34.127607907684414,
,,,,,4,0,4,0,8,0,8,0,,,,,,,,,,,,,,,,left,4000,0,8.394020090612804e-05,1,1,1,5,601.0148839500267,None,600.9854337000288,601.2985651000636,None,None,None,None,left,1,0.6376280999975279,601.016572499997,None,None,None,,,,,,,nfsmrp,001,0,fr,2022-06-21_17h04.01.963,3-AFC_adaptive_staircase_mess,2022.1.1,34.127607907684414,
,,,,,4,0,4,0,9,0,9,0,,,,,,,,,,,,,,,,right,4000,0,8.394020090612804e-05,1,1,1,5,605.1843732500216,None,603.1457853000611,603.4628556000534,604.1408148000482,604.4444036000641,605.1549230000237,605.4690237999894,right,1,2.6038057999685407,603.2195246000774,None,605.7101392999757,None,,,,,,,nfsmrp,001,0,fr,2022-06-21_17h04.01.963,3-AFC_adaptive_staircase_mess,2022.1.1,34.127607907684414,
,,,,,4,0,4,0,10,0,10,0,,,,,,,,,,,,,,,,right,4000,-10,2.6544222211549425e-05,-1,2,-1,-5.0,609.3798967499985,None,607.3220084999921,607.6508098000195,608.303533700062,608.6067687000614,609.3185391000006,609.634398000082,right,1,3.2151394999818876,607.3516727000242,None,609.8692236000206,None,,,,,,,nfsmrp,001,0,fr,2022-06-21_17h04.01.963,3-AFC_adaptive_staircase_mess,2022.1.1,34.127607907684414,
,,,,,4,0,4,0,11,0,11,0,,,,,,,,,,,,,,,,left,4000,-10,2.6544222211549425e-05,-1,2,-1,-5.0,612.0728972499725,612.2885448000161,612.0434469999745,612.3472130000591,613.0316388000501,613.3336620000191,614.037616900052,614.3722383000422,right,0,3.1430156000424176,612.0715216000099,None,614.6014200000791,None,,,,,,,nfsmrp,001,0,fr,2022-06-21_17h04.01.963,3-AFC_adaptive_staircase_mess,2022.1.1,34.127607907684414,
,,,,,4,0,4,0,12,0,12,0,,,,,,,,,,,,,,,,left,4000,-7.5,3.53972892192069e-05,1,3,1,2.5,616.7335875500227,None,616.7041373000247,617.0213728999952,617.7049190000398,618.0081111000618,618.6928570000455,618.9944295000751,up,0,2.5775051000528038,616.7249909000238,None,619.2461237000534,None,,,,,,,nfsmrp,001,0,fr,2022-06-21_17h04.01.963,3-AFC_adaptive_staircase_mess,2022.1.1,34.127607907684414,
,,,,,4,0,4,0,13,0,13,0,,,,,,,,,,,,,,,,left,4000,-5.0,4.720304381429618e-05,1,3,1,2.5,620.8214231500402,621.0416017000098,620.7919729000423,621.0978755999822,None,None,None,None,left,1,0.8970994000555947,620.8212354000425,None,None,None,,,,,,,nfsmrp,001,0,fr,2022-06-21_17h04.01.963,3-AFC_adaptive_staircase_mess,2022.1.1,34.127607907684414,
,,,,,4,0,4,0,14,0,14,0,,,,,,,,,,,,,,,,right,4000,-5.0,4.720304381429618e-05,1,3,1,2.5,625.2304486499867,None,623.1790911999997,623.5131431000773,624.1710306999739,624.4811293000821,625.1692082000664,625.4897684999742,right,1,2.891532199922949,623.2436519999756,None,625.7279450000497,None,,,,,,,nfsmrp,001,0,fr,2022-06-21_17h04.01.963,3-AFC_adaptive_staircase_mess,2022.1.1,34.127607907684414,
,,,,,4,0,4,0,15,0,15,0,,,,,,,,,,,,,,,,left,4000,-10.0,2.6544222211549425e-05,-1,4,-1,-5.0,627.6477216499858,627.8642548000207,627.6182713999879,627.9270023000427,628.5882432999788,628.9200517000863,629.6044719000347,629.918857700075,up,0,2.3912686000112444,627.6552776000462,None,None,None,,,,,,,nfsmrp,001,0,fr,2022-06-21_17h04.01.963,3-AFC_adaptive_staircase_mess,2022.1.1,34.127607907684414,
,,,,,4,0,4,0,16,0,16,0,,,,,,,,,,,,,,,,up,4000,-7.5,3.53972892192069e-05,1,5,1,2.5,632.5937289500376,None,631.5574655000819,631.8749673999846,632.5642787000397,632.875539700035,633.5584148999769,633.897354500019,up,1,2.854422300006263,631.607484200038,None,634.121059600031,None,,,,,,,nfsmrp,001,0,fr,2022-06-21_17h04.01.963,3-AFC_adaptive_staircase_mess,2022.1.1,34.127607907684414,
,,,,,4,0,4,0,17,0,17,0,,,,,,,,,,,,,,,,left,4000,-7.5,3.53972892192069e-05,1,5,1,2.5,636.0123801500537,None,635.9829299000558,636.3021150000859,636.9834956000559,637.2944815000519,637.9626951999962,638.2966388000641,left,1,3.4069117000326514,636.0161986000603,None,638.5300628000405,None,,,,,,,nfsmrp,001,0,fr,2022-06-21_17h04.01.963,3-AFC_adaptive_staircase_mess,2022.1.1,34.127607907684414,
,,,,,4,0,4,0,18,0,18,0,,,,,,,,,,,,,,,,right,4000,-12.5,1.9905358527674868e-05,-1,6,-1,-5.0,642.9478435500292,None,640.8969088000013,641.2307875000406,641.9119405000238,642.2320202999981,642.8890259000473,643.2129356000805,right,1,3.07009829999879,640.9611286000581,None,643.471773999976,None,,,,,,,nfsmrp,001,0,fr,2022-06-21_17h04.01.963,3-AFC_adaptive_staircase_mess,2022.1.1,34.127607907684414,
,,,,,5,0,5,0,0,0,0,0,,,,,,,,,,,,,[],[],10,up,6000,30,0.003664122665694519,0,0,-1,10,647.7736970500788,None,646.7281977999955,647.0246972000459,647.714238799992,648.0414631000021,None,None,up,1,1.728595900000073,646.7574958000332,None,None,None,up,1.1472407999681309,645.1072660000063,None,645.1072660000063,None,nfsmrp,001,0,fr,2022-06-21_17h04.01.963,3-AFC_adaptive_staircase_mess,2022.1.1,34.127607907684414,
,,,,,5,0,5,0,1,0,1,0,,,,,,,,,,,,,,,,up,6000,30,0.003664122665694519,0,0,-1,10,650.9908550500637,None,649.951229600003,650.2491288000019,650.9614048000658,651.2842838000506,None,None,up,1,1.365150099969469,650.0094983000308,None,None,None,,,,,,,nfsmrp,001,0,fr,2022-06-21_17h04.01.963,3-AFC_adaptive_staircase_mess,2022.1.1,34.127607907684414,
,,,,,5,0,5,0,2,0,2,0,,,,,,,,,,,,,,,,right,6000,10,0.00036641226656945183,-1,0,-1,-10,654.9078701500781,655.1319264000049,652.8624955000123,653.1785443000263,653.873544299975,654.1745880000526,654.8487306999741,655.1602773000486,right,1,2.636651699896902,652.92176320008,None,655.4249877000693,None,,,,,,,nfsmrp,001,0,fr,2022-06-21_17h04.01.963,3-AFC_adaptive_staircase_mess,2022.1.1,34.127607907684414,
,,,,,5,0,5,0,3,0,3,0,,,,,,,,,,,,,,,,right,6000,10,0.00036641226656945183,-1,0,-1,-10,659.0969724500552,None,657.0602054999908,657.3828813000582,658.0483957000542,658.3506982000545,659.0675222000573,659.3916558000492,right,1,2.5588937000138685,657.1197396999924,None,659.6029015000677,None,,,,,,,nfsmrp,001,0,fr,2022-06-21_17h04.01.963,3-AFC_adaptive_staircase_mess,2022.1.1,34.127607907684414,
,,,,,5,0,5,0,4,0,4,0,,,,,,,,,,,,,,,,right,6000,0,0.00011586973249842387,-1,0,-1,-10,663.2145421500551,663.4345329999924,661.1674780000467,661.4666163000511,662.1836985000409,662.4889653000282,663.1850919000572,663.4954548000824,right,1,2.6040497000794858,661.2271557999775,None,663.7087075000163,None,,,,,,,nfsmrp,001,0,fr,2022-06-21_17h04.01.963,3-AFC_adaptive_staircase_mess,2022.1.1,34.127607907684414,
,,,,,5,0,5,0,5,0,5,0,,,,,,,,,,,,,,,,left,6000,0,0.00011586973249842387,-1,0,-1,-10,665.386424149992,665.609685100033,665.3280763999792,665.6380453000311,666.325525399996,666.6627774999943,667.3119269000599,667.6251552000176,up,0,3.2483962000114843,665.3898743999889,None,667.8915500000585,None,,,,,,,nfsmrp,001,0,fr,2022-06-21_17h04.01.963,3-AFC_adaptive_staircase_mess,2022.1.1,34.127607907684414,
,,,,,5,0,5,0,6,0,6,0,,,,,,,,,,,,,,,,left,6000,5,0.000206048759548665,1,1,1,5,670.1898341500433,670.4120038000401,670.1311835000524,670.4409488000674,None,None,None,None,left,1,0.6262256000190973,670.1808268000605,None,None,None,,,,,,,nfsmrp,001,0,fr,2022-06-21_17h04.01.963,3-AFC_adaptive_staircase_mess,2022.1.1,34.127607907684414,
,,,,,5,0,5,0,7,0,7,0,,,,,,,,,,,,,,,,up,6000,5,0.000206048759548665,1,1,1,5,673.3275634499965,673.5516513000475,672.2759817000479,672.6032115999842,673.2678580000065,673.5798351999838,None,None,up,1,1.552776399999857,672.3345424000872,None,None,None,,,,,,,nfsmrp,001,0,fr,2022-06-21_17h04.01.963,3-AFC_adaptive_staircase_mess,2022.1.1,34.127607907684414,
,,,,,5,0,5,0,8,0,8,0,,,,,,,,,,,,,,,,up,6000,-5,6.515833892261494e-05,-1,2,-1,-5.0,676.4141127499985,None,675.3700072000502,675.6985792000778,676.3846625000006,676.707880300004,677.3915987000801,677.6915943999775,right,0,3.8041176999686286,675.4191013000673,None,677.9385861000046,None,,,,,,,nfsmrp,001,0,fr,2022-06-21_17h04.01.963,3-AFC_adaptive_staircase_mess,2022.1.1,34.127607907684414,
,,,,,5,0,5,0,9,0,9,0,,,,,,,,,,,,,,,,up,6000,-2.5,8.689004143746872e-05,1,3,1,2.5,681.7566881500185,None,680.7211641999893,681.026285000029,681.7272379000206,682.0507485000417,None,None,up,1,1.6815426000393927,680.7817599000409,None,None,None,,,,,,,nfsmrp,001,0,fr,2022-06-21_17h04.01.963,3-AFC_adaptive_staircase_mess,2022.1.1,34.127607907684414,
,,,,,5,0,5,0,10,0,10,0,,,,,,,,,,,,,,,,up,6000,-2.5,8.689004143746872e-05,1,3,1,2.5,684.9927645500517,685.2115571000613,683.9416856999742,684.2767553000012,684.9633143000538,685.268077100045,685.946054500062,686.278968000086,right,0,3.0498297000303864,684.0044197000097,None,686.515396200004,None,,,,,,,nfsmrp,001,0,fr,2022-06-21_17h04.01.963,3-AFC_adaptive_staircase_mess,2022.1.1,34.127607907684414,
,,,,,5,0,5,0,11,0,11,0,,,,,,,,,,,,,,,,left,6000,0.0,0.00011586973249842387,1,3,1,2.5,688.610084050009,None,688.5503081000643,688.8622471999843,689.5514940000139,689.8495704000816,690.5733709000051,690.8846689000493,left,1,2.2893626999575645,688.6129605000606,None,None,None,,,,,,,nfsmrp,001,0,fr,2022-06-21_17h04.01.963,3-AFC_adaptive_staircase_mess,2022.1.1,34.127607907684414,
,,,,,5,0,5,0,12,0,12,0,,,,,,,,,,,,,,,,up,6000,0.0,0.00011586973249842387,1,3,1,2.5,693.4478621500544,693.6646134000039,692.400112500065,692.7244489999721,693.3854316000361,693.6952338999836,694.3846612999914,694.7122281000484,up,1,2.6711063999682665,692.4559631000739,None,694.9500369000016,None,,,,,,,nfsmrp,001,0,fr,2022-06-21_17h04.01.963,3-AFC_adaptive_staircase_mess,2022.1.1,34.127607907684414,
,,,,,5,0,5,0,13,0,13,0,,,,,,,,,,,,,,,,right,6000,-5.0,6.515833892261494e-05,-1,4,-1,-5.0,698.6546205500141,698.8733586000744,696.5931374999927,696.8933684000513,697.6001179000596,697.9251729000825,698.5914584000129,698.9036152000772,up,0,2.968776599969715,696.6545811999822,None,699.1444756999845,None,,,,,,,nfsmrp,001,0,fr,2022-06-21_17h04.01.963,3-AFC_adaptive_staircase_mess,2022.1.1,34.127607907684414,
,,,,,5,0,5,0,14,0,14,0,,,,,,,,,,,,,,,,right,6000,-2.5,8.689004143746872e-05,1,5,1,2.5,703.161799050076,None,701.0951609000331,701.4285303000361,702.0819623999996,702.3952917000279,703.0997856999747,703.4308805000037,right,1,3.268892400083132,701.1618013000116,None,703.6502709999913,None,,,,,,,nfsmrp,001,0,fr,2022-06-21_17h04.01.963,3-AFC_adaptive_staircase_mess,2022.1.1,34.127607907684414,
,,,,,5,0,5,0,15,0,15,0,,,,,,,,,,,,,,,,right,6000,-2.5,8.689004143746872e-05,1,5,1,2.5,707.9454026500695,708.1593373999931,705.8993294000393,706.2279441000428,706.9035869999789,707.2015002000844,707.8874060000526,708.1875453999965,right,1,3.2368188000982627,705.9300112000201,None,708.4554716000566,None,,,,,,,nfsmrp,001,0,fr,2022-06-21_17h04.01.963,3-AFC_adaptive_staircase_mess,2022.1.1,34.127607907684414,
,,,,,5,0,5,0,16,0,16,0,,,,,,,,,,,,,,,,right,6000,-7.5,4.886186104779051e-05,-1,6,-1,-5.0,712.6976963500725,712.9209572999971,710.6624135000166,710.971074400004,711.6492323999992,711.9757808999857,712.637693000026,712.951229600003,left,0,2.8439428999554366,710.691242299974,None,713.1896782000549,None,,,,,,,nfsmrp,001,0,fr,2022-06-21_17h04.01.963,3-AFC_adaptive_staircase_mess,2022.1.1,34.127607907684414,
,,,,,6,0,6,0,0,0,0,0,,,,,,,,,,,,,[],[],10,up,8000,30,0.005740768107484416,0,0,-1,10,717.4121250499971,717.6259094000561,716.346857400029,716.6765094000148,717.3545982000651,717.6561548999744,None,None,up,1,1.7348047000123188,716.4079211000353,None,None,None,left,1.2804787999484688,714.5983617000747,None,714.5983617000747,None,nfsmrp,001,0,fr,2022-06-21_17h04.01.963,3-AFC_adaptive_staircase_mess,2022.1.1,34.127607907684414,
,,,,,6,0,6,0,1,0,1,0,,,,,,,,,,,,,,,,left,8000,30,0.005740768107484416,0,0,-1,10,719.6634332500631,719.8909109000815,719.6058502000524,719.9227578000864,None,None,None,None,left,1,0.45233619993086904,719.6664438999724,None,None,None,,,,,,,nfsmrp,001,0,fr,2022-06-21_17h04.01.963,3-AFC_adaptive_staircase_mess,2022.1.1,34.127607907684414,
,,,,,6,0,6,0,2,0,2,0,,,,,,,,,,,,,,,,right,8000,10,0.0005740768107484417,-1,0,-1,-10,723.6593154500239,None,721.5860456000082,721.915414200048,722.5918555000098,722.8928660000674,723.6001200000755,723.9236369000282,right,1,2.447853700025007,721.6471138000488,None,None,None,,,,,,,nfsmrp,001,0,fr,2022-06-21_17h04.01.963,3-AFC_adaptive_staircase_mess,2022.1.1,34.127607907684414,
,,,,,6,0,6,0,3,0,3,0,,,,,,,,,,,,,,,,up,8000,10,0.0005740768107484417,-1,0,-1,-10,726.6205833499786,None,725.5806722000707,725.8782464000396,726.5624525999883,726.8700429999735,None,None,up,1,1.4462043000385165,725.6085550000425,None,None,None,,,,,,,nfsmrp,001,0,fr,2022-06-21_17h04.01.963,3-AFC_adaptive_staircase_mess,2022.1.1,34.127607907684414,
,,,,,6,0,6,0,4,0,4,0,,,,,,,,,,,,,,,,left,8000,0,0.0001815390273850507,-1,0,-1,-10,728.5864444499836,728.7987868000055,728.527492400026,728.8327471000375,729.5400466000428,729.8572746000718,730.5512423000764,730.8511516000144,right,0,2.536012100055814,728.590461099986,None,731.0876591000706,None,,,,,,,nfsmrp,001,0,fr,2022-06-21_17h04.01.963,3-AFC_adaptive_staircase_mess,2022.1.1,34.127607907684414,
,,,,,6,0,6,0,5,0,5,0,,,,,,,,,,,,,,,,up,8000,5,0.00032282711451732784,1,1,1,5,733.6621602500323,None,732.6271793000633,732.9314211000456,733.6044334999751,733.9290055000456,None,None,up,1,1.498578800004907,732.6600989000872,None,None,None,,,,,,,nfsmrp,001,0,fr,2022-06-21_17h04.01.963,3-AFC_adaptive_staircase_mess,2022.1.1,34.127607907684414,
,,,,,6,0,6,0,6,0,6,0,,,,,,,,,,,,,,,,left,8000,5,0.00032282711451732784,1,1,1,5,735.6934500499862,735.9113766000373,735.6309870000696,735.9418444000185,None,None,None,None,left,1,0.5865582999540493,735.7000277000479,None,None,None,,,,,,,nfsmrp,001,0,fr,2022-06-21_17h04.01.963,3-AFC_adaptive_staircase_mess,2022.1.1,34.127607907684414,
,,,,,6,0,6,0,7,0,7,0,,,,,,,,,,,,,,,,right,8000,-5,0.00010208689723347648,-1,2,-1,-5.0,739.809615550004,None,737.7648221000563,738.0997285000049,738.7643451000331,739.0671428000787,739.780165300006,740.1059540000279,right,1,2.905911899986677,737.8286360000493,None,740.314014100004,None,,,,,,,nfsmrp,001,0,fr,2022-06-21_17h04.01.963,3-AFC_adaptive_staircase_mess,2022.1.1,34.127607907684414,
,,,,,6,0,6,0,8,0,8,0,,,,,,,,,,,,,,,,up,8000,-5,0.00010208689723347648,-1,2,-1,-5.0,743.2464963500621,None,742.2010969000403,742.5274650000501,743.2170461000642,743.5403653000249,744.206119999988,744.5391697000014,up,1,3.2747443000553176,742.2596395000583,None,744.7736840000143,None,,,,,,,nfsmrp,001,0,fr,2022-06-21_17h04.01.963,3-AFC_adaptive_staircase_mess,2022.1.1,34.127607907684414,
,,,,,6,0,6,0,9,0,9,0,,,,,,,,,,,,,,,,left,8000,-10.0,5.740768107484415e-05,-1,2,-1,-5.0,747.0586987500079,747.2889468000503,747.0007962000091,747.3196075999876,748.0092872000532,748.3453555000015,749.0115302000195,749.3449971000664,up,0,2.9080024999566376,747.0590200000443,None,749.5709426000249,None,,,,,,,nfsmrp,001,0,fr,2022-06-21_17h04.01.963,3-AFC_adaptive_staircase_mess,2022.1.1,34.127607907684414,
,,,,,6,0,6,0,10,0,10,0,,,,,,,,,,,,,,,,up,8000,-7.5,7.655437308410152e-05,1,3,1,2.5,752.5099874499953,752.7277043000795,751.4792121000355,751.781316800043,752.4805371999973,752.7899208000163,753.471764100017,753.7727439000737,up,1,2.9265142999356613,751.511903500068,None,754.0161657000426,None,,,,,,,nfsmrp,001,0,fr,2022-06-21_17h04.01.963,3-AFC_adaptive_staircase_mess,2022.1.1,34.127607907684414,
,,,,,6,0,6,0,11,0,11,0,,,,,,,,,,,,,,,,right,8000,-7.5,7.655437308410152e-05,1,3,1,2.5,757.9956850500545,None,755.9495140999788,756.2858540000161,756.9514959000517,757.2620457999874,757.9365403000265,758.260385200032,right,1,2.810847599990666,755.9805133000482,None,758.4745027000317,None,,,,,,,nfsmrp,001,0,fr,2022-06-21_17h04.01.963,3-AFC_adaptive_staircase_mess,2022.1.1,34.127607907684414,
,,,,,6,0,6,0,12,0,12,0,,,,,,,,,,,,,,,,right,8000,-12.5,4.304968760923004e-05,-1,4,-1,-5.0,762.307599950023,762.5372740000021,760.255679700058,760.5892656000797,761.2561817000387,761.5688046000432,762.2495589000173,762.5680617999751,left,0,2.8246133000357077,760.3188919000095,None,762.8125322000124,None,,,,,,,nfsmrp,001,0,fr,2022-06-21_17h04.01.963,3-AFC_adaptive_staircase_mess,2022.1.1,34.127607907684414,
,,,,,6,0,6,0,13,0,13,0,,,,,,,,,,,,,,,,right,8000,-10.0,5.740768107484415e-05,1,5,1,2.5,766.6591209500563,766.8752705000807,764.6209198000142,764.9286755999783,765.6271104000043,765.9606416000752,766.6296707000583,766.9373430000851,up,0,2.964250599965453,764.6827817000449,None,767.1739096000092,None,,,,,,,nfsmrp,001,0,fr,2022-06-21_17h04.01.963,3-AFC_adaptive_staircase_mess,2022.1.1,34.127607907684414,
,,,,,6,0,6,0,14,0,14,0,,,,,,,,,,,,,,,,right,8000,-7.5,7.655437308410152e-05,1,5,1,2.5,771.1986737500644,771.4133403999731,769.1261801000219,769.4309699999867,770.1227243000176,770.4314136999892,771.1407040000195,771.4447929000016,left,0,3.036780899972655,769.1854502999922,None,771.7003885000013,None,,,,,,,nfsmrp,001,0,fr,2022-06-21_17h04.01.963,3-AFC_adaptive_staircase_mess,2022.1.1,34.127607907684414,
,,,,,6,0,6,0,15,0,15,0,,,,,,,,,,,,,,,,left,8000,-5.0,0.00010208689723347648,1,5,1,2.5,773.764025450009,773.9824446000857,773.7017976000207,774.0141261999961,774.7031169000547,775.0351919999812,775.7069581000833,776.0411638000514,up,0,3.0940448000328615,773.7684934000717,None,776.2719917000504,None,,,,,,,nfsmrp,001,0,fr,2022-06-21_17h04.01.963,3-AFC_adaptive_staircase_mess,2022.1.1,34.127607907684414,
,,,,,6,0,6,0,16,0,16,0,,,,,,,,,,,,,,,,up,8000,-2.5,0.00013613506540389563,1,5,1,2.5,779.3873046500609,None,778.3411606000736,778.6432131000329,779.3578544000629,779.6819028999889,780.3475283000153,780.6722932000412,right,0,2.7368776000803337,778.4064835000318,None,780.9095060999971,None,,,,,,,nfsmrp,001,0,fr,2022-06-21_17h04.01.963,3-AFC_adaptive_staircase_mess,2022.1.1,34.127607907684414,
,,,,,6,0,6,0,17,0,17,0,,,,,,,,,,,,,,,,right,8000,0.0,0.0001815390273850507,1,5,1,2.5,784.6672110500746,784.8934875000268,782.6120151000796,782.9453321000328,783.6140771000646,783.946941900067,784.6095949000446,784.9254353999859,left,0,3.312991200014949,782.6786882000742,None,785.1824220999843,None,,,,,,,nfsmrp,001,0,fr,2022-06-21_17h04.01.963,3-AFC_adaptive_staircase_mess,2022.1.1,34.127607907684414,
,,,,,6,0,6,0,18,0,18,0,,,,,,,,,,,,,,,,left,8000,2.5,0.00024208618379204972,1,5,1,2.5,787.5453080500243,787.7626424999908,787.4843860000838,787.7943093000213,788.4867340000346,788.8198284000391,789.4864597000415,789.8200959999813,left,1,2.786738199996762,787.5491038999753,None,790.0527299999958,None,,,,,,,nfsmrp,001,0,fr,2022-06-21_17h04.01.963,3-AFC_adaptive_staircase_mess,2022.1.1,34.127607907684414,
,,,,,6,0,6,0,19,0,19,0,,,,,,,,,,,,,,,,right,8000,2.5,0.00024208618379204972,1,5,1,2.5,793.8850021499908,794.1018852000125,791.8153536000755,792.123881699983,792.8283755000448,793.153513199999,793.8221743999748,794.1341115999967,right,1,3.018890199949965,791.8762539000018,None,794.3829538000282,None,,,,,,,nfsmrp,001,0,fr,2022-06-21_17h04.01.963,3-AFC_adaptive_staircase_mess,2022.1.1,34.127607907684414,
,,,,,6,0,6,0,20,0,20,0,,,,,,,,,,,,,,,,left,8000,-2.5,0.00013613506540389563,-1,6,-1,-5.0,796.393807649985,None,796.3643573999871,796.6954173999839,797.3552176000085,797.6635894000065,798.3444962999783,798.6609522000654,up,0,3.169669899973087,796.3974845000776,None,798.907739700051,None,,,,,,,nfsmrp,001,0,fr,2022-06-21_17h04.01.963,3-AFC_adaptive_staircase_mess,2022.1.1,34.127607907684414,
,,,,,7,0,7,0,0,0,0,0,,,,,,,,,,,,,[],[],10,right,750,30,0.0012851978913844323,0,0,-1,10,804.4324422499864,804.646673600073,802.3932445000391,802.7005308000371,803.3845266000135,803.7003249999834,804.3697199000744,804.6787800000748,right,1,2.4325787000125274,802.4212743000826,None,None,None,left,1.3066053999355063,800.627934899996,None,800.627934899996,None,nfsmrp,001,0,fr,2022-06-21_17h04.01.963,3-AFC_adaptive_staircase_mess,2022.1.1,34.127607907684414,
,,,,,7,0,7,0,1,0,1,0,,,,,,,,,,,,,,,,up,750,30,0.0012851978913844323,0,0,-1,10,807.4023930500495,None,806.3310391000705,806.6436502999859,807.3436509000603,807.6714550000615,None,None,up,1,1.4638399999821559,806.3913597000064,None,None,None,,,,,,,nfsmrp,001,0,fr,2022-06-21_17h04.01.963,3-AFC_adaptive_staircase_mess,2022.1.1,34.127607907684414,
,,,,,7,0,7,0,2,0,2,0,,,,,,,,,,,,,,,,left,750,10,0.00012851978913844324,-1,0,-1,-10,809.3666098499904,809.5834732999792,809.3042292000027,809.616356600076,None,None,None,None,left,1,0.5471282999496907,809.3708025000524,None,None,None,,,,,,,nfsmrp,001,0,fr,2022-06-21_17h04.01.963,3-AFC_adaptive_staircase_mess,2022.1.1,34.127607907684414,
,,,,,7,0,7,0,3,0,3,0,,,,,,,,,,,,,,,,left,750,10,0.00012851978913844324,-1,0,-1,-10,811.4592428499833,None,811.3976846999722,811.7183109000325,None,None,None,None,left,1,0.5567043999908492,811.4579851999879,None,None,None,,,,,,,nfsmrp,001,0,fr,2022-06-21_17h04.01.963,3-AFC_adaptive_staircase_mess,2022.1.1,34.127607907684414,
,,,,,7,0,7,0,4,0,4,0,,,,,,,,,,,,,,,,up,750,0,4.064152580820497e-05,-1,0,-1,-10,814.5764298499795,814.7894160000142,813.5070859000552,813.8110420000739,814.5174072000664,814.8211767000612,815.5143968000775,815.8469424999785,right,0,2.971843200037256,813.5710275999736,None,816.071749900002,None,,,,,,,nfsmrp,001,0,fr,2022-06-21_17h04.01.963,3-AFC_adaptive_staircase_mess,2022.1.1,34.127607907684414,
,,,,,7,0,7,0,5,0,5,0,,,,,,,,,,,,,,,,left,750,5,7.22719885372964e-05,1,1,1,5,818.0775754499715,818.294275399996,818.0149312000722,818.3266845999751,None,None,None,None,left,1,0.7103942999383435,818.0811969999922,None,None,None,,,,,,,nfsmrp,001,0,fr,2022-06-21_17h04.01.963,3-AFC_adaptive_staircase_mess,2022.1.1,34.127607907684414,
,,,,,7,0,7,0,6,0,6,0,,,,,,,,,,,,,,,,up,750,5,7.22719885372964e-05,1,1,1,5,821.3368002500152,821.5640361000551,820.2818869000766,820.5862465000246,821.2787145000184,821.5968917000573,None,None,up,1,1.623893199954182,820.3513580000727,None,None,None,,,,,,,nfsmrp,001,0,fr,2022-06-21_17h04.01.963,3-AFC_adaptive_staircase_mess,2022.1.1,34.127607907684414,
,,,,,7,0,7,0,7,0,7,0,,,,,,,,,,,,,,,,up,750,-5,2.285440948074376e-05,-1,2,-1,-5.0,824.5180870499695,824.7331788999727,823.4679822999751,823.785990000004,824.4553969000699,824.7654256999958,825.4670119000366,825.7911744000157,up,1,2.5162639999762177,823.4982554999879,None,826.0159597999882,None,,,,,,,nfsmrp,001,0,fr,2022-06-21_17h04.01.963,3-AFC_adaptive_staircase_mess,2022.1.1,34.127607907684414,
,,,,,7,0,7,0,8,0,8,0,,,,,,,,,,,,,,,,right,750,-5,2.285440948074376e-05,-1,2,-1,-5.0,829.5414597500582,None,827.4943863999797,827.8265574000543,828.4888735000277,828.7957273999928,829.4821699999738,829.8047096000519,right,1,2.926285699941218,827.561229199986,None,830.0528186999727,None,,,,,,,nfsmrp,001,0,fr,2022-06-21_17h04.01.963,3-AFC_adaptive_staircase_mess,2022.1.1,34.127607907684414,
,,,,,7,0,7,0,9,0,9,0,,,,,,,,,,,,,,,,up,750,-10.0,1.2851978913844322e-05,-1,2,-1,-5.0,833.0154602499912,None,831.9598319000797,832.272436200059,832.9572234000079,833.273251799983,833.9632037000265,834.2966889999807,right,0,3.6128726999741048,832.0258335000835,None,834.5148417999735,None,,,,,,,nfsmrp,001,0,fr,2022-06-21_17h04.01.963,3-AFC_adaptive_staircase_mess,2022.1.1,34.127607907684414,
,,,,,7,0,7,0,10,0,10,0,,,,,,,,,,,,,,,,left,750,-7.5,1.7138389327322525e-05,1,3,1,2.5,837.1982464500703,None,837.1343120000092,837.4660320000257,838.1345464000478,838.465778300073,839.1425019999733,839.4696120000444,left,1,3.94826400000602,837.2014556999784,None,839.6929440000094,None,,,,,,,nfsmrp,001,0,fr,2022-06-21_17h04.01.963,3-AFC_adaptive_staircase_mess,2022.1.1,34.127607907684414,
,,,,,7,0,7,0,11,0,11,0,,,,,,,,,,,,,,,,right,750,-7.5,1.7138389327322525e-05,1,3,1,2.5,844.6901615499752,None,842.6343812000705,842.9420997999841,843.6370128000854,843.9425284999888,844.6607112999773,844.9813999000471,left,0,4.758719300036319,842.6953599000117,None,845.2068127000239,None,,,,,,,nfsmrp,001,0,fr,2022-06-21_17h04.01.963,3-AFC_adaptive_staircase_mess,2022.1.1,34.127607907684414,
,,,,,7,0,7,0,12,0,12,0,,,,,,,,,,,,,,,,right,750,-5.0,2.285440948074376e-05,1,3,1,2.5,851.011628550035,851.2268009000691,848.9561337999767,849.2695610000519,849.9458487000084,850.2777508000145,850.9505796000594,851.2588006000733,right,1,3.3082032999955118,849.0177300000796,None,851.5199301000684,None,,,,,,,nfsmrp,001,0,fr,2022-06-21_17h04.01.963,3-AFC_adaptive_staircase_mess,2022.1.1,34.127607907684414,
,,,,,7,0,7,0,13,0,13,0,,,,,,,,,,,,,,,,right,750,-5.0,2.285440948074376e-05,1,3,1,2.5,855.8886265499983,856.0993588999845,853.8185270000249,854.1499304000754,854.8324490999803,855.1603809000226,855.825727700023,856.131429900066,up,0,2.9947127000195906,853.8841244999785,None,856.3876333000371,None,,,,,,,nfsmrp,001,0,fr,2022-06-21_17h04.01.963,3-AFC_adaptive_staircase_mess,2022.1.1,34.127607907684414,
,,,,,7,0,7,0,14,0,14,0,,,,,,,,,,,,,,,,up,750,-2.5,3.0476844862008466e-05,1,3,1,2.5,859.4187299499987,859.6352796000428,858.3575236999895,858.6657317000208,859.3584745000117,859.6675838000374,860.3685394000495,860.6965746000642,up,1,2.9664880000054836,858.4237354000797,None,860.9192212000489,None,,,,,,,nfsmrp,001,0,fr,2022-06-21_17h04.01.963,3-AFC_adaptive_staircase_mess,2022.1.1,34.127607907684414,
,,,,,7,0,7,0,15,0,15,0,,,,,,,,,,,,,,,,right,750,-2.5,3.0476844862008466e-05,1,3,1,2.5,864.9196127500851,865.1408546000021,862.8590988999931,863.1658635999775,863.8680938000325,864.2014997000806,864.860008000047,865.173796200077,right,1,2.834932699915953,862.9242703000782,None,865.4161528000841,None,,,,,,,nfsmrp,001,0,fr,2022-06-21_17h04.01.963,3-AFC_adaptive_staircase_mess,2022.1.1,34.127607907684414,
,,,,,7,0,7,0,16,0,16,0,,,,,,,,,,,,,,,,left,750,-7.5,1.7138389327322525e-05,-1,4,-1,-5.0,867.2890159500763,867.510145700071,867.2595657000784,867.5683822000865,868.2317467000103,868.564406700083,869.2308894000016,869.534665800049,right,0,3.0466290999902412,867.2886227000272,None,869.8115161000751,None,,,,,,,nfsmrp,001,0,fr,2022-06-21_17h04.01.963,3-AFC_adaptive_staircase_mess,2022.1.1,34.127607907684414,
,,,,,7,0,7,0,17,0,17,0,,,,,,,,,,,,,,,,right,750,-5.0,2.285440948074376e-05,1,5,1,2.5,873.8735862500267,874.0969709000783,871.807678900077,872.1089375000447,872.7997417000588,873.101317099994,873.8107768000336,874.1254215000663,right,1,3.440593699924648,871.8699048000854,None,874.3802156000165,None,,,,,,,nfsmrp,001,0,fr,2022-06-21_17h04.01.963,3-AFC_adaptive_staircase_mess,2022.1.1,34.127607907684414,
,,,,,7,0,7,0,18,0,18,0,,,,,,,,,,,,,,,,up,750,-5.0,2.285440948074376e-05,1,5,1,2.5,877.8720998500008,878.0873067000648,876.8037487000693,877.106534200022,877.8125068000518,878.1201630000724,878.8065976999933,879.1145886000013,right,0,3.1672039000550285,876.8631278000539,None,879.3546157000819,None,,,,,,,nfsmrp,001,0,fr,2022-06-21_17h04.01.963,3-AFC_adaptive_staircase_mess,2022.1.1,34.127607907684414,
,,,,,7,0,7,0,19,0,19,0,,,,,,,,,,,,,,,,up,750,-2.5,3.0476844862008466e-05,1,5,1,2.5,882.5584809499793,882.7753833000315,881.526232299977,881.8425305000274,882.5290306999814,882.8369542000582,883.518711199984,883.8439381000353,up,1,2.89917270001024,881.5559719000012,None,884.0864302000264,None,,,,,,,nfsmrp,001,0,fr,2022-06-21_17h04.01.963,3-AFC_adaptive_staircase_mess,2022.1.1,34.127607907684414,
,,,,,7,0,7,0,20,0,20,0,,,,,,,,,,,,,,,,right,750,-2.5,3.0476844862008466e-05,1,5,1,2.5,887.9884839500534,None,885.9382094000466,886.2461100000655,886.9573646000354,887.2764038000023,887.9590337000554,888.265991399996,left,0,2.688424599939026,885.9981345999986,None,888.5044428000692,None,,,,,,,nfsmrp,001,0,fr,2022-06-21_17h04.01.963,3-AFC_adaptive_staircase_mess,2022.1.1,34.127607907684414,
,,,,,7,0,7,0,21,0,21,0,,,,,,,,,,,,,,,,up,750,0.0,4.064152580820497e-05,1,5,1,2.5,891.2129130499903,None,890.1596102999756,890.4869359000586,891.1535871999804,891.4640484000556,892.1492674000328,892.4358369000256,up,1,2.4187543999869376,890.2191568000708,None,None,None,,,,,,,nfsmrp,001,0,fr,2022-06-21_17h04.01.963,3-AFC_adaptive_staircase_mess,2022.1.1,34.127607907684414,
,,,,,7,0,7,0,22,0,22,0,,,,,,,,,,,,,,,,left,750,0.0,4.064152580820497e-05,1,5,1,2.5,894.1662493500859,894.3872421000851,894.136799100088,894.4721331000328,895.1243664000649,895.4514161000261,896.1404404999921,896.4431302000303,left,1,2.7222991000162438,894.1641916000517,None,896.6796277000103,None,,,,,,,nfsmrp,001,0,fr,2022-06-21_17h04.01.963,3-AFC_adaptive_staircase_mess,2022.1.1,34.127607907684414,
,,,,,7,0,7,0,23,0,23,0,,,,,,,,,,,,,,,,left,750,-5.0,2.285440948074376e-05,-1,6,-1,-5.0,898.4137749499874,None,898.3843246999895,898.7034184000222,899.3880665000761,899.6770466000307,900.3778771000216,900.705687000067,left,1,4.054425199981779,898.4159636000404,None,900.9158923000796,None,,,,,,,nfsmrp,001,0,fr,2022-06-21_17h04.01.963,3-AFC_adaptive_staircase_mess,2022.1.1,34.127607907684414,
,,,,,8,0,8,0,0,0,0,0,,,,,,,,,,,,,[],[],10,up,500,30,0.002259279721874612,0,0,-1,10,906.177258949983,None,905.1361145999981,905.4386533000506,906.147808699985,906.4580043000169,None,None,up,1,1.5481693999608979,905.1948464000598,None,None,None,left,1.146138699958101,903.5400521000847,None,903.5400521000847,None,nfsmrp,001,0,fr,2022-06-21_17h04.01.963,3-AFC_adaptive_staircase_mess,2022.1.1,34.127607907684414,
,,,,,8,0,8,0,1,0,1,0,,,,,,,,,,,,,,,,right,500,30,0.002259279721874612,0,0,-1,10,910.275624549971,910.5014123000437,908.2327835999895,908.5344825000502,909.220831100014,909.5591788999736,910.2153969000792,910.5288702000398,right,1,2.728496100055054,908.2941768000601,None,910.7954198999796,None,,,,,,,nfsmrp,001,0,fr,2022-06-21_17h04.01.963,3-AFC_adaptive_staircase_mess,2022.1.1,34.127607907684414,
,,,,,8,0,8,0,2,0,2,0,,,,,,,,,,,,,,,,right,500,10,0.0002259279721874612,-1,0,-1,-10,914.557327250042,None,912.4925886000274,912.7957305000164,913.5133729000809,913.8174055999843,914.5278770000441,914.8510139000136,right,1,2.406599899986759,912.5527190000284,None,None,None,,,,,,,nfsmrp,001,0,fr,2022-06-21_17h04.01.963,3-AFC_adaptive_staircase_mess,2022.1.1,34.127607907684414,
,,,,,8,0,8,0,3,0,3,0,,,,,,,,,,,,,,,,right,500,10,0.0002259279721874612,-1,0,-1,-10,918.4711863500066,918.6926596000558,916.435619099997,916.7388689999934,917.4225178000052,917.7265947000124,918.4417361000087,918.7564594000578,right,1,2.4999672000994906,916.466257299995,None,918.9908922000322,None,,,,,,,nfsmrp,001,0,fr,2022-06-21_17h04.01.963,3-AFC_adaptive_staircase_mess,2022.1.1,34.127607907684414,
,,,,,8,0,8,0,4,0,4,0,,,,,,,,,,,,,,,,left,500,0,7.144469792555515e-05,-1,0,-1,-10,920.5388290500501,920.7526504000416,920.4761015999829,920.7829041000223,None,None,None,None,left,1,0.5755715999985114,920.5425933999941,None,None,None,,,,,,,nfsmrp,001,0,fr,2022-06-21_17h04.01.963,3-AFC_adaptive_staircase_mess,2022.1.1,34.127607907684414,
,,,,,8,0,8,0,5,0,5,0,,,,,,,,,,,,,,,,left,500,0,7.144469792555515e-05,-1,0,-1,-10,922.6425225499785,922.8642603000626,922.6130722999806,922.9266552000772,None,None,None,None,left,1,0.47109970008023083,922.6466821000213,None,None,None,,,,,,,nfsmrp,001,0,fr,2022-06-21_17h04.01.963,3-AFC_adaptive_staircase_mess,2022.1.1,34.127607907684414,
,,,,,8,0,8,0,6,0,6,0,,,,,,,,,,,,,,,,up,500,-10,2.259279721874613e-05,-1,0,-1,-10,925.662652850058,None,924.6102656000294,924.900935200043,925.604659600067,925.9244764000177,926.6070046999957,926.9039027000545,up,1,2.9324586000293493,924.6672681000782,None,927.1528316000476,None,,,,,,,nfsmrp,001,0,fr,2022-06-21_17h04.01.963,3-AFC_adaptive_staircase_mess,2022.1.1,34.127607907684414,
,,,,,8,0,8,0,7,0,7,0,,,,,,,,,,,,,,,,right,500,-10,2.259279721874613e-05,-1,0,-1,-10,931.1424698500429,931.3620482999831,929.0839130000677,929.4061269999947,930.0755231999792,930.4009775000159,931.1130196000449,931.4244022000348,right,1,2.9623126999940723,929.1480487000663,None,931.6415518000722,None,,,,,,,nfsmrp,001,0,fr,2022-06-21_17h04.01.963,3-AFC_adaptive_staircase_mess,2022.1.1,34.127607907684414,
,,,,,8,0,8,0,8,0,8,0,,,,,,,,,,,,,,,,left,500,-20,7.1444697925555186e-06,-1,0,-1,-10,933.6653219500091,None,933.6044687000103,933.9311133000301,934.6269266000018,934.927114100079,935.6046472999733,935.9064048000146,up,0,3.109697200008668,933.6652838999871,None,936.1449550000252,None,,,,,,,nfsmrp,001,0,fr,2022-06-21_17h04.01.963,3-AFC_adaptive_staircase_mess,2022.1.1,34.127607907684414,
,,,,,8,0,8,0,9,0,9,0,,,,,,,,,,,,,,,,right,500,-15,1.2704863527746532e-05,1,1,1,5,940.3083772500046,None,938.266495399992,938.596657600021,939.2488199999789,939.561947899987,940.2453646999784,940.5563658999745,right,1,2.8721593999071047,938.2953465000028,None,940.8229769000318,None,,,,,,,nfsmrp,001,0,fr,2022-06-21_17h04.01.963,3-AFC_adaptive_staircase_mess,2022.1.1,34.127607907684414,
,,,,,8,0,8,0,10,0,10,0,,,,,,,,,,,,,,,,up,500,-15,1.2704863527746532e-05,1,1,1,5,943.6757999500493,None,942.631790000014,942.9655715000117,943.6463497000514,943.9698307000799,944.6351715000346,944.9714456000365,up,1,2.5417822001036257,942.6967352000065,None,945.2032971000299,None,,,,,,,nfsmrp,001,0,fr,2022-06-21_17h04.01.963,3-AFC_adaptive_staircase_mess,2022.1.1,34.127607907684414,
,,,,,8,0,8,0,11,0,11,0,,,,,,,,,,,,,,,,right,500,-25,4.017630610928088e-06,-1,2,-1,-5.0,948.7700928499922,948.9807063000044,946.7012984000612,947.0042905000737,947.7192584000295,948.0407362000551,948.7080206000246,949.0100083000725,up,0,2.865462700021453,946.7575693000108,None,949.2744141999865,None,,,,,,,nfsmrp,001,0,fr,2022-06-21_17h04.01.963,3-AFC_adaptive_staircase_mess,2022.1.1,34.127607907684414,
,,,,,8,0,8,0,12,0,12,0,,,,,,,,,,,,,,,,left,500,-22.5,5.357596526188035e-06,1,3,1,2.5,951.1705169499852,None,951.1114128000336,951.4226873000152,952.1401174999774,952.4431318000425,953.1243590000086,953.4244321000297,right,0,3.12113089999184,951.1736904000863,None,953.6638533000369,None,,,,,,,nfsmrp,001,0,fr,2022-06-21_17h04.01.963,3-AFC_adaptive_staircase_mess,2022.1.1,34.127607907684414,
,,,,,8,0,8,0,13,0,13,0,,,,,,,,,,,,,,,,right,500,-20.0,7.1444697925555186e-06,1,3,1,2.5,957.8314629500034,958.0497850000393,955.7997334999964,956.0993678000523,956.7887090999866,957.1152164000086,957.8020127000054,958.1052408000687,left,0,2.8736218999838457,955.8293428000761,None,958.3501958000707,None,,,,,,,nfsmrp,001,0,fr,2022-06-21_17h04.01.963,3-AFC_adaptive_staircase_mess,2022.1.1,34.127607907684414,
,,,,,8,0,8,0,14,0,14,0,,,,,,,,,,,,,,,,up,500,-17.5,9.52730358981624e-06,1,3,1,2.5,961.2519777500071,961.4735041999957,960.2057007000549,960.5049772000639,961.1937849000096,961.5005917000817,962.2116326000541,962.5203972000163,up,1,2.7296391000272706,960.2372435000725,None,962.7582848999882,None,,,,,,,nfsmrp,001,0,fr,2022-06-21_17h04.01.963,3-AFC_adaptive_staircase_mess,2022.1.1,34.127607907684414,
,,,,,8,0,8,0,15,0,15,0,,,,,,,,,,,,,,,,left,500,-17.5,9.52730358981624e-06,1,3,1,2.5,964.5177643500734,None,964.4587100000354,964.7705506000202,965.478243599995,965.7817817999749,966.4665163999889,966.7986518000253,up,0,3.1586050000041723,964.5202870999929,None,967.0221863000188,None,,,,,,,nfsmrp,001,0,fr,2022-06-21_17h04.01.963,3-AFC_adaptive_staircase_mess,2022.1.1,34.127607907684414,
,,,,,8,0,8,0,16,0,16,0,,,,,,,,,,,,,,,,right,500,-15.0,1.2704863527746532e-05,1,3,1,2.5,971.2228039499838,971.4433661000803,969.1683592000045,969.4970018999884,970.1794327000389,970.4950455999933,971.1933536999859,971.5039327000268,right,1,2.620790700078942,969.2258946000366,None,971.7411835000385,None,,,,,,,nfsmrp,001,0,fr,2022-06-21_17h04.01.963,3-AFC_adaptive_staircase_mess,2022.1.1,34.127607907684414,
,,,,,8,0,8,0,17,0,17,0,,,,,,,,,,,,,,,,right,500,-15.0,1.2704863527746532e-05,1,3,1,2.5,975.3788853499806,None,973.3409268000396,973.6659094999777,974.355193400057,974.6656820999924,975.3494350999827,975.6713056999724,up,0,2.6149927999358624,973.3992471999954,None,975.902702899999,None,,,,,,,nfsmrp,001,0,fr,2022-06-21_17h04.01.963,3-AFC_adaptive_staircase_mess,2022.1.1,34.127607907684414,
,,,,,8,0,8,0,18,0,18,0,,,,,,,,,,,,,,,,right,500,-12.5,1.6942207806960138e-05,1,3,1,2.5,979.554507049988,None,977.5243536999915,977.8366954000667,978.5236261000391,978.848500900087,979.4967416999862,979.8173637000145,up,0,3.087634399998933,977.5507669000654,None,980.0576804999728,None,,,,,,,nfsmrp,001,0,fr,2022-06-21_17h04.01.963,3-AFC_adaptive_staircase_mess,2022.1.1,34.127607907684414,
,,,,,8,0,8,0,19,0,19,0,,,,,,,,,,,,,,,,right,500,-10.0,2.259279721874613e-05,1,3,1,2.5,984.1820181500167,None,982.1147895000177,982.4405382000841,983.1172117000679,983.4411777000641,984.1230870999862,984.4476711000316,left,0,3.3701828999910504,982.1733318000333,None,984.6822944000596,None,,,,,,,nfsmrp,001,0,fr,2022-06-21_17h04.01.963,3-AFC_adaptive_staircase_mess,2022.1.1,34.127607907684414,
,,,,,8,0,8,0,20,0,20,0,,,,,,,,,,,,,,,,right,500,-7.5,3.0127979303717903e-05,1,3,1,2.5,989.0779597499874,None,987.0088377000066,987.3326836000197,988.0105438000755,988.3124578000279,989.0185097000794,989.337799299974,up,0,2.558069000020623,987.0649069000501,None,989.5736377000576,None,,,,,,,nfsmrp,001,0,fr,2022-06-21_17h04.01.963,3-AFC_adaptive_staircase_mess,2022.1.1,34.127607907684414,
,,,,,8,0,8,0,21,0,21,0,,,,,,,,,,,,,,,,right,500,-5.0,4.017630610928089e-05,1,3,1,2.5,993.1326396500459,993.3512771000387,991.0975385999773,991.4181631000247,992.1038402999984,992.4184607000789,993.103189400048,993.4081442999886,right,1,2.569620400085114,991.156495400006,None,993.6442735000746,None,,,,,,,nfsmrp,001,0,fr,2022-06-21_17h04.01.963,3-AFC_adaptive_staircase_mess,2022.1.1,34.127607907684414,
,,,,,8,0,8,0,22,0,22,0,,,,,,,,,,,,,,,,right,500,-5.0,4.017630610928089e-05,1,3,1,2.5,997.2416146500269,997.4592280000215,995.1987856000196,995.4970445000799,996.191876100027,996.4900670000352,997.212164400029,997.5145624000579,left,0,2.5339399999938905,995.2569767000386,None,997.7511735999724,None,,,,,,,nfsmrp,001,0,fr,2022-06-21_17h04.01.963,3-AFC_adaptive_staircase_mess,2022.1.1,34.127607907684414,
,,,,,8,0,8,0,23,0,23,0,,,,,,,,,,,,,,,,up,500,-2.5,5.357596526188033e-05,1,3,1,2.5,1000.3179588499712,1000.5389416000107,999.2736581000499,999.5729447000194,1000.2575386000099,1000.5693260000553,1001.2768419000786,1001.5950640999945,up,1,2.846881299978122,999.3027962000342,None,1001.8284155000001,None,,,,,,,nfsmrp,001,0,fr,2022-06-21_17h04.01.963,3-AFC_adaptive_staircase_mess,2022.1.1,34.127607907684414,
,,,,,8,0,8,0,24,0,24,0,,,,,,,,,,,,,,,,up,500,-2.5,5.357596526188033e-05,1,3,1,2.5,1004.687673550006,1004.913550700061,1003.6240211999975,1003.9276607000502,1004.6279367000097,1004.943494600011,1005.6210735000204,1005.94813480007,up,1,2.6929961000569165,1003.681468200055,None,1006.184967600042,None,,,,,,,nfsmrp,001,0,fr,2022-06-21_17h04.01.963,3-AFC_adaptive_staircase_mess,2022.1.1,34.127607907684414,
,,,,,8,0,8,0,25,0,25,0,,,,,,,,,,,,,,,,right,500,-7.5,3.0127979303717903e-05,-1,4,-1,-5.0,1009.9200736499857,1010.1453035000013,1007.8666639999719,1008.2026307000779,1008.8597643000539,1009.169567600009,1009.8618115000427,1010.1744101999793,left,0,3.1089475998887792,1007.9293160000816,None,1010.434894700069,None,,,,,,,nfsmrp,001,0,fr,2022-06-21_17h04.01.963,3-AFC_adaptive_staircase_mess,2022.1.1,34.127607907684414,
,,,,,8,0,8,0,26,0,26,0,,,,,,,,,,,,,,,,up,500,-5.0,4.017630610928089e-05,1,5,1,2.5,1013.5487881499809,None,1012.5058174000587,1012.8397837000666,1013.5193378999829,1013.8432968000416,1014.5223578000441,1014.8513052000199,up,1,2.88546410005074,1012.5683891000226,None,1015.0626224000007,None,,,,,,,nfsmrp,001,0,fr,2022-06-21_17h04.01.963,3-AFC_adaptive_staircase_mess,2022.1.1,34.127607907684414,
,,,,,8,0,8,0,27,0,27,0,,,,,,,,,,,,,,,,left,500,-5.0,4.017630610928089e-05,1,5,1,2.5,1017.0001728500007,1017.224756999989,1016.939757800079,1017.2555070000235,1017.93713570002,1018.2455621000845,1018.9577455000253,1019.281467200024,right,0,3.0317639999557287,1016.998714699992,None,1019.4997671999736,None,,,,,,,nfsmrp,001,0,fr,2022-06-21_17h04.01.963,3-AFC_adaptive_staircase_mess,2022.1.1,34.127607907684414,
,,,,,8,0,8,0,28,0,28,0,,,,,,,,,,,,,,,,up,500,-2.5,5.357596526188033e-05,1,5,1,2.5,1022.5863471500576,1022.8066386000719,1021.516168900067,1021.8149675000459,1022.5267976999748,1022.823139199987,1023.5385279000038,1023.8513418000657,up,1,2.6968998999800533,1021.5819254000671,None,1024.0891955000116,None,,,,,,,nfsmrp,001,0,fr,2022-06-21_17h04.01.963,3-AFC_adaptive_staircase_mess,2022.1.1,34.127607907684414,
,,,,,8,0,8,0,29,0,29,0,,,,,,,,,,,,,,,,up,500,-2.5,5.357596526188033e-05,1,5,1,2.5,1026.8039269499945,1027.0195724000223,1025.7832024000818,1026.0876814000076,1026.7744766999967,1027.076044299989,1027.7597234999994,1028.0880992000457,up,1,2.618596800020896,1025.8108369000256,None,1028.3241494999966,None,,,,,,,nfsmrp,001,0,fr,2022-06-21_17h04.01.963,3-AFC_adaptive_staircase_mess,2022.1.1,34.127607907684414,
,,,,,8,0,8,0,30,0,30,0,,,,,,,,,,,,,,,,up,500,-7.5,3.0127979303717903e-05,-1,6,-1,-5.0,1030.9890867499867,1031.2059755000519,1029.9269361000042,1030.2490144000622,1030.9264412000775,1031.2373898000224,1031.9421520000324,1032.2597222999902,up,1,2.7483304000925273,1029.9938205999788,None,1032.4981612000847,None,,,,,,,nfsmrp,001,0,fr,2022-06-21_17h04.01.963,3-AFC_adaptive_staircase_mess,2022.1.1,34.127607907684414,
,,,,,9,0,9,0,0,0,0,0,,,,,,,,,,,,,[],[],10,left,250,30,0.005296268625886445,0,0,-1,10,1035.6449892500182,1035.8755997000262,1035.6155390000204,1035.9365602000616,None,None,None,None,left,1,0.8011077999835834,1035.6462544000242,None,None,None,up,1.3379197000758722,1033.8215519000078,None,1033.8215519000078,None,nfsmrp,001,0,fr,2022-06-21_17h04.01.963,3-AFC_adaptive_staircase_mess,2022.1.1,34.127607907684414,
,,,,,9,0,9,0,1,0,1,0,,,,,,,,,,,,,,,,right,250,30,0.005296268625886445,0,0,-1,10,1039.9935494499746,1040.2147677000612,1037.9318153000204,1038.2340027000755,1038.9239112000214,1039.234826000058,1039.9321190000046,1040.2456077000825,right,1,2.5763714999193326,1037.9907323999796,None,1040.4695833000587,None,,,,,,,nfsmrp,001,0,fr,2022-06-21_17h04.01.963,3-AFC_adaptive_staircase_mess,2022.1.1,34.127607907684414,
,,,,,9,0,9,0,2,0,2,0,,,,,,,,,,,,,,,,up,250,10,0.0005296268625886444,-1,0,-1,-10,1043.1003909500082,1043.3152633000864,1042.0703049000585,1042.402511100052,1043.0709407000104,1043.3770021999953,None,None,up,1,1.543755799997598,1042.1033817999996,None,None,None,,,,,,,nfsmrp,001,0,fr,2022-06-21_17h04.01.963,3-AFC_adaptive_staircase_mess,2022.1.1,34.127607907684414,
,,,,,9,0,9,0,3,0,3,0,,,,,,,,,,,,,,,,right,250,10,0.0005296268625886444,-1,0,-1,-10,1047.176995450072,1047.3934020000743,1045.123275400023,1045.4415112000424,1046.1396230000537,1046.4473080000607,1047.118672600016,1047.419915299979,right,1,2.3674083000514656,1045.1833426000085,None,None,None,,,,,,,nfsmrp,001,0,fr,2022-06-21_17h04.01.963,3-AFC_adaptive_staircase_mess,2022.1.1,34.127607907684414,
,,,,,9,0,9,0,4,0,4,0,,,,,,,,,,,,,,,,left,250,0,0.0001674827195789138,-1,0,-1,-10,1049.0976660499814,1049.3234277999727,1049.0682157999836,1049.3851359999971,None,None,None,None,left,1,0.7339968000305817,1049.096980900038,None,None,None,,,,,,,nfsmrp,001,0,fr,2022-06-21_17h04.01.963,3-AFC_adaptive_staircase_mess,2022.1.1,34.127607907684414,
,,,,,9,0,9,0,5,0,5,0,,,,,,,,,,,,,,,,up,250,0,0.0001674827195789138,-1,0,-1,-10,1052.3598596500465,None,1051.3108982000267,1051.614030500059,1052.3304094000487,1052.6542273000814,None,None,up,1,1.4994708000449464,1051.370645900024,None,None,None,,,,,,,nfsmrp,001,0,fr,2022-06-21_17h04.01.963,3-AFC_adaptive_staircase_mess,2022.1.1,34.127607907684414,
,,,,,9,0,9,0,6,0,6,0,,,,,,,,,,,,,,,,up,250,-10,5.296268625886443e-05,-1,0,-1,-10,1055.434094449994,1055.6624526000815,1054.3779680000152,1054.6824064999819,1055.3757776999846,1055.693882600055,1056.3666518999962,1056.6837391000008,right,0,2.6109914999688044,1054.4359502000734,None,1056.9238738000859,None,,,,,,,nfsmrp,001,0,fr,2022-06-21_17h04.01.963,3-AFC_adaptive_staircase_mess,2022.1.1,34.127607907684414,
,,,,,9,0,9,0,7,0,7,0,,,,,,,,,,,,,,,,right,250,-5,9.418245447449e-05,1,1,1,5,1060.562072250084,None,1058.5210226000054,1058.843551500002,1059.5218096000608,1059.8340197000653,1060.5326220000861,1060.8610049000708,up,0,3.700732099940069,1058.5866347000701,None,1061.092771800002,None,,,,,,,nfsmrp,001,0,fr,2022-06-21_17h04.01.963,3-AFC_adaptive_staircase_mess,2022.1.1,34.127607907684414,
,,,,,9,0,9,0,8,0,8,0,,,,,,,,,,,,,,,,up,250,0,0.0001674827195789138,1,1,1,5,1064.8011217500548,None,1063.7497496000724,1064.05794530001,1064.771671500057,1065.0966111000162,None,None,up,1,1.7018648999510333,1063.8084716000594,None,None,None,,,,,,,nfsmrp,001,0,fr,2022-06-21_17h04.01.963,3-AFC_adaptive_staircase_mess,2022.1.1,34.127607907684414,
,,,,,9,0,9,0,9,0,9,0,,,,,,,,,,,,,,,,right,250,0,0.0001674827195789138,1,1,1,5,1069.063695149985,1069.277875400032,1066.9957172999857,1067.3275159000186,1068.0123601000523,1068.3303110999987,1069.0053147000726,1069.308832700015,right,1,2.6078651999123394,1067.0629839000758,None,1069.5520682000788,None,,,,,,,nfsmrp,001,0,fr,2022-06-21_17h04.01.963,3-AFC_adaptive_staircase_mess,2022.1.1,34.127607907684414,
,,,,,9,0,9,0,10,0,10,0,,,,,,,,,,,,,,,,right,250,-10,5.296268625886443e-05,-1,2,-1,-5.0,1073.1811891499906,None,1071.1319508000743,1071.4436113000847,1072.134430599981,1072.4657821999863,1073.1517388999928,1073.475977000082,left,0,2.9124453999102116,1071.198247399996,None,1073.6996772000566,None,,,,,,,nfsmrp,001,0,fr,2022-06-21_17h04.01.963,3-AFC_adaptive_staircase_mess,2022.1.1,34.127607907684414,
,,,,,9,0,9,0,11,0,11,0,,,,,,,,,,,,,,,,up,250,-7.5,7.06268772311377e-05,1,3,1,2.5,1076.6677830500062,1076.882898400072,1075.6022358000046,1075.9057076000609,1076.604830999975,1076.9150485000573,1077.6053048999747,1077.9139633000595,up,1,2.3396964999847114,1075.6665240000002,None,None,None,,,,,,,nfsmrp,001,0,fr,2022-06-21_17h04.01.963,3-AFC_adaptive_staircase_mess,2022.1.1,34.127607907684414,
,,,,,9,0,9,0,12,0,12,0,,,,,,,,,,,,,,,,right,250,-7.5,7.06268772311377e-05,1,3,1,2.5,1081.5433973500271,1081.756413300056,1079.5070571000688,1079.811350199976,1080.506781800068,1080.810253100004,1081.5139471000293,1081.8180240000365,left,0,2.6970573000144213,1079.5728970000055,None,1082.0736228000605,None,,,,,,,nfsmrp,001,0,fr,2022-06-21_17h04.01.963,3-AFC_adaptive_staircase_mess,2022.1.1,34.127607907684414,
,,,,,9,0,9,0,13,0,13,0,,,,,,,,,,,,,,,,up,250,-5.0,9.418245447449e-05,1,3,1,2.5,1084.8114692500326,None,1083.7496692000423,1084.080975400051,1084.752624200075,1085.0838512000628,1085.773739999975,1086.092628100072,up,1,2.342554699978791,1083.8153046000516,None,None,None,,,,,,,nfsmrp,001,0,fr,2022-06-21_17h04.01.963,3-AFC_adaptive_staircase_mess,2022.1.1,34.127607907684414,
,,,,,9,0,9,0,14,0,14,0,,,,,,,,,,,,,,,,left,250,-5.0,9.418245447449e-05,1,3,1,2.5,1087.7141807499806,1087.9293271000497,1087.6516604999779,1087.9611012000823,None,None,None,None,left,1,0.8734005999285728,1087.7175532000838,None,None,None,,,,,,,nfsmrp,001,0,fr,2022-06-21_17h04.01.963,3-AFC_adaptive_staircase_mess,2022.1.1,34.127607907684414,
,,,,,9,0,9,0,15,0,15,0,,,,,,,,,,,,,,,,up,250,-10.0,5.296268625886443e-05,-1,4,-1,-5.0,1091.1440116500248,1091.3680160000222,1090.081091800006,1090.3846725000767,1091.0856087000575,1091.4004649000708,1092.0874657999957,1092.4207577999914,up,1,2.8444626999553293,1090.1372395000653,None,1092.6339824000606,None,,,,,,,nfsmrp,001,0,fr,2022-06-21_17h04.01.963,3-AFC_adaptive_staircase_mess,2022.1.1,34.127607907684414,
,,,,,9,0,9,0,16,0,16,0,,,,,,,,,,,,,,,,up,250,-10.0,5.296268625886443e-05,-1,4,-1,-5.0,1095.5278207500464,None,1094.4620205999818,1094.7931051000487,1095.461378899985,1095.793918600073,1096.4595989000518,1096.7900386999827,up,1,2.571434900048189,1094.5232860000106,None,1096.999848300009,None,,,,,,,nfsmrp,001,0,fr,2022-06-21_17h04.01.963,3-AFC_adaptive_staircase_mess,2022.1.1,34.127607907684414,
,,,,,9,0,9,0,17,0,17,0,,,,,,,,,,,,,,,,up,250,-15.0,2.9783107176450517e-05,-1,4,-1,-5.0,1099.6237720500444,None,1098.5587727000238,1098.8613865000661,1099.5631646000547,1099.8901953999884,1100.564875900047,1100.8975868000416,left,0,3.0308713999111205,1098.624018099974,None,1101.1192171000876,None,,,,,,,nfsmrp,001,0,fr,2022-06-21_17h04.01.963,3-AFC_adaptive_staircase_mess,2022.1.1,34.127607907684414,
,,,,,9,0,9,0,18,0,18,0,,,,,,,,,,,,,,,,right,250,-12.5,3.971641173621407e-05,1,5,1,2.5,1105.1981048500397,1105.413587099989,1103.133908100077,1103.4656190000242,1104.1355311999796,1104.4668788000708,1105.136471600039,1105.445463299984,up,0,2.9591785999946296,1103.199561699992,None,1105.6939681000076,None,,,,,,,nfsmrp,001,0,fr,2022-06-21_17h04.01.963,3-AFC_adaptive_staircase_mess,2022.1.1,34.127607907684414,
,,,,,9,0,9,0,19,0,19,0,,,,,,,,,,,,,,,,left,250,-10.0,5.296268625886443e-05,1,5,1,2.5,1107.6979002499952,None,1107.6350987000624,1107.949471800006,1108.6495666999836,1108.9715772999916,1109.6542754999828,1109.9766807000851,right,0,3.440627899952233,1107.7016291000182,None,1110.2111041999888,None,,,,,,,nfsmrp,001,0,fr,2022-06-21_17h04.01.963,3-AFC_adaptive_staircase_mess,2022.1.1,34.127607907684414,
,,,,,9,0,9,0,20,0,20,0,,,,,,,,,,,,,,,,right,250,-7.5,7.06268772311377e-05,1,5,1,2.5,1114.6753613500855,None,1112.6084492000518,1112.9397346000187,1113.6162614000496,1113.9426667999942,1114.6162464000518,1114.9424296000507,right,1,2.6525310000870377,1112.6746381000848,None,1115.1566003999906,None,,,,,,,nfsmrp,001,0,fr,2022-06-21_17h04.01.963,3-AFC_adaptive_staircase_mess,2022.1.1,34.127607907684414,
,,,,,9,0,9,0,21,0,21,0,,,,,,,,,,,,,,,,right,250,-7.5,7.06268772311377e-05,1,5,1,2.5,1118.8762137500103,None,1116.8099549000617,1117.1183515000157,1117.8117737000575,1118.1234268000117,1118.8132454999723,1119.127180700074,up,0,2.923907099990174,1116.8746883000713,None,1119.3806964000687,None,,,,,,,nfsmrp,001,0,fr,2022-06-21_17h04.01.963,3-AFC_adaptive_staircase_mess,2022.1.1,34.127607907684414,
,,,,,9,0,9,0,22,0,22,0,,,,,,,,,,,,,,,,up,250,-5.0,9.418245447449e-05,1,5,1,2.5,1122.345537150069,None,1121.2842013000045,1121.6126604999881,1122.2821848000167,1122.5980538000586,1123.2837858999847,1123.5900440000696,up,1,2.433196899946779,1121.3499555999879,None,None,None,,,,,,,nfsmrp,001,0,fr,2022-06-21_17h04.01.963,3-AFC_adaptive_staircase_mess,2022.1.1,34.127607907684414,
,,,,,9,0,9,0,23,0,23,0,,,,,,,,,,,,,,,,left,250,-5.0,9.418245447449e-05,1,5,1,2.5,1125.311458750069,1125.5328771000495,1125.2510690999916,1125.565494199982,1126.2502154000103,1126.5605715999845,1127.2555333999917,1127.5847436999902,left,1,2.6402118999976665,1125.3108108000597,None,1127.8265013999771,None,,,,,,,nfsmrp,001,0,fr,2022-06-21_17h04.01.963,3-AFC_adaptive_staircase_mess,2022.1.1,34.127607907684414,
,,,,,9,0,9,0,24,0,24,0,,,,,,,,,,,,,,,,up,250,-10.0,5.296268625886443e-05,-1,6,-1,-5.0,1130.4899926500161,1130.7060102000833,1129.435606700019,1129.7643164000474,1130.427161000087,1130.7390692000045,1131.4389451000607,1131.761092400062,up,1,2.678379600052722,1129.4972717000637,None,1131.9842015000759,None,,,,,,,nfsmrp,001,0,fr,2022-06-21_17h04.01.963,3-AFC_adaptive_staircase_mess,2022.1.1,34.127607907684414,
,,,,,10,0,10,0,0,0,0,0,,,,,,,,,,,,,[],[],10,left,125,30,0.02285440948074376,0,0,-1,10,1134.965920750075,None,1134.907885099994,1135.2320026999805,None,None,None,None,left,1,0.6210995999863371,1134.9695974000497,None,None,None,left,1.1911181999603286,1133.263679799973,None,1133.263679799973,None,nfsmrp,001,0,fr,2022-06-21_17h04.01.963,3-AFC_adaptive_staircase_mess,2022.1.1,34.127607907684414,
,,,,,10,0,10,0,1,0,1,0,,,,,,,,,,,,,,,,right,125,30,0.02285440948074376,0,0,-1,10,1139.1286040500504,None,1137.0684726000763,1137.399217099999,1138.0586340000154,1138.3728555000853,1139.0664016000228,1139.3875076000113,right,1,2.4083680000621825,1137.1348773000063,None,None,None,,,,,,,nfsmrp,001,0,fr,2022-06-21_17h04.01.963,3-AFC_adaptive_staircase_mess,2022.1.1,34.127607907684414,
,,,,,10,0,10,0,2,0,2,0,,,,,,,,,,,,,,,,right,125,10,0.002285440948074376,-1,0,-1,-10,1143.0889439500402,None,1141.0350636000512,1141.3512385999784,1142.0394128999906,1142.3701695000054,1143.0295711000217,1143.3509653999936,right,1,2.512798500014469,1141.1014197000768,None,1143.5727822000626,None,,,,,,,nfsmrp,001,0,fr,2022-06-21_17h04.01.963,3-AFC_adaptive_staircase_mess,2022.1.1,34.127607907684414,
,,,,,10,0,10,0,3,0,3,0,,,,,,,,,,,,,,,,left,125,10,0.002285440948074376,-1,0,-1,-10,1145.169025750039,1145.3864357999992,1145.1071824000683,1145.4189891000278,None,None,None,None,left,1,0.714071900001727,1145.1724396999925,None,None,None,,,,,,,nfsmrp,001,0,fr,2022-06-21_17h04.01.963,3-AFC_adaptive_staircase_mess,2022.1.1,34.127607907684414,
,,,,,10,0,10,0,4,0,4,0,,,,,,,,,,,,,,,,up,125,0,0.000722719885372964,-1,0,-1,-10,1148.414535750076,None,1147.3480514000403,1147.6783158000326,1148.3562292000279,1148.677676500054,1149.3682982000755,1149.676398999989,up,1,2.538061299943365,1147.4128075999906,None,1149.9193975999951,None,,,,,,,nfsmrp,001,0,fr,2022-06-21_17h04.01.963,3-AFC_adaptive_staircase_mess,2022.1.1,34.127607907684414,
,,,,,10,0,10,0,5,0,5,0,,,,,,,,,,,,,,,,up,125,0,0.000722719885372964,-1,0,-1,-10,1152.4689432500395,None,1151.4188636000035,1151.7338662000839,1152.4111108999932,1152.722621300025,None,None,up,1,1.7214010000461712,1151.4848047000123,None,None,None,,,,,,,nfsmrp,001,0,fr,2022-06-21_17h04.01.963,3-AFC_adaptive_staircase_mess,2022.1.1,34.127607907684414,
