sweeps.thisRepN,sweeps.thisTrialN,sweeps.thisN,sweeps.thisIndex,trials.thisRepN,trials.thisTrialN,trials.thisN,trials.thisIndex,instructions.started,instructions.stopped,blank_text.started,blank_text.stopped,,text.started,text.stopped,Delay,Prediction,Frequency,Volume,Psychopy_level,isCatchTrial,len(y),finished_audiograms,probe.started,probe.stopped,feedback.keys,feedback.started,feedback.stopped,ISI.started,ISI.stopped,text_2.started,text_2.stopped,feedback.rt,break_txt.started,break_txt.stopped,Intervals,Audiogram_time,Audiogram_frequency,Audiogram_both,Audiogram_none,end_txt.started,end_txt.stopped,participant,session,language (english or french),Resume previous experiment,date,expName,psychopyVersion,frameRate,
0,0,0,0,0,0,0,0,25.45981779997237,None,39.9041625999962,None,0.16666666666666666,41.952285500010476,None,2.469973268103323,both,708.0,8.626377524713845,0.00011966410276565225,0,25,[],0.005474666657391936,None,None,42.982308299979195,None,0.21540916664525867,2.6853824347485817,43.203429399989545,None,,,,,,,,,,,lkxgs,001,fr,0,2022-04-29_11h57.23.329,Continuous,2022.1.1,None,
0,0,0,0,1,0,1,0,,,,,,,,2.469973268103323,both,631.0,8.458535591496648,0.0001352545221418176,0,26,[],0.004581366665661335,0.19824766664532945,['space'],45.69629920000443,45.69629920000443,0.19824766664532945,2.6682209347486525,45.91247520002071,45.69629920000443,[-1.7396040000021458],,,,,,,,,,lkxgs,001,fr,0,2022-04-29_11h57.23.329,Continuous,2022.1.1,None,
0,0,0,0,2,0,2,0,,,,,,,,2.469973268103323,both,562.0,7.104820011861053,0.00013997078819686504,0,27,[],0.012102166656404734,None,['space'],48.40994829998817,48.40994829998817,0.21548076666658744,2.6854540347699105,48.626536199997645,48.40994829998817,[-2.3569229999557137],,,,,,,,,,lkxgs,001,fr,0,2022-04-29_11h57.23.329,Continuous,2022.1.1,None,
0,0,0,0,3,0,3,0,,,,,,,,2.469973268103323,both,501.0,5.729728926669457,0.0001378818578487347,0,28,[],0.0112198666902259,None,['space'],51.11456100002397,51.11456100002397,0.20812366664176807,2.678096934745091,51.32931399997324,51.11456100002397,[-2.358306400012225],,,,,,,,,,lkxgs,001,fr,0,2022-04-29_11h57.23.329,Continuous,2022.1.1,None,
0,0,0,0,4,0,4,0,,,,,,,,2.469973268103323,both,446.0,6.464603742959547,0.0001561913758011451,0,29,[],0.011869166686665267,None,['space'],53.826841600006446,53.826841600006446,0.22227336670039222,2.6922466348037153,54.04532360000303,53.826841600006446,[-2.398422300000675],,,,,,,,,,lkxgs,001,fr,0,2022-04-29_11h57.23.329,Continuous,2022.1.1,None,
0,0,0,0,5,0,5,0,,,,,,,,2.469973268103323,both,,,,1,29,[],0.011940766707994044,None,['space'],56.536896499979775,56.536896499979775,0.21460836671758443,2.6845816348209075,56.74481960001867,56.536896499979775,[-2.3724987999885343],,,,,,,,,,lkxgs,001,fr,0,2022-04-29_11h57.23.329,Continuous,2022.1.1,None,
0,0,0,0,6,0,6,0,,,,,,,,2.469973268103323,both,354.0,9.0,0.00024941670488659655,0,30,[],0.010907966643571854,0.20587146666366607,None,59.240256800025236,59.240256800025236,0.20587146666366607,2.675844734766989,59.44546469999477,59.240256800025236,,,,,,,,,,,lkxgs,001,fr,0,2022-04-29_11h57.23.329,Continuous,2022.1.1,None,
0,0,0,0,7,0,7,0,,,,,,,,2.469973268103323,both,315.0,9.430767030497087,0.0002920843956939934,0,31,[],0.011846766632515937,None,['space'],61.942491800000425,61.942491800000425,0.21491546666948125,2.6848887347728043,62.159013899974525,61.942491800000425,[-2.2262233999790624],,,,,,,,,,lkxgs,001,fr,0,2022-04-29_11h57.23.329,Continuous,2022.1.1,None,
0,0,0,0,8,0,8,0,,,,,,,,2.469973268103323,both,281.0,10.659319987242366,0.0004593497266080478,0,32,[],0.011909766646567732,None,['space'],64.65640380000696,64.65640380000696,0.21264416666235775,2.682617434765681,64.87548210000386,64.65640380000696,[-2.3477240999927744],,,,,,,,,,lkxgs,001,fr,0,2022-04-29_11h57.23.329,Continuous,2022.1.1,None,
0,0,0,0,9,0,9,0,,,,,,,,2.469973268103323,both,250.0,10.533063120529878,0.0005631487965504042,0,33,[],0.01166876667411998,None,['space'],67.36738469998818,67.36738469998818,0.21562886668834835,2.6856021347916714,67.58164719998604,67.36738469998818,[-2.3549708999926224],,,,,,,,,,lkxgs,001,fr,0,2022-04-29_11h57.23.329,Continuous,2022.1.1,None,
0,0,0,0,10,0,10,0,,,,,,,,2.469973268103323,both,223.0,9.975254329407464,0.0006949228180393078,0,34,[],0.011845566623378545,None,['space'],70.07476519996999,70.07476519996999,0.2147209666436538,2.684694234746977,70.28877929999726,70.07476519996999,[-2.4062014000373892],,,,,,,,,,lkxgs,001,fr,0,2022-04-29_11h57.23.329,Continuous,2022.1.1,None,
0,0,0,0,11,0,11,0,,,,,,,,2.469973268103323,both,199.0,9.133571810307586,0.0007701348700534699,0,35,[],0.011721166665665805,None,['space'],72.78615360002732,72.78615360002732,0.2148834666586481,2.684856734761971,72.99686389998533,72.78615360002732,[-2.397731799981557],,,,,,,,,,lkxgs,001,fr,0,2022-04-29_11h57.23.329,Continuous,2022.1.1,None,
0,0,0,0,12,0,12,0,,,,,,,,2.469973268103323,both,177.0,9.009941148116368,0.0009853281184376028,0,36,[],0.011421666655223817,None,['space'],75.49457729997812,75.49457729997812,0.21516526665072888,2.685138534754052,75.70635990001028,75.49457729997812,[-2.3696168000460602],,,,,,,,,,lkxgs,001,fr,0,2022-04-29_11h57.23.329,Continuous,2022.1.1,None,
0,0,0,0,13,0,13,0,,,,,,,,2.469973268103323,both,158.0,9.0,0.0012088804143577433,0,37,[],0.011691666673868895,None,['space'],78.20373240002664,78.20373240002664,0.2122476666700095,2.6822209347733326,78.42387439997401,78.20373240002664,[-2.391998999984935],,,,,,,,,,lkxgs,001,fr,0,2022-04-29_11h57.23.329,Continuous,2022.1.1,None,
0,0,0,0,14,0,14,0,,,,,,,,2.469973268103323,both,141.0,9.123099035178157,0.0016587795942099332,0,38,[],0.011430566606577486,None,['space'],80.91217839997262,80.91217839997262,0.21431446663336828,2.6842877347366914,81.12894020002568,80.91217839997262,[-2.4117492000223137],,,,,,,,,,lkxgs,001,fr,0,2022-04-29_11h57.23.329,Continuous,2022.1.1,None,
1,0,1,0,0,0,0,0,,,,,,86.47006089997012,None,2.802374321633291,time,167.0,8.984958418672555,0.0010849654223609017,0,25,[],0.012907766678836197,None,None,87.50121750001563,None,0.22929206670960411,3.031666388342895,87.72324269998353,None,,83.62592399999266,None,"[0.5833333333333334, 0.5833333333333334, 0.5833333333333334, 0.3333333333333333, 0.16666666666666666, 0.3333333333333333, 0.16666666666666666, 0.3333333333333333, 0.5833333333333334, 0.5833333333333334, 0.5833333333333334, 0.16666666666666666, 0.3333333333333333, 0.5833333333333334, 0.3333333333333333]",,,,,,,lkxgs,001,fr,0,2022-04-29_11h57.23.329,Continuous,2022.1.1,None,
1,0,1,0,1,0,1,0,,,,,,,,2.802374321633291,time,2120.0,7.2550622704010825,0.00017860642252683597,0,26,[],0.0052241666708141565,None,['space'],90.54238689999329,90.54238689999329,0.19983336667064577,3.002207688303937,90.75582899997244,90.54238689999329,[-2.138019899954088],,,,,,,,,,lkxgs,001,fr,0,2022-04-29_11h57.23.329,Continuous,2022.1.1,None,
1,0,1,0,2,0,2,0,,,,,,,,2.802374321633291,time,530.0,4.400049243588449,0.00011080242823288082,0,27,[],0.011392966727726161,None,['space'],93.58648060000269,93.58648060000269,0.21356156672118232,3.0159358883544733,93.80371090001427,93.58648060000269,[-2.0936620999709703],,,,,,,,,,lkxgs,001,fr,0,2022-04-29_11h57.23.329,Continuous,2022.1.1,None,
1,0,1,0,3,0,3,0,,,,,,,,2.802374321633291,time,1123.0,7.2644616671624185,0.00011354376526640442,0,28,[],0.011465166637208313,None,['space'],96.62280760001158,96.62280760001158,0.2118600666290149,3.014234388262306,96.84415279998211,96.62280760001158,[-2.3296259999624453],,,,,,,,,,lkxgs,001,fr,0,2022-04-29_11h57.23.329,Continuous,2022.1.1,None,
1,0,1,0,4,0,4,0,,,,,,,,2.802374321633291,time,,,,1,28,[],0.011431066610384732,None,['space'],99.66536370001268,99.66536370001268,0.21104246663162485,3.013416788264916,99.87716590001946,99.66536370001268,[-2.5086431999807246],,,,,,,,,,lkxgs,001,fr,0,2022-04-29_11h57.23.329,Continuous,2022.1.1,None,
1,0,1,0,5,0,5,0,,,,,,,,2.802374321633291,time,133.0,9.299710681595174,0.001900632680432186,0,29,[],0.009786366659682244,0.2073646666831337,None,102.70313620002707,102.70313620002707,0.2073646666831337,3.0097389883164247,102.91803399997298,102.70313620002707,,,,,,,,,,,lkxgs,001,fr,0,2022-04-29_11h57.23.329,Continuous,2022.1.1,None,
1,0,1,0,6,0,6,0,,,,,,,,2.802374321633291,time,1683.0,1.243039928599422,6.98063287014592e-05,0,30,[],0.004141366633120924,0.19591686659259722,['space'],105.74478670000099,105.74478670000099,0.19591686659259722,2.9982911882258882,105.95939169998746,105.74478670000099,[-2.587631699978374],,,,,,,,,,lkxgs,001,fr,0,2022-04-29_11h57.23.329,Continuous,2022.1.1,None,
1,0,1,0,7,0,7,0,,,,,,,,2.802374321633291,time,354.0,9.0,0.00024941670488659655,0,31,[],0.011344766651745886,None,['space'],108.78563030000078,108.78563030000078,0.21245216665556654,3.0148264882888576,109.00041879998753,108.78563030000078,[-2.7167525999830104],,,,,,,,,,lkxgs,001,fr,0,2022-04-29_11h57.23.329,Continuous,2022.1.1,None,
1,0,1,0,8,0,8,0,,,,,,,,2.802374321633291,time,794.0,7.960212815544233,9.661793389060893e-05,0,32,[],0.0035934666520915926,None,['space'],111.83543889998691,111.83543889998691,0.1983356666751206,3.0007099883084116,112.05272259999765,111.83543889998691,[-2.678550499957055],,,,,,,,,,lkxgs,001,fr,0,2022-04-29_11h57.23.329,Continuous,2022.1.1,None,
1,0,1,0,9,0,9,0,,,,,,,,2.802374321633291,time,891.0,8.410334406428913,0.00010784945386354312,0,33,[],0.006789166713133454,0.20173266675556079,['space'],114.88305170001695,114.88305170001695,0.20173266675556079,3.004106988388852,115.09819940000307,114.88305170001695,[-2.7022103000199422],,,,,,,,,,lkxgs,001,fr,0,2022-04-29_11h57.23.329,Continuous,2022.1.1,None,
1,0,1,0,10,0,10,0,,,,,,,,2.802374321633291,time,187.0,9.174990377806427,0.0008994965575615621,0,34,[],0.0038744666380807757,0.19603796664159745,['space'],117.92505439999513,117.92505439999513,0.19603796664159745,2.9984122882748885,118.13868540001567,117.92505439999513,[-2.6731882999883965],,,,,,,,,,lkxgs,001,fr,0,2022-04-29_11h57.23.329,Continuous,2022.1.1,None,
2,0,2,0,0,0,0,0,,,,,,123.64455869997619,None,1.8019566608348325,time,,,,1,34,[],0.013076566625386477,None,None,124.66494149999926,None,0.22456196666462347,2.026518627499456,124.87948190001771,None,,120.96504819998518,None,"[0.16666666666666666, 0.5833333333333334, 0.16666666666666666, 0.5833333333333334, 0.3333333333333333, 0.16666666666666666, 0.5833333333333334, 0.3333333333333333, 0.3333333333333333, 0.16666666666666666, 0.5833333333333334, 0.5833333333333334, 0.5833333333333334, 0.5833333333333334, 0.3333333333333333]",,,,,,,lkxgs,001,fr,0,2022-04-29_11h57.23.329,Continuous,2022.1.1,None,
2,0,2,0,1,0,1,0,,,,,,,,1.8019566608348325,time,1415.0,1.7692895602664434,6.180241271798497e-05,0,35,[],0.01201236667111516,None,None,126.70324130001245,126.70324130001245,0.21614516666159034,2.018101827496423,126.9104749999824,126.70324130001245,,,,,,,,,,,lkxgs,001,fr,0,2022-04-29_11h57.23.329,Continuous,2022.1.1,None,
2,0,2,0,2,0,2,0,,,,,,,,1.8019566608348325,time,944.0,5.806519988588258,8.285417155975366e-05,0,36,[],0.010849466663785279,None,['space'],128.74188049999066,128.74188049999066,0.21350356662878767,2.0154602274636204,128.95089849998476,128.74188049999066,[-1.5528875999734737],,,,,,,,,,lkxgs,001,fr,0,2022-04-29_11h57.23.329,Continuous,2022.1.1,None,
2,0,2,0,3,0,3,0,,,,,,,,1.8019566608348325,time,1588.0,0.6073770859098887,5.977378244936485e-05,0,37,[],0.009873366623651236,None,None,130.78245689999312,130.78245689999312,0.20672526658745483,2.0086819274222876,130.98882700002287,130.78245689999312,,,,,,,,,,,lkxgs,001,fr,0,2022-04-29_11h57.23.329,Continuous,2022.1.1,None,
2,0,2,0,4,0,4,0,,,,,,,,1.8019566608348325,time,5040.0,1.6679096907038073,0.00018329523297739157,0,38,[],0.007693166669923812,None,['space'],132.81874600000447,132.81874600000447,0.20749576669186354,2.0094524275266963,133.03822799999034,132.81874600000447,[-1.4543211999698542],,,,,,,,,,lkxgs,001,fr,0,2022-04-29_11h57.23.329,Continuous,2022.1.1,None,
2,0,2,0,5,0,5,0,,,,,,,,1.8019566608348325,time,2997.0,8.389524080329394,0.00014451752798848595,0,39,[],0.010753166629001498,None,['space'],134.86065280000912,134.86065280000912,0.21390216663712636,2.015858827471959,135.07974810001906,134.86065280000912,[-1.432419899967499],,,,,,,,,,lkxgs,001,fr,0,2022-04-29_11h57.23.329,Continuous,2022.1.1,None,
2,0,2,0,6,0,6,0,,,,,,,,1.8019566608348325,time,8000.0,2.0,0.0002285440948074376,0,40,[],0.010722766630351543,None,['space'],136.90025850001257,136.90025850001257,0.2147582666366361,2.016714927471469,137.11682910000673,136.90025850001257,[-1.6798261000076309],,,,,,,,,,lkxgs,001,fr,0,2022-04-29_11h57.23.329,Continuous,2022.1.1,None,
2,0,2,0,7,0,7,0,,,,,,,,1.8019566608348325,time,6350.0,-0.48955061244545295,0.0001243157481506642,0,41,[],0.010592566628474742,None,['space'],138.9402166000218,138.9402166000218,0.21210746665019542,2.014064127485028,139.15202769997995,138.9402166000218,[-1.7043781999964267],,,,,,,,,,lkxgs,001,fr,0,2022-04-29_11h57.23.329,Continuous,2022.1.1,None,
2,0,2,0,8,0,8,0,,,,,,,,1.8019566608348325,time,2379.0,2.9391021900788603,0.00011672052299354523,0,42,[],0.010439166682772338,None,['space'],140.9826290999772,140.9826290999772,0.21292676666053012,2.014883427495363,141.19242310000118,140.9826290999772,[-1.7141586000216193],,,,,,,,,,lkxgs,001,fr,0,2022-04-29_11h57.23.329,Continuous,2022.1.1,None,
3,0,3,0,0,0,0,0,,,,,0.5833333333333334,145.2745062999893,None,2.268130218127993,frequency,4002.0,8.019819122649018,0.00021167636090625917,0,25,[],0.01239166664890945,None,None,146.30590939999092,None,0.21410656662192196,2.482236784749915,146.52762200002326,None,,143.0210927000153,None,,,,,,,,lkxgs,001,fr,0,2022-04-29_11h57.23.329,Continuous,2022.1.1,None,
3,0,3,0,1,0,1,0,,,,,,,,1.5348423727862264,frequency,2671.0,8.636008081614946,0.00020343062683382673,0,26,[],0.006348866620101035,0.20340696664061397,['space'],148.8188498999807,148.8188498999807,0.20340696664061397,1.7382493394268403,149.0341145999846,148.8188498999807,[-2.174907600041479],,,,,,,,,,lkxgs,001,fr,0,2022-04-29_11h57.23.329,Continuous,2022.1.1,None,
3,0,3,0,2,0,2,0,,,,,,,,2.739535902352117,frequency,1783.0,5.014014284724669,0.00011579895902443844,0,27,[],0.010231666616164148,None,['space'],150.59365689998958,150.59365689998958,0.21362526662414894,2.953161168976266,150.80871890002163,150.59365689998958,[-1.5173330999678],,,,,,,,,,lkxgs,001,fr,0,2022-04-29_11h57.23.329,Continuous,2022.1.1,None,
3,0,3,0,3,0,3,0,,,,,,,,1.3472379130555985,frequency,,,,1,27,[],0.0034085666993632913,None,['space'],153.57945489999838,153.57945489999838,0.20280316669959575,1.5500410797551942,153.80157670000335,153.57945489999838,[-2.663322100008372],,,,,,,,,,lkxgs,001,fr,0,2022-04-29_11h57.23.329,Continuous,2022.1.1,None,
3,0,3,0,4,0,4,0,,,,,,,,2.520796791977829,frequency,794.0,8.04815136100792,9.760109125258234e-05,0,28,[],0.011430266662500799,None,None,155.17395460000262,155.17395460000262,0.21162956662010401,2.732426358597933,155.3888701000251,155.17395460000262,,,,,,,,,,,lkxgs,001,fr,0,2022-04-29_11h57.23.329,Continuous,2022.1.1,None,
3,0,3,0,5,0,5,0,,,,,,,,2.2027116116571257,frequency,530.0,6.714359158696338,0.00014463212723388657,0,29,[],0.010356066632084548,None,['space'],157.94088860001648,157.94088860001648,0.2144121666206047,2.4171237782777304,158.1493380999891,157.94088860001648,[-2.3361502999905497],,,,,,,,,,lkxgs,001,fr,0,2022-04-29_11h57.23.329,Continuous,2022.1.1,None,
3,0,3,0,6,0,6,0,,,,,,,,2.668316353244818,frequency,354.0,9.0,0.00024941670488659655,0,30,[],0.0015733666368760169,None,['space'],160.38534540002001,160.38534540002001,0.194275566667784,2.862591919912602,160.59671539999545,160.38534540002001,[-2.1731084000202827],,,,,,,,,,lkxgs,001,fr,0,2022-04-29_11h57.23.329,Continuous,2022.1.1,None,
3,0,3,0,7,0,7,0,,,,,,,,1.0354485128925432,frequency,236.0,9.474987235751353,0.0005802118024266348,0,31,[],0.009999966656323522,None,['space'],163.2974269000115,163.2974269000115,0.2127469666302204,1.2481954795227637,163.50828629999887,163.2974269000115,[-2.540304300026037],,,,,,,,,,lkxgs,001,fr,0,2022-04-29_11h57.23.329,Continuous,2022.1.1,None,
3,0,3,0,8,0,8,0,,,,,,,,2.4400560415627703,frequency,158.0,9.0,0.0012088804143577433,0,32,[],0.009628966683521867,None,['space'],164.57516770000802,164.57516770000802,0.2145699667162262,2.6546260082789965,164.78714590001618,164.57516770000802,[-0.9385225000442006],,,,,,,,,,lkxgs,001,fr,0,2022-04-29_11h57.23.329,Continuous,2022.1.1,None,
4,0,4,0,0,0,0,0,,,,,0.3333333333333333,170.3740999000147,None,2.151088614540225,frequency,8000.0,2.0,0.0002285440948074376,0,33,[],0.008633866673335433,None,None,171.40286259999266,None,0.20425756665645167,2.3553461811966767,171.61989799997536,None,,167.2581113000051,None,,,,,,,,lkxgs,001,fr,0,2022-04-29_11h57.23.329,Continuous,2022.1.1,None,
4,0,4,0,1,0,1,0,,,,,,,,1.0390977103564585,frequency,6350.0,-2.5551403416451945,9.800464536710827e-05,0,34,[],0.003180166648235172,0.1949876666185446,['space'],173.80010479997145,173.80010479997145,0.1949876666185446,1.234085376975003,174.01035300001968,173.80010479997145,[-1.7473206999711692],,,,,,,,,,lkxgs,001,fr,0,2022-04-29_11h57.23.329,Continuous,2022.1.1,None,
4,0,4,0,2,0,2,0,,,,,,,,1.6437708247760288,frequency,,,,1,34,[],0.009012366645038128,0.20757816662080586,['space'],175.0785050999839,175.0785050999839,0.20757816662080586,1.8513489913968346,175.28861200000392,175.0785050999839,[-0.8982096000108868],,,,,,,,,,lkxgs,001,fr,0,2022-04-29_11h57.23.329,Continuous,2022.1.1,None,
4,0,4,0,3,0,3,0,,,,,,,,2.0578841368009853,frequency,4000.0,2.1609190085069723,0.00010765047606694575,0,35,[],0.011219266627449542,None,None,176.9639509000117,176.9639509000117,0.21331666660262272,2.271200803403608,177.17682579997927,176.9639509000117,,,,,,,,,,,lkxgs,001,fr,0,2022-04-29_11h57.23.329,Continuous,2022.1.1,None,
4,0,4,0,4,0,4,0,,,,,,,,1.6981018349601373,frequency,3175.0,2.088145727603867,8.833442202311776e-05,0,36,[],0.009973366686608642,None,['space'],179.26552239997545,179.26552239997545,0.21123426669510081,1.9093361016552381,179.4756070000003,179.26552239997545,[-1.9651403999887407],,,,,,,,,,lkxgs,001,fr,0,2022-04-29_11h57.23.329,Continuous,2022.1.1,None,
4,0,4,0,5,0,5,0,,,,,,,,1.6521012364849037,frequency,2520.0,3.9118026708365297,0.00013280983114749358,0,37,[],0.005849566601682454,0.2023856666055508,['space'],181.20313059998443,181.20313059998443,0.2023856666055508,1.8544869030904545,181.41783410002245,181.20313059998443,[-1.5019517000182532],,,,,,,,,,lkxgs,001,fr,0,2022-04-29_11h57.23.329,Continuous,2022.1.1,None,
4,0,4,0,6,0,6,0,,,,,,,,1.4172728433778283,frequency,2000.0,1.9517416033103332,9.366063211390781e-05,0,38,[],0.009958966635167599,None,['space'],183.10147829999914,183.10147829999914,0.2125635666307062,1.6298364100085345,183.3079564999789,183.10147829999914,[-1.4334273000131361],,,,,,,,,,lkxgs,001,fr,0,2022-04-29_11h57.23.329,Continuous,2022.1.1,None,
4,0,4,0,7,0,7,0,,,,,,,,1.4545350536596942,frequency,1587.0,0.8966447568809042,6.170429074970737e-05,0,39,[],0.009649966610595584,None,['space'],184.75543620000826,184.75543620000826,0.21205156663199887,1.666586620291693,184.96487169998,184.75543620000826,[-1.2304287999868393],,,,,,,,,,lkxgs,001,fr,0,2022-04-29_11h57.23.329,Continuous,2022.1.1,None,
4,0,4,0,8,0,8,0,,,,,,,,2.2464462646440477,frequency,1260.0,2.3827369330271804,7.138784942445077e-05,0,40,[],0.00939456670312211,None,['space'],186.45034270000178,186.45034270000178,0.21373346669133753,2.4601797313353853,186.6640383999911,186.45034270000178,[-1.2138757999637164],,,,,,,,,,lkxgs,001,fr,0,2022-04-29_11h57.23.329,Continuous,2022.1.1,None,
5,0,5,0,0,0,0,0,,,,,0.16666666666666666,193.40102069999557,None,2.093494334831089,frequency,659.0,5.007201366385337,8.653443637701998e-05,0,41,[],0.012618066684808582,None,None,194.43849339999724,None,0.23004336666781455,2.3235377014989034,194.6577346000122,None,,188.9443872999982,None,,,,,,,,lkxgs,001,fr,0,2022-04-29_11h57.23.329,Continuous,2022.1.1,None,
5,0,5,0,1,0,1,0,,,,,,,,1.3143667567021018,frequency,587.0,4.0,9.172199372951096e-05,0,42,[],0.008986766682937741,None,None,196.77858659997582,196.77858659997582,0.21225786668946967,1.5266246233915715,196.98601370002143,196.77858659997582,,,,,,,,,,,lkxgs,001,fr,0,2022-04-29_11h57.23.329,Continuous,2022.1.1,None,
5,0,5,0,2,0,2,0,,,,,,,,1.1143103460077997,frequency,523.0,4.003428011140397,0.00010758805785330316,0,43,[],0.009378866641782224,None,['space'],198.33068180002738,198.33068180002738,0.21206376666668802,1.3263741126744877,198.54571159998886,198.33068180002738,[-1.094463499961421],,,,,,,,,,lkxgs,001,fr,0,2022-04-29_11h57.23.329,Continuous,2022.1.1,None,
5,0,5,0,3,0,3,0,,,,,,,,2.950879821928221,frequency,466.0,4.439050057848462,0.00012199912133244738,0,44,[],0.004872166609857231,None,['space'],199.68975770001998,199.68975770001998,0.20080206665443256,3.1516818885826536,199.90474999998696,199.68975770001998,[-0.9495252000051551],,,,,,,,,,lkxgs,001,fr,0,2022-04-29_11h57.23.329,Continuous,2022.1.1,None,
5,0,5,0,4,0,4,0,,,,,,,,2.4808279598259086,frequency,415.0,6.445070061674338,0.00015916717252987704,0,45,[],0.0090965666458942,None,['space'],202.89117229997646,202.89117229997646,0.2160369666526094,2.696864926478518,203.10263939999277,202.89117229997646,[-2.9028720000060275],,,,,,,,,,lkxgs,001,fr,0,2022-04-29_11h57.23.329,Continuous,2022.1.1,None,
5,0,5,0,5,0,5,0,,,,,,,,2.718523796883739,frequency,370.0,8.68937158798186,0.00022935899853439122,0,46,[],0.009159866662230343,None,['space'],205.6033023999771,205.6033023999771,0.2129985666833818,2.9315223635671206,205.81612119998317,205.6033023999771,[-2.383952199947089],,,,,,,,,,lkxgs,001,fr,0,2022-04-29_11h57.23.329,Continuous,2022.1.1,None,
5,0,5,0,6,0,6,0,,,,,,,,2.2961535256506544,frequency,330.0,4.0,0.00015013218066171354,0,47,[],0.009123566676862538,None,['space'],208.56410040002083,208.56410040002083,0.21102526667527854,2.507178792325933,208.77331269998103,208.56410040002083,[-2.671734200033825],,,,,,,,,,lkxgs,001,fr,0,2022-04-29_11h57.23.329,Continuous,2022.1.1,None,
5,0,5,0,7,0,7,0,,,,,,,,1.7315104091254463,frequency,294.0,7.986147392298948,0.00030312468933124524,0,48,[],0.008406866691075265,None,None,211.09970740001881,211.09970740001881,0.21171316667459905,1.9432235758000453,211.3159346000175,211.09970740001881,,,,,,,,,,,lkxgs,001,fr,0,2022-04-29_11h57.23.329,Continuous,2022.1.1,None,
5,0,5,0,8,0,8,0,,,,,,,,2.7530068341128926,frequency,262.0,4.603153972576053,0.00026293230800943004,0,49,[],0.009094866632949561,None,['space'],213.07466199999908,213.07466199999908,0.21199356665601954,2.965000400768912,213.29416910000145,213.07466199999908,[-1.5337336999946274],,,,,,,,,,lkxgs,001,fr,0,2022-04-29_11h57.23.329,Continuous,2022.1.1,None,
5,0,5,0,9,0,9,0,,,,,,,,1.9693841522328577,frequency,233.0,7.85771235917176,0.0004961642027073608,0,50,[],0.009173266647849232,None,None,216.0693348000059,216.0693348000059,0.21060576668241993,2.1799899189152776,216.27608649997273,216.0693348000059,,,,,,,,,,,lkxgs,001,fr,0,2022-04-29_11h57.23.329,Continuous,2022.1.1,None,
5,0,5,0,10,0,10,0,,,,,,,,1.0221171570416383,frequency,208.0,7.157800567428365,0.0005694138740901426,0,51,[],0.008024866634514183,None,['space'],218.2740617999807,218.2740617999807,0.20662196667399257,1.2287391237156309,218.48539480002364,218.2740617999807,[-1.8209872000152245],,,,,,,,,,lkxgs,001,fr,0,2022-04-29_11h57.23.329,Continuous,2022.1.1,None,
5,0,5,0,11,0,11,0,,,,,,,,1.9414774487306192,frequency,,,,1,51,[],0.009139266679994762,None,['space'],219.5362309999764,219.5362309999764,0.21150456671603024,2.1529820154466495,219.74346389999846,219.5362309999764,[-0.6999064999981783],,,,,,,,,,lkxgs,001,fr,0,2022-04-29_11h57.23.329,Continuous,2022.1.1,None,
5,0,5,0,12,0,12,0,,,,,,,,2.1219660362178,frequency,165.0,7.076125714610111,0.0008873622650141586,0,52,[],0.005464766640216112,None,None,221.71712980000302,221.71712980000302,0.21834206668427214,2.340308102902072,221.9455909000244,221.71712980000302,,,,,,,,,,,lkxgs,001,fr,0,2022-04-29_11h57.23.329,Continuous,2022.1.1,None,
5,0,5,0,13,0,13,0,,,,,,,,1.1624654491870017,frequency,147.0,5.6902066105817575,0.0010143874192623781,0,53,[],0.0037218666984699667,None,['space'],224.08485220000148,224.08485220000148,0.20482826669467613,1.3672937158816778,224.30465920001734,224.08485220000148,[-1.9372759999823757],,,,,,,,,,lkxgs,001,fr,0,2022-04-29_11h57.23.329,Continuous,2022.1.1,None,
5,0,5,0,14,0,14,0,,,,,,,,2.338942902470875,frequency,131.0,9.208335149366619,0.001932144140208406,0,54,[],0.008539666654542089,None,['space'],225.49834240000928,225.49834240000928,0.21001566667109728,2.5489585691419725,225.71280410001054,225.49834240000928,[-0.9664535999763757],,,,,,,,,,lkxgs,001,fr,0,2022-04-29_11h57.23.329,Continuous,2022.1.1,None,
6,0,6,0,0,0,0,0,,,,,,234.1378199000028,None,1.1163320632026548,none,2120.0,8.408474402571002,0.00020397064925113299,0,25,[],0.009629766689613461,None,None,235.16263029997936,None,0.21018496667966247,1.3265170298823172,235.38334130001022,None,,228.08383090002462,None,"[0.5833333333333334, 0.3333333333333333, 0.3333333333333333, 0.3333333333333333, 0.5833333333333334, 0.3333333333333333, 0.3333333333333333, 0.3333333333333333, 0.3333333333333333, 0.5833333333333334, 0.5833333333333334, 0.16666666666666666, 0.3333333333333333, 0.5833333333333334, 0.3333333333333333]",,,,,,,lkxgs,001,fr,0,2022-04-29_11h57.23.329,Continuous,2022.1.1,None,
6,0,6,0,1,0,1,0,,,,,,,,2.046134628086331,none,891.0,8.846684801610559,0.00011340585311513136,0,26,[],0.006017266656272113,None,['space'],236.5277502000099,236.5277502000099,0.20293586666230112,2.249070494748632,236.7426888999762,236.5277502000099,[-0.4761958999442868],,,,,,,,,,lkxgs,001,fr,0,2022-04-29_11h57.23.329,Continuous,2022.1.1,None,
6,0,6,0,2,0,2,0,,,,,,,,2.098796948191004,none,281.0,9.55524871969024,0.00040451990712163876,0,27,[],0.008260466682258993,None,None,238.82008490001317,238.82008490001317,0.21431666665012017,2.313113614841124,239.0309513999964,238.82008490001317,,,,,,,,,,,lkxgs,001,fr,0,2022-04-29_11h57.23.329,Continuous,2022.1.1,None,
6,0,6,0,3,0,3,0,,,,,,,,2.652534707748364,none,140.0,9.08911572145349,0.001677652646905198,0,28,[],0.00880766665795818,None,['space'],241.1630422999733,241.1630422999733,0.20995076664257795,2.862485474390942,241.37236600002507,241.1630422999733,[-1.8948081000125967],,,,,,,,,,lkxgs,001,fr,0,2022-04-29_11h57.23.329,Continuous,2022.1.1,None,
6,0,6,0,4,0,4,0,,,,,,,,1.6994713870903946,none,1683.0,1.7195409604848557,7.37428383491285e-05,0,29,[],0.004421066667418927,None,['space'],244.0543940999778,244.0543940999778,0.20263186667580158,1.9021032537661962,244.2713725999929,244.0543940999778,[-2.466516699991189],,,,,,,,,,lkxgs,001,fr,0,2022-04-29_11h57.23.329,Continuous,2022.1.1,None,
6,0,6,0,5,0,5,0,,,,,,,,1.4324323245768154,none,1123.0,8.608924028081027,0.000132552038162918,0,30,[],0.00841796665918082,None,['space'],246.00284739997005,246.00284739997005,0.2078350666561164,1.6402673912329317,246.21196839999175,246.00284739997005,[-1.566453100007493],,,,,,,,,,lkxgs,001,fr,0,2022-04-29_11h57.23.329,Continuous,2022.1.1,None,
6,0,6,0,6,0,6,0,,,,,,,,2.9333238812734583,none,794.0,8.549711773960366,0.00010340289406730815,0,31,[],0.0039001666591502726,None,None,247.67559609998716,247.67559609998716,0.20439576666103676,3.137719647934495,247.89182690001326,247.67559609998716,,,,,,,,,,,lkxgs,001,fr,0,2022-04-29_11h57.23.329,Continuous,2022.1.1,None,
6,0,6,0,7,0,7,0,,,,,,,,2.6263276662880526,none,354.0,9.0,0.00024941670488659655,0,32,[],0.008501166652422398,None,['space'],250.85841919999802,250.85841919999802,0.21032776666106656,2.836655432949119,251.0742078999756,250.85841919999802,[-2.774263700004667],,,,,,,,,,lkxgs,001,fr,0,2022-04-29_11h57.23.329,Continuous,2022.1.1,None,
6,0,6,0,8,0,8,0,,,,,,,,1.6999455783991941,none,530.0,6.278756542142126,0.00013755761678754135,0,33,[],0.008094466698821634,None,['space'],253.72780629998306,253.72780629998306,0.20927356672473252,1.9092191451239267,253.94041079998715,253.72780629998306,[-2.5394837000058033],,,,,,,,,,lkxgs,001,fr,0,2022-04-29_11h57.23.329,Continuous,2022.1.1,None,
6,0,6,0,9,0,9,0,,,,,,,,1.0581134362796203,none,,,,1,33,[],0.008030166674870998,None,None,255.67159959999844,255.67159959999844,0.21278036665171385,1.2708938029313341,255.881146300002,255.67159959999844,,,,,,,,,,,lkxgs,001,fr,0,2022-04-29_11h57.23.329,Continuous,2022.1.1,None,
6,0,6,0,10,0,10,0,,,,,,,,1.0818520290845366,none,177.0,9.013596208767733,0.000985742836105043,0,34,[],0.005192866607103497,None,None,256.96864350000396,256.96864350000396,0.2159564666217193,1.297808495706256,257.1940600000089,256.96864350000396,,,,,,,,,,,lkxgs,001,fr,0,2022-04-29_11h57.23.329,Continuous,2022.1.1,None,
7,0,7,0,0,0,0,0,,,,,0.5833333333333334,262.74436999997124,None,1.7149132471951032,frequency,5657.0,0.0,0.00012851831134311055,0,55,[],0.013167166674975306,None,None,263.77523630001815,None,0.22910936665721238,1.9440226138523156,263.9872424000059,None,,258.29964560002554,None,,,,,,,,lkxgs,001,fr,0,2022-04-29_11h57.23.329,Continuous,2022.1.1,None,
7,0,7,0,1,0,1,0,,,,,,,,2.3751637381299493,frequency,3776.0,1.491713443710374,9.49991086579246e-05,0,56,[],0.004838966648094356,None,None,265.7254149999935,265.7254149999935,0.20251826662570238,2.5776820047556517,265.9411087000044,265.7254149999935,,,,,,,,,,,lkxgs,001,fr,0,2022-04-29_11h57.23.329,Continuous,2022.1.1,None,
7,0,7,0,2,0,2,0,,,,,,,,2.7327496241605322,frequency,2520.0,2.153073106739718,0.00010846603041019043,0,57,[],0.003978966677095741,0.1988949666847475,None,268.3470277999877,268.3470277999877,0.1988949666847475,2.9316445908452797,268.5642153000226,268.3470277999877,,,,,,,,,,,lkxgs,001,fr,0,2022-04-29_11h57.23.329,Continuous,2022.1.1,None,
7,0,7,0,3,0,3,0,,,,,,,,1.0474798381170438,frequency,1682.0,0.15996411761618007,6.157674797258383e-05,0,58,[],0.008254266635049134,None,['space'],271.32752900000196,271.32752900000196,0.2100262666353956,1.2575061047524394,271.5395863999729,271.32752900000196,[-2.5388427000143565],,,,,,,,,,lkxgs,001,fr,0,2022-04-29_11h57.23.329,Continuous,2022.1.1,None,
7,0,7,0,4,0,4,0,,,,,,,,1.342189224148123,frequency,1123.0,1.6374036334866018,5.940327516883946e-05,0,59,[],0.003854166658129543,None,['space'],272.6182819000096,272.6182819000096,0.19766246667131782,1.5398516908194408,272.83621779998066,272.6182819000096,[-0.7902056999737397],,,,,,,,,,lkxgs,001,fr,0,2022-04-29_11h57.23.329,Continuous,2022.1.1,None,
7,0,7,0,5,0,5,0,,,,,,,,1.9634275128409968,frequency,750.0,5.988914641269548,8.098707919754743e-05,0,60,[],0.004059466707985848,0.1993569666519761,None,274.2012396000209,274.2012396000209,0.1993569666519761,2.1627844794929727,274.4154297999921,274.2012396000209,,,,,,,,,,,lkxgs,001,fr,0,2022-04-29_11h57.23.329,Continuous,2022.1.1,None,
7,0,7,0,6,0,6,0,,,,,,,,1.5495308696047916,frequency,,,,1,60,[],0.005409166682511568,0.1990478666848503,None,276.40239589998964,276.40239589998964,0.1990478666848503,1.7485787362896419,276.60834879998583,276.40239589998964,,,,,,,,,,,lkxgs,001,fr,0,2022-04-29_11h57.23.329,Continuous,2022.1.1,None,
7,0,7,0,7,0,7,0,,,,,,,,2.7982511042693403,frequency,334.0,3.069666264773508,0.00013340432364837578,0,61,[],0.008364066656213254,None,None,278.1872376999818,278.1872376999818,0.20582026662304997,3.0040713708923903,278.3967040000134,278.1872376999818,,,,,,,,,,,lkxgs,001,fr,0,2022-04-29_11h57.23.329,Continuous,2022.1.1,None,
7,0,7,0,8,0,8,0,,,,,,,,2.100102528763598,frequency,223.0,5.000405527311138,0.00039191702702625806,0,62,[],0.003890766645781696,None,None,281.22576780000236,281.22576780000236,0.19879856664920226,2.2989010954128,281.4398297999869,281.22576780000236,,,,,,,,,,,lkxgs,001,fr,0,2022-04-29_11h57.23.329,Continuous,2022.1.1,None,
8,0,8,0,0,0,0,0,,,,,,286.2617707999889,None,2.3604829782949324,time,758.0,7.865596899302413,9.961971646461584e-05,0,43,[],0.012890166661236435,None,None,287.2876178000006,None,0.22127916669705883,2.581762144991991,287.50179339997703,None,,283.5701256999746,None,"[0.16666666666666666, 0.3333333333333333, 0.3333333333333333, 0.16666666666666666, 0.5833333333333334, 0.3333333333333333, 0.16666666666666666, 0.5833333333333334, 0.5833333333333334, 0.5833333333333334, 0.3333333333333333, 0.5833333333333334, 0.5833333333333334, 0.16666666666666666, 0.3333333333333333]",,,,,,,lkxgs,001,fr,0,2022-04-29_11h57.23.329,Continuous,2022.1.1,None,
8,0,8,0,1,0,1,0,,,,,,,,2.3604829782949324,time,1606.0,7.453741442899683,0.0001345009651163238,0,44,[],0.014911033329553902,None,None,289.89475600002334,289.89475600002334,0.20857453328790143,2.569057511582834,290.1079947000253,289.89475600002334,,,,,,,,,,,lkxgs,001,fr,0,2022-04-29_11h57.23.329,Continuous,2022.1.1,None,
8,0,8,0,2,0,2,0,,,,,,,,2.3604829782949324,time,402.0,8.0,0.00019203919254867337,0,45,[],0.00786816660547629,None,['space'],292.50103400001535,292.50103400001535,0.21022876660572365,2.570711744900656,292.70841119997203,292.50103400001535,[-2.27280180004891],,,,,,,,,,lkxgs,001,fr,0,2022-04-29_11h57.23.329,Continuous,2022.1.1,None,
8,0,8,0,3,0,3,0,,,,,,,,2.3604829782949324,time,506.0,5.78829360609341,0.0001372958345465048,0,46,[],0.007731366669759154,None,['space'],295.10274270002265,295.10274270002265,0.21048726665321738,2.5709702449481497,295.3163679999998,295.10274270002265,[-2.2669693999923766],,,,,,,,,,lkxgs,001,fr,0,2022-04-29_11h57.23.329,Continuous,2022.1.1,None,
8,0,8,0,4,0,4,0,,,,,,,,2.3604829782949324,time,1275.0,4.783760965057748,9.347265941319297e-05,0,47,[],0.006896666716784239,None,None,297.70839639997575,297.70839639997575,0.20912656671134755,2.56960954500628,297.923068700009,297.70839639997575,,,,,,,,,,,lkxgs,001,fr,0,2022-04-29_11h57.23.329,Continuous,2022.1.1,None,
8,0,8,0,5,0,5,0,,,,,,,,2.3604829782949324,time,268.0,8.0,0.0003727975007062338,0,48,[],0.007940766692627221,None,['space'],300.31011879997095,300.31011879997095,0.2124964667018503,2.5729794449967827,300.52151039999444,300.31011879997095,[-2.193472499959171],,,,,,,,,,lkxgs,001,fr,0,2022-04-29_11h57.23.329,Continuous,2022.1.1,None,
8,0,8,0,6,0,6,0,,,,,,,,2.3604829782949324,time,1136.0,6.037459605125928,9.967515117556974e-05,0,49,[],0.0074297666433267295,None,['space'],302.90856680000434,302.90856680000434,0.21197986660990864,2.572462844904841,303.12418099999195,302.90856680000434,[-2.2803094999981113],,,,,,,,,,lkxgs,001,fr,0,2022-04-29_11h57.23.329,Continuous,2022.1.1,None,
8,0,8,0,7,0,7,0,,,,,,,,2.3604829782949324,time,,,,1,49,[],0.005458166648168117,0.19999156665289775,['space'],305.5164011999732,305.5164011999732,0.19999156665289775,2.56047454494783,305.7243211999885,305.5164011999732,[-2.1993905000272207],,,,,,,,,,lkxgs,001,fr,0,2022-04-29_11h57.23.329,Continuous,2022.1.1,None,
8,0,8,0,8,0,8,0,,,,,,,,2.3604829782949324,time,179.0,8.336456136499496,0.0008927956717520988,0,50,[],0.00864146661479026,None,['space'],308.11794620001456,308.11794620001456,0.21009036665782332,2.5705733449527557,308.3245869000093,308.11794620001456,[-1.985866300005],,,,,,,,,,lkxgs,001,fr,0,2022-04-29_11h57.23.329,Continuous,2022.1.1,None,
9,0,9,0,0,0,0,0,,,,,,328.3601764999912,None,2.434551795751909,time,1590.0,0.3440166910349117,5.8164398803234794e-05,0,51,[],0.012873366649728268,None,None,329.38499779999256,None,0.2147662666393444,2.6493180623912536,329.60206920001656,None,,310.71689629997127,None,"[0.3333333333333333, 0.16666666666666666, 0.3333333333333333, 0.5833333333333334, 0.3333333333333333, 0.16666666666666666, 0.16666666666666666, 0.3333333333333333, 0.16666666666666666, 0.5833333333333334, 0.3333333333333333, 0.5833333333333334, 0.16666666666666666, 0.16666666666666666, 0.3333333333333333]",,,,,,,lkxgs,001,fr,0,2022-04-29_11h57.23.329,Continuous,2022.1.1,None,
9,0,9,0,1,0,1,0,,,,,,,,2.434551795751909,time,668.0,2.643499989949613,6.484798853390871e-05,0,52,[],0.00718526664422825,None,None,332.06024459999753,332.06024459999753,0.20670866663567722,2.6412604623875864,332.2753546999884,332.06024459999753,,,,,,,,,,,lkxgs,001,fr,0,2022-04-29_11h57.23.329,Continuous,2022.1.1,None,
9,0,9,0,2,0,2,0,,,,,,,,2.434551795751909,time,354.0,0.0,8.849638639228378e-05,0,53,[],0.007526866684202105,None,None,334.7408089999808,334.7408089999808,0.21213646669639274,2.646688262448302,334.95174350001616,334.7408089999808,,,,,,,,,,,lkxgs,001,fr,0,2022-04-29_11h57.23.329,Continuous,2022.1.1,None,
9,0,9,0,3,0,3,0,,,,,,,,2.434551795751909,time,199.0,2.6532140715923322,0.00036521524755735787,0,54,[],0.003815666656009853,None,None,337.41741029999685,337.41741029999685,0.20027786667924374,2.634829662431153,337.63304759998573,337.41741029999685,,,,,,,,,,,lkxgs,001,fr,0,2022-04-29_11h57.23.329,Continuous,2022.1.1,None,
9,0,9,0,4,0,4,0,,,,,,,,2.434551795751909,time,1001.0,3.890741301629288,6.901114447523365e-05,0,55,[],0.00722536671673879,None,['space'],340.10212559998035,340.10212559998035,0.20789936668006703,2.642451162431976,340.31697450001957,340.10212559998035,[-2.162064799980726],,,,,,,,,,lkxgs,001,fr,0,2022-04-29_11h57.23.329,Continuous,2022.1.1,None,
9,0,9,0,5,0,5,0,,,,,,,,2.434551795751909,time,158.0,1.8043068259844404,0.0005279571584181742,0,56,[],0.006895866652484983,None,None,342.78147300001,342.78147300001,0.21133366669528186,2.645885462447191,342.9911065999768,342.78147300001,,,,,,,,,,,lkxgs,001,fr,0,2022-04-29_11h57.23.329,Continuous,2022.1.1,None,
9,0,9,0,6,0,6,0,,,,,,,,2.434551795751909,time,1262.0,0.7687259662332395,5.922787509334806e-05,0,57,[],0.006051666627172381,None,None,345.45825979998335,345.45825979998335,0.2033618666464463,2.6379136623983555,345.67042749997927,345.45825979998335,,,,,,,,,,,lkxgs,001,fr,0,2022-04-29_11h57.23.329,Continuous,2022.1.1,None,
9,0,9,0,7,0,7,0,,,,,,,,2.434551795751909,time,530.0,0.9251535042737582,7.42684723856641e-05,0,58,[],0.006607666611671448,None,None,348.13837010000134,348.13837010000134,0.20817376661580056,2.6427255623677097,348.35768020001706,348.13837010000134,,,,,,,,,,,lkxgs,001,fr,0,2022-04-29_11h57.23.329,Continuous,2022.1.1,None,
9,0,9,0,8,0,8,0,,,,,,,,2.434551795751909,time,,,,1,58,[],0.0037362666917033494,None,['space'],350.8172146999859,350.8172146999859,0.1978333666920662,2.6323851624439754,351.0315423000138,350.8172146999859,[-2.1242181999841705],,,,,,,,,,lkxgs,001,fr,0,2022-04-29_11h57.23.329,Continuous,2022.1.1,None,
9,0,9,0,9,0,9,0,,,,,,,,2.434551795751909,time,1124.0,1.0451524067910984,5.5535016647962485e-05,0,59,[],0.007167766627389938,None,None,353.50053860002663,353.50053860002663,0.2053133666049689,2.639865162356878,353.7126674000174,353.50053860002663,,,,,,,,,,,lkxgs,001,fr,0,2022-04-29_11h57.23.329,Continuous,2022.1.1,None,
9,0,9,0,10,0,10,0,,,,,,,,2.434551795751909,time,250.0,10.61734122042228,0.0005686395538182269,0,60,[],0.0070964666665531695,None,None,356.1803767000092,356.1803767000092,0.20881616661790758,2.6433679623698167,356.4029139999766,356.1803767000092,,,,,,,,,,,lkxgs,001,fr,0,2022-04-29_11h57.23.329,Continuous,2022.1.1,None,
9,0,9,0,11,0,11,0,,,,,,,,2.434551795751909,time,315.0,5.615664330239799,0.0001882579047617751,0,61,[],0.0035309665836393833,None,['space'],358.85815679997904,358.85815679997904,0.20011006662389264,2.634661862375802,359.0729887000052,358.85815679997904,[-2.309380399994552],,,,,,,,,,lkxgs,001,fr,0,2022-04-29_11h57.23.329,Continuous,2022.1.1,None,
10,0,10,0,0,0,0,0,,,,,,363.8810688999947,None,1.6627108568276723,none,2609.0,5.4373080998893135,0.00014796593062693547,0,35,[],0.012789266649633646,None,None,364.9020856000134,None,0.22440526669379324,1.8871161235214655,365.1183631999884,None,,361.5414305999875,None,"[0.5833333333333334, 0.16666666666666666, 0.16666666666666666, 0.16666666666666666, 0.16666666666666666, 0.16666666666666666, 0.16666666666666666, 0.5833333333333334, 0.16666666666666666, 0.3333333333333333, 0.5833333333333334, 0.5833333333333334, 0.5833333333333334, 0.3333333333333333, 0.16666666666666666]",,,,,,,lkxgs,001,fr,0,2022-04-29_11h57.23.329,Continuous,2022.1.1,None,
10,0,10,0,1,0,1,0,,,,,,,,1.0262797916433,none,2324.0,2.6091708212596707,0.00011072367832633705,0,36,[],0.00660156668163836,None,None,366.80785599997034,366.80785599997034,0.20960636669769883,1.2358861583409988,367.0194303999888,366.80785599997034,,,,,,,,,,,lkxgs,001,fr,0,2022-04-29_11h57.23.329,Continuous,2022.1.1,None,
10,0,10,0,2,0,2,0,,,,,,,,1.1181891360545577,none,1844.0,0.9829297628298397,7.588754543005346e-05,0,37,[],0.006760866672266275,None,None,368.0816074999748,368.0816074999748,0.20656306663295254,1.3247522026875103,368.29141290002735,368.0816074999748,,,,,,,,,,,lkxgs,001,fr,0,2022-04-29_11h57.23.329,Continuous,2022.1.1,None,
10,0,10,0,3,0,3,0,,,,,,,,1.131264801302571,none,2929.0,6.432842292257779,0.00012423052183140732,0,38,[],0.0068128667189739645,None,['space'],369.44369149999693,369.44369149999693,0.20926816668361425,1.3405329679861853,369.65123890002724,369.44369149999693,[-0.5756625999929383],,,,,,,,,,lkxgs,001,fr,0,2022-04-29_11h57.23.329,Continuous,2022.1.1,None,
10,0,10,0,4,0,4,0,,,,,,,,1.1397860888141926,none,4388.0,3.9654464387409063,0.00017465145687637658,0,39,[],0.006574266648385674,None,['space'],370.81827879999764,370.81827879999764,0.20797116664471105,1.3477572554589037,371.03427080000984,370.81827879999764,[-0.8141184999840334],,,,,,,,,,lkxgs,001,fr,0,2022-04-29_11h57.23.329,Continuous,2022.1.1,None,
10,0,10,0,5,0,5,0,,,,,,,,2.718878873545914,none,1464.0,1.0,5.5199163177267025e-05,0,40,[],0.0026180666754953563,None,['space'],372.20484830002533,372.20484830002533,0.19753946672426537,2.9164183402701793,372.4204474000144,372.20484830002533,[-1.0648355000303127],,,,,,,,,,lkxgs,001,fr,0,2022-04-29_11h57.23.329,Continuous,2022.1.1,None,
10,0,10,0,6,0,6,0,,,,,,,,1.1856996112634102,none,6205.0,0.1474630755934112,0.00012768023762059076,0,41,[],0.00423536665039137,None,['space'],375.1727673999849,375.1727673999849,0.20411326660541818,1.3898128778688283,375.39171360002365,375.1727673999849,[-2.480749399983324],,,,,,,,,,lkxgs,001,fr,0,2022-04-29_11h57.23.329,Continuous,2022.1.1,None,
10,0,10,0,7,0,7,0,,,,,,,,1.3608765851180062,none,2070.0,2.4205832427014897,0.00010090552389465387,0,42,[],0.002467466634698212,0.19838296668604016,None,376.61033529997803,376.61033529997803,0.19838296668604016,1.5592595518040464,376.82395450002514,376.61033529997803,,,,,,,,,,,lkxgs,001,fr,0,2022-04-29_11h57.23.329,Continuous,2022.1.1,None,
10,0,10,0,8,0,8,0,,,,,,,,2.5280093044979486,none,4925.0,1.0,0.0001655937853633201,0,43,[],0.011278233374468982,None,['space'],378.22123989998363,378.22123989998363,0.21792263333918527,2.745931937837134,378.4459592999774,378.22123989998363,[-1.2731519000371918],,,,,,,,,,lkxgs,001,fr,0,2022-04-29_11h57.23.329,Continuous,2022.1.1,None,
10,0,10,0,9,0,9,0,,,,,,,,2.9679240780256873,none,,,,1,43,[],0.00015186669770628214,0.193322466686368,None,381.00465000001714,381.00465000001714,0.193322466686368,3.1612465447120552,381.21630329999607,381.00465000001714,,,,,,,,,,,lkxgs,001,fr,0,2022-04-29_11h57.23.329,Continuous,2022.1.1,None,
11,0,11,0,0,0,0,0,,,,,0.3333333333333333,386.64263080002274,None,1.7758338847315678,both,7818.0,-0.3820820083979033,0.00016844699965598033,0,39,[],0.00994406663812697,None,None,387.67356069997186,None,0.20995266665704548,1.9857865513886133,387.88707409997005,None,,384.21030610002344,None,,,,,,,,lkxgs,001,fr,0,2022-04-29_11h57.23.329,Continuous,2022.1.1,None,
11,0,11,0,1,0,1,0,,,,,,,,1.7758338847315678,both,6205.0,-0.1633316568835772,0.0001231924083745251,0,40,[],0.006051266682334244,None,['space'],389.6992556999903,389.6992556999903,0.2092812666669488,1.9851151513985166,389.90684359997977,389.6992556999903,[-1.502837100008037],,,,,,,,,,lkxgs,001,fr,0,2022-04-29_11h57.23.329,Continuous,2022.1.1,None,
11,0,11,0,2,0,2,0,,,,,,,,1.7758338847315678,both,4925.0,2.0,0.00018579928309536353,0,41,[],0.006347566668409854,None,None,391.7187087999773,391.7187087999773,0.21059346670517698,1.9864273514367448,391.9346662000171,391.7187087999773,,,,,,,,,,,lkxgs,001,fr,0,2022-04-29_11h57.23.329,Continuous,2022.1.1,None,
11,0,11,0,3,0,3,0,,,,,,,,1.7758338847315678,both,3909.0,3.926415697887266,0.000129403581682883,0,42,[],0.006162066652905196,None,None,393.740027700027,393.740027700027,0.2085466666612774,1.9843805513928452,393.9484940000111,393.740027700027,,,,,,,,,,,lkxgs,001,fr,0,2022-04-29_11h57.23.329,Continuous,2022.1.1,None,
11,0,11,0,4,0,4,0,,,,,,,,1.7758338847315678,both,,,,1,42,[],0.006385466665960848,None,['space'],395.7597676999867,395.7597676999867,0.20770996663486585,1.9835438513664336,395.97277559997747,395.7597676999867,[-1.7715883000055328],,,,,,,,,,lkxgs,001,fr,0,2022-04-29_11h57.23.329,Continuous,2022.1.1,None,
11,0,11,0,5,0,5,0,,,,,,,,1.7758338847315678,both,2463.0,3.446172907979184,0.00012650619067887552,0,43,[],0.006827266712207347,None,None,397.7801748000202,397.7801748000202,0.20925896672997624,1.985092851461544,397.98812669998733,397.7801748000202,,,,,,,,,,,lkxgs,001,fr,0,2022-04-29_11h57.23.329,Continuous,2022.1.1,None,
11,0,11,0,6,0,6,0,,,,,,,,1.7758338847315678,both,1955.0,1.9794526613733794,9.140796623368557e-05,0,44,[],0.005348466627765447,None,['space'],399.79883270000573,399.79883270000573,0.20425116660771891,1.9800850513392867,400.0125461000134,399.79883270000573,[-1.4588062000111677],,,,,,,,,,lkxgs,001,fr,0,2022-04-29_11h57.23.329,Continuous,2022.1.1,None,
11,0,11,0,7,0,7,0,,,,,,,,1.7758338847315678,both,1552.0,1.4616354809656533,6.235270841704157e-05,0,45,[],0.0025001666508615017,None,['space'],401.81921099999454,401.81921099999454,0.1986584666883573,1.974492351419925,402.0348258999875,401.81921099999454,[-1.574706299987156],,,,,,,,,,lkxgs,001,fr,0,2022-04-29_11h57.23.329,Continuous,2022.1.1,None,
11,0,11,0,8,0,8,0,,,,,,,,1.7758338847315678,both,1232.0,3.160985180162939,7.735331352126032e-05,0,46,[],0.005703766655642539,None,None,403.84705099998973,403.84705099998973,0.2086300666560419,1.9844639513876097,404.05486410000594,403.84705099998973,,,,,,,,,,,lkxgs,001,fr,0,2022-04-29_11h57.23.329,Continuous,2022.1.1,None,
11,0,11,0,9,0,9,0,,,,,,,,1.7758338847315678,both,978.0,4.262061730629193,7.093564887289556e-05,0,47,[],0.005541666643694043,None,['space'],405.86674000002677,405.86674000002677,0.21170866664033383,1.9875425513719016,406.0824801999843,405.86674000002677,[-1.6709533000248484],,,,,,,,,,lkxgs,001,fr,0,2022-04-29_11h57.23.329,Continuous,2022.1.1,None,
11,0,11,0,10,0,10,0,,,,,,,,1.7758338847315678,both,776.0,5.441377992380787,7.382757759284745e-05,0,48,[],0.003913066640961915,None,None,407.8911814999883,407.8911814999883,0.20246886665700004,1.9783027513885678,408.0962784999865,407.8911814999883,,,,,,,,,,,lkxgs,001,fr,0,2022-04-29_11h57.23.329,Continuous,2022.1.1,None,
12,0,12,0,0,0,0,0,,,,,0.5833333333333334,416.42828819999704,None,1.97796139552749,both,8000.0,3.0,0.0002564306919956826,0,49,[],0.01318426663056016,None,None,417.4607727000257,None,0.21884896664414555,2.1968103621716355,417.671010799997,None,,409.9074558999855,None,,,,,,,,lkxgs,001,fr,0,2022-04-29_11h57.23.329,Continuous,2022.1.1,None,
12,0,12,0,1,0,1,0,,,,,,,,1.97796139552749,both,5339.0,-0.1251827111692303,0.00013823823997881875,0,50,[],0.005746666691266,None,['space'],419.68105090002064,419.68105090002064,0.20698236668249592,2.184943762209986,419.9012172999792,419.68105090002064,[-1.7881147000007331],,,,,,,,,,lkxgs,001,fr,0,2022-04-29_11h57.23.329,Continuous,2022.1.1,None,
12,0,12,0,2,0,2,0,,,,,,,,1.97796139552749,both,,,,1,50,[],0.0018026666948571801,0.19669316668296233,['space'],421.90798229997745,421.90798229997745,0.19669316668296233,2.1746545622104523,422.12543299997924,421.90798229997745,[-1.8235772000043653],,,,,,,,,,lkxgs,001,fr,0,2022-04-29_11h57.23.329,Continuous,2022.1.1,None,
12,0,12,0,3,0,3,0,,,,,,,,1.97796139552749,both,2378.0,3.3452390834535413,0.0001222751943551442,0,51,[],0.002909266680944711,0.19939206668641418,None,424.12677470000926,424.12677470000926,0.19939206668641418,2.177353462213904,424.34222859999863,424.12677470000926,,,,,,,,,,,lkxgs,001,fr,0,2022-04-29_11h57.23.329,Continuous,2022.1.1,None,
12,0,12,0,4,0,4,0,,,,,,,,1.97796139552749,both,1587.0,0.45761475008601643,5.8662945370696644e-05,0,52,[],0.0020571666536852717,0.1966541666770354,['space'],426.3463229999761,426.3463229999761,0.1966541666770354,2.1746155622045253,426.5597685999819,426.3463229999761,[-1.7822049999958836],,,,,,,,,,lkxgs,001,fr,0,2022-04-29_11h57.23.329,Continuous,2022.1.1,None,
12,0,12,0,5,0,5,0,,,,,,,,1.97796139552749,both,1059.0,6.241718113030926,9.543944149720351e-05,0,53,[],0.002394966664724052,0.1953562666894868,None,428.56722079997417,428.56722079997417,0.1953562666894868,2.1733176622169768,428.7828142999788,428.56722079997417,,,,,,,,,,,lkxgs,001,fr,0,2022-04-29_11h57.23.329,Continuous,2022.1.1,None,
12,0,12,0,6,0,6,0,,,,,,,,1.97796139552749,both,707.0,4.015256571635675,7.051251564784227e-05,0,54,[],0.0019272666540928185,None,['space'],430.78701740002725,430.78701740002725,0.19851006666431203,2.176471462191802,431.00343550002435,430.78701740002725,[-1.8069785999832675],,,,,,,,,,lkxgs,001,fr,0,2022-04-29_11h57.23.329,Continuous,2022.1.1,None,
12,0,12,0,7,0,7,0,,,,,,,,1.97796139552749,both,472.0,4.1676462466914,0.00011775064789490282,0,55,[],0.005524066626094282,None,None,433.0168709999998,433.0168709999998,0.20698036666726694,2.184941762194757,433.22408319998067,433.0168709999998,,,,,,,,,,,lkxgs,001,fr,0,2022-04-29_11h57.23.329,Continuous,2022.1.1,None,
12,0,12,0,8,0,8,0,,,,,,,,1.97796139552749,both,315.0,9.273446902096495,0.00028684174075663304,0,56,[],0.004667666624300182,None,None,435.23616089997813,435.23616089997813,0.20271246664924547,2.1806738621767354,435.44810789998155,435.23616089997813,,,,,,,,,,,lkxgs,001,fr,0,2022-04-29_11h57.23.329,Continuous,2022.1.1,None,
13,0,13,0,0,0,0,0,,,,,,439.40545249998104,None,1.5050720735908154,none,1260.0,3.7201310035372233,8.327104263009937e-05,0,44,[],0.010769666696432978,None,None,440.4288892999757,None,0.2159940666751936,1.721066140266009,440.6440466999775,None,,437.45538479997776,None,"[0.3333333333333333, 0.16666666666666666, 0.3333333333333333, 0.16666666666666666, 0.3333333333333333, 0.3333333333333333, 0.16666666666666666, 0.5833333333333334, 0.5833333333333334, 0.5833333333333334, 0.3333333333333333, 0.16666666666666666, 0.16666666666666666, 0.3333333333333333, 0.3333333333333333]",,,,,,,lkxgs,001,fr,0,2022-04-29_11h57.23.329,Continuous,2022.1.1,None,
13,0,13,0,1,0,1,0,,,,,,,,1.0330587067496435,none,3563.0,6.856760403573418,0.00016795247249975378,0,45,[],0.0017567666945979,None,None,442.18228449998423,442.18228449998423,0.19863486668327823,1.2316935734329217,442.394596499973,442.18228449998423,,,,,,,,,,,lkxgs,001,fr,0,2022-04-29_11h57.23.329,Continuous,2022.1.1,None,
13,0,13,0,2,0,2,0,,,,,,,,2.16184367852759,none,1414.0,0.011721929668976117,5.050575551585103e-05,0,46,[],0.0017598666599951684,0.1965660666464828,['space'],443.4623846000177,443.4623846000177,0.1965660666464828,2.3584097451740726,443.67751050001243,443.4623846000177,[-0.7862080000340939],,,,,,,,,,lkxgs,001,fr,0,2022-04-29_11h57.23.329,Continuous,2022.1.1,None,
13,0,13,0,3,0,3,0,,,,,,,,2.0724772003431835,none,5339.0,-0.2538632753064339,0.00013620535033903204,0,47,[],0.014518133306410164,None,None,445.87498560000677,445.87498560000677,0.2388913333415985,2.311368533684782,446.11293180001667,445.87498560000677,,,,,,,,,,,lkxgs,001,fr,0,2022-04-29_11h57.23.329,Continuous,2022.1.1,None,
13,0,13,0,4,0,4,0,,,,,,,,1.1222944724865183,none,1781.0,0.10749670577459775,6.573173657305202e-05,0,48,[],0.01588773337425664,None,['space'],448.2096208999865,448.2096208999865,0.21075993333943188,1.3330544058259501,448.42946640000446,448.2096208999865,[-1.9337051999755204],,,,,,,,,,lkxgs,001,fr,0,2022-04-29_11h57.23.329,Continuous,2022.1.1,None,
13,0,13,0,5,0,5,0,,,,,,,,1.7443365055492905,none,,,,1,48,[],0.005313866713549942,None,['space'],449.5846105000237,449.5846105000237,0.20879886666079983,1.9531353722100904,449.80096770002274,449.5846105000237,[-0.9083174000261351],,,,,,,,,,lkxgs,001,fr,0,2022-04-29_11h57.23.329,Continuous,2022.1.1,None,
13,0,13,0,6,0,6,0,,,,,,,,2.318748312122331,none,8000.0,0.0,0.0001815390273850507,0,49,[],0.002608766662888229,None,None,451.57173329999205,451.57173329999205,0.1987755666486919,2.517523878771023,451.7860728999949,451.57173329999205,,,,,,,,,,,lkxgs,001,fr,0,2022-04-29_11h57.23.329,Continuous,2022.1.1,None,
13,0,13,0,7,0,7,0,,,,,,,,1.1551136883149735,none,1999.0,1.3451682888675651,8.729034673008769e-05,0,50,[],0.004136866657063365,None,['space'],454.13928080000915,454.13928080000915,0.20350986666744575,1.3586235549824193,454.3554690000019,454.13928080000915,[-2.167152800015174],,,,,,,,,,lkxgs,001,fr,0,2022-04-29_11h57.23.329,Continuous,2022.1.1,None,
13,0,13,0,8,0,8,0,,,,,,,,1.4038642772798564,none,2519.0,5.4038184438311845,0.00015781551962877643,0,51,[],0.0011536667007021606,0.1975290667032823,['space'],455.5422263999935,455.5422263999935,0.1975290667032823,1.6013933439831387,455.7611805999768,455.5422263999935,[-0.8185535999946296],,,,,,,,,,lkxgs,001,fr,0,2022-04-29_11h57.23.329,Continuous,2022.1.1,None,
14,0,14,0,0,0,0,0,,,,,,460.19114710000576,None,1.4059515759293402,time,1569.0,-0.1296168148741934,5.332986923281267e-05,0,62,[],0.01008936669677496,None,None,461.2174825000111,None,0.21324526669923216,1.6191968426285723,461.4323413000093,None,,457.1928543000249,None,"[0.16666666666666666, 0.3333333333333333, 0.3333333333333333, 0.5833333333333334, 0.16666666666666666, 0.16666666666666666, 0.5833333333333334, 0.3333333333333333, 0.3333333333333333, 0.5833333333333334, 0.5833333333333334, 0.16666666666666666, 0.5833333333333334, 0.3333333333333333, 0.5833333333333334]",,,,,,,lkxgs,001,fr,0,2022-04-29_11h57.23.329,Continuous,2022.1.1,None,
14,0,14,0,1,0,1,0,,,,,,,,1.4059515759293402,time,2962.0,2.3963054858714967,7.535290785241453e-05,0,63,[],0.0009882666636258364,0.19276966666802764,None,462.87276599998586,462.87276599998586,0.19276966666802764,1.5987212425973678,463.0862355999998,462.87276599998586,,,,,,,,,,,lkxgs,001,fr,0,2022-04-29_11h57.23.329,Continuous,2022.1.1,None,
14,0,14,0,2,0,2,0,,,,,,,,1.4059515759293402,time,3732.0,-1.0,7.061889308380462e-05,0,64,[],0.014484233339317143,None,None,464.52806879999116,464.52806879999116,0.24014953331789002,1.6461011092472302,464.7667555999942,464.52806879999116,,,,,,,,,,,lkxgs,001,fr,0,2022-04-29_11h57.23.329,Continuous,2022.1.1,None,
14,0,14,0,3,0,3,0,,,,,,,,1.4059515759293402,time,5592.0,-1.3502142291059627,0.00011206747891380993,0,65,[],0.004700666642747819,None,None,466.19650690001436,466.19650690001436,0.20645296660950407,1.6124045425388442,466.4104468000005,466.19650690001436,,,,,,,,,,,lkxgs,001,fr,0,2022-04-29_11h57.23.329,Continuous,2022.1.1,None,
14,0,14,0,4,0,4,0,,,,,,,,1.4059515759293402,time,2351.0,3.108462946218757,0.00011813096087696469,0,66,[],0.002929066657088697,None,None,467.8572187999962,467.8572187999962,0.20281376666389406,1.6087653425932342,468.0712224000017,467.8572187999962,,,,,,,,,,,lkxgs,001,fr,0,2022-04-29_11h57.23.329,Continuous,2022.1.1,None,
14,0,14,0,5,0,5,0,,,,,,,,1.4059515759293402,time,1398.0,0.9848132915623626,5.693802240413228e-05,0,67,[],0.0014490666217170656,0.19486176664941013,None,469.5124791999697,469.5124791999697,0.19486176664941013,1.6008133425787503,469.7266324000084,469.5124791999697,,,,,,,,,,,lkxgs,001,fr,0,2022-04-29_11h57.23.329,Continuous,2022.1.1,None,
14,0,14,0,6,0,6,0,,,,,,,,1.4059515759293402,time,831.0,1.9413932914035357,4.907947846956709e-05,0,68,[],0.015533833298832178,None,None,471.1673421000014,471.1673421000014,0.24210693332133815,1.6480585092506783,471.40609359997325,471.1673421000014,,,,,,,,,,,lkxgs,001,fr,0,2022-04-29_11h57.23.329,Continuous,2022.1.1,None,
14,0,14,0,7,0,7,0,,,,,,,,1.4059515759293402,time,1245.0,2.6791369411068393,7.391922220154278e-05,0,69,[],0.014790433342568576,None,None,472.8364757000236,472.8364757000236,0.21220343332970515,1.6181550092590453,473.0502491000225,472.8364757000236,,,,,,,,,,,lkxgs,001,fr,0,2022-04-29_11h57.23.329,Continuous,2022.1.1,None,
14,0,14,0,8,0,8,0,,,,,,,,1.4059515759293402,time,,,,1,69,[],0.004492266627494246,None,['space'],474.4950828999863,474.4950828999863,0.20534156664507464,1.6112931425744148,474.71014129999094,474.4950828999863,[-1.194795899966266],,,,,,,,,,lkxgs,001,fr,0,2022-04-29_11h57.23.329,Continuous,2022.1.1,None,
14,0,14,0,9,0,9,0,,,,,,,,1.4059515759293402,time,524.0,3.2690107976958713,9.863785706331879e-05,0,70,[],0.005924266704823822,None,['space'],476.14538729999913,476.14538729999913,0.20871106669073924,1.6146626426200794,476.3557290000026,476.14538729999913,[-0.02994330000365153],,,,,,,,,,lkxgs,001,fr,0,2022-04-29_11h57.23.329,Continuous,2022.1.1,None,
15,0,15,0,0,0,0,0,,,,,0.3333333333333333,480.4694938000175,None,1.9631089815081115,frequency,8000.0,3.0,0.0002564306919956826,0,63,[],0.00853366666706279,None,None,481.51146509998944,None,0.20505816664081067,2.168167148148922,481.72903970000334,None,,477.7980390000157,None,,,,,,,,lkxgs,001,fr,0,2022-04-29_11h57.23.329,Continuous,2022.1.1,None,
15,0,15,0,1,0,1,0,,,,,,,,1.1038009586356703,frequency,6350.0,2.116997249663579,0.00016782379635263387,0,64,[],0.004108266672119498,None,['space'],483.7203869000077,483.7203869000077,0.20525456668110564,1.309055525316776,483.9319816000061,483.7203869000077,[-1.6199836999876425],,,,,,,,,,lkxgs,001,fr,0,2022-04-29_11h57.23.329,Continuous,2022.1.1,None,
15,0,15,0,2,0,2,0,,,,,,,,1.2643451001498502,frequency,5040.0,2.8434590053876683,0.00020985950106080397,0,65,[],0.0006100666942074895,0.19862186664249748,['space'],485.0737707000226,485.0737707000226,0.19862186664249748,1.4629669667923477,485.29046779999044,485.0737707000226,[-1.1175169000052847],,,,,,,,,,lkxgs,001,fr,0,2022-04-29_11h57.23.329,Continuous,2022.1.1,None,
15,0,15,0,3,0,3,0,,,,,,,,1.25949105128336,frequency,4000.0,3.555066784488413,0.00012639309353685378,0,66,[],0.0010465667000971735,0.19355396670289338,['space'],486.57875440001953,486.57875440001953,0.19355396670289338,1.4530450179862533,486.794708899979,486.57875440001953,[-0.9263462999952026],,,,,,,,,,lkxgs,001,fr,0,2022-04-29_11h57.23.329,Continuous,2022.1.1,None,
15,0,15,0,4,0,4,0,,,,,,,,2.627446483366822,frequency,3175.0,5.465178375004192,0.00013031115800473506,0,67,[],0.004121966660022736,None,['space'],488.0920998000074,488.0920998000074,0.20552016666624695,2.832966650033069,488.2986056000227,488.0920998000074,[-1.1927098000305705],,,,,,,,,,lkxgs,001,fr,0,2022-04-29_11h57.23.329,Continuous,2022.1.1,None,
15,0,15,0,5,0,5,0,,,,,,,,1.290368580216627,frequency,,,,1,67,[],0.0011158666457049549,0.19596706668380648,['space'],490.9626406999887,490.9626406999887,0.19596706668380648,1.4863356469004334,491.1781149000162,490.9626406999887,[-2.637655399972573],,,,,,,,,,lkxgs,001,fr,0,2022-04-29_11h57.23.329,Continuous,2022.1.1,None,
15,0,15,0,6,0,6,0,,,,,,,,2.308308615995289,frequency,2000.0,2.865650391591771,0.00010405250113537419,0,68,[],0.004822966642677784,None,None,492.4967980000074,492.4967980000074,0.20392536668805405,2.512233982683343,492.7117973000277,492.4967980000074,,,,,,,,,,,lkxgs,001,fr,0,2022-04-29_11h57.23.329,Continuous,2022.1.1,None,
15,0,15,0,7,0,7,0,,,,,,,,1.1010907327806017,frequency,1587.0,1.8863260091215517,6.915115325379909e-05,0,69,[],0.0010392667027190328,None,['space'],495.0562845999957,495.0562845999957,0.19966486666817218,1.3007555994487738,495.27661200001603,495.0562845999957,[-2.188099199964199],,,,,,,,,,lkxgs,001,fr,0,2022-04-29_11h57.23.329,Continuous,2022.1.1,None,
15,0,15,0,8,0,8,0,,,,,,,,2.6126482132796034,frequency,1260.0,3.055401515597595,7.713607351782564e-05,0,70,[],0.014480833313427866,0.2126382333226502,['space'],496.4114692999865,496.4114692999865,0.2126382333226502,2.8252864466022536,496.6185607999796,496.4114692999865,[-0.9508216999820434],,,,,,,,,,lkxgs,001,fr,0,2022-04-29_11h57.23.329,Continuous,2022.1.1,None,
16,0,16,0,0,0,0,0,,,,,,502.8346015000134,None,2.6062883089803615,time,1682.0,-0.172601569595768,5.9263659386382354e-05,0,71,[],0.01225816662190482,None,None,503.8647869999986,None,0.2139212666079402,2.8202095755883017,504.0798340999754,None,,499.27006020001136,None,"[0.3333333333333333, 0.16666666666666666, 0.3333333333333333, 0.5833333333333334, 0.16666666666666666, 0.16666666666666666, 0.3333333333333333, 0.3333333333333333, 0.3333333333333333, 0.16666666666666666, 0.5833333333333334, 0.16666666666666666, 0.16666666666666666, 0.3333333333333333, 0.3333333333333333]",,,,,,,lkxgs,001,fr,0,2022-04-29_11h57.23.329,Continuous,2022.1.1,None,
16,0,16,0,1,0,1,0,,,,,,,,2.6062883089803615,time,8000.0,-2.0,0.00014420157515633036,0,72,[],0.003883366647642106,None,None,506.7113662000047,506.7113662000047,0.2079576666583307,2.814245975638692,506.9269460000214,506.7113662000047,,,,,,,,,,,lkxgs,001,fr,0,2022-04-29_11h57.23.329,Continuous,2022.1.1,None,
16,0,16,0,2,0,2,0,,,,,,,,2.6062883089803615,time,3175.0,0.011251094947331453,6.954809523373554e-05,0,73,[],0.004037466656882316,None,['space'],509.5634755999781,509.5634755999781,0.2051970666507259,2.8114853756310874,509.76944439997897,509.5634755999781,[-2.455557300010696],,,,,,,,,,lkxgs,001,fr,0,2022-04-29_11h57.23.329,Continuous,2022.1.1,None,
16,0,16,0,3,0,3,0,,,,,,,,2.6062883089803615,time,2119.0,1.8358356430787366,9.567786075536161e-05,0,74,[],0.016349533339962363,None,['space'],512.4093522999901,512.4093522999901,0.21341123332967982,2.8196995423100413,512.6278751000063,512.4093522999901,[-2.229385699960403],,,,,,,,,,lkxgs,001,fr,0,2022-04-29_11h57.23.329,Continuous,2022.1.1,None,
16,0,16,0,4,0,4,0,,,,,,,,2.6062883089803615,time,,,,1,74,[],0.004123366670683026,None,['space'],515.2702487999923,515.2702487999923,0.20368826668709517,2.8099765756674566,515.4793015000178,515.2702487999923,[-2.4019152999971993],,,,,,,,,,lkxgs,001,fr,0,2022-04-29_11h57.23.329,Continuous,2022.1.1,None,
16,0,16,0,5,0,5,0,,,,,,,,2.6062883089803615,time,4000.0,3.7247683922214563,0.00012888679489024766,0,75,[],0.004917666665278375,None,None,518.1228544000187,518.1228544000187,0.20469586667604744,2.810984175656409,518.3287681000074,518.1228544000187,,,,,,,,,,,lkxgs,001,fr,0,2022-04-29_11h57.23.329,Continuous,2022.1.1,None,
16,0,16,0,6,0,6,0,,,,,,,,2.6062883089803615,time,6350.0,-2.0434019696478574,0.00010395217489500687,0,76,[],0.0035866666585206985,None,['space'],520.9734140000073,520.9734140000073,0.20730246661696583,2.8135907755973273,521.1784526000265,520.9734140000073,[-2.5051252999692224],,,,,,,,,,lkxgs,001,fr,0,2022-04-29_11h57.23.329,Continuous,2022.1.1,None,
16,0,16,0,7,0,7,0,,,,,,,,2.6062883089803615,time,5040.0,-0.48561355470413736,0.00014304576610119383,0,77,[],0.013713133346755058,None,['space'],523.824711000023,523.824711000023,0.21597163332626224,2.8222599423066237,524.0490925000049,523.824711000023,[-2.4773466999758966],,,,,,,,,,lkxgs,001,fr,0,2022-04-29_11h57.23.329,Continuous,2022.1.1,None,
16,0,16,0,8,0,8,0,,,,,,,,2.6062883089803615,time,3564.0,3.1923055123622763,0.00011017006430125681,0,78,[],0.016300333314575255,None,['space'],526.6848282999708,526.6848282999708,0.22887513332534581,2.8351634423057073,526.9086407999857,526.6848282999708,[-2.296972900046967],,,,,,,,,,lkxgs,001,fr,0,2022-04-29_11h57.23.329,Continuous,2022.1.1,None,
17,0,17,0,0,0,0,0,,,,,0.5833333333333334,532.2266333000152,None,1.7711734441870148,both,2000.0,1.233668017079622,8.622901103633845e-05,0,57,[],0.01293386664474383,None,None,533.2497873000102,None,0.22972496668808162,2.0008984108750965,533.4700568999979,None,,529.5394856000203,None,,,,,,,,lkxgs,001,fr,0,2022-04-29_11h57.23.329,Continuous,2022.1.1,None,
17,0,17,0,1,0,1,0,,,,,,,,1.7711734441870148,both,1335.0,2.2815481954980505,6.813966916944633e-05,0,58,[],0.016405133355874568,None,None,535.265682999976,535.265682999976,0.21224623336456716,1.983419677551582,535.4825131000252,535.265682999976,,,,,,,,,,,lkxgs,001,fr,0,2022-04-29_11h57.23.329,Continuous,2022.1.1,None,
17,0,17,0,2,0,2,0,,,,,,,,1.7711734441870148,both,891.0,2.9189281715902027,5.7312273739739314e-05,0,59,[],1.8466729670763016e-05,None,None,537.2831529999967,537.2831529999967,0.1920873667113483,1.9632608108983631,537.4981312999735,537.2831529999967,,,,,,,,,,,lkxgs,001,fr,0,2022-04-29_11h57.23.329,Continuous,2022.1.1,None,
17,0,17,0,3,0,3,0,,,,,,,,1.7711734441870148,both,595.0,1.8590810345781916,7.013901768141403e-05,0,60,[],0.00020486669382080436,0.19227586669148877,None,539.3023321999935,539.3023321999935,0.19227586669148877,1.9634493108785036,539.5121734000277,539.3023321999935,,,,,,,,,,,lkxgs,001,fr,0,2022-04-29_11h57.23.329,Continuous,2022.1.1,None,
17,0,17,0,4,0,4,0,,,,,,,,1.7711734441870148,both,397.0,6.683524665294355,0.00016693300637691435,0,61,[],0.0010136666242033243,None,['space'],541.315034499974,541.315034499974,0.1966268666437827,1.9678003108307975,541.5281083000009,541.315034499974,[-1.0872598999994807],,,,,,,,,,lkxgs,001,fr,0,2022-04-29_11h57.23.329,Continuous,2022.1.1,None,
17,0,17,0,5,0,5,0,,,,,,,,1.7711734441870148,both,265.0,3.258004239918538,0.00022058465942090762,0,62,[],0.002063233288936317,0.19473923329496756,['space'],543.3468132999842,543.3468132999842,0.19473923329496756,1.9659126774819824,543.5584396999911,543.3468132999842,[-1.5669361999607645],,,,,,,,,,lkxgs,001,fr,0,2022-04-29_11h57.23.329,Continuous,2022.1.1,None,
17,0,17,0,6,0,6,0,,,,,,,,1.7711734441870148,both,177.0,1.0,0.00039181749080690904,0,63,[],0.003404066665098071,None,['space'],545.3663046999718,545.3663046999718,0.20572706667007878,1.9769005108570936,545.5760045999778,545.3663046999718,[-1.6017076999996789],,,,,,,,,,lkxgs,001,fr,0,2022-04-29_11h57.23.329,Continuous,2022.1.1,None,
17,0,17,0,7,0,7,0,,,,,,,,1.7711734441870148,both,,,,1,63,[],0.003528266679495573,None,None,547.3852827000082,547.3852827000082,0.20535696670413017,1.976530410891145,547.5959327999735,547.3852827000082,,,,,,,,,,,lkxgs,001,fr,0,2022-04-29_11h57.23.329,Continuous,2022.1.1,None,
18,0,18,0,0,0,0,0,,,,,,552.5381521999952,None,1.5599472527648977,time,,,,1,78,[],0.012600966612808406,None,None,553.5678045999957,None,0.217346066609025,1.7772933193739227,553.7817158999969,None,,549.4022083000164,None,"[0.3333333333333333, 0.16666666666666666, 0.3333333333333333, 0.5833333333333334, 0.5833333333333334, 0.5833333333333334, 0.5833333333333334, 0.5833333333333334, 0.16666666666666666, 0.3333333333333333, 0.16666666666666666, 0.5833333333333334, 0.3333333333333333, 0.3333333333333333, 0.5833333333333334]",,,,,,,lkxgs,001,fr,0,2022-04-29_11h57.23.329,Continuous,2022.1.1,None,
18,0,18,0,1,0,1,0,,,,,,,,1.5599472527648977,time,629.0,12.152900251131815,0.00020793957917363676,0,79,[],0.00011626665946096182,None,None,555.3723019000026,555.3723019000026,0.19269776664441451,1.7526450194093122,555.5845074999961,555.3723019000026,,,,,,,,,,,lkxgs,001,fr,0,2022-04-29_11h57.23.329,Continuous,2022.1.1,None,
18,0,18,0,2,0,2,0,,,,,,,,1.5599472527648977,time,125.0,14.0,0.0036221798003749518,0,80,[],0.0022279666736721992,0.1996803666697815,None,557.1814736999804,557.1814736999804,0.1996803666697815,1.7596276194346792,557.3861744999886,557.1814736999804,,,,,,,,,,,lkxgs,001,fr,0,2022-04-29_11h57.23.329,Continuous,2022.1.1,None,
18,0,18,0,3,0,3,0,,,,,,,,1.5599472527648977,time,176.0,9.768746401399959,0.0010864933004003713,0,81,[],0.0029712666873820126,None,['space'],558.9829672999913,558.9829672999913,0.2022078667068854,1.762155119471783,559.1956971000182,558.9829672999913,[-1.2351355999708176],,,,,,,,,,lkxgs,001,fr,0,2022-04-29_11h57.23.329,Continuous,2022.1.1,None,
18,0,18,0,4,0,4,0,,,,,,,,1.5599472527648977,time,420.0,10.529716298007479,0.00025387463853931253,0,82,[],0.015803833375684917,None,['space'],560.7906636000262,560.7906636000262,0.2080574333667755,1.7680046861316732,561.0036635000142,560.7906636000262,[-1.3944455000455491],,,,,,,,,,lkxgs,001,fr,0,2022-04-29_11h57.23.329,Continuous,2022.1.1,None,
18,0,18,0,5,0,5,0,,,,,,,,1.5599472527648977,time,333.0,11.618156267242716,0.0003579284022591706,0,83,[],0.002963066683150828,None,['space'],562.6037267000065,562.6037267000065,0.20826856669737026,1.768215819462268,562.8196431000251,562.6037267000065,[-1.4473576999735087],,,,,,,,,,lkxgs,001,fr,0,2022-04-29_11h57.23.329,Continuous,2022.1.1,None,
18,0,18,0,6,0,6,0,,,,,,,,1.5599472527648977,time,157.0,10.56373255525011,0.0014773789901076707,0,84,['time'],0.016251933353487402,None,['space'],564.412657000008,564.412657000008,0.20764583331765607,1.7675930860825537,564.6267989000189,564.412657000008,[-1.5451771999942139],,,,"{'estimation': [[125.0, 13.65236974803155], [131.5165607435804, 13.0], [133.9716828170366, 12.778978301993119], [140.52921256078844, 12.0], [143.5872943746293, 11.664316955905319], [149.4691997831942, 11.0], [153.89305166811442, 10.532618076002196], [160.06377648889375, 10.0], [164.9384888466115, 9.603962993946512], [176.77669529663666, 9.037117403613431], [179.53612767910823, 9.0], [189.46457081379947, 8.871645846591319], [200.70320239144434, 9.0], [203.0630990890585, 9.026366823907466], [217.6376408240306, 9.304153076505418], [233.25824788420132, 9.456368589519794], [249.99999999999937, 9.255769793450039], [256.30949461754756, 9.0], [267.94336563407256, 8.549120232292463], [276.3827948539132, 8.0], [287.1745887492579, 7.315242104279712], [291.10613960934427, 7.0], [303.37027422720524, 6.0], [307.78610333622805, 5.651799805415719], [315.5237586809435, 5.0], [327.16552743210576, 4.0], [329.87697769322244, 3.7752095448268608], [339.988871465536, 3.0], [352.9775024942904, 2.0], [353.55339059327247, 1.9568560160789212], [369.7628660595492, 1.0], [378.929141627598, 0.4698510390628633], [392.52798602093117, 0.0], [406.12619817811606, -0.45626977371871147], [435.2752816480601, -0.6850292354580693], [466.5164957684015, -0.20722170900879525], [472.59240168202507, 0.0], [499.9999999999975, 0.8680893532003581], [503.15274251961245, 1.0], [527.682257825815, 2.0], [535.8867312681438, 2.3143645853568215], [553.0333251388956, 3.0], [574.3491774985143, 3.829738233236771], [579.7300525398223, 4.0], [611.6830162915014, 5.0], [615.5722066724546, 5.118155939948654], [659.7539553864432, 5.929319010609094], [674.1249574899724, 6.0], [707.1067811865431, 6.154658924797776], [730.288282366675, 6.0], [757.8582832551941, 5.8262691611511706], [812.2523963562301, 5.142343386746558], [822.6254603992016, 5.0], [870.5505632961181, 4.37526784116095], [912.0445547078454, 4.0], [933.0329915368008, 3.8165260748465], [999.9999999999926, 3.676770397496269], [1068.077047190916, 4.0], [1071.773462536285, 4.0169948192391445], [1148.698354997026, 4.729099254512657], [1174.169846574924, 5.0], [1231.1444133449063, 5.58826945409473], [1281.2762671411192, 6.0], [1319.5079107728832, 6.308457986107071], [1414.2135623730828, 6.638657925848019], [1515.7165665103846, 6.45021429668736], [1584.4941786858292, 6.0], [1624.5047927124563, 5.74452027371516], [1704.5576650428125, 5.0], [1741.1011265922298, 4.667525671949997], [1808.1581184425238, 4.0], [1866.065983073597, 3.4378731699267284], [1916.1191652532098, 3.0], [1999.9999999999802, 2.2876199708704794], [2045.5505780480678, 2.0], [2143.5469250725646, 1.402434345548237], [2263.086792901715, 1.0], [2297.396709994046, 0.8870805348361925], [2462.2888266898062, 0.7534897749463221], [2639.01582154576, 0.9400693932449187], [2666.7146432086365, 1.0], [2828.427124746159, 1.3316151677795653], [3031.4331330207615, 1.7910300135868436], [3142.4876846722336, 2.0], [3249.0095854249043, 2.191438105386276], [3482.2022531844555, 2.4047912707170163], [3732.1319661471844, 2.3443267610470295], [3970.2347961316, 2.0], [3999.9999999999504, 1.9574742915468513], [4287.093850145118, 1.2540923864855835], [4366.4023123924, 1.0], [4594.793419988081, 0.2949380167843624], [4681.224954741774, 0.0], [4924.577653379601, -0.7937577382399323], [4991.12502648736, -1.0], [5278.031643091506, -1.848417515038474], [5343.596785291177, -2.0], [5656.854249492303, -2.694936541793616], [5907.844371013314, -3.0], [6062.866266041501, -3.184861385695566], [6498.019170849785, -3.2215960419013303], [6732.935259141133, -3.0], [6964.404506368902, -2.7869331203738548], [7431.759287849346, -2.0], [7464.2639322943505, -1.945480709930715], [7912.826775014957, -1.0], [7999.999999999882, -0.8123486048291546]], 'plus_line': [[125.0, 9.698527809884357], [133.9716828170366, 9.094518401913842], [134.84831824606024, 9.0], [143.5872943746293, 8.119521366316656], [144.7121329531047, 8.0], [153.89305166811442, 7.080956349845006], [154.89212476765732, 7.0], [164.93848884661162, 6.215953533373904], [169.73365560186096, 6.0], [176.77669529663666, 5.67618798076615], [189.46457081379947, 5.503988269361721], [203.0630990890585, 5.63271965779649], [217.63764082403046, 5.913709471711114], [224.44951216129778, 6.0], [233.25824788420132, 6.095402546982659], [243.51119630500082, 6.0], [249.99999999999937, 5.935273818555442], [267.94336563407256, 5.2411145274650455], [271.4857608827735, 5.0], [286.79312765686643, 4.0], [287.1745887492579, 3.97590249928988], [297.9402268121333, 3.0], [307.78610333622805, 2.202774640880274], [309.9669317860333, 2.0], [320.2592313344685, 1.0], [329.87697769322244, 0.17611029924345623], [331.9547158833497, 0.0], [343.29662129995916, -1.0], [353.55339059327247, -1.80537968479829], [356.5653001137793, -2.0], [371.9860441913217, -3.0], [378.9291416275976, -3.418292634658247], [395.3916737202874, -4.0], [406.12619817811606, -4.372618736464634], [435.2752816480601, -4.5226237922967005], [459.7191626029739, -4.0], [466.5164957684015, -3.871523316938108], [489.7304625409766, -3.0], [499.9999999999975, -2.636621271341883], [514.8080705366546, -2.0], [535.8867312681438, -1.080215343858645], [537.9174559987193, -1.0], [563.1671568526024, 0.0], [574.3491774985143, 0.44326811080806927], [592.5376825742659, 1.0], [615.5722066724546, 1.708621422445638], [630.8601172954278, 2.0], [659.7539553864432, 2.5162562870604024], [707.1067811865431, 2.779820036740426], [757.8582832551951, 2.5054891995393076], [801.4498803641483, 2.0], [812.252396356229, 1.8722615612570297], [870.5505632961181, 1.1317921269841005], [885.7938354910286, 1.0], [933.0329915368008, 0.5819269002207275], [999.9999999999926, 0.4750823806718072], [1071.773462536285, 0.8656178995248835], [1084.5978294783076, 1.0], [1148.6983549970273, 1.605744406128124], [1184.5717561480667, 2.0], [1231.1444133449063, 2.47718522288322], [1294.1903779410982, 3.0], [1319.5079107728832, 3.19512910733975], [1414.2135623730828, 3.49359748910648], [1515.7165665103846, 3.267524156576887], [1553.9834839395173, 3.0], [1624.5047927124563, 2.4965762653340526], [1674.2563119782187, 2.0], [1741.1011265922318, 1.3461168004140167], [1773.7667501091794, 1.0], [1866.065983073597, 0.05507574517460123], [1872.0948716745336, 0.0], [1982.3322054897878, -1.0], [1999.9999999999777, -1.154153971650322], [2134.280631434948, -2.0], [2143.5469250725646, -2.0581603043903804], [2297.396709994046, -2.5943658739694877], [2462.2888266898062, -2.722024737084477], [2639.01582154576, -2.5248155239616317], [2828.427124746159, -2.083427361812621], [2858.2711926170587, -2.0], [3031.4331330207615, -1.5769405044983333], [3249.0095854249043, -1.1219841307318985], [3362.9680527477526, -1.0], [3482.2022531844555, -0.8903404143702082], [3732.1319661471844, -0.9763126841376761], [3746.692942857942, -1.0], [3999.9999999999504, -1.432128918720233], [4220.707153083074, -2.0], [4287.093850145118, -2.1744650013903715], [4549.0857331352445, -3.0], [4594.793419988076, -3.1408912278568852], [4857.1368912330245, -4.0], [4924.577653379601, -4.2106575260367025], [5193.131155726176, -5.0], [5278.031643091506, -5.23925712860548], [5623.382321740466, -6.0], [5656.854249492303, -6.07350584450646], [6062.866266041508, -6.600777315022231], [6498.019170849792, -6.675262309043443], [6964.404506368894, -6.282873582098742], [7141.441531926235, -6.0], [7464.2639322943505, -5.512291345427588], [7753.345186104757, -5.0], [7999.999999999882, -4.562164958102747]], 'minus_line': [[125.0, 17.8580690029603], [131.3875093548868, 17.0], [133.9716828170366, 16.684715138006247], [138.89096816067266, 16.0], [143.5872943746293, 15.378542910823558], [146.54520367770203, 15.0], [153.89305166811442, 14.091862180596946], [154.810567683814, 14.0], [164.93848884661162, 13.048622815188416], [165.77393199225097, 13.0], [176.77669529663666, 12.431738481573099], [189.46457081379947, 12.258899440448173], [203.0630990890585, 12.442000953357937], [217.6376408240306, 12.730599818569054], [233.25824788420118, 12.862343158618502], [249.99999999999937, 12.63199357873176], [265.1054891069349, 12.0], [267.94336563407256, 11.889793444284791], [282.01006552272264, 11.000000000000002], [287.1745887492579, 10.676416984715008], [296.1941500622978, 10.0], [307.78610333622805, 9.068987082004059], [308.70068978621094, 9.0], [321.517180151153, 8.0], [329.87697769322244, 7.3038284106051785], [334.30688061508573, 7.0], [348.03281125904135, 6.0], [353.55339059327247, 5.593429935410578], [364.41920401084394, 5.0], [378.929141627598, 4.17976929114927], [384.0484840881103, 4.0], [406.12619817811606, 3.2614929139787803], [429.2333901638456, 3.0000000000000004], [435.2752816480601, 2.9400164831166777], [440.5662489192144, 3.0], [466.5164957684015, 3.2944038524153316], [491.0136167481186, 4.0], [499.9999999999975, 4.244925275840892], [518.5040168696095, 5.0], [535.8867312681438, 5.644203427788867], [544.3840581174246, 6.0], [569.1424829072186, 7.0], [574.3491774985143, 7.196406434397471], [598.2078039456615, 8.0], [615.5722066724546, 8.548247419200615], [639.5496668298209, 9.0], [659.7539553864432, 9.379557049374277], [707.1067811865431, 9.553641225040446], [757.8582832551941, 9.13033812217651], [766.3516355856509, 9.0], [812.2523963562301, 8.366678918910349], [837.0530286385857, 8.0], [870.5505632961192, 7.544600585077764], [926.8606922768473, 6.999999999999999], [933.0329915368008, 6.945455537511355], [999.9999999999926, 6.803061693441269], [1041.776755640391, 7.0], [1071.773462536285, 7.152400493258732], [1148.698354997026, 7.896523345144604], [1157.9815403993614, 8.0], [1231.1444133449063, 8.817452701046337], [1251.929767396149, 9.0], [1319.5079107728832, 9.605971518265147], [1414.2135623730828, 9.96766452939451], [1515.7165665103846, 9.810224297056651], [1624.5047927124563, 9.11507133769893], [1636.564931668812, 9.0], [1741.1011265922318, 8.034742532489496], [1744.5263672350147, 8.0], [1845.7160059848766, 7.0], [1866.065983073597, 6.804319009775187], [1957.88620782632, 6.0], [1999.9999999999802, 5.64201137490913], [2099.878803198073, 5.0], [2143.546925072562, 4.734975160911236], [2297.396709994046, 4.212346471678711], [2462.2888266898062, 4.077638247553238], [2639.015821545763, 4.280844658327801], [2828.427124746159, 4.666588126373707], [2985.47101124311, 5.0], [3031.4331330207615, 5.102587187425866], [3249.0095854249043, 5.492904254970133], [3482.2022531844555, 5.708731757514348], [3732.1319661471844, 5.685871181890279], [3999.9999999999504, 5.351687197912547], [4142.690231638308, 5.0], [4287.093850145118, 4.669532137572254], [4494.840791754205, 4.0], [4594.7934199880865, 3.6923970618114414], [4792.3803880723735, 3.0], [4924.577653379601, 2.5537427977672196], [5097.368462301735, 2.0], [5278.031643091506, 1.4440766361815993], [5465.30496540408, 1.0], [5656.854249492303, 0.5734401229800163], [6062.866266041508, 0.09713721448740986], [6498.019170849792, 0.11002446126134946], [6964.4045063688845, 0.6142955029298538], [7167.63709777561, 1.0], [7464.2639322943505, 1.5683917669530627], [7634.48534046693, 2.0], [7999.999999999882, 2.9268507807752324]]}",,,,,,lkxgs,001,fr,0,2022-04-29_11h57.23.329,Continuous,2022.1.1,None,
18,0,18,0,7,0,7,0,,,,,,,,1.5599472527648977,time,264.0,12.879633192390179,0.0006724829787673241,0,85,['time'],0.008597633277531713,0.20153183332877234,['space'],566.227499599976,566.227499599976,0.20153183332877234,1.76147908609367,566.4406005999772,566.227499599976,[-1.5835548000177369],,,,,,,,,,lkxgs,001,fr,0,2022-04-29_11h57.23.329,Continuous,2022.1.1,None,
19,0,19,0,0,0,0,0,,,,,0.16666666666666666,570.8195112000103,None,1.9786100864581113,both,313.0,11.058397423962777,0.0003598500957567105,0,64,['time'],0.012753466668073088,None,None,571.8588755999808,None,0.2221021666773595,2.200712253135471,572.0747392000048,None,,568.0321149000083,None,,,,,,,,lkxgs,001,fr,0,2022-04-29_11h57.23.329,Continuous,2022.1.1,None,
19,0,19,0,1,0,1,0,,,,,,,,1.9786100864581113,both,279.0,9.797491988905946,0.0004225063549864362,0,65,['time'],0.0015572666889056563,None,None,574.0818496000138,574.0818496000138,0.2060398666653782,2.1846499531234898,574.2987738000229,574.0818496000138,,,,,,,,,,,lkxgs,001,fr,0,2022-04-29_11h57.23.329,Continuous,2022.1.1,None,
19,0,19,0,2,0,2,0,,,,,,,,1.9786100864581113,both,,,,1,65,['time'],0.013520533277187496,None,['space'],576.3126549000153,576.3126549000153,0.20719363330863416,2.1858037197667457,576.52483509999,576.3126549000153,[-1.9246130000101402],,,,,,,,,,lkxgs,001,fr,0,2022-04-29_11h57.23.329,Continuous,2022.1.1,None,
19,0,19,0,3,0,3,0,,,,,,,,1.9786100864581113,both,222.0,9.814260544768473,0.0006882254186538485,0,66,['time'],0.016203533275984228,None,None,578.5383383000153,578.5383383000153,0.21214353328105062,2.190753619739162,578.7540118999896,578.5383383000153,,,,,,,,,,,lkxgs,001,fr,0,2022-04-29_11h57.23.329,Continuous,2022.1.1,None,
19,0,19,0,4,0,4,0,,,,,,,,1.9786100864581113,both,198.0,9.268703328788092,0.0007927969880962108,0,67,['time'],0.001651166647206992,None,['space'],580.772856399999,580.772856399999,0.20292926661204547,2.181539353070157,580.9842551000183,580.772856399999,[-1.8889274999964982],,,,,,,,,,lkxgs,001,fr,0,2022-04-29_11h57.23.329,Continuous,2022.1.1,None,
19,0,19,0,5,0,5,0,,,,,,,,1.9786100864581113,both,176.0,9.015979756264128,0.0009962967656423816,0,68,['time'],0.015522933390457183,None,['space'],582.9982095999876,582.9982095999876,0.2086368334130384,2.18724691987115,583.213613800006,582.9982095999876,[-1.841665399959311],,,,,,,,,,lkxgs,001,fr,0,2022-04-29_11h57.23.329,Continuous,2022.1.1,None,
19,0,19,0,6,0,6,0,,,,,,,,1.9786100864581113,both,157.0,9.0,0.0012339719590444957,0,69,['time'],0.014840733318123966,None,['space'],585.2282166000223,585.2282166000223,0.21401913330191746,2.192629219760029,585.4481719000032,585.2282166000223,[-1.8642510999925435],,,,,,,,,,lkxgs,001,fr,0,2022-04-29_11h57.23.329,Continuous,2022.1.1,None,
19,0,19,0,7,0,7,0,,,,,,,,1.9786100864581113,both,140.0,9.078052274002408,0.0016755171366566633,0,70,['time'],0.0016533666639588773,None,['space'],587.4631861000089,587.4631861000089,0.2024166666669771,2.1810267531250886,587.6723859999911,587.4631861000089,[-1.907272499985993],,,,,,,,,,lkxgs,001,fr,0,2022-04-29_11h57.23.329,Continuous,2022.1.1,None,
19,0,19,0,8,0,8,0,,,,,,,,1.9786100864581113,both,125.0,9.0,0.0020369013890205647,0,71,['time'],0.015126433281693608,None,['space'],589.6858563999995,589.6858563999995,0.23748153331689537,2.216091619775007,589.9201892999699,589.6858563999995,[-1.9219003999605775],,,,,,,,,,lkxgs,001,fr,0,2022-04-29_11h57.23.329,Continuous,2022.1.1,None,
20,0,20,0,0,0,0,0,,,,,0.5833333333333334,594.6896791000036,None,2.712649062623078,both,1411.0,3.570730698139184,7.619599606369338e-05,0,72,['time'],0.012730666610877961,None,None,595.7291925000027,None,0.23379876662511379,2.946447829248192,595.9522129999823,None,,591.9251168000046,None,,,,,,,,lkxgs,001,fr,0,2022-04-29_11h57.23.329,Continuous,2022.1.1,None,
20,0,20,0,1,0,1,0,,,,,,,,2.712649062623078,both,942.0,5.609532820416802,8.088783790388164e-05,0,73,['time'],0.015148833394050598,None,None,598.6923881000257,598.6923881000257,0.22750333335716277,2.940152395980241,598.9144176000264,598.6923881000257,,,,,,,,,,,lkxgs,001,fr,0,2022-04-29_11h57.23.329,Continuous,2022.1.1,None,
20,0,20,0,2,0,2,0,,,,,,,,2.712649062623078,both,629.0,4.00780465409649,8.141086718696603e-05,0,74,['time'],0.014259733317885548,0.21192703332053497,None,601.6629755999893,601.6629755999893,0.21192703332053497,2.924576095943613,601.8817849999759,601.6629755999893,,,,,,,,,,,lkxgs,001,fr,0,2022-04-29_11h57.23.329,Continuous,2022.1.1,None,
20,0,20,0,3,0,3,0,,,,,,,,2.712649062623078,both,420.0,4.829408776384161,0.0001317055092760332,0,75,['time'],0.01482253335416317,None,['space'],604.6215484000277,604.6215484000277,0.23433833330636844,2.9469873959294466,604.8516440999811,604.6215484000277,[-2.3943647000123747],,,,,,,,,,lkxgs,001,fr,0,2022-04-29_11h57.23.329,Continuous,2022.1.1,None,
20,0,20,0,4,0,4,0,,,,,,,,2.712649062623078,both,280.0,11.043054665277479,0.00048387593446809485,0,76,['time'],0.01464883325388655,None,['space'],607.5913206000114,607.5913206000114,0.23588463326450437,2.9485336958875825,607.8178290000069,607.5913206000114,[-2.515393400040921],,,,,,,,,,lkxgs,001,fr,0,2022-04-29_11h57.23.329,Continuous,2022.1.1,None,
20,0,20,0,5,0,5,0,,,,,,,,2.712649062623078,both,187.0,4.3817391959550696,0.0005180085720129824,0,77,['time'],0.014130233263131231,None,['space'],610.5648742999765,610.5648742999765,0.21205413329880685,2.924703195921885,610.7796895999927,610.5648742999765,[-2.5937304999679327],,,,,,,,,,lkxgs,001,fr,0,2022-04-29_11h57.23.329,Continuous,2022.1.1,None,
20,0,20,0,6,0,6,0,,,,,,,,2.712649062623078,both,125.0,4.0,0.0011454338263838868,0,78,['time'],0.01447133329929784,None,['space'],613.529529499996,613.529529499996,0.20620903332019225,2.9188580959432704,613.7422828000272,613.529529499996,[-2.6130032000364736],,,,,,,,,,lkxgs,001,fr,0,2022-04-29_11h57.23.329,Continuous,2022.1.1,None,
20,0,20,0,7,0,7,0,,,,,,,,2.712649062623078,both,,,,1,78,['time'],0.0013738666893914342,None,['space'],616.4934218999697,616.4934218999697,0.20004676666576415,2.9126958292888423,616.6999227000051,616.4934218999697,[-1.945120099990163],,,,,,,,,,lkxgs,001,fr,0,2022-04-29_11h57.23.329,Continuous,2022.1.1,None,
21,0,21,0,0,0,0,0,,,,,0.16666666666666666,626.586610600003,None,1.3737410932885241,frequency,249.0,9.955679096049922,0.0005330952245445255,0,71,['time'],0.011226766684558243,None,None,627.6095657999977,None,0.21637506666593254,1.5901161599544567,627.8216758000199,None,,619.4472139999853,None,,,,,,,,lkxgs,001,fr,0,2022-04-29_11h57.23.329,Continuous,2022.1.1,None,
21,0,21,0,1,0,1,0,,,,,,,,2.74183684600607,frequency,222.0,8.695660650204964,0.0006050631637960194,0,72,['time'],0.014452333271037787,None,None,629.2315728000249,629.2315728000249,0.21089703327743337,2.952733879283503,629.4502910000156,629.2315728000249,,,,,,,,,,,lkxgs,001,fr,0,2022-04-29_11h57.23.329,Continuous,2022.1.1,None,
21,0,21,0,2,0,2,0,,,,,,,,1.0927340058114567,frequency,198.0,8.161774692919488,0.0006979359351792625,0,73,['time'],0.015582933323457837,None,['space'],632.2270236000186,632.2270236000186,0.212122333352454,1.3048563391639108,632.4456342000049,632.2270236000186,[-1.854803099995479],,,,,,,,,,lkxgs,001,fr,0,2022-04-29_11h57.23.329,Continuous,2022.1.1,None,
21,0,21,0,3,0,3,0,,,,,,,,1.4897312310778208,frequency,176.0,8.362500583087131,0.000924091045186693,0,74,['time'],0.014182233368046582,None,['space'],633.5714405999752,633.5714405999752,0.21136833337368444,1.7010995644515052,633.7872468000278,633.5714405999752,[-1.0556854999740608],,,,,,,,,,lkxgs,001,fr,0,2022-04-29_11h57.23.329,Continuous,2022.1.1,None,
21,0,21,0,4,0,4,0,,,,,,,,1.5820223853183877,frequency,157.0,8.471905477331898,0.0011611827210666922,0,75,['time'],0.011084133351687342,None,['space'],635.3171911999816,635.3171911999816,0.20520563336322084,1.7872280186816085,635.5297646999825,635.3171911999816,[-1.2967003000085242],,,,,,,,,,lkxgs,001,fr,0,2022-04-29_11h57.23.329,Continuous,2022.1.1,None,
21,0,21,0,5,0,5,0,,,,,,,,2.3550754589320224,frequency,140.0,8.591581071106834,0.0015842558295916923,0,76,['time'],0.015430833329446614,None,['space'],637.1494705000077,637.1494705000077,0.24146103335078806,2.5965364922828105,637.3815784999751,637.1494705000077,[-1.4973601999809034],,,,,,,,,,lkxgs,001,fr,0,2022-04-29_11h57.23.329,Continuous,2022.1.1,None,
21,0,21,0,6,0,6,0,,,,,,,,1.0137780696746963,frequency,125.0,8.0,0.0018153902738505074,0,77,['time'],0.016558233299292624,None,['space'],639.7684224999975,639.7684224999975,0.21434293332276866,1.228121002997465,639.9823093999876,639.7684224999975,[-2.3249081000103615],,,,,,,,,,lkxgs,001,fr,0,2022-04-29_11h57.23.329,Continuous,2022.1.1,None,
21,0,21,0,7,0,7,0,,,,,,,,2.721754399528616,frequency,,,,1,77,['time'],0.011336433293763548,None,['space'],641.0338406999945,641.0338406999945,0.23190633329795673,2.953660732826573,641.2647963999771,641.0338406999945,[-0.9341635999735445],,,,,,,,,,lkxgs,001,fr,0,2022-04-29_11h57.23.329,Continuous,2022.1.1,None,
22,0,22,0,0,0,0,0,,,,,0.3333333333333333,647.507560500002,None,2.5479273879207955,frequency,792.0,7.038499234519228,8.709494345311021e-05,0,78,['time'],0.012858566653449088,None,None,648.5335259999847,None,0.24716546660056338,2.795092854521359,648.7684707000153,None,,644.0127432000008,None,,,,,,,,lkxgs,001,fr,0,2022-04-29_11h57.23.329,Continuous,2022.1.1,None,
22,0,22,0,1,0,1,0,,,,,,,,2.091613473714909,frequency,629.0,4.850919176651102,8.970943201351287e-05,0,79,['time'],0.014904533396475017,None,['space'],651.347686699999,651.347686699999,0.24040103337028995,2.3320145070851988,651.5835665999912,651.347686699999,[-1.8393119999673218],,,,,,,,,,lkxgs,001,fr,0,2022-04-29_11h57.23.329,Continuous,2022.1.1,None,
22,0,22,0,2,0,2,0,,,,,,,,1.3749581174486356,frequency,499.0,4.9299694942401855,0.0001261185510038776,0,80,['time'],0.013063833292108029,None,['space'],653.7026805999922,653.7026805999922,0.20718023332301527,1.5821383507716509,653.9167418999714,653.7026805999922,[-1.9231784000294283],,,,,,,,,,lkxgs,001,fr,0,2022-04-29_11h57.23.329,Continuous,2022.1.1,None,
22,0,22,0,3,0,3,0,,,,,,,,1.9963261390994966,frequency,396.0,5.18095108048913,0.00014088638592003788,0,81,['time'],0.013577133242506534,None,None,655.3286507999874,655.3286507999874,0.2367194332764484,2.233045572375945,655.5624067999888,655.3286507999874,,,,,,,,,,,lkxgs,001,fr,0,2022-04-29_11h57.23.329,Continuous,2022.1.1,None,
22,0,22,0,4,0,4,0,,,,,,,,2.7243770141997996,frequency,,,,1,81,['time'],0.014253833331167698,0.21097243332769722,['space'],657.5879168999963,657.5879168999963,0.21097243332769722,2.935349447527497,657.8024743999704,657.5879168999963,[-1.504408200038597],,,,,,,,,,lkxgs,001,fr,0,2022-04-29_11h57.23.329,Continuous,2022.1.1,None,
22,0,22,0,5,0,5,0,,,,,,,,2.199266451890469,frequency,249.0,9.627908864419187,0.0005133532082840324,0,82,['time'],0.015000433311797678,None,None,660.5577533000032,660.5577533000032,0.23778223333647475,2.437048685226944,660.7931569999782,660.5577533000032,,,,,,,,,,,lkxgs,001,fr,0,2022-04-29_11h57.23.329,Continuous,2022.1.1,None,
22,0,22,0,6,0,6,0,,,,,,,,1.0982401093033423,frequency,198.0,9.095451815270861,0.0007771402735546359,0,83,['time'],0.01411713333800435,None,['space'],663.0178567999974,663.0178567999974,0.23730263335164636,1.3355427426549886,663.2494435000117,663.0178567999974,[-2.1340323999756947],,,,,,,,,,lkxgs,001,fr,0,2022-04-29_11h57.23.329,Continuous,2022.1.1,None,
